Sl_no,image_path,thisN,thisTrialN,thisRepN,key_resp_5.keys,key_resp_5.rt,key_resp_5.duration,key_resp_7.keys,key_resp_9.keys,key_resp_9.rt,key_resp_9.duration,key_resp_8.keys,key_resp_8.rt,key_resp_8.duration,practice.thisRepN,practice.thisTrialN,practice.thisN,practice.thisIndex,trials.thisRepN,trials.thisTrialN,trials.thisN,trials.thisIndex,thisRow.t,notes,welcome_page.started,text.started,key_resp.started,welcome_page.stopped,key_resp.keys,key_resp.rt,key_resp.duration,instructions.started,ins.started,key_resp_2.started,instructions.stopped,key_resp_2.keys,key_resp_2.rt,key_resp_2.duration,instructions_2.started,text_10.started,key_resp_10.started,instructions_2.stopped,key_resp_10.keys,key_resp_10.rt,key_resp_10.duration,objects_only_instruction.started,text_3.started,key_resp_3.started,objects_only_instruction.stopped,key_resp_3.keys,key_resp_3.rt,key_resp_3.duration,ISI.started,text_4.started,text_4.stopped,ISI.stopped,practice_block.started,image.started,text_5.started,key_resp_5.started,image.stopped,text_5.stopped,key_resp_5.stopped,practice_block.stopped,practice.key_resp_5.keys,practice.key_resp_5.rt,practice.key_resp_5.duration,indoor_outdoor.started,indoor_outdoor.stopped,practice.key_resp_7.keys,practice_to_main.started,text_2.started,key_resp_4.started,practice_to_main.stopped,key_resp_4.keys,key_resp_4.rt,key_resp_4.duration,objects.started,image_2.started,text_9.started,key_resp_9.started,objects.stopped,trials.key_resp_9.keys,trials.key_resp_9.rt,trials.key_resp_9.duration,encoding_task.started,encoding_task.stopped,trials.key_resp_8.keys,image_2.stopped,text_9.stopped,key_resp_9.stopped,text_8.started,key_resp_8.started,trials.key_resp_8.rt,trials.key_resp_8.duration,end_experiment.started,text_6.started,key_resp_6.started,end_experiment.stopped,key_resp_6.keys,key_resp_6.rt,key_resp_6.duration,list_of_stimuli,encoding_task_accuracy,participant,session,date,expName,psychopyVersion,frameRate,expStart,
,,,,,,,,,,,,,,,,,,,,,,,,,0.015014199991128407,0.031631699996069074,0.031631699996069074,328.009996599998,space,327.96045450000383,None,,,,,,,,,,,,,,,,,,,,,,,,,,,,,,,,,,,,,,,,,,,,,,,,,,,,,,,,,,,,,,,,,,,,,,,,,,00018,001,2025-11-09_10h52.32.840,MST_task,2024.2.2,60.001104019989214,2025-11-09 10h52.40.099259 +0530,
,,,,,,,,,,,,,,,,,,,,,,,,,,,,,,,,328.01003369998944,328.02485909999814,328.02485909999814,338.8749600999872,space,10.844651600011275,None,,,,,,,,,,,,,,,,,,,,,,,,,,,,,,,,,,,,,,,,,,,,,,,,,,,,,,,,,,,,,,,,,,,00018,001,2025-11-09_10h52.32.840,MST_task,2024.2.2,60.001104019989214,2025-11-09 10h52.40.099259 +0530,
,,,,,,,,,,,,,,,,,,,,,,,,,,,,,,,,,,,,,,,338.87498459999915,338.89130379998824,338.89130379998824,347.8582482999918,space,8.966504500000156,None,,,,,,,,,,,,,,,,,,,,,,,,,,,,,,,,,,,,,,,,,,,,,,,,,,,,,,,,,,,,00018,001,2025-11-09_10h52.32.840,MST_task,2024.2.2,60.001104019989214,2025-11-09 10h52.40.099259 +0530,
,,,,,,,,,,,,,,,,,,,,,,,,,,,,,,,,,,,,,,,,,,,,,,347.858275599996,347.8744666999992,347.8744666999992,378.9908315999928,space,31.11448260000907,None,,,,,,,,,,,,,,,,,,,,,,,,,,,,,,,,,,,,,,,,,,,,,,,,,,,,,00018,001,2025-11-09_10h52.32.840,MST_task,2024.2.2,60.001104019989214,2025-11-09 10h52.40.099259 +0530,
2,practice_images/031a.jpg,0,0,0,f,1.9765600000100676,0.24206479999702424,None,,,,,,,0,0,0,1,,,,,379.0070463999873,,,,,,,,,,,,,,,,,,,,,,,,,,,,,,378.9944617999863,379.0070463999873,379.50713549999637,379.4906692999939,379.4977075999923,379.50713549999637,379.50713549999637,379.50713549999637,382.50702979999187,382.50702979999187,382.50702979999187,382.4905499999877,f,1.9765600000100676,0.24206479999702424,382.4916811000003,382.49169369999436,None,,,,,,,,,,,,,,,,,,,,,,,,,,,,,,,,,,,00018,001,2025-11-09_10h52.32.840,MST_task,2024.2.2,60.001104019989214,2025-11-09 10h52.40.099259 +0530,
9,practice_images/180a.jpg,1,1,0,f,2.762507999999798,0.14579189999494702,None,,,,,,,0,1,1,8,,,,,382.50702979999187,,,,,,,,,,,,,,,,,,,,,,,,,,,,,,382.4917506999918,382.50702979999187,383.0069708999945,382.9904700999905,382.9919624999893,383.0069708999945,383.0069708999945,383.0069708999945,386.00693459999457,386.00693459999457,386.00693459999457,385.99040239999886,f,2.762507999999798,0.14579189999494702,385.9904320999922,385.9904411999887,None,,,,,,,,,,,,,,,,,,,,,,,,,,,,,,,,,,,00018,001,2025-11-09_10h52.32.840,MST_task,2024.2.2,60.001104019989214,2025-11-09 10h52.40.099259 +0530,
7,practice_images/166a.jpg,2,2,0,f,2.3744164999952773,0.25248380000994075,None,,,,,,,0,2,2,6,,,,,386.00693459999457,,,,,,,,,,,,,,,,,,,,,,,,,,,,,,385.9904919999972,386.00693459999457,386.5069017999922,386.49044659998617,386.49166069999046,386.5069017999922,386.5069017999922,386.5069017999922,389.50685499999963,389.50685499999963,389.50685499999963,389.4904061999987,f,2.3744164999952773,0.25248380000994075,389.49043919998803,389.49044879998837,None,,,,,,,,,,,,,,,,,,,,,,,,,,,,,,,,,,,00018,001,2025-11-09_10h52.32.840,MST_task,2024.2.2,60.001104019989214,2025-11-09 10h52.40.099259 +0530,
10,practice_images/182a.jpg,3,3,0,f,1.2002292999968631,0.39630970000871457,None,,,,,,,0,3,3,9,,,,,389.50685499999963,,,,,,,,,,,,,,,,,,,,,,,,,,,,,,389.4905007999914,389.50685499999963,390.00680979999015,389.9903278999991,389.9916352999862,390.00680979999015,390.00680979999015,390.00680979999015,393.0067887999903,393.0067887999903,393.0067887999903,392.9903302999883,f,1.2002292999968631,0.39630970000871457,392.9903667999897,392.9903767999931,None,,,,,,,,,,,,,,,,,,,,,,,,,,,,,,,,,,,00018,001,2025-11-09_10h52.32.840,MST_task,2024.2.2,60.001104019989214,2025-11-09 10h52.40.099259 +0530,
5,practice_images/139a.jpg,4,4,0,j,2.0736774999968475,0.19652979999955278,None,,,,,,,0,4,4,4,,,,,393.0067887999903,,,,,,,,,,,,,,,,,,,,,,,,,,,,,,392.9904370000004,393.0067887999903,393.50674419999996,393.49029379998683,393.49150229999213,393.50674419999996,393.50674419999996,393.50674419999996,396.5067430999916,396.5067430999916,396.5067430999916,396.49023589999706,j,2.0736774999968475,0.19652979999955278,396.49026899998717,396.4902782999998,None,,,,,,,,,,,,,,,,,,,,,,,,,,,,,,,,,,,00018,001,2025-11-09_10h52.32.840,MST_task,2024.2.2,60.001104019989214,2025-11-09 10h52.40.099259 +0530,
4,practice_images/002b.jpg,5,5,0,f,1.1848960000061197,0.14983939999365248,None,,,,,,,0,5,5,3,,,,,396.5067430999916,,,,,,,,,,,,,,,,,,,,,,,,,,,,,,396.4903331999958,396.5067430999916,397.0066685999918,396.9901597999997,396.99415419998695,397.0066685999918,397.0066685999918,397.0066685999918,400.0066242999892,400.0066242999892,400.0066242999892,399.99011769999925,f,1.1848960000061197,0.14983939999365248,399.9916792999866,399.99169229999825,None,,,,,,,,,,,,,,,,,,,,,,,,,,,,,,,,,,,00018,001,2025-11-09_10h52.32.840,MST_task,2024.2.2,60.001104019989214,2025-11-09 10h52.40.099259 +0530,
8,practice_images/178a.jpg,6,6,0,j,0.7430049999966286,0.15354189999925438,None,,,,,,,0,6,6,7,,,,,400.0066242999892,,,,,,,,,,,,,,,,,,,,,,,,,,,,,,399.99175039998954,400.0066242999892,400.5065905999945,400.49011439998867,400.4913391999871,400.5065905999945,400.5065905999945,400.5065905999945,403.50655419999384,403.50655419999384,403.50655419999384,403.49001519999,j,0.7430049999966286,0.15354189999925438,403.49004689999856,403.49005589999433,None,,,,,,,,,,,,,,,,,,,,,,,,,,,,,,,,,,,00018,001,2025-11-09_10h52.32.840,MST_task,2024.2.2,60.001104019989214,2025-11-09 10h52.40.099259 +0530,
3,practice_images/037a.jpg,7,7,0,f,1.0925100000022212,0.15844600000127684,None,,,,,,,0,7,7,2,,,,,403.50655419999384,,,,,,,,,,,,,,,,,,,,,,,,,,,,,,403.49010719999205,403.50655419999384,404.00663709999935,403.9900318999862,403.99134929999127,404.00663709999935,404.00663709999935,404.00663709999935,407.00649979998707,407.00649979998707,407.00649979998707,406.9900678999984,f,1.0925100000022212,0.15844600000127684,406.9901214999991,406.9901314999879,None,,,,,,,,,,,,,,,,,,,,,,,,,,,,,,,,,,,00018,001,2025-11-09_10h52.32.840,MST_task,2024.2.2,60.001104019989214,2025-11-09 10h52.40.099259 +0530,
1,practice_images/013a.jpg,8,8,0,j,0.754529999991064,0.14596680000249762,None,,,,,,,0,8,8,0,,,,,407.00649979998707,,,,,,,,,,,,,,,,,,,,,,,,,,,,,,406.9901910999906,407.00649979998707,407.50648149999324,407.4899655999907,407.4911781999981,407.50648149999324,407.50648149999324,407.50648149999324,410.50637219999044,410.50637219999044,410.50637219999044,410.48989759999677,j,0.754529999991064,0.14596680000249762,410.48992739999085,410.489937499995,None,,,,,,,,,,,,,,,,,,,,,,,,,,,,,,,,,,,00018,001,2025-11-09_10h52.32.840,MST_task,2024.2.2,60.001104019989214,2025-11-09 10h52.40.099259 +0530,
6,practice_images/158a.jpg,9,9,0,j,0.6009849000110989,0.15738469999632798,None,,,,,,,0,9,9,5,,,,,410.50637219999044,,,,,,,,,,,,,,,,,,,,,,,,,,,,,,410.48998969999957,410.50637219999044,411.0064068999927,410.9899468999938,410.99114119999285,411.0064068999927,411.0064068999927,411.0064068999927,414.0063094999932,414.0063094999932,414.0063094999932,413.98982029999024,j,0.6009849000110989,0.15738469999632798,413.98985349999566,413.9898625999922,None,,,,,,,,,,,,,,,,,,,,,,,,,,,,,,,,,,,00018,001,2025-11-09_10h52.32.840,MST_task,2024.2.2,60.001104019989214,2025-11-09 10h52.40.099259 +0530,
,,,,,,,,,,,,,,,,,,,,,,,,,,,,,,,,,,,,,,,,,,,,,,,,,,,,,,,,,,,,,,,,,,,,,,,413.9898993999959,414.0063094999932,414.0063094999932,438.6561434999894,space,24.64542380000057,None,,,,,,,,,,,,,,,,,,,,,,,,,,,,00018,001,2025-11-09_10h52.32.840,MST_task,2024.2.2,60.001104019989214,2025-11-09 10h52.40.099259 +0530,
,Scenes\147a.jpg,0,0,0,,,,,j,0.6562145999923814,0.15014670000527985,None,,,,,,,0,0,0,0,438.67262259998824,,,,,,,,,,,,,,,,,,,,,,,,,,,,,,438.6567100999964,438.67262259998824,439.18945799999346,439.1561182000005,,,,,,,,,,,,,,,,,,,,,,439.1682058000006,439.18945799999346,439.18945799999346,439.18945799999346,442.1724983999884,j,0.6562145999923814,0.15014670000527985,442.17382050000015,442.17383329999575,None,,,,,,,,,,,,,,,,,00018,001,2025-11-09_10h52.32.840,MST_task,2024.2.2,60.001104019989214,2025-11-09 10h52.40.099259 +0530,
,Scenes\141a.jpg,1,0,1,,,,,j,0.7311821000039345,0.14101949999167118,None,,,,,,,1,0,1,0,442.1891297999973,,,,,,,,,,,,,,,,,,,,,,,,,,,,,,442.17391299999144,442.1891297999973,442.68875309999567,442.6726961999957,,,,,,,,,,,,,,,,,,,,,,442.6816101000004,442.68875309999567,442.68875309999567,442.68875309999567,445.6726219999982,j,0.7311821000039345,0.14101949999167118,445.6726567999867,445.6726665999886,None,445.68912969999656,445.68912969999656,445.68912969999656,,,,,,,,,,,,,,00018,001,2025-11-09_10h52.32.840,MST_task,2024.2.2,60.001104019989214,2025-11-09 10h52.40.099259 +0530,
,Scenes\185a.jpg,2,0,2,,,,,j,0.8350912000023527,0.14266460000362713,None,,,,,,,2,0,2,0,445.68912969999656,,,,,,,,,,,,,,,,,,,,,,,,,,,,,,445.67274959999486,445.68912969999656,446.20602549999603,446.17269579999265,,,,,,,,,,,,,,,,,,,,,,446.1837644999905,446.20602549999603,446.20602549999603,446.20602549999603,449.1890452999942,j,0.8350912000023527,0.14266460000362713,449.1891048999969,449.1891149000003,None,,,,,,,,,,,,,,,,,00018,001,2025-11-09_10h52.32.840,MST_task,2024.2.2,60.001104019989214,2025-11-09 10h52.40.099259 +0530,
,Scenes\077a.jpg,3,0,3,,,,,j,1.5109902000112925,0.1624015999987023,None,,,,,,,3,0,3,0,449.2057114999916,,,,,,,,,,,,,,,,,,,,,,,,,,,,,,449.18917159999546,449.2057114999916,449.72232899999653,449.68919689999893,,,,,,,,,,,,,,,,,,,,,,449.7003629999963,449.72232899999653,449.72232899999653,449.72232899999653,452.7056991999998,j,1.5109902000112925,0.1624015999987023,452.705739099998,452.7057507999998,None,,,,,,,,,,,,,,,,,00018,001,2025-11-09_10h52.32.840,MST_task,2024.2.2,60.001104019989214,2025-11-09 10h52.40.099259 +0530,
,Scenes\104a.jpg,4,0,4,,,,,j,0.670227899987367,0.15141060001042206,None,,,,,,,4,0,4,0,452.7222799999872,,,,,,,,,,,,,,,,,,,,,,,,,,,,,,452.70581679999304,452.7222799999872,453.2391404999944,453.2057851999998,,,,,,,,,,,,,,,,,,,,,,453.21893389998877,453.2391404999944,453.2391404999944,453.2391404999944,456.22221409999474,j,0.670227899987367,0.15141060001042206,456.2222473999864,456.222256699999,None,,,,,,,,,,,,,,,,,00018,001,2025-11-09_10h52.32.840,MST_task,2024.2.2,60.001104019989214,2025-11-09 10h52.40.099259 +0530,
,Scenes\167a.jpg,5,0,5,,,,,j,0.7572991000051843,0.09814659999392461,None,,,,,,,5,0,5,0,456.2388542999979,,,,,,,,,,,,,,,,,,,,,,,,,,,,,,456.2223365999962,456.2388542999979,,456.722328799995,,,,,,,,,,,,,,,,,,,,,,456.7358358999918,456.75578379999206,456.75578379999206,456.75578379999206,459.73881999999867,j,0.7572991000051843,0.09814659999392461,459.73886869999114,459.73887789998844,None,,,,,,,,,,,,,,,,,00018,001,2025-11-09_10h52.32.840,MST_task,2024.2.2,60.001104019989214,2025-11-09 10h52.40.099259 +0530,
,Scenes\136a.jpg,6,0,6,,,,,f,1.2697765000048093,0.20104379999975208,None,,,,,,,6,0,6,0,459.7554645999917,,,,,,,,,,,,,,,,,,,,,,,,,,,,,,459.7389669999975,459.7554645999917,460.2721542999934,460.23892779999005,,,,,,,,,,,,,,,,,,,,,,460.25087609999173,460.2721542999934,460.2721542999934,460.2721542999934,463.2553956999909,f,1.2697765000048093,0.20104379999975208,463.25542979998863,463.25543949998973,None,,,,,,,,,,,,,,,,,00018,001,2025-11-09_10h52.32.840,MST_task,2024.2.2,60.001104019989214,2025-11-09 10h52.40.099259 +0530,
,Objects\063a.jpg,7,0,7,,,,,j,2.6214656999945873,0.14540140000462998,None,,,,,,,7,0,7,0,463.27205409998714,,,,,,,,,,,,,,,,,,,,,,,,,,,,,,463.25551989999076,463.27205409998714,463.7723027999891,463.7555917999998,,,,,,,,,,,,,,,,,,,,,,463.76701919999323,463.7723027999891,463.7723027999891,463.7723027999891,466.755602499994,j,2.6214656999945873,0.14540140000462998,466.75762789999135,466.75763949999237,None,466.7719766999944,466.7719766999944,466.7719766999944,,,,,,,,,,,,,,00018,001,2025-11-09_10h52.32.840,MST_task,2024.2.2,60.001104019989214,2025-11-09 10h52.40.099259 +0530,
,Objects\183a.jpg,8,0,8,,,,,j,1.327018500000122,0.1920242999913171,None,,,,,,,8,0,8,0,466.7719766999944,,,,,,,,,,,,,,,,,,,,,,,,,,,,,,466.7577259999962,466.7719766999944,467.27194219999365,467.25561809999635,,,,,,,,,,,,,,,,,,,,,,467.2655761999922,467.27194219999365,467.27194219999365,467.27194219999365,470.2553814999992,j,1.327018500000122,0.1920242999913171,470.2554143999878,470.2554237999866,None,470.27182009999524,470.27182009999524,470.27182009999524,,,,,,,,,,,,,,00018,001,2025-11-09_10h52.32.840,MST_task,2024.2.2,60.001104019989214,2025-11-09 10h52.40.099259 +0530,
,Objects\002a.jpg,9,0,9,,,,,f,1.3899429000011878,0.1815753999981098,None,,,,,,,9,0,9,0,470.27182009999524,,,,,,,,,,,,,,,,,,,,,,,,,,,,,,470.25550400000066,470.27182009999524,470.7717733999889,470.7552727999864,,,,,,,,,,,,,,,,,,,,,,470.7651523999957,470.7717733999889,470.7717733999889,470.7717733999889,473.7553099999932,f,1.3899429000011878,0.1815753999981098,473.75534259999404,473.7553521999944,None,473.77175119999447,473.77175119999447,473.77175119999447,,,,,,,,,,,,,,00018,001,2025-11-09_10h52.32.840,MST_task,2024.2.2,60.001104019989214,2025-11-09 10h52.40.099259 +0530,
,Objects\167a.jpg,10,0,10,,,,,j,2.076042700005928,0.15833439999551047,None,,,,,,,10,0,10,0,473.77175119999447,,,,,,,,,,,,,,,,,,,,,,,,,,,,,,473.7554303999932,473.77175119999447,474.27170049998676,474.25526769999124,,,,,,,,,,,,,,,,,,,,,,474.26537819999794,474.27170049998676,474.27170049998676,474.27170049998676,477.25526939998963,j,2.076042700005928,0.15833439999551047,477.2553043999942,477.2553140999953,None,477.27167689999624,477.27167689999624,477.27167689999624,,,,,,,,,,,,,,00018,001,2025-11-09_10h52.32.840,MST_task,2024.2.2,60.001104019989214,2025-11-09 10h52.40.099259 +0530,
,Objects\040a.jpg,11,0,11,,,,,None,,,j,1.3152982000028715,None,,,,,11,0,11,0,477.27167689999624,,,,,,,,,,,,,,,,,,,,,,,,,,,,,,477.25536749999446,477.27167689999624,477.7882949999912,477.7551194999978,,,,,,,,,,,,,,,,,,,,,,477.7806389999896,477.7882949999912,477.7882949999912,477.7882949999912,480.7716350999981,None,,,480.77166519999446,482.1053627999936,j,,,,480.78826370000024,480.78826370000024,1.3152982000028715,None,,,,,,,,,,00018,001,2025-11-09_10h52.32.840,MST_task,2024.2.2,60.001104019989214,2025-11-09 10h52.40.099259 +0530,
,Objects\044a.jpg,12,0,12,,,,,j,1.949796700006118,0.14175619999878109,None,,,,,,,12,0,12,0,482.1215411999874,,,,,,,,,,,,,,,,,,,,,,,,,,,,,,482.10544309999386,482.1215411999874,482.62153379998927,482.6050789000001,,,,,,,,,,,,,,,,,,,,,,482.61521989999164,482.62153379998927,482.62153379998927,482.62153379998927,485.6050811999885,j,1.949796700006118,0.14175619999878109,485.60511599999154,485.60513029999856,None,485.6214629999886,485.6214629999886,485.6214629999886,,,,,,,,,,,,,,00018,001,2025-11-09_10h52.32.840,MST_task,2024.2.2,60.001104019989214,2025-11-09 10h52.40.099259 +0530,
,Objects\169a.jpg,13,0,13,,,,,j,2.5501184000022477,0.2415439000033075,None,,,,,,,13,0,13,0,485.6214629999886,,,,,,,,,,,,,,,,,,,,,,,,,,,,,,485.60518599998613,485.6214629999886,486.12133639999956,486.1050385999988,,,,,,,,,,,,,,,,,,,,,,486.11628740000015,486.12133639999956,486.12133639999956,486.12133639999956,489.10496639998746,j,2.5501184000022477,0.2415439000033075,489.1050216000003,489.10503209999297,None,489.12129349999304,489.12129349999304,489.12129349999304,,,,,,,,,,,,,,00018,001,2025-11-09_10h52.32.840,MST_task,2024.2.2,60.001104019989214,2025-11-09 10h52.40.099259 +0530,
,Scenes\060a.jpg,14,0,14,,,,,j,1.6572675999923376,0.17410030000610277,None,,,,,,,14,0,14,0,489.12129349999304,,,,,,,,,,,,,,,,,,,,,,,,,,,,,,489.10508839999966,489.12129349999304,489.63804909998726,489.6049018999911,,,,,,,,,,,,,,,,,,,,,,489.61976469999354,489.63804909998726,489.63804909998726,489.63804909998726,492.6213742999971,j,1.6572675999923376,0.17410030000610277,492.62259579999954,492.6226070999983,None,,,,,,,,,,,,,,,,,00018,001,2025-11-09_10h52.32.840,MST_task,2024.2.2,60.001104019989214,2025-11-09 10h52.40.099259 +0530,
,Scenes\161a.jpg,15,0,15,,,,,j,0.8089656999945873,0.17388299999583978,None,,,,,,,15,0,15,0,492.63798469999165,,,,,,,,,,,,,,,,,,,,,,,,,,,,,,492.6226936999883,492.63798469999165,493.1546566999896,493.12160179999773,,,,,,,,,,,,,,,,,,,,,,493.1339961999911,493.1546566999896,493.1546566999896,493.1546566999896,496.1379386999906,j,0.8089656999945873,0.17388299999583978,496.1379906999937,496.138000299994,None,,,,,,,,,,,,,,,,,00018,001,2025-11-09_10h52.32.840,MST_task,2024.2.2,60.001104019989214,2025-11-09 10h52.40.099259 +0530,
,Scenes\020a.jpg,16,0,16,,,,,f,1.7796640000015032,0.20817840000381693,None,,,,,,,16,0,16,0,496.1546117999969,,,,,,,,,,,,,,,,,,,,,,,,,,,,,,496.13809399999445,496.1546117999969,496.67143619999115,496.6380588999891,,,,,,,,,,,,,,,,,,,,,,496.65447049999784,496.67143619999115,496.67143619999115,496.67143619999115,499.6545657999959,f,1.7796640000015032,0.20817840000381693,499.65460619999794,499.6546166999906,None,,,,,,,,,,,,,,,,,00018,001,2025-11-09_10h52.32.840,MST_task,2024.2.2,60.001104019989214,2025-11-09 10h52.40.099259 +0530,
,Scenes\164a.jpg,17,0,17,,,,,j,0.8533773999952246,0.2117634000023827,None,,,,,,,17,0,17,0,499.671199599994,,,,,,,,,,,,,,,,,,,,,,,,,,,,,,499.65471449999313,499.671199599994,500.1878526999935,500.15482159999374,,,,,,,,,,,,,,,,,,,,,,500.16571719999774,500.1878526999935,500.1878526999935,500.1878526999935,503.1711360999907,j,0.8533773999952246,0.2117634000023827,503.171185299987,503.17119509998884,None,,,,,,,,,,,,,,,,,00018,001,2025-11-09_10h52.32.840,MST_task,2024.2.2,60.001104019989214,2025-11-09 10h52.40.099259 +0530,
,Scenes\088a.jpg,18,0,18,,,,,j,0.6506350999989081,0.1899286999978358,None,,,,,,,18,0,18,0,503.1878016999981,,,,,,,,,,,,,,,,,,,,,,,,,,,,,,503.1712528999924,503.1878016999981,503.7046820999967,503.67135289999715,,,,,,,,,,,,,,,,,,,,,,503.68710669998836,503.7046820999967,503.7046820999967,503.7046820999967,506.687775399987,j,0.6506350999989081,0.1899286999978358,506.68782429999555,506.68783929999336,None,,,,,,,,,,,,,,,,,00018,001,2025-11-09_10h52.32.840,MST_task,2024.2.2,60.001104019989214,2025-11-09 10h52.40.099259 +0530,
,Scenes\169a.jpg,19,0,19,,,,,j,1.1785307000100147,0.19730669999262318,None,,,,,,,19,0,19,0,506.70439559999795,,,,,,,,,,,,,,,,,,,,,,,,,,,,,,506.6879448999971,506.70439559999795,507.221020099998,507.18790279999666,,,,,,,,,,,,,,,,,,,,,,507.1995016999863,507.221020099998,507.221020099998,507.221020099998,510.2043200999906,j,1.1785307000100147,0.19730669999262318,510.2043577000004,510.20436779999,None,,,,,,,,,,,,,,,,,00018,001,2025-11-09_10h52.32.840,MST_task,2024.2.2,60.001104019989214,2025-11-09 10h52.40.099259 +0530,
,Scenes\182a.jpg,20,0,20,,,,,j,1.0716520999994827,0.15683730000455398,None,,,,,,,20,0,20,0,510.22095419999096,,,,,,,,,,,,,,,,,,,,,,,,,,,,,,510.20442439999897,510.22095419999096,510.7209656999912,510.70443089999026,,,,,,,,,,,,,,,,,,,,,,510.7126064999902,510.7209656999912,510.7209656999912,510.7209656999912,513.7044349999924,j,1.0716520999994827,0.15683730000455398,513.7044735999953,513.7044838999864,None,513.7208828999865,513.7208828999865,513.7208828999865,,,,,,,,,,,,,,00018,001,2025-11-09_10h52.32.840,MST_task,2024.2.2,60.001104019989214,2025-11-09 10h52.40.099259 +0530,
,Objects\034a.jpg,21,0,21,,,,,f,1.3779370999982348,0.18199699999240693,None,,,,,,,21,0,21,0,513.7208828999865,,,,,,,,,,,,,,,,,,,,,,,,,,,,,,513.7045413999876,513.7208828999865,514.2211641999893,514.2045144999865,,,,,,,,,,,,,,,,,,,,,,514.2160752999916,514.2211641999893,514.2211641999893,514.2211641999893,517.2043908999913,f,1.3779370999982348,0.18199699999240693,517.2058536999975,517.2058653999993,None,517.2208047999884,517.2208047999884,517.2208047999884,,,,,,,,,,,,,,00018,001,2025-11-09_10h52.32.840,MST_task,2024.2.2,60.001104019989214,2025-11-09 10h52.40.099259 +0530,
,Objects\114a.jpg,22,0,22,,,,,None,,,f,1.3924854999931995,None,,,,,22,0,22,0,517.2208047999884,,,,,,,,,,,,,,,,,,,,,,,,,,,,,,517.2059509999963,517.2208047999884,517.7208463999996,517.7043885999883,,,,,,,,,,,,,,,,,,,,,,517.714115499999,517.7208463999996,517.7208463999996,517.7208463999996,520.7042774999863,None,,,520.7043106999918,522.1210034999967,f,520.7207648999902,520.7207648999902,520.7207648999902,520.7207648999902,520.7207648999902,1.3924854999931995,None,,,,,,,,,,00018,001,2025-11-09_10h52.32.840,MST_task,2024.2.2,60.001104019989214,2025-11-09 10h52.40.099259 +0530,
,Objects\082a.jpg,23,0,23,,,,,j,1.5318170000100508,0.18606549999094568,None,,,,,,,23,0,23,0,522.1374034999899,,,,,,,,,,,,,,,,,,,,,,,,,,,,,,522.1210857999977,522.1374034999899,522.6373581999942,522.6209730999981,,,,,,,,,,,,,,,,,,,,,,522.6310739999899,522.6373581999942,522.6373581999942,522.6373581999942,525.6209263999917,j,1.5318170000100508,0.18606549999094568,525.6209645999916,525.620974999998,None,525.6373253999918,525.6373253999918,525.6373253999918,,,,,,,,,,,,,,00018,001,2025-11-09_10h52.32.840,MST_task,2024.2.2,60.001104019989214,2025-11-09 10h52.40.099259 +0530,
,Objects\136a.jpg,24,0,24,,,,,f,1.5957117000070866,0.19864750000124332,None,,,,,,,24,0,24,0,525.6373253999918,,,,,,,,,,,,,,,,,,,,,,,,,,,,,,525.6210541999899,525.6373253999918,526.1539510999864,526.1207746,,,,,,,,,,,,,,,,,,,,,,526.1375887999893,526.1539510999864,526.1539510999864,526.1539510999864,529.1372800999961,f,1.5957117000070866,0.19864750000124332,529.1373345999891,529.1373446999933,None,,,,,,,,,,,,,,,,,00018,001,2025-11-09_10h52.32.840,MST_task,2024.2.2,60.001104019989214,2025-11-09 10h52.40.099259 +0530,
,Objects\157a.jpg,25,0,25,,,,,f,1.1833581999962917,0.21011410000210162,None,,,,,,,25,0,25,0,529.1539267999906,,,,,,,,,,,,,,,,,,,,,,,,,,,,,,529.1374351999984,529.1539267999906,529.6538722999976,529.637393699988,,,,,,,,,,,,,,,,,,,,,,529.6468953000003,529.6538722999976,529.6538722999976,529.6538722999976,532.637422499989,f,1.1833581999962917,0.21011410000210162,532.637459199992,532.6374698999862,None,532.6538513999985,532.6538513999985,532.6538513999985,,,,,,,,,,,,,,00018,001,2025-11-09_10h52.32.840,MST_task,2024.2.2,60.001104019989214,2025-11-09 10h52.40.099259 +0530,
,Objects\055a.jpg,26,0,26,,,,,f,1.0339589000068372,0.18925229999877047,None,,,,,,,26,0,26,0,532.6538513999985,,,,,,,,,,,,,,,,,,,,,,,,,,,,,,532.6375578000006,532.6538513999985,533.1537971999933,533.137319299989,,,,,,,,,,,,,,,,,,,,,,533.1470811999898,533.1537971999933,533.1537971999933,533.1537971999933,536.1374100999965,f,1.0339589000068372,0.18925229999877047,536.1374440999934,536.1374534999923,None,536.1537734999874,536.1537734999874,536.1537734999874,,,,,,,,,,,,,,00018,001,2025-11-09_10h52.32.840,MST_task,2024.2.2,60.001104019989214,2025-11-09 10h52.40.099259 +0530,
,Objects\048a.jpg,27,0,27,,,,,j,1.1197015999932773,0.21570810000412166,None,,,,,,,27,0,27,0,536.1537734999874,,,,,,,,,,,,,,,,,,,,,,,,,,,,,,536.1375116999989,536.1537734999874,536.653774099992,536.6372899999988,,,,,,,,,,,,,,,,,,,,,,536.6474460999889,536.653774099992,536.653774099992,536.653774099992,539.6372658999899,j,1.1197015999932773,0.21570810000412166,539.637299199996,539.6373087999964,None,539.6537185999914,539.6537185999914,539.6537185999914,,,,,,,,,,,,,,00018,001,2025-11-09_10h52.32.840,MST_task,2024.2.2,60.001104019989214,2025-11-09 10h52.40.099259 +0530,
,Scenes\010a.jpg,28,0,28,,,,,j,0.7609424999973271,0.21965980000095442,None,,,,,,,28,0,28,0,539.6537185999914,,,,,,,,,,,,,,,,,,,,,,,,,,,,,,539.6373639999947,539.6537185999914,540.1703648999974,540.1372406999872,,,,,,,,,,,,,,,,,,,,,,540.1513334999909,540.1703648999974,540.1703648999974,540.1703648999974,543.1536462999939,j,0.7609424999973271,0.21965980000095442,543.1549127999897,543.1549254999991,None,,,,,,,,,,,,,,,,,00018,001,2025-11-09_10h52.32.840,MST_task,2024.2.2,60.001104019989214,2025-11-09 10h52.40.099259 +0530,
,Scenes\142a.jpg,29,0,29,,,,,j,1.5132467000075849,0.17169259999354836,None,,,,,,,29,0,29,0,543.1703017999971,,,,,,,,,,,,,,,,,,,,,,,,,,,,,,543.1550136999867,543.1703017999971,543.6702387999976,543.6538350999908,,,,,,,,,,,,,,,,,,,,,,543.6607061999966,543.6702387999976,543.6702387999976,543.6702387999976,546.6537321999931,j,1.5132467000075849,0.17169259999354836,546.6537653999985,546.6537753999874,None,546.6703047999908,546.6703047999908,546.6703047999908,,,,,,,,,,,,,,00018,001,2025-11-09_10h52.32.840,MST_task,2024.2.2,60.001104019989214,2025-11-09 10h52.40.099259 +0530,
,Scenes\122a.jpg,30,0,30,,,,,f,1.0466106999956537,0.16696600000432227,None,,,,,,,30,0,30,0,546.6703047999908,,,,,,,,,,,,,,,,,,,,,,,,,,,,,,546.6538536999869,546.6703047999908,547.1868452999915,547.1537675,,,,,,,,,,,,,,,,,,,,,,547.1677122999972,547.1868452999915,547.1868452999915,547.1868452999915,550.1701680999977,f,1.0466106999956537,0.16696600000432227,550.1702022999962,550.1702125999873,None,,,,,,,,,,,,,,,,,00018,001,2025-11-09_10h52.32.840,MST_task,2024.2.2,60.001104019989214,2025-11-09 10h52.40.099259 +0530,
,Scenes\013a.jpg,31,0,31,,,,,j,1.1596561999904225,0.19609009999840055,None,,,,,,,31,0,31,0,550.1868006999866,,,,,,,,,,,,,,,,,,,,,,,,,,,,,,550.1702955999936,550.1868006999866,550.7034355999931,550.6702874999901,,,,,,,,,,,,,,,,,,,,,,550.6831329999986,550.7034355999931,550.7034355999931,550.7034355999931,553.6867625999876,j,1.1596561999904225,0.19609009999840055,553.6867987999867,553.6868087999901,None,,,,,,,,,,,,,,,,,00018,001,2025-11-09_10h52.32.840,MST_task,2024.2.2,60.001104019989214,2025-11-09 10h52.40.099259 +0530,
,Scenes\072a.jpg,32,0,32,,,,,j,0.693693399996846,0.17395950001082383,None,,,,,,,32,0,32,0,553.7033732999989,,,,,,,,,,,,,,,,,,,,,,,,,,,,,,553.6868934999948,553.7033732999989,554.2201464999962,554.1869461999886,,,,,,,,,,,,,,,,,,,,,,554.2005692999955,554.2201464999962,554.2201464999962,554.2201464999962,557.2033283999917,j,0.693693399996846,0.17395950001082383,557.2033610999933,557.2033702999906,None,,,,,,,,,,,,,,,,,00018,001,2025-11-09_10h52.32.840,MST_task,2024.2.2,60.001104019989214,2025-11-09 10h52.40.099259 +0530,
,Scenes\005a.jpg,33,0,33,,,,,j,2.2322509000077844,0.17869570000038948,None,,,,,,,33,0,33,0,557.219986199998,,,,,,,,,,,,,,,,,,,,,,,,,,,,,,557.2034518999862,557.219986199998,557.7366072999866,557.7034679999924,,,,,,,,,,,,,,,,,,,,,,557.715434999991,557.7366072999866,557.7366072999866,557.7366072999866,560.7199677999888,j,2.2322509000077844,0.17869570000038948,560.7200062999909,560.720015999992,None,,,,,,,,,,,,,,,,,00018,001,2025-11-09_10h52.32.840,MST_task,2024.2.2,60.001104019989214,2025-11-09 10h52.40.099259 +0530,
,Scenes\139a.jpg,34,0,34,,,,,j,0.5426460000016959,0.1779549000057159,None,,,,,,,34,0,34,0,560.7365519999876,,,,,,,,,,,,,,,,,,,,,,,,,,,,,,560.7200739999971,560.7365519999876,561.2367811999866,561.2200719999964,,,,,,,,,,,,,,,,,,,,,,561.229926199987,561.2367811999866,561.2367811999866,561.2367811999866,564.2200720999972,j,0.5426460000016959,0.1779549000057159,564.2201097999932,564.2201203000004,None,564.2365078000003,564.2365078000003,564.2365078000003,,,,,,,,,,,,,,00018,001,2025-11-09_10h52.32.840,MST_task,2024.2.2,60.001104019989214,2025-11-09 10h52.40.099259 +0530,
,Objects\003a.jpg,35,0,35,,,,,f,1.9538693000067724,0.19888319999154191,None,,,,,,,35,0,35,0,564.2365078000003,,,,,,,,,,,,,,,,,,,,,,,,,,,,,,564.2202082000003,564.2365078000003,564.7533831999899,564.7200147999974,,,,,,,,,,,,,,,,,,,,,,564.7327217999991,564.7533831999899,564.7533831999899,564.7533831999899,567.7364665999921,f,1.9538693000067724,0.19888319999154191,567.7380944999895,567.7381112999865,None,,,,,,,,,,,,,,,,,00018,001,2025-11-09_10h52.32.840,MST_task,2024.2.2,60.001104019989214,2025-11-09 10h52.40.099259 +0530,
,Objects\042a.jpg,36,0,36,,,,,j,1.1387256999878446,0.13761630000954028,None,,,,,,,36,0,36,0,567.7531030999962,,,,,,,,,,,,,,,,,,,,,,,,,,,,,,567.7381659999955,567.7531030999962,568.253055299996,568.236679099995,,,,,,,,,,,,,,,,,,,,,,568.2483473999891,568.253055299996,568.253055299996,568.253055299996,571.2366118999926,j,1.1387256999878446,0.13761630000954028,571.2366503999947,571.2366607000004,None,571.2529924999981,571.2529924999981,571.2529924999981,,,,,,,,,,,,,,00018,001,2025-11-09_10h52.32.840,MST_task,2024.2.2,60.001104019989214,2025-11-09 10h52.40.099259 +0530,
,Objects\070a.jpg,37,0,37,,,,,j,1.6079978000052506,0.09428769999067299,None,,,,,,,37,0,37,0,571.2529924999981,,,,,,,,,,,,,,,,,,,,,,,,,,,,,,571.2367157999979,571.2529924999981,571.753022799996,571.7365386999882,,,,,,,,,,,,,,,,,,,,,,571.7479198999936,571.753022799996,571.753022799996,571.753022799996,574.7365110999963,j,1.6079978000052506,0.09428769999067299,574.7365444999887,574.7365545999928,None,574.7529499999946,574.7529499999946,574.7529499999946,,,,,,,,,,,,,,00018,001,2025-11-09_10h52.32.840,MST_task,2024.2.2,60.001104019989214,2025-11-09 10h52.40.099259 +0530,
,Objects\071a.jpg,38,0,38,,,,,j,0.8465603000076953,0.09590549999848008,None,,,,,,,38,0,38,0,574.7529499999946,,,,,,,,,,,,,,,,,,,,,,,,,,,,,,574.7366080999927,574.7529499999946,575.2529100999964,575.2364491999906,,,,,,,,,,,,,,,,,,,,,,575.2473952,575.2529100999964,575.2529100999964,575.2529100999964,578.236441999994,j,0.8465603000076953,0.09590549999848008,578.2364768999978,578.2364862999966,None,578.2528960999916,578.2528960999916,578.2528960999916,,,,,,,,,,,,,,00018,001,2025-11-09_10h52.32.840,MST_task,2024.2.2,60.001104019989214,2025-11-09 10h52.40.099259 +0530,
,Objects\112a.jpg,39,0,39,,,,,j,1.9065589999954682,0.09755190000578295,None,,,,,,,39,0,39,0,578.2528960999916,,,,,,,,,,,,,,,,,,,,,,,,,,,,,,578.236565299987,578.2528960999916,578.7528350999928,578.7363520999934,,,,,,,,,,,,,,,,,,,,,,578.7461975999904,578.7528350999928,578.7528350999928,578.7528350999928,581.7363457999891,j,1.9065589999954682,0.09755190000578295,581.7363769999938,581.736387099998,None,581.7528399999865,581.7528399999865,581.7528399999865,,,,,,,,,,,,,,00018,001,2025-11-09_10h52.32.840,MST_task,2024.2.2,60.001104019989214,2025-11-09 10h52.40.099259 +0530,
,Objects\023a.jpg,40,0,40,,,,,None,,,j,0.04852660000324249,None,,,,,40,0,40,0,581.7528399999865,,,,,,,,,,,,,,,,,,,,,,,,,,,,,,581.7364391999872,581.7528399999865,582.2527600999892,582.2363575999916,,,,,,,,,,,,,,,,,,,,,,582.2464697999967,582.2527600999892,582.2527600999892,582.2527600999892,585.2363167999865,None,,,585.2363509999996,585.3030563999928,j,585.2527418999962,585.2527418999962,585.2527418999962,585.2527418999962,585.2527418999962,0.04852660000324249,None,,,,,,,,,,00018,001,2025-11-09_10h52.32.840,MST_task,2024.2.2,60.001104019989214,2025-11-09 10h52.40.099259 +0530,
,Objects\010a.jpg,41,0,41,,,,,j,2.58396509999875,0.12634909999906085,None,,,,,,,41,0,41,0,585.3194002999953,,,,,,,,,,,,,,,,,,,,,,,,,,,,,,585.3031166999863,585.3194002999953,585.8193987999985,585.802866699989,,,,,,,,,,,,,,,,,,,,,,585.8126810999966,585.8193987999985,585.8193987999985,585.8193987999985,588.8029433999909,j,2.58396509999875,0.12634909999906085,588.8029761999933,588.802990799988,None,588.819336399989,588.819336399989,588.819336399989,,,,,,,,,,,,,,00018,001,2025-11-09_10h52.32.840,MST_task,2024.2.2,60.001104019989214,2025-11-09 10h52.40.099259 +0530,
,Scenes\126a.jpg,42,0,42,,,,,j,0.8811450999928638,0.7458851000119466,None,,,,,,,42,0,42,0,588.819336399989,,,,,,,,,,,,,,,,,,,,,,,,,,,,,,588.8030416999973,588.819336399989,589.3363460999972,589.3028567999863,,,,,,,,,,,,,,,,,,,,,,589.3142339999904,589.3363460999972,589.3363460999972,589.3363460999972,592.3192573999986,j,0.8811450999928638,0.7458851000119466,592.3204217999883,592.320433099987,None,,,,,,,,,,,,,,,,,00018,001,2025-11-09_10h52.32.840,MST_task,2024.2.2,60.001104019989214,2025-11-09 10h52.40.099259 +0530,
,Scenes\008a.jpg,43,0,43,,,,,j,0.6093409000022803,0.2219423999922583,None,,,,,,,43,0,43,0,592.3359176999948,,,,,,,,,,,,,,,,,,,,,,,,,,,,,,592.3205215999915,592.3359176999948,592.8356362999912,592.819491199989,,,,,,,,,,,,,,,,,,,,,,592.8294494999864,592.8356362999912,592.8356362999912,592.8356362999912,595.8193816999992,j,0.6093409000022803,0.2219423999922583,595.8194150999916,595.8194244999904,None,595.8358423999889,595.8358423999889,595.8358423999889,,,,,,,,,,,,,,00018,001,2025-11-09_10h52.32.840,MST_task,2024.2.2,60.001104019989214,2025-11-09 10h52.40.099259 +0530,
,Scenes\034a.jpg,44,0,44,,,,,j,1.0189135999971768,0.16157100000418723,None,,,,,,,44,0,44,0,595.8358423999889,,,,,,,,,,,,,,,,,,,,,,,,,,,,,,595.8194790999987,595.8358423999889,596.3527858999878,596.3193347999913,,,,,,,,,,,,,,,,,,,,,,596.3395331999927,596.3527858999878,596.3527858999878,596.3527858999878,599.3357885999867,j,1.0189135999971768,0.16157100000418723,599.335835299993,599.3358455999987,None,,,,,,,,,,,,,,,,,00018,001,2025-11-09_10h52.32.840,MST_task,2024.2.2,60.001104019989214,2025-11-09 10h52.40.099259 +0530,
,Scenes\159a.jpg,45,0,45,,,,,j,1.2459673999983352,0.17005720001179725,None,,,,,,,45,0,45,0,599.3524356999988,,,,,,,,,,,,,,,,,,,,,,,,,,,,,,599.335935799987,599.3524356999988,599.8693111999892,599.8359779999882,,,,,,,,,,,,,,,,,,,,,,599.8496119999909,599.8693111999892,599.8693111999892,599.8693111999892,602.8524079999916,j,1.2459673999983352,0.17005720001179725,602.8524441999907,602.8524540999933,None,,,,,,,,,,,,,,,,,00018,001,2025-11-09_10h52.32.840,MST_task,2024.2.2,60.001104019989214,2025-11-09 10h52.40.099259 +0530,
,Scenes\143a.jpg,46,0,46,,,,,j,0.8958926999912364,0.18852589999733027,None,,,,,,,46,0,46,0,602.8690402999928,,,,,,,,,,,,,,,,,,,,,,,,,,,,,,602.8525386999972,602.8690402999928,603.3856559999986,603.3525720999896,,,,,,,,,,,,,,,,,,,,,,603.3654775999894,603.3856559999986,603.3856559999986,603.3856559999986,606.3689547999966,j,0.8958926999912364,0.18852589999733027,606.3689903999912,606.369000199993,None,,,,,,,,,,,,,,,,,00018,001,2025-11-09_10h52.32.840,MST_task,2024.2.2,60.001104019989214,2025-11-09 10h52.40.099259 +0530,
,Scenes\017a.jpg,47,0,47,,,,,None,,,f,0.08734199999889825,None,,,,,47,0,47,0,606.3855955999898,,,,,,,,,,,,,,,,,,,,,,,,,,,,,,606.3690974999918,606.3855955999898,606.9025532999949,606.8691739999922,,,,,,,,,,,,,,,,,,,,,,606.8840076999913,606.9025532999949,606.9025532999949,606.9025532999949,609.8855532999878,None,,,609.8855878999893,610.0025862999901,f,,,,609.9022134999977,609.9022134999977,0.08734199999889825,None,,,,,,,,,,00018,001,2025-11-09_10h52.32.840,MST_task,2024.2.2,60.001104019989214,2025-11-09 10h52.40.099259 +0530,
,Scenes\184a.jpg,48,0,48,,,,,j,1.3897407000040403,0.1024936999892816,None,,,,,,,48,0,48,0,610.0188423999934,,,,,,,,,,,,,,,,,,,,,,,,,,,,,,610.0026730999962,610.0188423999934,610.5355091999954,610.5024118000001,,,,,,,,,,,,,,,,,,,,,,610.513034699994,610.5355091999954,610.5355091999954,610.5355091999954,613.5188377999875,j,1.3897407000040403,0.1024936999892816,613.5188821999909,613.5188928999996,None,,,,,,,,,,,,,,,,,00018,001,2025-11-09_10h52.32.840,MST_task,2024.2.2,60.001104019989214,2025-11-09 10h52.40.099259 +0530,
,Objects\066a.jpg,49,0,49,,,,,j,2.2700750999938464,0.1733717000024626,None,,,,,,,49,0,49,0,613.5354343999934,,,,,,,,,,,,,,,,,,,,,,,,,,,,,,613.5189526999893,613.5354343999934,614.0356794999971,614.0190163999941,,,,,,,,,,,,,,,,,,,,,,614.0309495999973,614.0356794999971,614.0356794999971,614.0356794999971,617.0189590999944,j,2.2700750999938464,0.1733717000024626,617.020445999995,617.0204576999968,None,617.0353562999953,617.0353562999953,617.0353562999953,,,,,,,,,,,,,,00018,001,2025-11-09_10h52.32.840,MST_task,2024.2.2,60.001104019989214,2025-11-09 10h52.40.099259 +0530,
,Objects\025a.jpg,50,0,50,,,,,j,2.3844245999935083,0.13890980000724085,None,,,,,,,50,0,50,0,617.0353562999953,,,,,,,,,,,,,,,,,,,,,,,,,,,,,,617.0205111999967,617.0353562999953,617.5353571999876,617.5189599999867,,,,,,,,,,,,,,,,,,,,,,617.5287841999962,617.5353571999876,617.5353571999876,617.5353571999876,620.5188877999899,j,2.3844245999935083,0.13890980000724085,620.5189219999884,620.5189319999918,None,620.5352899999998,620.5352899999998,620.5352899999998,,,,,,,,,,,,,,00018,001,2025-11-09_10h52.32.840,MST_task,2024.2.2,60.001104019989214,2025-11-09 10h52.40.099259 +0530,
,Objects\110a.jpg,51,0,51,,,,,f,2.0576253999897745,0.18629300000611693,None,,,,,,,51,0,51,0,620.5352899999998,,,,,,,,,,,,,,,,,,,,,,,,,,,,,,620.5190138999897,620.5352899999998,621.0352759999951,621.0188708999922,,,,,,,,,,,,,,,,,,,,,,621.030365899991,621.0352759999951,621.0352759999951,621.0352759999951,624.018763,f,2.0576253999897745,0.18629300000611693,624.0187948999956,624.0188053999882,None,624.0352060999867,624.0352060999867,624.0352060999867,,,,,,,,,,,,,,00018,001,2025-11-09_10h52.32.840,MST_task,2024.2.2,60.001104019989214,2025-11-09 10h52.40.099259 +0530,
,Objects\162a.jpg,52,0,52,,,,,f,2.526501399988774,0.2598850000067614,None,,,,,,,52,0,52,0,624.0352060999867,,,,,,,,,,,,,,,,,,,,,,,,,,,,,,624.0188603999995,624.0352060999867,624.5352112999972,624.5188496999908,,,,,,,,,,,,,,,,,,,,,,624.5297200999921,624.5352112999972,624.5352112999972,624.5352112999972,627.5187626999978,f,2.526501399988774,0.2598850000067614,627.5187984999939,627.5188084999972,None,627.535177999991,627.535177999991,627.535177999991,,,,,,,,,,,,,,00018,001,2025-11-09_10h52.32.840,MST_task,2024.2.2,60.001104019989214,2025-11-09 10h52.40.099259 +0530,
,Objects\057a.jpg,53,0,53,,,,,j,1.3546772999980021,0.0938999999925727,None,,,,,,,53,0,53,0,627.535177999991,,,,,,,,,,,,,,,,,,,,,,,,,,,,,,627.5188611999911,627.535177999991,628.0351309999969,628.0186661999905,,,,,,,,,,,,,,,,,,,,,,628.0294447999913,628.0351309999969,628.0351309999969,628.0351309999969,631.0186293000006,j,1.3546772999980021,0.0938999999925727,631.0186610999954,631.018670599995,None,631.035103599992,631.035103599992,631.035103599992,,,,,,,,,,,,,,00018,001,2025-11-09_10h52.32.840,MST_task,2024.2.2,60.001104019989214,2025-11-09 10h52.40.099259 +0530,
,Objects\069a.jpg,54,0,54,,,,,j,1.5239707000000635,0.1281569999991916,None,,,,,,,54,0,54,0,631.035103599992,,,,,,,,,,,,,,,,,,,,,,,,,,,,,,631.0187248000002,631.035103599992,631.5350689999905,631.518704999995,,,,,,,,,,,,,,,,,,,,,,631.528602499995,631.5350689999905,631.5350689999905,631.5350689999905,634.5185648999905,j,1.5239707000000635,0.1281569999991916,634.5185969999875,634.5186066999886,None,634.5350448999961,634.5350448999961,634.5350448999961,,,,,,,,,,,,,,00018,001,2025-11-09_10h52.32.840,MST_task,2024.2.2,60.001104019989214,2025-11-09 10h52.40.099259 +0530,
,Objects\038a.jpg,55,0,55,,,,,f,1.921148399997037,0.173367600000347,None,,,,,,,55,0,55,0,634.5350448999961,,,,,,,,,,,,,,,,,,,,,,,,,,,,,,634.5186844999989,634.5350448999961,635.0349921999878,635.0185092999891,,,,,,,,,,,,,,,,,,,,,,635.0280610999907,635.0349921999878,635.0349921999878,635.0349921999878,638.0184950999974,f,1.921148399997037,0.173367600000347,638.0185258999991,638.0185356000002,None,638.0349578999885,638.0349578999885,638.0349578999885,,,,,,,,,,,,,,00018,001,2025-11-09_10h52.32.840,MST_task,2024.2.2,60.001104019989214,2025-11-09 10h52.40.099259 +0530,
,Scenes\117a.jpg,56,0,56,,,,,j,0.9751381999958539,0.30841830000281334,None,,,,,,,56,0,56,0,638.0349578999885,,,,,,,,,,,,,,,,,,,,,,,,,,,,,,638.0186179999873,638.0349578999885,638.5520112999948,638.5184331999917,,,,,,,,,,,,,,,,,,,,,,638.5307841999893,638.5520112999948,638.5520112999948,638.5520112999948,641.5348987999896,j,0.9751381999958539,0.30841830000281334,641.5360336999875,641.5360452999885,None,,,,,,,,,,,,,,,,,00018,001,2025-11-09_10h52.32.840,MST_task,2024.2.2,60.001104019989214,2025-11-09 10h52.40.099259 +0530,
,Scenes\079a.jpg,57,0,57,,,,,j,1.7695151000079932,0.17482539999764413,None,,,,,,,57,0,57,0,641.5515505999938,,,,,,,,,,,,,,,,,,,,,,,,,,,,,,641.5361264999956,641.5515505999938,642.0514913999941,642.0350987999991,,,,,,,,,,,,,,,,,,,,,,642.0392501999886,642.0514913999941,642.0514913999941,642.0514913999941,645.035037099995,j,1.7695151000079932,0.17482539999764413,645.0350694999943,645.0350787999923,None,645.0514690999989,645.0514690999989,645.0514690999989,,,,,,,,,,,,,,00018,001,2025-11-09_10h52.32.840,MST_task,2024.2.2,60.001104019989214,2025-11-09 10h52.40.099259 +0530,
,Scenes\081a.jpg,58,0,58,,,,,j,0.5231321999890497,0.1861648000049172,None,,,,,,,58,0,58,0,645.0514690999989,,,,,,,,,,,,,,,,,,,,,,,,,,,,,,645.035163099994,645.0514690999989,645.5684492,645.5350073999871,,,,,,,,,,,,,,,,,,,,,,645.5488471999997,645.5684492,645.5684492,645.5684492,648.5513875999895,j,0.5231321999890497,0.1861648000049172,648.5514202999912,648.5514299999923,None,,,,,,,,,,,,,,,,,00018,001,2025-11-09_10h52.32.840,MST_task,2024.2.2,60.001104019989214,2025-11-09 10h52.40.099259 +0530,
,Scenes\189a.jpg,59,0,59,,,,,j,0.5179457000049297,0.15953279999666847,None,,,,,,,59,0,59,0,648.5680913999968,,,,,,,,,,,,,,,,,,,,,,,,,,,,,,648.5515142999939,648.5680913999968,649.06789939999,649.0515366999898,,,,,,,,,,,,,,,,,,,,,,649.0585245999973,649.06789939999,649.06789939999,649.06789939999,652.0515493999992,j,0.5179457000049297,0.15953279999666847,652.0515856999991,652.051596499994,None,652.0679584999889,652.0679584999889,652.0679584999889,,,,,,,,,,,,,,00018,001,2025-11-09_10h52.32.840,MST_task,2024.2.2,60.001104019989214,2025-11-09 10h52.40.099259 +0530,
,Scenes\082a.jpg,60,0,60,,,,,f,2.3476403999957256,0.25007490000280086,None,,,,,,,60,0,60,0,652.0679584999889,,,,,,,,,,,,,,,,,,,,,,,,,,,,,,652.0516540999961,652.0679584999889,652.5679405999981,652.551492499988,,,,,,,,,,,,,,,,,,,,,,652.5595954999881,652.5679405999981,652.5679405999981,652.5679405999981,655.5514601999894,f,2.3476403999957256,0.25007490000280086,655.5514916999964,655.5515012999967,None,655.5678901999927,655.5678901999927,655.5678901999927,,,,,,,,,,,,,,00018,001,2025-11-09_10h52.32.840,MST_task,2024.2.2,60.001104019989214,2025-11-09 10h52.40.099259 +0530,
,Scenes\165a.jpg,61,0,61,,,,,j,0.9059043000015663,0.18525140000565443,None,,,,,,,61,0,61,0,655.5678901999927,,,,,,,,,,,,,,,,,,,,,,,,,,,,,,655.5515833999962,655.5678901999927,656.0678651999915,656.0513950999884,,,,,,,,,,,,,,,,,,,,,,656.0582369999902,656.0678651999915,656.0678651999915,656.0678651999915,659.0514031999919,j,0.9059043000015663,0.18525140000565443,659.0514324999967,659.0514419999963,None,659.0678210999904,659.0678210999904,659.0678210999904,,,,,,,,,,,,,,00018,001,2025-11-09_10h52.32.840,MST_task,2024.2.2,60.001104019989214,2025-11-09 10h52.40.099259 +0530,
,Scenes\029a.jpg,62,0,62,,,,,j,0.7113262000057148,0.17047979999915697,None,,,,,,,62,0,62,0,659.0678210999904,,,,,,,,,,,,,,,,,,,,,,,,,,,,,,659.0515004999907,659.0678210999904,659.5677960999892,659.5513240999862,,,,,,,,,,,,,,,,,,,,,,659.5591884999885,659.5677960999892,659.5677960999892,659.5677960999892,662.5513150999905,j,0.7113262000057148,0.17047979999915697,662.5513543999987,662.5513640999998,None,662.5677380999987,662.5677380999987,662.5677380999987,,,,,,,,,,,,,,00018,001,2025-11-09_10h52.32.840,MST_task,2024.2.2,60.001104019989214,2025-11-09 10h52.40.099259 +0530,
,Objects\045a.jpg,63,0,63,,,,,j,2.2852134000131628,0.19524469999305438,None,,,,,,,63,0,63,0,662.5677380999987,,,,,,,,,,,,,,,,,,,,,,,,,,,,,,662.5514433999924,662.5677380999987,663.0679868000007,663.051349699992,,,,,,,,,,,,,,,,,,,,,,663.0633090999909,663.0679868000007,663.0679868000007,663.0679868000007,666.051208799996,j,2.2852134000131628,0.19524469999305438,666.0526932999928,666.0527051999961,None,666.0676651999966,666.0676651999966,666.0676651999966,,,,,,,,,,,,,,00018,001,2025-11-09_10h52.32.840,MST_task,2024.2.2,60.001104019989214,2025-11-09 10h52.40.099259 +0530,
,Objects\088a.jpg,64,0,64,,,,,j,1.6015989000006812,0.15005280000332277,None,,,,,,,64,0,64,0,666.0676651999966,,,,,,,,,,,,,,,,,,,,,,,,,,,,,,666.0527865999902,666.0676651999966,666.5676528999902,666.5512462999905,,,,,,,,,,,,,,,,,,,,,,666.5616431999952,666.5676528999902,666.5676528999902,666.5676528999902,669.5511830999894,j,1.6015989000006812,0.15005280000332277,669.5512181999948,669.5512288999889,None,669.5676153999957,669.5676153999957,669.5676153999957,,,,,,,,,,,,,,00018,001,2025-11-09_10h52.32.840,MST_task,2024.2.2,60.001104019989214,2025-11-09 10h52.40.099259 +0530,
,Objects\018a.jpg,65,0,65,,,,,j,0.741492000001017,0.16355810000095516,None,,,,,,,65,0,65,0,669.5676153999957,,,,,,,,,,,,,,,,,,,,,,,,,,,,,,669.5513124999998,669.5676153999957,670.0675728999922,670.0511582999898,,,,,,,,,,,,,,,,,,,,,,670.0610888999945,670.0675728999922,670.0675728999922,670.0675728999922,673.0510966999864,j,0.741492000001017,0.16355810000095516,673.051132499997,673.0511429999897,None,673.0675207999884,673.0675207999884,673.0675207999884,,,,,,,,,,,,,,00018,001,2025-11-09_10h52.32.840,MST_task,2024.2.2,60.001104019989214,2025-11-09 10h52.40.099259 +0530,
,Objects\161a.jpg,66,0,66,,,,,f,0.7773520000046119,0.23679169999377336,None,,,,,,,66,0,66,0,673.0675207999884,,,,,,,,,,,,,,,,,,,,,,,,,,,,,,673.0511998999864,673.0675207999884,673.5675523999962,673.5511464999872,,,,,,,,,,,,,,,,,,,,,,673.561075199992,673.5675523999962,673.5675523999962,673.5675523999962,676.5510223999881,f,0.7773520000046119,0.23679169999377336,676.5510550999898,676.5510647999909,None,676.5675032999861,676.5675032999861,676.5675032999861,,,,,,,,,,,,,,00018,001,2025-11-09_10h52.32.840,MST_task,2024.2.2,60.001104019989214,2025-11-09 10h52.40.099259 +0530,
,Objects\029a.jpg,67,0,67,,,,,f,0.6198237000062363,0.2423899999994319,None,,,,,,,67,0,67,0,676.5675032999861,,,,,,,,,,,,,,,,,,,,,,,,,,,,,,676.5511211999983,676.5675032999861,677.067465199987,677.0509641999961,,,,,,,,,,,,,,,,,,,,,,677.0605344999931,677.067465199987,677.067465199987,677.067465199987,680.0509514999867,f,0.6198237000062363,0.2423899999994319,680.0509817999991,680.0509910999972,None,680.0673936999956,680.0673936999956,680.0673936999956,,,,,,,,,,,,,,00018,001,2025-11-09_10h52.32.840,MST_task,2024.2.2,60.001104019989214,2025-11-09 10h52.40.099259 +0530,
,Objects\084a.jpg,68,0,68,,,,,f,1.375825100010843,0.2502867999864975,None,,,,,,,68,0,68,0,680.0673936999956,,,,,,,,,,,,,,,,,,,,,,,,,,,,,,680.0510701999883,680.0673936999956,680.5673875999928,680.5509112,,,,,,,,,,,,,,,,,,,,,,680.5610525999946,680.5673875999928,680.5673875999928,680.5673875999928,683.5508745999978,f,1.375825100010843,0.2502867999864975,683.5509070999979,683.5509174999897,None,683.5673237999872,683.5673237999872,683.5673237999872,,,,,,,,,,,,,,00018,001,2025-11-09_10h52.32.840,MST_task,2024.2.2,60.001104019989214,2025-11-09 10h52.40.099259 +0530,
,Objects\100a.jpg,69,0,69,,,,,f,1.023792499996489,0.16778630000771955,None,,,,,,,69,0,69,0,683.5673237999872,,,,,,,,,,,,,,,,,,,,,,,,,,,,,,683.5510001999937,683.5673237999872,684.0672760999878,684.0508502999874,,,,,,,,,,,,,,,,,,,,,,684.0603138999868,684.0672760999878,684.0672760999878,684.0672760999878,687.0507956999936,f,1.023792499996489,0.16778630000771955,687.0508259999915,687.0508352999896,None,687.0672430999984,687.0672430999984,687.0672430999984,,,,,,,,,,,,,,00018,001,2025-11-09_10h52.32.840,MST_task,2024.2.2,60.001104019989214,2025-11-09 10h52.40.099259 +0530,
,Scenes\156a.jpg,70,0,70,,,,,j,0.9234907000063686,0.17021579999709502,None,,,,,,,70,0,70,0,687.0672430999984,,,,,,,,,,,,,,,,,,,,,,,,,,,,,,687.0508880999987,687.0672430999984,687.5838808999979,687.5507148999895,,,,,,,,,,,,,,,,,,,,,,687.5619925999927,687.5838808999979,687.5838808999979,687.5838808999979,690.5672416999878,j,0.9234907000063686,0.17021579999709502,690.5684612999903,690.5684788999934,None,,,,,,,,,,,,,,,,,00018,001,2025-11-09_10h52.32.840,MST_task,2024.2.2,60.001104019989214,2025-11-09 10h52.40.099259 +0530,
,Scenes\118a.jpg,71,0,71,,,,,j,0.712500200010254,0.12529289998929016,None,,,,,,,71,0,71,0,690.5838036999921,,,,,,,,,,,,,,,,,,,,,,,,,,,,,,690.5685650999949,690.5838036999921,691.0834628999874,691.0673575999972,,,,,,,,,,,,,,,,,,,,,,691.0762793999893,691.0834628999874,691.0834628999874,691.0834628999874,694.0673485999869,j,0.712500200010254,0.12529289998929016,694.067380499997,694.0673903999996,None,694.0837255999941,694.0837255999941,694.0837255999941,,,,,,,,,,,,,,00018,001,2025-11-09_10h52.32.840,MST_task,2024.2.2,60.001104019989214,2025-11-09 10h52.40.099259 +0530,
,Scenes\084a.jpg,72,0,72,,,,,j,0.6945273999881465,0.1472391000133939,None,,,,,,,72,0,72,0,694.0837255999941,,,,,,,,,,,,,,,,,,,,,,,,,,,,,,694.0674736999936,694.0837255999941,694.6004450999899,694.5672765999916,,,,,,,,,,,,,,,,,,,,,,694.5809194999892,694.6004450999899,694.6004450999899,694.6004450999899,697.5837594999903,j,0.6945273999881465,0.1472391000133939,697.5837979999924,697.5838073999912,None,,,,,,,,,,,,,,,,,00018,001,2025-11-09_10h52.32.840,MST_task,2024.2.2,60.001104019989214,2025-11-09 10h52.40.099259 +0530,
,Scenes\190a.jpg,73,0,73,,,,,j,0.4006610000069486,0.1660834999929648,None,,,,,,,73,0,73,0,697.6003586999868,,,,,,,,,,,,,,,,,,,,,,,,,,,,,,697.5838991999917,697.6003586999868,698.1003744999907,698.0838063999981,,,,,,,,,,,,,,,,,,,,,,698.0914125999989,698.1003744999907,698.1003744999907,698.1003744999907,701.083822399989,j,0.4006610000069486,0.1660834999929648,701.0838562999998,701.0838662999886,None,701.1002908999944,701.1002908999944,701.1002908999944,,,,,,,,,,,,,,00018,001,2025-11-09_10h52.32.840,MST_task,2024.2.2,60.001104019989214,2025-11-09 10h52.40.099259 +0530,
,Scenes\158a.jpg,74,0,74,,,,,j,1.6137969999981578,0.10862370001268573,None,,,,,,,74,0,74,0,701.1002908999944,,,,,,,,,,,,,,,,,,,,,,,,,,,,,,701.0839263999951,701.1002908999944,701.6169272999978,701.5837542999943,,,,,,,,,,,,,,,,,,,,,,701.5966771999956,701.6169272999978,701.6169272999978,701.6169272999978,704.6002377999976,j,1.6137969999981578,0.10862370001268573,704.6002749999898,704.6002851999947,None,,,,,,,,,,,,,,,,,00018,001,2025-11-09_10h52.32.840,MST_task,2024.2.2,60.001104019989214,2025-11-09 10h52.40.099259 +0530,
,Scenes\096a.jpg,75,0,75,,,,,j,1.0350351999950362,0.10003400000277907,None,,,,,,,75,0,75,0,704.6168773999962,,,,,,,,,,,,,,,,,,,,,,,,,,,,,,704.6003500999941,704.6168773999962,705.1338757999911,705.1004166999919,,,,,,,,,,,,,,,,,,,,,,705.1140354999952,705.1338757999911,705.1338757999911,705.1338757999911,708.1168693999934,j,1.0350351999950362,0.10003400000277907,708.1169031999889,708.1169134999946,None,,,,,,,,,,,,,,,,,00018,001,2025-11-09_10h52.32.840,MST_task,2024.2.2,60.001104019989214,2025-11-09 10h52.40.099259 +0530,
,Scenes\090a.jpg,76,0,76,,,,,j,0.6877193000109401,0.1610760999901686,None,,,,,,,76,0,76,0,708.1335099999997,,,,,,,,,,,,,,,,,,,,,,,,,,,,,,708.1169970999908,708.1335099999997,708.6501106999931,708.6171006999939,,,,,,,,,,,,,,,,,,,,,,708.638724199991,708.6501106999931,708.6501106999931,708.6501106999931,711.6334105999995,j,0.6877193000109401,0.1610760999901686,711.6334438999911,711.6334541999968,None,,,,,,,,,,,,,,,,,00018,001,2025-11-09_10h52.32.840,MST_task,2024.2.2,60.001104019989214,2025-11-09 10h52.40.099259 +0530,
,Objects\058a.jpg,77,0,77,,,,,f,0.8524661999981618,0.17839960000128485,None,,,,,,,77,0,77,0,711.6500543000002,,,,,,,,,,,,,,,,,,,,,,,,,,,,,,711.6335403999983,711.6500543000002,712.1500342999934,712.1336352999933,,,,,,,,,,,,,,,,,,,,,,712.1453236999951,712.1500342999934,712.1500342999934,712.1500342999934,715.1335361999954,f,0.8524661999981618,0.17839960000128485,715.1351110999967,715.1351230999862,None,715.1499563999969,715.1499563999969,715.1499563999969,,,,,,,,,,,,,,00018,001,2025-11-09_10h52.32.840,MST_task,2024.2.2,60.001104019989214,2025-11-09 10h52.40.099259 +0530,
,Objects\152a.jpg,78,0,78,,,,,f,1.0311923999979626,0.26067889999831095,None,,,,,,,78,0,78,0,715.1499563999969,,,,,,,,,,,,,,,,,,,,,,,,,,,,,,715.1351818999974,715.1499563999969,715.6499311999942,715.6335292999865,,,,,,,,,,,,,,,,,,,,,,715.6436572999955,715.6499311999942,715.6499311999942,715.6499311999942,718.6334231999936,f,1.0311923999979626,0.26067889999831095,718.6334835999878,718.6334943999973,None,718.6499163999979,718.6499163999979,718.6499163999979,,,,,,,,,,,,,,00018,001,2025-11-09_10h52.32.840,MST_task,2024.2.2,60.001104019989214,2025-11-09 10h52.40.099259 +0530,
,Objects\150a.jpg,79,0,79,,,,,j,1.025445999999647,0.1861166000016965,None,,,,,,,79,0,79,0,718.6499163999979,,,,,,,,,,,,,,,,,,,,,,,,,,,,,,718.6335859999963,718.6499163999979,719.1498660999932,719.1334720999876,,,,,,,,,,,,,,,,,,,,,,719.1437133999862,719.1498660999932,719.1498660999932,719.1498660999932,722.1335001999978,j,1.025445999999647,0.1861166000016965,722.1335393999907,722.1335509999917,None,722.1498161999916,722.1498161999916,722.1498161999916,,,,,,,,,,,,,,00018,001,2025-11-09_10h52.32.840,MST_task,2024.2.2,60.001104019989214,2025-11-09 10h52.40.099259 +0530,
,Objects\181a.jpg,80,0,80,,,,,f,1.87156149999646,0.20237210000050254,None,,,,,,,80,0,80,0,722.1498161999916,,,,,,,,,,,,,,,,,,,,,,,,,,,,,,722.1336112999998,722.1498161999916,722.6497925999865,722.6333578999911,,,,,,,,,,,,,,,,,,,,,,722.6434952999989,722.6497925999865,722.6497925999865,722.6497925999865,725.6333148999984,f,1.87156149999646,0.20237210000050254,725.6333505999937,725.6333605999971,None,725.6497621999879,725.6497621999879,725.6497621999879,,,,,,,,,,,,,,00018,001,2025-11-09_10h52.32.840,MST_task,2024.2.2,60.001104019989214,2025-11-09 10h52.40.099259 +0530,
,Objects\037a.jpg,81,0,81,,,,,f,1.0131066000030842,0.1706802999979118,None,,,,,,,81,0,81,0,725.6497621999879,,,,,,,,,,,,,,,,,,,,,,,,,,,,,,725.6334158999962,725.6497621999879,726.149783899993,726.1333874999982,,,,,,,,,,,,,,,,,,,,,,726.1435695999971,726.149783899993,726.149783899993,726.149783899993,729.1333449999947,f,1.0131066000030842,0.1706802999979118,729.1333816999977,729.1333916999865,None,729.1496948999993,729.1496948999993,729.1496948999993,,,,,,,,,,,,,,00018,001,2025-11-09_10h52.32.840,MST_task,2024.2.2,60.001104019989214,2025-11-09 10h52.40.099259 +0530,
,Objects\032a.jpg,82,0,82,,,,,j,0.7367023000115296,0.2144040999992285,None,,,,,,,82,0,82,0,729.1496948999993,,,,,,,,,,,,,,,,,,,,,,,,,,,,,,729.1334781999903,729.1496948999993,729.6663123999897,729.633284999989,,,,,,,,,,,,,,,,,,,,,,729.6493036999891,729.6663123999897,729.6663123999897,729.6663123999897,732.6496814999991,j,0.7367023000115296,0.2144040999992285,732.6497153999953,732.649725299998,None,,,,,,,,,,,,,,,,,00018,001,2025-11-09_10h52.32.840,MST_task,2024.2.2,60.001104019989214,2025-11-09 10h52.40.099259 +0530,
,Objects\135a.jpg,83,0,83,,,,,f,0.7590440000058152,0.1784408999956213,None,,,,,,,83,0,83,0,732.6662830999994,,,,,,,,,,,,,,,,,,,,,,,,,,,,,,732.6498117999872,732.6662830999994,733.1662338999886,733.1497576999973,,,,,,,,,,,,,,,,,,,,,,733.159969299988,733.1662338999886,733.1662338999886,733.1662338999886,736.1497782999941,f,0.7590440000058152,0.1784408999956213,736.1498100999888,736.1498196999892,None,736.1662037999922,736.1662037999922,736.1662037999922,,,,,,,,,,,,,,00018,001,2025-11-09_10h52.32.840,MST_task,2024.2.2,60.001104019989214,2025-11-09 10h52.40.099259 +0530,
,Scenes\152a.jpg,84,0,84,,,,,j,0.6677700000000186,0.18558989999291953,None,,,,,,,84,0,84,0,736.1662037999922,,,,,,,,,,,,,,,,,,,,,,,,,,,,,,736.1498997999879,736.1662037999922,736.682836299995,736.6497562999866,,,,,,,,,,,,,,,,,,,,,,736.6627063999913,736.682836299995,736.682836299995,736.682836299995,739.6661800000002,j,0.6677700000000186,0.18558989999291953,739.6673958999891,739.6674071999878,None,,,,,,,,,,,,,,,,,00018,001,2025-11-09_10h52.32.840,MST_task,2024.2.2,60.001104019989214,2025-11-09 10h52.40.099259 +0530,
,Scenes\003a.jpg,85,0,85,,,,,f,2.021177999995416,0.1905723000090802,None,,,,,,,85,0,85,0,739.6827808999951,,,,,,,,,,,,,,,,,,,,,,,,,,,,,,739.6674945999985,739.6827808999951,740.1996886999987,740.1662584999867,,,,,,,,,,,,,,,,,,,,,,740.1858083999978,740.1996886999987,740.1996886999987,740.1996886999987,743.1827467999974,f,2.021177999995416,0.1905723000090802,743.1827809999959,743.1827914999885,None,,,,,,,,,,,,,,,,,00018,001,2025-11-09_10h52.32.840,MST_task,2024.2.2,60.001104019989214,2025-11-09 10h52.40.099259 +0530,
,Scenes\007a.jpg,86,0,86,,,,,f,1.9188471999950707,0.19376310000370722,None,,,,,,,86,0,86,0,743.1993890999875,,,,,,,,,,,,,,,,,,,,,,,,,,,,,,743.1828978999984,743.1993890999875,743.716331699994,743.6829366999882,,,,,,,,,,,,,,,,,,,,,,743.6952359999996,743.716331699994,743.716331699994,743.716331699994,746.6993564999866,f,1.9188471999950707,0.19376310000370722,746.6993905999989,746.6994013999938,None,,,,,,,,,,,,,,,,,00018,001,2025-11-09_10h52.32.840,MST_task,2024.2.2,60.001104019989214,2025-11-09 10h52.40.099259 +0530,
,Scenes\091a.jpg,87,0,87,,,,,j,0.792925900008413,0.20149300000048243,None,,,,,,,87,0,87,0,746.7161017999897,,,,,,,,,,,,,,,,,,,,,,,,,,,,,,746.6994625999941,746.7161017999897,747.2324915999925,747.199531899998,,,,,,,,,,,,,,,,,,,,,,747.2167802999902,747.2324915999925,747.2324915999925,747.2324915999925,750.2159323999949,j,0.792925900008413,0.20149300000048243,750.2159667999949,750.2159765999968,None,,,,,,,,,,,,,,,,,00018,001,2025-11-09_10h52.32.840,MST_task,2024.2.2,60.001104019989214,2025-11-09 10h52.40.099259 +0530,
,Scenes\047a.jpg,88,0,88,,,,,j,0.7665381999977399,0.12197839999862481,None,,,,,,,88,0,88,0,750.2325801999978,,,,,,,,,,,,,,,,,,,,,,,,,,,,,,750.2160604999954,750.2325801999978,750.7492088999861,750.7161078999925,,,,,,,,,,,,,,,,,,,,,,750.728867999991,750.7492088999861,750.7492088999861,750.7492088999861,753.7325003000005,j,0.7665381999977399,0.12197839999862481,753.7325322999968,753.7325421999994,None,,,,,,,,,,,,,,,,,00018,001,2025-11-09_10h52.32.840,MST_task,2024.2.2,60.001104019989214,2025-11-09 10h52.40.099259 +0530,
,Scenes\177a.jpg,89,0,89,,,,,j,0.8003248999884818,0.1560409000085201,None,,,,,,,89,0,89,0,753.7491213999892,,,,,,,,,,,,,,,,,,,,,,,,,,,,,,753.732628999991,753.7491213999892,754.2490144999902,754.2326138999924,,,,,,,,,,,,,,,,,,,,,,754.2428122999991,754.2490144999902,754.2490144999902,754.2490144999902,757.2326190999884,j,0.8003248999884818,0.1560409000085201,757.2326532000006,757.2326635999925,None,757.249054999993,757.249054999993,757.249054999993,,,,,,,,,,,,,,00018,001,2025-11-09_10h52.32.840,MST_task,2024.2.2,60.001104019989214,2025-11-09 10h52.40.099259 +0530,
,Scenes\012a.jpg,90,0,90,,,,,j,0.8813733999995748,0.1823346000019228,None,,,,,,,90,0,90,0,757.249054999993,,,,,,,,,,,,,,,,,,,,,,,,,,,,,,757.232717699997,757.249054999993,757.7657317999983,757.7325459999993,,,,,,,,,,,,,,,,,,,,,,757.7460447999911,757.7657317999983,757.7657317999983,757.7657317999983,760.7490728999983,j,0.8813733999995748,0.1823346000019228,760.7491081999906,760.7491184999963,None,,,,,,,,,,,,,,,,,00018,001,2025-11-09_10h52.32.840,MST_task,2024.2.2,60.001104019989214,2025-11-09 10h52.40.099259 +0530,
,Objects\080a.jpg,91,0,91,,,,,f,0.761702999996487,0.20416300000215415,None,,,,,,,91,0,91,0,760.7657200999965,,,,,,,,,,,,,,,,,,,,,,,,,,,,,,760.7492166999873,760.7657200999965,761.2993509999942,761.2491812999942,,,,,,,,,,,,,,,,,,,,,,761.281358399996,761.2993509999942,761.2993509999942,761.2993509999942,764.265618999998,f,0.761702999996487,0.20416300000215415,764.2672213999904,764.2672331999929,None,,,,,,,,,,,,,,,,,00018,001,2025-11-09_10h52.32.840,MST_task,2024.2.2,60.001104019989214,2025-11-09 10h52.40.099259 +0530,
,Objects\187a.jpg,92,0,92,,,,,f,0.7011163999995915,0.26377039999351837,None,,,,,,,92,0,92,0,764.2822501999908,,,,,,,,,,,,,,,,,,,,,,,,,,,,,,764.2672885999928,764.2822501999908,764.7822296999948,764.7657807999931,,,,,,,,,,,,,,,,,,,,,,764.7756763999932,764.7822296999948,764.7822296999948,764.7822296999948,767.7657554999896,f,0.7011163999995915,0.26377039999351837,767.7657887999958,767.7657985999977,None,767.7822008999938,767.7822008999938,767.7822008999938,,,,,,,,,,,,,,00018,001,2025-11-09_10h52.32.840,MST_task,2024.2.2,60.001104019989214,2025-11-09 10h52.40.099259 +0530,
,Objects\101a.jpg,93,0,93,,,,,j,1.6650222000025678,0.1777898999862373,None,,,,,,,93,0,93,0,767.7822008999938,,,,,,,,,,,,,,,,,,,,,,,,,,,,,,767.7658853999892,767.7822008999938,768.2821644999931,768.2657350999943,,,,,,,,,,,,,,,,,,,,,,768.2758356999984,768.2821644999931,768.2821644999931,768.2821644999931,771.265690699991,j,1.6650222000025678,0.1777898999862373,771.265725099991,771.2657348999928,None,771.2820906999987,771.2820906999987,771.2820906999987,,,,,,,,,,,,,,00018,001,2025-11-09_10h52.32.840,MST_task,2024.2.2,60.001104019989214,2025-11-09 10h52.40.099259 +0530,
,Objects\073a.jpg,94,0,94,,,,,f,0.93321790000482,0.19901629998639692,None,,,,,,,94,0,94,0,771.2820906999987,,,,,,,,,,,,,,,,,,,,,,,,,,,,,,771.2657875000004,771.2820906999987,771.7820786999946,771.7655666999926,,,,,,,,,,,,,,,,,,,,,,771.7754344999994,771.7820786999946,771.7820786999946,771.7820786999946,774.7656320999959,f,0.93321790000482,0.19901629998639692,774.7656683999958,774.7656805000006,None,774.7820236999978,774.7820236999978,774.7820236999978,,,,,,,,,,,,,,00018,001,2025-11-09_10h52.32.840,MST_task,2024.2.2,60.001104019989214,2025-11-09 10h52.40.099259 +0530,
,Objects\078a.jpg,95,0,95,,,,,j,0.7795061000069836,0.17014289999497123,None,,,,,,,95,0,95,0,774.7820236999978,,,,,,,,,,,,,,,,,,,,,,,,,,,,,,774.7657736999972,774.7820236999978,775.2820155999943,775.2656580999901,,,,,,,,,,,,,,,,,,,,,,775.2759243999899,775.2820155999943,775.2820155999943,775.2820155999943,778.2655578999984,j,0.7795061000069836,0.17014289999497123,778.2656006999896,778.2656114999991,None,778.2819412999961,778.2819412999961,778.2819412999961,,,,,,,,,,,,,,00018,001,2025-11-09_10h52.32.840,MST_task,2024.2.2,60.001104019989214,2025-11-09 10h52.40.099259 +0530,
,Objects\113a.jpg,96,0,96,,,,,f,1.9390124000055948,0.20339599999715574,None,,,,,,,96,0,96,0,778.2819412999961,,,,,,,,,,,,,,,,,,,,,,,,,,,,,,778.2656706999987,778.2819412999961,778.7819295999943,778.7655150999926,,,,,,,,,,,,,,,,,,,,,,778.776581099999,778.7819295999943,778.7819295999943,778.7819295999943,781.7654779000004,f,1.9390124000055948,0.20339599999715574,781.7655114999943,781.7655211999954,None,781.7819074999861,781.7819074999861,781.7819074999861,,,,,,,,,,,,,,00018,001,2025-11-09_10h52.32.840,MST_task,2024.2.2,60.001104019989214,2025-11-09 10h52.40.099259 +0530,
,Objects\174a.jpg,97,0,97,,,,,f,0.5513337000011234,0.19921139998768922,None,,,,,,,97,0,97,0,781.7819074999861,,,,,,,,,,,,,,,,,,,,,,,,,,,,,,781.7655744999938,781.7819074999861,782.281882299998,782.2654515999893,,,,,,,,,,,,,,,,,,,,,,782.2763878999976,782.281882299998,782.281882299998,782.281882299998,785.265396799994,f,0.5513337000011234,0.19921139998768922,785.2654315999971,785.2654416999867,None,785.2818234000006,785.2818234000006,785.2818234000006,,,,,,,,,,,,,,00018,001,2025-11-09_10h52.32.840,MST_task,2024.2.2,60.001104019989214,2025-11-09 10h52.40.099259 +0530,
,Scenes\176a.jpg,98,0,98,,,,,j,0.9945287000009557,0.1707724000007147,None,,,,,,,98,0,98,0,785.2818234000006,,,,,,,,,,,,,,,,,,,,,,,,,,,,,,785.2655234999984,785.2818234000006,785.798446899993,785.7653484999901,,,,,,,,,,,,,,,,,,,,,,785.7791066999926,785.798446899993,785.798446899993,785.798446899993,788.7817918999936,j,0.9945287000009557,0.1707724000007147,788.7829218999977,788.7829337000003,None,,,,,,,,,,,,,,,,,00018,001,2025-11-09_10h52.32.840,MST_task,2024.2.2,60.001104019989214,2025-11-09 10h52.40.099259 +0530,
,Scenes\100a.jpg,99,0,99,,,,,f,0.9260539000097197,0.23510829999577254,None,,,,,,,99,0,99,0,788.7984249999863,,,,,,,,,,,,,,,,,,,,,,,,,,,,,,788.7829931999877,788.7984249999863,789.3150405999913,789.2819690999895,,,,,,,,,,,,,,,,,,,,,,789.2935550999973,789.3150405999913,789.3150405999913,789.3150405999913,792.2984230000002,f,0.9260539000097197,0.23510829999577254,792.2984722999972,792.2984823000006,None,,,,,,,,,,,,,,,,,00018,001,2025-11-09_10h52.32.840,MST_task,2024.2.2,60.001104019989214,2025-11-09 10h52.40.099259 +0530,
,Scenes\127a.jpg,100,0,100,,,,,j,1.233098800003063,0.3804997999977786,None,,,,,,,100,0,100,0,792.3149807999871,,,,,,,,,,,,,,,,,,,,,,,,,,,,,,792.2985757999995,792.3149807999871,792.8319250999921,792.7984861999867,,,,,,,,,,,,,,,,,,,,,,792.8100970999949,792.8319250999921,792.8319250999921,792.8319250999921,795.8149673999869,j,1.233098800003063,0.3804997999977786,795.8150196999923,795.8150299999979,None,,,,,,,,,,,,,,,,,00018,001,2025-11-09_10h52.32.840,MST_task,2024.2.2,60.001104019989214,2025-11-09 10h52.40.099259 +0530,
,Scenes\023a.jpg,101,0,101,,,,,f,1.0748232000041753,0.29605210000590887,None,,,,,,,101,0,101,0,795.8316196999949,,,,,,,,,,,,,,,,,,,,,,,,,,,,,,795.8151212999946,795.8316196999949,796.3485119999968,796.3150667999871,,,,,,,,,,,,,,,,,,,,,,796.3337277999963,796.3485119999968,796.3485119999968,796.3485119999968,799.331586299988,f,1.0748232000041753,0.29605210000590887,799.3316231999925,799.3316328999936,None,,,,,,,,,,,,,,,,,00018,001,2025-11-09_10h52.32.840,MST_task,2024.2.2,60.001104019989214,2025-11-09 10h52.40.099259 +0530,
,Scenes\134a.jpg,102,0,102,,,,,j,0.7004747000028146,0.20167150000634138,None,,,,,,,102,0,102,0,799.3482003999961,,,,,,,,,,,,,,,,,,,,,,,,,,,,,,799.3317174999975,799.3482003999961,799.8651136999979,799.8317310999992,,,,,,,,,,,,,,,,,,,,,,799.8457471999864,799.8651136999979,799.8651136999979,799.8651136999979,802.848164199997,j,0.7004747000028146,0.20167150000634138,802.8482017999922,802.8482129999902,None,,,,,,,,,,,,,,,,,00018,001,2025-11-09_10h52.32.840,MST_task,2024.2.2,60.001104019989214,2025-11-09 10h52.40.099259 +0530,
,Scenes\168a.jpg,103,0,103,,,,,j,0.6578144999948563,0.21815620000415947,None,,,,,,,103,0,103,0,802.8648154999973,,,,,,,,,,,,,,,,,,,,,,,,,,,,,,802.8483072999952,802.8648154999973,803.364531299987,803.348256199999,,,,,,,,,,,,,,,,,,,,,,803.3579539999919,803.364531299987,803.364531299987,803.364531299987,806.3482462999964,j,0.6578144999948563,0.21815620000415947,806.348278599995,806.3482880999945,None,806.3647222999862,806.3647222999862,806.3647222999862,,,,,,,,,,,,,,00018,001,2025-11-09_10h52.32.840,MST_task,2024.2.2,60.001104019989214,2025-11-09 10h52.40.099259 +0530,
,Scenes\074a.jpg,104,0,104,,,,,j,0.6629956999968272,0.09698550000030082,None,,,,,,,104,0,104,0,806.3647222999862,,,,,,,,,,,,,,,,,,,,,,,,,,,,,,806.3483466999896,806.3647222999862,806.8813902999973,806.8482094999927,,,,,,,,,,,,,,,,,,,,,,806.8613570999878,806.8813902999973,806.8813902999973,806.8813902999973,809.8642550999939,j,0.6629956999968272,0.09698550000030082,809.8642943999876,809.8643056000001,None,,,,,,,,,,,,,,,,,00018,001,2025-11-09_10h52.32.840,MST_task,2024.2.2,60.001104019989214,2025-11-09 10h52.40.099259 +0530,
,Objects\166a.jpg,105,0,105,,,,,f,0.61809920000087,0.18272919999435544,None,,,,,,,105,0,105,0,809.8808675999899,,,,,,,,,,,,,,,,,,,,,,,,,,,,,,809.8644051999872,809.8808675999899,810.3810412999883,810.3644231999933,,,,,,,,,,,,,,,,,,,,,,810.3732152999874,810.3810412999883,810.3810412999883,810.3810412999883,813.3646379999991,f,0.61809920000087,0.18272919999435544,813.3660650999955,813.3660766999965,None,,,,,,,,,,,,,,,,,00018,001,2025-11-09_10h52.32.840,MST_task,2024.2.2,60.001104019989214,2025-11-09 10h52.40.099259 +0530,
,Objects\180a.jpg,106,0,106,,,,,j,1.6145933999941917,0.12372280001000036,None,,,,,,,106,0,106,0,813.3812806999922,,,,,,,,,,,,,,,,,,,,,,,,,,,,,,813.3661594999867,813.3812806999922,813.8813434999902,813.8648222999909,,,,,,,,,,,,,,,,,,,,,,813.8745479999925,813.8813434999902,813.8813434999902,813.8813434999902,816.8647982999973,j,1.6145933999941917,0.12372280001000036,816.8648296999891,816.8648391999886,None,816.8812460999907,816.8812460999907,816.8812460999907,,,,,,,,,,,,,,00018,001,2025-11-09_10h52.32.840,MST_task,2024.2.2,60.001104019989214,2025-11-09 10h52.40.099259 +0530,
,Objects\102a.jpg,107,0,107,,,,,j,0.9362190999963786,0.1875612000003457,None,,,,,,,107,0,107,0,816.8812460999907,,,,,,,,,,,,,,,,,,,,,,,,,,,,,,816.8648965999892,816.8812460999907,817.3812357999996,817.3647930000006,,,,,,,,,,,,,,,,,,,,,,817.3747022999887,817.3812357999996,817.3812357999996,817.3812357999996,820.364748299995,j,0.9362190999963786,0.1875612000003457,820.3647853000002,820.3647950999875,None,820.3811960999883,820.3811960999883,820.3811960999883,,,,,,,,,,,,,,00018,001,2025-11-09_10h52.32.840,MST_task,2024.2.2,60.001104019989214,2025-11-09 10h52.40.099259 +0530,
,Objects\142a.jpg,108,0,108,,,,,f,0.6718700999917928,0.2706351000088034,None,,,,,,,108,0,108,0,820.3811960999883,,,,,,,,,,,,,,,,,,,,,,,,,,,,,,820.3648510999919,820.3811960999883,820.8811575999862,820.8650363999914,,,,,,,,,,,,,,,,,,,,,,820.8749730999989,820.8811575999862,820.8811575999862,820.8811575999862,823.8646350999916,f,0.6718700999917928,0.2706351000088034,823.8646726999868,823.864682799991,None,823.8811351999902,823.8811351999902,823.8811351999902,,,,,,,,,,,,,,00018,001,2025-11-09_10h52.32.840,MST_task,2024.2.2,60.001104019989214,2025-11-09 10h52.40.099259 +0530,
,Objects\004a.jpg,109,0,109,,,,,j,1.1106594000011683,0.17740049998974428,None,,,,,,,109,0,109,0,823.8811351999902,,,,,,,,,,,,,,,,,,,,,,,,,,,,,,823.8647712999955,823.8811351999902,824.3811318999942,824.3645475999947,,,,,,,,,,,,,,,,,,,,,,824.3741783999867,824.3811318999942,824.3811318999942,824.3811318999942,827.3645367999998,j,1.1106594000011683,0.17740049998974428,827.3645720999921,827.3645819999947,None,827.3810236999998,827.3810236999998,827.3810236999998,,,,,,,,,,,,,,00018,001,2025-11-09_10h52.32.840,MST_task,2024.2.2,60.001104019989214,2025-11-09 10h52.40.099259 +0530,
,Objects\026a.jpg,110,0,110,,,,,f,2.114402599996538,0.2480892000021413,None,,,,,,,110,0,110,0,827.3810236999998,,,,,,,,,,,,,,,,,,,,,,,,,,,,,,827.3646384999884,827.3810236999998,827.8809884999937,827.8644532999897,,,,,,,,,,,,,,,,,,,,,,827.8742973999906,827.8809884999937,827.8809884999937,827.8809884999937,830.8644714999973,f,2.114402599996538,0.2480892000021413,830.8645058999973,830.8645155999984,None,830.8808518999867,830.8808518999867,830.8808518999867,,,,,,,,,,,,,,00018,001,2025-11-09_10h52.32.840,MST_task,2024.2.2,60.001104019989214,2025-11-09 10h52.40.099259 +0530,
,Objects\027a.jpg,111,0,111,,,,,f,0.9620722999970894,0.27623940000194125,None,,,,,,,111,0,111,0,830.8808518999867,,,,,,,,,,,,,,,,,,,,,,,,,,,,,,830.864599499997,830.8808518999867,831.3808468999923,831.364288599987,,,,,,,,,,,,,,,,,,,,,,831.3741553,831.3808468999923,831.3808468999923,831.3808468999923,834.3643670999882,f,0.9620722999970894,0.27623940000194125,834.3644006999966,834.3644109999877,None,834.380797299993,834.380797299993,834.380797299993,,,,,,,,,,,,,,00018,001,2025-11-09_10h52.32.840,MST_task,2024.2.2,60.001104019989214,2025-11-09 10h52.40.099259 +0530,
,Scenes\115a.jpg,112,0,112,,,,,j,0.6746047999913571,0.28400100000726525,None,,,,,,,112,0,112,0,834.380797299993,,,,,,,,,,,,,,,,,,,,,,,,,,,,,,834.3644676999975,834.380797299993,834.8970395999931,834.864319299988,,,,,,,,,,,,,,,,,,,,,,834.8904840999894,834.8970395999931,834.8970395999931,834.8970395999931,837.8807312999998,j,0.6746047999913571,0.28400100000726525,837.8819935999927,837.8820049999922,None,,,,,,,,,,,,,,,,,00018,001,2025-11-09_10h52.32.840,MST_task,2024.2.2,60.001104019989214,2025-11-09 10h52.40.099259 +0530,
,Scenes\093a.jpg,113,0,113,,,,,f,1.0437820000079228,0.3846798999875318,None,,,,,,,113,0,113,0,837.8973517999984,,,,,,,,,,,,,,,,,,,,,,,,,,,,,,837.8820586999936,837.8973517999984,838.3973639999895,838.3808834999945,,,,,,,,,,,,,,,,,,,,,,838.3874526,838.3973639999895,838.3973639999895,838.3973639999895,841.3808758999949,f,1.0437820000079228,0.3846798999875318,841.380912099994,841.3809247999889,None,841.3972738999873,841.3972738999873,841.3972738999873,,,,,,,,,,,,,,00018,001,2025-11-09_10h52.32.840,MST_task,2024.2.2,60.001104019989214,2025-11-09 10h52.40.099259 +0530,
,Scenes\124a.jpg,114,0,114,,,,,f,1.157595600001514,0.3313538999937009,None,,,,,,,114,0,114,0,841.3972738999873,,,,,,,,,,,,,,,,,,,,,,,,,,,,,,841.3810145999887,841.3972738999873,841.9139584999939,841.8807677000004,,,,,,,,,,,,,,,,,,,,,,841.8922794999962,841.9139584999939,841.9139584999939,841.9139584999939,844.8972412000003,f,1.157595600001514,0.3313538999937009,844.897290199995,844.8973007999884,None,,,,,,,,,,,,,,,,,00018,001,2025-11-09_10h52.32.840,MST_task,2024.2.2,60.001104019989214,2025-11-09 10h52.40.099259 +0530,
,Scenes\171a.jpg,115,0,115,,,,,f,0.8161725000099977,0.3040933000011137,None,,,,,,,115,0,115,0,844.9138923999999,,,,,,,,,,,,,,,,,,,,,,,,,,,,,,844.8973939999996,844.9138923999999,845.4307816999935,845.397339099989,,,,,,,,,,,,,,,,,,,,,,845.4132297999895,845.4307816999935,845.4307816999935,845.4307816999935,848.4138509999902,f,0.8161725000099977,0.3040933000011137,848.4138861999963,848.4138963000005,None,,,,,,,,,,,,,,,,,00018,001,2025-11-09_10h52.32.840,MST_task,2024.2.2,60.001104019989214,2025-11-09 10h52.40.099259 +0530,
,Scenes\046a.jpg,116,0,116,,,,,j,0.7956801999971503,0.1698409999953583,None,,,,,,,116,0,116,0,848.4304634999862,,,,,,,,,,,,,,,,,,,,,,,,,,,,,,848.4139784999861,848.4304634999862,848.947345099994,848.9140622999985,,,,,,,,,,,,,,,,,,,,,,848.9319868999883,848.947345099994,848.947345099994,848.947345099994,851.9304367999866,j,0.7956801999971503,0.1698409999953583,851.930469599989,851.9304793999909,None,,,,,,,,,,,,,,,,,00018,001,2025-11-09_10h52.32.840,MST_task,2024.2.2,60.001104019989214,2025-11-09 10h52.40.099259 +0530,
,Scenes\092a.jpg,117,0,117,,,,,j,0.8696267999912379,0.21794210000371095,None,,,,,,,117,0,117,0,851.9470864999894,,,,,,,,,,,,,,,,,,,,,,,,,,,,,,851.9305622999964,851.9470864999894,852.4639169999864,852.4305659999955,,,,,,,,,,,,,,,,,,,,,,852.441602299994,852.4639169999864,852.4639169999864,852.4639169999864,855.4470487999934,j,0.8696267999912379,0.21794210000371095,855.4470823999873,855.4470922999899,None,,,,,,,,,,,,,,,,,00018,001,2025-11-09_10h52.32.840,MST_task,2024.2.2,60.001104019989214,2025-11-09 10h52.40.099259 +0530,
,Scenes\103a.jpg,118,0,118,,,,,j,0.7802207999920938,0.1653513000055682,None,,,,,,,118,0,118,0,855.4636813999969,,,,,,,,,,,,,,,,,,,,,,,,,,,,,,855.4471491999866,855.4636813999969,855.9803000999964,855.9471277999983,,,,,,,,,,,,,,,,,,,,,,855.9601440999977,855.9803000999964,855.9803000999964,855.9803000999964,858.9636455999862,j,0.7802207999920938,0.1653513000055682,858.9636820999876,858.9636926999956,None,,,,,,,,,,,,,,,,,00018,001,2025-11-09_10h52.32.840,MST_task,2024.2.2,60.001104019989214,2025-11-09 10h52.40.099259 +0530,
,Objects\087a.jpg,119,0,119,,,,,j,2.120727200002875,None,None,,,,,,,119,0,119,0,858.9802974999911,,,,,,,,,,,,,,,,,,,,,,,,,,,,,,858.9637794999871,858.9802974999911,859.4804870999942,859.4637870000006,,,,,,,,,,,,,,,,,,,,,,859.474858799993,859.4804870999942,859.4804870999942,859.4804870999942,862.4637927000003,j,2.120727200002875,None,862.4652174999937,862.4652288999932,None,862.4801677999931,862.4801677999931,862.4801677999931,,,,,,,,,,,,,,00018,001,2025-11-09_10h52.32.840,MST_task,2024.2.2,60.001104019989214,2025-11-09 10h52.40.099259 +0530,
,Objects\077a.jpg,120,0,120,,,,,j,1.0072587999893585,0.16949400000157766,None,,,,,,,120,0,120,0,862.4801677999931,,,,,,,,,,,,,,,,,,,,,,,,,,,,,,862.465312699991,862.4801677999931,862.9801390999928,862.9636834999983,,,,,,,,,,,,,,,,,,,,,,862.9734377999994,862.9801390999928,862.9801390999928,862.9801390999928,865.9636984999961,j,1.0072587999893585,0.16949400000157766,865.963731699987,865.9637413999881,None,865.9801768999896,865.9801768999896,865.9801768999896,,,,,,,,,,,,,,00018,001,2025-11-09_10h52.32.840,MST_task,2024.2.2,60.001104019989214,2025-11-09 10h52.40.099259 +0530,
,Objects\105a.jpg,121,0,121,,,,,f,1.8287999000021955,0.11609720000706147,None,,,,,,,121,0,121,0,865.9801768999896,,,,,,,,,,,,,,,,,,,,,,,,,,,,,,865.9638211999991,865.9801768999896,866.4800789000001,866.4635849999904,,,,,,,,,,,,,,,,,,,,,,866.4733870999917,866.4800789000001,866.4800789000001,866.4800789000001,869.4636188000004,f,1.8287999000021955,0.11609720000706147,869.4636529999989,869.463662899987,None,869.4800487999892,869.4800487999892,869.4800487999892,,,,,,,,,,,,,,00018,001,2025-11-09_10h52.32.840,MST_task,2024.2.2,60.001104019989214,2025-11-09 10h52.40.099259 +0530,
,Objects\168a.jpg,122,0,122,,,,,f,2.1157166000048164,0.25733399999444373,None,,,,,,,122,0,122,0,869.4800487999892,,,,,,,,,,,,,,,,,,,,,,,,,,,,,,869.4637182000006,869.4800487999892,869.9800016999943,869.9635305999982,,,,,,,,,,,,,,,,,,,,,,869.9731109999993,869.9800016999943,869.9800016999943,869.9800016999943,872.9635493999958,f,2.1157166000048164,0.25733399999444373,872.9635806000006,872.9635898999986,None,872.979964099999,872.979964099999,872.979964099999,,,,,,,,,,,,,,00018,001,2025-11-09_10h52.32.840,MST_task,2024.2.2,60.001104019989214,2025-11-09 10h52.40.099259 +0530,
,Objects\036a.jpg,123,0,123,,,,,f,1.1648701999947662,0.2604670000000624,None,,,,,,,123,0,123,0,872.979964099999,,,,,,,,,,,,,,,,,,,,,,,,,,,,,,872.9636676999944,872.979964099999,873.479998499999,873.4634534999932,,,,,,,,,,,,,,,,,,,,,,873.4732788999972,873.479998499999,873.479998499999,873.479998499999,876.4635404,f,1.1648701999947662,0.2604670000000624,876.4635737999924,876.4635840999981,None,876.4798911999969,876.4798911999969,876.4798911999969,,,,,,,,,,,,,,00018,001,2025-11-09_10h52.32.840,MST_task,2024.2.2,60.001104019989214,2025-11-09 10h52.40.099259 +0530,
,Objects\134a.jpg,124,0,124,,,,,j,0.9235914000018965,0.17732089999481104,None,,,,,,,124,0,124,0,876.4798911999969,,,,,,,,,,,,,,,,,,,,,,,,,,,,,,876.4636396999995,876.4798911999969,876.9798933999991,876.9634500999964,,,,,,,,,,,,,,,,,,,,,,876.9733978999866,876.9798933999991,876.9798933999991,876.9798933999991,879.9634623999882,j,0.9235914000018965,0.17732089999481104,879.9634990999912,879.9635110999952,None,879.9798193999886,879.9798193999886,879.9798193999886,,,,,,,,,,,,,,00018,001,2025-11-09_10h52.32.840,MST_task,2024.2.2,60.001104019989214,2025-11-09 10h52.40.099259 +0530,
,Objects\191a.jpg,125,0,125,,,,,f,0.9393975999992108,0.2480949999880977,None,,,,,,,125,0,125,0,879.9798193999886,,,,,,,,,,,,,,,,,,,,,,,,,,,,,,879.9635972999968,879.9798193999886,880.4798138999904,880.4632824,,,,,,,,,,,,,,,,,,,,,,880.4730230999994,880.4798138999904,880.4798138999904,880.4798138999904,883.4633127999987,f,0.9393975999992108,0.2480949999880977,883.4633472999994,883.4633574999898,None,883.4797477999964,883.4797477999964,883.4797477999964,,,,,,,,,,,,,,00018,001,2025-11-09_10h52.32.840,MST_task,2024.2.2,60.001104019989214,2025-11-09 10h52.40.099259 +0530,
,Scenes\067a.jpg,126,0,126,,,,,j,0.5686701000086032,0.20585990000108723,None,,,,,,,126,0,126,0,883.4797477999964,,,,,,,,,,,,,,,,,,,,,,,,,,,,,,883.463442399996,883.4797477999964,883.9964131999877,883.9632210999989,,,,,,,,,,,,,,,,,,,,,,883.9746679999953,883.9964131999877,883.9964131999877,883.9964131999877,886.9797334999894,j,0.5686701000086032,0.20585990000108723,886.9809423999977,886.9809540999995,None,,,,,,,,,,,,,,,,,00018,001,2025-11-09_10h52.32.840,MST_task,2024.2.2,60.001104019989214,2025-11-09 10h52.40.099259 +0530,
,Scenes\087a.jpg,127,0,127,,,,,j,0.6223809999937657,0.1667009000084363,None,,,,,,,127,0,127,0,886.9963435999962,,,,,,,,,,,,,,,,,,,,,,,,,,,,,,886.9810419999994,886.9963435999962,887.4965270999965,887.4798490999965,,,,,,,,,,,,,,,,,,,,,,887.4893759999977,887.4965270999965,887.4965270999965,887.4965270999965,890.4798165999964,j,0.6223809999937657,0.1667009000084363,890.4798473999981,890.4798566999962,None,890.4962615999975,890.4962615999975,890.4962615999975,,,,,,,,,,,,,,00018,001,2025-11-09_10h52.32.840,MST_task,2024.2.2,60.001104019989214,2025-11-09 10h52.40.099259 +0530,
,Scenes\027a.jpg,128,0,128,,,,,f,1.9488217999896733,0.14647710000281222,None,,,,,,,128,0,128,0,890.4962615999975,,,,,,,,,,,,,,,,,,,,,,,,,,,,,,890.4799079999939,890.4962615999975,890.9964730999927,890.9797477999964,,,,,,,,,,,,,,,,,,,,,,890.9899474999984,890.9964730999927,890.9964730999927,890.9964730999927,893.9797376999923,f,1.9488217999896733,0.14647710000281222,893.9797746999975,893.9797855999932,None,893.9961956999905,893.9961956999905,893.9961956999905,,,,,,,,,,,,,,00018,001,2025-11-09_10h52.32.840,MST_task,2024.2.2,60.001104019989214,2025-11-09 10h52.40.099259 +0530,
,Scenes\041a.jpg,129,0,129,,,,,j,0.7419832999876235,0.21086680000007618,None,,,,,,,129,0,129,0,893.9961956999905,,,,,,,,,,,,,,,,,,,,,,,,,,,,,,893.9798458000005,893.9961956999905,894.5130699000001,894.4796698999999,,,,,,,,,,,,,,,,,,,,,,894.4920794999925,894.5130699000001,894.5130699000001,894.5130699000001,897.4961481999926,j,0.7419832999876235,0.21086680000007618,897.496186599994,897.4961961999943,None,,,,,,,,,,,,,,,,,00018,001,2025-11-09_10h52.32.840,MST_task,2024.2.2,60.001104019989214,2025-11-09 10h52.40.099259 +0530,
,Scenes\025a.jpg,130,0,130,,,,,j,1.2479492999991635,0.25822129999869503,None,,,,,,,130,0,130,0,897.512742299994,,,,,,,,,,,,,,,,,,,,,,,,,,,,,,897.4962533999933,897.512742299994,898.029667499999,897.9963279999938,,,,,,,,,,,,,,,,,,,,,,898.0132704999996,898.029667499999,898.029667499999,898.029667499999,901.0126983999944,j,1.2479492999991635,0.25822129999869503,901.0127324999921,901.0127419999917,None,,,,,,,,,,,,,,,,,00018,001,2025-11-09_10h52.32.840,MST_task,2024.2.2,60.001104019989214,2025-11-09 10h52.40.099259 +0530,
,Scenes\191a.jpg,131,0,131,,,,,j,0.8716282999957912,0.16657770000165328,None,,,,,,,131,0,131,0,901.0293754999875,,,,,,,,,,,,,,,,,,,,,,,,,,,,,,901.012802199999,901.0293754999875,901.5296638,901.5128335999907,,,,,,,,,,,,,,,,,,,,,,901.5221765999886,901.5296638,901.5296638,901.5296638,904.5128665999946,j,0.8716282999957912,0.16657770000165328,904.5128994999977,904.5129087999958,None,904.5293052999914,904.5293052999914,904.5293052999914,,,,,,,,,,,,,,00018,001,2025-11-09_10h52.32.840,MST_task,2024.2.2,60.001104019989214,2025-11-09 10h52.40.099259 +0530,
,Scenes\119a.jpg,132,0,132,,,,,j,2.9049980999989202,None,None,,,,,,,132,0,132,0,904.5293052999914,,,,,,,,,,,,,,,,,,,,,,,,,,,,,,904.5129619999934,904.5293052999914,905.0461730999959,905.0127673999959,,,,,,,,,,,,,,,,,,,,,,905.0256574999948,905.0461730999959,905.0461730999959,905.0461730999959,908.0292763999896,j,2.9049980999989202,None,908.0293116999965,908.0293219999876,None,,,,,,,,,,,,,,,,,00018,001,2025-11-09_10h52.32.840,MST_task,2024.2.2,60.001104019989214,2025-11-09 10h52.40.099259 +0530,
,Objects\089a.jpg,133,0,133,,,,,f,2.5997108000010485,0.14140959999349434,None,,,,,,,133,0,133,0,908.0459004000004,,,,,,,,,,,,,,,,,,,,,,,,,,,,,,908.0294137999881,908.0459004000004,908.546128499991,908.5293789999996,,,,,,,,,,,,,,,,,,,,,,908.541132399987,908.546128499991,908.546128499991,908.546128499991,911.5293888999877,f,2.5997108000010485,0.14140959999349434,911.5308069999883,911.5308185999893,None,911.5458203999879,911.5458203999879,911.5458203999879,,,,,,,,,,,,,,00018,001,2025-11-09_10h52.32.840,MST_task,2024.2.2,60.001104019989214,2025-11-09 10h52.40.099259 +0530,
,Objects\143a.jpg,134,0,134,,,,,j,2.4976285000011558,0.15752859998610802,None,,,,,,,134,0,134,0,911.5458203999879,,,,,,,,,,,,,,,,,,,,,,,,,,,,,,911.5308990999911,911.5458203999879,912.0457878999878,912.0293586999906,,,,,,,,,,,,,,,,,,,,,,912.0392231999867,912.0457878999878,912.0457878999878,912.0457878999878,915.0293365999969,j,2.4976285000011558,0.15752859998610802,915.0293685999932,915.0293794999889,None,915.0457453999989,915.0457453999989,915.0457453999989,,,,,,,,,,,,,,00018,001,2025-11-09_10h52.32.840,MST_task,2024.2.2,60.001104019989214,2025-11-09 10h52.40.099259 +0530,
,Objects\090a.jpg,135,0,135,,,,,None,,,j,2.8093886999995448,None,,,,,135,0,135,0,915.0457453999989,,,,,,,,,,,,,,,,,,,,,,,,,,,,,,915.0294319999957,915.0457453999989,915.5457490999979,915.5292599999957,,,,,,,,,,,,,,,,,,,,,,915.5396065999958,915.5457490999979,915.5457490999979,915.5457490999979,918.529280799994,None,,,918.5293135999964,921.3626084999996,j,918.5456674999878,918.5456674999878,918.5456674999878,918.5456674999878,918.5456674999878,2.8093886999995448,None,,,,,,,,,,00018,001,2025-11-09_10h52.32.840,MST_task,2024.2.2,60.001104019989214,2025-11-09 10h52.40.099259 +0530,
,Objects\092a.jpg,136,0,136,,,,,None,,,f,0.4869800999877043,None,,,,,136,0,136,0,921.3789106999902,,,,,,,,,,,,,,,,,,,,,,,,,,,,,,921.3626895999914,921.3789106999902,921.8788973999908,921.8624163999921,,,,,,,,,,,,,,,,,,,,,,921.8722329999873,921.8788973999908,921.8788973999908,921.8788973999908,924.862453099995,None,,,924.8624892999942,925.3790871999954,f,924.8788372999988,924.8788372999988,924.8788372999988,924.8788372999988,924.8788372999988,0.4869800999877043,None,,,,,,,,,,00018,001,2025-11-09_10h52.32.840,MST_task,2024.2.2,60.001104019989214,2025-11-09 10h52.40.099259 +0530,
,Objects\130a.jpg,137,0,137,,,,,j,0.799951199995121,0.19055060000391677,None,,,,,,,137,0,137,0,925.395524099993,,,,,,,,,,,,,,,,,,,,,,,,,,,,,,925.3791811999981,925.395524099993,925.8955098000006,925.8790109999973,,,,,,,,,,,,,,,,,,,,,,925.8888311999908,925.8955098000006,925.8955098000006,925.8955098000006,928.8789910999913,j,0.799951199995121,0.19055060000391677,928.8790259999951,928.87903679999,None,928.8954513999925,928.8954513999925,928.8954513999925,,,,,,,,,,,,,,00018,001,2025-11-09_10h52.32.840,MST_task,2024.2.2,60.001104019989214,2025-11-09 10h52.40.099259 +0530,
,Objects\129a.jpg,138,0,138,,,,,f,0.8104063000064343,0.2052893999934895,None,,,,,,,138,0,138,0,928.8954513999925,,,,,,,,,,,,,,,,,,,,,,,,,,,,,,928.8790923999914,928.8954513999925,929.3954001999955,929.3789197000006,,,,,,,,,,,,,,,,,,,,,,929.3885385999893,929.3954001999955,929.3954001999955,929.3954001999955,932.3789353999891,f,0.8104063000064343,0.2052893999934895,932.3789718999906,932.3789824999985,None,932.3953789999941,932.3953789999941,932.3953789999941,,,,,,,,,,,,,,00018,001,2025-11-09_10h52.32.840,MST_task,2024.2.2,60.001104019989214,2025-11-09 10h52.40.099259 +0530,
,Objects\116a.jpg,139,0,139,,,,,f,1.010861599992495,0.22590459999628365,None,,,,,,,139,0,139,0,932.3953789999941,,,,,,,,,,,,,,,,,,,,,,,,,,,,,,932.3790745999868,932.3953789999941,932.8953190999891,932.8788855999883,,,,,,,,,,,,,,,,,,,,,,932.8889718999999,932.8953190999891,932.8953190999891,932.8953190999891,935.8788604000001,f,1.010861599992495,0.22590459999628365,935.8788923999964,935.8789025000005,None,935.8952996999869,935.8952996999869,935.8952996999869,,,,,,,,,,,,,,00018,001,2025-11-09_10h52.32.840,MST_task,2024.2.2,60.001104019989214,2025-11-09 10h52.40.099259 +0530,
,Scenes\004a.jpg,140,0,140,,,,,j,1.623291000010795,0.20168159999593627,None,,,,,,,140,0,140,0,935.8952996999869,,,,,,,,,,,,,,,,,,,,,,,,,,,,,,935.8789870999899,935.8952996999869,936.4119584,936.3788276999985,,,,,,,,,,,,,,,,,,,,,,936.3935676999972,936.4119584,936.4119584,936.4119584,939.3952569999965,j,1.623291000010795,0.20168159999593627,939.3965098999906,939.3965216999932,None,,,,,,,,,,,,,,,,,00018,001,2025-11-09_10h52.32.840,MST_task,2024.2.2,60.001104019989214,2025-11-09 10h52.40.099259 +0530,
,Scenes\121a.jpg,141,0,141,,,,,j,1.3408043999952497,0.17405450000660494,None,,,,,,,141,0,141,0,939.4118917999876,,,,,,,,,,,,,,,,,,,,,,,,,,,,,,939.3966037999926,939.4118917999876,939.9285413999896,939.8954427999997,,,,,,,,,,,,,,,,,,,,,,939.9080784999969,939.9285413999896,939.9285413999896,939.9285413999896,942.9118268999882,j,1.3408043999952497,0.17405450000660494,942.9118724999862,942.9118827999919,None,,,,,,,,,,,,,,,,,00018,001,2025-11-09_10h52.32.840,MST_task,2024.2.2,60.001104019989214,2025-11-09 10h52.40.099259 +0530,
,Scenes\039a.jpg,142,0,142,,,,,j,1.1546167000051355,0.18185959999391343,None,,,,,,,142,0,142,0,942.9284820999892,,,,,,,,,,,,,,,,,,,,,,,,,,,,,,942.911970599991,942.9284820999892,943.4451313999889,943.4119591999915,,,,,,,,,,,,,,,,,,,,,,943.4228654999897,943.4451313999889,943.4451313999889,943.4451313999889,946.4284066999971,j,1.1546167000051355,0.18185959999391343,946.4284520999936,946.4284625,None,,,,,,,,,,,,,,,,,00018,001,2025-11-09_10h52.32.840,MST_task,2024.2.2,60.001104019989214,2025-11-09 10h52.40.099259 +0530,
,Scenes\021a.jpg,143,0,143,,,,,j,1.750022699998226,0.1671485999977449,None,,,,,,,143,0,143,0,946.4450451999874,,,,,,,,,,,,,,,,,,,,,,,,,,,,,,946.4285545999883,946.4450451999874,946.9617153999861,946.9285855999915,,,,,,,,,,,,,,,,,,,,,,946.9404963999987,946.9617153999861,946.9617153999861,946.9617153999861,949.9450516999932,j,1.750022699998226,0.1671485999977449,949.9450855999894,949.9450985000003,None,,,,,,,,,,,,,,,,,00018,001,2025-11-09_10h52.32.840,MST_task,2024.2.2,60.001104019989214,2025-11-09 10h52.40.099259 +0530,
,Scenes\155a.jpg,144,0,144,,,,,j,1.197716099995887,0.1417524999997113,None,,,,,,,144,0,144,0,949.9616556999972,,,,,,,,,,,,,,,,,,,,,,,,,,,,,,949.9451548999932,949.9616556999972,950.4782865999878,950.4452037999872,,,,,,,,,,,,,,,,,,,,,,950.4568134999863,950.4782865999878,950.4782865999878,950.4782865999878,953.4616079999978,j,1.197716099995887,0.1417524999997113,953.4616410999879,953.4616506999882,None,,,,,,,,,,,,,,,,,00018,001,2025-11-09_10h52.32.840,MST_task,2024.2.2,60.001104019989214,2025-11-09 10h52.40.099259 +0530,
,Scenes\051a.jpg,145,0,145,,,,,j,0.9007475999969756,0.12216869999247137,None,,,,,,,145,0,145,0,953.4782498999994,,,,,,,,,,,,,,,,,,,,,,,,,,,,,,953.4617342999991,953.4782498999994,953.9784664999897,953.9616614999977,,,,,,,,,,,,,,,,,,,,,,953.9708409999876,953.9784664999897,953.9784664999897,953.9784664999897,956.9617867999914,j,0.9007475999969756,0.12216869999247137,956.9618209999899,956.9618314999971,None,956.9781437999918,956.9781437999918,956.9781437999918,,,,,,,,,,,,,,00018,001,2025-11-09_10h52.32.840,MST_task,2024.2.2,60.001104019989214,2025-11-09 10h52.40.099259 +0530,
,Scenes\061a.jpg,146,0,146,,,,,j,1.1047797000064747,0.11775380000472069,None,,,,,,,146,0,146,0,956.9781437999918,,,,,,,,,,,,,,,,,,,,,,,,,,,,,,956.9619184999901,956.9781437999918,957.4783961999929,957.4615252999938,,,,,,,,,,,,,,,,,,,,,,957.4733393999923,957.4783961999929,957.4783961999929,957.4783961999929,960.4616733999865,j,1.1047797000064747,0.11775380000472069,960.4617040999874,960.4617132999992,None,960.4780731999927,960.4780731999927,960.4780731999927,,,,,,,,,,,,,,00018,001,2025-11-09_10h52.32.840,MST_task,2024.2.2,60.001104019989214,2025-11-09 10h52.40.099259 +0530,
,Objects\091a.jpg,147,0,147,,,,,j,2.3160084999981336,0.10878750000847504,None,,,,,,,147,0,147,0,960.4780731999927,,,,,,,,,,,,,,,,,,,,,,,,,,,,,,960.4618069999997,960.4780731999927,960.9780634999915,960.961693899997,,,,,,,,,,,,,,,,,,,,,,960.9729588999908,960.9780634999915,960.9780634999915,960.9780634999915,963.9615824999928,j,2.3160084999981336,0.10878750000847504,963.9630424999923,963.9630536999903,None,963.9780433999986,963.9780433999986,963.9780433999986,,,,,,,,,,,,,,00018,001,2025-11-09_10h52.32.840,MST_task,2024.2.2,60.001104019989214,2025-11-09 10h52.40.099259 +0530,
,Objects\005a.jpg,148,0,148,,,,,f,0.869464200004586,0.2056519999896409,None,,,,,,,148,0,148,0,963.9780433999986,,,,,,,,,,,,,,,,,,,,,,,,,,,,,,963.9631372000003,963.9780433999986,964.4779941999877,964.4614793999936,,,,,,,,,,,,,,,,,,,,,,964.4723550999915,964.4779941999877,964.4779941999877,964.4779941999877,967.461515899995,f,0.869464200004586,0.2056519999896409,967.4615477999905,967.4615575999924,None,967.4779237999901,967.4779237999901,967.4779237999901,,,,,,,,,,,,,,00018,001,2025-11-09_10h52.32.840,MST_task,2024.2.2,60.001104019989214,2025-11-09 10h52.40.099259 +0530,
,Objects\171a.jpg,149,0,149,,,,,j,2.1735981999954674,0.09159510000608861,None,,,,,,,149,0,149,0,967.4779237999901,,,,,,,,,,,,,,,,,,,,,,,,,,,,,,967.4616377999919,967.4779237999901,967.9779143999913,967.9614485999919,,,,,,,,,,,,,,,,,,,,,,967.9712975000002,967.9779143999913,967.9779143999913,967.9779143999913,970.9614433999959,j,2.1735981999954674,0.09159510000608861,970.9614761999983,970.9614861999871,None,970.9778955999936,970.9778955999936,970.9778955999936,,,,,,,,,,,,,,00018,001,2025-11-09_10h52.32.840,MST_task,2024.2.2,60.001104019989214,2025-11-09 10h52.40.099259 +0530,
,Objects\085a.jpg,150,0,150,,,,,j,1.3418756000028225,0.0938188000000082,None,,,,,,,150,0,150,0,970.9778955999936,,,,,,,,,,,,,,,,,,,,,,,,,,,,,,970.9615683999873,970.9778955999936,971.4778685999918,971.4613585999905,,,,,,,,,,,,,,,,,,,,,,971.4725566999987,971.4778685999918,971.4778685999918,971.4778685999918,974.4613679999893,j,1.3418756000028225,0.0938188000000082,974.4614000000001,974.4614097999875,None,974.4778125999874,974.4778125999874,974.4778125999874,,,,,,,,,,,,,,00018,001,2025-11-09_10h52.32.840,MST_task,2024.2.2,60.001104019989214,2025-11-09 10h52.40.099259 +0530,
,Objects\065a.jpg,151,0,151,,,,,j,1.0555678000091575,0.18647129999590106,None,,,,,,,151,0,151,0,974.4778125999874,,,,,,,,,,,,,,,,,,,,,,,,,,,,,,974.4614942999906,974.4778125999874,974.9777571999875,974.9613230999967,,,,,,,,,,,,,,,,,,,,,,974.9711305999954,974.9777571999875,974.9777571999875,974.9777571999875,977.9613378999929,j,1.0555678000091575,0.18647129999590106,977.9613729999983,977.9613833999902,None,977.977733199994,977.977733199994,977.977733199994,,,,,,,,,,,,,,00018,001,2025-11-09_10h52.32.840,MST_task,2024.2.2,60.001104019989214,2025-11-09 10h52.40.099259 +0530,
,Objects\094a.jpg,152,0,152,,,,,f,1.5155815999896731,0.2062121000053594,None,,,,,,,152,0,152,0,977.977733199994,,,,,,,,,,,,,,,,,,,,,,,,,,,,,,977.9614719999954,977.977733199994,978.4776912999951,978.4612788999948,,,,,,,,,,,,,,,,,,,,,,978.4708974999958,978.4776912999951,978.4776912999951,978.4776912999951,981.4612037999905,f,1.5155815999896731,0.2062121000053594,981.4612347999937,981.461243999991,None,981.477662499994,981.477662499994,981.477662499994,,,,,,,,,,,,,,00018,001,2025-11-09_10h52.32.840,MST_task,2024.2.2,60.001104019989214,2025-11-09 10h52.40.099259 +0530,
,Objects\140a.jpg,153,0,153,,,,,j,1.9314794999954756,0.1426318000012543,None,,,,,,,153,0,153,0,981.477662499994,,,,,,,,,,,,,,,,,,,,,,,,,,,,,,981.4613241999905,981.477662499994,981.9776112999971,981.9611880999873,,,,,,,,,,,,,,,,,,,,,,981.9706955999864,981.9776112999971,981.9776112999971,981.9776112999971,984.9612268999917,j,1.9314794999954756,0.1426318000012543,984.961261599994,984.9612722999882,None,984.9777326999902,984.9777326999902,984.9777326999902,,,,,,,,,,,,,,00018,001,2025-11-09_10h52.32.840,MST_task,2024.2.2,60.001104019989214,2025-11-09 10h52.40.099259 +0530,
,Scenes\173a.jpg,154,0,154,,,,,j,0.71883239998715,0.17548420000821352,None,,,,,,,154,0,154,0,984.9777326999902,,,,,,,,,,,,,,,,,,,,,,,,,,,,,,984.961330399994,984.9777326999902,985.4945532999991,985.4611035999988,,,,,,,,,,,,,,,,,,,,,,985.47399269999,985.4945532999991,985.4945532999991,985.4945532999991,988.4775403999956,j,0.71883239998715,0.17548420000821352,988.4788254999876,988.4788371999894,None,,,,,,,,,,,,,,,,,00018,001,2025-11-09_10h52.32.840,MST_task,2024.2.2,60.001104019989214,2025-11-09 10h52.40.099259 +0530,
,Scenes\183a.jpg,155,0,155,,,,,f,1.3567427999951178,0.16563390000374056,None,,,,,,,155,0,155,0,988.4941504999879,,,,,,,,,,,,,,,,,,,,,,,,,,,,,,988.478896399989,988.4941504999879,989.010836299989,988.9776805000001,,,,,,,,,,,,,,,,,,,,,,988.9905128999962,989.010836299989,989.010836299989,989.010836299989,991.9941606999928,f,1.3567427999951178,0.16563390000374056,991.9941967999912,991.9942068999953,None,,,,,,,,,,,,,,,,,00018,001,2025-11-09_10h52.32.840,MST_task,2024.2.2,60.001104019989214,2025-11-09 10h52.40.099259 +0530,
,Scenes\076a.jpg,156,0,156,,,,,j,0.6538863000023412,0.18534399999771267,None,,,,,,,156,0,156,0,992.0107754999917,,,,,,,,,,,,,,,,,,,,,,,,,,,,,,991.9942919999885,992.0107754999917,992.5276744999865,992.4943006999965,,,,,,,,,,,,,,,,,,,,,,992.510343099988,992.5276744999865,992.5276744999865,992.5276744999865,995.5107212000003,j,0.6538863000023412,0.18534399999771267,995.5107576999872,995.510767499989,None,,,,,,,,,,,,,,,,,00018,001,2025-11-09_10h52.32.840,MST_task,2024.2.2,60.001104019989214,2025-11-09 10h52.40.099259 +0530,
,Scenes\037a.jpg,157,0,157,,,,,j,1.3351612999977078,0.37581730000965763,None,,,,,,,157,0,157,0,995.5273383999884,,,,,,,,,,,,,,,,,,,,,,,,,,,,,,995.5108581999957,995.5273383999884,996.0442481999926,996.0109034999914,,,,,,,,,,,,,,,,,,,,,,996.0249731999938,996.0442481999926,996.0442481999926,996.0442481999926,999.0273396999983,j,1.3351612999977078,0.37581730000965763,999.0273759999982,999.0273861999885,None,,,,,,,,,,,,,,,,,00018,001,2025-11-09_10h52.32.840,MST_task,2024.2.2,60.001104019989214,2025-11-09 10h52.40.099259 +0530,
,Scenes\140a.jpg,158,0,158,,,,,j,2.5866027000010945,0.181865899998229,None,,,,,,,158,0,158,0,999.0439142999967,,,,,,,,,,,,,,,,,,,,,,,,,,,,,,999.0274436999898,999.0439142999967,999.5608270999946,999.5274161999987,,,,,,,,,,,,,,,,,,,,,,999.5388908999885,999.5608270999946,999.5608270999946,999.5608270999946,1002.5439190999896,j,2.5866027000010945,0.181865899998229,1002.5439691999927,1002.5439792999969,None,,,,,,,,,,,,,,,,,00018,001,2025-11-09_10h52.32.840,MST_task,2024.2.2,60.001104019989214,2025-11-09 10h52.40.099259 +0530,
,Scenes\157a.jpg,159,0,159,,,,,j,0.6048757000098703,0.17346429999452084,None,,,,,,,159,0,159,0,1002.5605450999865,,,,,,,,,,,,,,,,,,,,,,,,,,,,,,1002.5440667999937,1002.5605450999865,1003.0606624999928,1003.0439786999923,,,,,,,,,,,,,,,,,,,,,,1003.054638799993,1003.0606624999928,1003.0606624999928,1003.0606624999928,1006.0440421999956,j,0.6048757000098703,0.17346429999452084,1006.0440737999888,1006.0440835999907,None,1006.0604656999931,1006.0604656999931,1006.0604656999931,,,,,,,,,,,,,,00018,001,2025-11-09_10h52.32.840,MST_task,2024.2.2,60.001104019989214,2025-11-09 10h52.40.099259 +0530,
,Scenes\192a.jpg,160,0,160,,,,,j,1.2453832000028342,0.1574246999953175,None,,,,,,,160,0,160,0,1006.0604656999931,,,,,,,,,,,,,,,,,,,,,,,,,,,,,,1006.0441676999908,1006.0604656999931,1006.5600758999935,1006.5438558999886,,,,,,,,,,,,,,,,,,,,,,1006.5532980999997,1006.5600758999935,1006.5600758999935,1006.5600758999935,1009.543940699994,j,1.2453832000028342,0.1574246999953175,1009.5439756999986,1009.5439863999927,None,1009.5603679999913,1009.5603679999913,1009.5603679999913,,,,,,,,,,,,,,00018,001,2025-11-09_10h52.32.840,MST_task,2024.2.2,60.001104019989214,2025-11-09 10h52.40.099259 +0530,
,Objects\098a.jpg,161,0,161,,,,,f,2.028880500001833,0.25172240000392776,None,,,,,,,161,0,161,0,1009.5603679999913,,,,,,,,,,,,,,,,,,,,,,,,,,,,,,1009.5440682999906,1009.5603679999913,1010.0605738999875,1010.0439098999923,,,,,,,,,,,,,,,,,,,,,,1010.0550653999962,1010.0605738999875,1010.0605738999875,1010.0605738999875,1013.0439339000004,f,2.028880500001833,0.25172240000392776,1013.0453845999873,1013.0453997999866,None,1013.060318799995,1013.060318799995,1013.060318799995,,,,,,,,,,,,,,00018,001,2025-11-09_10h52.32.840,MST_task,2024.2.2,60.001104019989214,2025-11-09 10h52.40.099259 +0530,
,Objects\117a.jpg,162,0,162,,,,,f,1.2934290999983205,0.21166960000118706,None,,,,,,,162,0,162,0,1013.060318799995,,,,,,,,,,,,,,,,,,,,,,,,,,,,,,1013.0454807999922,1013.060318799995,1013.5602813999867,1013.5438223999954,,,,,,,,,,,,,,,,,,,,,,1013.5540506999969,1013.5602813999867,1013.5602813999867,1013.5602813999867,1016.5438422999869,f,1.2934290999983205,0.21166960000118706,1016.543886399988,1016.5438966999936,None,1016.5602189999918,1016.5602189999918,1016.5602189999918,,,,,,,,,,,,,,00018,001,2025-11-09_10h52.32.840,MST_task,2024.2.2,60.001104019989214,2025-11-09 10h52.40.099259 +0530,
