thisN,thisTrialN,thisRepN,key_resp_3.keys,key_resp_3.rt,key_resp_3.duration,trials.thisRepN,trials.thisTrialN,trials.thisN,trials.thisIndex,thisRow.t,notes,intro_page.started,text.started,key_resp.started,intro_page.stopped,key_resp.keys,key_resp.rt,key_resp.duration,instructions.started,text_2.started,key_resp_2.started,instructions.stopped,key_resp_2.keys,key_resp_2.rt,key_resp_2.duration,demo1.started,image_1.started,image_2.started,text_7.started,key_resp_6.started,text_9.started,demo1.stopped,key_resp_6.keys,key_resp_6.rt,key_resp_6.duration,demo2.started,image_5.started,image_6.started,text_11.started,text_12.started,key_resp_8.started,demo2.stopped,key_resp_8.keys,key_resp_8.rt,key_resp_8.duration,demo_conclusion.started,text_13.started,key_resp_9.started,demo_conclusion.stopped,key_resp_9.keys,key_resp_9.rt,key_resp_9.duration,start_test.started,text_6.started,key_resp_5.started,start_test.stopped,key_resp_5.keys,key_resp_5.rt,key_resp_5.duration,ISI.started,text_4.started,text_4.stopped,ISI.stopped,routine_1.started,image.started,text_3.started,key_resp_3.started,routine_1.stopped,image_path,position_of_stimuli,trials.key_resp_3.keys,trials.key_resp_3.rt,trials.key_resp_3.duration,End_page.started,text_5.started,key_resp_4.started,End_page.stopped,key_resp_4.keys,key_resp_4.rt,key_resp_4.duration,participant,session,date,expName,psychopyVersion,frameRate,expStart,
,,,,,,,,,,,,0.018446699999913108,0.03478040000118199,0.03478040000118199,2.7364764000012656,space,2.6900193999972544,None,,,,,,,,,,,,,,,,,,,,,,,,,,,,,,,,,,,,,,,,,,,,,,,,,,,,,,,,,,,,,,,00017,001,2025-11-08_20h16.49.187,MST_test,2024.2.2,59.98465592514447,2025-11-08 20h16.57.825866 +0530,
,,,,,,,,,,,,,,,,,,,2.7365069999978004,2.7513319999998203,2.7513319999998203,20.56804909999846,space,17.810917300001165,None,,,,,,,,,,,,,,,,,,,,,,,,,,,,,,,,,,,,,,,,,,,,,,,,,,,,,,,,00017,001,2025-11-08_20h16.49.187,MST_test,2024.2.2,59.98465592514447,2025-11-08 20h16.57.825866 +0530,
,,,,,,,,,,,,,,,,,,,,,,,,,,20.568076399998972,20.584303899999213,20.584303899999213,20.584303899999213,20.584303899999213,20.584303899999213,28.63446979999935,space,8.034273299999768,None,,,,,,,,,,,,,,,,,,,,,,,,,,,,,,,,,,,,,,,,,,,,,,00017,001,2025-11-08_20h16.49.187,MST_test,2024.2.2,59.98465592514447,2025-11-08 20h16.57.825866 +0530,
,,,,,,,,,,,,,,,,,,,,,,,,,,,,,,,,,,,,28.634496200000285,28.65080229999876,28.65080229999876,28.65080229999876,28.65080229999876,28.65080229999876,40.48430680000092,space,11.831371799999033,None,,,,,,,,,,,,,,,,,,,,,,,,,,,,,,,,,,,,00017,001,2025-11-08_20h16.49.187,MST_test,2024.2.2,59.98465592514447,2025-11-08 20h16.57.825866 +0530,
,,,,,,,,,,,,,,,,,,,,,,,,,,,,,,,,,,,,,,,,,,,,,,40.484329300001264,40.500540799999726,40.500540799999726,72.1334872999978,space,31.62031560000105,None,,,,,,,,,,,,,,,,,,,,,,,,,,,,,00017,001,2025-11-08_20h16.49.187,MST_test,2024.2.2,59.98465592514447,2025-11-08 20h16.57.825866 +0530,
,,,,,,,,,,,,,,,,,,,,,,,,,,,,,,,,,,,,,,,,,,,,,,,,,,,,,72.13351759999932,72.14984790000017,72.14984790000017,97.8330423999978,space,25.68253520000144,None,,,,,,,,,,,,,,,,,,,,,,00017,001,2025-11-08_20h16.49.187,MST_test,2024.2.2,59.98465592514447,2025-11-08 20h16.57.825866 +0530,
0,0,0,s,41.66510040000139,None,0,0,0,0,97.84926629999973,,,,,,,,,,,,,,,,,,,,,,,,,,,,,,,,,,,,,,,,,,,,,,,,,,97.83620729999893,97.84926629999973,98.34939920000033,98.33283740000115,98.34075409999787,98.34939920000033,98.34939920000033,98.34939920000033,140.01547449999998,Objects\119a.jpg,mid,s,41.66510040000139,None,,,,,,,,00017,001,2025-11-08_20h16.49.187,MST_test,2024.2.2,59.98465592514447,2025-11-08 20h16.57.825866 +0530,
1,0,1,o,1.251900499999465,None,1,0,1,0,140.03167159999794,,,,,,,,,,,,,,,,,,,,,,,,,,,,,,,,,,,,,,,,,,,,,,,,,,140.01557319999847,140.03167159999794,140.54853469999944,140.5152503999998,140.52719090000028,140.54853469999944,140.54853469999944,140.54853469999944,141.8154241000011,Scenes\141a.jpg,pre,o,1.251900499999465,None,,,,,,,,00017,001,2025-11-08_20h16.49.187,MST_test,2024.2.2,59.98465592514447,2025-11-08 20h16.57.825866 +0530,
2,0,2,s,3.7752116000010574,None,2,0,2,0,141.8316324999978,,,,,,,,,,,,,,,,,,,,,,,,,,,,,,,,,,,,,,,,,,,,,,,,,,141.81551539999782,141.8316324999978,142.3316182999988,142.31517320000057,142.32519479999974,142.3316182999988,142.3316182999988,142.3316182999988,146.11523849999867,Objects\049a.jpg,mid,s,3.7752116000010574,None,,,,,,,,00017,001,2025-11-08_20h16.49.187,MST_test,2024.2.2,59.98465592514447,2025-11-08 20h16.57.825866 +0530,
3,0,3,o,1.4444934999992256,None,3,0,3,0,146.1315355000006,,,,,,,,,,,,,,,,,,,,,,,,,,,,,,,,,,,,,,,,,,,,,,,,,,146.11532129999978,146.1315355000006,146.63151839999773,146.61504280000008,146.6248588999988,146.63151839999773,146.63151839999773,146.63151839999773,148.08179999999993,Objects\106a.jpg,pre,o,1.4444934999992256,None,,,,,,,,00017,001,2025-11-08_20h16.49.187,MST_test,2024.2.2,59.98465592514447,2025-11-08 20h16.57.825866 +0530,
4,0,4,n,2.396094700001413,None,4,0,4,0,148.09818720000112,,,,,,,,,,,,,,,,,,,,,,,,,,,,,,,,,,,,,,,,,,,,,,,,,,148.0818842999979,148.09818720000112,148.59815080000044,148.5816214999977,148.59129929999835,148.59815080000044,148.59815080000044,148.59815080000044,150.99863059999916,Foils\058a.jpg,none,n,2.396094700001413,None,,,,,,,,00017,001,2025-11-08_20h16.49.187,MST_test,2024.2.2,59.98465592514447,2025-11-08 20h16.57.825866 +0530,
5,0,5,o,2.125146300000779,None,5,0,5,0,151.0148322999994,,,,,,,,,,,,,,,,,,,,,,,,,,,,,,,,,,,,,,,,,,,,,,,,,,150.99871210000128,151.0148322999994,151.51479420000032,151.49840349999795,151.5084551,151.51479420000032,151.51479420000032,151.51479420000032,153.64831559999948,Objects\121a.jpg,post,o,2.125146300000779,None,,,,,,,,00017,001,2025-11-08_20h16.49.187,MST_test,2024.2.2,59.98465592514447,2025-11-08 20h16.57.825866 +0530,
6,0,6,o,2.3807703999991645,None,6,0,6,0,153.66474150000067,,,,,,,,,,,,,,,,,,,,,,,,,,,,,,,,,,,,,,,,,,,,,,,,,,153.6484023999983,153.66474150000067,154.1814130999992,154.1482833000009,154.16148170000088,154.1814130999992,154.1814130999992,154.1814130999992,156.5651027999993,Scenes\041a.jpg,post,o,2.3807703999991645,None,,,,,,,,00017,001,2025-11-08_20h16.49.187,MST_test,2024.2.2,59.98465592514447,2025-11-08 20h16.57.825866 +0530,
7,0,7,o,1.1715084000024945,None,7,0,7,0,156.5813417999998,,,,,,,,,,,,,,,,,,,,,,,,,,,,,,,,,,,,,,,,,,,,,,,,,,156.56518439999854,156.5813417999998,157.08129909999843,157.06481300000087,157.07605519999925,157.08129909999843,157.08129909999843,157.08129909999843,158.26497839999865,Objects\066a.jpg,mid,o,1.1715084000024945,None,,,,,,,,00017,001,2025-11-08_20h16.49.187,MST_test,2024.2.2,59.98465592514447,2025-11-08 20h16.57.825866 +0530,
8,0,8,s,1.8799244000001636,None,8,0,8,0,158.28133569999773,,,,,,,,,,,,,,,,,,,,,,,,,,,,,,,,,,,,,,,,,,,,,,,,,,158.26505949999773,158.28133569999773,158.81459320000067,158.7648014999977,158.7987835999993,158.81459320000067,158.81459320000067,158.81459320000067,160.69824479999806,Objects\083b.jpg,mid,s,1.8799244000001636,None,,,,,,,,00017,001,2025-11-08_20h16.49.187,MST_test,2024.2.2,59.98465592514447,2025-11-08 20h16.57.825866 +0530,
9,0,9,n,1.4880153000012797,None,9,0,9,0,160.71458970000094,,,,,,,,,,,,,,,,,,,,,,,,,,,,,,,,,,,,,,,,,,,,,,,,,,160.69833440000002,160.71458970000094,161.21459780000077,161.19812489999822,161.2078830999999,161.21459780000077,161.21459780000077,161.21459780000077,162.71491479999895,Objects\173b.jpg,pre,n,1.4880153000012797,None,,,,,,,,00017,001,2025-11-08_20h16.49.187,MST_test,2024.2.2,59.98465592514447,2025-11-08 20h16.57.825866 +0530,
10,0,10,s,2.265446099998371,None,10,0,10,0,162.7312051000008,,,,,,,,,,,,,,,,,,,,,,,,,,,,,,,,,,,,,,,,,,,,,,,,,,162.71499779999795,162.7312051000008,163.23120689999996,163.21475609999834,163.22465509999893,163.23120689999996,163.23120689999996,163.23120689999996,165.49820510000063,Objects\018b.jpg,mid,s,2.265446099998371,None,,,,,,,,00017,001,2025-11-08_20h16.49.187,MST_test,2024.2.2,59.98465592514447,2025-11-08 20h16.57.825866 +0530,
11,0,11,s,5.481123500001559,None,11,0,11,0,165.5144681999991,,,,,,,,,,,,,,,,,,,,,,,,,,,,,,,,,,,,,,,,,,,,,,,,,,165.4982816999982,165.5144681999991,166.03112640000109,165.99805429999833,166.0095665000008,166.03112640000109,166.03112640000109,166.03112640000109,171.51461980000022,Scenes\083a.jpg,mid,s,5.481123500001559,None,,,,,,,,00017,001,2025-11-08_20h16.49.187,MST_test,2024.2.2,59.98465592514447,2025-11-08 20h16.57.825866 +0530,
12,0,12,s,3.688285199998063,None,12,0,12,0,171.53101249999963,,,,,,,,,,,,,,,,,,,,,,,,,,,,,,,,,,,,,,,,,,,,,,,,,,171.5147016999981,171.53101249999963,172.0476635999985,172.01455250000072,172.0282033000003,172.0476635999985,172.0476635999985,172.0476635999985,175.7479005999994,Scenes\128a.jpg,mid,s,3.688285199998063,None,,,,,,,,00017,001,2025-11-08_20h16.49.187,MST_test,2024.2.2,59.98465592514447,2025-11-08 20h16.57.825866 +0530,
13,0,13,s,4.401143899998715,None,13,0,13,0,175.76425860000018,,,,,,,,,,,,,,,,,,,,,,,,,,,,,,,,,,,,,,,,,,,,,,,,,,175.74797599999874,175.76425860000018,176.2809034999991,176.24784979999822,176.2734797999983,176.2809034999991,176.2809034999991,176.2809034999991,180.69780159999937,Foils\065a.jpg,none,s,4.401143899998715,None,,,,,,,,00017,001,2025-11-08_20h16.49.187,MST_test,2024.2.2,59.98465592514447,2025-11-08 20h16.57.825866 +0530,
14,0,14,n,2.0717375999993237,None,14,0,14,0,180.71415699999852,,,,,,,,,,,,,,,,,,,,,,,,,,,,,,,,,,,,,,,,,,,,,,,,,,180.69789780000065,180.71415699999852,181.23081739999907,181.19766349999918,181.21433500000057,181.23081739999907,181.23081739999907,181.23081739999907,183.31435240000064,Foils\010a.jpg,none,n,2.0717375999993237,None,,,,,,,,00017,001,2025-11-08_20h16.49.187,MST_test,2024.2.2,59.98465592514447,2025-11-08 20h16.57.825866 +0530,
15,0,15,n,4.837500299996464,None,15,0,15,0,183.3307199999981,,,,,,,,,,,,,,,,,,,,,,,,,,,,,,,,,,,,,,,,,,,,,,,,,,183.31442759999845,183.3307199999981,183.8307352999982,183.8142356999997,183.82414779999817,183.8307352999982,183.8307352999982,183.8307352999982,188.6809678999998,Objects\038a.jpg,pre,n,4.837500299996464,None,,,,,,,,00017,001,2025-11-08_20h16.49.187,MST_test,2024.2.2,59.98465592514447,2025-11-08 20h16.57.825866 +0530,
16,0,16,s,2.042841500002396,None,16,0,16,0,188.69731049999973,,,,,,,,,,,,,,,,,,,,,,,,,,,,,,,,,,,,,,,,,,,,,,,,,,188.68104740000126,188.69731049999973,189.21392619999824,189.18097230000058,189.19388479999907,189.21392619999824,189.21392619999824,189.21392619999824,191.26426659999925,Scenes\063a.jpg,post,s,2.042841500002396,None,,,,,,,,00017,001,2025-11-08_20h16.49.187,MST_test,2024.2.2,59.98465592514447,2025-11-08 20h16.57.825866 +0530,
17,0,17,s,1.4070060000012745,None,17,0,17,0,191.2805855000006,,,,,,,,,,,,,,,,,,,,,,,,,,,,,,,,,,,,,,,,,,,,,,,,,,191.2643422000001,191.2805855000006,191.7972109000002,191.76405629999863,191.78592629999912,191.7972109000002,191.7972109000002,191.7972109000002,193.2141350999991,Scenes\179b.jpg,post,s,1.4070060000012745,None,,,,,,,,00017,001,2025-11-08_20h16.49.187,MST_test,2024.2.2,59.98465592514447,2025-11-08 20h16.57.825866 +0530,
18,0,18,o,3.694681799999671,None,18,0,18,0,193.23053629999777,,,,,,,,,,,,,,,,,,,,,,,,,,,,,,,,,,,,,,,,,,,,,,,,,,193.21421629999895,193.23053629999777,193.73037509999995,193.71401390000028,193.7243500000004,193.73037509999995,193.73037509999995,193.73037509999995,197.4308072999993,Scenes\044b.jpg,post,o,3.694681799999671,None,,,,,,,,00017,001,2025-11-08_20h16.49.187,MST_test,2024.2.2,59.98465592514447,2025-11-08 20h16.57.825866 +0530,
19,0,19,o,1.0365018000011332,None,19,0,19,0,197.44715200000064,,,,,,,,,,,,,,,,,,,,,,,,,,,,,,,,,,,,,,,,,,,,,,,,,,197.4308835999982,197.44715200000064,197.96394040000087,197.9307301000008,197.94347930000004,197.96394040000087,197.96394040000087,197.96394040000087,199.01414099999965,Scenes\013a.jpg,pre,o,1.0365018000011332,None,,,,,,,,00017,001,2025-11-08_20h16.49.187,MST_test,2024.2.2,59.98465592514447,2025-11-08 20h16.57.825866 +0530,
20,0,20,o,1.9075689999990573,None,20,0,20,0,199.03041049999956,,,,,,,,,,,,,,,,,,,,,,,,,,,,,,,,,,,,,,,,,,,,,,,,,,199.01422269999966,199.03041049999956,199.53053409999848,199.51388510000106,199.5245203000013,199.53053409999848,199.53053409999848,199.53053409999848,201.44729039999947,Objects\028b.jpg,mid,o,1.9075689999990573,None,,,,,,,,00017,001,2025-11-08_20h16.49.187,MST_test,2024.2.2,59.98465592514447,2025-11-08 20h16.57.825866 +0530,
21,0,21,o,2.5924865000015416,None,21,0,21,0,201.46368910000092,,,,,,,,,,,,,,,,,,,,,,,,,,,,,,,,,,,,,,,,,,,,,,,,,,201.44737090000126,201.46368910000092,201.96365220000007,201.94730830000117,201.95897909999985,201.96365220000007,201.96365220000007,201.96365220000007,204.56391729999814,Objects\014a.jpg,mid,o,2.5924865000015416,None,,,,,,,,00017,001,2025-11-08_20h16.49.187,MST_test,2024.2.2,59.98465592514447,2025-11-08 20h16.57.825866 +0530,
22,0,22,o,2.1097249000013107,None,22,0,22,0,204.58025759999873,,,,,,,,,,,,,,,,,,,,,,,,,,,,,,,,,,,,,,,,,,,,,,,,,,204.5639994000012,204.58025759999873,205.08024659999865,205.0637672999983,205.0737401999977,205.08024659999865,205.08024659999865,205.08024659999865,207.19718469999862,Objects\188a.jpg,mid,o,2.1097249000013107,None,,,,,,,,00017,001,2025-11-08_20h16.49.187,MST_test,2024.2.2,59.98465592514447,2025-11-08 20h16.57.825866 +0530,
23,0,23,n,4.9743549000013445,None,23,0,23,0,207.21355929999845,,,,,,,,,,,,,,,,,,,,,,,,,,,,,,,,,,,,,,,,,,,,,,,,,,207.197273400001,207.21355929999845,207.96395219999977,207.6970669000002,207.93781339999987,207.96395219999977,207.96395219999977,207.96395219999977,212.94707189999826,Foils\scenes26.jpg,none,n,4.9743549000013445,None,,,,,,,,00017,001,2025-11-08_20h16.49.187,MST_test,2024.2.2,59.98465592514447,2025-11-08 20h16.57.825866 +0530,
24,0,24,o,1.7100327999978617,None,24,0,24,0,212.96343849999903,,,,,,,,,,,,,,,,,,,,,,,,,,,,,,,,,,,,,,,,,,,,,,,,,,212.94716899999912,212.96343849999903,213.48037929999919,213.44691539999985,213.47242769999866,213.48037929999919,213.48037929999919,213.48037929999919,215.19696919999842,Scenes\047a.jpg,pre,o,1.7100327999978617,None,,,,,,,,00017,001,2025-11-08_20h16.49.187,MST_test,2024.2.2,59.98465592514447,2025-11-08 20h16.57.825866 +0530,
25,0,25,o,1.3461895000000368,None,25,0,25,0,215.2133990000002,,,,,,,,,,,,,,,,,,,,,,,,,,,,,,,,,,,,,,,,,,,,,,,,,,215.1970528999991,215.2133990000002,215.73027699999875,215.69686079999883,215.71793629999956,215.73027699999875,215.73027699999875,215.73027699999875,217.0804352999985,Scenes\071a.jpg,post,o,1.3461895000000368,None,,,,,,,,00017,001,2025-11-08_20h16.49.187,MST_test,2024.2.2,59.98465592514447,2025-11-08 20h16.57.825866 +0530,
26,0,26,o,2.8695602000007057,None,26,0,26,0,217.0966956000011,,,,,,,,,,,,,,,,,,,,,,,,,,,,,,,,,,,,,,,,,,,,,,,,,,217.0805212999985,217.0966956000011,217.5969871999987,217.58015009999872,217.59027200000128,217.5969871999987,217.5969871999987,217.5969871999987,220.4802133000012,Objects\151a.jpg,mid,o,2.8695602000007057,None,,,,,,,,00017,001,2025-11-08_20h16.49.187,MST_test,2024.2.2,59.98465592514447,2025-11-08 20h16.57.825866 +0530,
27,0,27,n,3.2308545999985654,None,27,0,27,0,220.49658500000078,,,,,,,,,,,,,,,,,,,,,,,,,,,,,,,,,,,,,,,,,,,,,,,,,,220.48029029999816,220.49658500000078,220.99677489999885,220.98025309999866,220.9865968999984,220.99677489999885,220.99677489999885,220.99677489999885,224.23024090000035,Foils\scenes5.jpg,none,n,3.2308545999985654,None,,,,,,,,00017,001,2025-11-08_20h16.49.187,MST_test,2024.2.2,59.98465592514447,2025-11-08 20h16.57.825866 +0530,
28,0,28,o,3.1486121000016283,None,28,0,28,0,224.24656849999883,,,,,,,,,,,,,,,,,,,,,,,,,,,,,,,,,,,,,,,,,,,,,,,,,,224.23033170000053,224.24656849999883,224.76342469999872,224.7300065999989,224.75124829999913,224.76342469999872,224.76342469999872,224.76342469999872,227.9134539000006,Scenes\004a.jpg,pre,o,3.1486121000016283,None,,,,,,,,00017,001,2025-11-08_20h16.49.187,MST_test,2024.2.2,59.98465592514447,2025-11-08 20h16.57.825866 +0530,
29,0,29,o,1.6700400999980047,None,29,0,29,0,227.92981040000086,,,,,,,,,,,,,,,,,,,,,,,,,,,,,,,,,,,,,,,,,,,,,,,,,,227.91354099999808,227.92981040000086,228.42995510000037,228.41331189999983,228.42208599999867,228.42995510000037,228.42995510000037,228.42995510000037,230.11343800000031,Scenes\097a.jpg,post,o,1.6700400999980047,None,,,,,,,,00017,001,2025-11-08_20h16.49.187,MST_test,2024.2.2,59.98465592514447,2025-11-08 20h16.57.825866 +0530,
30,0,30,n,5.472891299999901,None,30,0,30,0,230.1298072999998,,,,,,,,,,,,,,,,,,,,,,,,,,,,,,,,,,,,,,,,,,,,,,,,,,230.11352160000024,230.1298072999998,230.67996080000012,230.61321469999893,230.66552740000043,230.67996080000012,230.67996080000012,230.67996080000012,236.163203600001,Scenes\025b.jpg,pre,n,5.472891299999901,None,,,,,,,,00017,001,2025-11-08_20h16.49.187,MST_test,2024.2.2,59.98465592514447,2025-11-08 20h16.57.825866 +0530,
31,0,31,n,1.783168600002682,None,31,0,31,0,236.17959139999948,,,,,,,,,,,,,,,,,,,,,,,,,,,,,,,,,,,,,,,,,,,,,,,,,,236.16328430000067,236.17959139999948,236.6965057999987,236.66310149999845,236.68024090000108,236.6965057999987,236.6965057999987,236.6965057999987,238.4800808,Foils\090a.jpg,none,n,1.783168600002682,None,,,,,,,,00017,001,2025-11-08_20h16.49.187,MST_test,2024.2.2,59.98465592514447,2025-11-08 20h16.57.825866 +0530,
32,0,32,o,1.435842099999718,None,32,0,32,0,238.49622610000006,,,,,,,,,,,,,,,,,,,,,,,,,,,,,,,,,,,,,,,,,,,,,,,,,,238.48016540000026,238.49622610000006,239.01284139999916,238.9797037999997,239.00532960000055,239.01284139999916,239.01284139999916,239.01284139999916,240.46316540000043,Objects\146b.jpg,post,o,1.435842099999718,None,,,,,,,,00017,001,2025-11-08_20h16.49.187,MST_test,2024.2.2,59.98465592514447,2025-11-08 20h16.57.825866 +0530,
33,0,33,o,2.809214000000793,None,33,0,33,0,240.47951349999857,,,,,,,,,,,,,,,,,,,,,,,,,,,,,,,,,,,,,,,,,,,,,,,,,,240.46325629999774,240.47951349999857,240.9966099000012,240.96313409999857,240.98333469999852,240.9966099000012,240.9966099000012,240.9966099000012,243.81308720000015,Scenes\150a.jpg,post,o,2.809214000000793,None,,,,,,,,00017,001,2025-11-08_20h16.49.187,MST_test,2024.2.2,59.98465592514447,2025-11-08 20h16.57.825866 +0530,
34,0,34,o,0.9257983999996213,None,34,0,34,0,243.82941260000007,,,,,,,,,,,,,,,,,,,,,,,,,,,,,,,,,,,,,,,,,,,,,,,,,,243.8131680000006,243.82941260000007,244.3627508999998,244.31297559999803,244.3458834999983,244.3627508999998,244.3627508999998,244.3627508999998,245.29636839999876,Objects\135b.jpg,mid,o,0.9257983999996213,None,,,,,,,,00017,001,2025-11-08_20h16.49.187,MST_test,2024.2.2,59.98465592514447,2025-11-08 20h16.57.825866 +0530,
35,0,35,n,4.27320310000141,None,35,0,35,0,245.31273389999842,,,,,,,,,,,,,,,,,,,,,,,,,,,,,,,,,,,,,,,,,,,,,,,,,,245.29644610000105,245.31273389999842,245.82938939999804,245.79623609999908,245.82040549999874,245.82938939999804,245.82938939999804,245.82938939999804,250.11296239999865,Foils\081a.jpg,none,n,4.27320310000141,None,,,,,,,,00017,001,2025-11-08_20h16.49.187,MST_test,2024.2.2,59.98465592514447,2025-11-08 20h16.57.825866 +0530,
36,0,36,s,3.0728119000013976,None,36,0,36,0,250.12930369999958,,,,,,,,,,,,,,,,,,,,,,,,,,,,,,,,,,,,,,,,,,,,,,,,,,250.1130396999979,250.12930369999958,250.62957169999936,250.6128777999984,250.61921439999787,250.62957169999936,250.62957169999936,250.62957169999936,253.71285830000124,Foils\scenes13.jpg,none,s,3.0728119000013976,None,,,,,,,,00017,001,2025-11-08_20h16.49.187,MST_test,2024.2.2,59.98465592514447,2025-11-08 20h16.57.825866 +0530,
37,0,37,s,0.8478237000017543,None,37,0,37,0,253.72922839999956,,,,,,,,,,,,,,,,,,,,,,,,,,,,,,,,,,,,,,,,,,,,,,,,,,253.7129419999983,253.72922839999956,254.26280570000017,254.21270019999793,254.25241240000105,254.26280570000017,254.26280570000017,254.26280570000017,255.1128349999999,Scenes\189b.jpg,post,s,0.8478237000017543,None,,,,,,,,00017,001,2025-11-08_20h16.49.187,MST_test,2024.2.2,59.98465592514447,2025-11-08 20h16.57.825866 +0530,
38,0,38,n,1.7465393000020413,None,38,0,38,0,255.12918929999796,,,,,,,,,,,,,,,,,,,,,,,,,,,,,,,,,,,,,,,,,,,,,,,,,,255.11291039999924,255.12918929999796,255.67947699999786,255.61277699999846,255.67166749999888,255.67947699999786,255.67947699999786,255.67947699999786,257.42974400000094,Foils\scenes22.jpg,none,n,1.7465393000020413,None,,,,,,,,00017,001,2025-11-08_20h16.49.187,MST_test,2024.2.2,59.98465592514447,2025-11-08 20h16.57.825866 +0530,
39,0,39,o,2.21750250000332,None,39,0,39,0,257.4459165999979,,,,,,,,,,,,,,,,,,,,,,,,,,,,,,,,,,,,,,,,,,,,,,,,,,257.4298352000005,257.4459165999979,257.96270110000114,257.9294106999987,257.9503842000013,257.96270110000114,257.96270110000114,257.96270110000114,260.1960877999991,Objects\043b.jpg,post,o,2.21750250000332,None,,,,,,,,00017,001,2025-11-08_20h16.49.187,MST_test,2024.2.2,59.98465592514447,2025-11-08 20h16.57.825866 +0530,
40,0,40,s,4.316955900001631,None,40,0,40,0,260.2124197999983,,,,,,,,,,,,,,,,,,,,,,,,,,,,,,,,,,,,,,,,,,,,,,,,,,260.19616529999985,260.2124197999983,260.72931609999796,260.6959315999993,260.7137832999979,260.72931609999796,260.72931609999796,260.72931609999796,265.0626620000003,Scenes\069a.jpg,post,s,4.316955900001631,None,,,,,,,,00017,001,2025-11-08_20h16.49.187,MST_test,2024.2.2,59.98465592514447,2025-11-08 20h16.57.825866 +0530,
41,0,41,o,4.289356299999781,None,41,0,41,0,265.07897899999807,,,,,,,,,,,,,,,,,,,,,,,,,,,,,,,,,,,,,,,,,,,,,,,,,,265.062742099999,265.07897899999807,265.59559770000124,265.5624917999994,265.5803539999979,265.59559770000124,265.59559770000124,265.59559770000124,269.8957785999992,Scenes\132a.jpg,mid,o,4.289356299999781,None,,,,,,,,00017,001,2025-11-08_20h16.49.187,MST_test,2024.2.2,59.98465592514447,2025-11-08 20h16.57.825866 +0530,
42,0,42,o,1.0154693000004045,None,42,0,42,0,269.9122037999987,,,,,,,,,,,,,,,,,,,,,,,,,,,,,,,,,,,,,,,,,,,,,,,,,,269.89586469999995,269.9122037999987,270.42907990000094,270.39573799999926,270.41341850000026,270.42907990000094,270.42907990000094,270.42907990000094,271.4459433999982,Scenes\186a.jpg,mid,o,1.0154693000004045,None,,,,,,,,00017,001,2025-11-08_20h16.49.187,MST_test,2024.2.2,59.98465592514447,2025-11-08 20h16.57.825866 +0530,
43,0,43,n,1.6871851999967475,None,43,0,43,0,271.46216699999786,,,,,,,,,,,,,,,,,,,,,,,,,,,,,,,,,,,,,,,,,,,,,,,,,,271.4460156999994,271.46216699999786,272.12901480000073,271.94565090000106,272.1138604000007,272.12901480000073,272.12901480000073,272.12901480000073,273.829200199998,Foils\scenes25.jpg,none,n,1.6871851999967475,None,,,,,,,,00017,001,2025-11-08_20h16.49.187,MST_test,2024.2.2,59.98465592514447,2025-11-08 20h16.57.825866 +0530,
44,0,44,n,1.5796646999988297,None,44,0,44,0,273.84547589999784,,,,,,,,,,,,,,,,,,,,,,,,,,,,,,,,,,,,,,,,,,,,,,,,,,273.8292809000013,273.84547589999784,274.34523949999857,274.32902710000053,274.3415724000006,274.34523949999857,274.34523949999857,274.34523949999857,275.9290144000006,Objects\061a.jpg,post,n,1.5796646999988297,None,,,,,,,,00017,001,2025-11-08_20h16.49.187,MST_test,2024.2.2,59.98465592514447,2025-11-08 20h16.57.825866 +0530,
45,0,45,o,1.672631099998398,None,45,0,45,0,275.9454033000002,,,,,,,,,,,,,,,,,,,,,,,,,,,,,,,,,,,,,,,,,,,,,,,,,,275.9290915999991,275.9454033000002,276.46227440000075,276.4289882999983,276.4475319000012,276.46227440000075,276.46227440000075,276.46227440000075,278.14575649999824,Scenes\049a.jpg,mid,o,1.672631099998398,None,,,,,,,,00017,001,2025-11-08_20h16.49.187,MST_test,2024.2.2,59.98465592514447,2025-11-08 20h16.57.825866 +0530,
46,0,46,s,2.190953899997112,None,46,0,46,0,278.16201119999823,,,,,,,,,,,,,,,,,,,,,,,,,,,,,,,,,,,,,,,,,,,,,,,,,,278.14584549999927,278.16201119999823,278.69531279999865,278.64551969999957,278.6793121999981,278.69531279999865,278.69531279999865,278.69531279999865,280.89564379999865,Scenes\144b.jpg,post,s,2.190953899997112,None,,,,,,,,00017,001,2025-11-08_20h16.49.187,MST_test,2024.2.2,59.98465592514447,2025-11-08 20h16.57.825866 +0530,
47,0,47,o,1.7914823000028264,None,47,0,47,0,280.91197029999967,,,,,,,,,,,,,,,,,,,,,,,,,,,,,,,,,,,,,,,,,,,,,,,,,,280.89572159999807,280.91197029999967,281.42858630000046,281.3954847999994,281.41846369999985,281.42858630000046,281.42858630000046,281.42858630000046,283.22889829999986,Objects\026b.jpg,post,o,1.7914823000028264,None,,,,,,,,00017,001,2025-11-08_20h16.49.187,MST_test,2024.2.2,59.98465592514447,2025-11-08 20h16.57.825866 +0530,
48,0,48,o,2.5750974000002316,None,48,0,48,0,283.2452540999984,,,,,,,,,,,,,,,,,,,,,,,,,,,,,,,,,,,,,,,,,,,,,,,,,,283.22899289999987,283.2452540999984,283.7621029000002,283.72873809999874,283.756063599998,283.7621029000002,283.7621029000002,283.7621029000002,286.345505199999,Scenes\076a.jpg,post,o,2.5750974000002316,None,,,,,,,,00017,001,2025-11-08_20h16.49.187,MST_test,2024.2.2,59.98465592514447,2025-11-08 20h16.57.825866 +0530,
49,0,49,o,1.1364990000001853,None,49,0,49,0,286.36184140000114,,,,,,,,,,,,,,,,,,,,,,,,,,,,,,,,,,,,,,,,,,,,,,,,,,286.34558860000107,286.36184140000114,286.8617994999986,286.8454500000007,286.8557084999993,286.8617994999986,286.8617994999986,286.8617994999986,288.0120528999978,Objects\046a.jpg,mid,o,1.1364990000001853,None,,,,,,,,00017,001,2025-11-08_20h16.49.187,MST_test,2024.2.2,59.98465592514447,2025-11-08 20h16.57.825866 +0530,
50,0,50,n,4.704704800002219,None,50,0,50,0,288.0284776999979,,,,,,,,,,,,,,,,,,,,,,,,,,,,,,,,,,,,,,,,,,,,,,,,,,288.01213669999925,288.0284776999979,288.5454200999993,288.5120457999983,288.53529309999794,288.5454200999993,288.5454200999993,288.5454200999993,293.2619479999994,Scenes\169b.jpg,pre,n,4.704704800002219,None,,,,,,,,00017,001,2025-11-08_20h16.49.187,MST_test,2024.2.2,59.98465592514447,2025-11-08 20h16.57.825866 +0530,
51,0,51,n,3.1582861999995657,None,51,0,51,0,293.27835419999974,,,,,,,,,,,,,,,,,,,,,,,,,,,,,,,,,,,,,,,,,,,,,,,,,,293.2620332000006,293.27835419999974,293.77851309999824,293.7618795999988,293.769252099999,293.77851309999824,293.77851309999824,293.77851309999824,296.9452788999988,Foils\scenes20.jpg,none,n,3.1582861999995657,None,,,,,,,,00017,001,2025-11-08_20h16.49.187,MST_test,2024.2.2,59.98465592514447,2025-11-08 20h16.57.825866 +0530,
52,0,52,n,3.5988360999981523,None,52,0,52,0,296.9616120999999,,,,,,,,,,,,,,,,,,,,,,,,,,,,,,,,,,,,,,,,,,,,,,,,,,296.9453582999995,296.9616120999999,297.4951900999986,297.4451243000003,297.4840213999996,297.4951900999986,297.4951900999986,297.4951900999986,301.09524070000043,Foils\scenes23.jpg,none,n,3.5988360999981523,None,,,,,,,,00017,001,2025-11-08_20h16.49.187,MST_test,2024.2.2,59.98465592514447,2025-11-08 20h16.57.825866 +0530,
53,0,53,s,2.414492899999459,None,53,0,53,0,301.1116894000006,,,,,,,,,,,,,,,,,,,,,,,,,,,,,,,,,,,,,,,,,,,,,,,,,,301.09532519999993,301.1116894000006,301.6284689999993,301.59510600000067,301.61283510000067,301.6284689999993,301.6284689999993,301.6284689999993,304.0452397000008,Foils\073a.jpg,none,s,2.414492899999459,None,,,,,,,,00017,001,2025-11-08_20h16.49.187,MST_test,2024.2.2,59.98465592514447,2025-11-08 20h16.57.825866 +0530,
54,0,54,n,5.284688100000494,None,54,0,54,0,304.0615503000008,,,,,,,,,,,,,,,,,,,,,,,,,,,,,,,,,,,,,,,,,,,,,,,,,,304.0453336999999,304.0615503000008,304.5781774999996,304.54502890000003,304.56934080000065,304.5781774999996,304.5781774999996,304.5781774999996,309.8783549,Foils\097a.jpg,none,n,5.284688100000494,None,,,,,,,,00017,001,2025-11-08_20h16.49.187,MST_test,2024.2.2,59.98465592514447,2025-11-08 20h16.57.825866 +0530,
55,0,55,s,7.01354419999916,None,55,0,55,0,309.8947908000009,,,,,,,,,,,,,,,,,,,,,,,,,,,,,,,,,,,,,,,,,,,,,,,,,,309.87843729999804,309.8947908000009,310.3953896999992,310.37827169999946,310.3879753000001,310.3953896999992,310.3953896999992,310.3953896999992,317.4115123999982,Objects\161a.jpg,mid,s,7.01354419999916,None,,,,,,,,00017,001,2025-11-08_20h16.49.187,MST_test,2024.2.2,59.98465592514447,2025-11-08 20h16.57.825866 +0530,
56,0,56,n,1.2575066999997944,None,56,0,56,0,317.4279261999982,,,,,,,,,,,,,,,,,,,,,,,,,,,,,,,,,,,,,,,,,,,,,,,,,,317.411597899998,317.4279261999982,317.9447677999997,317.91143440000087,317.9369067999978,317.9447677999997,317.9447677999997,317.9447677999997,319.2115855000011,Scenes\167b.jpg,mid,n,1.2575066999997944,None,,,,,,,,00017,001,2025-11-08_20h16.49.187,MST_test,2024.2.2,59.98465592514447,2025-11-08 20h16.57.825866 +0530,
57,0,57,n,1.9063468999993347,None,57,0,57,0,319.2279148999987,,,,,,,,,,,,,,,,,,,,,,,,,,,,,,,,,,,,,,,,,,,,,,,,,,319.21166509999966,319.2279148999987,319.72784630000024,319.7114771999986,319.7217665999997,319.72784630000024,319.72784630000024,319.72784630000024,321.64483090000067,Objects\070a.jpg,pre,n,1.9063468999993347,None,,,,,,,,00017,001,2025-11-08_20h16.49.187,MST_test,2024.2.2,59.98465592514447,2025-11-08 20h16.57.825866 +0530,
58,0,58,n,2.1791176999977324,None,58,0,58,0,321.6611406999982,,,,,,,,,,,,,,,,,,,,,,,,,,,,,,,,,,,,,,,,,,,,,,,,,,321.64490690000093,321.6611406999982,322.17779679999876,322.14474749999863,322.1613550000002,322.17779679999876,322.17779679999876,322.17779679999876,324.3615479,Objects\139b.jpg,pre,n,2.1791176999977324,None,,,,,,,,00017,001,2025-11-08_20h16.49.187,MST_test,2024.2.2,59.98465592514447,2025-11-08 20h16.57.825866 +0530,
59,0,59,n,1.1845068000002357,None,59,0,59,0,324.3778151999977,,,,,,,,,,,,,,,,,,,,,,,,,,,,,,,,,,,,,,,,,,,,,,,,,,324.36162400000103,324.3778151999977,324.8944593999986,324.8612252999992,324.8861603000005,324.8944593999986,324.8944593999986,324.8944593999986,326.0946839999997,Objects\064b.jpg,pre,n,1.1845068000002357,None,,,,,,,,00017,001,2025-11-08_20h16.49.187,MST_test,2024.2.2,59.98465592514447,2025-11-08 20h16.57.825866 +0530,
60,0,60,s,1.952161299999716,None,60,0,60,0,326.11110479999843,,,,,,,,,,,,,,,,,,,,,,,,,,,,,,,,,,,,,,,,,,,,,,,,,,326.09476019999784,326.11110479999843,326.6443650000001,326.5945639999991,326.62884199999826,326.6443650000001,326.6443650000001,326.6443650000001,328.6112847000004,Scenes\107b.jpg,mid,s,1.952161299999716,None,,,,,,,,00017,001,2025-11-08_20h16.49.187,MST_test,2024.2.2,59.98465592514447,2025-11-08 20h16.57.825866 +0530,
61,0,61,o,1.2552007999984198,None,61,0,61,0,328.6277074999998,,,,,,,,,,,,,,,,,,,,,,,,,,,,,,,,,,,,,,,,,,,,,,,,,,328.61137919999965,328.6277074999998,329.12764270000116,329.11121269999785,329.1211470999988,329.12764270000116,329.12764270000116,329.12764270000116,330.394670499998,Objects\042a.jpg,pre,o,1.2552007999984198,None,,,,,,,,00017,001,2025-11-08_20h16.49.187,MST_test,2024.2.2,59.98465592514447,2025-11-08 20h16.57.825866 +0530,
62,0,62,s,2.6390214000020933,None,62,0,62,0,330.41100799999913,,,,,,,,,,,,,,,,,,,,,,,,,,,,,,,,,,,,,,,,,,,,,,,,,,330.39474739999787,330.41100799999913,330.9275172999987,330.8944436999991,330.916315399998,330.9275172999987,330.9275172999987,330.9275172999987,333.5777949000003,Scenes\105a.jpg,mid,s,2.6390214000020933,None,,,,,,,,00017,001,2025-11-08_20h16.49.187,MST_test,2024.2.2,59.98465592514447,2025-11-08 20h16.57.825866 +0530,
63,0,63,o,1.8121104999991076,None,63,0,63,0,333.59421629999997,,,,,,,,,,,,,,,,,,,,,,,,,,,,,,,,,,,,,,,,,,,,,,,,,,333.5778900000005,333.59421629999997,334.09410539999953,334.0776095000001,334.0873367999993,334.09410539999953,334.09410539999953,334.09410539999953,335.9110373000003,Objects\169a.jpg,pre,o,1.8121104999991076,None,,,,,,,,00017,001,2025-11-08_20h16.49.187,MST_test,2024.2.2,59.98465592514447,2025-11-08 20h16.57.825866 +0530,
64,0,64,o,1.2748450999970373,None,64,0,64,0,335.92743359999804,,,,,,,,,,,,,,,,,,,,,,,,,,,,,,,,,,,,,,,,,,,,,,,,,,335.9111207999995,335.92743359999804,336.4607259000004,336.41101499999786,336.448909499999,336.4607259000004,336.4607259000004,336.4607259000004,337.7443536999999,Scenes\029b.jpg,mid,o,1.2748450999970373,None,,,,,,,,00017,001,2025-11-08_20h16.49.187,MST_test,2024.2.2,59.98465592514447,2025-11-08 20h16.57.825866 +0530,
65,0,65,o,0.8150209999985236,None,65,0,65,0,337.7607309999985,,,,,,,,,,,,,,,,,,,,,,,,,,,,,,,,,,,,,,,,,,,,,,,,,,337.7444327000012,337.7607309999985,338.26067409999814,338.24431299999924,338.2539132999991,338.26067409999814,338.26067409999814,338.26067409999814,339.0777127000001,Objects\186a.jpg,post,o,0.8150209999985236,None,,,,,,,,00017,001,2025-11-08_20h16.49.187,MST_test,2024.2.2,59.98465592514447,2025-11-08 20h16.57.825866 +0530,
66,0,66,o,1.0736671000013303,None,66,0,66,0,339.09403060000113,,,,,,,,,,,,,,,,,,,,,,,,,,,,,,,,,,,,,,,,,,,,,,,,,,339.07778699999835,339.09403060000113,339.61069719999796,339.57746789999874,339.6037346999983,339.61069719999796,339.61069719999796,339.61069719999796,340.6942625999982,Scenes\052b.jpg,pre,o,1.0736671000013303,None,,,,,,,,00017,001,2025-11-08_20h16.49.187,MST_test,2024.2.2,59.98465592514447,2025-11-08 20h16.57.825866 +0530,
67,0,67,s,2.962462100000266,None,67,0,67,0,340.71067499999845,,,,,,,,,,,,,,,,,,,,,,,,,,,,,,,,,,,,,,,,,,,,,,,,,,340.69433659999777,340.71067499999845,341.24408010000116,341.1942765999993,341.22615360000054,341.24408010000116,341.24408010000116,341.24408010000116,344.21107850000044,Objects\005b.jpg,pre,s,2.962462100000266,None,,,,,,,,00017,001,2025-11-08_20h16.49.187,MST_test,2024.2.2,59.98465592514447,2025-11-08 20h16.57.825866 +0530,
68,0,68,n,4.1113544999971054,None,68,0,68,0,344.22737699999925,,,,,,,,,,,,,,,,,,,,,,,,,,,,,,,,,,,,,,,,,,,,,,,,,,344.2111603000012,344.22737699999925,344.76064770000085,344.71108989999993,344.7411968999986,344.76064770000085,344.76064770000085,344.76064770000085,348.8775328999982,Objects\190b.jpg,post,n,4.1113544999971054,None,,,,,,,,00017,001,2025-11-08_20h16.49.187,MST_test,2024.2.2,59.98465592514447,2025-11-08 20h16.57.825866 +0530,
69,0,69,o,1.6820041999999376,None,69,0,69,0,348.8937837000012,,,,,,,,,,,,,,,,,,,,,,,,,,,,,,,,,,,,,,,,,,,,,,,,,,348.87761749999845,348.8937837000012,349.41046110000025,349.37738329999775,349.3985740999997,349.41046110000025,349.41046110000025,349.41046110000025,351.09435160000066,Scenes\031a.jpg,pre,o,1.6820041999999376,None,,,,,,,,00017,001,2025-11-08_20h16.49.187,MST_test,2024.2.2,59.98465592514447,2025-11-08 20h16.57.825866 +0530,
70,0,70,s,2.5211471999973583,None,70,0,70,0,351.11039959999835,,,,,,,,,,,,,,,,,,,,,,,,,,,,,,,,,,,,,,,,,,,,,,,,,,351.09443850000025,351.11039959999835,351.6270762999993,351.593868699998,351.61111829999936,351.6270762999993,351.6270762999993,351.6270762999993,354.16066330000103,Objects\141b.jpg,mid,s,2.5211471999973583,None,,,,,,,,00017,001,2025-11-08_20h16.49.187,MST_test,2024.2.2,59.98465592514447,2025-11-08 20h16.57.825866 +0530,
71,0,71,s,1.0903929999985849,None,71,0,71,0,354.1771015000013,,,,,,,,,,,,,,,,,,,,,,,,,,,,,,,,,,,,,,,,,,,,,,,,,,354.16075439999986,354.1771015000013,354.6939347999978,354.6606251999983,354.6845375999983,354.6939347999978,354.6939347999978,354.6939347999978,355.7941111,Scenes\033b.jpg,pre,s,1.0903929999985849,None,,,,,,,,00017,001,2025-11-08_20h16.49.187,MST_test,2024.2.2,59.98465592514447,2025-11-08 20h16.57.825866 +0530,
72,0,72,s,0.759463099999266,None,72,0,72,0,355.8103126999995,,,,,,,,,,,,,,,,,,,,,,,,,,,,,,,,,,,,,,,,,,,,,,,,,,355.79419399999824,355.8103126999995,356.32695969999986,356.2938858999987,356.31058909999774,356.32695969999986,356.32695969999986,356.32695969999986,357.0939025999978,Objects\088b.jpg,pre,s,0.759463099999266,None,,,,,,,,00017,001,2025-11-08_20h16.49.187,MST_test,2024.2.2,59.98465592514447,2025-11-08 20h16.57.825866 +0530,
73,0,73,n,3.0814633999980288,None,73,0,73,0,357.11027509999985,,,,,,,,,,,,,,,,,,,,,,,,,,,,,,,,,,,,,,,,,,,,,,,,,,357.0939799999978,357.11027509999985,357.6269515999993,357.5937763000002,357.6099596999993,357.6269515999993,357.6269515999993,357.6269515999993,360.7106620000013,Foils\101b.jpg,none,n,3.0814633999980288,None,,,,,,,,00017,001,2025-11-08_20h16.49.187,MST_test,2024.2.2,59.98465592514447,2025-11-08 20h16.57.825866 +0530,
74,0,74,o,1.752431600001728,None,74,0,74,0,360.72686410000097,,,,,,,,,,,,,,,,,,,,,,,,,,,,,,,,,,,,,,,,,,,,,,,,,,360.7107466999987,360.72686410000097,361.24377319999985,361.2104271999997,361.23769710000124,361.24377319999985,361.24377319999985,361.24377319999985,363.0105153000004,Scenes\020a.jpg,pre,o,1.752431600001728,None,,,,,,,,00017,001,2025-11-08_20h16.49.187,MST_test,2024.2.2,59.98465592514447,2025-11-08 20h16.57.825866 +0530,
75,0,75,s,6.133841999999277,None,75,0,75,0,363.02684840000074,,,,,,,,,,,,,,,,,,,,,,,,,,,,,,,,,,,,,,,,,,,,,,,,,,363.010605200001,363.02684840000074,363.5601336,363.51040880000073,363.54054689999975,363.5601336,363.5601336,363.5601336,369.7103653000013,Objects\107b.jpg,pre,s,6.133841999999277,None,,,,,,,,00017,001,2025-11-08_20h16.49.187,MST_test,2024.2.2,59.98465592514447,2025-11-08 20h16.57.825866 +0530,
76,0,76,n,1.3469628999991983,None,76,0,76,0,369.72668689999773,,,,,,,,,,,,,,,,,,,,,,,,,,,,,,,,,,,,,,,,,,,,,,,,,,369.71045030000096,369.72668689999773,370.24327970000013,370.2101703999979,370.2366641000008,370.24327970000013,370.24327970000013,370.24327970000013,371.59372299999814,Scenes\032b.jpg,pre,n,1.3469628999991983,None,,,,,,,,00017,001,2025-11-08_20h16.49.187,MST_test,2024.2.2,59.98465592514447,2025-11-08 20h16.57.825866 +0530,
77,0,77,n,7.705415100001119,None,77,0,77,0,371.6099957999977,,,,,,,,,,,,,,,,,,,,,,,,,,,,,,,,,,,,,,,,,,,,,,,,,,371.5938102,371.6099957999977,372.1266875000001,372.09354990000065,372.1096547999987,372.1266875000001,372.1266875000001,372.1266875000001,379.84348549999777,Foils\020b.jpg,none,n,7.705415100001119,None,,,,,,,,00017,001,2025-11-08_20h16.49.187,MST_test,2024.2.2,59.98465592514447,2025-11-08 20h16.57.825866 +0530,
78,0,78,o,1.722905599999649,None,78,0,78,0,379.85981439999887,,,,,,,,,,,,,,,,,,,,,,,,,,,,,,,,,,,,,,,,,,,,,,,,,,379.8435651,379.85981439999887,380.35975899999903,380.34324750000087,380.35302779999984,380.35975899999903,380.35975899999903,380.35975899999903,382.09337199999936,Objects\122a.jpg,pre,o,1.722905599999649,None,,,,,,,,00017,001,2025-11-08_20h16.49.187,MST_test,2024.2.2,59.98465592514447,2025-11-08 20h16.57.825866 +0530,
79,0,79,s,2.8563064000009035,None,79,0,79,0,382.1098004999985,,,,,,,,,,,,,,,,,,,,,,,,,,,,,,,,,,,,,,,,,,,,,,,,,,382.0934501999982,382.1098004999985,382.6264067999982,382.5932909000003,382.61922530000083,382.6264067999982,382.6264067999982,382.6264067999982,385.4934614999984,Objects\149b.jpg,mid,s,2.8563064000009035,None,,,,,,,,00017,001,2025-11-08_20h16.49.187,MST_test,2024.2.2,59.98465592514447,2025-11-08 20h16.57.825866 +0530,
80,0,80,o,1.2335734000007506,None,80,0,80,0,385.5098055999988,,,,,,,,,,,,,,,,,,,,,,,,,,,,,,,,,,,,,,,,,,,,,,,,,,385.49354649999805,385.5098055999988,386.02659230000063,385.9932470999993,386.0145330999985,386.02659230000063,386.02659230000063,386.02659230000063,387.2766764000007,Scenes\010a.jpg,pre,o,1.2335734000007506,None,,,,,,,,00017,001,2025-11-08_20h16.49.187,MST_test,2024.2.2,59.98465592514447,2025-11-08 20h16.57.825866 +0530,
81,0,81,n,27.829611099998147,None,81,0,81,0,387.29297399999996,,,,,,,,,,,,,,,,,,,,,,,,,,,,,,,,,,,,,,,,,,,,,,,,,,387.27675889999955,387.29297399999996,387.79300030000013,387.7765814000013,387.78627069999857,387.79300030000013,387.79300030000013,387.79300030000013,415.6260782999998,Foils\121a.jpg,none,n,27.829611099998147,None,,,,,,,,00017,001,2025-11-08_20h16.49.187,MST_test,2024.2.2,59.98465592514447,2025-11-08 20h16.57.825866 +0530,
82,0,82,n,1.2812979999980598,None,82,0,82,0,415.6423680000007,,,,,,,,,,,,,,,,,,,,,,,,,,,,,,,,,,,,,,,,,,,,,,,,,,415.62617229999887,415.6423680000007,416.1589950999987,416.1258510000007,416.14214739999807,416.1589950999987,416.1589950999987,416.1589950999987,417.44267580000087,Foils\074a.jpg,none,n,1.2812979999980598,None,,,,,,,,00017,001,2025-11-08_20h16.49.187,MST_test,2024.2.2,59.98465592514447,2025-11-08 20h16.57.825866 +0530,
83,0,83,n,2.665651799998159,None,83,0,83,0,417.458982199998,,,,,,,,,,,,,,,,,,,,,,,,,,,,,,,,,,,,,,,,,,,,,,,,,,417.4427543999991,417.458982199998,417.95894119999866,417.9424672999994,417.95291689999794,417.95894119999866,417.95894119999866,417.95894119999866,420.62598439999783,Foils\002a.jpg,none,n,2.665651799998159,None,,,,,,,,00017,001,2025-11-08_20h16.49.187,MST_test,2024.2.2,59.98465592514447,2025-11-08 20h16.57.825866 +0530,
84,0,84,s,1.4862317999977677,None,84,0,84,0,420.64225799999986,,,,,,,,,,,,,,,,,,,,,,,,,,,,,,,,,,,,,,,,,,,,,,,,,,420.6260648999996,420.64225799999986,421.14224399999875,421.12572590000127,421.135626700001,421.14224399999875,421.14224399999875,421.14224399999875,422.6425911000006,Objects\104a.jpg,mid,s,1.4862317999977677,None,,,,,,,,00017,001,2025-11-08_20h16.49.187,MST_test,2024.2.2,59.98465592514447,2025-11-08 20h16.57.825866 +0530,
85,0,85,n,2.2653241000007256,None,85,0,85,0,422.6588856999988,,,,,,,,,,,,,,,,,,,,,,,,,,,,,,,,,,,,,,,,,,,,,,,,,,422.6426743000011,422.6588856999988,423.17550309999933,423.1425419999978,423.1605364999996,423.17550309999933,423.17550309999933,423.17550309999933,425.4425532999994,Scenes\153b.jpg,pre,n,2.2653241000007256,None,,,,,,,,00017,001,2025-11-08_20h16.49.187,MST_test,2024.2.2,59.98465592514447,2025-11-08 20h16.57.825866 +0530,
86,0,86,s,12.984641800001555,None,86,0,86,0,425.45881870000085,,,,,,,,,,,,,,,,,,,,,,,,,,,,,,,,,,,,,,,,,,,,,,,,,,425.4426373999995,425.45881870000085,425.97543849999784,425.94243970000025,425.95989429999827,425.97543849999784,425.97543849999784,425.97543849999784,438.97550480000064,Objects\031b.jpg,pre,s,12.984641800001555,None,,,,,,,,00017,001,2025-11-08_20h16.49.187,MST_test,2024.2.2,59.98465592514447,2025-11-08 20h16.57.825866 +0530,
87,0,87,s,1.3677545999998983,None,87,0,87,0,438.99186009999903,,,,,,,,,,,,,,,,,,,,,,,,,,,,,,,,,,,,,,,,,,,,,,,,,,438.975591800001,438.99186009999903,439.5084767999979,439.4754173000001,439.49216979999983,439.5084767999979,439.5084767999979,439.5084767999979,440.8921439000005,Objects\013b.jpg,post,s,1.3677545999998983,None,,,,,,,,00017,001,2025-11-08_20h16.49.187,MST_test,2024.2.2,59.98465592514447,2025-11-08 20h16.57.825866 +0530,
88,0,88,n,1.6677073999999266,None,88,0,88,0,440.9084846000005,,,,,,,,,,,,,,,,,,,,,,,,,,,,,,,,,,,,,,,,,,,,,,,,,,440.8922246000002,440.9084846000005,441.4251011999986,441.3919907999989,441.418396699999,441.4251011999986,441.4251011999986,441.4251011999986,443.10883099999774,Foils\106a.jpg,none,n,1.6677073999999266,None,,,,,,,,00017,001,2025-11-08_20h16.49.187,MST_test,2024.2.2,59.98465592514447,2025-11-08 20h16.57.825866 +0530,
89,0,89,s,3.3823131999997713,None,89,0,89,0,443.1251040999996,,,,,,,,,,,,,,,,,,,,,,,,,,,,,,,,,,,,,,,,,,,,,,,,,,443.1089103999984,443.1251040999996,443.6417211000007,443.6086065999989,443.62994210000033,443.6417211000007,443.6417211000007,443.6417211000007,447.0253236999997,Objects\094b.jpg,mid,s,3.3823131999997713,None,,,,,,,,00017,001,2025-11-08_20h16.49.187,MST_test,2024.2.2,59.98465592514447,2025-11-08 20h16.57.825866 +0530,
90,0,90,s,1.0576449000000139,None,90,0,90,0,447.0416815999997,,,,,,,,,,,,,,,,,,,,,,,,,,,,,,,,,,,,,,,,,,,,,,,,,,447.02540809999846,447.0416815999997,447.5583028000001,447.5252729999993,447.55096929999854,447.5583028000001,447.5583028000001,447.5583028000001,448.62533690000055,Objects\076b.jpg,post,s,1.0576449000000139,None,,,,,,,,00017,001,2025-11-08_20h16.49.187,MST_test,2024.2.2,59.98465592514447,2025-11-08 20h16.57.825866 +0530,
91,0,91,n,2.7269500000002154,None,91,0,91,0,448.641642999999,,,,,,,,,,,,,,,,,,,,,,,,,,,,,,,,,,,,,,,,,,,,,,,,,,448.62541879999844,448.641642999999,449.15829870000016,449.12515449999773,449.1475266999987,449.15829870000016,449.15829870000016,449.15829870000016,451.8919657999977,Scenes\168b.jpg,mid,n,2.7269500000002154,None,,,,,,,,00017,001,2025-11-08_20h16.49.187,MST_test,2024.2.2,59.98465592514447,2025-11-08 20h16.57.825866 +0530,
92,0,92,n,1.4606428999977652,None,92,0,92,0,451.9082383999994,,,,,,,,,,,,,,,,,,,,,,,,,,,,,,,,,,,,,,,,,,,,,,,,,,451.892050800001,451.9082383999994,452.4248642999992,452.3917708000008,452.40769920000093,452.4248642999992,452.4248642999992,452.4248642999992,453.8918969999977,Foils\017a.jpg,none,n,1.4606428999977652,None,,,,,,,,00017,001,2025-11-08_20h16.49.187,MST_test,2024.2.2,59.98465592514447,2025-11-08 20h16.57.825866 +0530,
93,0,93,n,9.58122530000037,None,93,0,93,0,453.9081937999981,,,,,,,,,,,,,,,,,,,,,,,,,,,,,,,,,,,,,,,,,,,,,,,,,,453.8919821999989,453.9081937999981,454.424817799998,454.39163259999987,454.41849920000095,454.424817799998,454.424817799998,454.424817799998,464.0083233000005,Foils\082a.jpg,none,n,9.58122530000037,None,,,,,,,,00017,001,2025-11-08_20h16.49.187,MST_test,2024.2.2,59.98465592514447,2025-11-08 20h16.57.825866 +0530,
94,0,94,n,3.285569800002122,None,94,0,94,0,464.0246507999982,,,,,,,,,,,,,,,,,,,,,,,,,,,,,,,,,,,,,,,,,,,,,,,,,,464.0084069000004,464.0246507999982,464.5245972999983,464.50812099999894,464.5175367000011,464.5245972999983,464.5245972999983,464.5245972999983,467.8248700000004,Foils\113a.jpg,none,n,3.285569800002122,None,,,,,,,,00017,001,2025-11-08_20h16.49.187,MST_test,2024.2.2,59.98465592514447,2025-11-08 20h16.57.825866 +0530,
95,0,95,s,1.6500694999995176,None,95,0,95,0,467.8412743000008,,,,,,,,,,,,,,,,,,,,,,,,,,,,,,,,,,,,,,,,,,,,,,,,,,467.82494849999784,467.8412743000008,468.3578620999979,468.32478919999994,468.35396879999826,468.3578620999979,468.3578620999979,468.3578620999979,470.0082774000002,Objects\150b.jpg,post,s,1.6500694999995176,None,,,,,,,,00017,001,2025-11-08_20h16.49.187,MST_test,2024.2.2,59.98465592514447,2025-11-08 20h16.57.825866 +0530,
96,0,96,o,1.2271693000002415,None,96,0,96,0,470.02452419999827,,,,,,,,,,,,,,,,,,,,,,,,,,,,,,,,,,,,,,,,,,,,,,,,,,470.0083605,470.02452419999827,470.54113320000033,470.50798320000104,470.5284078000004,470.54113320000033,470.54113320000033,470.54113320000033,471.77472209999905,Scenes\165a.jpg,post,o,1.2271693000002415,None,,,,,,,,00017,001,2025-11-08_20h16.49.187,MST_test,2024.2.2,59.98465592514447,2025-11-08 20h16.57.825866 +0530,
97,0,97,n,9.486681300000782,None,97,0,97,0,471.7911295999984,,,,,,,,,,,,,,,,,,,,,,,,,,,,,,,,,,,,,,,,,,,,,,,,,,471.77479680000033,471.7911295999984,472.30794089999836,472.274598699998,472.29145810000045,472.30794089999836,472.30794089999836,472.30794089999836,481.8078889999997,Scenes\192a.jpg,pre,n,9.486681300000782,None,,,,,,,,00017,001,2025-11-08_20h16.49.187,MST_test,2024.2.2,59.98465592514447,2025-11-08 20h16.57.825866 +0530,
98,0,98,s,1.9318253999990702,None,98,0,98,0,481.8242567999987,,,,,,,,,,,,,,,,,,,,,,,,,,,,,,,,,,,,,,,,,,,,,,,,,,481.80796460000056,481.8242567999987,482.3408916999979,482.3077298999997,482.328796400001,482.3408916999979,482.3408916999979,482.3408916999979,484.2745628999983,Scenes\125a.jpg,post,s,1.9318253999990702,None,,,,,,,,00017,001,2025-11-08_20h16.49.187,MST_test,2024.2.2,59.98465592514447,2025-11-08 20h16.57.825866 +0530,
99,0,99,n,1.3356506999989506,None,99,0,99,0,484.29085739999937,,,,,,,,,,,,,,,,,,,,,,,,,,,,,,,,,,,,,,,,,,,,,,,,,,484.2746413999994,484.29085739999937,484.79101439999795,484.77442840000003,484.7857345000011,484.79101439999795,484.79101439999795,484.79101439999795,486.14110340000116,Foils\scenes18.jpg,none,n,1.3356506999989506,None,,,,,,,,00017,001,2025-11-08_20h16.49.187,MST_test,2024.2.2,59.98465592514447,2025-11-08 20h16.57.825866 +0530,
100,0,100,n,1.6256743000012648,None,100,0,100,0,486.15750430000116,,,,,,,,,,,,,,,,,,,,,,,,,,,,,,,,,,,,,,,,,,,,,,,,,,486.14118099999905,486.15750430000116,486.6910382999995,486.6411268000011,486.6729411999986,486.6910382999995,486.6910382999995,486.6910382999995,488.3244913999988,Scenes\157b.jpg,mid,n,1.6256743000012648,None,,,,,,,,00017,001,2025-11-08_20h16.49.187,MST_test,2024.2.2,59.98465592514447,2025-11-08 20h16.57.825866 +0530,
101,0,101,n,3.5708126999998058,None,101,0,101,0,488.34078130000125,,,,,,,,,,,,,,,,,,,,,,,,,,,,,,,,,,,,,,,,,,,,,,,,,,488.3245788999993,488.34078130000125,488.8576198999981,488.824227699999,488.8523746999999,488.8576198999981,488.8576198999981,488.8576198999981,492.44093259999863,Scenes\026a.jpg,mid,n,3.5708126999998058,None,,,,,,,,00017,001,2025-11-08_20h16.49.187,MST_test,2024.2.2,59.98465592514447,2025-11-08 20h16.57.825866 +0530,
102,0,102,o,15.067034800002148,None,102,0,102,0,492.45735649999915,,,,,,,,,,,,,,,,,,,,,,,,,,,,,,,,,,,,,,,,,,,,,,,,,,492.4410171999989,492.45735649999915,492.95754490000036,492.94095599999855,492.95263599999817,492.95754490000036,492.95754490000036,492.95754490000036,508.0407430999985,Scenes\014a.jpg,mid,o,15.067034800002148,None,,,,,,,,00017,001,2025-11-08_20h16.49.187,MST_test,2024.2.2,59.98465592514447,2025-11-08 20h16.57.825866 +0530,
103,0,103,n,6.267873699998745,None,103,0,103,0,508.0569856000002,,,,,,,,,,,,,,,,,,,,,,,,,,,,,,,,,,,,,,,,,,,,,,,,,,508.0408318000009,508.0569856000002,508.59054560000004,508.5404400999978,508.56921409999995,508.59054560000004,508.59054560000004,508.59054560000004,514.8739170999979,Objects\021b.jpg,mid,n,6.267873699998745,None,,,,,,,,00017,001,2025-11-08_20h16.49.187,MST_test,2024.2.2,59.98465592514447,2025-11-08 20h16.57.825866 +0530,
104,0,104,s,2.097371899999416,None,104,0,104,0,514.8902063999994,,,,,,,,,,,,,,,,,,,,,,,,,,,,,,,,,,,,,,,,,,,,,,,,,,514.8740030000008,514.8902063999994,515.406826399998,515.3736700000009,515.3939733000007,515.406826399998,515.406826399998,515.406826399998,517.507184099999,Objects\091b.jpg,pre,s,2.097371899999416,None,,,,,,,,00017,001,2025-11-08_20h16.49.187,MST_test,2024.2.2,59.98465592514447,2025-11-08 20h16.57.825866 +0530,
105,0,105,s,6.560731000001397,None,105,0,105,0,517.5234880999997,,,,,,,,,,,,,,,,,,,,,,,,,,,,,,,,,,,,,,,,,,,,,,,,,,517.5072669000001,517.5234880999997,518.0571691000005,518.0070266000002,518.0419039000008,518.0571691000005,518.0571691000005,518.0571691000005,524.6237135999982,Scenes\170b.jpg,post,s,6.560731000001397,None,,,,,,,,00017,001,2025-11-08_20h16.49.187,MST_test,2024.2.2,59.98465592514447,2025-11-08 20h16.57.825866 +0530,
106,0,106,n,1.2108251999998174,None,106,0,106,0,524.6399926000013,,,,,,,,,,,,,,,,,,,,,,,,,,,,,,,,,,,,,,,,,,,,,,,,,,524.6238005999985,524.6399926000013,525.2235957000012,525.1238580999998,525.2079038999982,525.2235957000012,525.2235957000012,525.2235957000012,526.4403205999988,Foils\scenes15.jpg,none,n,1.2108251999998174,None,,,,,,,,00017,001,2025-11-08_20h16.49.187,MST_test,2024.2.2,59.98465592514447,2025-11-08 20h16.57.825866 +0530,
107,0,107,n,2.1054296999973303,None,107,0,107,0,526.456609599998,,,,,,,,,,,,,,,,,,,,,,,,,,,,,,,,,,,,,,,,,,,,,,,,,,526.4404068000003,526.456609599998,526.9735412000009,526.9401455999978,526.9639672000012,526.9735412000009,526.9735412000009,526.9735412000009,529.0902041000008,Foils\034a.jpg,none,n,2.1054296999973303,None,,,,,,,,00017,001,2025-11-08_20h16.49.187,MST_test,2024.2.2,59.98465592514447,2025-11-08 20h16.57.825866 +0530,
108,0,108,s,1.4350991999999678,None,108,0,108,0,529.1065825000005,,,,,,,,,,,,,,,,,,,,,,,,,,,,,,,,,,,,,,,,,,,,,,,,,,529.0902805000005,529.1065825000005,529.6234594999987,529.5901358999981,529.6094071000007,529.6234594999987,529.6234594999987,529.6234594999987,531.0734479999992,Scenes\067b.jpg,mid,s,1.4350991999999678,None,,,,,,,,00017,001,2025-11-08_20h16.49.187,MST_test,2024.2.2,59.98465592514447,2025-11-08 20h16.57.825866 +0530,
109,0,109,s,3.4910419000007096,None,109,0,109,0,531.089826899999,,,,,,,,,,,,,,,,,,,,,,,,,,,,,,,,,,,,,,,,,,,,,,,,,,531.0735243999989,531.089826899999,531.5898022000001,531.5733900999985,531.5833850999988,531.5898022000001,531.5898022000001,531.5898022000001,535.0900284999989,Objects\020a.jpg,pre,s,3.4910419000007096,None,,,,,,,,00017,001,2025-11-08_20h16.49.187,MST_test,2024.2.2,59.98465592514447,2025-11-08 20h16.57.825866 +0530,
110,0,110,o,1.4563072999990254,None,110,0,110,0,535.106440399999,,,,,,,,,,,,,,,,,,,,,,,,,,,,,,,,,,,,,,,,,,,,,,,,,,535.090107699998,535.106440399999,535.6229715000009,535.589861299999,535.6180839999979,535.6229715000009,535.6229715000009,535.6229715000009,537.0901158999986,Scenes\009a.jpg,mid,o,1.4563072999990254,None,,,,,,,,00017,001,2025-11-08_20h16.49.187,MST_test,2024.2.2,59.98465592514447,2025-11-08 20h16.57.825866 +0530,
111,0,111,n,2.1119260000014037,None,111,0,111,0,537.1063601999995,,,,,,,,,,,,,,,,,,,,,,,,,,,,,,,,,,,,,,,,,,,,,,,,,,537.0902004999989,537.1063601999995,537.6063484999977,537.5897819999991,537.5996407999992,537.6063484999977,537.6063484999977,537.6063484999977,539.7233042000007,Objects\059b.jpg,post,n,2.1119260000014037,None,,,,,,,,00017,001,2025-11-08_20h16.49.187,MST_test,2024.2.2,59.98465592514447,2025-11-08 20h16.57.825866 +0530,
112,0,112,n,1.3890224999995553,None,112,0,112,0,539.739663100001,,,,,,,,,,,,,,,,,,,,,,,,,,,,,,,,,,,,,,,,,,,,,,,,,,539.7233880999993,539.739663100001,540.2563310000005,540.2231850999997,540.2525239999995,540.2563310000005,540.2563310000005,540.2563310000005,541.6565701,Objects\105b.jpg,post,n,1.3890224999995553,None,,,,,,,,00017,001,2025-11-08_20h16.49.187,MST_test,2024.2.2,59.98465592514447,2025-11-08 20h16.57.825866 +0530,
113,0,113,o,3.9280543999993824,None,113,0,113,0,541.6729556999999,,,,,,,,,,,,,,,,,,,,,,,,,,,,,,,,,,,,,,,,,,,,,,,,,,541.6566540999993,541.6729556999999,542.1729047999979,542.1565269999992,542.1665251000013,542.1729047999979,542.1729047999979,542.1729047999979,546.1065458000012,Objects\052a.jpg,post,o,3.9280543999993824,None,,,,,,,,00017,001,2025-11-08_20h16.49.187,MST_test,2024.2.2,59.98465592514447,2025-11-08 20h16.57.825866 +0530,
114,0,114,n,1.3846372999978485,None,114,0,114,0,546.1228632999992,,,,,,,,,,,,,,,,,,,,,,,,,,,,,,,,,,,,,,,,,,,,,,,,,,546.1066232000012,546.1228632999992,546.6397207000009,546.6064762999995,546.6300042000003,546.6397207000009,546.6397207000009,546.6397207000009,548.0398007000003,Scenes\103b.jpg,mid,n,1.3846372999978485,None,,,,,,,,00017,001,2025-11-08_20h16.49.187,MST_test,2024.2.2,59.98465592514447,2025-11-08 20h16.57.825866 +0530,
115,0,115,s,1.1600088000013784,None,115,0,115,0,548.0561531999992,,,,,,,,,,,,,,,,,,,,,,,,,,,,,,,,,,,,,,,,,,,,,,,,,,548.0398789999999,548.0561531999992,548.5727740000002,548.5397878000003,548.5580068999989,548.5727740000002,548.5727740000002,548.5727740000002,549.7397558999983,Scenes\180a.jpg,pre,s,1.1600088000013784,None,,,,,,,,00017,001,2025-11-08_20h16.49.187,MST_test,2024.2.2,59.98465592514447,2025-11-08 20h16.57.825866 +0530,
116,0,116,n,3.655239600000641,None,116,0,116,0,549.7561400999984,,,,,,,,,,,,,,,,,,,,,,,,,,,,,,,,,,,,,,,,,,,,,,,,,,549.7398300999994,549.7561400999984,550.2729457999994,550.239649799998,550.2580123999978,550.2729457999994,550.2729457999994,550.2729457999994,553.9396936999983,Scenes\140a.jpg,post,n,3.655239600000641,None,,,,,,,,00017,001,2025-11-08_20h16.49.187,MST_test,2024.2.2,59.98465592514447,2025-11-08 20h16.57.825866 +0530,
117,0,117,s,4.079252200001065,None,117,0,117,0,553.9560195000013,,,,,,,,,,,,,,,,,,,,,,,,,,,,,,,,,,,,,,,,,,,,,,,,,,553.9397797999991,553.9560195000013,554.456285799999,554.4396167999985,554.4497760000013,554.456285799999,554.456285799999,554.456285799999,558.5396150999986,Objects\100b.jpg,post,s,4.079252200001065,None,,,,,,,,00017,001,2025-11-08_20h16.49.187,MST_test,2024.2.2,59.98465592514447,2025-11-08 20h16.57.825866 +0530,
118,0,118,s,1.6747274999979709,None,118,0,118,0,558.5559405999993,,,,,,,,,,,,,,,,,,,,,,,,,,,,,,,,,,,,,,,,,,,,,,,,,,558.5396983999999,558.5559405999993,559.0725452000006,559.0395777000012,559.0565433999982,559.0725452000006,559.0725452000006,559.0725452000006,560.7562728000012,Scenes\110a.jpg,pre,s,1.6747274999979709,None,,,,,,,,00017,001,2025-11-08_20h16.49.187,MST_test,2024.2.2,59.98465592514447,2025-11-08 20h16.57.825866 +0530,
119,0,119,o,2.351455399999395,None,119,0,119,0,560.7725420999996,,,,,,,,,,,,,,,,,,,,,,,,,,,,,,,,,,,,,,,,,,,,,,,,,,560.7563520000003,560.7725420999996,561.2725501999994,561.2561244999997,561.2655778999979,561.2725501999994,561.2725501999994,561.2725501999994,563.6394933999982,Objects\179a.jpg,post,o,2.351455399999395,None,,,,,,,,00017,001,2025-11-08_20h16.49.187,MST_test,2024.2.2,59.98465592514447,2025-11-08 20h16.57.825866 +0530,
120,0,120,s,1.9702623999983189,None,120,0,120,0,563.6558130000012,,,,,,,,,,,,,,,,,,,,,,,,,,,,,,,,,,,,,,,,,,,,,,,,,,563.6395841000012,563.6558130000012,564.1725028000001,564.1393170999982,564.1677228000008,564.1725028000001,564.1725028000001,564.1725028000001,566.1561118999998,Objects\048b.jpg,pre,s,1.9702623999983189,None,,,,,,,,00017,001,2025-11-08_20h16.49.187,MST_test,2024.2.2,59.98465592514447,2025-11-08 20h16.57.825866 +0530,
121,0,121,s,1.0468822000002547,None,121,0,121,0,566.1724235000001,,,,,,,,,,,,,,,,,,,,,,,,,,,,,,,,,,,,,,,,,,,,,,,,,,566.1561930999997,566.1724235000001,566.6893754000012,566.6559749999979,566.682746399998,566.6893754000012,566.6893754000012,566.6893754000012,567.7395015000002,Scenes\088a.jpg,pre,s,1.0468822000002547,None,,,,,,,,00017,001,2025-11-08_20h16.49.187,MST_test,2024.2.2,59.98465592514447,2025-11-08 20h16.57.825866 +0530,
122,0,122,s,1.4310332999993989,None,122,0,122,0,567.7557297999992,,,,,,,,,,,,,,,,,,,,,,,,,,,,,,,,,,,,,,,,,,,,,,,,,,567.7395914000008,567.7557297999992,568.2890116999988,568.239319100001,568.2770672999977,568.2890116999988,568.2890116999988,568.2890116999988,569.7226929999997,Foils\033a.jpg,none,s,1.4310332999993989,None,,,,,,,,00017,001,2025-11-08_20h16.49.187,MST_test,2024.2.2,59.98465592514447,2025-11-08 20h16.57.825866 +0530,
123,0,123,o,1.1791578000011214,None,123,0,123,0,569.7390148000013,,,,,,,,,,,,,,,,,,,,,,,,,,,,,,,,,,,,,,,,,,,,,,,,,,569.7227715000008,569.7390148000013,570.255924000001,570.2225818000006,570.2491788999978,570.255924000001,570.255924000001,570.255924000001,571.4394629999988,Scenes\070b.jpg,mid,o,1.1791578000011214,None,,,,,,,,00017,001,2025-11-08_20h16.49.187,MST_test,2024.2.2,59.98465592514447,2025-11-08 20h16.57.825866 +0530,
124,0,124,o,0.8209814000001643,None,124,0,124,0,571.4556038999981,,,,,,,,,,,,,,,,,,,,,,,,,,,,,,,,,,,,,,,,,,,,,,,,,,571.4395470999989,571.4556038999981,571.955592899998,571.9391974999999,571.9492080999989,571.955592899998,571.955592899998,571.955592899998,572.7892248999997,Objects\036a.jpg,post,o,0.8209814000001643,None,,,,,,,,00017,001,2025-11-08_20h16.49.187,MST_test,2024.2.2,59.98465592514447,2025-11-08 20h16.57.825866 +0530,
125,0,125,o,8.136178499997186,None,125,0,125,0,572.8056161999993,,,,,,,,,,,,,,,,,,,,,,,,,,,,,,,,,,,,,,,,,,,,,,,,,,572.789299,572.8056161999993,573.3222320999994,573.2891681000001,573.3082560000003,573.3222320999994,573.3222320999994,573.3222320999994,581.472446599997,Scenes\182a.jpg,post,o,8.136178499997186,None,,,,,,,,00017,001,2025-11-08_20h16.49.187,MST_test,2024.2.2,59.98465592514447,2025-11-08 20h16.57.825866 +0530,
126,0,126,s,1.224093199998606,None,126,0,126,0,581.4887569999992,,,,,,,,,,,,,,,,,,,,,,,,,,,,,,,,,,,,,,,,,,,,,,,,,,581.4725324999963,581.4887569999992,581.9887563000011,581.9722290999998,581.9819441,581.9887563000011,581.9887563000011,581.9887563000011,583.2223956000016,Objects\010b.jpg,mid,s,1.224093199998606,None,,,,,,,,00017,001,2025-11-08_20h16.49.187,MST_test,2024.2.2,59.98465592514447,2025-11-08 20h16.57.825866 +0530,
127,0,127,s,2.061188100000436,None,127,0,127,0,583.2388036999982,,,,,,,,,,,,,,,,,,,,,,,,,,,,,,,,,,,,,,,,,,,,,,,,,,583.2224827000027,583.2388036999982,583.7553410999972,583.7222518999988,583.7410426999995,583.7553410999972,583.7553410999972,583.7553410999972,585.8224893000006,Scenes\028b.jpg,post,s,2.061188100000436,None,,,,,,,,00017,001,2025-11-08_20h16.49.187,MST_test,2024.2.2,59.98465592514447,2025-11-08 20h16.57.825866 +0530,
128,0,128,n,1.5747441999992589,None,128,0,128,0,585.8386750999998,,,,,,,,,,,,,,,,,,,,,,,,,,,,,,,,,,,,,,,,,,,,,,,,,,585.8226039000001,585.8386750999998,586.3719492000018,586.3221965999983,586.3535606000005,586.3719492000018,586.3719492000018,586.3719492000018,587.9556767000031,Objects\102b.jpg,pre,n,1.5747441999992589,None,,,,,,,,00017,001,2025-11-08_20h16.49.187,MST_test,2024.2.2,59.98465592514447,2025-11-08 20h16.57.825866 +0530,
129,0,129,s,1.3937833000018145,None,129,0,129,0,587.9719132999962,,,,,,,,,,,,,,,,,,,,,,,,,,,,,,,,,,,,,,,,,,,,,,,,,,587.9557619999978,587.9719132999962,588.4885931999961,588.4554836000025,588.4813770999972,588.4885931999961,588.4885931999961,588.4885931999961,589.888944899998,Scenes\122b.jpg,mid,s,1.3937833000018145,None,,,,,,,,00017,001,2025-11-08_20h16.49.187,MST_test,2024.2.2,59.98465592514447,2025-11-08 20h16.57.825866 +0530,
130,0,130,s,1.3357952000005753,None,130,0,130,0,589.9052349999984,,,,,,,,,,,,,,,,,,,,,,,,,,,,,,,,,,,,,,,,,,,,,,,,,,589.8890204999989,589.9052349999984,590.4385446000015,590.388764999996,590.4234968000019,590.4385446000015,590.4385446000015,590.4385446000015,591.7888698999959,Scenes\101b.jpg,pre,s,1.3357952000005753,None,,,,,,,,00017,001,2025-11-08_20h16.49.187,MST_test,2024.2.2,59.98465592514447,2025-11-08 20h16.57.825866 +0530,
131,0,131,n,2.336087100004079,None,131,0,131,0,591.8052052999992,,,,,,,,,,,,,,,,,,,,,,,,,,,,,,,,,,,,,,,,,,,,,,,,,,591.7889458999998,591.8052052999992,592.3554401000001,592.288848199998,592.3354267999966,592.3554401000001,592.3554401000001,592.3554401000001,594.7053621000014,Scenes\017b.jpg,pre,n,2.336087100004079,None,,,,,,,,00017,001,2025-11-08_20h16.49.187,MST_test,2024.2.2,59.98465592514447,2025-11-08 20h16.57.825866 +0530,
132,0,132,s,1.6235731999986456,None,132,0,132,0,594.7217973000006,,,,,,,,,,,,,,,,,,,,,,,,,,,,,,,,,,,,,,,,,,,,,,,,,,594.7054400999987,594.7217973000006,595.2219908999978,595.2053975000017,595.2154510999972,595.2219908999978,595.2219908999978,595.2219908999978,596.8554462000029,Objects\057a.jpg,post,s,1.6235731999986456,None,,,,,,,,00017,001,2025-11-08_20h16.49.187,MST_test,2024.2.2,59.98465592514447,2025-11-08 20h16.57.825866 +0530,
133,0,133,s,1.2049274000019068,None,133,0,133,0,596.8717605999991,,,,,,,,,,,,,,,,,,,,,,,,,,,,,,,,,,,,,,,,,,,,,,,,,,596.855530599998,596.8717605999991,597.3887428000016,597.3553324000022,597.3739825000011,597.3887428000016,597.3887428000016,597.3887428000016,598.6054080000031,Scenes\111a.jpg,mid,s,1.2049274000019068,None,,,,,,,,00017,001,2025-11-08_20h16.49.187,MST_test,2024.2.2,59.98465592514447,2025-11-08 20h16.57.825866 +0530,
134,0,134,n,8.312874899995222,None,134,0,134,0,598.6217227000016,,,,,,,,,,,,,,,,,,,,,,,,,,,,,,,,,,,,,,,,,,,,,,,,,,598.6054912999971,598.6217227000016,599.1217337999988,599.1052003000004,599.1154565999968,599.1217337999988,599.1217337999988,599.1217337999988,607.4385629999961,Foils\105a.jpg,none,n,8.312874899995222,None,,,,,,,,00017,001,2025-11-08_20h16.49.187,MST_test,2024.2.2,59.98465592514447,2025-11-08 20h16.57.825866 +0530,
135,0,135,s,1.4785518000062439,None,135,0,135,0,607.4548558999959,,,,,,,,,,,,,,,,,,,,,,,,,,,,,,,,,,,,,,,,,,,,,,,,,,607.4386572000003,607.4548558999959,607.9714783000018,607.9384149999969,607.9567850000021,607.9714783000018,607.9714783000018,607.9714783000018,609.4551786000011,Scenes\073a.jpg,mid,s,1.4785518000062439,None,,,,,,,,00017,001,2025-11-08_20h16.49.187,MST_test,2024.2.2,59.98465592514447,2025-11-08 20h16.57.825866 +0530,
136,0,136,s,4.236033699999098,None,136,0,136,0,609.4714476000008,,,,,,,,,,,,,,,,,,,,,,,,,,,,,,,,,,,,,,,,,,,,,,,,,,609.4552592999971,609.4714476000008,609.9883887999968,609.9549823999987,609.9732402000009,609.9883887999968,609.9883887999968,609.9883887999968,614.238475099999,Scenes\079b.jpg,post,s,4.236033699999098,None,,,,,,,,00017,001,2025-11-08_20h16.49.187,MST_test,2024.2.2,59.98465592514447,2025-11-08 20h16.57.825866 +0530,
137,0,137,s,1.2402358000035747,None,137,0,137,0,614.2547072000016,,,,,,,,,,,,,,,,,,,,,,,,,,,,,,,,,,,,,,,,,,,,,,,,,,614.238576900003,614.2547072000016,614.7883002000017,614.7383323000031,614.7744179000001,614.7883002000017,614.7883002000017,614.7883002000017,616.0383848999991,Objects\178b.jpg,post,s,1.2402358000035747,None,,,,,,,,00017,001,2025-11-08_20h16.49.187,MST_test,2024.2.2,59.98465592514447,2025-11-08 20h16.57.825866 +0530,
138,0,138,s,0.9095075000004726,None,138,0,138,0,616.0546654999998,,,,,,,,,,,,,,,,,,,,,,,,,,,,,,,,,,,,,,,,,,,,,,,,,,616.0384670999993,616.0546654999998,616.5714614999961,616.5381989000016,616.5617619999975,616.5714614999961,616.5714614999961,616.5714614999961,617.4882799999978,Foils\scenes1.jpg,none,s,0.9095075000004726,None,,,,,,,,00017,001,2025-11-08_20h16.49.187,MST_test,2024.2.2,59.98465592514447,2025-11-08 20h16.57.825866 +0530,
139,0,139,n,4.187749600001553,None,139,0,139,0,617.5046438999998,,,,,,,,,,,,,,,,,,,,,,,,,,,,,,,,,,,,,,,,,,,,,,,,,,617.4883587000004,617.5046438999998,618.0212565999973,617.9881294000006,618.0096486999973,618.0212565999973,618.0212565999973,618.0212565999973,622.2217279999968,Foils\scenes17.jpg,none,n,4.187749600001553,None,,,,,,,,00017,001,2025-11-08_20h16.49.187,MST_test,2024.2.2,59.98465592514447,2025-11-08 20h16.57.825866 +0530,
140,0,140,n,1.4740126999968197,None,140,0,140,0,622.2378316000031,,,,,,,,,,,,,,,,,,,,,,,,,,,,,,,,,,,,,,,,,,,,,,,,,,622.2218110000031,622.2378316000031,622.7545238000021,622.721291599999,622.7448679000008,622.7545238000021,622.7545238000021,622.7545238000021,624.2380722000016,Objects\054b.jpg,pre,n,1.4740126999968197,None,,,,,,,,00017,001,2025-11-08_20h16.49.187,MST_test,2024.2.2,59.98465592514447,2025-11-08 20h16.57.825866 +0530,
141,0,141,s,1.4049159000060172,None,141,0,141,0,624.2545100999996,,,,,,,,,,,,,,,,,,,,,,,,,,,,,,,,,,,,,,,,,,,,,,,,,,624.2381534000015,624.2545100999996,624.7711073000028,624.7379419999997,624.761814999998,624.7711073000028,624.7711073000028,624.7711073000028,626.1881097000005,Objects\176b.jpg,pre,s,1.4049159000060172,None,,,,,,,,00017,001,2025-11-08_20h16.49.187,MST_test,2024.2.2,59.98465592514447,2025-11-08 20h16.57.825866 +0530,
142,0,142,s,2.0834800000011455,None,142,0,142,0,626.2044481999983,,,,,,,,,,,,,,,,,,,,,,,,,,,,,,,,,,,,,,,,,,,,,,,,,,626.1881963999986,626.2044481999983,626.721123000003,626.6879661999992,626.7050961999994,626.721123000003,626.721123000003,626.721123000003,628.8213673999999,Objects\168b.jpg,post,s,2.0834800000011455,None,,,,,,,,00017,001,2025-11-08_20h16.49.187,MST_test,2024.2.2,59.98465592514447,2025-11-08 20h16.57.825866 +0530,
143,0,143,n,1.0676273000062793,None,143,0,143,0,628.8376907999991,,,,,,,,,,,,,,,,,,,,,,,,,,,,,,,,,,,,,,,,,,,,,,,,,,628.821449199997,628.8376907999991,629.3546611999991,629.3212042000014,629.3418193999969,629.3546611999991,629.3546611999991,629.3546611999991,630.437960999996,Scenes\040a.jpg,post,n,1.0676273000062793,None,,,,,,,,00017,001,2025-11-08_20h16.49.187,MST_test,2024.2.2,59.98465592514447,2025-11-08 20h16.57.825866 +0530,
144,0,144,s,1.1515402000004542,None,144,0,144,0,630.4543511000011,,,,,,,,,,,,,,,,,,,,,,,,,,,,,,,,,,,,,,,,,,,,,,,,,,630.4380352000007,630.4543511000011,630.9709827999977,630.9379230999984,630.9590933,630.9709827999977,630.9709827999977,630.9709827999977,632.1379274999999,Scenes\082b.jpg,post,s,1.1515402000004542,None,,,,,,,,00017,001,2025-11-08_20h16.49.187,MST_test,2024.2.2,59.98465592514447,2025-11-08 20h16.57.825866 +0530,
145,0,145,s,1.2227854000011575,None,145,0,145,0,632.1542848999961,,,,,,,,,,,,,,,,,,,,,,,,,,,,,,,,,,,,,,,,,,,,,,,,,,632.138008599999,632.1542848999961,632.6876036999965,632.6378043000004,632.668244499997,632.6876036999965,632.6876036999965,632.6876036999965,633.9212417000017,Objects\041b.jpg,mid,s,1.2227854000011575,None,,,,,,,,00017,001,2025-11-08_20h16.49.187,MST_test,2024.2.2,59.98465592514447,2025-11-08 20h16.57.825866 +0530,
146,0,146,s,1.596021400000609,None,146,0,146,0,633.9376256999967,,,,,,,,,,,,,,,,,,,,,,,,,,,,,,,,,,,,,,,,,,,,,,,,,,633.9213251999972,633.9376256999967,634.4542409999995,634.4211205999964,634.4464480999959,634.4542409999995,634.4542409999995,634.4542409999995,636.054495700002,Objects\112b.jpg,mid,s,1.596021400000609,None,,,,,,,,00017,001,2025-11-08_20h16.49.187,MST_test,2024.2.2,59.98465592514447,2025-11-08 20h16.57.825866 +0530,
147,0,147,s,1.0810407999961171,None,147,0,147,0,636.0709440999999,,,,,,,,,,,,,,,,,,,,,,,,,,,,,,,,,,,,,,,,,,,,,,,,,,636.0545799000029,636.0709440999999,636.5877849999961,636.5543593999973,636.5789269000015,636.5877849999961,636.5877849999961,636.5877849999961,637.6711294999986,Scenes\095a.jpg,pre,s,1.0810407999961171,None,,,,,,,,00017,001,2025-11-08_20h16.49.187,MST_test,2024.2.2,59.98465592514447,2025-11-08 20h16.57.825866 +0530,
148,0,148,o,1.323774999997113,None,148,0,148,0,637.6875383000006,,,,,,,,,,,,,,,,,,,,,,,,,,,,,,,,,,,,,,,,,,,,,,,,,,637.6712106999985,637.6875383000006,638.1875380999991,638.1710823999965,638.1810495000027,638.1875380999991,638.1875380999991,638.1875380999991,639.5211572999979,Objects\166a.jpg,post,o,1.323774999997113,None,,,,,,,,00017,001,2025-11-08_20h16.49.187,MST_test,2024.2.2,59.98465592514447,2025-11-08 20h16.57.825866 +0530,
149,0,149,s,1.4048649999967893,None,149,0,149,0,639.5374924999996,,,,,,,,,,,,,,,,,,,,,,,,,,,,,,,,,,,,,,,,,,,,,,,,,,639.521241800001,639.5374924999996,640.0374468000009,640.0211942000024,640.0311431000009,640.0374468000009,640.0374468000009,640.0374468000009,641.4545244999972,Objects\184a.jpg,pre,s,1.4048649999967893,None,,,,,,,,00017,001,2025-11-08_20h16.49.187,MST_test,2024.2.2,59.98465592514447,2025-11-08 20h16.57.825866 +0530,
,,,,,,,,,,,,,,,,,,,,,,,,,,,,,,,,,,,,,,,,,,,,,,,,,,,,,,,,,,,,,,,,,,,,,,,,,,641.4545830999996,641.4707507999992,641.4707507999992,671.9037761,space,30.42546189999848,None,00017,001,2025-11-08_20h16.49.187,MST_test,2024.2.2,59.98465592514447,2025-11-08 20h16.57.825866 +0530,
