Sl_no,image_path,thisN,thisTrialN,thisRepN,key_resp_5.keys,key_resp_7.keys,key_resp_7.rt,key_resp_7.duration,key_resp_5.rt,key_resp_5.duration,key_resp_9.keys,key_resp_8.keys,key_resp_8.rt,key_resp_8.duration,key_resp_9.rt,key_resp_9.duration,practice.thisRepN,practice.thisTrialN,practice.thisN,practice.thisIndex,trials.thisRepN,trials.thisTrialN,trials.thisN,trials.thisIndex,thisRow.t,notes,welcome_page.started,text.started,key_resp.started,welcome_page.stopped,key_resp.keys,key_resp.rt,key_resp.duration,instructions.started,ins.started,key_resp_2.started,instructions.stopped,key_resp_2.keys,key_resp_2.rt,key_resp_2.duration,instructions_2.started,text_10.started,key_resp_10.started,instructions_2.stopped,key_resp_10.keys,key_resp_10.rt,key_resp_10.duration,objects_only_instruction.started,text_3.started,key_resp_3.started,objects_only_instruction.stopped,key_resp_3.keys,key_resp_3.rt,key_resp_3.duration,ISI.started,text_4.started,text_4.stopped,ISI.stopped,practice_block.started,image.started,text_5.started,key_resp_5.started,practice_block.stopped,practice.key_resp_5.keys,indoor_outdoor.started,text_7.started,key_resp_7.started,indoor_outdoor.stopped,practice.key_resp_7.keys,practice.key_resp_7.rt,practice.key_resp_7.duration,practice.key_resp_5.rt,practice.key_resp_5.duration,practice_to_main.started,text_2.started,key_resp_4.started,practice_to_main.stopped,key_resp_4.keys,key_resp_4.rt,key_resp_4.duration,objects.started,image_2.started,text_9.started,key_resp_9.started,objects.stopped,trials.key_resp_9.keys,encoding_task.started,text_8.started,key_resp_8.started,encoding_task.stopped,trials.key_resp_8.keys,trials.key_resp_8.rt,trials.key_resp_8.duration,trials.key_resp_9.rt,trials.key_resp_9.duration,end_experiment.started,text_6.started,key_resp_6.started,end_experiment.stopped,key_resp_6.keys,key_resp_6.rt,key_resp_6.duration,list_of_stimuli,encoding_task_accuracy,participant,session,date,expName,psychopyVersion,frameRate,expStart,
,,,,,,,,,,,,,,,,,,,,,,,,,,,0.0045440000000098735,0.021132100000045284,0.021132100000045284,11.191557800000055,space,11.063911699999949,None,,,,,,,,,,,,,,,,,,,,,,,,,,,,,,,,,,,,,,,,,,,,,,,,,,,,,,,,,,,,,,,,,,,,,,,,00015,001,2025-11-08_11h36.39.538,MST_task,2024.2.2,60.399093047221974,2025-11-08 11h36.51.840518 +0530,
,,,,,,,,,,,,,,,,,,,,,,,,,,,,,,,,,,11.191593500000067,11.204172400000061,11.204172400000061,39.487381700000014,space,28.2804261,None,,,,,,,,,,,,,,,,,,,,,,,,,,,,,,,,,,,,,,,,,,,,,,,,,,,,,,,,,,,,,,,,,00015,001,2025-11-08_11h36.39.538,MST_task,2024.2.2,60.399093047221974,2025-11-08 11h36.51.840518 +0530,
,,,,,,,,,,,,,,,,,,,,,,,,,,,,,,,,,,,,,,,,,39.48740759999998,39.50360490000003,39.50360490000003,65.9201094,space,26.413770500000055,None,,,,,,,,,,,,,,,,,,,,,,,,,,,,,,,,,,,,,,,,,,,,,,,,,,,,,,,,,,00015,001,2025-11-08_11h36.39.538,MST_task,2024.2.2,60.399093047221974,2025-11-08 11h36.51.840518 +0530,
,,,,,,,,,,,,,,,,,,,,,,,,,,,,,,,,,,,,,,,,,,,,,,,,65.92014629999994,65.93631449999998,65.93631449999998,118.83556139999996,space,52.8834018,None,,,,,,,,,,,,,,,,,,,,,,,,,,,,,,,,,,,,,,,,,,,,,,,,,,,00015,001,2025-11-08_11h36.39.538,MST_task,2024.2.2,60.399093047221974,2025-11-08 11h36.51.840518 +0530,
10,practice_images/182a.jpg,0,0,0,None,f,2.0009768999998414,None,,,,,,,,,0,0,0,9,,,,,118.85197210000001,,,,,,,,,,,,,,,,,,,,,,,,,,,,,,118.83923640000012,118.85197210000001,119.38526690000003,119.33541790000004,119.36929839999993,119.38526690000003,119.38526690000003,119.38526690000003,122.35184260000005,None,122.35300370000004,122.36845850000009,122.36845850000009,124.38533640000014,f,2.0009768999998414,None,,,,,,,,,,,,,,,,,,,,,,,,,,,,,,,,,,00015,001,2025-11-08_11h36.39.538,MST_task,2024.2.2,60.399093047221974,2025-11-08 11h36.51.840518 +0530,
6,practice_images/158a.jpg,1,1,0,j,None,,,1.9744862000000012,0.1562652000000071,,,,,,,0,1,1,5,,,,,124.40173410000011,,,,,,,,,,,,,,,,,,,,,,,,,,,,,,124.3854060000001,124.40173410000011,124.91837409999994,124.88519399999996,124.89849249999997,124.91837409999994,124.91837409999994,124.91837409999994,127.90166240000008,j,127.90169630000014,,,127.9017057000001,None,,,1.9744862000000012,0.1562652000000071,,,,,,,,,,,,,,,,,,,,,,,,,,,,,,,,00015,001,2025-11-08_11h36.39.538,MST_task,2024.2.2,60.399093047221974,2025-11-08 11h36.51.840518 +0530,
2,practice_images/031a.jpg,2,2,0,f,None,,,1.499603499999921,0.15215059999991354,,,,,,,0,2,2,1,,,,,127.91831449999995,,,,,,,,,,,,,,,,,,,,,,,,,,,,,,127.90176330000008,127.91831449999995,128.43494609999993,128.4018562000001,128.41595940000002,128.43494609999993,128.43494609999993,128.43494609999993,131.41830830000004,f,131.41834590000008,,,131.4183547,None,,,1.499603499999921,0.15215059999991354,,,,,,,,,,,,,,,,,,,,,,,,,,,,,,,,00015,001,2025-11-08_11h36.39.538,MST_task,2024.2.2,60.399093047221974,2025-11-08 11h36.51.840518 +0530,
4,practice_images/002b.jpg,3,3,0,f,None,,,2.3652488000000176,0.15201060000003963,,,,,,,0,3,3,3,,,,,131.43490659999998,,,,,,,,,,,,,,,,,,,,,,,,,,,,,,131.41841320000003,131.43490659999998,131.95154520000006,131.9185758000001,131.93615120000004,131.95154520000006,131.95154520000006,131.95154520000006,134.93484540000009,f,134.9348781000001,,,134.93488690000004,None,,,2.3652488000000176,0.15201060000003963,,,,,,,,,,,,,,,,,,,,,,,,,,,,,,,,00015,001,2025-11-08_11h36.39.538,MST_task,2024.2.2,60.399093047221974,2025-11-08 11h36.51.840518 +0530,
9,practice_images/180a.jpg,4,4,0,f,None,,,1.5385837999999694,0.1762853999998697,,,,,,,0,4,4,8,,,,,134.95151740000006,,,,,,,,,,,,,,,,,,,,,,,,,,,,,,134.93494239999995,134.95151740000006,135.46815790000005,135.43499369999995,135.4494373,135.46815790000005,135.46815790000005,135.46815790000005,138.45144210000012,f,138.45147470000006,,,138.4514835,None,,,1.5385837999999694,0.1762853999998697,,,,,,,,,,,,,,,,,,,,,,,,,,,,,,,,00015,001,2025-11-08_11h36.39.538,MST_task,2024.2.2,60.399093047221974,2025-11-08 11h36.51.840518 +0530,
3,practice_images/037a.jpg,5,5,0,j,None,,,2.7110110000000986,0.1753475000000435,,,,,,,0,5,5,2,,,,,138.4681005,,,,,,,,,,,,,,,,,,,,,,,,,,,,,,138.4515417,138.4681005,,138.9515143000001,138.96775730000013,138.98474350000015,138.98474350000015,138.98474350000015,141.96807439999998,j,141.96958730000006,,,141.9695991000001,None,,,2.7110110000000986,0.1753475000000435,,,,,,,,,,,,,,,,,,,,,,,,,,,,,,,,00015,001,2025-11-08_11h36.39.538,MST_task,2024.2.2,60.399093047221974,2025-11-08 11h36.51.840518 +0530,
7,practice_images/166a.jpg,6,6,0,j,None,,,1.9056021999999757,0.15463580000005095,,,,,,,0,6,6,6,,,,,141.9846771,,,,,,,,,,,,,,,,,,,,,,,,,,,,,,141.9696530000001,141.9846771,142.50130710000008,142.46823480000012,142.48358989999997,142.50130710000008,142.50130710000008,142.50130710000008,145.48465699999997,j,145.48470399999997,,,145.48471289999998,None,,,1.9056021999999757,0.15463580000005095,,,,,,,,,,,,,,,,,,,,,,,,,,,,,,,,00015,001,2025-11-08_11h36.39.538,MST_task,2024.2.2,60.399093047221974,2025-11-08 11h36.51.840518 +0530,
8,practice_images/178a.jpg,7,7,0,f,None,,,1.6953134000000318,0.15531050000004143,,,,,,,0,7,7,7,,,,,145.5012448,,,,,,,,,,,,,,,,,,,,,,,,,,,,,,145.4847691,145.5012448,146.01793369999996,145.9848144,146.00462089999996,146.01793369999996,146.01793369999996,146.01793369999996,149.0012345,f,149.0012683,,,149.0012776000001,None,,,1.6953134000000318,0.15531050000004143,,,,,,,,,,,,,,,,,,,,,,,,,,,,,,,,00015,001,2025-11-08_11h36.39.538,MST_task,2024.2.2,60.399093047221974,2025-11-08 11h36.51.840518 +0530,
5,practice_images/139a.jpg,8,8,0,j,None,,,2.723404999999957,0.1413454000000911,,,,,,,0,8,8,4,,,,,149.01782860000003,,,,,,,,,,,,,,,,,,,,,,,,,,,,,,149.00133559999995,149.01782860000003,149.53450380000004,149.5013868000001,149.5177238000001,149.53450380000004,149.53450380000004,149.53450380000004,152.51778630000013,j,152.51781729999993,,,152.51782589999993,None,,,2.723404999999957,0.1413454000000911,,,,,,,,,,,,,,,,,,,,,,,,,,,,,,,,00015,001,2025-11-08_11h36.39.538,MST_task,2024.2.2,60.399093047221974,2025-11-08 11h36.51.840518 +0530,
1,practice_images/013a.jpg,9,9,0,j,None,,,2.305652499999951,0.17484730000001036,,,,,,,0,9,9,0,,,,,152.53445349999993,,,,,,,,,,,,,,,,,,,,,,,,,,,,,,152.51788260000012,152.53445349999993,,153.01790110000002,153.03726920000008,153.05108280000013,153.05108280000013,153.05108280000013,156.03438140000003,j,156.0344136000001,,,156.03442310000014,None,,,2.305652499999951,0.17484730000001036,,,,,,,,,,,,,,,,,,,,,,,,,,,,,,,,00015,001,2025-11-08_11h36.39.538,MST_task,2024.2.2,60.399093047221974,2025-11-08 11h36.51.840518 +0530,
,,,,,,,,,,,,,,,,,,,,,,,,,,,,,,,,,,,,,,,,,,,,,,,,,,,,,,,,,,,,,,,,,,,,,,,,,,156.0344629000001,156.05101880000007,156.05101880000007,177.6342999000001,space,21.576335599999993,None,,,,,,,,,,,,,,,,,,,,,,,,,00015,001,2025-11-08_11h36.39.538,MST_task,2024.2.2,60.399093047221974,2025-11-08 11h36.51.840518 +0530,
,Objects\060a.jpg,0,0,0,,,,,,,None,j,3.6302590999998756,None,,,,,,,0,0,0,0,177.6505442,,,,,,,,,,,,,,,,,,,,,,,,,,,,,,177.6348703000001,177.6505442,178.18412579999995,178.13416789999997,,,,,,,,,,,,,,,,,,,,,,,178.17201180000006,178.18412579999995,178.18412579999995,178.18412579999995,181.15056049999998,None,181.15279720000012,181.16713570000002,181.16713570000002,184.80070909999995,j,3.6302590999998756,None,,,,,,,,,,,,00015,001,2025-11-08_11h36.39.538,MST_task,2024.2.2,60.399093047221974,2025-11-08 11h36.51.840518 +0530,
,Objects\105a.jpg,1,0,1,,,,,,,f,None,,,2.5009640000000672,0.17819329999997535,,,,,1,0,1,0,184.8170897,,,,,,,,,,,,,,,,,,,,,,,,,,,,,,184.8007966,184.8170897,185.33371639999996,185.30066899999997,,,,,,,,,,,,,,,,,,,,,,,185.31681849999995,185.33371639999996,185.33371639999996,185.33371639999996,188.31714940000006,f,188.3171886,,,188.31719799999996,None,,,2.5009640000000672,0.17819329999997535,,,,,,,,,,00015,001,2025-11-08_11h36.39.538,MST_task,2024.2.2,60.399093047221974,2025-11-08 11h36.51.840518 +0530,
,Objects\112a.jpg,2,0,2,,,,,,,j,None,,,2.128939100000025,0.15365639999981795,,,,,2,0,2,0,188.33367829999997,,,,,,,,,,,,,,,,,,,,,,,,,,,,,,188.31725699999993,188.33367829999997,188.8503025,188.8171784000001,,,,,,,,,,,,,,,,,,,,,,,188.8325582,188.8503025,188.8503025,188.8503025,191.83373619999998,j,191.8337742000001,,,191.83378459999994,None,,,2.128939100000025,0.15365639999981795,,,,,,,,,,00015,001,2025-11-08_11h36.39.538,MST_task,2024.2.2,60.399093047221974,2025-11-08 11h36.51.840518 +0530,
,Objects\150a.jpg,3,0,3,,,,,,,j,None,,,1.3699521000000914,0.15015249999987645,,,,,3,0,3,0,191.8502794000001,,,,,,,,,,,,,,,,,,,,,,,,,,,,,,191.83384380000007,191.8502794000001,192.36693379999997,192.3338232000001,,,,,,,,,,,,,,,,,,,,,,,192.35060420000013,192.36693379999997,192.36693379999997,192.36693379999997,195.35033840000006,j,195.3503776,,,195.35038780000014,None,,,1.3699521000000914,0.15015249999987645,,,,,,,,,,00015,001,2025-11-08_11h36.39.538,MST_task,2024.2.2,60.399093047221974,2025-11-08 11h36.51.840518 +0530,
,Objects\006a.jpg,4,0,4,,,,,,,f,None,,,2.0933860000000095,0.14403809999998884,,,,,4,0,4,0,195.36691470000005,,,,,,,,,,,,,,,,,,,,,,,,,,,,,,195.35044770000013,195.36691470000005,195.88348500000006,195.85043300000007,,,,,,,,,,,,,,,,,,,,,,,195.87069889999998,195.88348500000006,195.88348500000006,195.88348500000006,198.8668192,f,198.86685770000008,,,198.86686750000013,None,,,2.0933860000000095,0.14403809999998884,,,,,,,,,,00015,001,2025-11-08_11h36.39.538,MST_task,2024.2.2,60.399093047221974,2025-11-08 11h36.51.840518 +0530,
,Objects\122a.jpg,5,0,5,,,,,,,f,None,,,2.127001299999847,0.1360707999999704,,,,,5,0,5,0,198.883423,,,,,,,,,,,,,,,,,,,,,,,,,,,,,,198.8669271000001,198.883423,199.40007459999993,199.36694540000008,,,,,,,,,,,,,,,,,,,,,,,199.39016659999993,199.40007459999993,199.40007459999993,199.40007459999993,202.38357240000005,f,202.38360970000008,,,202.38361929999996,None,,,2.127001299999847,0.1360707999999704,,,,,,,,,,00015,001,2025-11-08_11h36.39.538,MST_task,2024.2.2,60.399093047221974,2025-11-08 11h36.51.840518 +0530,
,Objects\047a.jpg,6,0,6,,,,,,,f,None,,,1.5643528000000515,0.11756769999988137,,,,,6,0,6,0,202.4000062,,,,,,,,,,,,,,,,,,,,,,,,,,,,,,202.38367560000006,202.4000062,202.91669049999996,202.88375100000007,,,,,,,,,,,,,,,,,,,,,,,202.89765320000015,202.91669049999996,202.91669049999996,202.91669049999996,205.90011210000011,f,205.90015080000012,,,205.9001608000001,None,,,1.5643528000000515,0.11756769999988137,,,,,,,,,,00015,001,2025-11-08_11h36.39.538,MST_task,2024.2.2,60.399093047221974,2025-11-08 11h36.51.840518 +0530,
,Scenes\032a.jpg,7,0,7,,,,,,,j,None,,,2.7826218999998673,0.15039890000002742,,,,,7,0,7,0,205.91662930000007,,,,,,,,,,,,,,,,,,,,,,,,,,,,,,205.90025179999998,205.91662930000007,206.45026200000007,206.4001267000001,,,,,,,,,,,,,,,,,,,,,,,206.43529349999994,206.45026200000007,206.45026200000007,206.45026200000007,209.4165934,j,209.41774609999993,,,209.41775759999996,None,,,2.7826218999998673,0.15039890000002742,,,,,,,,,,00015,001,2025-11-08_11h36.39.538,MST_task,2024.2.2,60.399093047221974,2025-11-08 11h36.51.840518 +0530,
,Scenes\116a.jpg,8,0,8,,,,,,,j,None,,,1.7372447000000193,0.16590070000006563,,,,,8,0,8,0,209.4332085000001,,,,,,,,,,,,,,,,,,,,,,,,,,,,,,209.41781170000013,209.4332085000001,209.95018410000011,209.9167437000001,,,,,,,,,,,,,,,,,,,,,,,209.941286,209.95018410000011,209.95018410000011,209.95018410000011,212.93314830000008,j,212.93319410000004,,,212.93320340000014,None,,,1.7372447000000193,0.16590070000006563,,,,,,,,,,00015,001,2025-11-08_11h36.39.538,MST_task,2024.2.2,60.399093047221974,2025-11-08 11h36.51.840518 +0530,
,Scenes\093a.jpg,9,0,9,,,,,,,f,None,,,1.9936883000000307,0.13061629999992874,,,,,9,0,9,0,212.94981200000007,,,,,,,,,,,,,,,,,,,,,,,,,,,,,,212.93328470000006,212.94981200000007,213.4831289000001,213.43329289999997,,,,,,,,,,,,,,,,,,,,,,,213.4613260000001,213.4831289000001,213.4831289000001,213.4831289000001,216.44988450000005,f,216.44991860000005,,,216.44992860000002,None,,,1.9936883000000307,0.13061629999992874,,,,,,,,,,00015,001,2025-11-08_11h36.39.538,MST_task,2024.2.2,60.399093047221974,2025-11-08 11h36.51.840518 +0530,
,Scenes\188a.jpg,10,0,10,,,,,,,j,None,,,2.1525727000000643,0.1428578000000016,,,,,10,0,10,0,216.46654669999998,,,,,,,,,,,,,,,,,,,,,,,,,,,,,,216.45001380000008,216.46654669999998,217.00022790000003,216.94996949999995,,,,,,,,,,,,,,,,,,,,,,,216.98231699999997,217.00022790000003,217.00022790000003,217.00022790000003,219.96642350000002,j,219.96645710000007,,,219.96646729999998,None,,,2.1525727000000643,0.1428578000000016,,,,,,,,,,00015,001,2025-11-08_11h36.39.538,MST_task,2024.2.2,60.399093047221974,2025-11-08 11h36.51.840518 +0530,
,Scenes\177a.jpg,11,0,11,,,,,,,j,None,,,1.6549959999999828,0.1533527999999933,,,,,11,0,11,0,219.9831091000001,,,,,,,,,,,,,,,,,,,,,,,,,,,,,,219.96652390000008,219.9831091000001,220.51643549999994,220.46656400000006,,,,,,,,,,,,,,,,,,,,,,,220.49818930000015,220.51643549999994,220.51643549999994,220.51643549999994,223.48300940000013,j,223.48304269999994,,,223.48305170000003,None,,,1.6549959999999828,0.1533527999999933,,,,,,,,,,00015,001,2025-11-08_11h36.39.538,MST_task,2024.2.2,60.399093047221974,2025-11-08 11h36.51.840518 +0530,
,Scenes\003a.jpg,12,0,12,,,,,,,j,None,,,1.3027979999999388,0.1451872000000094,,,,,12,0,12,0,223.49966960000006,,,,,,,,,,,,,,,,,,,,,,,,,,,,,,223.48311179999996,223.49966960000006,224.03326919999995,223.98314490000007,,,,,,,,,,,,,,,,,,,,,,,224.0119949,224.03326919999995,224.03326919999995,224.03326919999995,226.99960420000002,j,226.99963830000002,,,226.99964790000013,None,,,1.3027979999999388,0.1451872000000094,,,,,,,,,,00015,001,2025-11-08_11h36.39.538,MST_task,2024.2.2,60.399093047221974,2025-11-08 11h36.51.840518 +0530,
,Scenes\137a.jpg,13,0,13,,,,,,,j,None,,,1.2877441999999064,0.16197349999993094,,,,,13,0,13,0,227.01628720000008,,,,,,,,,,,,,,,,,,,,,,,,,,,,,,226.99973060000002,227.01628720000008,227.53314509999996,227.49972470000012,,,,,,,,,,,,,,,,,,,,,,,227.5225868,227.53314509999996,227.53314509999996,227.53314509999996,230.516206,j,230.51624040000002,,,230.51625020000006,None,,,1.2877441999999064,0.16197349999993094,,,,,,,,,,00015,001,2025-11-08_11h36.39.538,MST_task,2024.2.2,60.399093047221974,2025-11-08 11h36.51.840518 +0530,
,Objects\139a.jpg,14,0,14,,,,,,,f,None,,,1.7818394999999327,0.1691496000000825,,,,,14,0,14,0,230.53282080000008,,,,,,,,,,,,,,,,,,,,,,,,,,,,,,230.51635310000006,230.53282080000008,231.04975860000013,231.01637540000002,,,,,,,,,,,,,,,,,,,,,,,231.04195849999996,231.04975860000013,231.04975860000013,231.04975860000013,234.0328356,f,234.03424829999994,,,234.03425970000012,None,,,1.7818394999999327,0.1691496000000825,,,,,,,,,,00015,001,2025-11-08_11h36.39.538,MST_task,2024.2.2,60.399093047221974,2025-11-08 11h36.51.840518 +0530,
,Objects\159a.jpg,15,0,15,,,,,,,f,None,,,2.2261272000000645,0.1742607000001044,,,,,15,0,15,0,234.04941099999996,,,,,,,,,,,,,,,,,,,,,,,,,,,,,,234.03431969999997,234.04941099999996,234.58274640000013,234.53291490000015,,,,,,,,,,,,,,,,,,,,,,,234.56357400000002,234.58274640000013,234.58274640000013,234.58274640000013,237.5494341000001,f,237.54946829999994,,,237.54947779999998,None,,,2.2261272000000645,0.1742607000001044,,,,,,,,,,00015,001,2025-11-08_11h36.39.538,MST_task,2024.2.2,60.399093047221974,2025-11-08 11h36.51.840518 +0530,
,Objects\130a.jpg,16,0,16,,,,,,,j,None,,,1.778193999999985,0.1498137000000952,,,,,16,0,16,0,237.5660272,,,,,,,,,,,,,,,,,,,,,,,,,,,,,,237.54955740000014,237.5660272,238.0826687000001,238.04946139999993,,,,,,,,,,,,,,,,,,,,,,,238.06922869999994,238.0826687000001,238.0826687000001,238.0826687000001,241.06609900000012,j,241.06613400000015,,,241.0661437000001,None,,,1.778193999999985,0.1498137000000952,,,,,,,,,,00015,001,2025-11-08_11h36.39.538,MST_task,2024.2.2,60.399093047221974,2025-11-08 11h36.51.840518 +0530,
,Objects\067a.jpg,17,0,17,,,,,,,f,None,,,1.1361481000001277,0.17726569999990716,,,,,17,0,17,0,241.08265400000005,,,,,,,,,,,,,,,,,,,,,,,,,,,,,,241.06620199999998,241.08265400000005,241.59925199999998,241.56611190000012,,,,,,,,,,,,,,,,,,,,,,,241.5900448,241.59925199999998,241.59925199999998,241.59925199999998,244.58262919999993,f,244.58266389999994,,,244.58267350000006,None,,,1.1361481000001277,0.17726569999990716,,,,,,,,,,00015,001,2025-11-08_11h36.39.538,MST_task,2024.2.2,60.399093047221974,2025-11-08 11h36.51.840518 +0530,
,Objects\102a.jpg,18,0,18,,,,,,,j,None,,,2.526792599999908,0.1381908000000749,,,,,18,0,18,0,244.5992119,,,,,,,,,,,,,,,,,,,,,,,,,,,,,,244.58275279999998,244.5992119,,245.0827402,,,,,,,,,,,,,,,,,,,,,,,245.1027454,245.1158491000001,245.1158491000001,245.1158491000001,248.0992013,j,248.09924210000008,,,248.0992503,None,,,2.526792599999908,0.1381908000000749,,,,,,,,,,00015,001,2025-11-08_11h36.39.538,MST_task,2024.2.2,60.399093047221974,2025-11-08 11h36.51.840518 +0530,
,Objects\057a.jpg,19,0,19,,,,,,,j,None,,,2.603034799999932,0.15752939999993032,,,,,19,0,19,0,248.11571240000012,,,,,,,,,,,,,,,,,,,,,,,,,,,,,,248.0993059,248.11571240000012,248.6323387,248.59923780000008,,,,,,,,,,,,,,,,,,,,,,,248.62722000000008,248.6323387,248.6323387,248.6323387,251.61580240000012,j,251.61584970000013,,,251.61586050000005,None,,,2.603034799999932,0.15752939999993032,,,,,,,,,,00015,001,2025-11-08_11h36.39.538,MST_task,2024.2.2,60.399093047221974,2025-11-08 11h36.51.840518 +0530,
,Objects\090a.jpg,20,0,20,,,,,,,j,None,,,1.519602599999871,0.17772600000012062,,,,,20,0,20,0,251.63230079999994,,,,,,,,,,,,,,,,,,,,,,,,,,,,,,251.6159239000001,251.63230079999994,252.1489348,252.11590260000003,,,,,,,,,,,,,,,,,,,,,,,252.13497440000015,252.1489348,252.1489348,252.1489348,255.13240059999998,j,255.1324383000001,,,255.1324482,None,,,1.519602599999871,0.17772600000012062,,,,,,,,,,00015,001,2025-11-08_11h36.39.538,MST_task,2024.2.2,60.399093047221974,2025-11-08 11h36.51.840518 +0530,
,Scenes\034a.jpg,21,0,21,,,,,,,None,f,0.050068700000110766,None,,,,,,,21,0,21,0,255.14893359999996,,,,,,,,,,,,,,,,,,,,,,,,,,,,,,255.13251379999997,255.14893359999996,255.68246969999996,255.6325061,,,,,,,,,,,,,,,,,,,,,,,255.67001260000006,255.68246969999996,255.68246969999996,255.68246969999996,258.64883970000005,None,258.6500324000001,258.66548549999993,258.66548549999993,258.7159584000001,f,0.050068700000110766,None,,,,,,,,,,,,00015,001,2025-11-08_11h36.39.538,MST_task,2024.2.2,60.399093047221974,2025-11-08 11h36.51.840518 +0530,
,Scenes\134a.jpg,22,0,22,,,,,,,j,None,,,1.3690505999998095,0.15893620000019837,,,,,22,0,22,0,258.73215589999995,,,,,,,,,,,,,,,,,,,,,,,,,,,,,,258.71605079999995,258.73215589999995,259.2657136,259.2156394000001,,,,,,,,,,,,,,,,,,,,,,,259.2497872000001,259.2657136,259.2657136,259.2657136,262.2321948000001,j,262.23222980000014,,,262.23223989999997,None,,,1.3690505999998095,0.15893620000019837,,,,,,,,,,00015,001,2025-11-08_11h36.39.538,MST_task,2024.2.2,60.399093047221974,2025-11-08 11h36.51.840518 +0530,
,Scenes\168a.jpg,23,0,23,,,,,,,j,None,,,2.052845400000024,0.149437700000135,,,,,23,0,23,0,262.24880540000004,,,,,,,,,,,,,,,,,,,,,,,,,,,,,,262.23232640000015,262.24880540000004,262.7823599999999,262.7322712,,,,,,,,,,,,,,,,,,,,,,,262.76444349999997,262.7823599999999,262.7823599999999,262.7823599999999,265.7488082,j,265.7488476000001,,,265.7488575,None,,,2.052845400000024,0.149437700000135,,,,,,,,,,00015,001,2025-11-08_11h36.39.538,MST_task,2024.2.2,60.399093047221974,2025-11-08 11h36.51.840518 +0530,
,Scenes\119a.jpg,24,0,24,,,,,,,j,None,,,1.5550261000000773,0.1377944999999272,,,,,24,0,24,0,265.7653269,,,,,,,,,,,,,,,,,,,,,,,,,,,,,,265.74891709999997,265.7653269,266.2819789,266.24889410000014,,,,,,,,,,,,,,,,,,,,,,,266.27310080000007,266.2819789,266.2819789,266.2819789,269.26538670000014,j,269.2654248000001,,,269.26543489999995,None,,,1.5550261000000773,0.1377944999999272,,,,,,,,,,00015,001,2025-11-08_11h36.39.538,MST_task,2024.2.2,60.399093047221974,2025-11-08 11h36.51.840518 +0530,
,Scenes\088a.jpg,25,0,25,,,,,,,j,None,,,1.1274795000001632,0.15015539999990324,,,,,25,0,25,0,269.2819233,,,,,,,,,,,,,,,,,,,,,,,,,,,,,,269.26552749999996,269.2819233,269.81545359999996,269.7654130000001,,,,,,,,,,,,,,,,,,,,,,,269.80248589999997,269.81545359999996,269.81545359999996,269.81545359999996,272.7819360000001,j,272.78197509999995,,,272.7819853000001,None,,,1.1274795000001632,0.15015539999990324,,,,,,,,,,00015,001,2025-11-08_11h36.39.538,MST_task,2024.2.2,60.399093047221974,2025-11-08 11h36.51.840518 +0530,
,Scenes\185a.jpg,26,0,26,,,,,,,j,None,,,2.091530700000021,0.14700549999997747,,,,,26,0,26,0,272.7984791000001,,,,,,,,,,,,,,,,,,,,,,,,,,,,,,272.78207250000014,272.7984791000001,273.3154463000001,273.2820497,,,,,,,,,,,,,,,,,,,,,,,273.3047726,273.3154463000001,273.3154463000001,273.3154463000001,276.2986128,j,276.2986485000001,,,276.2986578,None,,,2.091530700000021,0.14700549999997747,,,,,,,,,,00015,001,2025-11-08_11h36.39.538,MST_task,2024.2.2,60.399093047221974,2025-11-08 11h36.51.840518 +0530,
,Scenes\069a.jpg,27,0,27,,,,,,,j,None,,,1.4265700999999353,0.14228219999995417,,,,,27,0,27,0,276.31507080000006,,,,,,,,,,,,,,,,,,,,,,,,,,,,,,276.29871460000004,276.31507080000006,276.84874200000013,276.7986479000001,,,,,,,,,,,,,,,,,,,,,,,276.82966469999997,276.84874200000013,276.84874200000013,276.84874200000013,279.81503580000003,j,279.81507149999993,,,279.8150806000001,None,,,1.4265700999999353,0.14228219999995417,,,,,,,,,,00015,001,2025-11-08_11h36.39.538,MST_task,2024.2.2,60.399093047221974,2025-11-08 11h36.51.840518 +0530,
,Objects\038a.jpg,28,0,28,,,,,,,f,None,,,1.2830575000000408,0.15781829999991714,,,,,28,0,28,0,279.83169210000005,,,,,,,,,,,,,,,,,,,,,,,,,,,,,,279.8151685,279.83169210000005,280.3486412,280.31513510000013,,,,,,,,,,,,,,,,,,,,,,,280.34116740000013,280.3486412,280.3486412,280.3486412,283.33165499999996,f,283.33309729999996,,,283.33310890000007,None,,,1.2830575000000408,0.15781829999991714,,,,,,,,,,00015,001,2025-11-08_11h36.39.538,MST_task,2024.2.2,60.399093047221974,2025-11-08 11h36.51.840518 +0530,
,Objects\007a.jpg,29,0,29,,,,,,,j,None,,,1.2405266999999185,0.14096919999997226,,,,,29,0,29,0,283.34825320000004,,,,,,,,,,,,,,,,,,,,,,,,,,,,,,283.3331889000001,283.34825320000004,283.88157820000015,283.8318368,,,,,,,,,,,,,,,,,,,,,,,283.86641710000004,283.88157820000015,283.88157820000015,283.88157820000015,286.8483466,j,286.84838630000013,,,286.8483962,None,,,1.2405266999999185,0.14096919999997226,,,,,,,,,,00015,001,2025-11-08_11h36.39.538,MST_task,2024.2.2,60.399093047221974,2025-11-08 11h36.51.840518 +0530,
,Objects\016a.jpg,30,0,30,,,,,,,f,None,,,1.1034925000001294,0.1662048999999115,,,,,30,0,30,0,286.86486919999993,,,,,,,,,,,,,,,,,,,,,,,,,,,,,,286.8484576999999,286.86486919999993,287.3814995,287.3483801,,,,,,,,,,,,,,,,,,,,,,,287.37572049999994,287.3814995,287.3814995,287.3814995,290.36483440000006,f,290.3648839,,,290.36489359999996,None,,,1.1034925000001294,0.1662048999999115,,,,,,,,,,00015,001,2025-11-08_11h36.39.538,MST_task,2024.2.2,60.399093047221974,2025-11-08 11h36.51.840518 +0530,
,Objects\048a.jpg,31,0,31,,,,,,,j,None,,,1.40844519999996,0.14691919999995662,,,,,31,0,31,0,290.38149670000007,,,,,,,,,,,,,,,,,,,,,,,,,,,,,,290.36498030000007,290.38149670000007,290.898148,290.8649947000001,,,,,,,,,,,,,,,,,,,,,,,290.89128959999994,290.898148,290.898148,290.898148,293.8813874,j,293.88141999999993,,,293.8814291000001,None,,,1.40844519999996,0.14691919999995662,,,,,,,,,,00015,001,2025-11-08_11h36.39.538,MST_task,2024.2.2,60.399093047221974,2025-11-08 11h36.51.840518 +0530,
,Objects\165a.jpg,32,0,32,,,,,,,f,None,,,1.3063154000001305,0.15372279999996863,,,,,32,0,32,0,293.89805950000004,,,,,,,,,,,,,,,,,,,,,,,,,,,,,,293.88148810000007,293.89805950000004,294.43137709999996,294.38159050000013,,,,,,,,,,,,,,,,,,,,,,,294.4121104000001,294.43137709999996,294.43137709999996,294.43137709999996,297.3980389999999,f,297.39807870000004,,,297.3980888000001,None,,,1.3063154000001305,0.15372279999996863,,,,,,,,,,00015,001,2025-11-08_11h36.39.538,MST_task,2024.2.2,60.399093047221974,2025-11-08 11h36.51.840518 +0530,
,Objects\031a.jpg,33,0,33,,,,,,,j,None,,,1.276773300000059,0.15772229999993215,,,,,33,0,33,0,297.4146997,,,,,,,,,,,,,,,,,,,,,,,,,,,,,,297.3981874000001,297.4146997,297.9646058000001,297.89822090000007,,,,,,,,,,,,,,,,,,,,,,,297.9466652000001,297.9646058000001,297.9646058000001,297.9646058000001,300.9146158000001,j,300.91465270000003,,,300.91466330000003,None,,,1.276773300000059,0.15772229999993215,,,,,,,,,,00015,001,2025-11-08_11h36.39.538,MST_task,2024.2.2,60.399093047221974,2025-11-08 11h36.51.840518 +0530,
,Objects\169a.jpg,34,0,34,,,,,,,None,f,0.39936199999988276,None,,,,,,,34,0,34,0,300.93124020000005,,,,,,,,,,,,,,,,,,,,,,,,,,,,,,300.9147498,300.93124020000005,301.46454730000005,301.41470730000015,,,,,,,,,,,,,,,,,,,,,,,301.44984769999996,301.46454730000005,301.46454730000005,301.46454730000005,304.4311986,None,304.4312423000001,304.44780000000014,304.44780000000014,304.84823299999994,f,0.39936199999988276,None,,,,,,,,,,,,00015,001,2025-11-08_11h36.39.538,MST_task,2024.2.2,60.399093047221974,2025-11-08 11h36.51.840518 +0530,
,Scenes\107a.jpg,35,0,35,,,,,,,j,None,,,2.0977832999999464,0.12892260000012357,,,,,35,0,35,0,304.8645116,,,,,,,,,,,,,,,,,,,,,,,,,,,,,,304.8483103000001,304.8645116,305.39780910000013,305.3479367,,,,,,,,,,,,,,,,,,,,,,,305.38228989999993,305.39780910000013,305.39780910000013,305.39780910000013,308.3644709,j,308.3657892000001,,,308.3658035000001,None,,,2.0977832999999464,0.12892260000012357,,,,,,,,,,00015,001,2025-11-08_11h36.39.538,MST_task,2024.2.2,60.399093047221974,2025-11-08 11h36.51.840518 +0530,
,Scenes\084a.jpg,36,0,36,,,,,,,None,j,0.33402380000006815,None,,,,,,,36,0,36,0,308.38108510000006,,,,,,,,,,,,,,,,,,,,,,,,,,,,,,308.365863,308.38108510000006,310.8644661000001,308.86454019999996,,,,,,,,,,,,,,,,,,,,,,,310.8561998,310.8644661000001,310.8644661000001,310.8644661000001,311.88105270000005,None,311.88111019999997,311.89779780000003,311.89779780000003,312.2482003,j,0.33402380000006815,None,,,,,,,,,,,,00015,001,2025-11-08_11h36.39.538,MST_task,2024.2.2,60.399093047221974,2025-11-08 11h36.51.840518 +0530,
,Scenes\165a.jpg,37,0,37,,,,,,,j,None,,,1.8347872000001644,0.12317979999988893,,,,,37,0,37,0,312.2643869000001,,,,,,,,,,,,,,,,,,,,,,,,,,,,,,312.24830829999996,312.2643869000001,312.7806247000001,312.7479522000001,,,,,,,,,,,,,,,,,,,,,,,312.7741052000001,312.7806247000001,312.7806247000001,312.7806247000001,315.7642965,j,315.7643435,,,315.76435360000005,None,,,1.8347872000001644,0.12317979999988893,,,,,,,,,,00015,001,2025-11-08_11h36.39.538,MST_task,2024.2.2,60.399093047221974,2025-11-08 11h36.51.840518 +0530,
,Scenes\019a.jpg,38,0,38,,,,,,,f,None,,,1.5464386999999533,0.14634360000013658,,,,,38,0,38,0,315.78087000000005,,,,,,,,,,,,,,,,,,,,,,,,,,,,,,315.7644164000001,315.78087000000005,316.31424560000005,316.26439230000005,,,,,,,,,,,,,,,,,,,,,,,316.2984934000001,316.31424560000005,316.31424560000005,316.31424560000005,319.2808325000001,f,319.2808666000001,,,319.2808764000001,None,,,1.5464386999999533,0.14634360000013658,,,,,,,,,,00015,001,2025-11-08_11h36.39.538,MST_task,2024.2.2,60.399093047221974,2025-11-08 11h36.51.840518 +0530,
,Scenes\010a.jpg,39,0,39,,,,,,,None,j,0.43853889999991225,None,,,,,,,39,0,39,0,319.2975139,,,,,,,,,,,,,,,,,,,,,,,,,,,,,,319.2809328000001,319.2975139,321.9142319,319.78101800000013,,,,,,,,,,,,,,,,,,,,,,,321.8945999,321.9142319,321.9142319,321.9142319,322.7974733000001,None,322.79752499999995,322.81413040000007,322.81413040000007,323.26453600000013,j,0.43853889999991225,None,,,,,,,,,,,,00015,001,2025-11-08_11h36.39.538,MST_task,2024.2.2,60.399093047221974,2025-11-08 11h36.51.840518 +0530,
,Scenes\178a.jpg,40,0,40,,,,,,,j,None,,,1.23112180000021,0.1662050999998428,,,,,40,0,40,0,323.2808202000001,,,,,,,,,,,,,,,,,,,,,,,,,,,,,,323.26464980000014,323.2808202000001,323.8140985,323.7643541,,,,,,,,,,,,,,,,,,,,,,,323.7930632,323.8140985,323.8140985,323.8140985,326.780841,j,326.78087989999995,,,326.78089109999996,None,,,1.23112180000021,0.1662050999998428,,,,,,,,,,00015,001,2025-11-08_11h36.39.538,MST_task,2024.2.2,60.399093047221974,2025-11-08 11h36.51.840518 +0530,
,Scenes\123a.jpg,41,0,41,,,,,,,j,None,,,0.9460292999999638,0.1804736999999932,,,,,41,0,41,0,326.7974101,,,,,,,,,,,,,,,,,,,,,,,,,,,,,,326.78095469999994,326.7974101,327.33086430000003,327.2808302000001,,,,,,,,,,,,,,,,,,,,,,,327.3193265,327.33086430000003,327.33086430000003,327.33086430000003,330.29738020000013,j,330.29741460000014,,,330.2974242,None,,,0.9460292999999638,0.1804736999999932,,,,,,,,,,00015,001,2025-11-08_11h36.39.538,MST_task,2024.2.2,60.399093047221974,2025-11-08 11h36.51.840518 +0530,
,Objects\089a.jpg,42,0,42,,,,,,,j,None,,,1.4040135000000191,0.15870029999996405,,,,,42,0,42,0,330.3140493000001,,,,,,,,,,,,,,,,,,,,,,,,,,,,,,330.29751409999994,330.3140493000001,330.8308912,330.7974399,,,,,,,,,,,,,,,,,,,,,,,330.8210260000001,330.8308912,330.8308912,330.8308912,333.8139592,j,333.8154823,,,333.8154965000001,None,,,1.4040135000000191,0.15870029999996405,,,,,,,,,,00015,001,2025-11-08_11h36.39.538,MST_task,2024.2.2,60.399093047221974,2025-11-08 11h36.51.840518 +0530,
,Objects\149a.jpg,43,0,43,,,,,,,j,None,,,2.035389600000144,0.1536271999998462,,,,,43,0,43,0,333.83051390000014,,,,,,,,,,,,,,,,,,,,,,,,,,,,,,333.81558229999996,333.83051390000014,334.3638499000001,334.31399409999995,,,,,,,,,,,,,,,,,,,,,,,334.3471491,334.3638499000001,334.3638499000001,334.3638499000001,337.3304734000001,j,337.3305097,,,337.33051950000004,None,,,2.035389600000144,0.1536271999998462,,,,,,,,,,00015,001,2025-11-08_11h36.39.538,MST_task,2024.2.2,60.399093047221974,2025-11-08 11h36.51.840518 +0530,
,Objects\023a.jpg,44,0,44,,,,,,,f,None,,,1.766780400000016,0.15481900000008864,,,,,44,0,44,0,337.34712860000013,,,,,,,,,,,,,,,,,,,,,,,,,,,,,,337.33060739999996,337.34712860000013,337.86384670000007,337.83067819999997,,,,,,,,,,,,,,,,,,,,,,,337.85648850000007,337.86384670000007,337.86384670000007,337.86384670000007,340.8478,f,340.84783530000004,,,340.8478451000001,None,,,1.766780400000016,0.15481900000008864,,,,,,,,,,00015,001,2025-11-08_11h36.39.538,MST_task,2024.2.2,60.399093047221974,2025-11-08 11h36.51.840518 +0530,
,Objects\187a.jpg,45,0,45,,,,,,,f,None,,,0.8788982999999462,0.13753250000013395,,,,,45,0,45,0,340.8637040000001,,,,,,,,,,,,,,,,,,,,,,,,,,,,,,340.84790399999997,340.8637040000001,341.93032089999997,341.3471787000001,,,,,,,,,,,,,,,,,,,,,,,341.9120336000001,341.93032089999997,341.93032089999997,341.93032089999997,344.3637590000001,f,344.36380150000014,,,344.36381230000006,None,,,0.8788982999999462,0.13753250000013395,,,,,,,,,,00015,001,2025-11-08_11h36.39.538,MST_task,2024.2.2,60.399093047221974,2025-11-08 11h36.51.840518 +0530,
,Objects\001a.jpg,46,0,46,,,,,,,f,None,,,1.3878500999999233,0.13173349999988204,,,,,46,0,46,0,344.3802879,,,,,,,,,,,,,,,,,,,,,,,,,,,,,,344.36391760000015,344.3802879,344.91361269999993,344.8637811000001,,,,,,,,,,,,,,,,,,,,,,,344.89404119999995,344.91361269999993,344.91361269999993,344.91361269999993,347.88024599999994,f,347.88028740000004,,,347.88029729999994,None,,,1.3878500999999233,0.13173349999988204,,,,,,,,,,00015,001,2025-11-08_11h36.39.538,MST_task,2024.2.2,60.399093047221974,2025-11-08 11h36.51.840518 +0530,
,Objects\069a.jpg,47,0,47,,,,,,,j,None,,,1.19151039999997,0.11457599999994272,,,,,47,0,47,0,347.8977520000001,,,,,,,,,,,,,,,,,,,,,,,,,,,,,,347.8803604,347.8977520000001,,348.38037529999997,,,,,,,,,,,,,,,,,,,,,,,348.40374450000013,348.4135099,348.4135099,348.4135099,351.39684750000015,j,351.3969061,,,351.39691560000006,None,,,1.19151039999997,0.11457599999994272,,,,,,,,,,00015,001,2025-11-08_11h36.39.538,MST_task,2024.2.2,60.399093047221974,2025-11-08 11h36.51.840518 +0530,
,Objects\013a.jpg,48,0,48,,,,,,,j,None,,,1.4080521000000772,0.08601229999999305,,,,,48,0,48,0,351.41348730000004,,,,,,,,,,,,,,,,,,,,,,,,,,,,,,351.39701579999996,351.41348730000004,351.9468147,351.89698620000013,,,,,,,,,,,,,,,,,,,,,,,351.93507640000007,351.9468147,351.9468147,351.9468147,354.91349650000006,j,354.9135347000001,,,354.9135454,None,,,1.4080521000000772,0.08601229999999305,,,,,,,,,,00015,001,2025-11-08_11h36.39.538,MST_task,2024.2.2,60.399093047221974,2025-11-08 11h36.51.840518 +0530,
,Scenes\007a.jpg,49,0,49,,,,,,,None,f,0.3105619000000388,None,,,,,,,49,0,49,0,354.9300476000001,,,,,,,,,,,,,,,,,,,,,,,,,,,,,,354.91360810000015,354.9300476000001,355.4633966000001,355.41356999999994,,,,,,,,,,,,,,,,,,,,,,,355.45186850000005,355.4633966000001,355.4633966000001,355.4633966000001,358.43005300000004,None,358.43126699999993,358.4466241,358.4466241,358.7637215,f,0.3105619000000388,None,,,,,,,,,,,,00015,001,2025-11-08_11h36.39.538,MST_task,2024.2.2,60.399093047221974,2025-11-08 11h36.51.840518 +0530,
,Scenes\021a.jpg,50,0,50,,,,,,,f,None,,,1.9692998000000443,0.15695289999985107,,,,,50,0,50,0,358.7800247,,,,,,,,,,,,,,,,,,,,,,,,,,,,,,358.7637889,358.7800247,359.2970093000001,359.26344900000004,,,,,,,,,,,,,,,,,,,,,,,359.28895420000003,359.2970093000001,359.2970093000001,359.2970093000001,362.2799635000001,f,362.2800052,,,362.28001560000007,None,,,1.9692998000000443,0.15695289999985107,,,,,,,,,,00015,001,2025-11-08_11h36.39.538,MST_task,2024.2.2,60.399093047221974,2025-11-08 11h36.51.840518 +0530,
,Scenes\086a.jpg,51,0,51,,,,,,,j,None,,,1.8536493999999948,0.16180310000004283,,,,,51,0,51,0,362.2965752,,,,,,,,,,,,,,,,,,,,,,,,,,,,,,362.2800757,362.2965752,362.8131969000001,362.7800526000001,,,,,,,,,,,,,,,,,,,,,,,362.8041954,362.8131969000001,362.8131969000001,362.8131969000001,365.79652750000014,j,365.7965772,,,365.79658670000003,None,,,1.8536493999999948,0.16180310000004283,,,,,,,,,,00015,001,2025-11-08_11h36.39.538,MST_task,2024.2.2,60.399093047221974,2025-11-08 11h36.51.840518 +0530,
,Scenes\171a.jpg,52,0,52,,,,,,,f,None,,,1.0663752000000386,0.15757689999986724,,,,,52,0,52,0,365.81316459999994,,,,,,,,,,,,,,,,,,,,,,,,,,,,,,365.79666910000014,365.81316459999994,,366.2966329000001,,,,,,,,,,,,,,,,,,,,,,,366.33611080000014,366.3467929000001,366.3467929000001,366.3467929000001,369.31309340000007,f,369.31313850000015,,,369.3131469,None,,,1.0663752000000386,0.15757689999986724,,,,,,,,,,00015,001,2025-11-08_11h36.39.538,MST_task,2024.2.2,60.399093047221974,2025-11-08 11h36.51.840518 +0530,
,Scenes\166a.jpg,53,0,53,,,,,,,j,None,,,1.48382689999994,0.15411000000017339,,,,,53,0,53,0,369.3297513,,,,,,,,,,,,,,,,,,,,,,,,,,,,,,369.3132396000001,369.3297513,369.8631012000001,369.81319959999996,,,,,,,,,,,,,,,,,,,,,,,369.84132950000003,369.8631012000001,369.8631012000001,369.8631012000001,372.8296964000001,j,372.82974250000007,,,372.8297520000001,None,,,1.48382689999994,0.15411000000017339,,,,,,,,,,00015,001,2025-11-08_11h36.39.538,MST_task,2024.2.2,60.399093047221974,2025-11-08 11h36.51.840518 +0530,
,Scenes\106a.jpg,54,0,54,,,,,,,j,None,,,1.8572105999999167,0.14646749999997155,,,,,54,0,54,0,372.8463461000001,,,,,,,,,,,,,,,,,,,,,,,,,,,,,,372.82980799999996,372.8463461000001,373.37972230000014,373.3298043,,,,,,,,,,,,,,,,,,,,,,,373.35967159999996,373.37972230000014,373.37972230000014,373.37972230000014,376.3463246000001,j,376.34635930000013,,,376.3463689,None,,,1.8572105999999167,0.14646749999997155,,,,,,,,,,00015,001,2025-11-08_11h36.39.538,MST_task,2024.2.2,60.399093047221974,2025-11-08 11h36.51.840518 +0530,
,Scenes\078a.jpg,55,0,55,,,,,,,j,None,,,2.196534500000098,0.14603799999986222,,,,,55,0,55,0,376.36290140000006,,,,,,,,,,,,,,,,,,,,,,,,,,,,,,376.3464553000001,376.36290140000006,376.89645310000014,376.8464623,,,,,,,,,,,,,,,,,,,,,,,376.87408359999995,376.89645310000014,376.89645310000014,376.89645310000014,379.86289110000007,j,379.86294050000015,,,379.86295029999997,None,,,2.196534500000098,0.14603799999986222,,,,,,,,,,00015,001,2025-11-08_11h36.39.538,MST_task,2024.2.2,60.399093047221974,2025-11-08 11h36.51.840518 +0530,
,Objects\161a.jpg,56,0,56,,,,,,,f,None,,,1.3953957999999602,0.14075759999991533,,,,,56,0,56,0,379.87949589999994,,,,,,,,,,,,,,,,,,,,,,,,,,,,,,379.8630399000001,379.87949589999994,380.3964341000001,380.3631021000001,,,,,,,,,,,,,,,,,,,,,,,380.3836751000001,380.3964341000001,380.3964341000001,380.3964341000001,383.3794654000001,f,383.3810126000001,,,383.3810244000001,None,,,1.3953957999999602,0.14075759999991533,,,,,,,,,,00015,001,2025-11-08_11h36.39.538,MST_task,2024.2.2,60.399093047221974,2025-11-08 11h36.51.840518 +0530,
,Objects\160a.jpg,57,0,57,,,,,,,f,None,,,1.76330669999993,0.13453660000004675,,,,,57,0,57,0,383.39612409999995,,,,,,,,,,,,,,,,,,,,,,,,,,,,,,383.38108050000005,383.39612409999995,383.97949560000006,383.8795437000001,,,,,,,,,,,,,,,,,,,,,,,383.96712950000006,383.97949560000006,383.97949560000006,383.97949560000006,386.89606030000004,f,386.89609310000014,,,386.8961028000001,None,,,1.76330669999993,0.13453660000004675,,,,,,,,,,00015,001,2025-11-08_11h36.39.538,MST_task,2024.2.2,60.399093047221974,2025-11-08 11h36.51.840518 +0530,
,Objects\179a.jpg,58,0,58,,,,,,,f,None,,,0.9160907999998926,0.14117640000017673,,,,,58,0,58,0,386.91269940000006,,,,,,,,,,,,,,,,,,,,,,,,,,,,,,386.89616,386.91269940000006,387.42938300000014,387.3962478000001,,,,,,,,,,,,,,,,,,,,,,,387.4234014000001,387.42938300000014,387.42938300000014,387.42938300000014,390.41264419999993,f,390.4126840000001,,,390.4126939,None,,,0.9160907999998926,0.14117640000017673,,,,,,,,,,00015,001,2025-11-08_11h36.39.538,MST_task,2024.2.2,60.399093047221974,2025-11-08 11h36.51.840518 +0530,
,Objects\131a.jpg,59,0,59,,,,,,,j,None,,,1.1030860000000757,0.15394719999994777,,,,,59,0,59,0,390.42930330000013,,,,,,,,,,,,,,,,,,,,,,,,,,,,,,390.41277620000005,390.42930330000013,390.94599270000003,390.91272030000005,,,,,,,,,,,,,,,,,,,,,,,390.9420563000001,390.94599270000003,390.94599270000003,390.94599270000003,393.9292507,j,393.92928340000003,,,393.9292931,None,,,1.1030860000000757,0.15394719999994777,,,,,,,,,,00015,001,2025-11-08_11h36.39.538,MST_task,2024.2.2,60.399093047221974,2025-11-08 11h36.51.840518 +0530,
,Objects\183a.jpg,60,0,60,,,,,,,j,None,,,1.0486818999997922,0.1287595000001147,,,,,60,0,60,0,393.94588840000006,,,,,,,,,,,,,,,,,,,,,,,,,,,,,,393.92935020000004,393.94588840000006,394.47921859999997,394.4294153000001,,,,,,,,,,,,,,,,,,,,,,,394.461589,394.47921859999997,394.47921859999997,394.47921859999997,397.44583979999993,j,397.4458757,,,397.44588509999994,None,,,1.0486818999997922,0.1287595000001147,,,,,,,,,,00015,001,2025-11-08_11h36.39.538,MST_task,2024.2.2,60.399093047221974,2025-11-08 11h36.51.840518 +0530,
,Objects\039a.jpg,61,0,61,,,,,,,j,None,,,1.332583999999997,0.12760630000002493,,,,,61,0,61,0,397.46248319999995,,,,,,,,,,,,,,,,,,,,,,,,,,,,,,397.44596990000014,397.46248319999995,397.97910419999994,397.9459813000001,,,,,,,,,,,,,,,,,,,,,,,397.97465060000013,397.97910419999994,397.97910419999994,397.97910419999994,400.96245380000005,j,400.96249349999994,,,400.96250370000007,None,,,1.332583999999997,0.12760630000002493,,,,,,,,,,00015,001,2025-11-08_11h36.39.538,MST_task,2024.2.2,60.399093047221974,2025-11-08 11h36.51.840518 +0530,
,Objects\190a.jpg,62,0,62,,,,,,,f,None,,,1.3046720999998342,0.1523234000001139,,,,,62,0,62,0,400.9790806000001,,,,,,,,,,,,,,,,,,,,,,,,,,,,,,400.9625939,400.9790806000001,401.4956946,401.4625387000001,,,,,,,,,,,,,,,,,,,,,,,401.49025819999997,401.4956946,401.4956946,401.4956946,404.4790514000001,f,404.47908570000004,,,404.4790951,None,,,1.3046720999998342,0.1523234000001139,,,,,,,,,,00015,001,2025-11-08_11h36.39.538,MST_task,2024.2.2,60.399093047221974,2025-11-08 11h36.51.840518 +0530,
,Scenes\189a.jpg,63,0,63,,,,,,,j,None,,,1.9817978000000949,0.10623009999994792,,,,,63,0,63,0,404.4956810000001,,,,,,,,,,,,,,,,,,,,,,,,,,,,,,404.47915280000007,404.4956810000001,405.02895379999995,404.97921429999997,,,,,,,,,,,,,,,,,,,,,,,405.0115002,405.02895379999995,405.02895379999995,405.02895379999995,407.9955990000001,j,407.99681929999997,,,407.99683099999993,None,,,1.9817978000000949,0.10623009999994792,,,,,,,,,,00015,001,2025-11-08_11h36.39.538,MST_task,2024.2.2,60.399093047221974,2025-11-08 11h36.51.840518 +0530,
,Scenes\076a.jpg,64,0,64,,,,,,,j,None,,,2.0811394999998356,0.11014240000008613,,,,,64,0,64,0,408.0122527000001,,,,,,,,,,,,,,,,,,,,,,,,,,,,,,407.9968907,408.0122527000001,408.54572959999996,408.4957200000001,,,,,,,,,,,,,,,,,,,,,,,408.5258298000001,408.54572959999996,408.54572959999996,408.54572959999996,411.51223060000007,j,411.5122632,,,411.51227240000003,None,,,2.0811394999998356,0.11014240000008613,,,,,,,,,,00015,001,2025-11-08_11h36.39.538,MST_task,2024.2.2,60.399093047221974,2025-11-08 11h36.51.840518 +0530,
,Scenes\016a.jpg,65,0,65,,,,,,,j,None,,,1.5914953999999852,0.14922589999991942,,,,,65,0,65,0,411.52887899999996,,,,,,,,,,,,,,,,,,,,,,,,,,,,,,411.5123535,411.52887899999996,412.06236820000004,412.01228100000003,,,,,,,,,,,,,,,,,,,,,,,412.0427721000001,412.06236820000004,412.06236820000004,412.06236820000004,415.02879380000013,j,415.02882769999997,,,415.0288372,None,,,1.5914953999999852,0.14922589999991942,,,,,,,,,,00015,001,2025-11-08_11h36.39.538,MST_task,2024.2.2,60.399093047221974,2025-11-08 11h36.51.840518 +0530,
,Scenes\015a.jpg,66,0,66,,,,,,,j,None,,,2.3118571999998494,0.11818270000003395,,,,,66,0,66,0,415.0454241,,,,,,,,,,,,,,,,,,,,,,,,,,,,,,415.0289206,415.0454241,415.5791515000001,415.5289223,,,,,,,,,,,,,,,,,,,,,,,415.56707329999995,415.5791515000001,415.5791515000001,415.5791515000001,418.54536840000014,j,418.54540250000014,,,418.5454121,None,,,2.3118571999998494,0.11818270000003395,,,,,,,,,,00015,001,2025-11-08_11h36.39.538,MST_task,2024.2.2,60.399093047221974,2025-11-08 11h36.51.840518 +0530,
,Scenes\159a.jpg,67,0,67,,,,,,,j,None,,,1.5184509999999136,0.1532884999999169,,,,,67,0,67,0,418.5620243999999,,,,,,,,,,,,,,,,,,,,,,,,,,,,,,418.54550259999996,418.5620243999999,419.095509,419.04558020000013,,,,,,,,,,,,,,,,,,,,,,,419.0750378,419.095509,419.095509,419.095509,422.06206450000013,j,422.06210609999994,,,422.0621171,None,,,1.5184509999999136,0.1532884999999169,,,,,,,,,,00015,001,2025-11-08_11h36.39.538,MST_task,2024.2.2,60.399093047221974,2025-11-08 11h36.51.840518 +0530,
,Scenes\081a.jpg,68,0,68,,,,,,,j,None,,,2.0326376000000437,0.10882040000001325,,,,,68,0,68,0,422.07864010000003,,,,,,,,,,,,,,,,,,,,,,,,,,,,,,422.0622158000001,422.07864010000003,422.61193589999993,422.5621615,,,,,,,,,,,,,,,,,,,,,,,422.5906001000001,422.61193589999993,422.61193589999993,422.61193589999993,425.5785916,j,425.5786249,,,425.5786350000001,None,,,2.0326376000000437,0.10882040000001325,,,,,,,,,,00015,001,2025-11-08_11h36.39.538,MST_task,2024.2.2,60.399093047221974,2025-11-08 11h36.51.840518 +0530,
,Scenes\109a.jpg,69,0,69,,,,,,,f,None,,,1.4897733000000244,0.15802759999996852,,,,,69,0,69,0,425.59520079999993,,,,,,,,,,,,,,,,,,,,,,,,,,,,,,425.57872220000013,425.59520079999993,426.11163609999994,426.07875319999994,,,,,,,,,,,,,,,,,,,,,,,426.10596680000003,426.11163609999994,426.11163609999994,426.11163609999994,429.09519160000013,f,429.0952242000001,,,429.0952340000001,None,,,1.4897733000000244,0.15802759999996852,,,,,,,,,,00015,001,2025-11-08_11h36.39.538,MST_task,2024.2.2,60.399093047221974,2025-11-08 11h36.51.840518 +0530,
,Objects\086a.jpg,70,0,70,,,,,,,j,None,,,1.308860500000037,0.12185219999992114,,,,,70,0,70,0,429.1117905000001,,,,,,,,,,,,,,,,,,,,,,,,,,,,,,429.0952907000001,429.1117905000001,429.62864620000005,429.59526000000005,,,,,,,,,,,,,,,,,,,,,,,429.6192922,429.62864620000005,429.62864620000005,429.62864620000005,432.6117835,j,432.6133738000001,,,432.61338720000003,None,,,1.308860500000037,0.12185219999992114,,,,,,,,,,00015,001,2025-11-08_11h36.39.538,MST_task,2024.2.2,60.399093047221974,2025-11-08 11h36.51.840518 +0530,
,Objects\119a.jpg,71,0,71,,,,,,,f,None,,,2.09574960000009,0.12195130000009158,,,,,71,0,71,0,432.6283803000001,,,,,,,,,,,,,,,,,,,,,,,,,,,,,,432.61347249999994,432.6283803000001,433.145043,433.1118537,,,,,,,,,,,,,,,,,,,,,,,433.1356794999999,433.145043,433.145043,433.145043,436.1283592,f,436.12850930000013,,,436.1285216000001,None,,,2.09574960000009,0.12195130000009158,,,,,,,,,,00015,001,2025-11-08_11h36.39.538,MST_task,2024.2.2,60.399093047221974,2025-11-08 11h36.51.840518 +0530,
,Objects\099a.jpg,72,0,72,,,,,,,f,None,,,1.5710499000001619,0.1080488999998579,,,,,72,0,72,0,436.14502800000014,,,,,,,,,,,,,,,,,,,,,,,,,,,,,,436.1286089,436.14502800000014,436.66160149999996,436.6284544,,,,,,,,,,,,,,,,,,,,,,,436.6538167000001,436.66160149999996,436.66160149999996,436.66160149999996,439.6449768,f,439.64501459999997,,,439.64502429999993,None,,,1.5710499000001619,0.1080488999998579,,,,,,,,,,00015,001,2025-11-08_11h36.39.538,MST_task,2024.2.2,60.399093047221974,2025-11-08 11h36.51.840518 +0530,
,Objects\055a.jpg,73,0,73,,,,,,,f,None,,,1.4207946999999876,0.14211279999994986,,,,,73,0,73,0,439.66153039999995,,,,,,,,,,,,,,,,,,,,,,,,,,,,,,439.64508849999993,439.66153039999995,440.1781939,440.1451072,,,,,,,,,,,,,,,,,,,,,,,440.1702778000001,440.1781939,440.1781939,440.1781939,443.1615610000001,f,443.1615988000001,,,443.1616083000001,None,,,1.4207946999999876,0.14211279999994986,,,,,,,,,,00015,001,2025-11-08_11h36.39.538,MST_task,2024.2.2,60.399093047221974,2025-11-08 11h36.51.840518 +0530,
,Objects\025a.jpg,74,0,74,,,,,,,j,None,,,1.0741896000001816,0.12636879999990924,,,,,74,0,74,0,443.1781284000001,,,,,,,,,,,,,,,,,,,,,,,,,,,,,,443.1616652,443.1781284000001,443.6947996000001,443.66171669999994,,,,,,,,,,,,,,,,,,,,,,,443.68799230000013,443.6947996000001,443.6947996000001,443.6947996000001,446.66164189999995,j,446.6616769,,,446.66168629999993,None,,,1.0741896000001816,0.12636879999990924,,,,,,,,,,00015,001,2025-11-08_11h36.39.538,MST_task,2024.2.2,60.399093047221974,2025-11-08 11h36.51.840518 +0530,
,Objects\056a.jpg,75,0,75,,,,,,,f,None,,,1.306518399999959,0.10983099999998558,,,,,75,0,75,0,446.6781396000001,,,,,,,,,,,,,,,,,,,,,,,,,,,,,,446.66177689999995,446.6781396000001,447.1947183,447.16165449999994,,,,,,,,,,,,,,,,,,,,,,,447.18433670000013,447.1947183,447.1947183,447.1947183,450.17803300000014,f,450.1780699000001,,,450.17807919999996,None,,,1.306518399999959,0.10983099999998558,,,,,,,,,,00015,001,2025-11-08_11h36.39.538,MST_task,2024.2.2,60.399093047221974,2025-11-08 11h36.51.840518 +0530,
,Objects\043a.jpg,76,0,76,,,,,,,f,None,,,1.2736363999999867,0.13464179999982662,,,,,76,0,76,0,450.19466910000006,,,,,,,,,,,,,,,,,,,,,,,,,,,,,,450.17813780000006,450.19466910000006,450.7112965000001,450.6781238000001,,,,,,,,,,,,,,,,,,,,,,,450.6995664000001,450.7112965000001,450.7112965000001,450.7112965000001,453.69462309999994,f,453.6946620000001,,,453.69467140000006,None,,,1.2736363999999867,0.13464179999982662,,,,,,,,,,00015,001,2025-11-08_11h36.39.538,MST_task,2024.2.2,60.399093047221974,2025-11-08 11h36.51.840518 +0530,
,Scenes\004a.jpg,77,0,77,,,,,,,j,None,,,0.8770846999998412,0.14421500000003107,,,,,77,0,77,0,453.71126219999996,,,,,,,,,,,,,,,,,,,,,,,,,,,,,,453.6947278,453.71126219999996,,454.19477570000004,,,,,,,,,,,,,,,,,,,,,,,454.21987609999996,454.2276746,454.2276746,454.2276746,457.21126700000013,j,457.21238519999997,,,457.21239549999996,None,,,0.8770846999998412,0.14421500000003107,,,,,,,,,,00015,001,2025-11-08_11h36.39.538,MST_task,2024.2.2,60.399093047221974,2025-11-08 11h36.51.840518 +0530,
,Scenes\162a.jpg,78,0,78,,,,,,,j,None,,,2.130967099999907,0.11359310000011646,,,,,78,0,78,0,457.2278487000001,,,,,,,,,,,,,,,,,,,,,,,,,,,,,,457.2124804,457.2278487000001,457.7445021000001,457.71145360000014,,,,,,,,,,,,,,,,,,,,,,,457.73395070000015,457.7445021000001,457.7445021000001,457.7445021000001,460.7278053,j,460.72783989999994,,,460.72785,None,,,2.130967099999907,0.11359310000011646,,,,,,,,,,00015,001,2025-11-08_11h36.39.538,MST_task,2024.2.2,60.399093047221974,2025-11-08 11h36.51.840518 +0530,
,Scenes\142a.jpg,79,0,79,,,,,,,j,None,,,1.3738820999999461,0.15426410000009128,,,,,79,0,79,0,460.7444464,,,,,,,,,,,,,,,,,,,,,,,,,,,,,,460.72793980000006,460.7444464,461.26106359999994,461.22792359999994,,,,,,,,,,,,,,,,,,,,,,,461.2545620000001,461.26106359999994,461.26106359999994,461.26106359999994,464.24443410000003,j,464.24446869999997,,,464.2444785,None,,,1.3738820999999461,0.15426410000009128,,,,,,,,,,00015,001,2025-11-08_11h36.39.538,MST_task,2024.2.2,60.399093047221974,2025-11-08 11h36.51.840518 +0530,
,Scenes\128a.jpg,80,0,80,,,,,,,j,None,,,0.9347342999999455,0.13694669999995313,,,,,80,0,80,0,464.26102820000006,,,,,,,,,,,,,,,,,,,,,,,,,,,,,,464.2445703000001,464.26102820000006,464.7944298,464.7445338,,,,,,,,,,,,,,,,,,,,,,,464.7812418000001,464.7944298,464.7944298,464.7944298,467.76100429999997,j,467.76103779999994,,,467.76104710000004,None,,,0.9347342999999455,0.13694669999995313,,,,,,,,,,00015,001,2025-11-08_11h36.39.538,MST_task,2024.2.2,60.399093047221974,2025-11-08 11h36.51.840518 +0530,
,Scenes\131a.jpg,81,0,81,,,,,,,j,None,,,1.988454000000047,0.15036579999991773,,,,,81,0,81,0,467.77761710000004,,,,,,,,,,,,,,,,,,,,,,,,,,,,,,467.7611313,467.77761710000004,468.2944963,468.2611022000001,,,,,,,,,,,,,,,,,,,,,,,468.2859389,468.2944963,468.2944963,468.2944963,471.27769250000006,j,471.27773189999994,,,471.2777423,None,,,1.988454000000047,0.15036579999991773,,,,,,,,,,00015,001,2025-11-08_11h36.39.538,MST_task,2024.2.2,60.399093047221974,2025-11-08 11h36.51.840518 +0530,
,Scenes\085a.jpg,82,0,82,,,,,,,f,None,,,2.20005900000001,0.17762169999991784,,,,,82,0,82,0,471.29421120000006,,,,,,,,,,,,,,,,,,,,,,,,,,,,,,471.27780299999995,471.29421120000006,471.8275466,471.7777781,,,,,,,,,,,,,,,,,,,,,,,471.8115215,471.8275466,471.8275466,471.8275466,474.79415270000004,f,474.7941916,,,474.7942014,None,,,2.20005900000001,0.17762169999991784,,,,,,,,,,00015,001,2025-11-08_11h36.39.538,MST_task,2024.2.2,60.399093047221974,2025-11-08 11h36.51.840518 +0530,
,Scenes\117a.jpg,83,0,83,,,,,,,j,None,,,1.4133789999998498,0.16653130000008787,,,,,83,0,83,0,474.8107976000001,,,,,,,,,,,,,,,,,,,,,,,,,,,,,,474.79429559999994,474.8107976000001,475.32758190000004,475.2942835000001,,,,,,,,,,,,,,,,,,,,,,,475.3211808000001,475.32758190000004,475.32758190000004,475.32758190000004,478.3107953000001,j,478.31082779999997,,,478.310837,None,,,1.4133789999998498,0.16653130000008787,,,,,,,,,,00015,001,2025-11-08_11h36.39.538,MST_task,2024.2.2,60.399093047221974,2025-11-08 11h36.51.840518 +0530,
,Objects\137a.jpg,84,0,84,,,,,,,None,j,1.070774799999981,None,,,,,,,84,0,84,0,478.327364,,,,,,,,,,,,,,,,,,,,,,,,,,,,,,478.3109342,478.327364,478.86098259999994,478.8108935,,,,,,,,,,,,,,,,,,,,,,,478.8407508,478.86098259999994,478.86098259999994,478.86098259999994,481.8274334,None,481.8288252,481.84397160000003,481.84397160000003,482.9277191000001,j,1.070774799999981,None,,,,,,,,,,,,00015,001,2025-11-08_11h36.39.538,MST_task,2024.2.2,60.399093047221974,2025-11-08 11h36.51.840518 +0530,
,Objects\170a.jpg,85,0,85,,,,,,,f,None,,,2.0505732999999964,0.2021234999999706,,,,,85,0,85,0,482.94396989999996,,,,,,,,,,,,,,,,,,,,,,,,,,,,,,482.9278088000001,482.94396989999996,483.4606249000001,483.42752229999996,,,,,,,,,,,,,,,,,,,,,,,483.4504726,483.4606249000001,483.4606249000001,483.4606249000001,486.4439771,f,486.44401489999996,,,486.444025,None,,,2.0505732999999964,0.2021234999999706,,,,,,,,,,00015,001,2025-11-08_11h36.39.538,MST_task,2024.2.2,60.399093047221974,2025-11-08 11h36.51.840518 +0530,
,Objects\166a.jpg,86,0,86,,,,,,,f,None,,,1.5004322999998294,0.19878730000004907,,,,,86,0,86,0,486.460554,,,,,,,,,,,,,,,,,,,,,,,,,,,,,,486.4440833000001,486.460554,486.97725830000013,486.9440423000001,,,,,,,,,,,,,,,,,,,,,,,486.969194,486.97725830000013,486.97725830000013,486.97725830000013,489.96049889999995,f,489.9605309000001,,,489.9605398000001,None,,,1.5004322999998294,0.19878730000004907,,,,,,,,,,00015,001,2025-11-08_11h36.39.538,MST_task,2024.2.2,60.399093047221974,2025-11-08 11h36.51.840518 +0530,
,Objects\126a.jpg,87,0,87,,,,,,,f,None,,,2.924165099999982,None,,,,,87,0,87,0,489.97714730000007,,,,,,,,,,,,,,,,,,,,,,,,,,,,,,489.9606203000001,489.97714730000007,490.4937712000001,490.4606903000001,,,,,,,,,,,,,,,,,,,,,,,490.48675060000005,490.4937712000001,490.4937712000001,490.4937712000001,493.4771124000001,f,493.4771521,,,493.4771621,None,,,2.924165099999982,None,,,,,,,,,,00015,001,2025-11-08_11h36.39.538,MST_task,2024.2.2,60.399093047221974,2025-11-08 11h36.51.840518 +0530,
,Objects\054a.jpg,88,0,88,,,,,,,j,None,,,1.7030468000000383,0.10981429999992542,,,,,88,0,88,0,493.49377129999993,,,,,,,,,,,,,,,,,,,,,,,,,,,,,,493.4772183,493.49377129999993,494.0103733000001,493.9772154,,,,,,,,,,,,,,,,,,,,,,,493.99337979999996,494.0103733000001,494.0103733000001,494.0103733000001,496.9938202000001,j,496.9938611,,,496.99387189999993,None,,,1.7030468000000383,0.10981429999992542,,,,,,,,,,00015,001,2025-11-08_11h36.39.538,MST_task,2024.2.2,60.399093047221974,2025-11-08 11h36.51.840518 +0530,
,Objects\002a.jpg,89,0,89,,,,,,,f,None,,,1.5741956000001665,0.16173989999992955,,,,,89,0,89,0,497.01032510000005,,,,,,,,,,,,,,,,,,,,,,,,,,,,,,496.9939753000001,497.01032510000005,497.5269548000001,497.4937824000001,,,,,,,,,,,,,,,,,,,,,,,497.516883,497.5269548000001,497.5269548000001,497.5269548000001,500.51028840000004,f,500.51032540000006,,,500.5103351,None,,,1.5741956000001665,0.16173989999992955,,,,,,,,,,00015,001,2025-11-08_11h36.39.538,MST_task,2024.2.2,60.399093047221974,2025-11-08 11h36.51.840518 +0530,
,Objects\189a.jpg,90,0,90,,,,,,,j,None,,,1.1378107000000455,0.19084759999987,,,,,90,0,90,0,500.52691070000014,,,,,,,,,,,,,,,,,,,,,,,,,,,,,,500.5104289000001,500.52691070000014,501.04356830000006,501.01047919999996,,,,,,,,,,,,,,,,,,,,,,,501.0315052000001,501.04356830000006,501.04356830000006,501.04356830000006,504.0268334,j,504.0268662000001,,,504.02687590000005,None,,,1.1378107000000455,0.19084759999987,,,,,,,,,,00015,001,2025-11-08_11h36.39.538,MST_task,2024.2.2,60.399093047221974,2025-11-08 11h36.51.840518 +0530,
,Scenes\061a.jpg,91,0,91,,,,,,,j,None,,,1.3330979000002117,0.11329579999983252,,,,,91,0,91,0,504.0435066,,,,,,,,,,,,,,,,,,,,,,,,,,,,,,504.02696790000005,504.0435066,504.5603983000001,504.52699039999993,,,,,,,,,,,,,,,,,,,,,,,504.5518538000001,504.5603983000001,504.5603983000001,504.5603983000001,507.5434646000001,j,507.54473810000013,,,507.54474890000006,None,,,1.3330979000002117,0.11329579999983252,,,,,,,,,,00015,001,2025-11-08_11h36.39.538,MST_task,2024.2.2,60.399093047221974,2025-11-08 11h36.51.840518 +0530,
,Scenes\150a.jpg,92,0,92,,,,,,,j,None,,,1.322404000000006,0.11018139999987397,,,,,92,0,92,0,507.5601022999999,,,,,,,,,,,,,,,,,,,,,,,,,,,,,,507.54483030000006,507.5601022999999,508.0769732000001,508.0436268000001,,,,,,,,,,,,,,,,,,,,,,,508.06239819999996,508.0769732000001,508.0769732000001,508.0769732000001,511.0600591,j,511.060103,,,511.06011209999997,None,,,1.322404000000006,0.11018139999987397,,,,,,,,,,00015,001,2025-11-08_11h36.39.538,MST_task,2024.2.2,60.399093047221974,2025-11-08 11h36.51.840518 +0530,
,Scenes\006a.jpg,93,0,93,,,,,,,f,None,,,1.9668106999999964,0.15400240000008125,,,,,93,0,93,0,511.0766599000001,,,,,,,,,,,,,,,,,,,,,,,,,,,,,,511.060199,511.0766599000001,511.60998199999995,511.5602702000001,,,,,,,,,,,,,,,,,,,,,,,511.5874517,511.60998199999995,511.60998199999995,511.60998199999995,514.5767767,f,514.5768121000001,,,514.5768218000001,None,,,1.9668106999999964,0.15400240000008125,,,,,,,,,,00015,001,2025-11-08_11h36.39.538,MST_task,2024.2.2,60.399093047221974,2025-11-08 11h36.51.840518 +0530,
,Scenes\037a.jpg,94,0,94,,,,,,,j,None,,,1.7363282999999683,0.14198260000011942,,,,,94,0,94,0,514.5932505000001,,,,,,,,,,,,,,,,,,,,,,,,,,,,,,514.5768813,514.5932505000001,515.1265719,515.0767835000001,,,,,,,,,,,,,,,,,,,,,,,515.1078883,515.1265719,515.1265719,515.1265719,518.0932078999999,j,518.0932432,,,518.0932542,None,,,1.7363282999999683,0.14198260000011942,,,,,,,,,,00015,001,2025-11-08_11h36.39.538,MST_task,2024.2.2,60.399093047221974,2025-11-08 11h36.51.840518 +0530,
,Scenes\147a.jpg,95,0,95,,,,,,,j,None,,,1.9262127000001783,0.14585009999996146,,,,,95,0,95,0,518.109864,,,,,,,,,,,,,,,,,,,,,,,,,,,,,,518.0933117,518.109864,518.6264987,518.5933626000001,,,,,,,,,,,,,,,,,,,,,,,518.6138261000001,518.6264987,518.6264987,518.6264987,521.6099237999999,j,521.6099615,,,521.6099709,None,,,1.9262127000001783,0.14585009999996146,,,,,,,,,,00015,001,2025-11-08_11h36.39.538,MST_task,2024.2.2,60.399093047221974,2025-11-08 11h36.51.840518 +0530,
,Scenes\140a.jpg,96,0,96,,,,,,,j,None,,,1.1997837999999774,0.10979270000007091,,,,,96,0,96,0,521.6264624,,,,,,,,,,,,,,,,,,,,,,,,,,,,,,521.6100612,521.6264624,522.1433729,522.1099941,,,,,,,,,,,,,,,,,,,,,,,522.1364594000001,522.1433729,522.1433729,522.1433729,525.1265053,j,525.1265407999999,,,525.1265539999999,None,,,1.1997837999999774,0.10979270000007091,,,,,,,,,,00015,001,2025-11-08_11h36.39.538,MST_task,2024.2.2,60.399093047221974,2025-11-08 11h36.51.840518 +0530,
,Scenes\059a.jpg,97,0,97,,,,,,,j,None,,,1.238614699999971,0.09826870000006238,,,,,97,0,97,0,525.1430504,,,,,,,,,,,,,,,,,,,,,,,,,,,,,,525.1266426,525.1430504,525.6763865,525.6265149000001,,,,,,,,,,,,,,,,,,,,,,,525.6557496,525.6763865,525.6763865,525.6763865,528.6430289,j,528.6430640000001,,,528.6430736,None,,,1.238614699999971,0.09826870000006238,,,,,,,,,,00015,001,2025-11-08_11h36.39.538,MST_task,2024.2.2,60.399093047221974,2025-11-08 11h36.51.840518 +0530,
,Objects\118a.jpg,98,0,98,,,,,,,f,None,,,2.2842182000001685,0.1402475999998387,,,,,98,0,98,0,528.6596403000001,,,,,,,,,,,,,,,,,,,,,,,,,,,,,,528.6431635000001,528.6596403000001,529.1765194,529.1431897,,,,,,,,,,,,,,,,,,,,,,,529.1681596999999,529.1765194,529.1765194,529.1765194,532.1595634,f,532.1609695,,,532.1609804,None,,,2.2842182000001685,0.1402475999998387,,,,,,,,,,00015,001,2025-11-08_11h36.39.538,MST_task,2024.2.2,60.399093047221974,2025-11-08 11h36.51.840518 +0530,
,Objects\178a.jpg,99,0,99,,,,,,,f,None,,,2.0110718000000816,0.166614299999992,,,,,99,0,99,0,532.1762052000001,,,,,,,,,,,,,,,,,,,,,,,,,,,,,,532.161034,532.1762052000001,532.7095217000001,532.6597884,,,,,,,,,,,,,,,,,,,,,,,532.6903881000001,532.7095217000001,532.7095217000001,532.7095217000001,535.6762411,f,535.6762774000001,,,535.6762873,None,,,2.0110718000000816,0.166614299999992,,,,,,,,,,00015,001,2025-11-08_11h36.39.538,MST_task,2024.2.2,60.399093047221974,2025-11-08 11h36.51.840518 +0530,
,Objects\188a.jpg,100,0,100,,,,,,,f,None,,,0.9460997999999563,0.15737930000000233,,,,,100,0,100,0,535.6928211,,,,,,,,,,,,,,,,,,,,,,,,,,,,,,535.6763470000001,535.6928211,536.2094432000001,536.1763777000001,,,,,,,,,,,,,,,,,,,,,,,536.2048649000001,536.2094432000001,536.2094432000001,536.2094432000001,539.1927439000001,f,539.1927787,,,539.1927881000001,None,,,0.9460997999999563,0.15737930000000233,,,,,,,,,,00015,001,2025-11-08_11h36.39.538,MST_task,2024.2.2,60.399093047221974,2025-11-08 11h36.51.840518 +0530,
,Objects\177a.jpg,101,0,101,,,,,,,j,None,,,1.210524200000009,0.1111934000000474,,,,,101,0,101,0,539.2094271000001,,,,,,,,,,,,,,,,,,,,,,,,,,,,,,539.1928754,539.2094271000001,,539.6928794,,,,,,,,,,,,,,,,,,,,,,,539.7135601,539.7260573000001,539.7260573000001,539.7260573000001,542.7094664000001,j,542.7095046,,,542.7095134000001,None,,,1.210524200000009,0.1111934000000474,,,,,,,,,,00015,001,2025-11-08_11h36.39.538,MST_task,2024.2.2,60.399093047221974,2025-11-08 11h36.51.840518 +0530,
,Objects\108a.jpg,102,0,102,,,,,,,j,None,,,1.036570299999994,0.12562750000006417,,,,,102,0,102,0,542.7259766,,,,,,,,,,,,,,,,,,,,,,,,,,,,,,542.7096032,542.7259766,,543.2096325,,,,,,,,,,,,,,,,,,,,,,,543.2334960000001,543.2426879,543.2426879,543.2426879,546.2260949000001,j,546.2261287000001,,,546.2261382000002,None,,,1.036570299999994,0.12562750000006417,,,,,,,,,,00015,001,2025-11-08_11h36.39.538,MST_task,2024.2.2,60.399093047221974,2025-11-08 11h36.51.840518 +0530,
,Objects\103a.jpg,103,0,103,,,,,,,j,None,,,1.6312599999998838,0.12714550000009694,,,,,103,0,103,0,546.2425797000001,,,,,,,,,,,,,,,,,,,,,,,,,,,,,,546.2262324999999,546.2425797000001,546.7758897000001,546.7260464000001,,,,,,,,,,,,,,,,,,,,,,,546.7561055000001,546.7758897000001,546.7758897000001,546.7758897000001,549.7426301,j,549.7426722,,,549.7426829000001,None,,,1.6312599999998838,0.12714550000009694,,,,,,,,,,00015,001,2025-11-08_11h36.39.538,MST_task,2024.2.2,60.399093047221974,2025-11-08 11h36.51.840518 +0530,
,Objects\035a.jpg,104,0,104,,,,,,,j,None,,,1.914628300000004,0.14592019999986405,,,,,104,0,104,0,549.7591894,,,,,,,,,,,,,,,,,,,,,,,,,,,,,,549.7427812000001,549.7591894,550.2924987000001,550.2427605,,,,,,,,,,,,,,,,,,,,,,,550.2726317000001,550.2924987000001,550.2924987000001,550.2924987000001,553.2592493,j,553.2592889,,,553.2592988000001,None,,,1.914628300000004,0.14592019999986405,,,,,,,,,,00015,001,2025-11-08_11h36.39.538,MST_task,2024.2.2,60.399093047221974,2025-11-08 11h36.51.840518 +0530,
,Scenes\023a.jpg,105,0,105,,,,,,,f,None,,,2.7298981999999796,0.15097999999989042,,,,,105,0,105,0,553.2757721,,,,,,,,,,,,,,,,,,,,,,,,,,,,,,553.2593615000001,553.2757721,553.8094062,553.759374,,,,,,,,,,,,,,,,,,,,,,,553.7960983,553.8094062,553.8094062,553.8094062,556.775858,f,556.7770676,,,556.7770791,None,,,2.7298981999999796,0.15097999999989042,,,,,,,,,,00015,001,2025-11-08_11h36.39.538,MST_task,2024.2.2,60.399093047221974,2025-11-08 11h36.51.840518 +0530,
,Scenes\114a.jpg,106,0,106,,,,,,,f,None,,,2.7250389000000723,0.1638917999998739,,,,,106,0,106,0,556.7923685000001,,,,,,,,,,,,,,,,,,,,,,,,,,,,,,556.7771712000001,556.7923685000001,557.3260194,557.2758934999999,,,,,,,,,,,,,,,,,,,,,,,557.3040422000001,557.3260194,557.3260194,557.3260194,560.2923179,f,560.2923505000001,,,560.2923596,None,,,2.7250389000000723,0.1638917999998739,,,,,,,,,,00015,001,2025-11-08_11h36.39.538,MST_task,2024.2.2,60.399093047221974,2025-11-08 11h36.51.840518 +0530,
,Scenes\090a.jpg,107,0,107,,,,,,,j,None,,,1.1510238999999274,0.14586529999996856,,,,,107,0,107,0,560.3089626999999,,,,,,,,,,,,,,,,,,,,,,,,,,,,,,560.292475,560.3089626999999,560.8422660000001,560.7925429,,,,,,,,,,,,,,,,,,,,,,,560.8196279000001,560.8422660000001,560.8422660000001,560.8422660000001,563.8089568,j,563.80899,,,563.8090062000001,None,,,1.1510238999999274,0.14586529999996856,,,,,,,,,,00015,001,2025-11-08_11h36.39.538,MST_task,2024.2.2,60.399093047221974,2025-11-08 11h36.51.840518 +0530,
,Scenes\154a.jpg,108,0,108,,,,,,,j,None,,,1.1444581000000653,0.09446800000000621,,,,,108,0,108,0,563.8255544000001,,,,,,,,,,,,,,,,,,,,,,,,,,,,,,563.8090901,563.8255544000001,564.3422037,564.3091347,,,,,,,,,,,,,,,,,,,,,,,564.3346882999999,564.3422037,564.3422037,564.3422037,567.3255138,j,567.3255457,,,567.3255555000001,None,,,1.1444581000000653,0.09446800000000621,,,,,,,,,,00015,001,2025-11-08_11h36.39.538,MST_task,2024.2.2,60.399093047221974,2025-11-08 11h36.51.840518 +0530,
,Scenes\087a.jpg,109,0,109,,,,,,,j,None,,,1.856299300000046,0.10163869999996678,,,,,109,0,109,0,567.3421358,,,,,,,,,,,,,,,,,,,,,,,,,,,,,,567.3256403,567.3421358,,567.825636,,,,,,,,,,,,,,,,,,,,,,,567.8561434000001,567.8757862,567.8757862,567.8757862,570.8421629,j,570.8421958000001,,,570.842204,None,,,1.856299300000046,0.10163869999996678,,,,,,,,,,00015,001,2025-11-08_11h36.39.538,MST_task,2024.2.2,60.399093047221974,2025-11-08 11h36.51.840518 +0530,
,Scenes\186a.jpg,110,0,110,,,,,,,j,None,,,2.1020448999997825,0.1416796000000886,,,,,110,0,110,0,570.8588505,,,,,,,,,,,,,,,,,,,,,,,,,,,,,,570.8422616,570.8588505,571.3754570000001,571.3424282000001,,,,,,,,,,,,,,,,,,,,,,,571.3657754999999,571.3754570000001,571.3754570000001,571.3754570000001,574.3587742,j,574.3588073000001,,,574.3588164,None,,,2.1020448999997825,0.1416796000000886,,,,,,,,,,00015,001,2025-11-08_11h36.39.538,MST_task,2024.2.2,60.399093047221974,2025-11-08 11h36.51.840518 +0530,
,Scenes\018a.jpg,111,0,111,,,,,,,f,None,,,1.3656458000000384,0.15671019999990676,,,,,111,0,111,0,574.3753887,,,,,,,,,,,,,,,,,,,,,,,,,,,,,,574.3588729,574.3753887,574.9087041,574.8589004,,,,,,,,,,,,,,,,,,,,,,,574.8866081000001,574.9087041,574.9087041,574.9087041,577.8753968000001,f,577.8754297,,,577.8754395000001,None,,,1.3656458000000384,0.15671019999990676,,,,,,,,,,00015,001,2025-11-08_11h36.39.538,MST_task,2024.2.2,60.399093047221974,2025-11-08 11h36.51.840518 +0530,
,Objects\152a.jpg,112,0,112,,,,,,,f,None,,,2.4329554000000826,0.10100389999979598,,,,,112,0,112,0,577.8920355,,,,,,,,,,,,,,,,,,,,,,,,,,,,,,577.8754959,577.8920355,578.4257414000001,578.3754778,,,,,,,,,,,,,,,,,,,,,,,578.4066825,578.4257414000001,578.4257414000001,578.4257414000001,581.391934,f,581.3934439,,,581.3934545,None,,,2.4329554000000826,0.10100389999979598,,,,,,,,,,00015,001,2025-11-08_11h36.39.538,MST_task,2024.2.2,60.399093047221974,2025-11-08 11h36.51.840518 +0530,
,Objects\033a.jpg,113,0,113,,,,,,,f,None,,,2.176616299999978,0.14096949999998287,,,,,113,0,113,0,581.4085768,,,,,,,,,,,,,,,,,,,,,,,,,,,,,,581.3935424000001,581.4085768,581.9253179,581.8920301,,,,,,,,,,,,,,,,,,,,,,,581.9168013000001,581.9253179,581.9253179,581.9253179,584.9085135,f,584.9085525,,,584.9085615000001,None,,,2.176616299999978,0.14096949999998287,,,,,,,,,,00015,001,2025-11-08_11h36.39.538,MST_task,2024.2.2,60.399093047221974,2025-11-08 11h36.51.840518 +0530,
,Objects\114a.jpg,114,0,114,,,,,,,f,None,,,1.551296099999945,0.13880509999989954,,,,,114,0,114,0,584.9252114999999,,,,,,,,,,,,,,,,,,,,,,,,,,,,,,584.9086166,584.9252114999999,585.4416665000001,585.4086526000001,,,,,,,,,,,,,,,,,,,,,,,585.4378025999999,585.4416665000001,585.4416665000001,585.4416665000001,588.4252160000001,f,588.4252511,,,588.4252607000001,None,,,1.551296099999945,0.13880509999989954,,,,,,,,,,00015,001,2025-11-08_11h36.39.538,MST_task,2024.2.2,60.399093047221974,2025-11-08 11h36.51.840518 +0530,
,Objects\148a.jpg,115,0,115,,,,,,,f,None,,,1.751096299999972,0.15003359999991517,,,,,115,0,115,0,588.4418119,,,,,,,,,,,,,,,,,,,,,,,,,,,,,,588.4253178000001,588.4418119,588.9584034,588.9252094999999,,,,,,,,,,,,,,,,,,,,,,,588.9484465,588.9584034,588.9584034,588.9584034,591.9417074,f,591.9417398,,,591.9417490000001,None,,,1.751096299999972,0.15003359999991517,,,,,,,,,,00015,001,2025-11-08_11h36.39.538,MST_task,2024.2.2,60.399093047221974,2025-11-08 11h36.51.840518 +0530,
,Objects\145a.jpg,116,0,116,,,,,,,f,None,,,1.0582541999999648,0.13775359999999637,,,,,116,0,116,0,591.975052,,,,,,,,,,,,,,,,,,,,,,,,,,,,,,591.9418048,591.975052,,592.4417811000001,,,,,,,,,,,,,,,,,,,,,,,592.4616705999999,592.4749980000001,592.4749980000001,592.4749980000001,595.4583147999999,f,595.4583499,,,595.4583586000001,None,,,1.0582541999999648,0.13775359999999637,,,,,,,,,,00015,001,2025-11-08_11h36.39.538,MST_task,2024.2.2,60.399093047221974,2025-11-08 11h36.51.840518 +0530,
,Objects\121a.jpg,117,0,117,,,,,,,f,None,,,2.4691726999999446,0.11052599999993618,,,,,117,0,117,0,595.4749822000001,,,,,,,,,,,,,,,,,,,,,,,,,,,,,,595.4584448,595.4749822000001,595.9915889000001,595.9584769,,,,,,,,,,,,,,,,,,,,,,,595.9773593,595.9915889000001,595.9915889000001,595.9915889000001,598.9748911000001,f,598.9749254999999,,,598.9749358000001,None,,,2.4691726999999446,0.11052599999993618,,,,,,,,,,00015,001,2025-11-08_11h36.39.538,MST_task,2024.2.2,60.399093047221974,2025-11-08 11h36.51.840518 +0530,
,Objects\157a.jpg,118,0,118,,,,,,,f,None,,,0.974377000000004,0.1704323999999815,,,,,118,0,118,0,598.991571,,,,,,,,,,,,,,,,,,,,,,,,,,,,,,598.9750068999999,598.991571,599.5082973000001,599.4750658,,,,,,,,,,,,,,,,,,,,,,,599.4957242,599.5082973000001,599.5082973000001,599.5082973000001,602.4914814000001,f,602.4915283,,,602.4915377,None,,,0.974377000000004,0.1704323999999815,,,,,,,,,,00015,001,2025-11-08_11h36.39.538,MST_task,2024.2.2,60.399093047221974,2025-11-08 11h36.51.840518 +0530,
,Scenes\038a.jpg,119,0,119,,,,,,,j,None,,,1.7053329999998823,0.13030909999997675,,,,,119,0,119,0,602.5081640999999,,,,,,,,,,,,,,,,,,,,,,,,,,,,,,602.4916324000001,602.5081640999999,603.0417444,602.9916764,,,,,,,,,,,,,,,,,,,,,,,603.0258822000001,603.0417444,603.0417444,603.0417444,606.0081112,j,606.0092124,,,606.0092237000001,None,,,1.7053329999998823,0.13030909999997675,,,,,,,,,,00015,001,2025-11-08_11h36.39.538,MST_task,2024.2.2,60.399093047221974,2025-11-08 11h36.51.840518 +0530,
,Scenes\033a.jpg,120,0,120,,,,,,,j,None,,,0.9810271999999713,0.12433440000017981,,,,,120,0,120,0,606.0246985000001,,,,,,,,,,,,,,,,,,,,,,,,,,,,,,606.0093084,606.0246985000001,606.5414341000001,606.5081552000001,,,,,,,,,,,,,,,,,,,,,,,606.5240788000001,606.5414341000001,606.5414341000001,606.5414341000001,609.5245924000001,j,609.5246268999999,,,609.5246368,None,,,0.9810271999999713,0.12433440000017981,,,,,,,,,,00015,001,2025-11-08_11h36.39.538,MST_task,2024.2.2,60.399093047221974,2025-11-08 11h36.51.840518 +0530,
,Scenes\073a.jpg,121,0,121,,,,,,,j,None,,,1.4092997000000196,0.12440509999987626,,,,,121,0,121,0,609.5411928999999,,,,,,,,,,,,,,,,,,,,,,,,,,,,,,609.524701,609.5411928999999,,610.0247167,,,,,,,,,,,,,,,,,,,,,,,610.0505413000001,610.0575989000001,610.0575989000001,610.0575989000001,613.0412808000001,j,613.0413171,,,613.0413255999999,None,,,1.4092997000000196,0.12440509999987626,,,,,,,,,,00015,001,2025-11-08_11h36.39.538,MST_task,2024.2.2,60.399093047221974,2025-11-08 11h36.51.840518 +0530,
,Scenes\149a.jpg,122,0,122,,,,,,,j,None,,,2.291159600000128,0.11880789999986519,,,,,122,0,122,0,613.0578093000001,,,,,,,,,,,,,,,,,,,,,,,,,,,,,,613.0414150000001,613.0578093000001,613.5744506000001,613.5412694000001,,,,,,,,,,,,,,,,,,,,,,,613.5606465999999,613.5744506000001,613.5744506000001,613.5744506000001,616.5577765,j,616.5578134,,,616.557826,None,,,2.291159600000128,0.11880789999986519,,,,,,,,,,00015,001,2025-11-08_11h36.39.538,MST_task,2024.2.2,60.399093047221974,2025-11-08 11h36.51.840518 +0530,
,Scenes\040a.jpg,123,0,123,,,,,,,f,None,,,1.4085211000001436,0.1394066999998813,,,,,123,0,123,0,616.5744010000001,,,,,,,,,,,,,,,,,,,,,,,,,,,,,,616.5578857,616.5744010000001,617.0910691000001,617.0578989,,,,,,,,,,,,,,,,,,,,,,,617.0810536000001,617.0910691000001,617.0910691000001,617.0910691000001,620.0743273,f,620.0743598000001,,,620.0743689999999,None,,,1.4085211000001436,0.1394066999998813,,,,,,,,,,00015,001,2025-11-08_11h36.39.538,MST_task,2024.2.2,60.399093047221974,2025-11-08 11h36.51.840518 +0530,
,Scenes\187a.jpg,124,0,124,,,,,,,j,None,,,2.0217095000000427,0.10006840000005468,,,,,124,0,124,0,620.0909975,,,,,,,,,,,,,,,,,,,,,,,,,,,,,,620.0744559,620.0909975,,620.5744959000001,,,,,,,,,,,,,,,,,,,,,,,620.6000981,620.6076556,620.6076556,620.6076556,623.5909635,j,623.5909973,,,623.5910057000001,None,,,2.0217095000000427,0.10006840000005468,,,,,,,,,,00015,001,2025-11-08_11h36.39.538,MST_task,2024.2.2,60.399093047221974,2025-11-08 11h36.51.840518 +0530,
,Scenes\067a.jpg,125,0,125,,,,,,,f,None,,,1.131582299999991,0.14828850000003513,,,,,125,0,125,0,623.6076105,,,,,,,,,,,,,,,,,,,,,,,,,,,,,,623.5910648000001,623.6076105,624.1409121000002,624.0911414,,,,,,,,,,,,,,,,,,,,,,,624.1212823999999,624.1409121000002,624.1409121000002,624.1409121000002,627.1076272,f,627.1076635,,,627.1076729000001,None,,,1.131582299999991,0.14828850000003513,,,,,,,,,,00015,001,2025-11-08_11h36.39.538,MST_task,2024.2.2,60.399093047221974,2025-11-08 11h36.51.840518 +0530,
,Objects\129a.jpg,126,0,126,,,,,,,f,None,,,1.185397299999977,0.11389719999988301,,,,,126,0,126,0,627.124176,,,,,,,,,,,,,,,,,,,,,,,,,,,,,,627.1077647,627.124176,627.6578463999999,627.6077184000001,,,,,,,,,,,,,,,,,,,,,,,627.6402706000001,627.6578463999999,627.6578463999999,627.6578463999999,630.624118,f,630.6255496000001,,,630.6255615,None,,,1.185397299999977,0.11389719999988301,,,,,,,,,,00015,001,2025-11-08_11h36.39.538,MST_task,2024.2.2,60.399093047221974,2025-11-08 11h36.51.840518 +0530,
,Objects\162a.jpg,127,0,127,,,,,,,f,None,,,1.7129033999999592,0.12162259999990965,,,,,127,0,127,0,630.6407514,,,,,,,,,,,,,,,,,,,,,,,,,,,,,,630.6256425000001,630.6407514,631.1740625,631.1243023,,,,,,,,,,,,,,,,,,,,,,,631.1557093000001,631.1740625,631.1740625,631.1740625,634.1408245,f,634.1408642000001,,,634.1408739000001,None,,,1.7129033999999592,0.12162259999990965,,,,,,,,,,00015,001,2025-11-08_11h36.39.538,MST_task,2024.2.2,60.399093047221974,2025-11-08 11h36.51.840518 +0530,
,Objects\064a.jpg,128,0,128,,,,,,,f,None,,,1.2371929000000819,0.15381350000006933,,,,,128,0,128,0,634.1573559999999,,,,,,,,,,,,,,,,,,,,,,,,,,,,,,634.1409327000001,634.1573559999999,634.6739883,634.6409897000001,,,,,,,,,,,,,,,,,,,,,,,634.6655462000001,634.6739883,634.6739883,634.6739883,637.6573163,f,637.657348,,,637.6573574000001,None,,,1.2371929000000819,0.15381350000006933,,,,,,,,,,00015,001,2025-11-08_11h36.39.538,MST_task,2024.2.2,60.399093047221974,2025-11-08 11h36.51.840518 +0530,
,Objects\051a.jpg,129,0,129,,,,,,,j,None,,,1.7663430000000062,0.13745640000001913,,,,,129,0,129,0,637.6739170999999,,,,,,,,,,,,,,,,,,,,,,,,,,,,,,637.6574413000001,637.6739170999999,,638.1574194,,,,,,,,,,,,,,,,,,,,,,,638.1856599,638.1905773000001,638.1905773000001,638.1905773000001,641.1739948,j,641.1740337000001,,,641.1740432000001,None,,,1.7663430000000062,0.13745640000001913,,,,,,,,,,00015,001,2025-11-08_11h36.39.538,MST_task,2024.2.2,60.399093047221974,2025-11-08 11h36.51.840518 +0530,
,Objects\044a.jpg,130,0,130,,,,,,,f,None,,,1.13446759999988,0.1310723000001417,,,,,130,0,130,0,641.1905177000001,,,,,,,,,,,,,,,,,,,,,,,,,,,,,,641.1741088000001,641.1905177000001,641.7071674000001,641.6741247,,,,,,,,,,,,,,,,,,,,,,,641.7010007000001,641.7071674000001,641.7071674000001,641.7071674000001,644.6904897,f,644.6905280000001,,,644.6905386000001,None,,,1.13446759999988,0.1310723000001417,,,,,,,,,,00015,001,2025-11-08_11h36.39.538,MST_task,2024.2.2,60.399093047221974,2025-11-08 11h36.51.840518 +0530,
,Objects\171a.jpg,131,0,131,,,,,,,j,None,,,0.8353475999999773,0.13738929999999527,,,,,131,0,131,0,644.7071251,,,,,,,,,,,,,,,,,,,,,,,,,,,,,,644.6905988999999,644.7071251,,645.1905813999999,,,,,,,,,,,,,,,,,,,,,,,645.2166563000001,645.2237782,645.2237782,645.2237782,648.2072147000001,j,648.2072522999999,,,648.2072608000001,None,,,0.8353475999999773,0.13738929999999527,,,,,,,,,,00015,001,2025-11-08_11h36.39.538,MST_task,2024.2.2,60.399093047221974,2025-11-08 11h36.51.840518 +0530,
,Objects\045a.jpg,132,0,132,,,,,,,j,None,,,2.381269599999996,0.09154549999993833,,,,,132,0,132,0,648.2237252,,,,,,,,,,,,,,,,,,,,,,,,,,,,,,648.2073564,648.2237252,648.7403453,648.7072637000001,,,,,,,,,,,,,,,,,,,,,,,648.7317112000001,648.7403453,648.7403453,648.7403453,651.7236832000001,j,651.7237197,,,651.723729,None,,,2.381269599999996,0.09154549999993833,,,,,,,,,,00015,001,2025-11-08_11h36.39.538,MST_task,2024.2.2,60.399093047221974,2025-11-08 11h36.51.840518 +0530,
,Scenes\043a.jpg,133,0,133,,,,,,,j,None,,,1.7979087999999592,0.11550929999998516,,,,,133,0,133,0,651.7403159,,,,,,,,,,,,,,,,,,,,,,,,,,,,,,651.7238148000001,651.7403159,652.2736365000001,652.2237973000001,,,,,,,,,,,,,,,,,,,,,,,652.2596603,652.2736365000001,652.2736365000001,652.2736365000001,655.2403065000001,j,655.2415049000001,,,655.2415157,None,,,1.7979087999999592,0.11550929999998516,,,,,,,,,,00015,001,2025-11-08_11h36.39.538,MST_task,2024.2.2,60.399093047221974,2025-11-08 11h36.51.840518 +0530,
,Scenes\170a.jpg,134,0,134,,,,,,,j,None,,,1.5375318000001243,0.11782829999992828,,,,,134,0,134,0,655.2568944,,,,,,,,,,,,,,,,,,,,,,,,,,,,,,655.2415992000001,655.2568944,655.7735545,655.7403921,,,,,,,,,,,,,,,,,,,,,,,655.7649246000001,655.7735545,655.7735545,655.7735545,658.7569613000001,j,658.7569960000001,,,658.7570053,None,,,1.5375318000001243,0.11782829999992828,,,,,,,,,,00015,001,2025-11-08_11h36.39.538,MST_task,2024.2.2,60.399093047221974,2025-11-08 11h36.51.840518 +0530,
,Scenes\102a.jpg,135,0,135,,,,,,,f,None,,,0.9589863999999579,0.16485769999985678,,,,,135,0,135,0,658.7734932000001,,,,,,,,,,,,,,,,,,,,,,,,,,,,,,658.7570605000001,658.7734932000001,659.3068413000001,659.256987,,,,,,,,,,,,,,,,,,,,,,,659.2876502000001,659.3068413000001,659.3068413000001,659.3068413000001,662.2735562,f,662.2735917,,,662.2736010000001,None,,,0.9589863999999579,0.16485769999985678,,,,,,,,,,00015,001,2025-11-08_11h36.39.538,MST_task,2024.2.2,60.399093047221974,2025-11-08 11h36.51.840518 +0530,
,Scenes\184a.jpg,136,0,136,,,,,,,j,None,,,1.5144505999999183,0.11542480000002797,,,,,136,0,136,0,662.2900895,,,,,,,,,,,,,,,,,,,,,,,,,,,,,,662.2736944000001,662.2900895,662.8067173,662.7735812000001,,,,,,,,,,,,,,,,,,,,,,,662.7928479,662.8067173,662.8067173,662.8067173,665.790176,j,665.7902148000001,,,665.7902243000001,None,,,1.5144505999999183,0.11542480000002797,,,,,,,,,,00015,001,2025-11-08_11h36.39.538,MST_task,2024.2.2,60.399093047221974,2025-11-08 11h36.51.840518 +0530,
,Scenes\053a.jpg,137,0,137,,,,,,,j,None,,,1.009177000000136,0.1264827999998488,,,,,137,0,137,0,665.8066775,,,,,,,,,,,,,,,,,,,,,,,,,,,,,,665.7902826,665.8066775,666.3236894000001,666.2901694,,,,,,,,,,,,,,,,,,,,,,,666.3172559,666.3236894000001,666.3236894000001,666.3236894000001,669.3067158000001,j,669.3067493000001,,,669.3067591000001,None,,,1.009177000000136,0.1264827999998488,,,,,,,,,,00015,001,2025-11-08_11h36.39.538,MST_task,2024.2.2,60.399093047221974,2025-11-08 11h36.51.840518 +0530,
,Scenes\110a.jpg,138,0,138,,,,,,,j,None,,,1.6888202999998612,0.1291776000000482,,,,,138,0,138,0,669.3233291000001,,,,,,,,,,,,,,,,,,,,,,,,,,,,,,669.3068478,669.3233291000001,669.8568719,669.8069121000001,,,,,,,,,,,,,,,,,,,,,,,669.8341627,669.8568719,669.8568719,669.8568719,672.8233444,j,672.8233759,,,672.8233852000001,None,,,1.6888202999998612,0.1291776000000482,,,,,,,,,,00015,001,2025-11-08_11h36.39.538,MST_task,2024.2.2,60.399093047221974,2025-11-08 11h36.51.840518 +0530,
,Scenes\025a.jpg,139,0,139,,,,,,,j,None,,,1.079911599999832,0.12021230000004834,,,,,139,0,139,0,672.839913,,,,,,,,,,,,,,,,,,,,,,,,,,,,,,672.8234677,672.839913,673.3734078,673.323343,,,,,,,,,,,,,,,,,,,,,,,673.3637754000001,673.3734078,673.3734078,673.3734078,676.3398946,j,676.3399286000001,,,676.3399439,None,,,1.079911599999832,0.12021230000004834,,,,,,,,,,00015,001,2025-11-08_11h36.39.538,MST_task,2024.2.2,60.399093047221974,2025-11-08 11h36.51.840518 +0530,
,Objects\034a.jpg,140,0,140,,,,,,,f,None,,,1.4269478000001072,0.11477249999984451,,,,,140,0,140,0,676.3565381000001,,,,,,,,,,,,,,,,,,,,,,,,,,,,,,676.3400014000001,676.3565381000001,676.8733836000001,676.8399727000001,,,,,,,,,,,,,,,,,,,,,,,676.8630149,676.8733836000001,676.8733836000001,676.8733836000001,679.8564847,f,679.8578764000001,,,679.8578875000001,None,,,1.4269478000001072,0.11477249999984451,,,,,,,,,,00015,001,2025-11-08_11h36.39.538,MST_task,2024.2.2,60.399093047221974,2025-11-08 11h36.51.840518 +0530,
,Objects\022a.jpg,141,0,141,,,,,,,f,None,,,2.068674000000101,0.09202570000002197,,,,,141,0,141,0,679.8898354,,,,,,,,,,,,,,,,,,,,,,,,,,,,,,679.8579790000001,679.8898354,,680.3732216000001,,,,,,,,,,,,,,,,,,,,,,,680.3919132000001,680.4064351,680.4064351,680.4064351,683.3730911,f,683.3731261,,,683.3731347,None,,,2.068674000000101,0.09202570000002197,,,,,,,,,,00015,001,2025-11-08_11h36.39.538,MST_task,2024.2.2,60.399093047221974,2025-11-08 11h36.51.840518 +0530,
,Objects\008a.jpg,142,0,142,,,,,,,f,None,,,1.165643399999908,0.13852280000014616,,,,,142,0,142,0,683.3897478000001,,,,,,,,,,,,,,,,,,,,,,,,,,,,,,683.3731941000001,683.3897478000001,683.9230772000001,683.873206,,,,,,,,,,,,,,,,,,,,,,,683.9026256,683.9230772000001,683.9230772000001,683.9230772000001,686.8897172,f,686.8897502,,,686.8897595000001,None,,,1.165643399999908,0.13852280000014616,,,,,,,,,,00015,001,2025-11-08_11h36.39.538,MST_task,2024.2.2,60.399093047221974,2025-11-08 11h36.51.840518 +0530,
,Objects\180a.jpg,143,0,143,,,,,,,f,None,,,1.796456199999966,0.1105368000000908,,,,,143,0,143,0,686.9063517,,,,,,,,,,,,,,,,,,,,,,,,,,,,,,686.8898465,686.9063517,687.4229451000001,687.3899026000001,,,,,,,,,,,,,,,,,,,,,,,687.4160524000001,687.4229451000001,687.4229451000001,687.4229451000001,690.4063004,f,690.4063330000001,,,690.4063476000001,None,,,1.796456199999966,0.1105368000000908,,,,,,,,,,00015,001,2025-11-08_11h36.39.538,MST_task,2024.2.2,60.399093047221974,2025-11-08 11h36.51.840518 +0530,
,Objects\074a.jpg,144,0,144,,,,,,,f,None,,,1.7511387000001832,0.15774219999980232,,,,,144,0,144,0,690.4229227000001,,,,,,,,,,,,,,,,,,,,,,,,,,,,,,690.4064051,690.4229227000001,690.9561948,690.9063589,,,,,,,,,,,,,,,,,,,,,,,690.9379739999999,690.9561948,690.9561948,690.9561948,693.9228502999999,f,693.9228862,,,693.9228956,None,,,1.7511387000001832,0.15774219999980232,,,,,,,,,,00015,001,2025-11-08_11h36.39.538,MST_task,2024.2.2,60.399093047221974,2025-11-08 11h36.51.840518 +0530,
,Objects\186a.jpg,145,0,145,,,,,,,f,None,,,1.5408664999999928,0.1458033000001251,,,,,145,0,145,0,693.9395139000001,,,,,,,,,,,,,,,,,,,,,,,,,,,,,,693.9229778000001,693.9395139000001,694.4561401999999,694.4229495,,,,,,,,,,,,,,,,,,,,,,,694.4496464000001,694.4561401999999,694.4561401999999,694.4561401999999,697.4394242999999,f,697.4394645,,,697.4394743,None,,,1.5408664999999928,0.1458033000001251,,,,,,,,,,00015,001,2025-11-08_11h36.39.538,MST_task,2024.2.2,60.399093047221974,2025-11-08 11h36.51.840518 +0530,
,Objects\132a.jpg,146,0,146,,,,,,,f,None,,,1.074307299999873,0.15039520000004813,,,,,146,0,146,0,697.4561669,,,,,,,,,,,,,,,,,,,,,,,,,,,,,,697.4395342,697.4561669,697.9727167000001,697.9395885000001,,,,,,,,,,,,,,,,,,,,,,,697.9645517000001,697.9727167000001,697.9727167000001,697.9727167000001,700.9560801,f,700.9561137000001,,,700.9561342,None,,,1.074307299999873,0.15039520000004813,,,,,,,,,,00015,001,2025-11-08_11h36.39.538,MST_task,2024.2.2,60.399093047221974,2025-11-08 11h36.51.840518 +0530,
,Scenes\192a.jpg,147,0,147,,,,,,,j,None,,,1.490520300000071,0.13192119999985152,,,,,147,0,147,0,700.9726545000001,,,,,,,,,,,,,,,,,,,,,,,,,,,,,,700.9562547,700.9726545000001,701.5061893,701.4561834000001,,,,,,,,,,,,,,,,,,,,,,,701.4829679,701.5061893,701.5061893,701.5061893,704.4726742,j,704.4737801000001,,,704.4737908,None,,,1.490520300000071,0.13192119999985152,,,,,,,,,,00015,001,2025-11-08_11h36.39.538,MST_task,2024.2.2,60.399093047221974,2025-11-08 11h36.51.840518 +0530,
,Scenes\049a.jpg,148,0,148,,,,,,,j,None,,,1.2807864999999765,0.15434989999994286,,,,,148,0,148,0,704.4893036000001,,,,,,,,,,,,,,,,,,,,,,,,,,,,,,704.4738473,704.4893036000001,705.0061181000001,704.9728838999999,,,,,,,,,,,,,,,,,,,,,,,704.9974179000001,705.0061181000001,705.0061181000001,705.0061181000001,707.9892242999999,j,707.9892624000001,,,707.9892719,None,,,1.2807864999999765,0.15434989999994286,,,,,,,,,,00015,001,2025-11-08_11h36.39.538,MST_task,2024.2.2,60.399093047221974,2025-11-08 11h36.51.840518 +0530,
,Scenes\138a.jpg,149,0,149,,,,,,,j,None,,,1.7525590000000193,0.10163809999994555,,,,,149,0,149,0,708.0058795,,,,,,,,,,,,,,,,,,,,,,,,,,,,,,707.9893605,708.0058795,708.5391485,708.4893890000001,,,,,,,,,,,,,,,,,,,,,,,708.5185060000001,708.5391485,708.5391485,708.5391485,711.5057909,j,711.5058277,,,711.5058372000001,None,,,1.7525590000000193,0.10163809999994555,,,,,,,,,,00015,001,2025-11-08_11h36.39.538,MST_task,2024.2.2,60.399093047221974,2025-11-08 11h36.51.840518 +0530,
,Scenes\111a.jpg,150,0,150,,,,,,,j,None,,,2.5603916000000027,0.11428150000006099,,,,,150,0,150,0,711.5224860999999,,,,,,,,,,,,,,,,,,,,,,,,,,,,,,711.5059494,711.5224860999999,,712.0059914000001,,,,,,,,,,,,,,,,,,,,,,,712.0325186,712.0386522000001,712.0386522000001,712.0386522000001,715.0223438,j,715.022393,,,715.0224024000001,None,,,2.5603916000000027,0.11428150000006099,,,,,,,,,,00015,001,2025-11-08_11h36.39.538,MST_task,2024.2.2,60.399093047221974,2025-11-08 11h36.51.840518 +0530,
,Scenes\089a.jpg,151,0,151,,,,,,,j,None,,,2.469973100000061,0.0904705999998896,,,,,151,0,151,0,715.0389482,,,,,,,,,,,,,,,,,,,,,,,,,,,,,,715.0224720000001,715.0389482,715.5722446,715.522418,,,,,,,,,,,,,,,,,,,,,,,715.5586222,715.5722446,715.5722446,715.5722446,718.5389319999999,j,718.5389657000001,,,718.5389751,None,,,2.469973100000061,0.0904705999998896,,,,,,,,,,00015,001,2025-11-08_11h36.39.538,MST_task,2024.2.2,60.399093047221974,2025-11-08 11h36.51.840518 +0530,
,Scenes\182a.jpg,152,0,152,,,,,,,j,None,,,2.5844756999999845,0.14233999999987645,,,,,152,0,152,0,718.5555424000001,,,,,,,,,,,,,,,,,,,,,,,,,,,,,,718.5390328999999,718.5555424000001,719.0721814999999,719.0390029,,,,,,,,,,,,,,,,,,,,,,,719.0626102000001,719.0721814999999,719.0721814999999,719.0721814999999,722.0555031000001,j,722.0555374,,,722.0555467000001,None,,,2.5844756999999845,0.14233999999987645,,,,,,,,,,00015,001,2025-11-08_11h36.39.538,MST_task,2024.2.2,60.399093047221974,2025-11-08 11h36.51.840518 +0530,
,Scenes\175a.jpg,153,0,153,,,,,,,j,None,,,1.2265824999999495,0.15178990000003978,,,,,153,0,153,0,722.0721216,,,,,,,,,,,,,,,,,,,,,,,,,,,,,,722.0556048000001,722.0721216,722.5887521,722.5557191,,,,,,,,,,,,,,,,,,,,,,,722.5787596,722.5887521,722.5887521,722.5887521,725.5722267000001,j,725.5723753,,,725.5723881000001,None,,,1.2265824999999495,0.15178990000003978,,,,,,,,,,00015,001,2025-11-08_11h36.39.538,MST_task,2024.2.2,60.399093047221974,2025-11-08 11h36.51.840518 +0530,
,Objects\113a.jpg,154,0,154,,,,,,,f,None,,,1.6770395999999437,0.10622349999994185,,,,,154,0,154,0,725.5887112,,,,,,,,,,,,,,,,,,,,,,,,,,,,,,725.5724463000001,725.5887112,726.1222548000001,726.0723025,,,,,,,,,,,,,,,,,,,,,,,726.1038545000001,726.1222548000001,726.1222548000001,726.1222548000001,729.0886403,f,729.0902786000001,,,729.0902899,None,,,1.6770395999999437,0.10622349999994185,,,,,,,,,,00015,001,2025-11-08_11h36.39.538,MST_task,2024.2.2,60.399093047221974,2025-11-08 11h36.51.840518 +0530,
,Objects\063a.jpg,155,0,155,,,,,,,f,None,,,1.1863702000000558,0.17699449999986427,,,,,155,0,155,0,729.1052706,,,,,,,,,,,,,,,,,,,,,,,,,,,,,,729.0903490000001,729.1052706,729.6219490999999,729.5887969,,,,,,,,,,,,,,,,,,,,,,,729.6142500000001,729.6219490999999,729.6219490999999,729.6219490999999,732.6052685,f,732.6053028000001,,,732.6053121,None,,,1.1863702000000558,0.17699449999986427,,,,,,,,,,00015,001,2025-11-08_11h36.39.538,MST_task,2024.2.2,60.399093047221974,2025-11-08 11h36.51.840518 +0530,
,Objects\009a.jpg,156,0,156,,,,,,,f,None,,,1.0157968000000892,0.12993729999993775,,,,,156,0,156,0,732.6218707,,,,,,,,,,,,,,,,,,,,,,,,,,,,,,732.6053975,732.6218707,733.1551919000001,733.1054096,,,,,,,,,,,,,,,,,,,,,,,733.1350420000001,733.1551919000001,733.1551919000001,733.1551919000001,736.121854,f,736.1218864,,,736.1218959,None,,,1.0157968000000892,0.12993729999993775,,,,,,,,,,00015,001,2025-11-08_11h36.39.538,MST_task,2024.2.2,60.399093047221974,2025-11-08 11h36.51.840518 +0530,
,Objects\036a.jpg,157,0,157,,,,,,,j,None,,,2.7940765999999257,0.1341842000001634,,,,,157,0,157,0,736.1384574000001,,,,,,,,,,,,,,,,,,,,,,,,,,,,,,736.1219536000001,736.1384574000001,,736.6219567,,,,,,,,,,,,,,,,,,,,,,,736.6444272000001,736.6551548,736.6551548,736.6551548,739.6384138999999,j,739.6384622,,,739.6384703000001,None,,,2.7940765999999257,0.1341842000001634,,,,,,,,,,00015,001,2025-11-08_11h36.39.538,MST_task,2024.2.2,60.399093047221974,2025-11-08 11h36.51.840518 +0530,
,Objects\027a.jpg,158,0,158,,,,,,,f,None,,,0.7927826000000096,0.1578361000001678,,,,,158,0,158,0,739.6551024,,,,,,,,,,,,,,,,,,,,,,,,,,,,,,739.6385321,739.6551024,740.1883753,740.1385999000001,,,,,,,,,,,,,,,,,,,,,,,740.1684769999999,740.1883753,740.1883753,740.1883753,743.1550149,f,743.1550560000001,,,743.1550715000001,None,,,0.7927826000000096,0.1578361000001678,,,,,,,,,,00015,001,2025-11-08_11h36.39.538,MST_task,2024.2.2,60.399093047221974,2025-11-08 11h36.51.840518 +0530,
,Objects\091a.jpg,159,0,159,,,,,,,j,None,,,1.035982299999887,0.1623440999999275,,,,,159,0,159,0,743.1717091,,,,,,,,,,,,,,,,,,,,,,,,,,,,,,743.155133,743.1717091,743.7049730000001,743.6551265,,,,,,,,,,,,,,,,,,,,,,,743.6955073000001,743.7049730000001,743.7049730000001,743.7049730000001,746.6716349999999,j,746.6716838,,,746.6716939,None,,,1.035982299999887,0.1623440999999275,,,,,,,,,,00015,001,2025-11-08_11h36.39.538,MST_task,2024.2.2,60.399093047221974,2025-11-08 11h36.51.840518 +0530,
,Objects\085a.jpg,160,0,160,,,,,,,j,None,,,1.1785039999999753,0.1337101999999959,,,,,160,0,160,0,746.6882701,,,,,,,,,,,,,,,,,,,,,,,,,,,,,,746.6717877000001,746.6882701,747.2048938,747.1717536000001,,,,,,,,,,,,,,,,,,,,,,,747.197852,747.2048938,747.2048938,747.2048938,750.1882393000001,j,750.1882972000001,,,750.1883078999999,None,,,1.1785039999999753,0.1337101999999959,,,,,,,,,,00015,001,2025-11-08_11h36.39.538,MST_task,2024.2.2,60.399093047221974,2025-11-08 11h36.51.840518 +0530,
,Scenes\143a.jpg,161,0,161,,,,,,,j,None,,,1.0306110999999873,0.13780640000004496,,,,,161,0,161,0,750.2048489000001,,,,,,,,,,,,,,,,,,,,,,,,,,,,,,750.1884047000001,750.2048489000001,750.7384878,750.6883698000001,,,,,,,,,,,,,,,,,,,,,,,750.7235742,750.7384878,750.7384878,750.7384878,753.7048022000001,j,753.7059627000001,,,753.7059750999999,None,,,1.0306110999999873,0.13780640000004496,,,,,,,,,,00015,001,2025-11-08_11h36.39.538,MST_task,2024.2.2,60.399093047221974,2025-11-08 11h36.51.840518 +0530,
,Scenes\145a.jpg,162,0,162,,,,,,,j,None,,,0.93455750000021,0.16228519999981472,,,,,162,0,162,0,753.7214109000001,,,,,,,,,,,,,,,,,,,,,,,,,,,,,,753.7060596000001,753.7214109000001,754.2380751000001,754.2049316,,,,,,,,,,,,,,,,,,,,,,,754.2310586000001,754.2380751000001,754.2380751000001,754.2380751000001,757.2215172000001,j,757.2215585000001,,,757.2215937000001,None,,,0.93455750000021,0.16228519999981472,,,,,,,,,,00015,001,2025-11-08_11h36.39.538,MST_task,2024.2.2,60.399093047221974,2025-11-08 11h36.51.840518 +0530,
,Scenes\091a.jpg,163,0,163,,,,,,,j,None,,,1.481974399999899,0.1534074999999575,,,,,163,0,163,0,757.2380350000001,,,,,,,,,,,,,,,,,,,,,,,,,,,,,,757.2216963000001,757.2380350000001,757.7713782999999,757.7217336000001,,,,,,,,,,,,,,,,,,,,,,,757.7533957,757.7713782999999,757.7713782999999,757.7713782999999,760.7381354000001,j,760.7381707,,,760.7381806000001,None,,,1.481974399999899,0.1534074999999575,,,,,,,,,,00015,001,2025-11-08_11h36.39.538,MST_task,2024.2.2,60.399093047221974,2025-11-08 11h36.51.840518 +0530,
,Scenes\155a.jpg,164,0,164,,,,,,,j,None,,,1.893221799999992,0.10150499999986096,,,,,164,0,164,0,760.7546369000002,,,,,,,,,,,,,,,,,,,,,,,,,,,,,,760.7382704000001,760.7546369000002,761.2879097,761.2381414000001,,,,,,,,,,,,,,,,,,,,,,,761.2687876,761.2879097,761.2879097,761.2879097,764.2545661000001,j,764.2546041,,,764.2546139000001,None,,,1.893221799999992,0.10150499999986096,,,,,,,,,,00015,001,2025-11-08_11h36.39.538,MST_task,2024.2.2,60.399093047221974,2025-11-08 11h36.51.840518 +0530,
,Scenes\163a.jpg,165,0,165,,,,,,,j,None,,,1.7716554999999516,0.12035919999993894,,,,,165,0,165,0,764.2711864,,,,,,,,,,,,,,,,,,,,,,,,,,,,,,764.2547405,764.2711864,,764.7546873000001,,,,,,,,,,,,,,,,,,,,,,,764.7834519,764.8045383000001,764.8045383000001,764.8045383000001,767.7713060000001,j,767.7713406,,,767.7713484999999,None,,,1.7716554999999516,0.12035919999993894,,,,,,,,,,00015,001,2025-11-08_11h36.39.538,MST_task,2024.2.2,60.399093047221974,2025-11-08 11h36.51.840518 +0530,
,Scenes\160a.jpg,166,0,166,,,,,,,j,None,,,1.8659847000001264,0.14643789999990986,,,,,166,0,166,0,767.7877732,,,,,,,,,,,,,,,,,,,,,,,,,,,,,,767.7714307000001,767.7877732,768.3211269000001,768.2713001,,,,,,,,,,,,,,,,,,,,,,,768.2999647000001,768.3211269000001,768.3211269000001,768.3211269000001,771.2877273000001,j,771.287761,,,771.287771,None,,,1.8659847000001264,0.14643789999990986,,,,,,,,,,00015,001,2025-11-08_11h36.39.538,MST_task,2024.2.2,60.399093047221974,2025-11-08 11h36.51.840518 +0530,
,Scenes\092a.jpg,167,0,167,,,,,,,f,None,,,1.1532216999999036,0.15844510000010814,,,,,167,0,167,0,771.3043933000001,,,,,,,,,,,,,,,,,,,,,,,,,,,,,,771.2878575,771.3043933000001,771.8376908,771.7879546000001,,,,,,,,,,,,,,,,,,,,,,,771.8169951,771.8376908,771.8376908,771.8376908,774.8044628,f,774.8044976000001,,,774.8045074000001,None,,,1.1532216999999036,0.15844510000010814,,,,,,,,,,00015,001,2025-11-08_11h36.39.538,MST_task,2024.2.2,60.399093047221974,2025-11-08 11h36.51.840518 +0530,
,Objects\005a.jpg,168,0,168,,,,,,,f,None,,,1.0010694000000058,0.15807280000012724,,,,,168,0,168,0,774.8210088999999,,,,,,,,,,,,,,,,,,,,,,,,,,,,,,774.8045657,774.8210088999999,775.3376345000001,775.3045215,,,,,,,,,,,,,,,,,,,,,,,775.3266020000001,775.3376345000001,775.3376345000001,775.3376345000001,778.3209117000001,f,778.3223665,,,778.3223771,None,,,1.0010694000000058,0.15807280000012724,,,,,,,,,,00015,001,2025-11-08_11h36.39.538,MST_task,2024.2.2,60.399093047221974,2025-11-08 11h36.51.840518 +0530,
,Objects\070a.jpg,169,0,169,,,,,,,f,None,,,1.2200496999998904,0.14194769999994605,,,,,169,0,169,0,778.3375504,,,,,,,,,,,,,,,,,,,,,,,,,,,,,,778.3224611,778.3375504,778.8709088,778.8211474,,,,,,,,,,,,,,,,,,,,,,,778.8533664000001,778.8709088,778.8709088,778.8709088,781.8375542000001,f,781.8375877999999,,,781.837597,None,,,1.2200496999998904,0.14194769999994605,,,,,,,,,,00015,001,2025-11-08_11h36.39.538,MST_task,2024.2.2,60.399093047221974,2025-11-08 11h36.51.840518 +0530,
,Objects\092a.jpg,170,0,170,,,,,,,f,None,,,1.2919218999998066,0.1539180000002034,,,,,170,0,170,0,781.8541721000001,,,,,,,,,,,,,,,,,,,,,,,,,,,,,,781.8376708000001,781.8541721000001,782.3708365,782.3376593,,,,,,,,,,,,,,,,,,,,,,,782.3608869,782.3708365,782.3708365,782.3708365,785.3541264,f,785.3541592000001,,,785.3541678000001,None,,,1.2919218999998066,0.1539180000002034,,,,,,,,,,00015,001,2025-11-08_11h36.39.538,MST_task,2024.2.2,60.399093047221974,2025-11-08 11h36.51.840518 +0530,
,Objects\133a.jpg,171,0,171,,,,,,,j,None,,,1.5896812999999383,0.10745309999992969,,,,,171,0,171,0,785.3708319,,,,,,,,,,,,,,,,,,,,,,,,,,,,,,785.354255,785.3708319,785.8873807,785.8543702,,,,,,,,,,,,,,,,,,,,,,,785.8832434000001,785.8873807,785.8873807,785.8873807,788.8707160000001,j,788.8707512000001,,,788.8707608,None,,,1.5896812999999383,0.10745309999992969,,,,,,,,,,00015,001,2025-11-08_11h36.39.538,MST_task,2024.2.2,60.399093047221974,2025-11-08 11h36.51.840518 +0530,
,Objects\083a.jpg,172,0,172,,,,,,,f,None,,,1.0838412000000517,0.1812592000001132,,,,,172,0,172,0,788.8874964000001,,,,,,,,,,,,,,,,,,,,,,,,,,,,,,788.8708177999999,788.8874964000001,789.4039768,789.3708561000001,,,,,,,,,,,,,,,,,,,,,,,789.3942770000001,789.4039768,789.4039768,789.4039768,792.3873056,f,792.3873435,,,792.3873530999999,None,,,1.0838412000000517,0.1812592000001132,,,,,,,,,,00015,001,2025-11-08_11h36.39.538,MST_task,2024.2.2,60.399093047221974,2025-11-08 11h36.51.840518 +0530,
,Objects\120a.jpg,173,0,173,,,,,,,f,None,,,1.390828000000056,0.15777959999991253,,,,,173,0,173,0,792.4039425999999,,,,,,,,,,,,,,,,,,,,,,,,,,,,,,792.3874135000001,792.4039425999999,792.9205630000001,792.8875001000001,,,,,,,,,,,,,,,,,,,,,,,792.9112483000001,792.9205630000001,792.9205630000001,792.9205630000001,795.9039233999999,f,795.9039604,,,795.9039700999999,None,,,1.390828000000056,0.15777959999991253,,,,,,,,,,00015,001,2025-11-08_11h36.39.538,MST_task,2024.2.2,60.399093047221974,2025-11-08 11h36.51.840518 +0530,
,Objects\098a.jpg,174,0,174,,,,,,,f,None,,,1.8161393000000317,0.10169209999980922,,,,,174,0,174,0,795.9204950000001,,,,,,,,,,,,,,,,,,,,,,,,,,,,,,795.9040285000001,795.9204950000001,796.4371635,796.4040087999999,,,,,,,,,,,,,,,,,,,,,,,796.4299956,796.4371635,796.4371635,796.4371635,799.4205081,f,799.4205564000001,,,799.4205664000001,None,,,1.8161393000000317,0.10169209999980922,,,,,,,,,,00015,001,2025-11-08_11h36.39.538,MST_task,2024.2.2,60.399093047221974,2025-11-08 11h36.51.840518 +0530,
,Scenes\176a.jpg,175,0,175,,,,,,,j,None,,,2.2291938999999275,0.10103890000004867,,,,,175,0,175,0,799.4370954999999,,,,,,,,,,,,,,,,,,,,,,,,,,,,,,799.4206547000001,799.4370954999999,799.9704189000001,799.9206056,,,,,,,,,,,,,,,,,,,,,,,799.9559243000001,799.9704189000001,799.9704189000001,799.9704189000001,802.9370738,j,802.9383150000001,,,802.9383293000001,None,,,2.2291938999999275,0.10103890000004867,,,,,,,,,,00015,001,2025-11-08_11h36.39.538,MST_task,2024.2.2,60.399093047221974,2025-11-08 11h36.51.840518 +0530,
,Scenes\157a.jpg,176,0,176,,,,,,,j,None,,,1.7341974999999366,0.12763420000010228,,,,,176,0,176,0,802.9537148,,,,,,,,,,,,,,,,,,,,,,,,,,,,,,802.9383964000001,802.9537148,803.4873877,803.4371755,,,,,,,,,,,,,,,,,,,,,,,803.4658176,803.4873877,803.4873877,803.4873877,806.4536515,j,806.4536866999999,,,806.4536970000001,None,,,1.7341974999999366,0.12763420000010228,,,,,,,,,,00015,001,2025-11-08_11h36.39.538,MST_task,2024.2.2,60.399093047221974,2025-11-08 11h36.51.840518 +0530,
,Scenes\001a.jpg,177,0,177,,,,,,,f,None,,,1.9428721000001588,0.13580839999985983,,,,,177,0,177,0,806.470302,,,,,,,,,,,,,,,,,,,,,,,,,,,,,,806.4537792000001,806.470302,807.0039398000001,806.9537789000001,,,,,,,,,,,,,,,,,,,,,,,806.9926288000001,807.0039398000001,807.0039398000001,807.0039398000001,809.9703423999999,f,809.9703766,,,809.9703863,None,,,1.9428721000001588,0.13580839999985983,,,,,,,,,,00015,001,2025-11-08_11h36.39.538,MST_task,2024.2.2,60.399093047221974,2025-11-08 11h36.51.840518 +0530,
,Scenes\127a.jpg,178,0,178,,,,,,,j,None,,,1.8073346999999558,0.13201279999998405,,,,,178,0,178,0,809.9869780000001,,,,,,,,,,,,,,,,,,,,,,,,,,,,,,809.9704704000001,809.9869780000001,810.5205227000001,810.4705712,,,,,,,,,,,,,,,,,,,,,,,810.5043613,810.5205227000001,810.5205227000001,810.5205227000001,813.4869732,j,813.4870086999999,,,813.4870188,None,,,1.8073346999999558,0.13201279999998405,,,,,,,,,,00015,001,2025-11-08_11h36.39.538,MST_task,2024.2.2,60.399093047221974,2025-11-08 11h36.51.840518 +0530,
,Scenes\164a.jpg,179,0,179,,,,,,,f,None,,,2.155899800000043,0.15657120000014402,,,,,179,0,179,0,813.5036207,,,,,,,,,,,,,,,,,,,,,,,,,,,,,,813.4871006999999,813.5036207,814.0371875999999,813.9871122,,,,,,,,,,,,,,,,,,,,,,,814.0198514000001,814.0371875999999,814.0371875999999,814.0371875999999,817.0035469,f,817.0035806999999,,,817.0035906,None,,,2.155899800000043,0.15657120000014402,,,,,,,,,,00015,001,2025-11-08_11h36.39.538,MST_task,2024.2.2,60.399093047221974,2025-11-08 11h36.51.840518 +0530,
,Scenes\074a.jpg,180,0,180,,,,,,,j,None,,,1.5893662999999378,0.11984499999994114,,,,,180,0,180,0,817.0202329000001,,,,,,,,,,,,,,,,,,,,,,,,,,,,,,817.0036488000001,817.0202329000001,817.55348,817.5036276999999,,,,,,,,,,,,,,,,,,,,,,,817.5320517,817.55348,817.55348,817.55348,820.5201181,j,820.5201548,,,820.5201643,None,,,1.5893662999999378,0.11984499999994114,,,,,,,,,,00015,001,2025-11-08_11h36.39.538,MST_task,2024.2.2,60.399093047221974,2025-11-08 11h36.51.840518 +0530,
,Scenes\095a.jpg,181,0,181,,,,,,,f,None,,,1.9918373000000429,0.1416748000001462,,,,,181,0,181,0,820.5368371,,,,,,,,,,,,,,,,,,,,,,,,,,,,,,820.5202533000001,820.5368371,821.0536748,821.0203226000001,,,,,,,,,,,,,,,,,,,,,,,821.0457854000001,821.0536748,821.0536748,821.0536748,824.0366943000001,f,824.0367261000001,,,824.0367355999999,None,,,1.9918373000000429,0.1416748000001462,,,,,,,,,,00015,001,2025-11-08_11h36.39.538,MST_task,2024.2.2,60.399093047221974,2025-11-08 11h36.51.840518 +0530,
