thisN,thisTrialN,thisRepN,key_resp_3.keys,key_resp_3.rt,key_resp_3.duration,trials.thisRepN,trials.thisTrialN,trials.thisN,thisRow.t,notes,intro_page.started,text.started,key_resp.started,intro_page.stopped,key_resp.keys,key_resp.rt,key_resp.duration,instructions.started,text_2.started,key_resp_2.started,instructions.stopped,key_resp_2.keys,key_resp_2.rt,key_resp_2.duration,demo1.started,image_1.started,image_2.started,text_7.started,key_resp_6.started,text_9.started,demo1.stopped,key_resp_6.keys,key_resp_6.rt,key_resp_6.duration,demo2.started,image_5.started,image_6.started,text_11.started,text_12.started,key_resp_8.started,demo2.stopped,key_resp_8.keys,key_resp_8.rt,key_resp_8.duration,demo_conclusion.started,text_13.started,key_resp_9.started,demo_conclusion.stopped,key_resp_9.keys,key_resp_9.rt,key_resp_9.duration,start_test.started,text_6.started,key_resp_5.started,start_test.stopped,key_resp_5.keys,key_resp_5.rt,key_resp_5.duration,ISI.started,text_4.started,text_4.stopped,ISI.stopped,routine_1.started,image.started,text_3.started,key_resp_3.started,routine_1.stopped,image_path,position_of_stimuli,trials.key_resp_3.keys,trials.key_resp_3.rt,trials.key_resp_3.duration,End_page.started,text_5.started,key_resp_4.started,End_page.stopped,key_resp_4.keys,key_resp_4.rt,key_resp_4.duration,participant,session,date,expName,psychopyVersion,frameRate,expStart,
,,,,,,,,,,,0.0017112000004999572,0.003757100001166691,0.003757100001166691,2.4405627000014647,space,2.3880735999991884,None,,,,,,,,,,,,,,,,,,,,,,,,,,,,,,,,,,,,,,,,,,,,,,,,,,,,,,,,,,,,,,,00028,001,2025-11-17_17h48.12.274,MST_test,2024.2.0,60.14060874314628,2025-11-17 17h48.19.439289 +0530,
,,,,,,,,,,,,,,,,,,2.4406030000009196,2.451971800001047,2.451971800001047,28.13031580000097,space,25.6681695999996,None,,,,,,,,,,,,,,,,,,,,,,,,,,,,,,,,,,,,,,,,,,,,,,,,,,,,,,,,00028,001,2025-11-17_17h48.12.274,MST_test,2024.2.0,60.14060874314628,2025-11-17 17h48.19.439289 +0530,
,,,,,,,,,,,,,,,,,,,,,,,,,28.130394100000558,28.14571260000048,28.14571260000048,28.14571260000048,28.14571260000048,28.14571260000048,38.19830320000074,space,10.037650000000212,None,,,,,,,,,,,,,,,,,,,,,,,,,,,,,,,,,,,,,,,,,,,,,,00028,001,2025-11-17_17h48.12.274,MST_test,2024.2.0,60.14060874314628,2025-11-17 17h48.19.439289 +0530,
,,,,,,,,,,,,,,,,,,,,,,,,,,,,,,,,,,,38.198439800000415,38.212565100000575,38.212565100000575,38.212565100000575,38.212565100000575,38.212565100000575,41.397178500001246,space,3.1708738999986963,None,,,,,,,,,,,,,,,,,,,,,,,,,,,,,,,,,,,,00028,001,2025-11-17_17h48.12.274,MST_test,2024.2.0,60.14060874314628,2025-11-17 17h48.19.439289 +0530,
,,,,,,,,,,,,,,,,,,,,,,,,,,,,,,,,,,,,,,,,,,,,,41.39726210000117,41.411909399999786,41.411909399999786,68.81377840000096,space,27.395788599998923,None,,,,,,,,,,,,,,,,,,,,,,,,,,,,,00028,001,2025-11-17_17h48.12.274,MST_test,2024.2.0,60.14060874314628,2025-11-17 17h48.19.439289 +0530,
,,,,,,,,,,,,,,,,,,,,,,,,,,,,,,,,,,,,,,,,,,,,,,,,,,,,68.8138725000008,68.82855800000107,68.82855800000107,79.2806655000004,space,10.435357499998645,None,,,,,,,,,,,,,,,,,,,,,,00028,001,2025-11-17_17h48.12.274,MST_test,2024.2.0,60.14060874314628,2025-11-17 17h48.19.439289 +0530,
0,0,1,n,5.112685999998575,None,1,0,0,79.2948180000003,,,,,,,,,,,,,,,,,,,,,,,,,,,,,,,,,,,,,,,,,,,,,,,,,,79.28788920000079,79.2948180000003,79.80746330000147,79.77959270000065,79.80464310000025,79.80746330000147,79.80746330000147,79.80746330000147,84.9308187000006,Scenes\168a.jpg,mid,n,5.112685999998575,None,,,,,,,,00028,001,2025-11-17_17h48.12.274,MST_test,2024.2.0,60.14060874314628,2025-11-17 17h48.19.439289 +0530,
1,0,2,o,13.615047200000845,None,2,0,1,84.94509939999989,,,,,,,,,,,,,,,,,,,,,,,,,,,,,,,,,,,,,,,,,,,,,,,,,,84.93120920000001,84.94509939999989,85.44926310000119,85.42982850000044,85.44691620000049,85.44926310000119,85.44926310000119,85.44926310000119,99.08070659999976,Objects\004a.jpg,post,o,13.615047200000845,None,,,,,,,,00028,001,2025-11-17_17h48.12.274,MST_test,2024.2.0,60.14060874314628,2025-11-17 17h48.19.439289 +0530,
2,0,3,s,2.6751019999992423,None,3,0,2,99.09505189999982,,,,,,,,,,,,,,,,,,,,,,,,,,,,,,,,,,,,,,,,,,,,,,,,,,99.0810132000006,99.09505189999982,99.60502220000126,99.57965400000103,99.60186820000126,99.60502220000126,99.60502220000126,99.60502220000126,102.29712370000016,Scenes\067b.jpg,post,s,2.6751019999992423,None,,,,,,,,00028,001,2025-11-17_17h48.12.274,MST_test,2024.2.0,60.14060874314628,2025-11-17 17h48.19.439289 +0530,
3,0,4,o,3.683359399999972,None,4,0,3,102.31188010000005,,,,,,,,,,,,,,,,,,,,,,,,,,,,,,,,,,,,,,,,,,,,,,,,,,102.2973976000012,102.31188010000005,102.81256460000077,102.79540670000097,102.80583750000005,102.81256460000077,102.81256460000077,102.81256460000077,106.49800640000103,Objects\016a.jpg,post,o,3.683359399999972,None,,,,,,,,00028,001,2025-11-17_17h48.12.274,MST_test,2024.2.0,60.14060874314628,2025-11-17 17h48.19.439289 +0530,
4,0,5,s,2.7120996000012383,None,5,0,4,106.51191699999981,,,,,,,,,,,,,,,,,,,,,,,,,,,,,,,,,,,,,,,,,,,,,,,,,,106.4983941999999,106.51191699999981,107.02400240000134,106.99657060000027,107.02112260000104,107.02400240000134,107.02400240000134,107.02400240000134,109.74762160000137,Scenes\094b.jpg,post,s,2.7120996000012383,None,,,,,,,,00028,001,2025-11-17_17h48.12.274,MST_test,2024.2.0,60.14060874314628,2025-11-17 17h48.19.439289 +0530,
5,0,6,o,2.0466246000014507,None,6,0,5,109.76188990000082,,,,,,,,,,,,,,,,,,,,,,,,,,,,,,,,,,,,,,,,,,,,,,,,,,109.74807940000028,109.76188990000082,110.26538380000056,110.2461414999998,110.26210610000089,110.26538380000056,110.26538380000056,110.26538380000056,112.31465890000072,Objects\088a.jpg,pre,o,2.0466246000014507,None,,,,,,,,00028,001,2025-11-17_17h48.12.274,MST_test,2024.2.0,60.14060874314628,2025-11-17 17h48.19.439289 +0530,
6,0,7,o,1.3341627000008884,None,7,0,6,112.32853400000022,,,,,,,,,,,,,,,,,,,,,,,,,,,,,,,,,,,,,,,,,,,,,,,,,,112.31502,112.32853400000022,112.83312230000047,112.81330600000001,112.83077220000087,112.83312230000047,112.83312230000047,112.83312230000047,114.18047060000026,Objects\037b.jpg,pre,o,1.3341627000008884,None,,,,,,,,00028,001,2025-11-17_17h48.12.274,MST_test,2024.2.0,60.14060874314628,2025-11-17 17h48.19.439289 +0530,
7,0,8,s,1.7419599000004382,None,8,0,7,114.19510830000036,,,,,,,,,,,,,,,,,,,,,,,,,,,,,,,,,,,,,,,,,,,,,,,,,,114.18081720000009,114.19510830000036,114.70537580000018,114.67985159999989,114.70250930000111,114.70537580000018,114.70537580000018,114.70537580000018,116.46424300000035,Scenes\136b.jpg,pre,s,1.7419599000004382,None,,,,,,,,00028,001,2025-11-17_17h48.12.274,MST_test,2024.2.0,60.14060874314628,2025-11-17 17h48.19.439289 +0530,
8,0,9,n,3.498343400000522,None,9,0,8,116.47859600000083,,,,,,,,,,,,,,,,,,,,,,,,,,,,,,,,,,,,,,,,,,,,,,,,,,116.46458320000056,116.47859600000083,116.98170130000108,116.9630804999997,116.97863680000046,116.98170130000108,116.98170130000108,116.98170130000108,120.49799680000069,Foils\scenes19.jpg,none,n,3.498343400000522,None,,,,,,,,00028,001,2025-11-17_17h48.12.274,MST_test,2024.2.0,60.14060874314628,2025-11-17 17h48.19.439289 +0530,
9,0,10,o,1.5346676999997726,None,10,0,9,120.51183350000065,,,,,,,,,,,,,,,,,,,,,,,,,,,,,,,,,,,,,,,,,,,,,,,,,,120.4983755000012,120.51183350000065,121.03270739999971,120.99644850000004,121.03005430000121,121.03270739999971,121.03270739999971,121.03270739999971,122.58063180000136,Objects\075b.jpg,pre,o,1.5346676999997726,None,,,,,,,,00028,001,2025-11-17_17h48.12.274,MST_test,2024.2.0,60.14060874314628,2025-11-17 17h48.19.439289 +0530,
10,0,11,s,2.1502722000004724,None,11,0,10,122.5951170999997,,,,,,,,,,,,,,,,,,,,,,,,,,,,,,,,,,,,,,,,,,,,,,,,,,122.58100370000102,122.5951170999997,123.1051335000011,123.07983890000105,123.10218739999982,123.1051335000011,123.1051335000011,123.1051335000011,125.26431220000086,Scenes\063a.jpg,post,s,2.1502722000004724,None,,,,,,,,00028,001,2025-11-17_17h48.12.274,MST_test,2024.2.0,60.14060874314628,2025-11-17 17h48.19.439289 +0530,
11,0,12,n,1.3890056000000186,None,12,0,11,125.2785799000012,,,,,,,,,,,,,,,,,,,,,,,,,,,,,,,,,,,,,,,,,,,,,,,,,,125.26468980000027,125.2785799000012,125.77862170000117,125.76188809999985,125.77482849999978,125.77862170000117,125.77862170000117,125.77862170000117,127.18081280000115,Foils\scenes17.jpg,none,n,1.3890056000000186,None,,,,,,,,00028,001,2025-11-17_17h48.12.274,MST_test,2024.2.0,60.14060874314628,2025-11-17 17h48.19.439289 +0530,
12,0,13,s,3.308547099999487,None,13,0,12,127.19511870000133,,,,,,,,,,,,,,,,,,,,,,,,,,,,,,,,,,,,,,,,,,,,,,,,,,127.18117900000107,127.19511870000133,127.70677510000132,127.6798232000001,127.70401649999985,127.70677510000132,127.70677510000132,127.70677510000132,131.0310851000013,Scenes\076a.jpg,post,s,3.308547099999487,None,,,,,,,,00028,001,2025-11-17_17h48.12.274,MST_test,2024.2.0,60.14060874314628,2025-11-17 17h48.19.439289 +0530,
13,0,14,s,3.1534577000002173,None,14,0,13,131.04537840000012,,,,,,,,,,,,,,,,,,,,,,,,,,,,,,,,,,,,,,,,,,,,,,,,,,131.03148560000045,131.04537840000012,131.55786550000084,131.52988430000005,131.55458379999982,131.55786550000084,131.55786550000084,131.55786550000084,134.71422990000065,Scenes\167a.jpg,pre,s,3.1534577000002173,None,,,,,,,,00028,001,2025-11-17_17h48.12.274,MST_test,2024.2.0,60.14060874314628,2025-11-17 17h48.19.439289 +0530,
14,0,15,s,2.846355700001368,None,15,0,14,134.72854520000146,,,,,,,,,,,,,,,,,,,,,,,,,,,,,,,,,,,,,,,,,,,,,,,,,,134.71455750000132,134.72854520000146,135.24108070000148,135.21290750000117,135.23806549999972,135.24108070000148,135.24108070000148,135.24108070000148,138.09786600000007,Scenes\165b.jpg,pre,s,2.846355700001368,None,,,,,,,,00028,001,2025-11-17_17h48.12.274,MST_test,2024.2.0,60.14060874314628,2025-11-17 17h48.19.439289 +0530,
15,0,16,s,3.655208100000891,None,16,0,15,138.1118793000005,,,,,,,,,,,,,,,,,,,,,,,,,,,,,,,,,,,,,,,,,,,,,,,,,,138.09821960000045,138.1118793000005,138.61673540000083,138.59651210000084,138.61349490000066,138.61673540000083,138.61673540000083,138.61673540000083,142.28112099999998,Objects\051b.jpg,post,s,3.655208100000891,None,,,,,,,,00028,001,2025-11-17_17h48.12.274,MST_test,2024.2.0,60.14060874314628,2025-11-17 17h48.19.439289 +0530,
16,0,17,n,2.2462338999994245,None,17,0,16,142.2951334999998,,,,,,,,,,,,,,,,,,,,,,,,,,,,,,,,,,,,,,,,,,,,,,,,,,142.28144760000032,142.2951334999998,142.8016501000002,142.77966200000083,142.79849990000002,142.8016501000002,142.8016501000002,142.8016501000002,145.06404170000133,Scenes\185b.jpg,mid,n,2.2462338999994245,None,,,,,,,,00028,001,2025-11-17_17h48.12.274,MST_test,2024.2.0,60.14060874314628,2025-11-17 17h48.19.439289 +0530,
17,0,18,n,1.9811704000003374,None,18,0,17,145.07855030000064,,,,,,,,,,,,,,,,,,,,,,,,,,,,,,,,,,,,,,,,,,,,,,,,,,145.06435899999997,145.07855030000064,145.5871487000004,145.56293689999984,145.58392420000018,145.5871487000004,145.5871487000004,145.5871487000004,147.5808649999999,Foils\scenes22.jpg,none,n,1.9811704000003374,None,,,,,,,,00028,001,2025-11-17_17h48.12.274,MST_test,2024.2.0,60.14060874314628,2025-11-17 17h48.19.439289 +0530,
18,0,19,s,1.789891999998872,None,19,0,18,147.59518370000114,,,,,,,,,,,,,,,,,,,,,,,,,,,,,,,,,,,,,,,,,,,,,,,,,,147.581290600001,147.59518370000114,148.10607970000092,148.07972250000057,148.102743200001,148.10607970000092,148.10607970000092,148.10607970000092,149.89765230000012,Scenes\103b.jpg,pre,s,1.789891999998872,None,,,,,,,,00028,001,2025-11-17_17h48.12.274,MST_test,2024.2.0,60.14060874314628,2025-11-17 17h48.19.439289 +0530,
19,0,20,s,1.1874177000008785,None,20,0,19,149.91193380000004,,,,,,,,,,,,,,,,,,,,,,,,,,,,,,,,,,,,,,,,,,,,,,,,,,149.89791330000116,149.91193380000004,150.41273640000145,150.39642939999976,150.40997290000087,150.41273640000145,150.41273640000145,150.41273640000145,151.6142217000015,Foils\scenes1.jpg,none,s,1.1874177000008785,None,,,,,,,,00028,001,2025-11-17_17h48.12.274,MST_test,2024.2.0,60.14060874314628,2025-11-17 17h48.19.439289 +0530,
20,0,21,n,2.853115500000058,None,21,0,20,151.6285697000003,,,,,,,,,,,,,,,,,,,,,,,,,,,,,,,,,,,,,,,,,,,,,,,,,,151.6146116,151.6285697000003,152.14695759999995,152.1131690000002,152.14371840000058,152.14695759999995,152.14695759999995,152.14695759999995,155.01339830000143,Foils\scenes23.jpg,none,n,2.853115500000058,None,,,,,,,,00028,001,2025-11-17_17h48.12.274,MST_test,2024.2.0,60.14060874314628,2025-11-17 17h48.19.439289 +0530,
21,0,22,o,1.305989899999986,None,22,0,21,155.02853420000065,,,,,,,,,,,,,,,,,,,,,,,,,,,,,,,,,,,,,,,,,,,,,,,,,,155.01365799999985,155.02853420000065,155.53362019999986,155.51309089999995,155.53114559999995,155.53362019999986,155.53362019999986,155.53362019999986,156.84735010000077,Objects\170b.jpg,mid,o,1.305989899999986,None,,,,,,,,00028,001,2025-11-17_17h48.12.274,MST_test,2024.2.0,60.14060874314628,2025-11-17 17h48.19.439289 +0530,
22,0,23,s,4.060621999999057,None,23,0,22,156.86188810000021,,,,,,,,,,,,,,,,,,,,,,,,,,,,,,,,,,,,,,,,,,,,,,,,,,156.84771590000128,156.86188810000021,157.36309950000032,157.34666710000056,157.36063319999994,157.36309950000032,157.36309950000032,157.36309950000032,161.43049900000005,Objects\029b.jpg,pre,s,4.060621999999057,None,,,,,,,,00028,001,2025-11-17_17h48.12.274,MST_test,2024.2.0,60.14060874314628,2025-11-17 17h48.19.439289 +0530,
23,0,24,o,1.309232300000076,None,24,0,23,161.44503220000115,,,,,,,,,,,,,,,,,,,,,,,,,,,,,,,,,,,,,,,,,,,,,,,,,,161.4307215000008,161.44503220000115,161.94626410000092,161.9297927000007,161.9437783000012,161.94626410000092,161.94626410000092,161.94626410000092,163.2642749000006,Objects\108a.jpg,mid,o,1.309232300000076,None,,,,,,,,00028,001,2025-11-17_17h48.12.274,MST_test,2024.2.0,60.14060874314628,2025-11-17 17h48.19.439289 +0530,
24,0,25,o,1.6354444000007788,None,25,0,24,163.27863419999994,,,,,,,,,,,,,,,,,,,,,,,,,,,,,,,,,,,,,,,,,,,,,,,,,,163.26466640000035,163.27863419999994,163.78039770000032,163.7631892999998,163.7775357999999,163.78039770000032,163.78039770000032,163.78039770000032,165.43082250000043,Scenes\066a.jpg,pre,o,1.6354444000007788,None,,,,,,,,00028,001,2025-11-17_17h48.12.274,MST_test,2024.2.0,60.14060874314628,2025-11-17 17h48.19.439289 +0530,
25,0,26,n,2.676543900000979,None,26,0,25,165.4453033000009,,,,,,,,,,,,,,,,,,,,,,,,,,,,,,,,,,,,,,,,,,,,,,,,,,165.43113470000026,165.4453033000009,165.9474979000006,165.9294127000012,165.9448951000013,165.9474979000006,165.9474979000006,165.9474979000006,168.63131600000088,Foils\scenes12.jpg,none,n,2.676543900000979,None,,,,,,,,00028,001,2025-11-17_17h48.12.274,MST_test,2024.2.0,60.14060874314628,2025-11-17 17h48.19.439289 +0530,
26,0,27,n,1.6454687000004924,None,27,0,26,168.64534400000048,,,,,,,,,,,,,,,,,,,,,,,,,,,,,,,,,,,,,,,,,,,,,,,,,,168.63170619999983,168.64534400000048,169.1465102000002,169.12995620000038,169.14388150000013,169.1465102000002,169.1465102000002,169.1465102000002,170.79777520000061,Foils\scenes7.jpg,none,n,1.6454687000004924,None,,,,,,,,00028,001,2025-11-17_17h48.12.274,MST_test,2024.2.0,60.14060874314628,2025-11-17 17h48.19.439289 +0530,
27,0,28,s,1.8221324000005552,None,28,0,27,170.81207020000147,,,,,,,,,,,,,,,,,,,,,,,,,,,,,,,,,,,,,,,,,,,,,,,,,,170.79820350000045,170.81207020000147,171.32141250000132,171.29650180000135,171.31864730000052,171.32141250000132,171.32141250000132,171.32141250000132,173.14776359999996,Scenes\126b.jpg,post,s,1.8221324000005552,None,,,,,,,,00028,001,2025-11-17_17h48.12.274,MST_test,2024.2.0,60.14060874314628,2025-11-17 17h48.19.439289 +0530,
28,0,29,o,7.020725200000015,None,29,0,28,173.1619021000006,,,,,,,,,,,,,,,,,,,,,,,,,,,,,,,,,,,,,,,,,,,,,,,,,,173.14816020000035,173.1619021000006,173.6673733000007,173.64667920000102,173.6644262000009,173.6673733000007,173.6673733000007,173.6673733000007,180.69762420000006,Scenes\152b.jpg,pre,o,7.020725200000015,None,,,,,,,,00028,001,2025-11-17_17h48.12.274,MST_test,2024.2.0,60.14060874314628,2025-11-17 17h48.19.439289 +0530,
29,0,30,n,1.4087230999994063,None,30,0,29,180.71192540000084,,,,,,,,,,,,,,,,,,,,,,,,,,,,,,,,,,,,,,,,,,,,,,,,,,180.69794640000146,180.71192540000084,181.2232397000007,181.19687570000133,181.22021289999975,181.2232397000007,181.2232397000007,181.2232397000007,182.64769660000093,Scenes\122b.jpg,post,n,1.4087230999994063,None,,,,,,,,00028,001,2025-11-17_17h48.12.274,MST_test,2024.2.0,60.14060874314628,2025-11-17 17h48.19.439289 +0530,
30,0,31,s,2.172391300000527,None,31,0,30,182.66205890000128,,,,,,,,,,,,,,,,,,,,,,,,,,,,,,,,,,,,,,,,,,,,,,,,,,182.64809740000055,182.66205890000128,183.17097450000074,183.1465689000015,183.16771909999989,183.17097450000074,183.17097450000074,183.17097450000074,185.34771490000094,Scenes\131a.jpg,pre,s,2.172391300000527,None,,,,,,,,00028,001,2025-11-17_17h48.12.274,MST_test,2024.2.0,60.14060874314628,2025-11-17 17h48.19.439289 +0530,
31,0,32,n,1.2983586999998806,None,32,0,31,185.36204200000066,,,,,,,,,,,,,,,,,,,,,,,,,,,,,,,,,,,,,,,,,,,,,,,,,,185.34810900000048,185.36204200000066,185.8690330999998,185.84670010000082,185.86586440000065,185.8690330999998,185.8690330999998,185.8690330999998,187.1811372000011,Foils\009a.jpg,none,n,1.2983586999998806,None,,,,,,,,00028,001,2025-11-17_17h48.12.274,MST_test,2024.2.0,60.14060874314628,2025-11-17 17h48.19.439289 +0530,
32,0,33,o,1.4558129999986704,None,33,0,32,187.19529760000114,,,,,,,,,,,,,,,,,,,,,,,,,,,,,,,,,,,,,,,,,,,,,,,,,,187.18156439999984,187.19529760000114,187.69635879999987,187.6797776000003,187.6939266999998,187.69635879999987,187.69635879999987,187.69635879999987,189.16403570000148,Objects\132a.jpg,mid,o,1.4558129999986704,None,,,,,,,,00028,001,2025-11-17_17h48.12.274,MST_test,2024.2.0,60.14060874314628,2025-11-17 17h48.19.439289 +0530,
33,0,34,o,1.3514309000001958,None,34,0,33,189.17870390000098,,,,,,,,,,,,,,,,,,,,,,,,,,,,,,,,,,,,,,,,,,,,,,,,,,189.16442070000085,189.17870390000098,189.67998720000105,189.6634019000012,189.67739690000053,189.67998720000105,189.67998720000105,189.67998720000105,191.04759430000013,Objects\003a.jpg,pre,o,1.3514309000001958,None,,,,,,,,00028,001,2025-11-17_17h48.12.274,MST_test,2024.2.0,60.14060874314628,2025-11-17 17h48.19.439289 +0530,
34,0,35,n,2.8751451000007364,None,35,0,34,191.06205360000058,,,,,,,,,,,,,,,,,,,,,,,,,,,,,,,,,,,,,,,,,,,,,,,,,,191.04797390000022,191.06205360000058,191.56485240000075,191.5467239999998,191.56217389999983,191.56485240000075,191.56485240000075,191.56485240000075,194.44767120000142,Foils\scenes30.jpg,none,n,2.8751451000007364,None,,,,,,,,00028,001,2025-11-17_17h48.12.274,MST_test,2024.2.0,60.14060874314628,2025-11-17 17h48.19.439289 +0530,
35,0,36,s,4.097769699999844,None,36,0,35,194.46200490000047,,,,,,,,,,,,,,,,,,,,,,,,,,,,,,,,,,,,,,,,,,,,,,,,,,194.44798210000044,194.46200490000047,194.96609340000032,194.94666430000143,194.9634272000003,194.96609340000032,194.96609340000032,194.96609340000032,199.08073780000086,Scenes\123a.jpg,mid,s,4.097769699999844,None,,,,,,,,00028,001,2025-11-17_17h48.12.274,MST_test,2024.2.0,60.14060874314628,2025-11-17 17h48.19.439289 +0530,
36,0,37,o,1.7294171000012284,None,37,0,36,199.09511310000016,,,,,,,,,,,,,,,,,,,,,,,,,,,,,,,,,,,,,,,,,,,,,,,,,,199.08112299999993,199.09511310000016,199.5981259,199.57986060000076,199.59505220000028,199.5981259,199.5981259,199.5981259,201.33093970000118,Objects\078a.jpg,post,o,1.7294171000012284,None,,,,,,,,00028,001,2025-11-17_17h48.12.274,MST_test,2024.2.0,60.14060874314628,2025-11-17 17h48.19.439289 +0530,
37,0,38,o,1.505450499998915,None,38,0,37,201.3450814000007,,,,,,,,,,,,,,,,,,,,,,,,,,,,,,,,,,,,,,,,,,,,,,,,,,201.33134880000034,201.3450814000007,201.84628320000047,201.82984680000118,201.8438380000007,201.84628320000047,201.84628320000047,201.84628320000047,203.3642749999999,Foils\026a.jpg,none,o,1.505450499998915,None,,,,,,,,00028,001,2025-11-17_17h48.12.274,MST_test,2024.2.0,60.14060874314628,2025-11-17 17h48.19.439289 +0530,
38,0,39,o,0.990509799999927,None,39,0,38,203.37847920000058,,,,,,,,,,,,,,,,,,,,,,,,,,,,,,,,,,,,,,,,,,,,,,,,,,203.36473090000072,203.37847920000058,203.8811869000001,203.86319689999982,203.87861560000056,203.8811869000001,203.8811869000001,203.8811869000001,204.88122900000053,Objects\120b.jpg,post,o,0.990509799999927,None,,,,,,,,00028,001,2025-11-17_17h48.12.274,MST_test,2024.2.0,60.14060874314628,2025-11-17 17h48.19.439289 +0530,
39,0,40,s,2.243629200000214,None,40,0,39,204.8950956000008,,,,,,,,,,,,,,,,,,,,,,,,,,,,,,,,,,,,,,,,,,,,,,,,,,204.881619400001,204.8950956000008,205.39643799999976,205.37994870000148,205.39393590000145,205.39643799999976,205.39643799999976,205.39643799999976,207.64765740000075,Objects\056b.jpg,mid,s,2.243629200000214,None,,,,,,,,00028,001,2025-11-17_17h48.12.274,MST_test,2024.2.0,60.14060874314628,2025-11-17 17h48.19.439289 +0530,
40,0,41,s,1.7134604000002582,None,41,0,40,207.66178820000096,,,,,,,,,,,,,,,,,,,,,,,,,,,,,,,,,,,,,,,,,,,,,,,,,,207.64807140000084,207.66178820000096,208.16609330000028,208.14649460000146,208.16354000000138,208.16609330000028,208.16609330000028,208.16609330000028,209.88159910000104,Objects\024b.jpg,mid,s,1.7134604000002582,None,,,,,,,,00028,001,2025-11-17_17h48.12.274,MST_test,2024.2.0,60.14060874314628,2025-11-17 17h48.19.439289 +0530,
41,0,42,n,1.8221426000000065,None,42,0,41,209.89512269999977,,,,,,,,,,,,,,,,,,,,,,,,,,,,,,,,,,,,,,,,,,,,,,,,,,209.8819893,209.89512269999977,210.40158510000037,210.3798714000004,210.39868960000058,210.40158510000037,210.40158510000037,210.40158510000037,212.23080459999983,Scenes\181b.jpg,mid,n,1.8221426000000065,None,,,,,,,,00028,001,2025-11-17_17h48.12.274,MST_test,2024.2.0,60.14060874314628,2025-11-17 17h48.19.439289 +0530,
42,0,43,n,0.9941382000015437,None,43,0,42,212.2451574000006,,,,,,,,,,,,,,,,,,,,,,,,,,,,,,,,,,,,,,,,,,,,,,,,,,212.23113120000016,212.2451574000006,212.74966850000055,212.73013210000136,212.74664090000078,212.74966850000055,212.74966850000055,212.74966850000055,213.7477998000013,Foils\033a.jpg,none,n,0.9941382000015437,None,,,,,,,,00028,001,2025-11-17_17h48.12.274,MST_test,2024.2.0,60.14060874314628,2025-11-17 17h48.19.439289 +0530,
43,0,44,n,1.494451200000185,None,44,0,43,213.76203239999995,,,,,,,,,,,,,,,,,,,,,,,,,,,,,,,,,,,,,,,,,,,,,,,,,,213.748157,213.76203239999995,214.2729717000002,214.24626309999985,214.27012120000109,214.2729717000002,214.2729717000002,214.2729717000002,215.7809674,Scenes\121b.jpg,post,n,1.494451200000185,None,,,,,,,,00028,001,2025-11-17_17h48.12.274,MST_test,2024.2.0,60.14060874314628,2025-11-17 17h48.19.439289 +0530,
44,0,45,o,2.9409981000007974,None,45,0,44,215.795032,,,,,,,,,,,,,,,,,,,,,,,,,,,,,,,,,,,,,,,,,,,,,,,,,,215.78135939999993,215.795032,216.29858410000088,216.2795442000006,216.29554120000103,216.29858410000088,216.29858410000088,216.29858410000088,219.24723390000145,Objects\036a.jpg,pre,o,2.9409981000007974,None,,,,,,,,00028,001,2025-11-17_17h48.12.274,MST_test,2024.2.0,60.14060874314628,2025-11-17 17h48.19.439289 +0530,
45,0,46,s,3.2249102999994648,None,46,0,45,219.2618411000003,,,,,,,,,,,,,,,,,,,,,,,,,,,,,,,,,,,,,,,,,,,,,,,,,,219.2475897000004,219.2618411000003,219.76689780000015,219.7461371999998,219.76453670000046,219.76689780000015,219.76689780000015,219.76689780000015,222.9975058,Objects\184b.jpg,mid,s,3.2249102999994648,None,,,,,,,,00028,001,2025-11-17_17h48.12.274,MST_test,2024.2.0,60.14060874314628,2025-11-17 17h48.19.439289 +0530,
46,0,47,s,1.1922120999988692,None,47,0,46,223.0117676000009,,,,,,,,,,,,,,,,,,,,,,,,,,,,,,,,,,,,,,,,,,,,,,,,,,222.9978487999997,223.0117676000009,223.51209220000055,223.49621509999997,223.5094719000008,223.51209220000055,223.51209220000055,223.51209220000055,224.71396880000066,Objects\177b.jpg,post,s,1.1922120999988692,None,,,,,,,,00028,001,2025-11-17_17h48.12.274,MST_test,2024.2.0,60.14060874314628,2025-11-17 17h48.19.439289 +0530,
47,0,48,n,2.986701499999981,None,48,0,47,224.72852890000104,,,,,,,,,,,,,,,,,,,,,,,,,,,,,,,,,,,,,,,,,,,,,,,,,,224.714316900001,224.72852890000104,225.23747080000066,225.21289270000125,225.23465980000037,225.23747080000066,225.23747080000066,225.23747080000066,228.2311153999999,Scenes\093a.jpg,mid,n,2.986701499999981,None,,,,,,,,00028,001,2025-11-17_17h48.12.274,MST_test,2024.2.0,60.14060874314628,2025-11-17 17h48.19.439289 +0530,
48,0,49,s,3.49017350000031,None,49,0,48,228.2450733000005,,,,,,,,,,,,,,,,,,,,,,,,,,,,,,,,,,,,,,,,,,,,,,,,,,228.23150700000042,228.2450733000005,228.74947109999994,228.72963510000045,228.7465331000003,228.74947109999994,228.74947109999994,228.74947109999994,232.24774760000037,Scenes\175a.jpg,mid,s,3.49017350000031,None,,,,,,,,00028,001,2025-11-17_17h48.12.274,MST_test,2024.2.0,60.14060874314628,2025-11-17 17h48.19.439289 +0530,
49,0,50,n,1.4419245999997656,None,50,0,49,232.26209110000127,,,,,,,,,,,,,,,,,,,,,,,,,,,,,,,,,,,,,,,,,,,,,,,,,,232.2481502999999,232.26209110000127,232.7654953000001,232.74618680000094,232.76262790000146,232.7654953000001,232.7654953000001,232.7654953000001,234.2146233000003,Foils\057a.jpg,none,n,1.4419245999997656,None,,,,,,,,00028,001,2025-11-17_17h48.12.274,MST_test,2024.2.0,60.14060874314628,2025-11-17 17h48.19.439289 +0530,
50,0,51,n,1.7253421000004892,None,51,0,50,234.22858570000062,,,,,,,,,,,,,,,,,,,,,,,,,,,,,,,,,,,,,,,,,,,,,,,,,,234.21500930000002,234.22858570000062,234.73848350000117,234.7133511000011,234.7355746000012,234.73848350000117,234.73848350000117,234.73848350000117,236.480773700001,Scenes\110b.jpg,pre,n,1.7253421000004892,None,,,,,,,,00028,001,2025-11-17_17h48.12.274,MST_test,2024.2.0,60.14060874314628,2025-11-17 17h48.19.439289 +0530,
51,0,52,o,1.2022531000002346,None,52,0,51,236.49520070000108,,,,,,,,,,,,,,,,,,,,,,,,,,,,,,,,,,,,,,,,,,,,,,,,,,236.48107020000134,236.49520070000108,236.99787600000127,236.97961420000138,236.99502829999983,236.99787600000127,236.99787600000127,236.99787600000127,238.21357630000057,Objects\086b.jpg,pre,o,1.2022531000002346,None,,,,,,,,00028,001,2025-11-17_17h48.12.274,MST_test,2024.2.0,60.14060874314628,2025-11-17 17h48.19.439289 +0530,
52,0,53,s,2.5524575999988883,None,53,0,52,238.22854610000104,,,,,,,,,,,,,,,,,,,,,,,,,,,,,,,,,,,,,,,,,,,,,,,,,,238.21384960000069,238.22854610000104,238.7349989000013,238.71309660000043,238.73204630000146,238.7349989000013,238.7349989000013,238.7349989000013,241.29690110000047,Scenes\079b.jpg,post,s,2.5524575999988883,None,,,,,,,,00028,001,2025-11-17_17h48.12.274,MST_test,2024.2.0,60.14060874314628,2025-11-17 17h48.19.439289 +0530,
53,0,54,o,1.1359881999997015,None,54,0,53,241.31191560000116,,,,,,,,,,,,,,,,,,,,,,,,,,,,,,,,,,,,,,,,,,,,,,,,,,241.29730670000026,241.31191560000116,241.8154537999999,241.79641170000104,241.81229750000057,241.8154537999999,241.8154537999999,241.8154537999999,242.9644311000011,Scenes\051a.jpg,mid,o,1.1359881999997015,None,,,,,,,,00028,001,2025-11-17_17h48.12.274,MST_test,2024.2.0,60.14060874314628,2025-11-17 17h48.19.439289 +0530,
54,0,55,n,1.9990832000003138,None,55,0,54,242.97856890000003,,,,,,,,,,,,,,,,,,,,,,,,,,,,,,,,,,,,,,,,,,,,,,,,,,242.96481620000122,242.97856890000003,243.48081610000008,243.46312560000115,243.4779208,243.48081610000008,243.48081610000008,243.48081610000008,245.497431400001,Objects\165a.jpg,post,n,1.9990832000003138,None,,,,,,,,00028,001,2025-11-17_17h48.12.274,MST_test,2024.2.0,60.14060874314628,2025-11-17 17h48.19.439289 +0530,
55,0,56,n,2.6177599000002374,None,56,0,55,245.51201779999974,,,,,,,,,,,,,,,,,,,,,,,,,,,,,,,,,,,,,,,,,,,,,,,,,,245.49785239999983,245.51201779999974,246.0216599000014,245.99614380000094,246.0186442000013,246.0216599000014,246.0216599000014,246.0216599000014,248.64775310000005,Scenes\118b.jpg,mid,n,2.6177599000002374,None,,,,,,,,00028,001,2025-11-17_17h48.12.274,MST_test,2024.2.0,60.14060874314628,2025-11-17 17h48.19.439289 +0530,
56,0,57,o,2.445795800000269,None,57,0,56,248.66187040000113,,,,,,,,,,,,,,,,,,,,,,,,,,,,,,,,,,,,,,,,,,,,,,,,,,248.64813740000136,248.66187040000113,249.17078860000038,249.1464391999998,249.16760550000072,249.17078860000038,249.17078860000038,249.17078860000038,251.6308700999998,Scenes\058b.jpg,mid,o,2.445795800000269,None,,,,,,,,00028,001,2025-11-17_17h48.12.274,MST_test,2024.2.0,60.14060874314628,2025-11-17 17h48.19.439289 +0530,
57,0,58,o,2.522913700000572,None,58,0,57,251.64499220000107,,,,,,,,,,,,,,,,,,,,,,,,,,,,,,,,,,,,,,,,,,,,,,,,,,251.63118469999972,251.64499220000107,252.14885540000068,252.12972770000124,252.1460025000015,252.14885540000068,252.14885540000068,252.14885540000068,254.68060049999985,Objects\059a.jpg,post,o,2.522913700000572,None,,,,,,,,00028,001,2025-11-17_17h48.12.274,MST_test,2024.2.0,60.14060874314628,2025-11-17 17h48.19.439289 +0530,
58,0,59,o,1.0019626999983302,None,59,0,58,254.69512469999972,,,,,,,,,,,,,,,,,,,,,,,,,,,,,,,,,,,,,,,,,,,,,,,,,,254.6809228000002,254.69512469999972,255.19793990000107,255.1798628000015,255.19554990000142,255.19793990000107,255.19793990000107,255.19793990000107,256.2142453000015,Objects\072a.jpg,pre,o,1.0019626999983302,None,,,,,,,,00028,001,2025-11-17_17h48.12.274,MST_test,2024.2.0,60.14060874314628,2025-11-17 17h48.19.439289 +0530,
59,0,60,o,1.6113736999996036,None,60,0,59,256.2285141000011,,,,,,,,,,,,,,,,,,,,,,,,,,,,,,,,,,,,,,,,,,,,,,,,,,256.21463290000065,256.2285141000011,256.73191550000047,256.7132006000011,256.72924310000053,256.73191550000047,256.73191550000047,256.73191550000047,258.3461575000001,Objects\007b.jpg,post,o,1.6113736999996036,None,,,,,,,,00028,001,2025-11-17_17h48.12.274,MST_test,2024.2.0,60.14060874314628,2025-11-17 17h48.19.439289 +0530,
60,0,61,n,2.127917100000559,None,61,0,60,258.36171620000096,,,,,,,,,,,,,,,,,,,,,,,,,,,,,,,,,,,,,,,,,,,,,,,,,,258.34629080000013,258.36171620000096,258.86423579999973,258.8464720000011,258.8618724000007,258.86423579999973,258.86423579999973,258.86423579999973,260.9983726999999,Objects\138b.jpg,post,n,2.127917100000559,None,,,,,,,,00028,001,2025-11-17_17h48.12.274,MST_test,2024.2.0,60.14060874314628,2025-11-17 17h48.19.439289 +0530,
61,0,62,n,2.850544099999752,None,62,0,61,261.01181069999984,,,,,,,,,,,,,,,,,,,,,,,,,,,,,,,,,,,,,,,,,,,,,,,,,,260.9987587000014,261.01181069999984,261.5252658999998,261.4963206000011,261.52221850000024,261.5252658999998,261.5252658999998,261.5252658999998,264.3800890000002,Scenes\002b.jpg,pre,n,2.850544099999752,None,,,,,,,,00028,001,2025-11-17_17h48.12.274,MST_test,2024.2.0,60.14060874314628,2025-11-17 17h48.19.439289 +0530,
62,0,63,o,1.179432099999758,None,63,0,62,264.39514210000016,,,,,,,,,,,,,,,,,,,,,,,,,,,,,,,,,,,,,,,,,,,,,,,,,,264.38027780000084,264.39514210000016,264.9000915000015,264.87987130000147,264.8971059000014,264.9000915000015,264.9000915000015,264.9000915000015,266.0815280000006,Objects\083b.jpg,pre,o,1.179432099999758,None,,,,,,,,00028,001,2025-11-17_17h48.12.274,MST_test,2024.2.0,60.14060874314628,2025-11-17 17h48.19.439289 +0530,
63,0,64,o,0.8595350999985385,None,64,0,63,266.0952465999999,,,,,,,,,,,,,,,,,,,,,,,,,,,,,,,,,,,,,,,,,,,,,,,,,,266.08192560000134,266.0952465999999,266.5961193000003,266.5799282000007,266.59393290000116,266.5961193000003,266.5961193000003,266.5961193000003,267.46444540000084,Objects\161a.jpg,mid,o,0.8595350999985385,None,,,,,,,,00028,001,2025-11-17_17h48.12.274,MST_test,2024.2.0,60.14060874314628,2025-11-17 17h48.19.439289 +0530,
64,0,65,o,1.4087208999990253,None,65,0,64,267.4787285000002,,,,,,,,,,,,,,,,,,,,,,,,,,,,,,,,,,,,,,,,,,,,,,,,,,267.4648438000004,267.4787285000002,267.9829879000008,267.9632907000014,267.9800763000003,267.9829879000008,267.9829879000008,267.9829879000008,269.39784940000027,Scenes\179a.jpg,mid,o,1.4087208999990253,None,,,,,,,,00028,001,2025-11-17_17h48.12.274,MST_test,2024.2.0,60.14060874314628,2025-11-17 17h48.19.439289 +0530,
65,0,66,n,1.7507478000006813,None,66,0,65,269.41196710000077,,,,,,,,,,,,,,,,,,,,,,,,,,,,,,,,,,,,,,,,,,,,,,,,,,269.3981999000007,269.41196710000077,269.9125763000011,269.8962523000009,269.90633920000073,269.9125763000011,269.9125763000011,269.9125763000011,271.6799110000011,Foils\scenes8.jpg,none,n,1.7507478000006813,None,,,,,,,,00028,001,2025-11-17_17h48.12.274,MST_test,2024.2.0,60.14060874314628,2025-11-17 17h48.19.439289 +0530,
66,0,67,o,1.5838022000007186,None,67,0,66,271.69505089999984,,,,,,,,,,,,,,,,,,,,,,,,,,,,,,,,,,,,,,,,,,,,,,,,,,271.6801630000009,271.69505089999984,272.19970020000073,272.1798546000009,272.1969618000003,272.19970020000073,272.19970020000073,272.19970020000073,273.79770780000035,Scenes\154a.jpg,post,o,1.5838022000007186,None,,,,,,,,00028,001,2025-11-17_17h48.12.274,MST_test,2024.2.0,60.14060874314628,2025-11-17 17h48.19.439289 +0530,
67,0,68,o,6.32908259999931,None,68,0,67,273.81187110000064,,,,,,,,,,,,,,,,,,,,,,,,,,,,,,,,,,,,,,,,,,,,,,,,,,273.79809970000133,273.81187110000064,274.3191807000003,274.2964667000015,274.3162611000007,274.3191807000003,274.3191807000003,274.3191807000003,280.6645220999999,Scenes\127a.jpg,post,o,6.32908259999931,None,,,,,,,,00028,001,2025-11-17_17h48.12.274,MST_test,2024.2.0,60.14060874314628,2025-11-17 17h48.19.439289 +0530,
68,0,69,n,1.132852599999751,None,69,0,68,280.67871340000056,,,,,,,,,,,,,,,,,,,,,,,,,,,,,,,,,,,,,,,,,,,,,,,,,,280.6649250999999,280.67871340000056,281.1790875000006,281.1629197000002,281.17519619999985,281.1790875000006,281.1790875000006,281.1790875000006,282.31422569999995,Foils\scenes18.jpg,none,n,1.132852599999751,None,,,,,,,,00028,001,2025-11-17_17h48.12.274,MST_test,2024.2.0,60.14060874314628,2025-11-17 17h48.19.439289 +0530,
69,0,70,o,1.3787881000007474,None,70,0,69,282.3286028000002,,,,,,,,,,,,,,,,,,,,,,,,,,,,,,,,,,,,,,,,,,,,,,,,,,282.3145975000007,282.3286028000002,282.82948110000143,282.8125082000006,282.8266543000009,282.82948110000143,282.82948110000143,282.82948110000143,284.2142687000014,Objects\154b.jpg,pre,o,1.3787881000007474,None,,,,,,,,00028,001,2025-11-17_17h48.12.274,MST_test,2024.2.0,60.14060874314628,2025-11-17 17h48.19.439289 +0530,
70,0,71,n,3.196737199999916,None,71,0,70,284.2286103000006,,,,,,,,,,,,,,,,,,,,,,,,,,,,,,,,,,,,,,,,,,,,,,,,,,284.2146031000011,284.2286103000006,284.7308094,284.7131860999998,284.7284133000012,284.7308094,284.7308094,284.7308094,287.93124309999985,Objects\185b.jpg,mid,n,3.196737199999916,None,,,,,,,,00028,001,2025-11-17_17h48.12.274,MST_test,2024.2.0,60.14060874314628,2025-11-17 17h48.19.439289 +0530,
71,0,72,s,3.4606313000003865,None,72,0,71,287.9453459000015,,,,,,,,,,,,,,,,,,,,,,,,,,,,,,,,,,,,,,,,,,,,,,,,,,287.9316463000014,287.9453459000015,288.45091030000003,288.4298338999997,288.4483884000001,288.45091030000003,288.45091030000003,288.45091030000003,291.91469060000054,Objects\134b.jpg,post,s,3.4606313000003865,None,,,,,,,,00028,001,2025-11-17_17h48.12.274,MST_test,2024.2.0,60.14060874314628,2025-11-17 17h48.19.439289 +0530,
72,0,73,o,1.3281874999993306,None,73,0,72,291.92870480000056,,,,,,,,,,,,,,,,,,,,,,,,,,,,,,,,,,,,,,,,,,,,,,,,,,291.91509300000143,291.92870480000056,292.4398775000009,292.4132449000008,292.43675710000025,292.4398775000009,292.4398775000009,292.4398775000009,293.7810201000011,Scenes\041b.jpg,pre,o,1.3281874999993306,None,,,,,,,,00028,001,2025-11-17_17h48.12.274,MST_test,2024.2.0,60.14060874314628,2025-11-17 17h48.19.439289 +0530,
73,0,74,o,1.24438310000005,None,74,0,73,293.7953070000003,,,,,,,,,,,,,,,,,,,,,,,,,,,,,,,,,,,,,,,,,,,,,,,,,,293.78142280000066,293.7953070000003,294.29900869999983,294.2799475000011,294.2958862000014,294.29900869999983,294.29900869999983,294.29900869999983,295.54782390000037,Objects\070a.jpg,pre,o,1.24438310000005,None,,,,,,,,00028,001,2025-11-17_17h48.12.274,MST_test,2024.2.0,60.14060874314628,2025-11-17 17h48.19.439289 +0530,
74,0,75,o,1.6662055999986478,None,75,0,74,295.56199240000024,,,,,,,,,,,,,,,,,,,,,,,,,,,,,,,,,,,,,,,,,,,,,,,,,,295.54822500000046,295.56199240000024,296.06228660000124,296.04642480000075,296.05984870000066,296.06228660000124,296.06228660000124,296.06228660000124,297.7311303000006,Objects\100a.jpg,mid,o,1.6662055999986478,None,,,,,,,,00028,001,2025-11-17_17h48.12.274,MST_test,2024.2.0,60.14060874314628,2025-11-17 17h48.19.439289 +0530,
75,0,76,o,4.49824179999996,None,76,0,75,297.74527750000016,,,,,,,,,,,,,,,,,,,,,,,,,,,,,,,,,,,,,,,,,,,,,,,,,,297.7314813000012,297.74527750000016,298.25362400000085,298.2298513000005,298.2503123000006,298.25362400000085,298.25362400000085,298.25362400000085,302.7642799000005,Scenes\177a.jpg,post,o,4.49824179999996,None,,,,,,,,00028,001,2025-11-17_17h48.12.274,MST_test,2024.2.0,60.14060874314628,2025-11-17 17h48.19.439289 +0530,
76,0,77,o,1.7835123000004387,None,77,0,76,302.7786078000008,,,,,,,,,,,,,,,,,,,,,,,,,,,,,,,,,,,,,,,,,,,,,,,,,,302.76468209999985,302.7786078000008,303.27982020000127,303.26292430000103,303.27655120000054,303.27982020000127,303.27982020000127,303.27982020000127,305.0808839000001,Objects\167a.jpg,mid,o,1.7835123000004387,None,,,,,,,,00028,001,2025-11-17_17h48.12.274,MST_test,2024.2.0,60.14060874314628,2025-11-17 17h48.19.439289 +0530,
77,0,78,s,3.0752931000006356,None,78,0,77,305.09527309999976,,,,,,,,,,,,,,,,,,,,,,,,,,,,,,,,,,,,,,,,,,,,,,,,,,305.0812498000014,305.09527309999976,305.5966091999999,305.57989009999983,305.5940341000005,305.5966091999999,305.5966091999999,305.5966091999999,308.6810569999998,Objects\061b.jpg,mid,s,3.0752931000006356,None,,,,,,,,00028,001,2025-11-17_17h48.12.274,MST_test,2024.2.0,60.14060874314628,2025-11-17 17h48.19.439289 +0530,
78,0,79,o,2.697714100000667,None,79,0,78,308.695268200001,,,,,,,,,,,,,,,,,,,,,,,,,,,,,,,,,,,,,,,,,,,,,,,,,,308.6814071000008,308.695268200001,309.2069803000013,309.1798841,309.2039302000012,309.2069803000013,309.2069803000013,309.2069803000013,311.9140535000006,Scenes\159a.jpg,pre,o,2.697714100000667,None,,,,,,,,00028,001,2025-11-17_17h48.12.274,MST_test,2024.2.0,60.14060874314628,2025-11-17 17h48.19.439289 +0530,
79,0,80,s,1.574777499999982,None,80,0,79,311.92861489999996,,,,,,,,,,,,,,,,,,,,,,,,,,,,,,,,,,,,,,,,,,,,,,,,,,311.9144047000009,311.92861489999996,312.43262890000005,312.4131416,312.42961860000105,312.43262890000005,312.43262890000005,312.43262890000005,314.0140229999997,Objects\150a.jpg,post,s,1.574777499999982,None,,,,,,,,00028,001,2025-11-17_17h48.12.274,MST_test,2024.2.0,60.14060874314628,2025-11-17 17h48.19.439289 +0530,
80,0,81,n,5.91107539999939,None,81,0,80,314.0285036000005,,,,,,,,,,,,,,,,,,,,,,,,,,,,,,,,,,,,,,,,,,,,,,,,,,314.0143676000007,314.0285036000005,314.5605513999999,314.5130585000006,314.5572929000009,314.5605513999999,314.5605513999999,314.5605513999999,320.4802290000007,Scenes\065b.jpg,mid,n,5.91107539999939,None,,,,,,,,00028,001,2025-11-17_17h48.12.274,MST_test,2024.2.0,60.14060874314628,2025-11-17 17h48.19.439289 +0530,
81,0,82,o,3.5944116999999096,None,82,0,81,320.4951477000013,,,,,,,,,,,,,,,,,,,,,,,,,,,,,,,,,,,,,,,,,,,,,,,,,,320.4805597000013,320.4951477000013,321.0136968000006,320.97960500000045,321.0105230999998,321.0136968000006,321.0136968000006,321.0136968000006,324.61390570000003,Scenes\062b.jpg,pre,o,3.5944116999999096,None,,,,,,,,00028,001,2025-11-17_17h48.12.274,MST_test,2024.2.0,60.14060874314628,2025-11-17 17h48.19.439289 +0530,
82,0,83,s,4.115121500000896,None,83,0,82,324.6285332000007,,,,,,,,,,,,,,,,,,,,,,,,,,,,,,,,,,,,,,,,,,,,,,,,,,324.61425640000016,324.6285332000007,325.16529360000095,325.11275970000133,325.1611642000007,325.16529360000095,325.16529360000095,325.16529360000095,329.2972172000009,Foils\scenes15.jpg,none,s,4.115121500000896,None,,,,,,,,00028,001,2025-11-17_17h48.12.274,MST_test,2024.2.0,60.14060874314628,2025-11-17 17h48.19.439289 +0530,
83,0,84,n,2.3654649999989488,None,84,0,83,329.31193750000057,,,,,,,,,,,,,,,,,,,,,,,,,,,,,,,,,,,,,,,,,,,,,,,,,,329.2975392999997,329.31193750000057,329.8182955000011,329.7959712000011,329.8133299000001,329.8182955000011,329.8182955000011,329.8182955000011,332.19762869999977,Foils\105a.jpg,none,n,2.3654649999989488,None,,,,,,,,00028,001,2025-11-17_17h48.12.274,MST_test,2024.2.0,60.14060874314628,2025-11-17 17h48.19.439289 +0530,
84,0,85,s,24.023615699999937,None,85,0,84,332.2120491000005,,,,,,,,,,,,,,,,,,,,,,,,,,,,,,,,,,,,,,,,,,,,,,,,,,332.1980263000005,332.2120491000005,332.72067510000124,332.69668600000114,332.7177363999999,332.72067510000124,332.72067510000124,332.72067510000124,356.7474966000009,Scenes\188b.jpg,mid,s,24.023615699999937,None,,,,,,,,00028,001,2025-11-17_17h48.12.274,MST_test,2024.2.0,60.14060874314628,2025-11-17 17h48.19.439289 +0530,
85,0,86,n,1.8221863999988273,None,86,0,85,356.76195499999994,,,,,,,,,,,,,,,,,,,,,,,,,,,,,,,,,,,,,,,,,,,,,,,,,,356.74782349999987,356.76195499999994,357.2653476000014,357.24648870000055,357.26228040000024,357.2653476000014,357.2653476000014,357.2653476000014,359.09749420000117,Foils\097a.jpg,none,n,1.8221863999988273,None,,,,,,,,00028,001,2025-11-17_17h48.12.274,MST_test,2024.2.0,60.14060874314628,2025-11-17 17h48.19.439289 +0530,
86,0,87,o,1.5366407000001345,None,87,0,86,359.1118187000011,,,,,,,,,,,,,,,,,,,,,,,,,,,,,,,,,,,,,,,,,,,,,,,,,,359.0978739000002,359.1118187000011,359.622675300001,359.59668860000056,359.6196882000004,359.622675300001,359.622675300001,359.622675300001,361.16414559999976,Scenes\052b.jpg,mid,o,1.5366407000001345,None,,,,,,,,00028,001,2025-11-17_17h48.12.274,MST_test,2024.2.0,60.14060874314628,2025-11-17 17h48.19.439289 +0530,
87,0,88,n,1.1162676000003557,None,88,0,87,361.17837280000094,,,,,,,,,,,,,,,,,,,,,,,,,,,,,,,,,,,,,,,,,,,,,,,,,,361.16453309999997,361.17837280000094,361.6918652000004,361.66333870000017,361.689376100001,361.6918652000004,361.6918652000004,361.6918652000004,362.81389910000144,Scenes\082b.jpg,pre,n,1.1162676000003557,None,,,,,,,,00028,001,2025-11-17_17h48.12.274,MST_test,2024.2.0,60.14060874314628,2025-11-17 17h48.19.439289 +0530,
88,0,89,o,1.3692756999989797,None,89,0,88,362.8283781000009,,,,,,,,,,,,,,,,,,,,,,,,,,,,,,,,,,,,,,,,,,,,,,,,,,362.8143097000011,362.8283781000009,363.3342177000013,363.3132093000004,363.3310029000004,363.3342177000013,363.3342177000013,363.3342177000013,364.71361380000053,Objects\027a.jpg,mid,o,1.3692756999989797,None,,,,,,,,00028,001,2025-11-17_17h48.12.274,MST_test,2024.2.0,60.14060874314628,2025-11-17 17h48.19.439289 +0530,
89,0,90,n,1.0496616999989783,None,90,0,89,364.7284877000002,,,,,,,,,,,,,,,,,,,,,,,,,,,,,,,,,,,,,,,,,,,,,,,,,,364.7139195,364.7284877000002,365.2300508999997,365.2131298000004,365.227671300001,365.2300508999997,365.2300508999997,365.2300508999997,366.2970925000009,Foils\121a.jpg,none,n,1.0496616999989783,None,,,,,,,,00028,001,2025-11-17_17h48.12.274,MST_test,2024.2.0,60.14060874314628,2025-11-17 17h48.19.439289 +0530,
90,0,91,s,3.0190929000000324,None,91,0,90,366.31189900000027,,,,,,,,,,,,,,,,,,,,,,,,,,,,,,,,,,,,,,,,,,,,,,,,,,366.2974668000006,366.31189900000027,366.82083969999985,366.79656050000085,366.8178258000007,366.82083969999985,366.82083969999985,366.82083969999985,369.8475976999998,Scenes\104a.jpg,post,s,3.0190929000000324,None,,,,,,,,00028,001,2025-11-17_17h48.12.274,MST_test,2024.2.0,60.14060874314628,2025-11-17 17h48.19.439289 +0530,
91,0,92,n,1.2660197999994125,None,92,0,91,369.86197020000145,,,,,,,,,,,,,,,,,,,,,,,,,,,,,,,,,,,,,,,,,,,,,,,,,,369.8479705000009,369.86197020000145,370.3653701000003,370.3467535,370.3623112000005,370.3653701000003,370.3653701000003,370.3653701000003,371.6473425000004,Objects\156b.jpg,post,n,1.2660197999994125,None,,,,,,,,00028,001,2025-11-17_17h48.12.274,MST_test,2024.2.0,60.14060874314628,2025-11-17 17h48.19.439289 +0530,
92,0,93,o,2.204217399999834,None,93,0,92,371.6620670000011,,,,,,,,,,,,,,,,,,,,,,,,,,,,,,,,,,,,,,,,,,,,,,,,,,371.6477534000005,371.6620670000011,372.16369830000076,372.14671070000077,372.16132350000044,372.16369830000076,372.16369830000076,372.16369830000076,374.3803895000001,Objects\107a.jpg,post,o,2.204217399999834,None,,,,,,,,00028,001,2025-11-17_17h48.12.274,MST_test,2024.2.0,60.14060874314628,2025-11-17 17h48.19.439289 +0530,
93,0,94,n,2.695638199998939,None,94,0,93,374.3952594000002,,,,,,,,,,,,,,,,,,,,,,,,,,,,,,,,,,,,,,,,,,,,,,,,,,374.3807568000011,374.3952594000002,374.9041476000002,374.88002620000043,374.9011612000013,374.9041476000002,374.9041476000002,374.9041476000002,377.6144522000013,Scenes\091a.jpg,post,n,2.695638199998939,None,,,,,,,,00028,001,2025-11-17_17h48.12.274,MST_test,2024.2.0,60.14060874314628,2025-11-17 17h48.19.439289 +0530,
94,0,95,s,1.9120442000003095,None,95,0,94,377.62845449999986,,,,,,,,,,,,,,,,,,,,,,,,,,,,,,,,,,,,,,,,,,,,,,,,,,377.6148365000008,377.62845449999986,378.13564570000017,378.1131741999998,378.1326504000008,378.13564570000017,378.13564570000017,378.13564570000017,380.0644370000009,Scenes\150a.jpg,pre,s,1.9120442000003095,None,,,,,,,,00028,001,2025-11-17_17h48.12.274,MST_test,2024.2.0,60.14060874314628,2025-11-17 17h48.19.439289 +0530,
95,0,96,o,1.723961399999098,None,96,0,95,380.07859720000124,,,,,,,,,,,,,,,,,,,,,,,,,,,,,,,,,,,,,,,,,,,,,,,,,,380.0648532000014,380.07859720000124,380.5876347000012,380.56275520000054,380.58463610000035,380.5876347000012,380.5876347000012,380.5876347000012,382.3140858000006,Scenes\047a.jpg,mid,o,1.723961399999098,None,,,,,,,,00028,001,2025-11-17_17h48.12.274,MST_test,2024.2.0,60.14060874314628,2025-11-17 17h48.19.439289 +0530,
96,0,97,o,1.4804194000007556,None,97,0,96,382.328531000001,,,,,,,,,,,,,,,,,,,,,,,,,,,,,,,,,,,,,,,,,,,,,,,,,,382.3144656000004,382.328531000001,382.8309633000008,382.81292510000094,382.8280917000011,382.8309633000008,382.8309633000008,382.8309633000008,384.3142896999998,Objects\063b.jpg,post,o,1.4804194000007556,None,,,,,,,,00028,001,2025-11-17_17h48.12.274,MST_test,2024.2.0,60.14060874314628,2025-11-17 17h48.19.439289 +0530,
97,0,98,n,1.320414100000562,None,98,0,97,384.3284074000003,,,,,,,,,,,,,,,,,,,,,,,,,,,,,,,,,,,,,,,,,,,,,,,,,,384.31466960000034,384.3284074000003,384.8316590000013,384.8128961000002,384.82921050000004,384.8316590000013,384.8316590000013,384.8316590000013,386.16375830000106,Foils\086a.jpg,none,n,1.320414100000562,None,,,,,,,,00028,001,2025-11-17_17h48.12.274,MST_test,2024.2.0,60.14060874314628,2025-11-17 17h48.19.439289 +0530,
98,0,99,n,0.8731305999990582,None,99,0,98,386.1784150000003,,,,,,,,,,,,,,,,,,,,,,,,,,,,,,,,,,,,,,,,,,,,,,,,,,386.16416519999984,386.1784150000003,386.6786611000007,386.66296630000033,386.67619920000107,386.6786611000007,386.6786611000007,386.6786611000007,387.56494139999995,Foils\081a.jpg,none,n,0.8731305999990582,None,,,,,,,,00028,001,2025-11-17_17h48.12.274,MST_test,2024.2.0,60.14060874314628,2025-11-17 17h48.19.439289 +0530,
99,0,100,o,2.498336799999379,None,100,0,99,387.57849410000017,,,,,,,,,,,,,,,,,,,,,,,,,,,,,,,,,,,,,,,,,,,,,,,,,,387.56532100000004,387.57849410000017,388.08501950000027,388.0631239000013,388.0820835000013,388.08501950000027,388.08501950000027,388.08501950000027,390.59731869999996,Scenes\083a.jpg,mid,o,2.498336799999379,None,,,,,,,,00028,001,2025-11-17_17h48.12.274,MST_test,2024.2.0,60.14060874314628,2025-11-17 17h48.19.439289 +0530,
100,0,101,o,1.613025499998912,None,101,0,100,390.6118710999999,,,,,,,,,,,,,,,,,,,,,,,,,,,,,,,,,,,,,,,,,,,,,,,,,,390.5977189000005,390.6118710999999,391.1222346000013,391.0961658000015,391.11924210000143,391.1222346000013,391.1222346000013,391.1222346000013,392.74772250000024,Scenes\025b.jpg,post,o,1.613025499998912,None,,,,,,,,00028,001,2025-11-17_17h48.12.274,MST_test,2024.2.0,60.14060874314628,2025-11-17 17h48.19.439289 +0530,
101,0,102,n,0.9496899000005214,None,102,0,101,392.7621237000003,,,,,,,,,,,,,,,,,,,,,,,,,,,,,,,,,,,,,,,,,,,,,,,,,,392.7481211000013,392.7621237000003,393.266419900001,393.24647240000013,393.26342410000143,393.266419900001,393.266419900001,393.266419900001,394.23126539999976,Foils\017a.jpg,none,n,0.9496899000005214,None,,,,,,,,00028,001,2025-11-17_17h48.12.274,MST_test,2024.2.0,60.14060874314628,2025-11-17 17h48.19.439289 +0530,
102,0,103,s,2.657436499999676,None,103,0,102,394.245353100001,,,,,,,,,,,,,,,,,,,,,,,,,,,,,,,,,,,,,,,,,,,,,,,,,,394.23168090000036,394.245353100001,394.75049949999993,394.7298222999998,394.7477166999997,394.75049949999993,394.75049949999993,394.75049949999993,397.414404000001,Objects\041b.jpg,pre,s,2.657436499999676,None,,,,,,,,00028,001,2025-11-17_17h48.12.274,MST_test,2024.2.0,60.14060874314628,2025-11-17 17h48.19.439289 +0530,
103,0,104,n,3.4835899000008794,None,104,0,103,397.4285936000015,,,,,,,,,,,,,,,,,,,,,,,,,,,,,,,,,,,,,,,,,,,,,,,,,,397.4148065999998,397.4285936000015,397.9317185,397.9130363000004,397.92887580000024,397.9317185,397.9317185,397.9317185,401.43115020000005,Scenes\113a.jpg,post,n,3.4835899000008794,None,,,,,,,,00028,001,2025-11-17_17h48.12.274,MST_test,2024.2.0,60.14060874314628,2025-11-17 17h48.19.439289 +0530,
104,0,105,n,1.6246556000005512,None,105,0,104,401.44537780000064,,,,,,,,,,,,,,,,,,,,,,,,,,,,,,,,,,,,,,,,,,,,,,,,,,401.43157040000006,401.44537780000064,401.9513397999999,401.93004740000106,401.9482981000001,401.9513397999999,401.9513397999999,401.9513397999999,403.58136620000005,Objects\039a.jpg,mid,n,1.6246556000005512,None,,,,,,,,00028,001,2025-11-17_17h48.12.274,MST_test,2024.2.0,60.14060874314628,2025-11-17 17h48.19.439289 +0530,
105,0,106,n,3.3959415999997873,None,106,0,105,403.59536050000133,,,,,,,,,,,,,,,,,,,,,,,,,,,,,,,,,,,,,,,,,,,,,,,,,,403.5817678000003,403.59536050000133,404.1003853000002,404.08007440000074,404.09744219999993,404.1003853000002,404.1003853000002,404.1003853000002,407.4981789000012,Scenes\069a.jpg,post,n,3.3959415999997873,None,,,,,,,,00028,001,2025-11-17_17h48.12.274,MST_test,2024.2.0,60.14060874314628,2025-11-17 17h48.19.439289 +0530,
106,0,107,s,4.366871399999582,None,107,0,106,407.511797000001,,,,,,,,,,,,,,,,,,,,,,,,,,,,,,,,,,,,,,,,,,,,,,,,,,407.4985171999997,407.511797000001,408.0245821999997,407.996565200001,408.0215085,408.0245821999997,408.0245821999997,408.0245821999997,412.3977756000004,Scenes\174b.jpg,post,s,4.366871399999582,None,,,,,,,,00028,001,2025-11-17_17h48.12.274,MST_test,2024.2.0,60.14060874314628,2025-11-17 17h48.19.439289 +0530,
107,0,108,n,0.9699105999989115,None,108,0,107,412.41199940000115,,,,,,,,,,,,,,,,,,,,,,,,,,,,,,,,,,,,,,,,,,,,,,,,,,412.3981765000008,412.41199940000115,412.9177099999997,412.89636690000043,412.91430200000104,412.9177099999997,412.9177099999997,412.9177099999997,413.89796840000054,Foils\106a.jpg,none,n,0.9699105999989115,None,,,,,,,,00028,001,2025-11-17_17h48.12.274,MST_test,2024.2.0,60.14060874314628,2025-11-17 17h48.19.439289 +0530,
108,0,109,n,1.295180099999925,None,109,0,108,413.912198,,,,,,,,,,,,,,,,,,,,,,,,,,,,,,,,,,,,,,,,,,,,,,,,,,413.89831180000147,413.912198,414.41692800000055,414.3965478000009,414.41462590000083,414.41692800000055,414.41692800000055,414.41692800000055,415.7136766000003,Foils\018a.jpg,none,n,1.295180099999925,None,,,,,,,,00028,001,2025-11-17_17h48.12.274,MST_test,2024.2.0,60.14060874314628,2025-11-17 17h48.19.439289 +0530,
109,0,110,n,1.9144560000004276,None,110,0,109,415.7284230000005,,,,,,,,,,,,,,,,,,,,,,,,,,,,,,,,,,,,,,,,,,,,,,,,,,415.71390820000124,415.7284230000005,416.2296436000015,416.21306860000004,416.2269046000001,416.2296436000015,416.2296436000015,416.2296436000015,418.14784920000056,Foils\scenes20.jpg,none,n,1.9144560000004276,None,,,,,,,,00028,001,2025-11-17_17h48.12.274,MST_test,2024.2.0,60.14060874314628,2025-11-17 17h48.19.439289 +0530,
110,0,111,n,2.183645600000091,None,111,0,110,418.1620401,,,,,,,,,,,,,,,,,,,,,,,,,,,,,,,,,,,,,,,,,,,,,,,,,,418.14823140000044,418.1620401,418.6641881000014,418.64674340000056,418.6615737000011,418.6641881000014,418.6641881000014,418.6641881000014,420.8644260000001,Objects\011a.jpg,post,n,2.183645600000091,None,,,,,,,,00028,001,2025-11-17_17h48.12.274,MST_test,2024.2.0,60.14060874314628,2025-11-17 17h48.19.439289 +0530,
111,0,112,s,1.1963992000000871,None,112,0,111,420.8784831000012,,,,,,,,,,,,,,,,,,,,,,,,,,,,,,,,,,,,,,,,,,,,,,,,,,420.86483709999993,420.8784831000012,421.3796816000013,421.36333130000094,421.3772506000005,421.3796816000013,421.3796816000013,421.3796816000013,422.5807373000007,Objects\110a.jpg,pre,s,1.1963992000000871,None,,,,,,,,00028,001,2025-11-17_17h48.12.274,MST_test,2024.2.0,60.14060874314628,2025-11-17 17h48.19.439289 +0530,
112,0,113,n,1.1349253999997018,None,113,0,112,422.5951698000008,,,,,,,,,,,,,,,,,,,,,,,,,,,,,,,,,,,,,,,,,,,,,,,,,,422.5811389999999,422.5951698000008,423.09651620000113,423.079593800001,423.0940679000014,423.09651620000113,423.09651620000113,423.09651620000113,424.2479041000006,Foils\020b.jpg,none,n,1.1349253999997018,None,,,,,,,,00028,001,2025-11-17_17h48.12.274,MST_test,2024.2.0,60.14060874314628,2025-11-17 17h48.19.439289 +0530,
113,0,114,o,3.424316499998895,None,114,0,113,424.2620622000013,,,,,,,,,,,,,,,,,,,,,,,,,,,,,,,,,,,,,,,,,,,,,,,,,,424.2482880000007,424.2620622000013,424.76719680000133,424.7463974000002,424.76416020000033,424.76719680000133,424.76719680000133,424.76719680000133,428.1977963999998,Scenes\191b.jpg,post,o,3.424316499998895,None,,,,,,,,00028,001,2025-11-17_17h48.12.274,MST_test,2024.2.0,60.14060874314628,2025-11-17 17h48.19.439289 +0530,
114,0,115,o,1.054103299999042,None,115,0,114,428.2118541,,,,,,,,,,,,,,,,,,,,,,,,,,,,,,,,,,,,,,,,,,,,,,,,,,428.1981687000007,428.2118541,428.71327310000015,428.69662580000113,428.7104635000014,428.71327310000015,428.71327310000015,428.71327310000015,429.7807599000007,Objects\164a.jpg,post,o,1.054103299999042,None,,,,,,,,00028,001,2025-11-17_17h48.12.274,MST_test,2024.2.0,60.14060874314628,2025-11-17 17h48.19.439289 +0530,
115,0,116,o,1.398621300000741,None,116,0,115,429.79521250000107,,,,,,,,,,,,,,,,,,,,,,,,,,,,,,,,,,,,,,,,,,,,,,,,,,429.7811204999998,429.79521250000107,430.30498369999987,430.2796319000008,430.3019468000002,430.30498369999987,430.30498369999987,430.30498369999987,431.7143027000002,Scenes\003a.jpg,pre,o,1.398621300000741,None,,,,,,,,00028,001,2025-11-17_17h48.12.274,MST_test,2024.2.0,60.14060874314628,2025-11-17 17h48.19.439289 +0530,
116,0,117,s,2.207490200000393,None,117,0,116,431.72839680000106,,,,,,,,,,,,,,,,,,,,,,,,,,,,,,,,,,,,,,,,,,,,,,,,,,431.71466300000066,431.72839680000106,432.2321600000014,432.2135405000008,432.22919230000116,432.2321600000014,432.2321600000014,432.2321600000014,434.4474457000015,Objects\062b.jpg,pre,s,2.207490200000393,None,,,,,,,,00028,001,2025-11-17_17h48.12.274,MST_test,2024.2.0,60.14060874314628,2025-11-17 17h48.19.439289 +0530,
117,0,118,o,1.7603730999999243,None,118,0,117,434.4618730000002,,,,,,,,,,,,,,,,,,,,,,,,,,,,,,,,,,,,,,,,,,,,,,,,,,434.44774940000025,434.4618730000002,434.96722709999995,434.94613350000145,434.9643700000015,434.96722709999995,434.96722709999995,434.96722709999995,436.73140870000134,Scenes\095a.jpg,pre,o,1.7603730999999243,None,,,,,,,,00028,001,2025-11-17_17h48.12.274,MST_test,2024.2.0,60.14060874314628,2025-11-17 17h48.19.439289 +0530,
118,0,119,o,1.791818300000159,None,119,0,118,436.7452119999998,,,,,,,,,,,,,,,,,,,,,,,,,,,,,,,,,,,,,,,,,,,,,,,,,,436.7317875000008,436.7452119999998,437.2482693000002,437.2297553999997,437.24529260000054,437.2482693000002,437.2482693000002,437.2482693000002,439.0478303,Objects\149a.jpg,pre,o,1.791818300000159,None,,,,,,,,00028,001,2025-11-17_17h48.12.274,MST_test,2024.2.0,60.14060874314628,2025-11-17 17h48.19.439289 +0530,
119,0,120,s,1.812142099999619,None,120,0,119,439.06183950000013,,,,,,,,,,,,,,,,,,,,,,,,,,,,,,,,,,,,,,,,,,,,,,,,,,439.0481830000008,439.06183950000013,439.5637690000003,439.54642800000147,439.56119540000145,439.5637690000003,439.5637690000003,439.5637690000003,441.3806902000015,Objects\065a.jpg,pre,s,1.812142099999619,None,,,,,,,,00028,001,2025-11-17_17h48.12.274,MST_test,2024.2.0,60.14060874314628,2025-11-17 17h48.19.439289 +0530,
120,0,121,n,2.470796400000836,None,121,0,120,441.3951922000015,,,,,,,,,,,,,,,,,,,,,,,,,,,,,,,,,,,,,,,,,,,,,,,,,,441.38104770000064,441.3951922000015,441.90527830000065,441.87975410000035,441.9020307999999,441.90527830000065,441.90527830000065,441.90527830000065,444.3802247000003,Scenes\161b.jpg,mid,n,2.470796400000836,None,,,,,,,,00028,001,2025-11-17_17h48.12.274,MST_test,2024.2.0,60.14060874314628,2025-11-17 17h48.19.439289 +0530,
121,0,122,n,1.1318780000001425,None,122,0,121,444.39520840000114,,,,,,,,,,,,,,,,,,,,,,,,,,,,,,,,,,,,,,,,,,,,,,,,,,444.38052530000095,444.39520840000114,444.90737770000123,444.8798635000003,444.9042287000011,444.90737770000123,444.90737770000123,444.90737770000123,446.0473185999999,Scenes\088a.jpg,mid,n,1.1318780000001425,None,,,,,,,,00028,001,2025-11-17_17h48.12.274,MST_test,2024.2.0,60.14060874314628,2025-11-17 17h48.19.439289 +0530,
122,0,123,s,5.365676299999905,None,123,0,122,446.061842000001,,,,,,,,,,,,,,,,,,,,,,,,,,,,,,,,,,,,,,,,,,,,,,,,,,446.047631200001,446.061842000001,446.5703229999999,446.5463722000004,446.5671129000002,446.5703229999999,446.5703229999999,446.5703229999999,451.9474382999997,Foils\scenes27.jpg,none,s,5.365676299999905,None,,,,,,,,00028,001,2025-11-17_17h48.12.274,MST_test,2024.2.0,60.14060874314628,2025-11-17 17h48.19.439289 +0530,
123,0,124,n,1.1138661000004504,None,124,0,123,451.96181930000057,,,,,,,,,,,,,,,,,,,,,,,,,,,,,,,,,,,,,,,,,,,,,,,,,,451.94775500000105,451.96181930000057,452.47021940000013,452.4464430000007,452.4673333999999,452.47021940000013,452.47021940000013,452.47021940000013,453.5973795000009,Scenes\012b.jpg,pre,n,1.1138661000004504,None,,,,,,,,00028,001,2025-11-17_17h48.12.274,MST_test,2024.2.0,60.14060874314628,2025-11-17 17h48.19.439289 +0530,
124,0,125,o,1.0368094999994355,None,125,0,124,453.61183170000004,,,,,,,,,,,,,,,,,,,,,,,,,,,,,,,,,,,,,,,,,,,,,,,,,,453.5976709000006,453.61183170000004,454.1154144000011,454.0963053000014,454.1124028000013,454.1154144000011,454.1154144000011,454.1154144000011,455.1641787000008,Objects\173b.jpg,pre,o,1.0368094999994355,None,,,,,,,,00028,001,2025-11-17_17h48.12.274,MST_test,2024.2.0,60.14060874314628,2025-11-17 17h48.19.439289 +0530,
125,0,126,s,3.532435799999803,None,126,0,125,455.17833130000145,,,,,,,,,,,,,,,,,,,,,,,,,,,,,,,,,,,,,,,,,,,,,,,,,,455.16447979999975,455.17833130000145,455.683626,455.6632447000011,455.6807385000011,455.683626,455.683626,455.683626,459.23098630000095,Scenes\075a.jpg,mid,s,3.532435799999803,None,,,,,,,,00028,001,2025-11-17_17h48.12.274,MST_test,2024.2.0,60.14060874314628,2025-11-17 17h48.19.439289 +0530,
126,0,127,o,1.779377700000623,None,127,0,126,459.2453346000002,,,,,,,,,,,,,,,,,,,,,,,,,,,,,,,,,,,,,,,,,,,,,,,,,,459.2312873999999,459.2453346000002,459.7480618999998,459.72943000000123,459.7451899000007,459.7480618999998,459.7480618999998,459.7480618999998,461.5309386000008,Objects\136a.jpg,pre,o,1.779377700000623,None,,,,,,,,00028,001,2025-11-17_17h48.12.274,MST_test,2024.2.0,60.14060874314628,2025-11-17 17h48.19.439289 +0530,
127,0,128,o,1.1264616999997088,None,128,0,127,461.5451807999998,,,,,,,,,,,,,,,,,,,,,,,,,,,,,,,,,,,,,,,,,,,,,,,,,,461.5312713000003,461.5451807999998,462.05674230000113,462.02937120000024,462.05375730000014,462.05674230000113,462.05674230000113,462.05674230000113,463.1977801000012,Scenes\171a.jpg,pre,o,1.1264616999997088,None,,,,,,,,00028,001,2025-11-17_17h48.12.274,MST_test,2024.2.0,60.14060874314628,2025-11-17 17h48.19.439289 +0530,
128,0,129,o,1.0145001000000775,None,129,0,128,463.21193350000067,,,,,,,,,,,,,,,,,,,,,,,,,,,,,,,,,,,,,,,,,,,,,,,,,,463.1982415000002,463.21193350000067,463.72082930000033,463.6966497000012,463.7175805000006,463.72082930000033,463.72082930000033,463.72082930000033,464.74645880000025,Scenes\019b.jpg,post,o,1.0145001000000775,None,,,,,,,,00028,001,2025-11-17_17h48.12.274,MST_test,2024.2.0,60.14060874314628,2025-11-17 17h48.19.439289 +0530,
129,0,130,o,0.8840862999986712,None,130,0,129,464.7618584000011,,,,,,,,,,,,,,,,,,,,,,,,,,,,,,,,,,,,,,,,,,,,,,,,,,464.7466621000003,464.7618584000011,465.2672450000009,465.2462766000008,465.2642551000008,465.2672450000009,465.2672450000009,465.2672450000009,466.1640481000013,Objects\133a.jpg,mid,o,0.8840862999986712,None,,,,,,,,00028,001,2025-11-17_17h48.12.274,MST_test,2024.2.0,60.14060874314628,2025-11-17 17h48.19.439289 +0530,
130,0,131,o,1.015741799999887,None,131,0,130,466.1783899000002,,,,,,,,,,,,,,,,,,,,,,,,,,,,,,,,,,,,,,,,,,,,,,,,,,466.1643956000007,466.1783899000002,466.68838099999994,466.6629922000011,466.6852334000014,466.68838099999994,466.68838099999994,466.68838099999994,467.7144696000014,Scenes\021b.jpg,mid,o,1.015741799999887,None,,,,,,,,00028,001,2025-11-17_17h48.12.274,MST_test,2024.2.0,60.14060874314628,2025-11-17 17h48.19.439289 +0530,
131,0,132,s,1.4553957999996783,None,132,0,131,467.7286240000012,,,,,,,,,,,,,,,,,,,,,,,,,,,,,,,,,,,,,,,,,,,,,,,,,,467.7148064000012,467.7286240000012,468.2321645000011,468.2132857000015,468.2292589000008,468.2321645000011,468.2321645000011,468.2321645000011,469.6981031000014,Objects\158b.jpg,post,s,1.4553957999996783,None,,,,,,,,00028,001,2025-11-17_17h48.12.274,MST_test,2024.2.0,60.14060874314628,2025-11-17 17h48.19.439289 +0530,
132,0,133,n,3.045240900000863,None,133,0,132,469.711878600001,,,,,,,,,,,,,,,,,,,,,,,,,,,,,,,,,,,,,,,,,,,,,,,,,,469.69844250000097,469.711878600001,470.21835310000097,470.19614960000035,470.2155676000002,470.21835310000097,470.21835310000097,470.21835310000097,473.28120880000097,Scenes\073a.jpg,pre,n,3.045240900000863,None,,,,,,,,00028,001,2025-11-17_17h48.12.274,MST_test,2024.2.0,60.14060874314628,2025-11-17 17h48.19.439289 +0530,
133,0,134,o,2.3666642000007414,None,134,0,133,473.2953051000004,,,,,,,,,,,,,,,,,,,,,,,,,,,,,,,,,,,,,,,,,,,,,,,,,,473.28160670000034,473.2953051000004,473.800713300001,473.77956950000043,473.7976537000013,473.800713300001,473.800713300001,473.800713300001,476.1812093000008,Scenes\184a.jpg,post,o,2.3666642000007414,None,,,,,,,,00028,001,2025-11-17_17h48.12.274,MST_test,2024.2.0,60.14060874314628,2025-11-17 17h48.19.439289 +0530,
134,0,135,o,1.022369999998773,None,135,0,134,476.19538850000026,,,,,,,,,,,,,,,,,,,,,,,,,,,,,,,,,,,,,,,,,,,,,,,,,,476.1816214999999,476.19538850000026,476.69764570000007,476.6800226000014,476.6946982999998,476.69764570000007,476.69764570000007,476.69764570000007,477.7300771000009,Objects\038a.jpg,mid,o,1.022369999998773,None,,,,,,,,00028,001,2025-11-17_17h48.12.274,MST_test,2024.2.0,60.14060874314628,2025-11-17 17h48.19.439289 +0530,
135,0,136,o,1.4657521999997698,None,136,0,135,477.74546440000086,,,,,,,,,,,,,,,,,,,,,,,,,,,,,,,,,,,,,,,,,,,,,,,,,,477.73033150000083,477.74546440000086,478.24575540000114,478.22999720000007,478.2369862000014,478.24575540000114,478.24575540000114,478.24575540000114,479.71410300000025,Foils\scenes14.jpg,none,o,1.4657521999997698,None,,,,,,,,00028,001,2025-11-17_17h48.12.274,MST_test,2024.2.0,60.14060874314628,2025-11-17 17h48.19.439289 +0530,
136,0,137,s,3.17708440000024,None,137,0,136,479.72853570000007,,,,,,,,,,,,,,,,,,,,,,,,,,,,,,,,,,,,,,,,,,,,,,,,,,479.7143618000009,479.72853570000007,480.2305661999999,480.21330470000066,480.2280191000009,480.2305661999999,480.2305661999999,480.2305661999999,483.4144322000011,Objects\146a.jpg,pre,s,3.17708440000024,None,,,,,,,,00028,001,2025-11-17_17h48.12.274,MST_test,2024.2.0,60.14060874314628,2025-11-17 17h48.19.439289 +0530,
137,0,138,s,1.2371617999997397,None,138,0,137,483.42844239999977,,,,,,,,,,,,,,,,,,,,,,,,,,,,,,,,,,,,,,,,,,,,,,,,,,483.41481680000106,483.42844239999977,483.9304573999998,483.9129356000012,483.9281625000003,483.9304573999998,483.9304573999998,483.9304573999998,485.1808235999997,Objects\019a.jpg,post,s,1.2371617999997397,None,,,,,,,,00028,001,2025-11-17_17h48.12.274,MST_test,2024.2.0,60.14060874314628,2025-11-17 17h48.19.439289 +0530,
138,0,139,s,1.5465935000011086,None,139,0,138,485.1956726999997,,,,,,,,,,,,,,,,,,,,,,,,,,,,,,,,,,,,,,,,,,,,,,,,,,485.1810795000001,485.1956726999997,485.70061840000017,485.67954910000117,485.698079400001,485.70061840000017,485.70061840000017,485.70061840000017,487.2640706000002,Objects\144b.jpg,pre,s,1.5465935000011086,None,,,,,,,,00028,001,2025-11-17_17h48.12.274,MST_test,2024.2.0,60.14060874314628,2025-11-17 17h48.19.439289 +0530,
139,0,140,s,0.8503541000009136,None,140,0,139,487.2783862000015,,,,,,,,,,,,,,,,,,,,,,,,,,,,,,,,,,,,,,,,,,,,,,,,,,487.2644967000015,487.2783862000015,487.7814427000012,487.7631111999999,487.7791429000008,487.7814427000012,487.7814427000012,487.7814427000012,488.6476522000012,Objects\109b.jpg,mid,s,0.8503541000009136,None,,,,,,,,00028,001,2025-11-17_17h48.12.274,MST_test,2024.2.0,60.14060874314628,2025-11-17 17h48.19.439289 +0530,
140,0,141,n,5.148187599999801,None,141,0,140,488.6619565000001,,,,,,,,,,,,,,,,,,,,,,,,,,,,,,,,,,,,,,,,,,,,,,,,,,488.64806920000046,488.6619565000001,489.1634038000011,489.1462814000006,489.1608715000002,489.1634038000011,489.1634038000011,489.1634038000011,494.31437600000027,Foils\066a.jpg,none,n,5.148187599999801,None,,,,,,,,00028,001,2025-11-17_17h48.12.274,MST_test,2024.2.0,60.14060874314628,2025-11-17 17h48.19.439289 +0530,
141,0,142,o,1.7069659999997384,None,142,0,141,494.32859180000014,,,,,,,,,,,,,,,,,,,,,,,,,,,,,,,,,,,,,,,,,,,,,,,,,,494.31476140000086,494.32859180000014,494.8373962000005,494.81324810000115,494.83440710000104,494.8373962000005,494.8373962000005,494.8373962000005,496.54766590000145,Scenes\109b.jpg,mid,o,1.7069659999997384,None,,,,,,,,00028,001,2025-11-17_17h48.12.274,MST_test,2024.2.0,60.14060874314628,2025-11-17 17h48.19.439289 +0530,
142,0,143,s,2.0888202999994974,None,143,0,142,496.562009700001,,,,,,,,,,,,,,,,,,,,,,,,,,,,,,,,,,,,,,,,,,,,,,,,,,496.5480005999998,496.562009700001,497.0642783000003,497.0464847000003,497.0615333000005,497.0642783000003,497.0642783000003,497.0642783000003,499.1624468000009,Objects\175b.jpg,mid,s,2.0888202999994974,None,,,,,,,,00028,001,2025-11-17_17h48.12.274,MST_test,2024.2.0,60.14060874314628,2025-11-17 17h48.19.439289 +0530,
143,0,144,s,4.832635700000537,None,144,0,143,499.1782295000012,,,,,,,,,,,,,,,,,,,,,,,,,,,,,,,,,,,,,,,,,,,,,,,,,,499.16254300000037,499.1782295000012,499.6790058000006,499.6627754000001,499.67393749999974,499.6790058000006,499.6790058000006,499.6790058000006,504.5144755000001,Foils\scenes16.jpg,none,s,4.832635700000537,None,,,,,,,,00028,001,2025-11-17_17h48.12.274,MST_test,2024.2.0,60.14060874314628,2025-11-17 17h48.19.439289 +0530,
144,0,145,n,1.1548831999989488,None,145,0,144,504.52840490000017,,,,,,,,,,,,,,,,,,,,,,,,,,,,,,,,,,,,,,,,,,,,,,,,,,504.51481779999995,504.52840490000017,505.0285101999998,505.0125807000004,505.0257130000009,505.0285101999998,505.0285101999998,505.0285101999998,506.1972628000003,Foils\scenes4.jpg,none,n,1.1548831999989488,None,,,,,,,,00028,001,2025-11-17_17h48.12.274,MST_test,2024.2.0,60.14060874314628,2025-11-17 17h48.19.439289 +0530,
145,0,146,o,1.1241046999984974,None,146,0,145,506.21190430000024,,,,,,,,,,,,,,,,,,,,,,,,,,,,,,,,,,,,,,,,,,,,,,,,,,506.19767390000015,506.21190430000024,506.7153672000004,506.6964568000003,506.7127328000006,506.7153672000004,506.7153672000004,506.7153672000004,507.8476255000005,Objects\030b.jpg,mid,o,1.1241046999984974,None,,,,,,,,00028,001,2025-11-17_17h48.12.274,MST_test,2024.2.0,60.14060874314628,2025-11-17 17h48.19.439289 +0530,
146,0,147,s,2.753077499999563,None,147,0,146,507.8618483999999,,,,,,,,,,,,,,,,,,,,,,,,,,,,,,,,,,,,,,,,,,,,,,,,,,507.8479094000013,507.8618483999999,508.3668914000009,508.34648070000003,508.36392010000054,508.3668914000009,508.3668914000009,508.3668914000009,511.1305852000005,Scenes\116a.jpg,pre,s,2.753077499999563,None,,,,,,,,00028,001,2025-11-17_17h48.12.274,MST_test,2024.2.0,60.14060874314628,2025-11-17 17h48.19.439289 +0530,
147,0,148,o,1.0630842999999004,None,148,0,147,511.1457177000011,,,,,,,,,,,,,,,,,,,,,,,,,,,,,,,,,,,,,,,,,,,,,,,,,,511.1308998000004,511.1457177000011,511.6483705999999,511.6294327000014,511.6452798999999,511.6483705999999,511.6483705999999,511.6483705999999,512.7146956000015,Objects\169b.jpg,post,o,1.0630842999999004,None,,,,,,,,00028,001,2025-11-17_17h48.12.274,MST_test,2024.2.0,60.14060874314628,2025-11-17 17h48.19.439289 +0530,
148,0,149,s,1.5513976000002003,None,149,0,148,512.7285385000014,,,,,,,,,,,,,,,,,,,,,,,,,,,,,,,,,,,,,,,,,,,,,,,,,,512.715006800001,512.7285385000014,513.2327234000004,513.2129982000006,513.2303283000001,513.2327234000004,513.2327234000004,513.2327234000004,514.7978343000013,Objects\179b.jpg,mid,s,1.5513976000002003,None,,,,,,,,00028,001,2025-11-17_17h48.12.274,MST_test,2024.2.0,60.14060874314628,2025-11-17 17h48.19.439289 +0530,
149,0,150,o,1.6790394999989076,None,150,0,149,514.8118362000005,,,,,,,,,,,,,,,,,,,,,,,,,,,,,,,,,,,,,,,,,,,,,,,,,,514.7982509000012,514.8118362000005,515.3129717000011,515.2963877000002,515.3106480000006,515.3129717000011,515.3129717000011,515.3129717000011,516.9962161000003,Objects\058a.jpg,mid,o,1.6790394999989076,None,,,,,,,,00028,001,2025-11-17_17h48.12.274,MST_test,2024.2.0,60.14060874314628,2025-11-17 17h48.19.439289 +0530,
,,,,,,,,,,,,,,,,,,,,,,,,,,,,,,,,,,,,,,,,,,,,,,,,,,,,,,,,,,,,,,,,,,,,,,,,,516.996321300001,517.0117303000006,517.0117303000006,518.597227100001,space,1.579743000000235,None,00028,001,2025-11-17_17h48.12.274,MST_test,2024.2.0,60.14060874314628,2025-11-17 17h48.19.439289 +0530,
