thisN,thisTrialN,thisRepN,key_resp_3.keys,key_resp_3.rt,key_resp_3.duration,trials.thisRepN,trials.thisTrialN,trials.thisN,trials.thisIndex,thisRow.t,notes,intro_page.started,text.started,key_resp.started,intro_page.stopped,key_resp.keys,key_resp.rt,key_resp.duration,instructions.started,text_2.started,key_resp_2.started,instructions.stopped,key_resp_2.keys,key_resp_2.rt,key_resp_2.duration,demo1.started,image_1.started,image_2.started,text_7.started,key_resp_6.started,text_9.started,demo1.stopped,key_resp_6.keys,key_resp_6.rt,key_resp_6.duration,demo2.started,image_5.started,image_6.started,text_11.started,text_12.started,key_resp_8.started,demo2.stopped,key_resp_8.keys,key_resp_8.rt,key_resp_8.duration,demo_conclusion.started,text_13.started,key_resp_9.started,demo_conclusion.stopped,key_resp_9.keys,key_resp_9.rt,key_resp_9.duration,start_test.started,text_6.started,key_resp_5.started,start_test.stopped,key_resp_5.keys,key_resp_5.rt,key_resp_5.duration,ISI.started,text_4.started,text_4.stopped,ISI.stopped,routine_1.started,image.started,text_3.started,key_resp_3.started,routine_1.stopped,image_path,position_of_stimuli,trials.key_resp_3.keys,trials.key_resp_3.rt,trials.key_resp_3.duration,End_page.started,text_5.started,key_resp_4.started,End_page.stopped,key_resp_4.keys,key_resp_4.rt,key_resp_4.duration,participant,session,date,expName,psychopyVersion,frameRate,expStart,
,,,,,,,,,,,,0.017133800000010524,0.033392800000001444,0.033392800000001444,2.6840552000001026,space,2.6115967000000637,None,,,,,,,,,,,,,,,,,,,,,,,,,,,,,,,,,,,,,,,,,,,,,,,,,,,,,,,,,,,,,,,00023,001,2025-11-14_16h06.48.021,MST_test,2024.2.2,60.011546221428375,2025-11-14 16h06.55.054639 +0530,
,,,,,,,,,,,,,,,,,,,2.6840970000000652,2.7000000000000455,2.7000000000000455,14.8167105,space,12.108951899999965,None,,,,,,,,,,,,,,,,,,,,,,,,,,,,,,,,,,,,,,,,,,,,,,,,,,,,,,,,00023,001,2025-11-14_16h06.48.021,MST_test,2024.2.2,60.011546221428375,2025-11-14 16h06.55.054639 +0530,
,,,,,,,,,,,,,,,,,,,,,,,,,,14.816733200000044,14.83309660000009,14.83309660000009,14.83309660000009,14.83309660000009,14.83309660000009,20.233359800000017,space,5.396196000000145,None,,,,,,,,,,,,,,,,,,,,,,,,,,,,,,,,,,,,,,,,,,,,,,00023,001,2025-11-14_16h06.48.021,MST_test,2024.2.2,60.011546221428375,2025-11-14 16h06.55.054639 +0530,
,,,,,,,,,,,,,,,,,,,,,,,,,,,,,,,,,,,,20.23338590000003,20.24963610000009,20.24963610000009,20.24963610000009,20.24963610000009,20.24963610000009,23.466627100000096,space,3.212472899999966,None,,,,,,,,,,,,,,,,,,,,,,,,,,,,,,,,,,,,00023,001,2025-11-14_16h06.48.021,MST_test,2024.2.2,60.011546221428375,2025-11-14 16h06.55.054639 +0530,
,,,,,,,,,,,,,,,,,,,,,,,,,,,,,,,,,,,,,,,,,,,,,,23.466651299999967,23.48293620000004,23.48293620000004,37.64969169999995,space,14.161353299999973,None,,,,,,,,,,,,,,,,,,,,,,,,,,,,,00023,001,2025-11-14_16h06.48.021,MST_test,2024.2.2,60.011546221428375,2025-11-14 16h06.55.054639 +0530,
,,,,,,,,,,,,,,,,,,,,,,,,,,,,,,,,,,,,,,,,,,,,,,,,,,,,,37.649719400000095,37.666075699999965,37.666075699999965,92.44846630000006,space,54.77210590000027,None,,,,,,,,,,,,,,,,,,,,,,00023,001,2025-11-14_16h06.48.021,MST_test,2024.2.2,60.011546221428375,2025-11-14 16h06.55.054639 +0530,
0,0,0,o,8.452768399999968,None,0,0,0,0,92.46479609999983,,,,,,,,,,,,,,,,,,,,,,,,,,,,,,,,,,,,,,,,,,,,,,,,,,92.4515785000001,92.46479609999983,92.99826469999994,92.94834849999984,92.98587840000005,92.99826469999994,92.99826469999994,92.99826469999994,101.46486819999996,Objects\084b.jpg,pre,o,8.452768399999968,None,,,,,,,,00023,001,2025-11-14_16h06.48.021,MST_test,2024.2.2,60.011546221428375,2025-11-14 16h06.55.054639 +0530,
1,0,1,o,2.353760599999987,None,1,0,1,0,101.48125630000027,,,,,,,,,,,,,,,,,,,,,,,,,,,,,,,,,,,,,,,,,,,,,,,,,,101.4649624000001,101.48125630000027,102.01480789999982,101.96471420000012,102.00193009999998,102.01480789999982,102.01480789999982,102.01480789999982,104.38151870000024,Scenes\020b.jpg,post,o,2.353760599999987,None,,,,,,,,00023,001,2025-11-14_16h06.48.021,MST_test,2024.2.2,60.011546221428375,2025-11-14 16h06.55.054639 +0530,
2,0,2,o,2.114613400000053,None,2,0,2,0,104.39782330000003,,,,,,,,,,,,,,,,,,,,,,,,,,,,,,,,,,,,,,,,,,,,,,,,,,104.38160589999984,104.39782330000003,104.89781430000016,104.88145240000017,104.89207469999997,104.89781430000016,104.89781430000016,104.89781430000016,107.01480909999987,Objects\025a.jpg,post,o,2.114613400000053,None,,,,,,,,00023,001,2025-11-14_16h06.48.021,MST_test,2024.2.2,60.011546221428375,2025-11-14 16h06.55.054639 +0530,
3,0,3,s,3.400602599999729,None,3,0,3,0,107.03113629999984,,,,,,,,,,,,,,,,,,,,,,,,,,,,,,,,,,,,,,,,,,,,,,,,,,107.01489030000016,107.03113629999984,107.54810980000025,107.51462730000026,107.52687309999988,107.54810980000025,107.54810980000025,107.54810980000025,110.96466470000018,Scenes\022a.jpg,post,s,3.400602599999729,None,,,,,,,,00023,001,2025-11-14_16h06.48.021,MST_test,2024.2.2,60.011546221428375,2025-11-14 16h06.55.054639 +0530,
4,0,4,s,3.3812416000000667,None,4,0,4,0,110.9810528999999,,,,,,,,,,,,,,,,,,,,,,,,,,,,,,,,,,,,,,,,,,,,,,,,,,110.96474680000006,110.9810528999999,111.49767350000025,111.46455260000016,111.4913739000001,111.49767350000025,111.49767350000025,111.49767350000025,114.88135230000012,Objects\117b.jpg,pre,s,3.3812416000000667,None,,,,,,,,00023,001,2025-11-14_16h06.48.021,MST_test,2024.2.2,60.011546221428375,2025-11-14 16h06.55.054639 +0530,
5,0,5,n,5.086099899999681,None,5,0,5,0,114.89766029999987,,,,,,,,,,,,,,,,,,,,,,,,,,,,,,,,,,,,,,,,,,,,,,,,,,114.88143800000012,114.89766029999987,115.41448930000001,115.38115970000013,115.39211080000018,115.41448930000001,115.41448930000001,115.41448930000001,120.51459180000006,Scenes\080a.jpg,post,n,5.086099899999681,None,,,,,,,,00023,001,2025-11-14_16h06.48.021,MST_test,2024.2.2,60.011546221428375,2025-11-14 16h06.55.054639 +0530,
6,0,6,o,1.8915725000001657,None,6,0,6,0,120.53080759999989,,,,,,,,,,,,,,,,,,,,,,,,,,,,,,,,,,,,,,,,,,,,,,,,,,120.51467600000001,120.53080759999989,121.03083440000023,121.01431740000021,121.0240725000001,121.03083440000023,121.03083440000023,121.03083440000023,122.93103649999989,Objects\137a.jpg,pre,o,1.8915725000001657,None,,,,,,,,00023,001,2025-11-14_16h06.48.021,MST_test,2024.2.2,60.011546221428375,2025-11-14 16h06.55.054639 +0530,
7,0,7,s,1.27443970000013,None,7,0,7,0,122.94748349999986,,,,,,,,,,,,,,,,,,,,,,,,,,,,,,,,,,,,,,,,,,,,,,,,,,122.93112140000017,122.94748349999986,123.46386319999988,123.43090229999984,123.45706480000013,123.46386319999988,123.46386319999988,123.46386319999988,124.74773340000024,Scenes\181b.jpg,pre,s,1.27443970000013,None,,,,,,,,00023,001,2025-11-14_16h06.48.021,MST_test,2024.2.2,60.011546221428375,2025-11-14 16h06.55.054639 +0530,
8,0,8,o,1.3949533999998494,None,8,0,8,0,124.76409699999999,,,,,,,,,,,,,,,,,,,,,,,,,,,,,,,,,,,,,,,,,,,,,,,,,,124.74781770000004,124.76409699999999,125.26409360000002,125.24758260000021,125.25802989999988,125.26409360000002,125.26409360000002,125.26409360000002,126.66435380000007,Objects\050a.jpg,pre,o,1.3949533999998494,None,,,,,,,,00023,001,2025-11-14_16h06.48.021,MST_test,2024.2.2,60.011546221428375,2025-11-14 16h06.55.054639 +0530,
9,0,9,n,2.3177465000003394,None,9,0,9,0,126.68072210000014,,,,,,,,,,,,,,,,,,,,,,,,,,,,,,,,,,,,,,,,,,,,,,,,,,126.66444990000014,126.68072210000014,127.19695890000025,127.16423039999995,127.1916603000002,127.19695890000025,127.19695890000025,127.19695890000025,129.53088300000013,Scenes\079b.jpg,pre,n,2.3177465000003394,None,,,,,,,,00023,001,2025-11-14_16h06.48.021,MST_test,2024.2.2,60.011546221428375,2025-11-14 16h06.55.054639 +0530,
10,0,10,s,1.4451525999998012,None,10,0,10,0,129.5473202999999,,,,,,,,,,,,,,,,,,,,,,,,,,,,,,,,,,,,,,,,,,,,,,,,,,129.5309654,129.5473202999999,130.06417850000003,130.03077110000027,130.05286880000017,130.06417850000003,130.06417850000003,130.06417850000003,131.51425540000014,Scenes\169b.jpg,pre,s,1.4451525999998012,None,,,,,,,,00023,001,2025-11-14_16h06.48.021,MST_test,2024.2.2,60.011546221428375,2025-11-14 16h06.55.054639 +0530,
11,0,11,s,1.4994959999999082,None,11,0,11,0,131.53057790000025,,,,,,,,,,,,,,,,,,,,,,,,,,,,,,,,,,,,,,,,,,,,,,,,,,131.51434129999984,131.53057790000025,132.0474799000001,132.0140973,132.03121850000002,132.0474799000001,132.0474799000001,132.0474799000001,133.54779650000023,Objects\116b.jpg,mid,s,1.4994959999999082,None,,,,,,,,00023,001,2025-11-14_16h06.48.021,MST_test,2024.2.2,60.011546221428375,2025-11-14 16h06.55.054639 +0530,
12,0,12,s,1.5360528000001068,None,12,0,12,0,133.56390100000021,,,,,,,,,,,,,,,,,,,,,,,,,,,,,,,,,,,,,,,,,,,,,,,,,,133.54788399999984,133.56390100000021,134.0806043,134.04745519999983,134.07523389999983,134.0806043,134.0806043,134.0806043,135.63078840000003,Objects\147b.jpg,post,s,1.5360528000001068,None,,,,,,,,00023,001,2025-11-14_16h06.48.021,MST_test,2024.2.2,60.011546221428375,2025-11-14 16h06.55.054639 +0530,
13,0,13,s,1.225899600000048,None,13,0,13,0,135.64715249999995,,,,,,,,,,,,,,,,,,,,,,,,,,,,,,,,,,,,,,,,,,,,,,,,,,135.63086550000003,135.64715249999995,136.1805053999999,136.13069250000012,136.16815539999993,136.1805053999999,136.1805053999999,136.1805053999999,137.41409110000018,Foils\086a.jpg,none,s,1.225899600000048,None,,,,,,,,00023,001,2025-11-14_16h06.48.021,MST_test,2024.2.2,60.011546221428375,2025-11-14 16h06.55.054639 +0530,
14,0,14,s,2.764973000000282,None,14,0,14,0,137.4304912,,,,,,,,,,,,,,,,,,,,,,,,,,,,,,,,,,,,,,,,,,,,,,,,,,137.4141732999999,137.4304912,137.96397739999998,137.91397789999996,137.95411949999993,137.96397739999998,137.96397739999998,137.96397739999998,140.73072909999996,Scenes\015b.jpg,mid,s,2.764973000000282,None,,,,,,,,00023,001,2025-11-14_16h06.48.021,MST_test,2024.2.2,60.011546221428375,2025-11-14 16h06.55.054639 +0530,
15,0,15,s,2.482307100000071,None,15,0,15,0,140.74705419999987,,,,,,,,,,,,,,,,,,,,,,,,,,,,,,,,,,,,,,,,,,,,,,,,,,140.73081149999985,140.74705419999987,141.28021580000018,141.23056900000006,141.27274999999986,141.28021580000018,141.28021580000018,141.28021580000018,143.76392950000013,Scenes\027b.jpg,pre,s,2.482307100000071,None,,,,,,,,00023,001,2025-11-14_16h06.48.021,MST_test,2024.2.2,60.011546221428375,2025-11-14 16h06.55.054639 +0530,
16,0,16,o,1.8194769000001543,None,16,0,16,0,143.78035149999982,,,,,,,,,,,,,,,,,,,,,,,,,,,,,,,,,,,,,,,,,,,,,,,,,,143.76401069999997,143.78035149999982,144.28060119999986,144.26383529999998,144.27420700000016,144.28060119999986,144.28060119999986,144.28060119999986,146.11391320000007,Objects\139a.jpg,mid,o,1.8194769000001543,None,,,,,,,,00023,001,2025-11-14_16h06.48.021,MST_test,2024.2.2,60.011546221428375,2025-11-14 16h06.55.054639 +0530,
17,0,17,o,0.9619664000001649,None,17,0,17,0,146.13029059999985,,,,,,,,,,,,,,,,,,,,,,,,,,,,,,,,,,,,,,,,,,,,,,,,,,146.11399510000024,146.13029059999985,146.64696299999991,146.61377470000002,146.6291477000002,146.64696299999991,146.64696299999991,146.64696299999991,147.61391860000026,Objects\003a.jpg,pre,o,0.9619664000001649,None,,,,,,,,00023,001,2025-11-14_16h06.48.021,MST_test,2024.2.2,60.011546221428375,2025-11-14 16h06.55.054639 +0530,
18,0,18,o,1.5240258999997423,None,18,0,18,0,147.6302972000001,,,,,,,,,,,,,,,,,,,,,,,,,,,,,,,,,,,,,,,,,,,,,,,,,,147.61400740000022,147.6302972000001,148.1302188000002,148.11376360000008,148.12360580000018,148.1302188000002,148.1302188000002,148.1302188000002,149.66390100000012,Objects\188a.jpg,pre,o,1.5240258999997423,None,,,,,,,,00023,001,2025-11-14_16h06.48.021,MST_test,2024.2.2,60.011546221428375,2025-11-14 16h06.55.054639 +0530,
19,0,19,n,1.2119430000002467,None,19,0,19,0,149.6802255,,,,,,,,,,,,,,,,,,,,,,,,,,,,,,,,,,,,,,,,,,,,,,,,,,149.6639885000002,149.6802255,150.19646679999983,150.16367289999994,150.19299370000022,150.19646679999983,150.19646679999983,150.19646679999983,151.41388010000014,Foils\121a.jpg,none,n,1.2119430000002467,None,,,,,,,,00023,001,2025-11-14_16h06.48.021,MST_test,2024.2.2,60.011546221428375,2025-11-14 16h06.55.054639 +0530,
20,0,20,n,4.025521699999899,None,20,0,20,0,151.43019119999985,,,,,,,,,,,,,,,,,,,,,,,,,,,,,,,,,,,,,,,,,,,,,,,,,,151.41396559999998,151.43019119999985,151.94705559999989,151.91366510000012,151.92502820000004,151.94705559999989,151.94705559999989,151.94705559999989,155.98039200000017,Scenes\163a.jpg,pre,n,4.025521699999899,None,,,,,,,,00023,001,2025-11-14_16h06.48.021,MST_test,2024.2.2,60.011546221428375,2025-11-14 16h06.55.054639 +0530,
21,0,21,s,1.1275817999999163,None,21,0,21,0,155.9967749,,,,,,,,,,,,,,,,,,,,,,,,,,,,,,,,,,,,,,,,,,,,,,,,,,155.98047310000015,155.9967749,156.51343310000016,156.48039270000004,156.4944625999999,156.51343310000016,156.51343310000016,156.51343310000016,157.6470551,Scenes\128a.jpg,pre,s,1.1275817999999163,None,,,,,,,,00023,001,2025-11-14_16h06.48.021,MST_test,2024.2.2,60.011546221428375,2025-11-14 16h06.55.054639 +0530,
22,0,22,o,1.0717905000001338,None,22,0,22,0,157.66340990000003,,,,,,,,,,,,,,,,,,,,,,,,,,,,,,,,,,,,,,,,,,,,,,,,,,157.64713899999992,157.66340990000003,158.16333869999994,158.14690720000021,158.15825860000018,158.16333869999994,158.16333869999994,158.16333869999994,159.24694939999995,Objects\020a.jpg,mid,o,1.0717905000001338,None,,,,,,,,00023,001,2025-11-14_16h06.48.021,MST_test,2024.2.2,60.011546221428375,2025-11-14 16h06.55.054639 +0530,
23,0,23,o,1.1241831000002094,None,23,0,23,0,159.2633545000001,,,,,,,,,,,,,,,,,,,,,,,,,,,,,,,,,,,,,,,,,,,,,,,,,,159.2470297000002,159.2633545000001,159.7800334000001,159.74685609999983,159.76798750000012,159.7800334000001,159.7800334000001,159.7800334000001,160.9136016,Scenes\086a.jpg,post,o,1.1241831000002094,None,,,,,,,,00023,001,2025-11-14_16h06.48.021,MST_test,2024.2.2,60.011546221428375,2025-11-14 16h06.55.054639 +0530,
24,0,24,n,1.057527299999947,None,24,0,24,0,160.92997519999994,,,,,,,,,,,,,,,,,,,,,,,,,,,,,,,,,,,,,,,,,,,,,,,,,,160.91368050000005,160.92997519999994,161.4633080000001,161.41356789999986,161.44310400000018,161.4633080000001,161.4633080000001,161.4633080000001,162.53032210000015,Foils\033a.jpg,none,n,1.057527299999947,None,,,,,,,,00023,001,2025-11-14_16h06.48.021,MST_test,2024.2.2,60.011546221428375,2025-11-14 16h06.55.054639 +0530,
25,0,25,s,1.4433413000001565,None,25,0,25,0,162.54662620000022,,,,,,,,,,,,,,,,,,,,,,,,,,,,,,,,,,,,,,,,,,,,,,,,,,162.53044419999992,162.54662620000022,163.06325630000015,163.03011589999983,163.0570679,163.06325630000015,163.06325630000015,163.06325630000015,164.51354019999985,Objects\185b.jpg,post,s,1.4433413000001565,None,,,,,,,,00023,001,2025-11-14_16h06.48.021,MST_test,2024.2.2,60.011546221428375,2025-11-14 16h06.55.054639 +0530,
26,0,26,n,2.1394391999997424,None,26,0,26,0,164.52990639999985,,,,,,,,,,,,,,,,,,,,,,,,,,,,,,,,,,,,,,,,,,,,,,,,,,164.5136227999999,164.52990639999985,165.04677909999987,165.0133604,165.0400301000002,165.04677909999987,165.04677909999987,165.04677909999987,167.19679680000013,Foils\scenes13.jpg,none,n,2.1394391999997424,None,,,,,,,,00023,001,2025-11-14_16h06.48.021,MST_test,2024.2.2,60.011546221428375,2025-11-14 16h06.55.054639 +0530,
27,0,27,n,1.726585200000045,None,27,0,27,0,167.21318940000015,,,,,,,,,,,,,,,,,,,,,,,,,,,,,,,,,,,,,,,,,,,,,,,,,,167.19687690000023,167.21318940000015,167.72985970000013,167.69666800000027,167.71424460000003,167.72985970000013,167.72985970000013,167.72985970000013,169.46359140000027,Foils\scenes16.jpg,none,n,1.726585200000045,None,,,,,,,,00023,001,2025-11-14_16h06.48.021,MST_test,2024.2.2,60.011546221428375,2025-11-14 16h06.55.054639 +0530,
28,0,28,s,1.6685591000000386,None,28,0,28,0,169.47983540000018,,,,,,,,,,,,,,,,,,,,,,,,,,,,,,,,,,,,,,,,,,,,,,,,,,169.46367720000012,169.47983540000018,169.9965023000002,169.9632807999999,169.98872310000002,169.9965023000002,169.9965023000002,169.9965023000002,171.6800556999999,Scenes\044b.jpg,pre,s,1.6685591000000386,None,,,,,,,,00023,001,2025-11-14_16h06.48.021,MST_test,2024.2.2,60.011546221428375,2025-11-14 16h06.55.054639 +0530,
29,0,29,o,1.6940552000000935,None,29,0,29,0,171.69639340000026,,,,,,,,,,,,,,,,,,,,,,,,,,,,,,,,,,,,,,,,,,,,,,,,,,171.68013799999994,171.69639340000026,172.19637669999997,172.17990110000005,172.19004930000006,172.19637669999997,172.19637669999997,172.19637669999997,173.89680049999993,Objects\101a.jpg,mid,o,1.6940552000000935,None,,,,,,,,00023,001,2025-11-14_16h06.48.021,MST_test,2024.2.2,60.011546221428375,2025-11-14 16h06.55.054639 +0530,
30,0,30,n,2.2004394000000502,None,30,0,30,0,173.91300190000015,,,,,,,,,,,,,,,,,,,,,,,,,,,,,,,,,,,,,,,,,,,,,,,,,,173.8968812999999,173.91300190000015,174.42971039999998,174.3965482000001,174.40778969999997,174.42971039999998,174.42971039999998,174.42971039999998,176.6466326000002,Scenes\147a.jpg,mid,n,2.2004394000000502,None,,,,,,,,00023,001,2025-11-14_16h06.48.021,MST_test,2024.2.2,60.011546221428375,2025-11-14 16h06.55.054639 +0530,
31,0,31,o,1.0917131999999583,None,31,0,31,0,176.6629891,,,,,,,,,,,,,,,,,,,,,,,,,,,,,,,,,,,,,,,,,,,,,,,,,,176.64671199999998,176.6629891,177.16293329999985,177.1464625000001,177.1568024999999,177.16293329999985,177.16293329999985,177.16293329999985,178.26343090000023,Objects\023a.jpg,mid,o,1.0917131999999583,None,,,,,,,,00023,001,2025-11-14_16h06.48.021,MST_test,2024.2.2,60.011546221428375,2025-11-14 16h06.55.054639 +0530,
32,0,32,s,1.1045678999998927,None,32,0,32,0,178.27961830000027,,,,,,,,,,,,,,,,,,,,,,,,,,,,,,,,,,,,,,,,,,,,,,,,,,178.26352079999992,178.27961830000027,178.77956729999983,178.76318680000008,178.77359910000018,178.77956729999983,178.77956729999983,178.77956729999983,179.89651919999983,Objects\039a.jpg,post,s,1.1045678999998927,None,,,,,,,,00023,001,2025-11-14_16h06.48.021,MST_test,2024.2.2,60.011546221428375,2025-11-14 16h06.55.054639 +0530,
33,0,33,n,1.5625420000001213,None,33,0,33,0,179.91286990000003,,,,,,,,,,,,,,,,,,,,,,,,,,,,,,,,,,,,,,,,,,,,,,,,,,179.89660070000014,179.91286990000003,180.42954080000004,180.3964023000001,180.4242898,180.42954080000004,180.42954080000004,180.42954080000004,181.99651670000026,Foils\098a.jpg,none,n,1.5625420000001213,None,,,,,,,,00023,001,2025-11-14_16h06.48.021,MST_test,2024.2.2,60.011546221428375,2025-11-14 16h06.55.054639 +0530,
34,0,34,s,2.254540800000086,None,34,0,34,0,182.0128247,,,,,,,,,,,,,,,,,,,,,,,,,,,,,,,,,,,,,,,,,,,,,,,,,,181.9965976000001,182.0128247,182.5297392,182.4964247999999,182.51165680000008,182.5297392,182.5297392,182.5297392,184.79640949999998,Scenes\191a.jpg,post,s,2.254540800000086,None,,,,,,,,00023,001,2025-11-14_16h06.48.021,MST_test,2024.2.2,60.011546221428375,2025-11-14 16h06.55.054639 +0530,
35,0,35,o,1.0991248000000269,None,35,0,35,0,184.81281310000008,,,,,,,,,,,,,,,,,,,,,,,,,,,,,,,,,,,,,,,,,,,,,,,,,,184.7964942000001,184.81281310000008,185.32968469999992,185.29629180000006,185.30958290000012,185.32968469999992,185.32968469999992,185.32968469999992,186.42970219999984,Scenes\047a.jpg,pre,o,1.0991248000000269,None,,,,,,,,00023,001,2025-11-14_16h06.48.021,MST_test,2024.2.2,60.011546221428375,2025-11-14 16h06.55.054639 +0530,
36,0,36,s,1.9751956000000064,None,36,0,36,0,186.44611099999997,,,,,,,,,,,,,,,,,,,,,,,,,,,,,,,,,,,,,,,,,,,,,,,,,,186.42978240000025,186.44611099999997,186.96294409999996,186.92954200000008,186.95859870000027,186.96294409999996,186.96294409999996,186.96294409999996,188.94633240000007,Foils\scenes3.jpg,none,s,1.9751956000000064,None,,,,,,,,00023,001,2025-11-14_16h06.48.021,MST_test,2024.2.2,60.011546221428375,2025-11-14 16h06.55.054639 +0530,
37,0,37,s,1.1588708000003862,None,37,0,37,0,188.9627871,,,,,,,,,,,,,,,,,,,,,,,,,,,,,,,,,,,,,,,,,,,,,,,,,,188.94641699999988,188.9627871,189.47956550000004,189.4463330000001,189.47467269999993,189.47956550000004,189.47956550000004,189.47956550000004,190.6462666,Objects\096b.jpg,pre,s,1.1588708000003862,None,,,,,,,,00023,001,2025-11-14_16h06.48.021,MST_test,2024.2.2,60.011546221428375,2025-11-14 16h06.55.054639 +0530,
38,0,38,s,1.4074108999998316,None,38,0,38,0,190.66273569999998,,,,,,,,,,,,,,,,,,,,,,,,,,,,,,,,,,,,,,,,,,,,,,,,,,190.64634619999993,190.66273569999998,191.17961100000025,191.1461729,191.17019319999986,191.17961100000025,191.17961100000025,191.17961100000025,192.5963466999999,Foils\scenes5.jpg,none,s,1.4074108999998316,None,,,,,,,,00023,001,2025-11-14_16h06.48.021,MST_test,2024.2.2,60.011546221428375,2025-11-14 16h06.55.054639 +0530,
39,0,39,o,1.146690900000067,None,39,0,39,0,192.61264480000023,,,,,,,,,,,,,,,,,,,,,,,,,,,,,,,,,,,,,,,,,,,,,,,,,,192.59643280000023,192.61264480000023,193.12950209999985,193.09613240000022,193.11832059999983,193.12950209999985,193.12950209999985,193.12950209999985,194.27954990000012,Scenes\171a.jpg,pre,o,1.146690900000067,None,,,,,,,,00023,001,2025-11-14_16h06.48.021,MST_test,2024.2.2,60.011546221428375,2025-11-14 16h06.55.054639 +0530,
40,0,40,s,1.0782546999998885,None,40,0,40,0,194.2959443000002,,,,,,,,,,,,,,,,,,,,,,,,,,,,,,,,,,,,,,,,,,,,,,,,,,194.2796353000001,194.2959443000002,194.81256540000027,194.7794452999999,194.80802299999982,194.81256540000027,194.81256540000027,194.81256540000027,195.8963368000002,Objects\055b.jpg,mid,s,1.0782546999998885,None,,,,,,,,00023,001,2025-11-14_16h06.48.021,MST_test,2024.2.2,60.011546221428375,2025-11-14 16h06.55.054639 +0530,
41,0,41,s,1.461883299999954,None,41,0,41,0,195.91261150000014,,,,,,,,,,,,,,,,,,,,,,,,,,,,,,,,,,,,,,,,,,,,,,,,,,195.89642179999987,195.91261150000014,196.42919430000006,196.39607,196.4231797,196.42919430000006,196.42919430000006,196.42919430000006,197.89622919999988,Objects\011b.jpg,pre,s,1.461883299999954,None,,,,,,,,00023,001,2025-11-14_16h06.48.021,MST_test,2024.2.2,60.011546221428375,2025-11-14 16h06.55.054639 +0530,
42,0,42,o,1.2269771999999648,None,42,0,42,0,197.91254080000022,,,,,,,,,,,,,,,,,,,,,,,,,,,,,,,,,,,,,,,,,,,,,,,,,,197.89632289999986,197.91254080000022,198.46275070000024,198.39601019999986,198.44023189999984,198.46275070000024,198.46275070000024,198.46275070000024,199.69614269999988,Scenes\189b.jpg,mid,o,1.2269771999999648,None,,,,,,,,00023,001,2025-11-14_16h06.48.021,MST_test,2024.2.2,60.011546221428375,2025-11-14 16h06.55.054639 +0530,
43,0,43,o,1.4632768999999826,None,43,0,43,0,199.71249019999982,,,,,,,,,,,,,,,,,,,,,,,,,,,,,,,,,,,,,,,,,,,,,,,,,,199.69622760000016,199.71249019999982,200.22910750000005,200.1959663,200.2224177999999,200.22910750000005,200.22910750000005,200.22910750000005,201.6960786000002,Objects\043b.jpg,post,o,1.4632768999999826,None,,,,,,,,00023,001,2025-11-14_16h06.48.021,MST_test,2024.2.2,60.011546221428375,2025-11-14 16h06.55.054639 +0530,
44,0,44,n,0.9064972000001035,None,44,0,44,0,201.7124470000001,,,,,,,,,,,,,,,,,,,,,,,,,,,,,,,,,,,,,,,,,,,,,,,,,,201.6961616000001,201.7124470000001,202.24572809999995,202.19594470000015,202.2249402,202.24572809999995,202.24572809999995,202.24572809999995,203.16268730000024,Scenes\179b.jpg,post,n,0.9064972000001035,None,,,,,,,,00023,001,2025-11-14_16h06.48.021,MST_test,2024.2.2,60.011546221428375,2025-11-14 16h06.55.054639 +0530,
45,0,45,s,1.1924730999999156,None,45,0,45,0,203.17907910000008,,,,,,,,,,,,,,,,,,,,,,,,,,,,,,,,,,,,,,,,,,,,,,,,,,203.16277590000004,203.17907910000008,203.69591400000013,203.6626036,203.6810410999999,203.69591400000013,203.69591400000013,203.69591400000013,204.89618610000002,Scenes\104a.jpg,mid,s,1.1924730999999156,None,,,,,,,,00023,001,2025-11-14_16h06.48.021,MST_test,2024.2.2,60.011546221428375,2025-11-14 16h06.55.054639 +0530,
46,0,46,n,2.069361299999855,None,46,0,46,0,204.91238679999992,,,,,,,,,,,,,,,,,,,,,,,,,,,,,,,,,,,,,,,,,,,,,,,,,,204.89626680000015,204.91238679999992,205.42925059999993,205.3958696000002,205.41920499999992,205.42925059999993,205.42925059999993,205.42925059999993,207.5126154000002,Foils\020b.jpg,none,n,2.069361299999855,None,,,,,,,,00023,001,2025-11-14_16h06.48.021,MST_test,2024.2.2,60.011546221428375,2025-11-14 16h06.55.054639 +0530,
47,0,47,s,2.423650700000053,None,47,0,47,0,207.5290422999999,,,,,,,,,,,,,,,,,,,,,,,,,,,,,,,,,,,,,,,,,,,,,,,,,,207.51270249999993,207.5290422999999,208.06231289999982,208.01244810000003,208.04014699999993,208.06231289999982,208.06231289999982,208.06231289999982,210.49585520000005,Scenes\183b.jpg,mid,s,2.423650700000053,None,,,,,,,,00023,001,2025-11-14_16h06.48.021,MST_test,2024.2.2,60.011546221428375,2025-11-14 16h06.55.054639 +0530,
48,0,48,n,0.9754910999999993,None,48,0,48,0,210.51227640000002,,,,,,,,,,,,,,,,,,,,,,,,,,,,,,,,,,,,,,,,,,,,,,,,,,210.4959366999999,210.51227640000002,211.04557219999992,210.99586299999987,211.02582800000005,211.04557219999992,211.04557219999992,211.04557219999992,212.02914850000002,Foils\093b.jpg,none,n,0.9754910999999993,None,,,,,,,,00023,001,2025-11-14_16h06.48.021,MST_test,2024.2.2,60.011546221428375,2025-11-14 16h06.55.054639 +0530,
49,0,49,s,1.173773600000004,None,49,0,49,0,212.0455614,,,,,,,,,,,,,,,,,,,,,,,,,,,,,,,,,,,,,,,,,,,,,,,,,,212.02922869999998,212.0455614,212.57887790000018,212.52902819999986,212.56932669999992,212.57887790000018,212.57887790000018,212.57887790000018,213.76260060000027,Scenes\152b.jpg,pre,s,1.173773600000004,None,,,,,,,,00023,001,2025-11-14_16h06.48.021,MST_test,2024.2.2,60.011546221428375,2025-11-14 16h06.55.054639 +0530,
50,0,50,s,1.1253326999999445,None,50,0,50,0,213.7788167000001,,,,,,,,,,,,,,,,,,,,,,,,,,,,,,,,,,,,,,,,,,,,,,,,,,213.76268730000015,213.7788167000001,214.27883829999996,214.26235389999988,214.27221320000012,214.27883829999996,214.27883829999996,214.27883829999996,215.41252250000002,Objects\138a.jpg,mid,s,1.1253326999999445,None,,,,,,,,00023,001,2025-11-14_16h06.48.021,MST_test,2024.2.2,60.011546221428375,2025-11-14 16h06.55.054639 +0530,
51,0,51,s,1.1702276000000893,None,51,0,51,0,215.42882510000004,,,,,,,,,,,,,,,,,,,,,,,,,,,,,,,,,,,,,,,,,,,,,,,,,,215.41261539999982,215.42882510000004,215.96211240000025,215.91232670000022,215.93967899999984,215.96211240000025,215.96211240000025,215.96211240000025,217.14572740000017,Scenes\019b.jpg,pre,s,1.1702276000000893,None,,,,,,,,00023,001,2025-11-14_16h06.48.021,MST_test,2024.2.2,60.011546221428375,2025-11-14 16h06.55.054639 +0530,
52,0,52,s,0.7875036000000364,None,52,0,52,0,217.1621247999999,,,,,,,,,,,,,,,,,,,,,,,,,,,,,,,,,,,,,,,,,,,,,,,,,,217.14581320000002,217.1621247999999,217.6787735999999,217.64558999999986,217.66674780000017,217.6787735999999,217.6787735999999,217.6787735999999,218.47904429999994,Objects\090b.jpg,post,s,0.7875036000000364,None,,,,,,,,00023,001,2025-11-14_16h06.48.021,MST_test,2024.2.2,60.011546221428375,2025-11-14 16h06.55.054639 +0530,
53,0,53,s,1.1697243999997227,None,53,0,53,0,218.4954269000002,,,,,,,,,,,,,,,,,,,,,,,,,,,,,,,,,,,,,,,,,,,,,,,,,,218.4791329000002,218.4954269000002,218.99537170000008,218.97899440000015,218.98940990000006,218.99537170000008,218.99537170000008,218.99537170000008,220.17896369999994,Objects\015a.jpg,mid,s,1.1697243999997227,None,,,,,,,,00023,001,2025-11-14_16h06.48.021,MST_test,2024.2.2,60.011546221428375,2025-11-14 16h06.55.054639 +0530,
54,0,54,s,2.576173100000233,None,54,0,54,0,220.19538380000017,,,,,,,,,,,,,,,,,,,,,,,,,,,,,,,,,,,,,,,,,,,,,,,,,,220.17905159999987,220.19538380000017,220.72887719999994,220.67885210000009,220.7108479000001,220.72887719999994,220.72887719999994,220.72887719999994,223.31235390000006,Foils\scenes4.jpg,none,s,2.576173100000233,None,,,,,,,,00023,001,2025-11-14_16h06.48.021,MST_test,2024.2.2,60.011546221428375,2025-11-14 16h06.55.054639 +0530,
55,0,55,s,1.0371847999999773,None,55,0,55,0,223.32866239999998,,,,,,,,,,,,,,,,,,,,,,,,,,,,,,,,,,,,,,,,,,,,,,,,,,223.31243729999983,223.32866239999998,223.84550719999993,223.81212960000016,223.8304300000002,223.84550719999993,223.84550719999993,223.84550719999993,224.89555240000004,Scenes\187a.jpg,pre,s,1.0371847999999773,None,,,,,,,,00023,001,2025-11-14_16h06.48.021,MST_test,2024.2.2,60.011546221428375,2025-11-14 16h06.55.054639 +0530,
56,0,56,o,2.2072103999998944,None,56,0,56,0,224.91195100000027,,,,,,,,,,,,,,,,,,,,,,,,,,,,,,,,,,,,,,,,,,,,,,,,,,224.89564099999984,224.91195100000027,225.44524819999992,225.3954540000002,225.43144099999995,225.44524819999992,225.44524819999992,225.44524819999992,227.66215350000016,Scenes\190b.jpg,mid,o,2.2072103999998944,None,,,,,,,,00023,001,2025-11-14_16h06.48.021,MST_test,2024.2.2,60.011546221428375,2025-11-14 16h06.55.054639 +0530,
57,0,57,o,1.0511758999996346,None,57,0,57,0,227.67856370000004,,,,,,,,,,,,,,,,,,,,,,,,,,,,,,,,,,,,,,,,,,,,,,,,,,227.66224220000026,227.67856370000004,228.19537779999996,228.16203259999997,228.1740926,228.19537779999996,228.19537779999996,228.19537779999996,229.26216069999987,Scenes\100a.jpg,post,o,1.0511758999996346,None,,,,,,,,00023,001,2025-11-14_16h06.48.021,MST_test,2024.2.2,60.011546221428375,2025-11-14 16h06.55.054639 +0530,
58,0,58,o,1.9432624000000942,None,58,0,58,0,229.27855310000018,,,,,,,,,,,,,,,,,,,,,,,,,,,,,,,,,,,,,,,,,,,,,,,,,,229.2622475999999,229.27855310000018,229.79559970000014,229.76208550000024,229.78494969999997,229.79559970000014,229.79559970000014,229.79559970000014,231.74553850000007,Scenes\023a.jpg,mid,o,1.9432624000000942,None,,,,,,,,00023,001,2025-11-14_16h06.48.021,MST_test,2024.2.2,60.011546221428375,2025-11-14 16h06.55.054639 +0530,
59,0,59,s,1.6289723999998387,None,59,0,59,0,231.76183070000002,,,,,,,,,,,,,,,,,,,,,,,,,,,,,,,,,,,,,,,,,,,,,,,,,,231.74562930000025,231.76183070000002,232.29530529999988,232.24530049999998,232.2750370000001,232.29530529999988,232.29530529999988,232.29530529999988,233.92871919999993,Scenes\005b.jpg,mid,s,1.6289723999998387,None,,,,,,,,00023,001,2025-11-14_16h06.48.021,MST_test,2024.2.2,60.011546221428375,2025-11-14 16h06.55.054639 +0530,
60,0,60,o,1.1144690999999511,None,60,0,60,0,233.94508980000023,,,,,,,,,,,,,,,,,,,,,,,,,,,,,,,,,,,,,,,,,,,,,,,,,,233.9288208999999,233.94508980000023,234.46196910000003,234.42870349999998,234.44470720000004,234.46196910000003,234.46196910000003,234.46196910000003,235.57872699999984,Objects\158a.jpg,pre,o,1.1144690999999511,None,,,,,,,,00023,001,2025-11-14_16h06.48.021,MST_test,2024.2.2,60.011546221428375,2025-11-14 16h06.55.054639 +0530,
61,0,61,s,1.6034592000000885,None,61,0,61,0,235.59502529999986,,,,,,,,,,,,,,,,,,,,,,,,,,,,,,,,,,,,,,,,,,,,,,,,,,235.5788098999999,235.59502529999986,236.09479119999992,236.07853240000009,236.08924809999985,236.09479119999992,236.09479119999992,236.09479119999992,237.71195599999987,Scenes\006a.jpg,pre,s,1.6034592000000885,None,,,,,,,,00023,001,2025-11-14_16h06.48.021,MST_test,2024.2.2,60.011546221428375,2025-11-14 16h06.55.054639 +0530,
62,0,62,o,2.663457600000129,None,62,0,62,0,237.72836979999988,,,,,,,,,,,,,,,,,,,,,,,,,,,,,,,,,,,,,,,,,,,,,,,,,,237.71204160000002,237.72836979999988,238.24501350000014,238.21182049999993,238.22297570000023,238.24501350000014,238.24501350000014,238.24501350000014,240.91209709999998,Scenes\164a.jpg,pre,o,2.663457600000129,None,,,,,,,,00023,001,2025-11-14_16h06.48.021,MST_test,2024.2.2,60.011546221428375,2025-11-14 16h06.55.054639 +0530,
63,0,63,o,1.6571735000002263,None,63,0,63,0,240.92828669999994,,,,,,,,,,,,,,,,,,,,,,,,,,,,,,,,,,,,,,,,,,,,,,,,,,240.91218790000016,240.92828669999994,241.44492849999983,241.41171280000003,241.4379274999999,241.44492849999983,241.44492849999983,241.44492849999983,243.1120545000001,Objects\092b.jpg,mid,o,1.6571735000002263,None,,,,,,,,00023,001,2025-11-14_16h06.48.021,MST_test,2024.2.2,60.011546221428375,2025-11-14 16h06.55.054639 +0530,
64,0,64,n,1.3723485999998957,None,64,0,64,0,243.12834550000002,,,,,,,,,,,,,,,,,,,,,,,,,,,,,,,,,,,,,,,,,,,,,,,,,,243.11214649999988,243.12834550000002,243.6620046999999,243.6117827999999,243.64946280000026,243.6620046999999,243.6620046999999,243.6620046999999,245.04525020000005,Foils\scenes30.jpg,none,n,1.3723485999998957,None,,,,,,,,00023,001,2025-11-14_16h06.48.021,MST_test,2024.2.2,60.011546221428375,2025-11-14 16h06.55.054639 +0530,
65,0,65,n,1.598735200000192,None,65,0,65,0,245.0615307999999,,,,,,,,,,,,,,,,,,,,,,,,,,,,,,,,,,,,,,,,,,,,,,,,,,245.04532810000023,245.0615307999999,245.57816220000018,245.54501159999995,245.56818439999984,245.57816220000018,245.57816220000018,245.57816220000018,247.17849520000004,Foils\scenes8.jpg,none,n,1.598735200000192,None,,,,,,,,00023,001,2025-11-14_16h06.48.021,MST_test,2024.2.2,60.011546221428375,2025-11-14 16h06.55.054639 +0530,
66,0,66,n,1.8768392000001768,None,66,0,66,0,247.19485099999997,,,,,,,,,,,,,,,,,,,,,,,,,,,,,,,,,,,,,,,,,,,,,,,,,,247.1785797,247.19485099999997,247.71146950000025,247.67828609999992,247.698983,247.71146950000025,247.71146950000025,247.71146950000025,249.59503109999991,Foils\081a.jpg,none,n,1.8768392000001768,None,,,,,,,,00023,001,2025-11-14_16h06.48.021,MST_test,2024.2.2,60.011546221428375,2025-11-14 16h06.55.054639 +0530,
67,0,67,s,2.346448600000258,None,67,0,67,0,249.61143190000007,,,,,,,,,,,,,,,,,,,,,,,,,,,,,,,,,,,,,,,,,,,,,,,,,,249.59510720000003,249.61143190000007,250.1283036000002,250.0949760000001,250.11985489999984,250.1283036000002,250.1283036000002,250.1283036000002,252.47838519999982,Scenes\175b.jpg,post,s,2.346448600000258,None,,,,,,,,00023,001,2025-11-14_16h06.48.021,MST_test,2024.2.2,60.011546221428375,2025-11-14 16h06.55.054639 +0530,
68,0,68,s,1.0255072999998447,None,68,0,68,0,252.4946993000001,,,,,,,,,,,,,,,,,,,,,,,,,,,,,,,,,,,,,,,,,,,,,,,,,,252.47847000000024,252.4946993000001,253.01136259999998,252.9781845,252.99316410000006,253.01136259999998,253.01136259999998,253.01136259999998,254.04493509999998,Objects\140a.jpg,mid,s,1.0255072999998447,None,,,,,,,,00023,001,2025-11-14_16h06.48.021,MST_test,2024.2.2,60.011546221428375,2025-11-14 16h06.55.054639 +0530,
69,0,69,o,1.2406144000001404,None,69,0,69,0,254.06133579999982,,,,,,,,,,,,,,,,,,,,,,,,,,,,,,,,,,,,,,,,,,,,,,,,,,254.04501589999995,254.06133579999982,254.57813740000006,254.54493359999992,254.56157050000024,254.57813740000006,254.57813740000006,254.57813740000006,255.8284185,Scenes\032a.jpg,post,o,1.2406144000001404,None,,,,,,,,00023,001,2025-11-14_16h06.48.021,MST_test,2024.2.2,60.011546221428375,2025-11-14 16h06.55.054639 +0530,
70,0,70,o,1.1740325000000666,None,70,0,70,0,255.84458470000004,,,,,,,,,,,,,,,,,,,,,,,,,,,,,,,,,,,,,,,,,,,,,,,,,,255.82849349999992,255.84458470000004,256.34461910000005,256.32807800000023,256.33828659999995,256.34461910000005,256.34461910000005,256.34461910000005,257.5284032000002,Objects\186a.jpg,pre,o,1.1740325000000666,None,,,,,,,,00023,001,2025-11-14_16h06.48.021,MST_test,2024.2.2,60.011546221428375,2025-11-14 16h06.55.054639 +0530,
71,0,71,s,1.4289968999996745,None,71,0,71,0,257.5445532000001,,,,,,,,,,,,,,,,,,,,,,,,,,,,,,,,,,,,,,,,,,,,,,,,,,257.5284859000001,257.5445532000001,258.0615524000002,258.0281050000001,258.04714690000014,258.0615524000002,258.0615524000002,258.0615524000002,259.49487490000024,Scenes\161a.jpg,mid,s,1.4289968999996745,None,,,,,,,,00023,001,2025-11-14_16h06.48.021,MST_test,2024.2.2,60.011546221428375,2025-11-14 16h06.55.054639 +0530,
72,0,72,o,1.2890885000001617,None,72,0,72,0,259.5112181000002,,,,,,,,,,,,,,,,,,,,,,,,,,,,,,,,,,,,,,,,,,,,,,,,,,259.4949545000002,259.5112181000002,260.0278415,259.99467549999986,260.00632180000025,260.0278415,260.0278415,260.0278415,261.32831770000007,Scenes\126a.jpg,pre,o,1.2890885000001617,None,,,,,,,,00023,001,2025-11-14_16h06.48.021,MST_test,2024.2.2,60.011546221428375,2025-11-14 16h06.55.054639 +0530,
73,0,73,s,2.4736244999999144,None,73,0,73,0,261.3445039999999,,,,,,,,,,,,,,,,,,,,,,,,,,,,,,,,,,,,,,,,,,,,,,,,,,261.32840139999985,261.3445039999999,261.86117820000004,261.8279914000002,261.85325510000007,261.86117820000004,261.86117820000004,261.86117820000004,264.34482980000007,Foils\113a.jpg,none,s,2.4736244999999144,None,,,,,,,,00023,001,2025-11-14_16h06.48.021,MST_test,2024.2.2,60.011546221428375,2025-11-14 16h06.55.054639 +0530,
74,0,74,s,0.9732475999999224,None,74,0,74,0,264.3611232999999,,,,,,,,,,,,,,,,,,,,,,,,,,,,,,,,,,,,,,,,,,,,,,,,,,264.344914,264.3611232999999,264.8777302000001,264.8445356,264.86126119999994,264.8777302000001,264.8777302000001,264.8777302000001,265.86135679999984,Objects\148b.jpg,mid,s,0.9732475999999224,None,,,,,,,,00023,001,2025-11-14_16h06.48.021,MST_test,2024.2.2,60.011546221428375,2025-11-14 16h06.55.054639 +0530,
75,0,75,n,2.6577720999998746,None,75,0,75,0,265.8777464000002,,,,,,,,,,,,,,,,,,,,,,,,,,,,,,,,,,,,,,,,,,,,,,,,,,265.86144219999983,265.8777464000002,266.4110811000003,266.3612249,266.39047529999993,266.4110811000003,266.4110811000003,266.4110811000003,269.0779874000002,Scenes\091b.jpg,post,n,2.6577720999998746,None,,,,,,,,00023,001,2025-11-14_16h06.48.021,MST_test,2024.2.2,60.011546221428375,2025-11-14 16h06.55.054639 +0530,
76,0,76,o,1.7632519999997385,None,76,0,76,0,269.0943399999999,,,,,,,,,,,,,,,,,,,,,,,,,,,,,,,,,,,,,,,,,,,,,,,,,,269.0780642000002,269.0943399999999,269.61097440000026,269.5777872000001,269.6061040000002,269.61097440000026,269.61097440000026,269.61097440000026,271.3779311999999,Objects\072b.jpg,post,o,1.7632519999997385,None,,,,,,,,00023,001,2025-11-14_16h06.48.021,MST_test,2024.2.2,60.011546221428375,2025-11-14 16h06.55.054639 +0530,
77,0,77,o,0.7520640000002459,None,77,0,77,0,271.3943273000002,,,,,,,,,,,,,,,,,,,,,,,,,,,,,,,,,,,,,,,,,,,,,,,,,,271.37801109999987,271.3943273000002,271.89430370000014,271.87778300000014,271.88719060000017,271.89430370000014,271.89430370000014,271.89430370000014,272.6612800999999,Objects\159a.jpg,post,o,0.7520640000002459,None,,,,,,,,00023,001,2025-11-14_16h06.48.021,MST_test,2024.2.2,60.011546221428375,2025-11-14 16h06.55.054639 +0530,
78,0,78,s,0.9563570000000254,None,78,0,78,0,272.6776102000001,,,,,,,,,,,,,,,,,,,,,,,,,,,,,,,,,,,,,,,,,,,,,,,,,,272.6613490000002,272.6776102000001,273.19422099999997,273.16115360000026,273.18160090000015,273.19422099999997,273.19422099999997,273.19422099999997,274.16116910000005,Foils\082a.jpg,none,s,0.9563570000000254,None,,,,,,,,00023,001,2025-11-14_16h06.48.021,MST_test,2024.2.2,60.011546221428375,2025-11-14 16h06.55.054639 +0530,
79,0,79,s,3.4102774999996655,None,79,0,79,0,274.1775676999998,,,,,,,,,,,,,,,,,,,,,,,,,,,,,,,,,,,,,,,,,,,,,,,,,,274.1612527,274.1775676999998,274.69422999999983,274.6609962,274.68532389999996,274.69422999999983,274.69422999999983,274.69422999999983,278.111083,Scenes\059b.jpg,mid,s,3.4102774999996655,None,,,,,,,,00023,001,2025-11-14_16h06.48.021,MST_test,2024.2.2,60.011546221428375,2025-11-14 16h06.55.054639 +0530,
80,0,80,s,1.0518540000002758,None,80,0,80,0,278.1274928999999,,,,,,,,,,,,,,,,,,,,,,,,,,,,,,,,,,,,,,,,,,,,,,,,,,278.11115859999995,278.1274928999999,278.6443818,278.6111649000002,278.6343666,278.6443818,278.6443818,278.6443818,279.7112622000002,Scenes\001a.jpg,post,s,1.0518540000002758,None,,,,,,,,00023,001,2025-11-14_16h06.48.021,MST_test,2024.2.2,60.011546221428375,2025-11-14 16h06.55.054639 +0530,
81,0,81,s,1.3205441999998584,None,81,0,81,0,279.72748860000024,,,,,,,,,,,,,,,,,,,,,,,,,,,,,,,,,,,,,,,,,,,,,,,,,,279.7113400999999,279.72748860000024,280.2443452,280.2109447,280.2334443000002,280.2443452,280.2443452,280.2443452,281.5777405000001,Objects\082b.jpg,pre,s,1.3205441999998584,None,,,,,,,,00023,001,2025-11-14_16h06.48.021,MST_test,2024.2.2,60.011546221428375,2025-11-14 16h06.55.054639 +0530,
82,0,82,s,1.2140083999997842,None,82,0,82,0,281.5940889000001,,,,,,,,,,,,,,,,,,,,,,,,,,,,,,,,,,,,,,,,,,,,,,,,,,281.5778179000001,281.5940889000001,282.11096410000005,282.0776935000001,282.08928560000027,282.11096410000005,282.11096410000005,282.11096410000005,283.3276609000002,Scenes\192a.jpg,mid,s,1.2140083999997842,None,,,,,,,,00023,001,2025-11-14_16h06.48.021,MST_test,2024.2.2,60.011546221428375,2025-11-14 16h06.55.054639 +0530,
83,0,83,s,1.715364099999988,None,83,0,83,0,283.34404100000006,,,,,,,,,,,,,,,,,,,,,,,,,,,,,,,,,,,,,,,,,,,,,,,,,,283.32773629999997,283.34404100000006,283.877651,283.82751889999986,283.86272510000003,283.877651,283.877651,283.877651,285.5942957999998,Scenes\114b.jpg,pre,s,1.715364099999988,None,,,,,,,,00023,001,2025-11-14_16h06.48.021,MST_test,2024.2.2,60.011546221428375,2025-11-14 16h06.55.054639 +0530,
84,0,84,s,0.6747855999997228,None,84,0,84,0,285.61065399999984,,,,,,,,,,,,,,,,,,,,,,,,,,,,,,,,,,,,,,,,,,,,,,,,,,285.5943706999999,285.61065399999984,286.1443049000002,286.09412970000017,286.1281980000001,286.1443049000002,286.1443049000002,286.1443049000002,286.8277476999999,Objects\010b.jpg,post,s,0.6747855999997228,None,,,,,,,,00023,001,2025-11-14_16h06.48.021,MST_test,2024.2.2,60.011546221428375,2025-11-14 16h06.55.054639 +0530,
85,0,85,s,2.123452599999837,None,85,0,85,0,286.8439615,,,,,,,,,,,,,,,,,,,,,,,,,,,,,,,,,,,,,,,,,,,,,,,,,,286.8278289000002,286.8439615,287.37751390000017,287.3274527000001,287.3568722000002,287.37751390000017,287.37751390000017,287.37751390000017,289.5108437000001,Scenes\031b.jpg,mid,s,2.123452599999837,None,,,,,,,,00023,001,2025-11-14_16h06.48.021,MST_test,2024.2.2,60.011546221428375,2025-11-14 16h06.55.054639 +0530,
86,0,86,n,1.568091099999947,None,86,0,86,0,289.5272344000002,,,,,,,,,,,,,,,,,,,,,,,,,,,,,,,,,,,,,,,,,,,,,,,,,,289.51092900000026,289.5272344000002,290.0605232999999,290.0107366999998,290.0480344,290.0605232999999,290.0605232999999,290.0605232999999,291.64409290000026,Scenes\143b.jpg,pre,n,1.568091099999947,None,,,,,,,,00023,001,2025-11-14_16h06.48.021,MST_test,2024.2.2,60.011546221428375,2025-11-14 16h06.55.054639 +0530,
87,0,87,o,1.34769469999992,None,87,0,87,0,291.6605237000001,,,,,,,,,,,,,,,,,,,,,,,,,,,,,,,,,,,,,,,,,,,,,,,,,,291.6441725000002,291.6605237000001,292.1773604000002,292.14413160000026,292.17124990000025,292.1773604000002,292.1773604000002,292.1773604000002,293.52744140000027,Scenes\008b.jpg,post,o,1.34769469999992,None,,,,,,,,00023,001,2025-11-14_16h06.48.021,MST_test,2024.2.2,60.011546221428375,2025-11-14 16h06.55.054639 +0530,
88,0,88,s,2.201989700000013,None,88,0,88,0,293.5438308,,,,,,,,,,,,,,,,,,,,,,,,,,,,,,,,,,,,,,,,,,,,,,,,,,293.5275158000002,293.5438308,294.07714550000014,294.02729840000006,294.0565551000002,294.07714550000014,294.07714550000014,294.07714550000014,296.29401870000015,Scenes\131b.jpg,post,s,2.201989700000013,None,,,,,,,,00023,001,2025-11-14_16h06.48.021,MST_test,2024.2.2,60.011546221428375,2025-11-14 16h06.55.054639 +0530,
89,0,89,n,3.9112926000002517,None,89,0,89,0,296.3104371000002,,,,,,,,,,,,,,,,,,,,,,,,,,,,,,,,,,,,,,,,,,,,,,,,,,296.2940950999998,296.3104371000002,296.8437240999999,296.7940842999999,296.82766100000003,296.8437240999999,296.8437240999999,296.8437240999999,300.76085350000017,Scenes\137b.jpg,mid,n,3.9112926000002517,None,,,,,,,,00023,001,2025-11-14_16h06.48.021,MST_test,2024.2.2,60.011546221428375,2025-11-14 16h06.55.054639 +0530,
90,0,90,o,1.4727721999997812,None,90,0,90,0,300.7770539999999,,,,,,,,,,,,,,,,,,,,,,,,,,,,,,,,,,,,,,,,,,,,,,,,,,300.76095150000015,300.7770539999999,301.29365600000006,301.26058320000016,301.2802134000001,301.29365600000006,301.29365600000006,301.29365600000006,302.7772311000001,Foils\scenes1.jpg,none,o,1.4727721999997812,None,,,,,,,,00023,001,2025-11-14_16h06.48.021,MST_test,2024.2.2,60.011546221428375,2025-11-14 16h06.55.054639 +0530,
91,0,91,s,1.0218356999998832,None,91,0,91,0,302.7936264000002,,,,,,,,,,,,,,,,,,,,,,,,,,,,,,,,,,,,,,,,,,,,,,,,,,302.77730570000017,302.7936264000002,303.32691230000023,303.2770742,303.3073373999998,303.32691230000023,303.32691230000023,303.32691230000023,304.36050279999995,Scenes\121b.jpg,pre,s,1.0218356999998832,None,,,,,,,,00023,001,2025-11-14_16h06.48.021,MST_test,2024.2.2,60.011546221428375,2025-11-14 16h06.55.054639 +0530,
92,0,92,n,1.4574213999999301,None,92,0,92,0,304.3769278000002,,,,,,,,,,,,,,,,,,,,,,,,,,,,,,,,,,,,,,,,,,,,,,,,,,304.3605791000002,304.3769278000002,304.89354979999985,304.86040030000026,304.88329720000024,304.89354979999985,304.89354979999985,304.89354979999985,306.36057370000003,Foils\scenes20.jpg,none,n,1.4574213999999301,None,,,,,,,,00023,001,2025-11-14_16h06.48.021,MST_test,2024.2.2,60.011546221428375,2025-11-14 16h06.55.054639 +0530,
93,0,93,o,1.2652259999999842,None,93,0,93,0,306.3768834,,,,,,,,,,,,,,,,,,,,,,,,,,,,,,,,,,,,,,,,,,,,,,,,,,306.3606621000001,306.3768834,306.8770191000001,306.8605034999998,306.87011529999995,306.8770191000001,306.8770191000001,306.8770191000001,308.1438206999999,Objects\115a.jpg,post,o,1.2652259999999842,None,,,,,,,,00023,001,2025-11-14_16h06.48.021,MST_test,2024.2.2,60.011546221428375,2025-11-14 16h06.55.054639 +0530,
94,0,94,n,1.0162786999999298,None,94,0,94,0,308.1601816,,,,,,,,,,,,,,,,,,,,,,,,,,,,,,,,,,,,,,,,,,,,,,,,,,308.1439066999999,308.1601816,308.67679410000005,308.6436682000001,308.6708544999999,308.67679410000005,308.67679410000005,308.67679410000005,309.6938152,Foils\097a.jpg,none,n,1.0162786999999298,None,,,,,,,,00023,001,2025-11-14_16h06.48.021,MST_test,2024.2.2,60.011546221428375,2025-11-14 16h06.55.054639 +0530,
95,0,95,s,1.2717839000001732,None,95,0,95,0,309.71014579999996,,,,,,,,,,,,,,,,,,,,,,,,,,,,,,,,,,,,,,,,,,,,,,,,,,309.69389460000025,309.71014579999996,310.2268019999999,310.1936250000001,310.21756370000026,310.2268019999999,310.2268019999999,310.2268019999999,311.5104119,Objects\054b.jpg,post,s,1.2717839000001732,None,,,,,,,,00023,001,2025-11-14_16h06.48.021,MST_test,2024.2.2,60.011546221428375,2025-11-14 16h06.55.054639 +0530,
96,0,96,s,0.9551570999997239,None,96,0,96,0,311.52673500000014,,,,,,,,,,,,,,,,,,,,,,,,,,,,,,,,,,,,,,,,,,,,,,,,,,311.5104994999999,311.52673500000014,312.0434201999999,312.0103646,312.03725199999985,312.0434201999999,312.0434201999999,312.0434201999999,313.0105117999999,Objects\134b.jpg,post,s,0.9551570999997239,None,,,,,,,,00023,001,2025-11-14_16h06.48.021,MST_test,2024.2.2,60.011546221428375,2025-11-14 16h06.55.054639 +0530,
97,0,97,n,0.98220050000009,None,97,0,97,0,313.02669790000004,,,,,,,,,,,,,,,,,,,,,,,,,,,,,,,,,,,,,,,,,,,,,,,,,,313.0105863000001,313.02669790000004,313.52669690000016,313.5102482,313.5207705999999,313.52669690000016,313.52669690000016,313.52669690000016,314.51034570000024,Objects\178a.jpg,post,n,0.98220050000009,None,,,,,,,,00023,001,2025-11-14_16h06.48.021,MST_test,2024.2.2,60.011546221428375,2025-11-14 16h06.55.054639 +0530,
98,0,98,s,0.8536579999999958,None,98,0,98,0,314.52667399999996,,,,,,,,,,,,,,,,,,,,,,,,,,,,,,,,,,,,,,,,,,,,,,,,,,314.51042970000003,314.52667399999996,315.043328,315.01018750000026,315.0395758000002,315.043328,315.043328,315.043328,315.9103370999999,Objects\022b.jpg,mid,s,0.8536579999999958,None,,,,,,,,00023,001,2025-11-14_16h06.48.021,MST_test,2024.2.2,60.011546221428375,2025-11-14 16h06.55.054639 +0530,
99,0,99,o,1.4101725000000442,None,99,0,99,0,315.9266534000001,,,,,,,,,,,,,,,,,,,,,,,,,,,,,,,,,,,,,,,,,,,,,,,,,,315.9104155000002,315.9266534000001,316.4266341,316.41036510000026,316.4209420999998,316.4266341,316.4266341,316.4266341,317.8437064000002,Objects\144a.jpg,post,o,1.4101725000000442,None,,,,,,,,00023,001,2025-11-14_16h06.48.021,MST_test,2024.2.2,60.011546221428375,2025-11-14 16h06.55.054639 +0530,
100,0,100,n,3.1840798999996878,None,100,0,100,0,317.8599805000001,,,,,,,,,,,,,,,,,,,,,,,,,,,,,,,,,,,,,,,,,,,,,,,,,,317.84378949999996,317.8599805000001,318.3769278000002,318.3434448999999,318.3699444000001,318.3769278000002,318.3769278000002,318.3769278000002,321.57693940000013,Foils\scenes7.jpg,none,n,3.1840798999996878,None,,,,,,,,00023,001,2025-11-14_16h06.48.021,MST_test,2024.2.2,60.011546221428375,2025-11-14 16h06.55.054639 +0530,
101,0,101,n,3.628063800000291,None,101,0,101,0,321.5932352000002,,,,,,,,,,,,,,,,,,,,,,,,,,,,,,,,,,,,,,,,,,,,,,,,,,321.5770313999999,321.5932352000002,322.17679239999984,322.07669599999986,322.15032339999993,322.17679239999984,322.17679239999984,322.17679239999984,325.8100886999998,Foils\scenes15.jpg,none,n,3.628063800000291,None,,,,,,,,00023,001,2025-11-14_16h06.48.021,MST_test,2024.2.2,60.011546221428375,2025-11-14 16h06.55.054639 +0530,
102,0,102,s,1.7306704000002355,None,102,0,102,0,325.82647980000024,,,,,,,,,,,,,,,,,,,,,,,,,,,,,,,,,,,,,,,,,,,,,,,,,,325.8101804999999,325.82647980000024,326.36009750000017,326.31008769999994,326.3478652000001,326.36009750000017,326.36009750000017,326.36009750000017,328.0934786999999,Scenes\141b.jpg,mid,s,1.7306704000002355,None,,,,,,,,00023,001,2025-11-14_16h06.48.021,MST_test,2024.2.2,60.011546221428375,2025-11-14 16h06.55.054639 +0530,
103,0,103,s,1.1727639000000636,None,103,0,103,0,328.10975740000026,,,,,,,,,,,,,,,,,,,,,,,,,,,,,,,,,,,,,,,,,,,,,,,,,,328.0935581000001,328.10975740000026,328.62640910000005,328.59331640000005,328.6110949000001,328.62640910000005,328.62640910000005,328.62640910000005,329.8100244999998,Scenes\153a.jpg,post,s,1.1727639000000636,None,,,,,,,,00023,001,2025-11-14_16h06.48.021,MST_test,2024.2.2,60.011546221428375,2025-11-14 16h06.55.054639 +0530,
104,0,104,n,0.9129050000001371,None,104,0,104,0,329.82646950000003,,,,,,,,,,,,,,,,,,,,,,,,,,,,,,,,,,,,,,,,,,,,,,,,,,329.8101081000002,329.82646950000003,330.4599433000001,330.3100434999999,330.4349232000002,330.4599433000001,330.4599433000001,330.4599433000001,331.3766392,Foils\scenes25.jpg,none,n,0.9129050000001371,None,,,,,,,,00023,001,2025-11-14_16h06.48.021,MST_test,2024.2.2,60.011546221428375,2025-11-14 16h06.55.054639 +0530,
105,0,105,n,0.8969348999999056,None,105,0,105,0,331.3930263999998,,,,,,,,,,,,,,,,,,,,,,,,,,,,,,,,,,,,,,,,,,,,,,,,,,331.37671479999995,331.3930263999998,331.90988519999996,331.87656219999985,331.9024397999999,331.90988519999996,331.90988519999996,331.90988519999996,332.81007410000007,Foils\049a.jpg,none,n,0.8969348999999056,None,,,,,,,,00023,001,2025-11-14_16h06.48.021,MST_test,2024.2.2,60.011546221428375,2025-11-14 16h06.55.054639 +0530,
106,0,106,s,0.9193941999997151,None,106,0,106,0,332.8263217000001,,,,,,,,,,,,,,,,,,,,,,,,,,,,,,,,,,,,,,,,,,,,,,,,,,332.8101506999999,332.8263217000001,333.34297949999996,333.3098044999999,333.3249376000001,333.34297949999996,333.34297949999996,333.34297949999996,334.27669390000005,Objects\151a.jpg,post,s,0.9193941999997151,None,,,,,,,,00023,001,2025-11-14_16h06.48.021,MST_test,2024.2.2,60.011546221428375,2025-11-14 16h06.55.054639 +0530,
107,0,107,o,1.9795109000001503,None,107,0,107,0,334.2929657000002,,,,,,,,,,,,,,,,,,,,,,,,,,,,,,,,,,,,,,,,,,,,,,,,,,334.27677430000017,334.2929657000002,334.7929498000001,334.77644829999986,334.7865528,334.7929498000001,334.7929498000001,334.7929498000001,336.77664549999986,Objects\093a.jpg,pre,o,1.9795109000001503,None,,,,,,,,00023,001,2025-11-14_16h06.48.021,MST_test,2024.2.2,60.011546221428375,2025-11-14 16h06.55.054639 +0530,
108,0,108,o,1.0899185000002944,None,108,0,108,0,336.7929064000002,,,,,,,,,,,,,,,,,,,,,,,,,,,,,,,,,,,,,,,,,,,,,,,,,,336.7767273000002,336.7929064000002,337.32650050000007,337.27638200000024,337.3127204,337.32650050000007,337.32650050000007,337.32650050000007,338.4267234000001,Scenes\034b.jpg,mid,o,1.0899185000002944,None,,,,,,,,00023,001,2025-11-14_16h06.48.021,MST_test,2024.2.2,60.011546221428375,2025-11-14 16h06.55.054639 +0530,
109,0,109,s,0.7914092000000892,None,109,0,109,0,338.4428666000001,,,,,,,,,,,,,,,,,,,,,,,,,,,,,,,,,,,,,,,,,,,,,,,,,,338.4268092,338.4428666000001,338.9594921999999,338.9263552,338.9483496999999,338.9594921999999,338.9594921999999,338.9594921999999,339.7599286000002,Objects\110b.jpg,pre,s,0.7914092000000892,None,,,,,,,,00023,001,2025-11-14_16h06.48.021,MST_test,2024.2.2,60.011546221428375,2025-11-14 16h06.55.054639 +0530,
110,0,110,s,1.214271600000302,None,110,0,110,0,339.77614470000003,,,,,,,,,,,,,,,,,,,,,,,,,,,,,,,,,,,,,,,,,,,,,,,,,,339.7600089,339.77614470000003,340.2927004999999,340.25971330000016,340.2890768999998,340.2927004999999,340.2927004999999,340.2927004999999,341.5098230000001,Objects\068b.jpg,mid,s,1.214271600000302,None,,,,,,,,00023,001,2025-11-14_16h06.48.021,MST_test,2024.2.2,60.011546221428375,2025-11-14 16h06.55.054639 +0530,
111,0,111,o,1.1074830000002294,None,111,0,111,0,341.5261395,,,,,,,,,,,,,,,,,,,,,,,,,,,,,,,,,,,,,,,,,,,,,,,,,,341.50990019999995,341.5261395,342.04279329999986,342.0096509000002,342.0250029000001,342.04279329999986,342.04279329999986,342.04279329999986,343.15973370000006,Objects\042a.jpg,pre,o,1.1074830000002294,None,,,,,,,,00023,001,2025-11-14_16h06.48.021,MST_test,2024.2.2,60.011546221428375,2025-11-14 16h06.55.054639 +0530,
112,0,112,n,1.0555816999999479,None,112,0,112,0,343.17606219999993,,,,,,,,,,,,,,,,,,,,,,,,,,,,,,,,,,,,,,,,,,,,,,,,,,343.1598056,343.17606219999993,343.6927268000002,343.65959450000014,343.6874307999999,343.6927268000002,343.6927268000002,343.6927268000002,344.75977639999996,Objects\160b.jpg,post,n,1.0555816999999479,None,,,,,,,,00023,001,2025-11-14_16h06.48.021,MST_test,2024.2.2,60.011546221428375,2025-11-14 16h06.55.054639 +0530,
113,0,113,s,1.4313376999998582,None,113,0,113,0,344.7760401000003,,,,,,,,,,,,,,,,,,,,,,,,,,,,,,,,,,,,,,,,,,,,,,,,,,344.75986369999987,344.7760401000003,345.3093529,345.25955550000003,345.2949255000001,345.3093529,345.3093529,345.3093529,346.7430359000002,Objects\063b.jpg,pre,s,1.4313376999998582,None,,,,,,,,00023,001,2025-11-14_16h06.48.021,MST_test,2024.2.2,60.011546221428375,2025-11-14 16h06.55.054639 +0530,
114,0,114,s,0.9010840000000826,None,114,0,114,0,346.7593869,,,,,,,,,,,,,,,,,,,,,,,,,,,,,,,,,,,,,,,,,,,,,,,,,,346.7431124000002,346.7593869,347.25930059999996,347.24284760000023,347.2526691999999,347.25930059999996,347.25930059999996,347.25930059999996,348.1762397,Objects\113a.jpg,pre,s,0.9010840000000826,None,,,,,,,,00023,001,2025-11-14_16h06.48.021,MST_test,2024.2.2,60.011546221428375,2025-11-14 16h06.55.054639 +0530,
115,0,115,o,3.8862708999999995,None,115,0,115,0,348.19266660000017,,,,,,,,,,,,,,,,,,,,,,,,,,,,,,,,,,,,,,,,,,,,,,,,,,348.1763134999999,348.19266660000017,348.70958670000005,348.6761260999999,348.69890420000024,348.70958670000005,348.70958670000005,348.70958670000005,352.60951390000014,Scenes\155a.jpg,mid,o,3.8862708999999995,None,,,,,,,,00023,001,2025-11-14_16h06.48.021,MST_test,2024.2.2,60.011546221428375,2025-11-14 16h06.55.054639 +0530,
116,0,116,o,2.0274167000002308,None,116,0,116,0,352.62590320000004,,,,,,,,,,,,,,,,,,,,,,,,,,,,,,,,,,,,,,,,,,,,,,,,,,352.60959400000024,352.62590320000004,353.1592143999999,353.10942309999996,353.1460794000002,353.1592143999999,353.1592143999999,353.1592143999999,355.1927518,Scenes\093b.jpg,pre,o,2.0274167000002308,None,,,,,,,,00023,001,2025-11-14_16h06.48.021,MST_test,2024.2.2,60.011546221428375,2025-11-14 16h06.55.054639 +0530,
117,0,117,n,1.9179923000001509,None,117,0,117,0,355.20919549999985,,,,,,,,,,,,,,,,,,,,,,,,,,,,,,,,,,,,,,,,,,,,,,,,,,355.19283169999994,355.20919549999985,355.7422293000002,355.69261200000005,355.73825950000014,355.7422293000002,355.7422293000002,355.7422293000002,357.67605500000013,Scenes\088b.jpg,mid,n,1.9179923000001509,None,,,,,,,,00023,001,2025-11-14_16h06.48.021,MST_test,2024.2.2,60.011546221428375,2025-11-14 16h06.55.054639 +0530,
118,0,118,s,1.3697394000000713,None,118,0,118,0,357.69242229999986,,,,,,,,,,,,,,,,,,,,,,,,,,,,,,,,,,,,,,,,,,,,,,,,,,357.6761291,357.69242229999986,358.1927383999998,358.1759490000002,358.18615669999986,358.1927383999998,358.1927383999998,358.1927383999998,359.5761060000002,Objects\091a.jpg,mid,s,1.3697394000000713,None,,,,,,,,00023,001,2025-11-14_16h06.48.021,MST_test,2024.2.2,60.011546221428375,2025-11-14 16h06.55.054639 +0530,
119,0,119,s,1.05903969999963,None,119,0,119,0,359.5924207999999,,,,,,,,,,,,,,,,,,,,,,,,,,,,,,,,,,,,,,,,,,,,,,,,,,359.57618190000017,359.5924207999999,360.10927019999986,360.07588420000025,360.09320920000005,360.10927019999986,360.10927019999986,360.10927019999986,361.17603350000013,Scenes\087a.jpg,mid,s,1.05903969999963,None,,,,,,,,00023,001,2025-11-14_16h06.48.021,MST_test,2024.2.2,60.011546221428375,2025-11-14 16h06.55.054639 +0530,
120,0,120,s,1.0477070000001731,None,120,0,120,0,361.1923743,,,,,,,,,,,,,,,,,,,,,,,,,,,,,,,,,,,,,,,,,,,,,,,,,,361.1761140000001,361.1923743,361.70926940000004,361.67587030000027,361.6961285,361.70926940000004,361.70926940000004,361.70926940000004,362.75933499999996,Scenes\041a.jpg,post,s,1.0477070000001731,None,,,,,,,,00023,001,2025-11-14_16h06.48.021,MST_test,2024.2.2,60.011546221428375,2025-11-14 16h06.55.054639 +0530,
121,0,121,o,1.13322479999988,None,121,0,121,0,362.7756889,,,,,,,,,,,,,,,,,,,,,,,,,,,,,,,,,,,,,,,,,,,,,,,,,,362.75941560000024,362.7756889,363.2758756999999,363.2592926,363.2692671000002,363.2758756999999,363.2758756999999,363.2758756999999,364.40955180000014,Objects\166a.jpg,mid,o,1.13322479999988,None,,,,,,,,00023,001,2025-11-14_16h06.48.021,MST_test,2024.2.2,60.011546221428375,2025-11-14 16h06.55.054639 +0530,
122,0,122,o,1.162205599999652,None,122,0,122,0,364.4256456999999,,,,,,,,,,,,,,,,,,,,,,,,,,,,,,,,,,,,,,,,,,,,,,,,,,364.40964050000025,364.4256456999999,364.942272,364.9091307000001,364.93182360000014,364.942272,364.942272,364.942272,366.1091990000002,Scenes\084a.jpg,pre,o,1.162205599999652,None,,,,,,,,00023,001,2025-11-14_16h06.48.021,MST_test,2024.2.2,60.011546221428375,2025-11-14 16h06.55.054639 +0530,
123,0,123,n,1.2863131999997677,None,123,0,123,0,366.1256114999999,,,,,,,,,,,,,,,,,,,,,,,,,,,,,,,,,,,,,,,,,,,,,,,,,,366.1092781,366.1256114999999,366.64222829999994,366.60906180000006,366.6295502999999,366.64222829999994,366.64222829999994,366.64222829999994,367.94256180000025,Foils\017a.jpg,none,n,1.2863131999997677,None,,,,,,,,00023,001,2025-11-14_16h06.48.021,MST_test,2024.2.2,60.011546221428375,2025-11-14 16h06.55.054639 +0530,
124,0,124,o,1.4642721999998685,None,124,0,124,0,367.95890239999994,,,,,,,,,,,,,,,,,,,,,,,,,,,,,,,,,,,,,,,,,,,,,,,,,,367.94263320000005,367.95890239999994,368.4588718000002,368.44238199999995,368.4517922000002,368.4588718000002,368.4588718000002,368.4588718000002,369.9259333000002,Objects\191a.jpg,pre,o,1.4642721999998685,None,,,,,,,,00023,001,2025-11-14_16h06.48.021,MST_test,2024.2.2,60.011546221428375,2025-11-14 16h06.55.054639 +0530,
125,0,125,n,1.1019787000000179,None,125,0,125,0,369.94220569999993,,,,,,,,,,,,,,,,,,,,,,,,,,,,,,,,,,,,,,,,,,,,,,,,,,369.92600449999986,369.94220569999993,370.4588415999999,370.42568830000005,370.4453467000001,370.4588415999999,370.4588415999999,370.4588415999999,371.5758179000002,Foils\090a.jpg,none,n,1.1019787000000179,None,,,,,,,,00023,001,2025-11-14_16h06.48.021,MST_test,2024.2.2,60.011546221428375,2025-11-14 16h06.55.054639 +0530,
126,0,126,n,1.9410631999999168,None,126,0,126,0,371.59216489999994,,,,,,,,,,,,,,,,,,,,,,,,,,,,,,,,,,,,,,,,,,,,,,,,,,371.57589459999986,371.59216489999994,372.12550080000005,372.0756348000002,372.1110755000002,372.12550080000005,372.12550080000005,372.12550080000005,374.07579910000027,Scenes\028b.jpg,post,n,1.9410631999999168,None,,,,,,,,00023,001,2025-11-14_16h06.48.021,MST_test,2024.2.2,60.011546221428375,2025-11-14 16h06.55.054639 +0530,
127,0,127,o,1.1537951999998768,None,127,0,127,0,374.0921052000001,,,,,,,,,,,,,,,,,,,,,,,,,,,,,,,,,,,,,,,,,,,,,,,,,,374.0758800000001,374.0921052000001,374.6087497000001,374.5757160999999,374.6015070000001,374.6087497000001,374.6087497000001,374.6087497000001,375.77568140000017,Objects\181b.jpg,pre,o,1.1537951999998768,None,,,,,,,,00023,001,2025-11-14_16h06.48.021,MST_test,2024.2.2,60.011546221428375,2025-11-14 16h06.55.054639 +0530,
128,0,128,s,0.9991729000003033,None,128,0,128,0,375.7920692,,,,,,,,,,,,,,,,,,,,,,,,,,,,,,,,,,,,,,,,,,,,,,,,,,375.7757589999999,375.7920692,376.3253615000001,376.27565419999996,376.30918640000004,376.3253615000001,376.3253615000001,376.3253615000001,377.32588169999985,Scenes\007b.jpg,mid,s,0.9991729000003033,None,,,,,,,,00023,001,2025-11-14_16h06.48.021,MST_test,2024.2.2,60.011546221428375,2025-11-14 16h06.55.054639 +0530,
129,0,129,o,1.0677092999999331,None,129,0,129,0,377.3420714000001,,,,,,,,,,,,,,,,,,,,,,,,,,,,,,,,,,,,,,,,,,,,,,,,,,377.32596309999985,377.3420714000001,377.8586708999999,377.82550860000015,377.8421525000001,377.8586708999999,377.8586708999999,377.8586708999999,378.9423859000001,Objects\163a.jpg,mid,o,1.0677092999999331,None,,,,,,,,00023,001,2025-11-14_16h06.48.021,MST_test,2024.2.2,60.011546221428375,2025-11-14 16h06.55.054639 +0530,
130,0,130,o,1.2733159999997952,None,130,0,130,0,378.9586686,,,,,,,,,,,,,,,,,,,,,,,,,,,,,,,,,,,,,,,,,,,,,,,,,,378.9424698999999,378.9586686,379.47529150000014,379.44227479999995,379.4657347,379.47529150000014,379.47529150000014,379.47529150000014,380.75897820000023,Objects\028b.jpg,mid,o,1.2733159999997952,None,,,,,,,,00023,001,2025-11-14_16h06.48.021,MST_test,2024.2.2,60.011546221428375,2025-11-14 16h06.55.054639 +0530,
131,0,131,s,0.8044595999999729,None,131,0,131,0,380.7753018000001,,,,,,,,,,,,,,,,,,,,,,,,,,,,,,,,,,,,,,,,,,,,,,,,,,380.75906439999994,380.7753018000001,381.29192620000026,381.25877330000026,381.2795542000001,381.29192620000026,381.29192620000026,381.29192620000026,382.1090577000002,Foils\058a.jpg,none,s,0.8044595999999729,None,,,,,,,,00023,001,2025-11-14_16h06.48.021,MST_test,2024.2.2,60.011546221428375,2025-11-14 16h06.55.054639 +0530,
132,0,132,n,1.6558767999999873,None,132,0,132,0,382.12526760000014,,,,,,,,,,,,,,,,,,,,,,,,,,,,,,,,,,,,,,,,,,,,,,,,,,382.10913860000005,382.12526760000014,382.65883450000024,382.60875520000013,382.64314119999995,382.65883450000024,382.65883450000024,382.65883450000024,384.3255194999999,Scenes\049b.jpg,post,n,1.6558767999999873,None,,,,,,,,00023,001,2025-11-14_16h06.48.021,MST_test,2024.2.2,60.011546221428375,2025-11-14 16h06.55.054639 +0530,
133,0,133,n,0.6846620000001167,None,133,0,133,0,384.3418497,,,,,,,,,,,,,,,,,,,,,,,,,,,,,,,,,,,,,,,,,,,,,,,,,,384.3256060000001,384.3418497,384.8585802,384.8253707000001,384.8548748999999,384.8585802,384.8585802,384.8585802,385.5588037,Foils\074a.jpg,none,n,0.6846620000001167,None,,,,,,,,00023,001,2025-11-14_16h06.48.021,MST_test,2024.2.2,60.011546221428375,2025-11-14 16h06.55.054639 +0530,
134,0,134,n,0.8313300000004347,None,134,0,134,0,385.57519920000027,,,,,,,,,,,,,,,,,,,,,,,,,,,,,,,,,,,,,,,,,,,,,,,,,,385.5588740999999,385.57519920000027,386.09181569999987,386.05872209999984,386.0837945999999,386.09181569999987,386.09181569999987,386.09181569999987,386.9255046999999,Objects\007b.jpg,post,n,0.8313300000004347,None,,,,,,,,00023,001,2025-11-14_16h06.48.021,MST_test,2024.2.2,60.011546221428375,2025-11-14 16h06.55.054639 +0530,
135,0,135,s,1.0800890999998956,None,135,0,135,0,386.94182750000004,,,,,,,,,,,,,,,,,,,,,,,,,,,,,,,,,,,,,,,,,,,,,,,,,,386.9255820000001,386.94182750000004,387.44178590000024,387.4253878000002,387.43507550000027,387.44178590000024,387.44178590000024,387.44178590000024,388.5255992,Objects\087a.jpg,mid,s,1.0800890999998956,None,,,,,,,,00023,001,2025-11-14_16h06.48.021,MST_test,2024.2.2,60.011546221428375,2025-11-14 16h06.55.054639 +0530,
136,0,136,o,0.9780547000000297,None,136,0,136,0,388.54182490000017,,,,,,,,,,,,,,,,,,,,,,,,,,,,,,,,,,,,,,,,,,,,,,,,,,388.52567729999987,388.54182490000017,389.0584357,389.02537080000025,389.04160260000003,389.0584357,389.0584357,389.0584357,390.04201530000023,Objects\135a.jpg,mid,o,0.9780547000000297,None,,,,,,,,00023,001,2025-11-14_16h06.48.021,MST_test,2024.2.2,60.011546221428375,2025-11-14 16h06.55.054639 +0530,
137,0,137,n,0.8312810000002173,None,137,0,137,0,390.0584722000001,,,,,,,,,,,,,,,,,,,,,,,,,,,,,,,,,,,,,,,,,,,,,,,,,,390.0420938,390.0584722000001,390.5917157000001,390.54186719999984,390.5724379999999,390.5917157000001,390.5917157000001,390.5917157000001,391.42552610000007,Foils\009a.jpg,none,n,0.8312810000002173,None,,,,,,,,00023,001,2025-11-14_16h06.48.021,MST_test,2024.2.2,60.011546221428375,2025-11-14 16h06.55.054639 +0530,
138,0,138,n,1.4198954000003141,None,138,0,138,0,391.4417034999999,,,,,,,,,,,,,,,,,,,,,,,,,,,,,,,,,,,,,,,,,,,,,,,,,,391.4256014,391.4417034999999,391.97506929999986,391.9252376000002,391.95762850000006,391.97506929999986,391.97506929999986,391.97506929999986,393.4087339,Foils\042a.jpg,none,n,1.4198954000003141,None,,,,,,,,00023,001,2025-11-14_16h06.48.021,MST_test,2024.2.2,60.011546221428375,2025-11-14 16h06.55.054639 +0530,
139,0,139,s,1.3244183000001613,None,139,0,139,0,393.42502260000015,,,,,,,,,,,,,,,,,,,,,,,,,,,,,,,,,,,,,,,,,,,,,,,,,,393.4088159999999,393.42502260000015,393.9419740000001,393.90850079999996,393.9302960000002,393.9419740000001,393.9419740000001,393.9419740000001,395.2752283000002,Scenes\082a.jpg,post,s,1.3244183000001613,None,,,,,,,,00023,001,2025-11-14_16h06.48.021,MST_test,2024.2.2,60.011546221428375,2025-11-14 16h06.55.054639 +0530,
140,0,140,s,1.1824563999998645,None,140,0,140,0,395.29165709999984,,,,,,,,,,,,,,,,,,,,,,,,,,,,,,,,,,,,,,,,,,,,,,,,,,395.2753054000002,395.29165709999984,395.80830530000026,395.7751472000002,395.79297699999984,395.80830530000026,395.80830530000026,395.80830530000026,396.9920786,Objects\122b.jpg,pre,s,1.1824563999998645,None,,,,,,,,00023,001,2025-11-14_16h06.48.021,MST_test,2024.2.2,60.011546221428375,2025-11-14 16h06.55.054639 +0530,
141,0,141,n,1.0110110999999051,None,141,0,141,0,397.00830980000023,,,,,,,,,,,,,,,,,,,,,,,,,,,,,,,,,,,,,,,,,,,,,,,,,,396.99216760000013,397.00830980000023,397.5416355,397.4917541000002,397.5231374000002,397.5416355,397.5416355,397.5416355,398.55869629999984,Foils\106a.jpg,none,n,1.0110110999999051,None,,,,,,,,00023,001,2025-11-14_16h06.48.021,MST_test,2024.2.2,60.011546221428375,2025-11-14 16h06.55.054639 +0530,
142,0,142,n,1.090227600000162,None,142,0,142,0,398.57492119999984,,,,,,,,,,,,,,,,,,,,,,,,,,,,,,,,,,,,,,,,,,,,,,,,,,398.55878469999993,398.57492119999984,399.1086069999999,399.05855750000023,399.08863640000004,399.1086069999999,399.1086069999999,399.1086069999999,400.2085290000002,Scenes\157b.jpg,post,n,1.090227600000162,None,,,,,,,,00023,001,2025-11-14_16h06.48.021,MST_test,2024.2.2,60.011546221428375,2025-11-14 16h06.55.054639 +0530,
143,0,143,n,0.9495252000001528,None,143,0,143,0,400.2248879000001,,,,,,,,,,,,,,,,,,,,,,,,,,,,,,,,,,,,,,,,,,,,,,,,,,400.20861390000005,400.2248879000001,400.74152579999986,400.70835650000004,400.7343429,400.74152579999986,400.74152579999986,400.74152579999986,401.6918640000001,Objects\066b.jpg,mid,n,0.9495252000001528,None,,,,,,,,00023,001,2025-11-14_16h06.48.021,MST_test,2024.2.2,60.011546221428375,2025-11-14 16h06.55.054639 +0530,
144,0,144,s,0.8119151000000784,None,144,0,144,0,401.70819099999994,,,,,,,,,,,,,,,,,,,,,,,,,,,,,,,,,,,,,,,,,,,,,,,,,,401.6919454000001,401.70819099999994,402.2248425,402.19165869999983,402.20700120000015,402.2248425,402.2248425,402.2248425,403.0418649999999,Objects\129a.jpg,post,s,0.8119151000000784,None,,,,,,,,00023,001,2025-11-14_16h06.48.021,MST_test,2024.2.2,60.011546221428375,2025-11-14 16h06.55.054639 +0530,
145,0,145,o,1.1477084000002833,None,145,0,145,0,403.05815510000025,,,,,,,,,,,,,,,,,,,,,,,,,,,,,,,,,,,,,,,,,,,,,,,,,,403.0419505000002,403.05815510000025,403.5747752,403.5416315,403.5575627999999,403.5747752,403.5747752,403.5747752,404.7251407000001,Objects\006a.jpg,post,o,1.1477084000002833,None,,,,,,,,00023,001,2025-11-14_16h06.48.021,MST_test,2024.2.2,60.011546221428375,2025-11-14 16h06.55.054639 +0530,
146,0,146,s,0.9415383000000475,None,146,0,146,0,404.7414612,,,,,,,,,,,,,,,,,,,,,,,,,,,,,,,,,,,,,,,,,,,,,,,,,,404.7252297000002,404.7414612,405.2414064000002,405.22496509999996,405.2345849999999,405.2414064000002,405.2414064000002,405.2414064000002,406.1916784000002,Objects\036a.jpg,post,s,0.9415383000000475,None,,,,,,,,00023,001,2025-11-14_16h06.48.021,MST_test,2024.2.2,60.011546221428375,2025-11-14 16h06.55.054639 +0530,
147,0,147,n,1.3905478000001494,None,147,0,147,0,406.20809029999987,,,,,,,,,,,,,,,,,,,,,,,,,,,,,,,,,,,,,,,,,,,,,,,,,,406.1917500000002,406.20809029999987,406.70810640000013,406.69155479999995,406.7011663999999,406.70810640000013,406.70810640000013,406.70810640000013,408.10844340000017,Objects\136a.jpg,pre,n,1.3905478000001494,None,,,,,,,,00023,001,2025-11-14_16h06.48.021,MST_test,2024.2.2,60.011546221428375,2025-11-14 16h06.55.054639 +0530,
148,0,148,s,1.0054465999996864,None,148,0,148,0,408.12471660000006,,,,,,,,,,,,,,,,,,,,,,,,,,,,,,,,,,,,,,,,,,,,,,,,,,408.10852869999985,408.12471660000006,408.6415456000002,408.6082170000002,408.6292841000002,408.6415456000002,408.6415456000002,408.6415456000002,409.65831920000005,Scenes\142a.jpg,mid,s,1.0054465999996864,None,,,,,,,,00023,001,2025-11-14_16h06.48.021,MST_test,2024.2.2,60.011546221428375,2025-11-14 16h06.55.054639 +0530,
149,0,149,s,1.12230529999988,None,149,0,149,0,409.6746427999999,,,,,,,,,,,,,,,,,,,,,,,,,,,,,,,,,,,,,,,,,,,,,,,,,,409.65839500000016,409.6746427999999,410.20815359999983,410.1582826000001,410.19153089999986,410.20815359999983,410.20815359999983,410.20815359999983,411.3416943999998,Scenes\188b.jpg,post,s,1.12230529999988,None,,,,,,,,00023,001,2025-11-14_16h06.48.021,MST_test,2024.2.2,60.011546221428375,2025-11-14 16h06.55.054639 +0530,
,,,,,,,,,,,,,,,,,,,,,,,,,,,,,,,,,,,,,,,,,,,,,,,,,,,,,,,,,,,,,,,,,,,,,,,,,,411.3417511,411.3579765000002,411.3579765000002,413.1416440999999,space,1.7723766999997679,None,00023,001,2025-11-14_16h06.48.021,MST_test,2024.2.2,60.011546221428375,2025-11-14 16h06.55.054639 +0530,
