thisN,thisTrialN,thisRepN,key_resp_3.keys,key_resp_3.rt,key_resp_3.duration,trials.thisRepN,trials.thisTrialN,trials.thisN,thisRow.t,notes,intro_page.started,text.started,key_resp.started,intro_page.stopped,key_resp.keys,key_resp.rt,key_resp.duration,instructions.started,text_2.started,key_resp_2.started,instructions.stopped,key_resp_2.keys,key_resp_2.rt,key_resp_2.duration,demo1.started,image_1.started,image_2.started,text_7.started,key_resp_6.started,text_9.started,demo1.stopped,key_resp_6.keys,key_resp_6.rt,key_resp_6.duration,demo2.started,image_5.started,image_6.started,text_11.started,text_12.started,key_resp_8.started,demo2.stopped,key_resp_8.keys,key_resp_8.rt,key_resp_8.duration,demo_conclusion.started,text_13.started,key_resp_9.started,demo_conclusion.stopped,key_resp_9.keys,key_resp_9.rt,key_resp_9.duration,start_test.started,text_6.started,key_resp_5.started,start_test.stopped,key_resp_5.keys,key_resp_5.rt,key_resp_5.duration,ISI.started,text_4.started,text_4.stopped,ISI.stopped,routine_1.started,image.started,text_3.started,key_resp_3.started,routine_1.stopped,image_path,position_of_stimuli,trials.key_resp_3.keys,trials.key_resp_3.rt,trials.key_resp_3.duration,End_page.started,text_5.started,key_resp_4.started,End_page.stopped,key_resp_4.keys,key_resp_4.rt,key_resp_4.duration,participant,session,date,expName,psychopyVersion,frameRate,expStart,
,,,,,,,,,,,0.0016917000000375992,0.003668000000061511,0.003668000000061511,2.183216200000061,space,2.1360692999999173,None,,,,,,,,,,,,,,,,,,,,,,,,,,,,,,,,,,,,,,,,,,,,,,,,,,,,,,,,,,,,,,,00027,001,2025-11-17_15h14.33.025,MST_test,2024.2.0,60.05620059247223,2025-11-17 15h14.43.188423 +0530,
,,,,,,,,,,,,,,,,,,2.183249100000012,2.195624100000032,2.195624100000032,13.540158099999871,space,11.343990100000156,None,,,,,,,,,,,,,,,,,,,,,,,,,,,,,,,,,,,,,,,,,,,,,,,,,,,,,,,,00027,001,2025-11-17_15h14.33.025,MST_test,2024.2.0,60.05620059247223,2025-11-17 15h14.43.188423 +0530,
,,,,,,,,,,,,,,,,,,,,,,,,,13.540184199999885,13.556879900000013,13.556879900000013,13.556879900000013,13.556879900000013,13.556879900000013,20.55713969999988,space,6.998854599999959,None,,,,,,,,,,,,,,,,,,,,,,,,,,,,,,,,,,,,,,,,,,,,,,00027,001,2025-11-17_15h14.33.025,MST_test,2024.2.0,60.05620059247223,2025-11-17 15h14.43.188423 +0530,
,,,,,,,,,,,,,,,,,,,,,,,,,,,,,,,,,,,20.55716929999994,20.57340329999988,20.57340329999988,20.57340329999988,20.57340329999988,20.57340329999988,25.141391299999896,space,4.566108400000076,None,,,,,,,,,,,,,,,,,,,,,,,,,,,,,,,,,,,,00027,001,2025-11-17_15h14.33.025,MST_test,2024.2.0,60.05620059247223,2025-11-17 15h14.43.188423 +0530,
,,,,,,,,,,,,,,,,,,,,,,,,,,,,,,,,,,,,,,,,,,,,,25.141460000000052,25.156494099999918,25.156494099999918,43.842178500000045,space,18.670503800000006,None,,,,,,,,,,,,,,,,,,,,,,,,,,,,,00027,001,2025-11-17_15h14.33.025,MST_test,2024.2.0,60.05620059247223,2025-11-17 15h14.43.188423 +0530,
,,,,,,,,,,,,,,,,,,,,,,,,,,,,,,,,,,,,,,,,,,,,,,,,,,,,43.8422865,43.85655079999992,43.85655079999992,86.1752328,space,42.31498929999998,None,,,,,,,,,,,,,,,,,,,,,,00027,001,2025-11-17_15h14.33.025,MST_test,2024.2.0,60.05620059247223,2025-11-17 15h14.43.188423 +0530,
0,0,1,o,2.659541900000022,None,1,0,0,86.18940210000005,,,,,,,,,,,,,,,,,,,,,,,,,,,,,,,,,,,,,,,,,,,,,,,,,,86.18490670000006,86.18940210000005,86.7038356999999,86.67400150000003,86.70103549999999,86.7038356999999,86.7038356999999,86.7038356999999,89.37516649999998,Scenes\164a.jpg,pre,o,2.659541900000022,None,,,,,,,,00027,001,2025-11-17_15h14.33.025,MST_test,2024.2.0,60.05620059247223,2025-11-17 15h14.43.188423 +0530,
1,0,2,o,1.4167964999999185,None,2,0,1,89.38973770000007,,,,,,,,,,,,,,,,,,,,,,,,,,,,,,,,,,,,,,,,,,,,,,,,,,89.37558259999992,89.38973770000007,89.89049580000005,89.87426359999995,89.88690279999992,89.89049580000005,89.89049580000005,89.89049580000005,91.30932559999997,Scenes\124a.jpg,pre,o,1.4167964999999185,None,,,,,,,,00027,001,2025-11-17_15h14.33.025,MST_test,2024.2.0,60.05620059247223,2025-11-17 15h14.43.188423 +0530,
2,0,3,n,2.1941381999999976,None,3,0,2,91.32295569999997,,,,,,,,,,,,,,,,,,,,,,,,,,,,,,,,,,,,,,,,,,,,,,,,,,91.30968480000001,91.32295569999997,91.83367879999992,91.80729509999992,91.83116369999993,91.83367879999992,91.83367879999992,91.83367879999992,94.04255130000001,Foils\081a.jpg,none,n,2.1941381999999976,None,,,,,,,,00027,001,2025-11-17_15h14.33.025,MST_test,2024.2.0,60.05620059247223,2025-11-17 15h14.43.188423 +0530,
3,0,4,n,3.513349099999914,None,4,0,3,94.05637920000004,,,,,,,,,,,,,,,,,,,,,,,,,,,,,,,,,,,,,,,,,,,,,,,,,,94.04293289999987,94.05637920000004,94.56187030000001,94.54108279999991,94.5588244999999,94.56187030000001,94.56187030000001,94.56187030000001,98.09114739999995,Scenes\075b.jpg,pre,n,3.513349099999914,None,,,,,,,,00027,001,2025-11-17_15h14.33.025,MST_test,2024.2.0,60.05620059247223,2025-11-17 15h14.43.188423 +0530,
4,0,5,o,7.904803000000129,None,5,0,4,98.1063592999999,,,,,,,,,,,,,,,,,,,,,,,,,,,,,,,,,,,,,,,,,,,,,,,,,,98.0913943999999,98.1063592999999,98.61056819999999,98.59103979999986,98.60694990000002,98.61056819999999,98.61056819999999,98.61056819999999,106.5249816999999,Scenes\065a.jpg,mid,o,7.904803000000129,None,,,,,,,,00027,001,2025-11-17_15h14.33.025,MST_test,2024.2.0,60.05620059247223,2025-11-17 15h14.43.188423 +0530,
5,0,6,o,3.2186335999999756,None,6,0,5,106.53978699999993,,,,,,,,,,,,,,,,,,,,,,,,,,,,,,,,,,,,,,,,,,,,,,,,,,106.52530260000003,106.53978699999993,107.0404868999999,107.02400620000003,107.03398799999991,107.0404868999999,107.0404868999999,107.0404868999999,110.27444109999988,Scenes\016a.jpg,mid,o,3.2186335999999756,None,,,,,,,,00027,001,2025-11-17_15h14.33.025,MST_test,2024.2.0,60.05620059247223,2025-11-17 15h14.43.188423 +0530,
6,0,7,o,1.6369442000000163,None,7,0,6,110.28965300000004,,,,,,,,,,,,,,,,,,,,,,,,,,,,,,,,,,,,,,,,,,,,,,,,,,110.27466609999988,110.28965300000004,110.79029459999992,110.77418390000003,110.78257069999995,110.79029459999992,110.79029459999992,110.79029459999992,112.44201950000001,Scenes\097a.jpg,pre,o,1.6369442000000163,None,,,,,,,,00027,001,2025-11-17_15h14.33.025,MST_test,2024.2.0,60.05620059247223,2025-11-17 15h14.43.188423 +0530,
7,0,8,s,6.694766300000083,None,8,0,7,112.45634629999995,,,,,,,,,,,,,,,,,,,,,,,,,,,,,,,,,,,,,,,,,,,,,,,,,,112.44234030000007,112.45634629999995,112.95696550000002,112.94102440000006,112.95382849999987,112.95696550000002,112.95696550000002,112.95696550000002,119.65899579999996,Objects\146a.jpg,post,s,6.694766300000083,None,,,,,,,,00027,001,2025-11-17_15h14.33.025,MST_test,2024.2.0,60.05620059247223,2025-11-17 15h14.43.188423 +0530,
8,0,9,s,3.7872486000001118,None,9,0,8,119.67310829999997,,,,,,,,,,,,,,,,,,,,,,,,,,,,,,,,,,,,,,,,,,,,,,,,,,119.65937499999995,119.67310829999997,120.17588580000006,120.15749630000005,120.17355739999994,120.17588580000006,120.17588580000006,120.17588580000006,123.97536680000007,Objects\063b.jpg,pre,s,3.7872486000001118,None,,,,,,,,00027,001,2025-11-17_15h14.33.025,MST_test,2024.2.0,60.05620059247223,2025-11-17 15h14.43.188423 +0530,
9,0,10,n,1.5033019999998487,None,10,0,9,123.98970949999989,,,,,,,,,,,,,,,,,,,,,,,,,,,,,,,,,,,,,,,,,,,,,,,,,,123.97572960000002,123.98970949999989,124.49243490000003,124.47409619999985,124.48975629999995,124.49243490000003,124.49243490000003,124.49243490000003,126.00863909999998,Foils\scenes16.jpg,none,n,1.5033019999998487,None,,,,,,,,00027,001,2025-11-17_15h14.33.025,MST_test,2024.2.0,60.05620059247223,2025-11-17 15h14.43.188423 +0530,
10,0,11,n,1.3477551999999378,None,11,0,10,126.02318429999991,,,,,,,,,,,,,,,,,,,,,,,,,,,,,,,,,,,,,,,,,,,,,,,,,,126.00897740000005,126.02318429999991,126.52739369999995,126.50756639999986,126.5250011999999,126.52739369999995,126.52739369999995,126.52739369999995,127.8914585,Foils\scenes20.jpg,none,n,1.3477551999999378,None,,,,,,,,00027,001,2025-11-17_15h14.33.025,MST_test,2024.2.0,60.05620059247223,2025-11-17 15h14.43.188423 +0530,
11,0,12,o,1.1691709000001538,None,12,0,11,127.90640839999992,,,,,,,,,,,,,,,,,,,,,,,,,,,,,,,,,,,,,,,,,,,,,,,,,,127.89179349999995,127.90640839999992,128.41859079999995,128.3908268,128.41560789999994,128.41859079999995,128.41859079999995,128.41859079999995,129.5917589999999,Scenes\046a.jpg,pre,o,1.1691709000001538,None,,,,,,,,00027,001,2025-11-17_15h14.33.025,MST_test,2024.2.0,60.05620059247223,2025-11-17 15h14.43.188423 +0530,
12,0,13,o,0.9909233000000768,None,13,0,12,129.60641399999986,,,,,,,,,,,,,,,,,,,,,,,,,,,,,,,,,,,,,,,,,,,,,,,,,,129.5921174,129.60641399999986,130.11687009999991,130.09110209999994,130.11359760000005,130.11687009999991,130.11687009999991,130.11687009999991,131.12480529999993,Scenes\110a.jpg,pre,o,0.9909233000000768,None,,,,,,,,00027,001,2025-11-17_15h14.33.025,MST_test,2024.2.0,60.05620059247223,2025-11-17 15h14.43.188423 +0530,
13,0,14,o,1.8710131999998794,None,14,0,13,131.13974910000002,,,,,,,,,,,,,,,,,,,,,,,,,,,,,,,,,,,,,,,,,,,,,,,,,,131.12510299999985,131.13974910000002,131.64415959999997,131.6242064999999,131.64123990000007,131.64415959999997,131.64415959999997,131.64415959999997,133.52547800000002,Objects\071b.jpg,pre,o,1.8710131999998794,None,,,,,,,,00027,001,2025-11-17_15h14.33.025,MST_test,2024.2.0,60.05620059247223,2025-11-17 15h14.43.188423 +0530,
14,0,15,s,1.6884279000000788,None,15,0,14,133.53971769999998,,,,,,,,,,,,,,,,,,,,,,,,,,,,,,,,,,,,,,,,,,,,,,,,,,133.52586739999992,133.53971769999998,134.0437789,134.02392600000007,134.0415243,134.0437789,134.0437789,134.0437789,135.74201440000002,Objects\165b.jpg,post,s,1.6884279000000788,None,,,,,,,,00027,001,2025-11-17_15h14.33.025,MST_test,2024.2.0,60.05620059247223,2025-11-17 15h14.43.188423 +0530,
15,0,16,s,0.8898255999999947,None,16,0,15,135.75657810000007,,,,,,,,,,,,,,,,,,,,,,,,,,,,,,,,,,,,,,,,,,,,,,,,,,135.7424352999999,135.75657810000007,136.2579963999999,136.24107119999985,136.2554588999999,136.2579963999999,136.2579963999999,136.2579963999999,137.15858709999998,Objects\185a.jpg,pre,s,0.8898255999999947,None,,,,,,,,00027,001,2025-11-17_15h14.33.025,MST_test,2024.2.0,60.05620059247223,2025-11-17 15h14.43.188423 +0530,
16,0,17,o,1.0101893000000928,None,17,0,16,137.17306069999995,,,,,,,,,,,,,,,,,,,,,,,,,,,,,,,,,,,,,,,,,,,,,,,,,,137.15900139999985,137.17306069999995,137.67373580000003,137.657696,137.67151179999996,137.67373580000003,137.67373580000003,137.67373580000003,138.6919198999999,Objects\054a.jpg,post,o,1.0101893000000928,None,,,,,,,,00027,001,2025-11-17_15h14.33.025,MST_test,2024.2.0,60.05620059247223,2025-11-17 15h14.43.188423 +0530,
17,0,18,o,0.8045087000000422,None,18,0,17,138.70637820000002,,,,,,,,,,,,,,,,,,,,,,,,,,,,,,,,,,,,,,,,,,,,,,,,,,138.69232450000004,138.70637820000002,139.20669099999986,139.19109550000007,139.19819310000003,139.20669099999986,139.20669099999986,139.20669099999986,140.02529809999987,Objects\169a.jpg,post,o,0.8045087000000422,None,,,,,,,,00027,001,2025-11-17_15h14.33.025,MST_test,2024.2.0,60.05620059247223,2025-11-17 15h14.43.188423 +0530,
18,0,19,s,1.1224968000001354,None,19,0,18,140.03964359999986,,,,,,,,,,,,,,,,,,,,,,,,,,,,,,,,,,,,,,,,,,,,,,,,,,140.0256841999999,140.03964359999986,140.5451498,140.52430529999992,140.5427115,140.5451498,140.5451498,140.5451498,141.67551439999988,Objects\039b.jpg,pre,s,1.1224968000001354,None,,,,,,,,00027,001,2025-11-17_15h14.33.025,MST_test,2024.2.0,60.05620059247223,2025-11-17 15h14.43.188423 +0530,
19,0,20,n,1.0965014999999312,None,20,0,19,141.68996130000005,,,,,,,,,,,,,,,,,,,,,,,,,,,,,,,,,,,,,,,,,,,,,,,,,,141.67585280000003,141.68996130000005,142.1946777999999,142.1744096,142.19223829999987,142.1946777999999,142.1946777999999,142.1946777999999,143.30904659999987,Foils\121a.jpg,none,n,1.0965014999999312,None,,,,,,,,00027,001,2025-11-17_15h14.33.025,MST_test,2024.2.0,60.05620059247223,2025-11-17 15h14.43.188423 +0530,
20,0,21,o,1.3561311000000842,None,21,0,20,143.32309570000007,,,,,,,,,,,,,,,,,,,,,,,,,,,,,,,,,,,,,,,,,,,,,,,,,,143.3094332999999,143.32309570000007,143.82372699999996,143.80745230000002,143.81814940000004,143.82372699999996,143.82372699999996,143.82372699999996,145.1919335,Scenes\014a.jpg,pre,o,1.3561311000000842,None,,,,,,,,00027,001,2025-11-17_15h14.33.025,MST_test,2024.2.0,60.05620059247223,2025-11-17 15h14.43.188423 +0530,
21,0,22,s,1.2779963000000407,None,22,0,21,145.20652900000005,,,,,,,,,,,,,,,,,,,,,,,,,,,,,,,,,,,,,,,,,,,,,,,,,,145.1922614,145.20652900000005,145.7096179,145.69110460000002,145.70668299999988,145.7096179,145.7096179,145.7096179,146.99239160000002,Objects\129b.jpg,mid,s,1.2779963000000407,None,,,,,,,,00027,001,2025-11-17_15h14.33.025,MST_test,2024.2.0,60.05620059247223,2025-11-17 15h14.43.188423 +0530,
22,0,23,s,1.4113125000001219,None,23,0,22,147.0064608,,,,,,,,,,,,,,,,,,,,,,,,,,,,,,,,,,,,,,,,,,,,,,,,,,146.99281939999992,147.0064608,147.5202494,147.49102859999994,147.51721040000007,147.5202494,147.5202494,147.5202494,148.94227639999986,Scenes\032b.jpg,post,s,1.4113125000001219,None,,,,,,,,00027,001,2025-11-17_15h14.33.025,MST_test,2024.2.0,60.05620059247223,2025-11-17 15h14.43.188423 +0530,
23,0,24,o,1.4347100999998474,None,24,0,23,148.9564817999999,,,,,,,,,,,,,,,,,,,,,,,,,,,,,,,,,,,,,,,,,,,,,,,,,,148.9427083999999,148.9564817999999,149.457578,149.44097499999998,149.44735609999998,149.457578,149.457578,149.457578,150.90837729999998,Objects\149a.jpg,mid,o,1.4347100999998474,None,,,,,,,,00027,001,2025-11-17_15h14.33.025,MST_test,2024.2.0,60.05620059247223,2025-11-17 15h14.43.188423 +0530,
24,0,25,o,1.2585443000000396,None,25,0,24,150.92314190000002,,,,,,,,,,,,,,,,,,,,,,,,,,,,,,,,,,,,,,,,,,,,,,,,,,150.9086052,150.92314190000002,151.42524830000002,151.40764579999995,151.42266399999994,151.42524830000002,151.42524830000002,151.42524830000002,152.69231569999988,Objects\100a.jpg,pre,o,1.2585443000000396,None,,,,,,,,00027,001,2025-11-17_15h14.33.025,MST_test,2024.2.0,60.05620059247223,2025-11-17 15h14.43.188423 +0530,
25,0,26,o,0.7721091000000797,None,26,0,25,152.70641,,,,,,,,,,,,,,,,,,,,,,,,,,,,,,,,,,,,,,,,,,,,,,,,,,152.69268039999997,152.70641,153.20679819999987,153.19103649999988,153.19918889999985,153.20679819999987,153.20679819999987,153.20679819999987,153.99228670000002,Objects\125a.jpg,pre,o,0.7721091000000797,None,,,,,,,,00027,001,2025-11-17_15h14.33.025,MST_test,2024.2.0,60.05620059247223,2025-11-17 15h14.43.188423 +0530,
26,0,27,n,1.2865103999999974,None,27,0,26,154.00672310000004,,,,,,,,,,,,,,,,,,,,,,,,,,,,,,,,,,,,,,,,,,,,,,,,,,153.9926883999999,154.00672310000004,154.50905149999994,154.49134449999997,154.50649429999999,154.50905149999994,154.50905149999994,154.50905149999994,155.80908879999993,Foils\033a.jpg,none,n,1.2865103999999974,None,,,,,,,,00027,001,2025-11-17_15h14.33.025,MST_test,2024.2.0,60.05620059247223,2025-11-17 15h14.43.188423 +0530,
27,0,28,n,0.9914691000001312,None,28,0,27,155.82310259999986,,,,,,,,,,,,,,,,,,,,,,,,,,,,,,,,,,,,,,,,,,,,,,,,,,155.80949020000003,155.82310259999986,156.32399340000006,156.3077699999999,156.32152829999995,156.32399340000006,156.32399340000006,156.32399340000006,157.32515059999992,Objects\099a.jpg,mid,n,0.9914691000001312,None,,,,,,,,00027,001,2025-11-17_15h14.33.025,MST_test,2024.2.0,60.05620059247223,2025-11-17 15h14.43.188423 +0530,
28,0,29,s,1.2989439999998922,None,29,0,28,157.34018309999988,,,,,,,,,,,,,,,,,,,,,,,,,,,,,,,,,,,,,,,,,,,,,,,,,,157.32550889999993,157.34018309999988,157.84853810000004,157.82428230000005,157.84545400000002,157.84853810000004,157.84853810000004,157.84853810000004,159.15926119999995,Scenes\155b.jpg,post,s,1.2989439999998922,None,,,,,,,,00027,001,2025-11-17_15h14.33.025,MST_test,2024.2.0,60.05620059247223,2025-11-17 15h14.43.188423 +0530,
29,0,30,s,1.0975305999998,None,30,0,29,159.17314450000003,,,,,,,,,,,,,,,,,,,,,,,,,,,,,,,,,,,,,,,,,,,,,,,,,,159.1596482,159.17314450000003,159.6814649999999,159.65767579999988,159.67845940000007,159.6814649999999,159.6814649999999,159.6814649999999,160.79230919999986,Scenes\140b.jpg,mid,s,1.0975305999998,None,,,,,,,,00027,001,2025-11-17_15h14.33.025,MST_test,2024.2.0,60.05620059247223,2025-11-17 15h14.43.188423 +0530,
30,0,31,s,0.9384927000000971,None,31,0,30,160.8066096,,,,,,,,,,,,,,,,,,,,,,,,,,,,,,,,,,,,,,,,,,,,,,,,,,160.79263029999993,160.8066096,161.31285619999994,161.29104170000005,161.30964719999997,161.31285619999994,161.31285619999994,161.31285619999994,162.2593394999999,Scenes\137a.jpg,mid,s,0.9384927000000971,None,,,,,,,,00027,001,2025-11-17_15h14.33.025,MST_test,2024.2.0,60.05620059247223,2025-11-17 15h14.43.188423 +0530,
31,0,32,s,1.020563300000049,None,32,0,31,162.2730512999999,,,,,,,,,,,,,,,,,,,,,,,,,,,,,,,,,,,,,,,,,,,,,,,,,,162.2597306,162.2730512999999,162.783009,162.75730729999987,162.77987299999995,162.783009,162.783009,162.783009,163.80913420000002,Scenes\152a.jpg,post,s,1.020563300000049,None,,,,,,,,00027,001,2025-11-17_15h14.33.025,MST_test,2024.2.0,60.05620059247223,2025-11-17 15h14.43.188423 +0530,
32,0,33,n,0.771741099999872,None,33,0,32,163.82318579999992,,,,,,,,,,,,,,,,,,,,,,,,,,,,,,,,,,,,,,,,,,,,,,,,,,163.80942019999998,163.82318579999992,164.32731280000007,164.3077217,164.32444869999995,164.32731280000007,164.32731280000007,164.32731280000007,165.10905830000002,Foils\scenes18.jpg,none,n,0.771741099999872,None,,,,,,,,00027,001,2025-11-17_15h14.33.025,MST_test,2024.2.0,60.05620059247223,2025-11-17 15h14.43.188423 +0530,
33,0,34,n,0.8475659000000633,None,34,0,33,165.12322489999997,,,,,,,,,,,,,,,,,,,,,,,,,,,,,,,,,,,,,,,,,,,,,,,,,,165.10946620000004,165.12322489999997,165.62771589999988,165.60776809999993,165.62486330000002,165.62771589999988,165.62771589999988,165.62771589999988,166.4923546,Foils\098a.jpg,none,n,0.8475659000000633,None,,,,,,,,00027,001,2025-11-17_15h14.33.025,MST_test,2024.2.0,60.05620059247223,2025-11-17 15h14.43.188423 +0530,
34,0,35,s,1.4411501999998109,None,35,0,34,166.50667950000002,,,,,,,,,,,,,,,,,,,,,,,,,,,,,,,,,,,,,,,,,,,,,,,,,,166.4927419999999,166.50667950000002,167.01066479999986,166.99015140000006,167.0075271999999,167.01066479999986,167.01066479999986,167.01066479999986,168.45914590000007,Scenes\127b.jpg,mid,s,1.4411501999998109,None,,,,,,,,00027,001,2025-11-17_15h14.33.025,MST_test,2024.2.0,60.05620059247223,2025-11-17 15h14.43.188423 +0530,
35,0,36,s,1.377098100000012,None,36,0,35,168.4729723999999,,,,,,,,,,,,,,,,,,,,,,,,,,,,,,,,,,,,,,,,,,,,,,,,,,168.45950599999992,168.4729723999999,168.97815760000003,168.95773379999991,168.97504729999991,168.97815760000003,168.97815760000003,168.97815760000003,170.3589732999999,Objects\073b.jpg,post,s,1.377098100000012,None,,,,,,,,00027,001,2025-11-17_15h14.33.025,MST_test,2024.2.0,60.05620059247223,2025-11-17 15h14.43.188423 +0530,
36,0,37,o,0.9221720999998979,None,37,0,36,170.3732026,,,,,,,,,,,,,,,,,,,,,,,,,,,,,,,,,,,,,,,,,,,,,,,,,,170.35962389999986,170.3732026,170.87336890000006,170.85773169999993,170.87021349999986,170.87336890000006,170.87336890000006,170.87336890000006,171.80887280000002,Objects\132a.jpg,mid,o,0.9221720999998979,None,,,,,,,,00027,001,2025-11-17_15h14.33.025,MST_test,2024.2.0,60.05620059247223,2025-11-17 15h14.43.188423 +0530,
37,0,38,s,0.7455847999999605,None,38,0,37,171.82321320000005,,,,,,,,,,,,,,,,,,,,,,,,,,,,,,,,,,,,,,,,,,,,,,,,,,171.809258,171.82321320000005,172.34528550000005,172.3077727,172.34268150000003,172.34528550000005,172.34528550000005,172.34528550000005,173.10785710000005,Foils\106a.jpg,none,s,0.7455847999999605,None,,,,,,,,00027,001,2025-11-17_15h14.33.025,MST_test,2024.2.0,60.05620059247223,2025-11-17 15h14.43.188423 +0530,
38,0,39,n,1.5065481999999975,None,39,0,38,173.12308000000007,,,,,,,,,,,,,,,,,,,,,,,,,,,,,,,,,,,,,,,,,,,,,,,,,,173.10807869999985,173.12308000000007,173.62595020000003,173.6076539999999,173.62357700000007,173.62595020000003,173.62595020000003,173.62595020000003,175.140357,Foils\026a.jpg,none,n,1.5065481999999975,None,,,,,,,,00027,001,2025-11-17_15h14.33.025,MST_test,2024.2.0,60.05620059247223,2025-11-17 15h14.43.188423 +0530,
39,0,40,s,1.248276100000112,None,40,0,39,175.15632879999998,,,,,,,,,,,,,,,,,,,,,,,,,,,,,,,,,,,,,,,,,,,,,,,,,,175.1404717999999,175.15632879999998,175.66666409999993,175.64115219999985,175.66362019999997,175.66666409999993,175.66666409999993,175.66666409999993,176.92536859999996,Scenes\059b.jpg,post,s,1.248276100000112,None,,,,,,,,00027,001,2025-11-17_15h14.33.025,MST_test,2024.2.0,60.05620059247223,2025-11-17 15h14.43.188423 +0530,
40,0,41,n,0.7682600999999067,None,41,0,40,176.9398885999999,,,,,,,,,,,,,,,,,,,,,,,,,,,,,,,,,,,,,,,,,,,,,,,,,,176.9257338,176.9398885999999,177.4433386999999,177.4243813999999,177.44045340000002,177.4433386999999,177.4433386999999,177.4433386999999,178.22519609999995,Foils\074a.jpg,none,n,0.7682600999999067,None,,,,,,,,00027,001,2025-11-17_15h14.33.025,MST_test,2024.2.0,60.05620059247223,2025-11-17 15h14.43.188423 +0530,
41,0,42,n,0.6534360000000561,None,42,0,41,178.23983709999993,,,,,,,,,,,,,,,,,,,,,,,,,,,,,,,,,,,,,,,,,,,,,,,,,,178.22552369999994,178.23983709999993,178.7418545999999,178.72386110000002,178.7395168999999,178.7418545999999,178.7418545999999,178.7418545999999,179.4081501999999,Foils\010a.jpg,none,n,0.6534360000000561,None,,,,,,,,00027,001,2025-11-17_15h14.33.025,MST_test,2024.2.0,60.05620059247223,2025-11-17 15h14.43.188423 +0530,
42,0,43,o,1.0722621000002164,None,43,0,42,179.42278639999995,,,,,,,,,,,,,,,,,,,,,,,,,,,,,,,,,,,,,,,,,,,,,,,,,,179.40850639999985,179.42278639999995,179.92310159999988,179.90757370000006,179.91432280000004,179.92310159999988,179.92310159999988,179.92310159999988,181.00817989999996,Objects\182a.jpg,post,o,1.0722621000002164,None,,,,,,,,00027,001,2025-11-17_15h14.33.025,MST_test,2024.2.0,60.05620059247223,2025-11-17 15h14.43.188423 +0530,
43,0,44,o,0.8961068000003252,None,44,0,43,181.02284599999984,,,,,,,,,,,,,,,,,,,,,,,,,,,,,,,,,,,,,,,,,,,,,,,,,,181.00855360000014,181.02284599999984,181.52346690000013,181.50746789999994,181.51708759999974,181.52346690000013,181.52346690000013,181.52346690000013,182.42550949999986,Scenes\132a.jpg,pre,o,0.8961068000003252,None,,,,,,,,00027,001,2025-11-17_15h14.33.025,MST_test,2024.2.0,60.05620059247223,2025-11-17 15h14.43.188423 +0530,
44,0,45,o,0.6783573999996406,None,45,0,44,182.43978040000002,,,,,,,,,,,,,,,,,,,,,,,,,,,,,,,,,,,,,,,,,,,,,,,,,,182.42581919999975,182.43978040000002,182.9410109999999,182.9239238,182.93793000000005,182.9410109999999,182.9410109999999,182.9410109999999,183.62525319999986,Objects\124b.jpg,post,o,0.6783573999996406,None,,,,,,,,00027,001,2025-11-17_15h14.33.025,MST_test,2024.2.0,60.05620059247223,2025-11-17 15h14.43.188423 +0530,
45,0,46,s,0.9251509999999143,None,46,0,45,183.63977979999981,,,,,,,,,,,,,,,,,,,,,,,,,,,,,,,,,,,,,,,,,,,,,,,,,,183.6256386,183.63977979999981,184.15051349999976,184.12389399999984,184.14767679999977,184.15051349999976,184.15051349999976,184.15051349999976,185.09187669999983,Scenes\117b.jpg,mid,s,0.9251509999999143,None,,,,,,,,00027,001,2025-11-17_15h14.33.025,MST_test,2024.2.0,60.05620059247223,2025-11-17 15h14.43.188423 +0530,
46,0,47,n,1.0216318000002502,None,47,0,46,185.10636870000008,,,,,,,,,,,,,,,,,,,,,,,,,,,,,,,,,,,,,,,,,,,,,,,,,,185.0922486999998,185.10636870000008,185.83744780000006,185.5906629000001,185.83112110000002,185.83744780000006,185.83744780000006,185.83744780000006,186.87509199999977,Foils\scenes26.jpg,none,n,1.0216318000002502,None,,,,,,,,00027,001,2025-11-17_15h14.33.025,MST_test,2024.2.0,60.05620059247223,2025-11-17 15h14.43.188423 +0530,
47,0,48,n,0.6401049999999486,None,48,0,47,186.88971869999978,,,,,,,,,,,,,,,,,,,,,,,,,,,,,,,,,,,,,,,,,,,,,,,,,,186.87546770000017,186.88971869999978,187.42689569999993,187.37364380000008,187.42436270000007,187.42689569999993,187.42689569999993,187.42689569999993,188.07503580000002,Foils\scenes14.jpg,none,n,0.6401049999999486,None,,,,,,,,00027,001,2025-11-17_15h14.33.025,MST_test,2024.2.0,60.05620059247223,2025-11-17 15h14.43.188423 +0530,
48,0,49,n,1.2874492000000828,None,49,0,48,188.0894712999998,,,,,,,,,,,,,,,,,,,,,,,,,,,,,,,,,,,,,,,,,,,,,,,,,,188.07537539999976,188.0894712999998,188.59598340000002,188.57388630000014,188.59342749999996,188.59598340000002,188.59598340000002,188.59598340000002,189.89137690000007,Foils\050a.jpg,none,n,1.2874492000000828,None,,,,,,,,00027,001,2025-11-17_15h14.33.025,MST_test,2024.2.0,60.05620059247223,2025-11-17 15h14.43.188423 +0530,
49,0,50,o,1.0178420000002006,None,50,0,49,189.90635629999997,,,,,,,,,,,,,,,,,,,,,,,,,,,,,,,,,,,,,,,,,,,,,,,,,,189.89169519999996,189.90635629999997,190.4093130000001,190.39065249999976,190.40687530000014,190.4093130000001,190.4093130000001,190.4093130000001,191.4433085999999,Objects\087b.jpg,pre,o,1.0178420000002006,None,,,,,,,,00027,001,2025-11-17_15h14.33.025,MST_test,2024.2.0,60.05620059247223,2025-11-17 15h14.43.188423 +0530,
50,0,51,o,0.9117562000001271,None,51,0,50,191.45639630000005,,,,,,,,,,,,,,,,,,,,,,,,,,,,,,,,,,,,,,,,,,,,,,,,,,191.44362120000005,191.45639630000005,191.96352789999992,191.94082509999998,191.96055849999993,191.96352789999992,191.96352789999992,191.96352789999992,192.89121729999988,Scenes\168b.jpg,post,o,0.9117562000001271,None,,,,,,,,00027,001,2025-11-17_15h14.33.025,MST_test,2024.2.0,60.05620059247223,2025-11-17 15h14.43.188423 +0530,
51,0,52,s,0.9183569000001626,None,52,0,51,192.90640859999985,,,,,,,,,,,,,,,,,,,,,,,,,,,,,,,,,,,,,,,,,,,,,,,,,,192.89145789999975,192.90640859999985,193.42059759999984,193.39056140000002,193.41751990000012,193.42059759999984,193.42059759999984,193.42059759999984,194.3418959999999,Scenes\063b.jpg,post,s,0.9183569000001626,None,,,,,,,,00027,001,2025-11-17_15h14.33.025,MST_test,2024.2.0,60.05620059247223,2025-11-17 15h14.43.188423 +0530,
52,0,53,o,1.1845398999998906,None,53,0,52,194.35637270000007,,,,,,,,,,,,,,,,,,,,,,,,,,,,,,,,,,,,,,,,,,,,,,,,,,194.34222880000016,194.35637270000007,194.85845070000005,194.84065079999982,194.85538050000014,194.85845070000005,194.85845070000005,194.85845070000005,196.05835160000015,Scenes\002a.jpg,pre,o,1.1845398999998906,None,,,,,,,,00027,001,2025-11-17_15h14.33.025,MST_test,2024.2.0,60.05620059247223,2025-11-17 15h14.43.188423 +0530,
53,0,54,s,1.2522836000002826,None,54,0,53,196.07313969999996,,,,,,,,,,,,,,,,,,,,,,,,,,,,,,,,,,,,,,,,,,,,,,,,,,196.05869230000008,196.07313969999996,196.5759767999998,196.5576157999999,196.5730724,196.5759767999998,196.5759767999998,196.5759767999998,197.84115239999983,Objects\058b.jpg,mid,s,1.2522836000002826,None,,,,,,,,00027,001,2025-11-17_15h14.33.025,MST_test,2024.2.0,60.05620059247223,2025-11-17 15h14.43.188423 +0530,
54,0,55,o,0.8204037000000426,None,55,0,54,197.85636190000014,,,,,,,,,,,,,,,,,,,,,,,,,,,,,,,,,,,,,,,,,,,,,,,,,,197.84141520000003,197.85636190000014,198.35923450000018,198.34082369999987,198.3569066,198.35923450000018,198.35923450000018,198.35923450000018,199.19189259999985,Objects\103b.jpg,post,o,0.8204037000000426,None,,,,,,,,00027,001,2025-11-17_15h14.33.025,MST_test,2024.2.0,60.05620059247223,2025-11-17 15h14.43.188423 +0530,
55,0,56,o,0.752201199999945,None,56,0,55,199.20639690000007,,,,,,,,,,,,,,,,,,,,,,,,,,,,,,,,,,,,,,,,,,,,,,,,,,199.19225779999988,199.20639690000007,199.70704509999996,199.6904813000001,199.70080589999998,199.70704509999996,199.70704509999996,199.70704509999996,200.47443269999985,Scenes\007a.jpg,mid,o,0.752201199999945,None,,,,,,,,00027,001,2025-11-17_15h14.33.025,MST_test,2024.2.0,60.05620059247223,2025-11-17 15h14.43.188423 +0530,
56,0,57,o,0.5887253000000783,None,57,0,56,200.4895673000001,,,,,,,,,,,,,,,,,,,,,,,,,,,,,,,,,,,,,,,,,,,,,,,,,,200.47464910000008,200.4895673000001,200.99043500000016,200.97410189999982,200.98746119999987,200.99043500000016,200.99043500000016,200.99043500000016,201.5916490999998,Scenes\158a.jpg,post,o,0.5887253000000783,None,,,,,,,,00027,001,2025-11-17_15h14.33.025,MST_test,2024.2.0,60.05620059247223,2025-11-17 15h14.43.188423 +0530,
57,0,58,o,0.5854008000001159,None,58,0,57,201.60643609999988,,,,,,,,,,,,,,,,,,,,,,,,,,,,,,,,,,,,,,,,,,,,,,,,,,201.59203209999987,201.60643609999988,202.10717909999994,202.09092349999992,202.09925650000014,202.10717909999994,202.10717909999994,202.10717909999994,202.7090208999998,Objects\034a.jpg,post,o,0.5854008000001159,None,,,,,,,,00027,001,2025-11-17_15h14.33.025,MST_test,2024.2.0,60.05620059247223,2025-11-17 15h14.43.188423 +0530,
58,0,59,o,0.6292692999995779,None,59,0,58,202.72316839999985,,,,,,,,,,,,,,,,,,,,,,,,,,,,,,,,,,,,,,,,,,,,,,,,,,202.7093503000001,202.72316839999985,203.22981489999984,203.20759540000017,203.22725779999973,203.22981489999984,203.22981489999984,203.22981489999984,203.87539650000008,Objects\068b.jpg,mid,o,0.6292692999995779,None,,,,,,,,00027,001,2025-11-17_15h14.33.025,MST_test,2024.2.0,60.05620059247223,2025-11-17 15h14.43.188423 +0530,
59,0,60,o,0.5486798000001727,None,60,0,59,203.8897305999999,,,,,,,,,,,,,,,,,,,,,,,,,,,,,,,,,,,,,,,,,,,,,,,,,,203.8757568000001,203.8897305999999,204.39071699999977,204.37422930000002,204.3881805000001,204.39071699999977,204.39071699999977,204.39071699999977,204.94244759999992,Objects\188a.jpg,pre,o,0.5486798000001727,None,,,,,,,,00027,001,2025-11-17_15h14.33.025,MST_test,2024.2.0,60.05620059247223,2025-11-17 15h14.43.188423 +0530,
60,0,61,o,0.6026188999999249,None,61,0,60,204.95648729999994,,,,,,,,,,,,,,,,,,,,,,,,,,,,,,,,,,,,,,,,,,,,,,,,,,204.94284719999996,204.95648729999994,205.45657810000012,205.44087039999977,205.45420439999998,205.45657810000012,205.45657810000012,205.45657810000012,206.07522199999994,Objects\152a.jpg,post,o,0.6026188999999249,None,,,,,,,,00027,001,2025-11-17_15h14.33.025,MST_test,2024.2.0,60.05620059247223,2025-11-17 15h14.43.188423 +0530,
61,0,62,n,1.1826627000000371,None,62,0,61,206.08966099999998,,,,,,,,,,,,,,,,,,,,,,,,,,,,,,,,,,,,,,,,,,,,,,,,,,206.07553629999984,206.08966099999998,206.59702199999992,206.57415230000015,206.5940418,206.59702199999992,206.59702199999992,206.59702199999992,207.79150290000007,Scenes\182b.jpg,pre,n,1.1826627000000371,None,,,,,,,,00027,001,2025-11-17_15h14.33.025,MST_test,2024.2.0,60.05620059247223,2025-11-17 15h14.43.188423 +0530,
62,0,63,s,1.138497599999937,None,63,0,62,207.80640189999986,,,,,,,,,,,,,,,,,,,,,,,,,,,,,,,,,,,,,,,,,,,,,,,,,,207.79175110000006,207.80640189999986,208.31278919999977,208.29061109999975,208.30995230000008,208.31278919999977,208.31278919999977,208.31278919999977,209.45842589999984,Objects\007b.jpg,post,s,1.138497599999937,None,,,,,,,,00027,001,2025-11-17_15h14.33.025,MST_test,2024.2.0,60.05620059247223,2025-11-17 15h14.43.188423 +0530,
63,0,64,o,0.7101077000002078,None,64,0,63,209.47292960000004,,,,,,,,,,,,,,,,,,,,,,,,,,,,,,,,,,,,,,,,,,,,,,,,,,209.4587805000001,209.47292960000004,209.97367470000017,209.95757989999993,209.9692203999998,209.97367470000017,209.97367470000017,209.97367470000017,210.69172620000018,Scenes\067a.jpg,post,o,0.7101077000002078,None,,,,,,,,00027,001,2025-11-17_15h14.33.025,MST_test,2024.2.0,60.05620059247223,2025-11-17 15h14.43.188423 +0530,
64,0,65,o,0.595155099999829,None,65,0,64,210.70638259999987,,,,,,,,,,,,,,,,,,,,,,,,,,,,,,,,,,,,,,,,,,,,,,,,,,210.69204480000008,210.70638259999987,211.20795929999986,211.19087869999976,211.2050893999999,211.20795929999986,211.20795929999986,211.20795929999986,211.808579,Objects\098a.jpg,mid,o,0.595155099999829,None,,,,,,,,00027,001,2025-11-17_15h14.33.025,MST_test,2024.2.0,60.05620059247223,2025-11-17 15h14.43.188423 +0530,
65,0,66,o,0.5549644000002445,None,66,0,65,211.82310640000014,,,,,,,,,,,,,,,,,,,,,,,,,,,,,,,,,,,,,,,,,,,,,,,,,,211.80885039999976,211.82310640000014,212.33642740000005,212.30757600000015,212.3334504999998,212.33642740000005,212.33642740000005,212.33642740000005,212.90839619999997,Scenes\045b.jpg,pre,o,0.5549644000002445,None,,,,,,,,00027,001,2025-11-17_15h14.33.025,MST_test,2024.2.0,60.05620059247223,2025-11-17 15h14.43.188423 +0530,
66,0,67,o,1.0718855000000076,None,67,0,66,212.9230518999998,,,,,,,,,,,,,,,,,,,,,,,,,,,,,,,,,,,,,,,,,,,,,,,,,,212.90874540000004,212.9230518999998,213.42745019999984,213.40769709999995,213.42430139999988,213.42745019999984,213.42745019999984,213.42745019999984,214.50887909999983,Objects\089b.jpg,post,o,1.0718855000000076,None,,,,,,,,00027,001,2025-11-17_15h14.33.025,MST_test,2024.2.0,60.05620059247223,2025-11-17 15h14.43.188423 +0530,
67,0,68,o,0.7557824000000437,None,68,0,67,214.52302379999992,,,,,,,,,,,,,,,,,,,,,,,,,,,,,,,,,,,,,,,,,,,,,,,,,,214.50920210000004,214.52302379999992,215.0232520999998,215.0075336,215.01465030000008,215.0232520999998,215.0232520999998,215.0232520999998,215.7920439999998,Objects\123a.jpg,mid,o,0.7557824000000437,None,,,,,,,,00027,001,2025-11-17_15h14.33.025,MST_test,2024.2.0,60.05620059247223,2025-11-17 15h14.43.188423 +0530,
68,0,69,s,1.1109357999998792,None,69,0,68,215.80639259999998,,,,,,,,,,,,,,,,,,,,,,,,,,,,,,,,,,,,,,,,,,,,,,,,,,215.79243399999996,215.80639259999998,216.3161498999998,216.29088839999986,216.3130559000001,216.3161498999998,216.3161498999998,216.3161498999998,217.44216670000014,Scenes\146b.jpg,post,s,1.1109357999998792,None,,,,,,,,00027,001,2025-11-17_15h14.33.025,MST_test,2024.2.0,60.05620059247223,2025-11-17 15h14.43.188423 +0530,
69,0,70,o,1.0600678000000698,None,70,0,69,217.45639540000002,,,,,,,,,,,,,,,,,,,,,,,,,,,,,,,,,,,,,,,,,,,,,,,,,,217.44248629999993,217.45639540000002,217.9675446000001,217.94110339999997,217.9645645999999,217.9675446000001,217.9675446000001,217.9675446000001,219.04174969999985,Scenes\074a.jpg,pre,o,1.0600678000000698,None,,,,,,,,00027,001,2025-11-17_15h14.33.025,MST_test,2024.2.0,60.05620059247223,2025-11-17 15h14.43.188423 +0530,
70,0,71,o,0.8506667000001471,None,71,0,70,219.0562599,,,,,,,,,,,,,,,,,,,,,,,,,,,,,,,,,,,,,,,,,,,,,,,,,,219.04215299999987,219.0562599,219.5607003,219.5408395999998,219.55769340000006,219.5607003,219.5607003,219.5607003,220.4255303,Scenes\118a.jpg,post,o,0.8506667000001471,None,,,,,,,,00027,001,2025-11-17_15h14.33.025,MST_test,2024.2.0,60.05620059247223,2025-11-17 15h14.43.188423 +0530,
71,0,72,o,1.4692681000001357,None,72,0,71,220.4396155999998,,,,,,,,,,,,,,,,,,,,,,,,,,,,,,,,,,,,,,,,,,,,,,,,,,220.42592439999999,220.4396155999998,220.94210320000002,220.9238289,220.93911359999993,220.94210320000002,220.94210320000002,220.94210320000002,222.42532380000011,Foils\066a.jpg,none,o,1.4692681000001357,None,,,,,,,,00027,001,2025-11-17_15h14.33.025,MST_test,2024.2.0,60.05620059247223,2025-11-17 15h14.43.188423 +0530,
72,0,73,n,0.8815823999998429,None,73,0,72,222.43973479999977,,,,,,,,,,,,,,,,,,,,,,,,,,,,,,,,,,,,,,,,,,,,,,,,,,222.42568589999973,222.43973479999977,222.95343580000008,222.92409940000016,222.9502477000001,222.95343580000008,222.95343580000008,222.95343580000008,223.84220719999985,Foils\scenes28.jpg,none,n,0.8815823999998429,None,,,,,,,,00027,001,2025-11-17_15h14.33.025,MST_test,2024.2.0,60.05620059247223,2025-11-17 15h14.43.188423 +0530,
73,0,74,o,0.9703325999998924,None,74,0,73,223.85644439999987,,,,,,,,,,,,,,,,,,,,,,,,,,,,,,,,,,,,,,,,,,,,,,,,,,223.84257019999995,223.85644439999987,224.36115740000014,224.34084299999995,224.3576564,224.36115740000014,224.36115740000014,224.36115740000014,225.3411013,Objects\111b.jpg,post,o,0.9703325999998924,None,,,,,,,,00027,001,2025-11-17_15h14.33.025,MST_test,2024.2.0,60.05620059247223,2025-11-17 15h14.43.188423 +0530,
74,0,75,o,1.0121610999999575,None,75,0,74,225.35631239999975,,,,,,,,,,,,,,,,,,,,,,,,,,,,,,,,,,,,,,,,,,,,,,,,,,225.34129089999988,225.35631239999975,225.86285510000016,225.8407526000001,225.85961399999997,225.86285510000016,225.86285510000016,225.86285510000016,226.89200149999988,Scenes\096a.jpg,post,o,1.0121610999999575,None,,,,,,,,00027,001,2025-11-17_15h14.33.025,MST_test,2024.2.0,60.05620059247223,2025-11-17 15h14.43.188423 +0530,
75,0,76,n,1.1235397999998895,None,76,0,75,226.9063888999999,,,,,,,,,,,,,,,,,,,,,,,,,,,,,,,,,,,,,,,,,,,,,,,,,,226.89235370000006,226.9063888999999,227.40914639999983,227.39055169999983,227.40635399999974,227.40914639999983,227.40914639999983,227.40914639999983,228.54174590000002,Objects\029b.jpg,mid,n,1.1235397999998895,None,,,,,,,,00027,001,2025-11-17_15h14.33.025,MST_test,2024.2.0,60.05620059247223,2025-11-17 15h14.43.188423 +0530,
76,0,77,s,1.2739246000001003,None,77,0,76,228.55628769999976,,,,,,,,,,,,,,,,,,,,,,,,,,,,,,,,,,,,,,,,,,,,,,,,,,228.54207629999974,228.55628769999976,229.0650830999998,229.04096530000015,229.06207719999975,229.0650830999998,229.0650830999998,229.0650830999998,230.3422544,Scenes\188b.jpg,post,s,1.2739246000001003,None,,,,,,,,00027,001,2025-11-17_15h14.33.025,MST_test,2024.2.0,60.05620059247223,2025-11-17 15h14.43.188423 +0530,
77,0,78,s,0.8942891000001509,None,78,0,77,230.3564609,,,,,,,,,,,,,,,,,,,,,,,,,,,,,,,,,,,,,,,,,,,,,,,,,,230.34265340000002,230.3564609,230.86936209999976,230.84083379999993,230.8661707000001,230.86936209999976,230.86936209999976,230.86936209999976,231.77580739999985,Scenes\103b.jpg,mid,s,0.8942891000001509,None,,,,,,,,00027,001,2025-11-17_15h14.33.025,MST_test,2024.2.0,60.05620059247223,2025-11-17 15h14.43.188423 +0530,
78,0,79,s,0.7797412999998414,None,79,0,78,231.78971790000014,,,,,,,,,,,,,,,,,,,,,,,,,,,,,,,,,,,,,,,,,,,,,,,,,,231.77615909999986,231.78971790000014,232.2954252999998,232.27404350000006,232.29230199999984,232.2954252999998,232.2954252999998,232.2954252999998,233.09181050000007,Objects\001b.jpg,mid,s,0.7797412999998414,None,,,,,,,,00027,001,2025-11-17_15h14.33.025,MST_test,2024.2.0,60.05620059247223,2025-11-17 15h14.43.188423 +0530,
79,0,80,s,1.0487468000001172,None,80,0,79,233.10633310000003,,,,,,,,,,,,,,,,,,,,,,,,,,,,,,,,,,,,,,,,,,,,,,,,,,233.0922228999998,233.10633310000003,233.61922809999987,233.59066789999997,233.61623469999995,233.61922809999987,233.61922809999987,233.61922809999987,234.67524520000006,Scenes\029b.jpg,mid,s,1.0487468000001172,None,,,,,,,,00027,001,2025-11-17_15h14.33.025,MST_test,2024.2.0,60.05620059247223,2025-11-17 15h14.43.188423 +0530,
80,0,81,o,1.1444181000001663,None,81,0,80,234.68957550000005,,,,,,,,,,,,,,,,,,,,,,,,,,,,,,,,,,,,,,,,,,,,,,,,,,234.67556220000006,234.68957550000005,235.19474039999977,235.17435840000007,235.19172949999984,235.19474039999977,235.19474039999977,235.19474039999977,236.34132850000015,Scenes\089a.jpg,mid,o,1.1444181000001663,None,,,,,,,,00027,001,2025-11-17_15h14.33.025,MST_test,2024.2.0,60.05620059247223,2025-11-17 15h14.43.188423 +0530,
81,0,82,o,0.8210062999996808,None,82,0,81,236.35637369999995,,,,,,,,,,,,,,,,,,,,,,,,,,,,,,,,,,,,,,,,,,,,,,,,,,236.3416047999999,236.35637369999995,236.86214410000002,236.84110439999995,236.85910890000014,236.86214410000002,236.86214410000002,236.86214410000002,237.69208990000016,Scenes\051b.jpg,post,o,0.8210062999996808,None,,,,,,,,00027,001,2025-11-17_15h14.33.025,MST_test,2024.2.0,60.05620059247223,2025-11-17 15h14.43.188423 +0530,
82,0,83,s,1.104325599999811,None,83,0,82,237.70638139999983,,,,,,,,,,,,,,,,,,,,,,,,,,,,,,,,,,,,,,,,,,,,,,,,,,237.69245450000017,237.70638139999983,238.21063139999978,238.19067499999983,238.20758560000013,238.21063139999978,238.21063139999978,238.21063139999978,239.32499169999983,Objects\148b.jpg,pre,s,1.104325599999811,None,,,,,,,,00027,001,2025-11-17_15h14.33.025,MST_test,2024.2.0,60.05620059247223,2025-11-17 15h14.43.188423 +0530,
83,0,84,s,0.8191714999998112,None,84,0,83,239.33956919999991,,,,,,,,,,,,,,,,,,,,,,,,,,,,,,,,,,,,,,,,,,,,,,,,,,239.32535340000004,239.33956919999991,239.84008859999994,239.82414319999998,239.83291770000005,239.84008859999994,239.84008859999994,239.84008859999994,240.67552960000012,Objects\139a.jpg,post,s,0.8191714999998112,None,,,,,,,,00027,001,2025-11-17_15h14.33.025,MST_test,2024.2.0,60.05620059247223,2025-11-17 15h14.43.188423 +0530,
84,0,85,o,1.0800163000003522,None,85,0,84,240.68971479999982,,,,,,,,,,,,,,,,,,,,,,,,,,,,,,,,,,,,,,,,,,,,,,,,,,240.67589050000015,240.68971479999982,241.1950711999998,241.17428759999984,241.19217029999982,241.1950711999998,241.1950711999998,241.1950711999998,242.2917994999998,Scenes\001a.jpg,mid,o,1.0800163000003522,None,,,,,,,,00027,001,2025-11-17_15h14.33.025,MST_test,2024.2.0,60.05620059247223,2025-11-17 15h14.43.188423 +0530,
85,0,86,s,1.0664354000000458,None,86,0,85,242.30637079999997,,,,,,,,,,,,,,,,,,,,,,,,,,,,,,,,,,,,,,,,,,,,,,,,,,242.29212300000017,242.30637079999997,242.81742440000016,242.79066520000015,242.8143052999999,242.81742440000016,242.81742440000016,242.81742440000016,243.89146789999995,Scenes\012b.jpg,post,s,1.0664354000000458,None,,,,,,,,00027,001,2025-11-17_15h14.33.025,MST_test,2024.2.0,60.05620059247223,2025-11-17 15h14.43.188423 +0530,
86,0,87,o,1.3558449000001929,None,87,0,86,243.90640480000002,,,,,,,,,,,,,,,,,,,,,,,,,,,,,,,,,,,,,,,,,,,,,,,,,,243.8918432999999,243.90640480000002,244.40714709999975,244.3909546,244.4030828,244.40714709999975,244.40714709999975,244.40714709999975,245.77529390000018,Scenes\121a.jpg,post,o,1.3558449000001929,None,,,,,,,,00027,001,2025-11-17_15h14.33.025,MST_test,2024.2.0,60.05620059247223,2025-11-17 15h14.43.188423 +0530,
87,0,88,o,1.1054441000001134,None,88,0,87,245.78974629999993,,,,,,,,,,,,,,,,,,,,,,,,,,,,,,,,,,,,,,,,,,,,,,,,,,245.77561530000003,245.78974629999993,246.29030329999978,246.2743507,246.2815114,246.29030329999978,246.29030329999978,246.29030329999978,247.4089014000001,Objects\130a.jpg,post,o,1.1054441000001134,None,,,,,,,,00027,001,2025-11-17_15h14.33.025,MST_test,2024.2.0,60.05620059247223,2025-11-17 15h14.43.188423 +0530,
88,0,89,o,0.6399102000000312,None,89,0,88,247.42314780000015,,,,,,,,,,,,,,,,,,,,,,,,,,,,,,,,,,,,,,,,,,,,,,,,,,247.4092344999999,247.42314780000015,247.92324259999987,247.90756150000016,247.91509889999998,247.92324259999987,247.92324259999987,247.92324259999987,248.57560620000004,Objects\081a.jpg,mid,o,0.6399102000000312,None,,,,,,,,00027,001,2025-11-17_15h14.33.025,MST_test,2024.2.0,60.05620059247223,2025-11-17 15h14.43.188423 +0530,
89,0,90,o,0.7767561999999089,None,90,0,89,248.58974360000002,,,,,,,,,,,,,,,,,,,,,,,,,,,,,,,,,,,,,,,,,,,,,,,,,,248.5759896999998,248.58974360000002,249.09028959999978,249.07423879999988,249.08588680000003,249.09028959999978,249.09028959999978,249.09028959999978,249.87523529999999,Scenes\068a.jpg,post,o,0.7767561999999089,None,,,,,,,,00027,001,2025-11-17_15h14.33.025,MST_test,2024.2.0,60.05620059247223,2025-11-17 15h14.43.188423 +0530,
90,0,91,n,0.704111400000329,None,91,0,90,249.88956430000007,,,,,,,,,,,,,,,,,,,,,,,,,,,,,,,,,,,,,,,,,,,,,,,,,,249.87554629999977,249.88956430000007,250.39591340000015,250.3742158,250.39308290000008,250.39591340000015,250.39591340000015,250.39591340000015,251.10887139999977,Foils\097a.jpg,none,n,0.704111400000329,None,,,,,,,,00027,001,2025-11-17_15h14.33.025,MST_test,2024.2.0,60.05620059247223,2025-11-17 15h14.43.188423 +0530,
91,0,92,n,1.0293590000001132,None,92,0,91,251.12316939999982,,,,,,,,,,,,,,,,,,,,,,,,,,,,,,,,,,,,,,,,,,,,,,,,,,251.10920570000008,251.12316939999982,251.6296843,251.6077578999998,251.6272702000001,251.6296843,251.6296843,251.6296843,252.67543160000014,Objects\067b.jpg,pre,n,1.0293590000001132,None,,,,,,,,00027,001,2025-11-17_15h14.33.025,MST_test,2024.2.0,60.05620059247223,2025-11-17 15h14.43.188423 +0530,
92,0,93,n,0.792483700000048,None,93,0,92,252.68981070000018,,,,,,,,,,,,,,,,,,,,,,,,,,,,,,,,,,,,,,,,,,,,,,,,,,252.6758405999999,252.68981070000018,253.1945909000001,253.1742494,253.19174919999978,253.1945909000001,253.1945909000001,253.1945909000001,253.99246110000013,Scenes\181b.jpg,mid,n,0.792483700000048,None,,,,,,,,00027,001,2025-11-17_15h14.33.025,MST_test,2024.2.0,60.05620059247223,2025-11-17 15h14.43.188423 +0530,
93,0,94,n,0.78633949999994,None,94,0,93,254.00653079999984,,,,,,,,,,,,,,,,,,,,,,,,,,,,,,,,,,,,,,,,,,,,,,,,,,253.9928792999999,254.00653079999984,254.5132764,254.49055099999987,254.51038960000005,254.5132764,254.5132764,254.5132764,255.3088816999998,Foils\020b.jpg,none,n,0.78633949999994,None,,,,,,,,00027,001,2025-11-17_15h14.33.025,MST_test,2024.2.0,60.05620059247223,2025-11-17 15h14.43.188423 +0530,
94,0,95,o,0.883732400000099,None,95,0,94,255.32319670000015,,,,,,,,,,,,,,,,,,,,,,,,,,,,,,,,,,,,,,,,,,,,,,,,,,255.30929819999983,255.32319670000015,255.82364030000008,255.80721540000013,255.8170580000001,255.82364030000008,255.82364030000008,255.82364030000008,256.7098277,Scenes\107a.jpg,post,o,0.883732400000099,None,,,,,,,,00027,001,2025-11-17_15h14.33.025,MST_test,2024.2.0,60.05620059247223,2025-11-17 15h14.43.188423 +0530,
95,0,96,o,0.9745241999999052,None,96,0,95,256.7230746,,,,,,,,,,,,,,,,,,,,,,,,,,,,,,,,,,,,,,,,,,,,,,,,,,256.7101303999998,256.7230746,257.2286082999999,257.2077420999999,257.22572519999994,257.2286082999999,257.2286082999999,257.2286082999999,258.20849850000013,Objects\173b.jpg,mid,o,0.9745241999999052,None,,,,,,,,00027,001,2025-11-17_15h14.33.025,MST_test,2024.2.0,60.05620059247223,2025-11-17 15h14.43.188423 +0530,
96,0,97,s,1.2798693000004278,None,97,0,96,258.2232362,,,,,,,,,,,,,,,,,,,,,,,,,,,,,,,,,,,,,,,,,,,,,,,,,,258.2088506,258.2232362,258.723661,258.70747530000017,258.71877029999996,258.723661,258.723661,258.723661,260.0084299,Scenes\095a.jpg,mid,s,1.2798693000004278,None,,,,,,,,00027,001,2025-11-17_15h14.33.025,MST_test,2024.2.0,60.05620059247223,2025-11-17 15h14.43.188423 +0530,
97,0,98,o,0.9512376999996377,None,98,0,97,260.0230342,,,,,,,,,,,,,,,,,,,,,,,,,,,,,,,,,,,,,,,,,,,,,,,,,,260.0087103999999,260.0230342,260.5238026000002,260.5073708,260.51430089999985,260.5238026000002,260.5238026000002,260.5238026000002,261.49231310000005,Objects\186a.jpg,mid,o,0.9512376999996377,None,,,,,,,,00027,001,2025-11-17_15h14.33.025,MST_test,2024.2.0,60.05620059247223,2025-11-17 15h14.43.188423 +0530,
98,0,99,s,1.0339423999998871,None,99,0,98,261.50667650000014,,,,,,,,,,,,,,,,,,,,,,,,,,,,,,,,,,,,,,,,,,,,,,,,,,261.4927195999999,261.50667650000014,262.00941060000014,261.9905165,262.0070701999998,262.00941060000014,262.00941060000014,262.00941060000014,263.0577767,Objects\151b.jpg,pre,s,1.0339423999998871,None,,,,,,,,00027,001,2025-11-17_15h14.33.025,MST_test,2024.2.0,60.05620059247223,2025-11-17 15h14.43.188423 +0530,
99,0,100,o,0.804290999999921,None,100,0,99,263.07303580000007,,,,,,,,,,,,,,,,,,,,,,,,,,,,,,,,,,,,,,,,,,,,,,,,,,263.0578694999999,263.07303580000007,263.57531919999974,263.5574508999998,263.5719355000001,263.57531919999974,263.57531919999974,263.57531919999974,264.39167129999987,Scenes\039a.jpg,pre,o,0.804290999999921,None,,,,,,,,00027,001,2025-11-17_15h14.33.025,MST_test,2024.2.0,60.05620059247223,2025-11-17 15h14.43.188423 +0530,
100,0,101,o,0.858730800000103,None,101,0,100,264.40635410000004,,,,,,,,,,,,,,,,,,,,,,,,,,,,,,,,,,,,,,,,,,,,,,,,,,264.3920634000001,264.40635410000004,264.91311319999977,264.8910912000001,264.91009299999996,264.91311319999977,264.91311319999977,264.91311319999977,265.77559299999984,Scenes\019a.jpg,pre,o,0.858730800000103,None,,,,,,,,00027,001,2025-11-17_15h14.33.025,MST_test,2024.2.0,60.05620059247223,2025-11-17 15h14.43.188423 +0530,
101,0,102,n,0.7423453000001246,None,102,0,101,265.7896805999999,,,,,,,,,,,,,,,,,,,,,,,,,,,,,,,,,,,,,,,,,,,,,,,,,,265.77598069999976,265.7896805999999,266.2927150999999,266.2741434999998,266.28994939999984,266.2927150999999,266.2927150999999,266.2927150999999,267.04020249999985,Foils\073a.jpg,none,n,0.7423453000001246,None,,,,,,,,00027,001,2025-11-17_15h14.33.025,MST_test,2024.2.0,60.05620059247223,2025-11-17 15h14.43.188423 +0530,
102,0,103,s,0.9917694999999185,None,103,0,102,267.0564525,,,,,,,,,,,,,,,,,,,,,,,,,,,,,,,,,,,,,,,,,,,,,,,,,,267.04030150000017,267.0564525,267.5636150999999,267.54085810000015,267.56074850000005,267.5636150999999,267.5636150999999,267.5636150999999,268.55894309999985,Scenes\179b.jpg,pre,s,0.9917694999999185,None,,,,,,,,00027,001,2025-11-17_15h14.33.025,MST_test,2024.2.0,60.05620059247223,2025-11-17 15h14.43.188423 +0530,
103,0,104,n,1.1020763000001352,None,104,0,103,268.57306070000004,,,,,,,,,,,,,,,,,,,,,,,,,,,,,,,,,,,,,,,,,,,,,,,,,,268.55930579999995,268.57306070000004,269.07721949999996,269.0576139,269.07435810000015,269.07721949999996,269.07721949999996,269.07721949999996,270.19203749999997,Foils\scenes7.jpg,none,n,1.1020763000001352,None,,,,,,,,00027,001,2025-11-17_15h14.33.025,MST_test,2024.2.0,60.05620059247223,2025-11-17 15h14.43.188423 +0530,
104,0,105,s,0.9659164999998211,None,105,0,104,270.2064000999999,,,,,,,,,,,,,,,,,,,,,,,,,,,,,,,,,,,,,,,,,,,,,,,,,,270.19239370000014,270.2064000999999,270.71712019999995,270.6908975000001,270.7143009000001,270.71712019999995,270.71712019999995,270.71712019999995,271.6923906000002,Scenes\106b.jpg,pre,s,0.9659164999998211,None,,,,,,,,00027,001,2025-11-17_15h14.33.025,MST_test,2024.2.0,60.05620059247223,2025-11-17 15h14.43.188423 +0530,
105,0,106,o,0.8202921000001879,None,106,0,105,271.70623739999974,,,,,,,,,,,,,,,,,,,,,,,,,,,,,,,,,,,,,,,,,,,,,,,,,,271.69273220000014,271.70623739999974,272.21461390000013,272.19095719999996,272.2112871999998,272.21461390000013,272.21461390000013,272.21461390000013,273.04211159999977,Scenes\038a.jpg,mid,o,0.8202921000001879,None,,,,,,,,00027,001,2025-11-17_15h14.33.025,MST_test,2024.2.0,60.05620059247223,2025-11-17 15h14.43.188423 +0530,
106,0,107,s,0.8766332000000148,None,107,0,106,273.0564697,,,,,,,,,,,,,,,,,,,,,,,,,,,,,,,,,,,,,,,,,,,,,,,,,,273.0425071999998,273.0564697,273.55851189999976,273.5409488999999,273.5555703,273.55851189999976,273.55851189999976,273.55851189999976,274.44224440000016,Foils\scenes6.jpg,none,s,0.8766332000000148,None,,,,,,,,00027,001,2025-11-17_15h14.33.025,MST_test,2024.2.0,60.05620059247223,2025-11-17 15h14.43.188423 +0530,
107,0,108,o,0.7243005999998786,None,108,0,107,274.4564243,,,,,,,,,,,,,,,,,,,,,,,,,,,,,,,,,,,,,,,,,,,,,,,,,,274.44264680000015,274.4564243,274.95873759999995,274.94046590000016,274.9560502999998,274.95873759999995,274.95873759999995,274.95873759999995,275.69163530000014,Objects\156a.jpg,post,o,0.7243005999998786,None,,,,,,,,00027,001,2025-11-17_15h14.33.025,MST_test,2024.2.0,60.05620059247223,2025-11-17 15h14.43.188423 +0530,
108,0,109,o,0.7872204000000238,None,109,0,108,275.70636879999984,,,,,,,,,,,,,,,,,,,,,,,,,,,,,,,,,,,,,,,,,,,,,,,,,,275.69201109999995,275.70636879999984,276.2163227000001,276.19085159999986,276.21336789999987,276.2163227000001,276.2163227000001,276.2163227000001,277.00921040000003,Scenes\082a.jpg,post,o,0.7872204000000238,None,,,,,,,,00027,001,2025-11-17_15h14.33.025,MST_test,2024.2.0,60.05620059247223,2025-11-17 15h14.43.188423 +0530,
109,0,110,s,0.6771308000002136,None,110,0,109,277.02310739999984,,,,,,,,,,,,,,,,,,,,,,,,,,,,,,,,,,,,,,,,,,,,,,,,,,277.00951380000015,277.02310739999984,277.5260659999999,277.50771299999997,277.52308619999985,277.5260659999999,277.5260659999999,277.5260659999999,278.2086900999998,Foils\scenes29.jpg,none,s,0.6771308000002136,None,,,,,,,,00027,001,2025-11-17_15h14.33.025,MST_test,2024.2.0,60.05620059247223,2025-11-17 15h14.43.188423 +0530,
110,0,111,s,1.3391289999999572,None,111,0,110,278.22311720000016,,,,,,,,,,,,,,,,,,,,,,,,,,,,,,,,,,,,,,,,,,,,,,,,,,278.2090355999999,278.22311720000016,278.72841359999984,278.70755069999996,278.7254514000001,278.72841359999984,278.72841359999984,278.72841359999984,280.0752895999999,Objects\176b.jpg,pre,s,1.3391289999999572,None,,,,,,,,00027,001,2025-11-17_15h14.33.025,MST_test,2024.2.0,60.05620059247223,2025-11-17 15h14.43.188423 +0530,
111,0,112,n,0.890647700000045,None,112,0,111,280.08958269999994,,,,,,,,,,,,,,,,,,,,,,,,,,,,,,,,,,,,,,,,,,,,,,,,,,280.0756372999999,280.08958269999994,280.59269919999997,280.57425220000005,280.58988,280.59269919999997,280.59269919999997,280.59269919999997,281.4913796000001,Foils\scenes3.jpg,none,n,0.890647700000045,None,,,,,,,,00027,001,2025-11-17_15h14.33.025,MST_test,2024.2.0,60.05620059247223,2025-11-17 15h14.43.188423 +0530,
112,0,113,o,0.8444015999998555,None,113,0,112,281.5066769,,,,,,,,,,,,,,,,,,,,,,,,,,,,,,,,,,,,,,,,,,,,,,,,,,281.49164569999994,281.5066769,282.00691700000016,281.99084219999986,281.9983050000001,282.00691700000016,282.00691700000016,282.00691700000016,282.8588166999998,Objects\038a.jpg,pre,o,0.8444015999998555,None,,,,,,,,00027,001,2025-11-17_15h14.33.025,MST_test,2024.2.0,60.05620059247223,2025-11-17 15h14.43.188423 +0530,
113,0,114,s,1.0782837999995536,None,114,0,113,282.87316379999993,,,,,,,,,,,,,,,,,,,,,,,,,,,,,,,,,,,,,,,,,,,,,,,,,,282.8591778,282.87316379999993,283.38165059999983,283.3575973000002,283.3787225000001,283.38165059999983,283.38165059999983,283.38165059999983,284.4753847000002,Scenes\171b.jpg,post,s,1.0782837999995536,None,,,,,,,,00027,001,2025-11-17_15h14.33.025,MST_test,2024.2.0,60.05620059247223,2025-11-17 15h14.43.188423 +0530,
114,0,115,s,3.3702281000000767,None,115,0,114,284.4896112000001,,,,,,,,,,,,,,,,,,,,,,,,,,,,,,,,,,,,,,,,,,,,,,,,,,284.47572360000004,284.4896112000001,284.9934056000002,284.9744000999999,284.9903408,284.9934056000002,284.9934056000002,284.9934056000002,288.3754620999998,Objects\160b.jpg,mid,s,3.3702281000000767,None,,,,,,,,00027,001,2025-11-17_15h14.33.025,MST_test,2024.2.0,60.05620059247223,2025-11-17 15h14.43.188423 +0530,
115,0,116,o,0.8395952999999281,None,116,0,115,288.3897631,,,,,,,,,,,,,,,,,,,,,,,,,,,,,,,,,,,,,,,,,,,,,,,,,,288.3758386999998,288.3897631,288.89156479999974,288.87414179999996,288.8891122,288.89156479999974,288.89156479999974,288.89156479999974,289.7418382000001,Objects\181b.jpg,pre,o,0.8395952999999281,None,,,,,,,,00027,001,2025-11-17_15h14.33.025,MST_test,2024.2.0,60.05620059247223,2025-11-17 15h14.43.188423 +0530,
116,0,117,s,1.0486954000002697,None,117,0,116,289.75652279999986,,,,,,,,,,,,,,,,,,,,,,,,,,,,,,,,,,,,,,,,,,,,,,,,,,289.7421945000001,289.75652279999986,290.2585442999998,290.24083010000004,290.25604939999994,290.2585442999998,290.2585442999998,290.2585442999998,291.30921839999974,Objects\136b.jpg,pre,s,1.0486954000002697,None,,,,,,,,00027,001,2025-11-17_15h14.33.025,MST_test,2024.2.0,60.05620059247223,2025-11-17 15h14.43.188423 +0530,
117,0,118,o,1.4759106999999858,None,118,0,117,291.32320100000015,,,,,,,,,,,,,,,,,,,,,,,,,,,,,,,,,,,,,,,,,,,,,,,,,,291.3095893999998,291.32320100000015,291.8321538,291.80772780000007,291.82922529999996,291.8321538,291.8321538,291.8321538,293.32517719999987,Scenes\150b.jpg,pre,o,1.4759106999999858,None,,,,,,,,00027,001,2025-11-17_15h14.33.025,MST_test,2024.2.0,60.05620059247223,2025-11-17 15h14.43.188423 +0530,
118,0,119,s,1.1884369000003971,None,119,0,118,293.3395535999998,,,,,,,,,,,,,,,,,,,,,,,,,,,,,,,,,,,,,,,,,,,,,,,,,,293.3254919000001,293.3395535999998,293.84716739999976,293.8243397000001,293.84424720000015,293.84716739999976,293.84716739999976,293.84716739999976,295.0417784000001,Scenes\191b.jpg,mid,s,1.1884369000003971,None,,,,,,,,00027,001,2025-11-17_15h14.33.025,MST_test,2024.2.0,60.05620059247223,2025-11-17 15h14.43.188423 +0530,
119,0,120,o,0.7590715999999702,None,120,0,119,295.0564109000002,,,,,,,,,,,,,,,,,,,,,,,,,,,,,,,,,,,,,,,,,,,,,,,,,,295.04210920000014,295.0564109000002,295.55698540000003,295.54069130000016,295.5463761000001,295.55698540000003,295.55698540000003,295.55698540000003,296.32504689999996,Objects\175a.jpg,pre,o,0.7590715999999702,None,,,,,,,,00027,001,2025-11-17_15h14.33.025,MST_test,2024.2.0,60.05620059247223,2025-11-17 15h14.43.188423 +0530,
120,0,121,n,1.320277399999668,None,121,0,120,296.339567,,,,,,,,,,,,,,,,,,,,,,,,,,,,,,,,,,,,,,,,,,,,,,,,,,296.3253731,296.339567,296.84352179999996,296.82433009999977,296.8410743999998,296.84352179999996,296.84352179999996,296.84352179999996,298.17573619999985,Foils\093b.jpg,none,n,1.320277399999668,None,,,,,,,,00027,001,2025-11-17_15h14.33.025,MST_test,2024.2.0,60.05620059247223,2025-11-17 15h14.43.188423 +0530,
121,0,122,o,0.9252050000000054,None,122,0,121,298.18970119999994,,,,,,,,,,,,,,,,,,,,,,,,,,,,,,,,,,,,,,,,,,,,,,,,,,298.17604859999983,298.18970119999994,298.6945664,298.67417669999986,298.6922577,298.6945664,298.6945664,298.6945664,299.6254607999999,Objects\057b.jpg,pre,o,0.9252050000000054,None,,,,,,,,00027,001,2025-11-17_15h14.33.025,MST_test,2024.2.0,60.05620059247223,2025-11-17 15h14.43.188423 +0530,
122,0,123,s,0.7187191999996685,None,123,0,122,299.6395917,,,,,,,,,,,,,,,,,,,,,,,,,,,,,,,,,,,,,,,,,,,,,,,,,,299.62581599999976,299.6395917,300.1490515999999,300.1238803000001,300.1461585000002,300.1490515999999,300.1490515999999,300.1490515999999,300.87609729999986,Scenes\072b.jpg,post,s,0.7187191999996685,None,,,,,,,,00027,001,2025-11-17_15h14.33.025,MST_test,2024.2.0,60.05620059247223,2025-11-17 15h14.43.188423 +0530,
123,0,124,s,1.3535878000002413,None,124,0,123,300.8895183999998,,,,,,,,,,,,,,,,,,,,,,,,,,,,,,,,,,,,,,,,,,,,,,,,,,300.8764529,300.8895183999998,301.4024165999999,301.3740431000001,301.3993397999998,301.4024165999999,301.4024165999999,301.4024165999999,302.75901399999975,Scenes\125b.jpg,mid,s,1.3535878000002413,None,,,,,,,,00027,001,2025-11-17_15h14.33.025,MST_test,2024.2.0,60.05620059247223,2025-11-17 15h14.43.188423 +0530,
124,0,125,n,0.7983653000001141,None,125,0,124,302.773013,,,,,,,,,,,,,,,,,,,,,,,,,,,,,,,,,,,,,,,,,,,,,,,,,,302.75935470000013,302.773013,303.2767468000002,303.2577646,303.27381609999975,303.2767468000002,303.2767468000002,303.2767468000002,304.0921278999999,Objects\036b.jpg,mid,n,0.7983653000001141,None,,,,,,,,00027,001,2025-11-17_15h14.33.025,MST_test,2024.2.0,60.05620059247223,2025-11-17 15h14.43.188423 +0530,
125,0,126,s,2.0717036999999436,None,126,0,125,304.10633099999995,,,,,,,,,,,,,,,,,,,,,,,,,,,,,,,,,,,,,,,,,,,,,,,,,,304.09246200000007,304.10633099999995,304.6114877,304.59068549999984,304.60920410000017,304.6114877,304.6114877,304.6114877,306.69221830000015,Objects\106b.jpg,pre,s,2.0717036999999436,None,,,,,,,,00027,001,2025-11-17_15h14.33.025,MST_test,2024.2.0,60.05620059247223,2025-11-17 15h14.43.188423 +0530,
126,0,127,n,1.897743999999875,None,127,0,126,306.70649109999977,,,,,,,,,,,,,,,,,,,,,,,,,,,,,,,,,,,,,,,,,,,,,,,,,,306.69258039999977,306.70649109999977,307.2101646000001,307.1905403999999,307.2076453999998,307.2101646000001,307.2101646000001,307.2101646000001,309.12388980000014,Objects\184a.jpg,mid,n,1.897743999999875,None,,,,,,,,00027,001,2025-11-17_15h14.33.025,MST_test,2024.2.0,60.05620059247223,2025-11-17 15h14.43.188423 +0530,
127,0,128,n,0.6955717999999251,None,128,0,127,309.13954269999977,,,,,,,,,,,,,,,,,,,,,,,,,,,,,,,,,,,,,,,,,,,,,,,,,,309.124049,309.13954269999977,309.6445927,309.6242919000001,309.6420880999999,309.6445927,309.6445927,309.6445927,310.34201810000013,Foils\034a.jpg,none,n,0.6955717999999251,None,,,,,,,,00027,001,2025-11-17_15h14.33.025,MST_test,2024.2.0,60.05620059247223,2025-11-17 15h14.43.188423 +0530,
128,0,129,s,1.1583387000000585,None,129,0,128,310.35632840000017,,,,,,,,,,,,,,,,,,,,,,,,,,,,,,,,,,,,,,,,,,,,,,,,,,310.34237140000005,310.35632840000017,310.86902299999974,310.84074469999996,310.86615359999996,310.86902299999974,310.86902299999974,310.86902299999974,312.0416172,Scenes\183b.jpg,mid,s,1.1583387000000585,None,,,,,,,,00027,001,2025-11-17_15h14.33.025,MST_test,2024.2.0,60.05620059247223,2025-11-17 15h14.43.188423 +0530,
129,0,130,n,0.7712388999998439,None,130,0,129,312.05642050000006,,,,,,,,,,,,,,,,,,,,,,,,,,,,,,,,,,,,,,,,,,,,,,,,,,312.0420012999998,312.05642050000006,312.56791829999975,312.54067859999986,312.56462090000014,312.56791829999975,312.56791829999975,312.56791829999975,313.34186020000016,Foils\scenes22.jpg,none,n,0.7712388999998439,None,,,,,,,,00027,001,2025-11-17_15h14.33.025,MST_test,2024.2.0,60.05620059247223,2025-11-17 15h14.43.188423 +0530,
130,0,131,o,0.7185146000001623,None,131,0,130,313.3564075999998,,,,,,,,,,,,,,,,,,,,,,,,,,,,,,,,,,,,,,,,,,,,,,,,,,313.34221530000013,313.3564075999998,313.8611740000001,313.84108430000015,313.85774790000005,313.8611740000001,313.8611740000001,313.8611740000001,314.5919856999999,Objects\022b.jpg,mid,o,0.7185146000001623,None,,,,,,,,00027,001,2025-11-17_15h14.33.025,MST_test,2024.2.0,60.05620059247223,2025-11-17 15h14.43.188423 +0530,
131,0,132,o,0.7124807999998666,None,132,0,131,314.6064673000001,,,,,,,,,,,,,,,,,,,,,,,,,,,,,,,,,,,,,,,,,,,,,,,,,,314.59238289999985,314.6064673000001,315.1065312999999,315.09094479999976,315.0979360000001,315.1065312999999,315.1065312999999,315.1065312999999,315.82563759999994,Objects\133a.jpg,mid,o,0.7124807999998666,None,,,,,,,,00027,001,2025-11-17_15h14.33.025,MST_test,2024.2.0,60.05620059247223,2025-11-17 15h14.43.188423 +0530,
132,0,133,n,0.6998099000002185,None,133,0,132,315.83958489999986,,,,,,,,,,,,,,,,,,,,,,,,,,,,,,,,,,,,,,,,,,,,,,,,,,315.8259444,315.83958489999986,316.34307660000013,316.32451600000013,316.3407854000002,316.34307660000013,316.34307660000013,316.34307660000013,317.05837040000006,Foils\058a.jpg,none,n,0.6998099000002185,None,,,,,,,,00027,001,2025-11-17_15h14.33.025,MST_test,2024.2.0,60.05620059247223,2025-11-17 15h14.43.188423 +0530,
133,0,134,o,0.8696718999999575,None,134,0,133,317.0730417,,,,,,,,,,,,,,,,,,,,,,,,,,,,,,,,,,,,,,,,,,,,,,,,,,317.05884530000003,317.0730417,317.5814974,317.55766200000016,317.5784754000001,317.5814974,317.5814974,317.5814974,318.4590460999998,Scenes\105a.jpg,mid,o,0.8696718999999575,None,,,,,,,,00027,001,2025-11-17_15h14.33.025,MST_test,2024.2.0,60.05620059247223,2025-11-17 15h14.43.188423 +0530,
134,0,135,s,1.5869047000001046,None,135,0,134,318.4730239999999,,,,,,,,,,,,,,,,,,,,,,,,,,,,,,,,,,,,,,,,,,,,,,,,,,318.45938620000015,318.4730239999999,318.9768432000001,318.95802079999976,318.97396960000015,318.9768432000001,318.9768432000001,318.9768432000001,320.57501920000004,Objects\061b.jpg,post,s,1.5869047000001046,None,,,,,,,,00027,001,2025-11-17_15h14.33.025,MST_test,2024.2.0,60.05620059247223,2025-11-17 15h14.43.188423 +0530,
135,0,136,o,0.6820707000001676,None,136,0,135,320.5895645999999,,,,,,,,,,,,,,,,,,,,,,,,,,,,,,,,,,,,,,,,,,,,,,,,,,320.5753457999999,320.5895645999999,321.0898524999998,321.0740286,321.0811171999999,321.0898524999998,321.0898524999998,321.0898524999998,321.7757984,Objects\114a.jpg,mid,o,0.6820707000001676,None,,,,,,,,00027,001,2025-11-17_15h14.33.025,MST_test,2024.2.0,60.05620059247223,2025-11-17 15h14.43.188423 +0530,
136,0,137,o,1.1525370000003932,None,137,0,136,321.7898019999998,,,,,,,,,,,,,,,,,,,,,,,,,,,,,,,,,,,,,,,,,,,,,,,,,,321.7761225999998,321.7898019999998,322.29115649999994,322.2741560999998,322.2884015999998,322.29115649999994,322.29115649999994,322.29115649999994,323.45903610000005,Scenes\004a.jpg,pre,o,1.1525370000003932,None,,,,,,,,00027,001,2025-11-17_15h14.33.025,MST_test,2024.2.0,60.05620059247223,2025-11-17 15h14.43.188423 +0530,
137,0,138,o,0.6637504000000263,None,138,0,137,323.47306849999995,,,,,,,,,,,,,,,,,,,,,,,,,,,,,,,,,,,,,,,,,,,,,,,,,,323.4594155,323.47306849999995,323.98080789999995,323.9578320999999,323.97768659999974,323.98080789999995,323.98080789999995,323.98080789999995,324.65857749999986,Scenes\080b.jpg,pre,o,0.6637504000000263,None,,,,,,,,00027,001,2025-11-17_15h14.33.025,MST_test,2024.2.0,60.05620059247223,2025-11-17 15h14.43.188423 +0530,
138,0,139,o,0.7340409999997064,None,139,0,138,324.6729952999999,,,,,,,,,,,,,,,,,,,,,,,,,,,,,,,,,,,,,,,,,,,,,,,,,,324.6589264999998,324.6729952999999,325.17366249999986,325.1575342000001,325.1651433000002,325.17366249999986,325.17366249999986,325.17366249999986,325.9253103000001,Objects\017a.jpg,post,o,0.7340409999997064,None,,,,,,,,00027,001,2025-11-17_15h14.33.025,MST_test,2024.2.0,60.05620059247223,2025-11-17 15h14.43.188423 +0530,
139,0,140,o,0.5866691999999603,None,140,0,139,325.9396152999998,,,,,,,,,,,,,,,,,,,,,,,,,,,,,,,,,,,,,,,,,,,,,,,,,,325.92567069999996,325.9396152999998,326.4413116999999,326.42436180000004,326.43885420000015,326.4413116999999,326.4413116999999,326.4413116999999,327.0417785999998,Objects\170a.jpg,post,o,0.5866691999999603,None,,,,,,,,00027,001,2025-11-17_15h14.33.025,MST_test,2024.2.0,60.05620059247223,2025-11-17 15h14.43.188423 +0530,
140,0,141,n,0.7000244999999268,None,141,0,140,327.0563440000001,,,,,,,,,,,,,,,,,,,,,,,,,,,,,,,,,,,,,,,,,,,,,,,,,,327.0421388999998,327.0563440000001,327.55905269999994,327.5406340999998,327.5566463,327.55905269999994,327.55905269999994,327.55905269999994,328.27547479999976,Foils\049a.jpg,none,n,0.7000244999999268,None,,,,,,,,00027,001,2025-11-17_15h14.33.025,MST_test,2024.2.0,60.05620059247223,2025-11-17 15h14.43.188423 +0530,
141,0,142,o,1.1642018999996253,None,142,0,141,328.2898375,,,,,,,,,,,,,,,,,,,,,,,,,,,,,,,,,,,,,,,,,,,,,,,,,,328.2758626,328.2898375,328.7910158999998,328.7742468000001,328.7885345999998,328.7910158999998,328.7910158999998,328.7910158999998,329.95855329999995,Objects\056b.jpg,mid,o,1.1642018999996253,None,,,,,,,,00027,001,2025-11-17_15h14.33.025,MST_test,2024.2.0,60.05620059247223,2025-11-17 15h14.43.188423 +0530,
142,0,143,o,1.0261993999997685,None,143,0,142,329.9730045000001,,,,,,,,,,,,,,,,,,,,,,,,,,,,,,,,,,,,,,,,,,,,,,,,,,329.95900010000014,329.9730045000001,330.47351389999994,330.45769070000006,330.4694113999999,330.47351389999994,330.47351389999994,330.47351389999994,331.50842060000014,Foils\scenes1.jpg,none,o,1.0261993999997685,None,,,,,,,,00027,001,2025-11-17_15h14.33.025,MST_test,2024.2.0,60.05620059247223,2025-11-17 15h14.43.188423 +0530,
143,0,144,o,0.8353904999999031,None,144,0,143,331.52301750000015,,,,,,,,,,,,,,,,,,,,,,,,,,,,,,,,,,,,,,,,,,,,,,,,,,331.50882120000006,331.52301750000015,332.0235824000001,332.00748639999983,332.01506059999974,332.0235824000001,332.0235824000001,332.0235824000001,332.8756334999998,Objects\052a.jpg,pre,o,0.8353904999999031,None,,,,,,,,00027,001,2025-11-17_15h14.33.025,MST_test,2024.2.0,60.05620059247223,2025-11-17 15h14.43.188423 +0530,
144,0,145,s,2.6746564000000035,None,145,0,144,332.8898211999999,,,,,,,,,,,,,,,,,,,,,,,,,,,,,,,,,,,,,,,,,,,,,,,,,,332.87596099999973,332.8898211999999,333.39257529999986,333.37433340000007,333.3901934999999,333.39257529999986,333.39257529999986,333.39257529999986,336.0752164999999,Objects\090b.jpg,pre,s,2.6746564000000035,None,,,,,,,,00027,001,2025-11-17_15h14.33.025,MST_test,2024.2.0,60.05620059247223,2025-11-17 15h14.43.188423 +0530,
145,0,146,s,1.3634046000001945,None,146,0,145,336.0895402000001,,,,,,,,,,,,,,,,,,,,,,,,,,,,,,,,,,,,,,,,,,,,,,,,,,336.0756077000001,336.0895402000001,336.59286599999996,336.57399989999976,336.5906448999999,336.59286599999996,336.59286599999996,336.59286599999996,337.95868530000007,Objects\140b.jpg,post,s,1.3634046000001945,None,,,,,,,,00027,001,2025-11-17_15h14.33.025,MST_test,2024.2.0,60.05620059247223,2025-11-17 15h14.43.188423 +0530,
146,0,147,s,1.2011130999999295,None,147,0,146,337.9729708,,,,,,,,,,,,,,,,,,,,,,,,,,,,,,,,,,,,,,,,,,,,,,,,,,337.9589532,337.9729708,338.4748733000001,338.4574459999999,338.47215270000015,338.4748733000001,338.4748733000001,338.4748733000001,339.6917050000002,Scenes\090a.jpg,pre,s,1.2011130999999295,None,,,,,,,,00027,001,2025-11-17_15h14.33.025,MST_test,2024.2.0,60.05620059247223,2025-11-17 15h14.43.188423 +0530,
147,0,148,o,0.8532195000002503,None,148,0,147,339.7065047000001,,,,,,,,,,,,,,,,,,,,,,,,,,,,,,,,,,,,,,,,,,,,,,,,,,339.69209899999987,339.7065047000001,340.21418270000004,340.1906445999998,340.2111132,340.21418270000004,340.21418270000004,340.21418270000004,341.0758292999999,Scenes\167a.jpg,mid,o,0.8532195000002503,None,,,,,,,,00027,001,2025-11-17_15h14.33.025,MST_test,2024.2.0,60.05620059247223,2025-11-17 15h14.43.188423 +0530,
148,0,149,s,0.6883190999997169,None,149,0,148,341.0896085999998,,,,,,,,,,,,,,,,,,,,,,,,,,,,,,,,,,,,,,,,,,,,,,,,,,341.0761784000001,341.0896085999998,341.59534380000014,341.57441329999983,341.59235499999977,341.59534380000014,341.59534380000014,341.59534380000014,342.29179479999993,Foils\082a.jpg,none,s,0.6883190999997169,None,,,,,,,,00027,001,2025-11-17_15h14.33.025,MST_test,2024.2.0,60.05620059247223,2025-11-17 15h14.43.188423 +0530,
149,0,150,s,1.0085244999995666,None,150,0,149,342.30639340000016,,,,,,,,,,,,,,,,,,,,,,,,,,,,,,,,,,,,,,,,,,,,,,,,,,342.29218709999986,342.30639340000016,342.81887270000016,342.7907283999998,342.81597180000017,342.81887270000016,342.81887270000016,342.81887270000016,343.84226709999984,Scenes\078b.jpg,mid,s,1.0085244999995666,None,,,,,,,,00027,001,2025-11-17_15h14.33.025,MST_test,2024.2.0,60.05620059247223,2025-11-17 15h14.43.188423 +0530,
,,,,,,,,,,,,,,,,,,,,,,,,,,,,,,,,,,,,,,,,,,,,,,,,,,,,,,,,,,,,,,,,,,,,,,,,,343.8424879999998,343.8564078999998,343.8564078999998,345.7918199999999,space,1.9313820999996096,None,00027,001,2025-11-17_15h14.33.025,MST_test,2024.2.0,60.05620059247223,2025-11-17 15h14.43.188423 +0530,
