thisN,thisTrialN,thisRepN,key_resp_3.keys,key_resp_3.rt,key_resp_3.duration,trials.thisRepN,trials.thisTrialN,trials.thisN,thisRow.t,notes,intro_page.started,text.started,key_resp.started,intro_page.stopped,key_resp.keys,key_resp.rt,key_resp.duration,instructions.started,text_2.started,key_resp_2.started,instructions.stopped,key_resp_2.keys,key_resp_2.rt,key_resp_2.duration,demo1.started,image_1.started,image_2.started,text_7.started,key_resp_6.started,text_9.started,demo1.stopped,key_resp_6.keys,key_resp_6.rt,key_resp_6.duration,demo2.started,image_5.started,image_6.started,text_11.started,text_12.started,key_resp_8.started,demo2.stopped,key_resp_8.keys,key_resp_8.rt,key_resp_8.duration,demo_conclusion.started,text_13.started,key_resp_9.started,demo_conclusion.stopped,key_resp_9.keys,key_resp_9.rt,key_resp_9.duration,start_test.started,text_6.started,key_resp_5.started,start_test.stopped,key_resp_5.keys,key_resp_5.rt,key_resp_5.duration,ISI.started,text_4.started,text_4.stopped,ISI.stopped,routine_1.started,image.started,text_3.started,key_resp_3.started,routine_1.stopped,image_path,position_of_stimuli,trials.key_resp_3.keys,trials.key_resp_3.rt,trials.key_resp_3.duration,End_page.started,text_5.started,key_resp_4.started,End_page.stopped,key_resp_4.keys,key_resp_4.rt,key_resp_4.duration,participant,session,date,expName,psychopyVersion,frameRate,expStart,
,,,,,,,,,,,0.0017569000010553282,0.003904500001226552,0.003904500001226552,9.50971170000048,space,9.490704499999993,None,,,,,,,,,,,,,,,,,,,,,,,,,,,,,,,,,,,,,,,,,,,,,,,,,,,,,,,,,,,,,,,00029,001,2025-11-17_20h24.42.007,MST_test,2024.2.0,59.872101217556306,2025-11-17 20h24.48.520233 +0530,
,,,,,,,,,,,,,,,,,,9.509773300000234,9.524940600000264,9.524940600000264,35.32215240000005,space,25.785249399999884,None,,,,,,,,,,,,,,,,,,,,,,,,,,,,,,,,,,,,,,,,,,,,,,,,,,,,,,,,00029,001,2025-11-17_20h24.42.007,MST_test,2024.2.0,59.872101217556306,2025-11-17 20h24.48.520233 +0530,
,,,,,,,,,,,,,,,,,,,,,,,,,35.32225290000133,35.33878440000262,35.33878440000262,35.33878440000262,35.33878440000262,35.33878440000262,57.622966000002634,space,22.2753687000004,None,,,,,,,,,,,,,,,,,,,,,,,,,,,,,,,,,,,,,,,,,,,,,,00029,001,2025-11-17_20h24.42.007,MST_test,2024.2.0,59.872101217556306,2025-11-17 20h24.48.520233 +0530,
,,,,,,,,,,,,,,,,,,,,,,,,,,,,,,,,,,,57.623110300002736,57.63760840000032,57.63760840000032,57.63760840000032,57.63760840000032,57.63760840000032,72.08915560000241,space,14.448648699999467,None,,,,,,,,,,,,,,,,,,,,,,,,,,,,,,,,,,,,00029,001,2025-11-17_20h24.42.007,MST_test,2024.2.0,59.872101217556306,2025-11-17 20h24.48.520233 +0530,
,,,,,,,,,,,,,,,,,,,,,,,,,,,,,,,,,,,,,,,,,,,,,72.08925670000099,72.10369950000313,72.10369950000313,102.82259150000027,space,30.710405900001206,None,,,,,,,,,,,,,,,,,,,,,,,,,,,,,00029,001,2025-11-17_20h24.42.007,MST_test,2024.2.0,59.872101217556306,2025-11-17 20h24.48.520233 +0530,
,,,,,,,,,,,,,,,,,,,,,,,,,,,,,,,,,,,,,,,,,,,,,,,,,,,,102.82270290000088,102.83720840000024,102.83720840000024,123.52247060000082,space,20.67328970000017,None,,,,,,,,,,,,,,,,,,,,,,00029,001,2025-11-17_20h24.42.007,MST_test,2024.2.0,59.872101217556306,2025-11-17 20h24.48.520233 +0530,
0,0,1,s,10.907061600002635,None,1,0,0,123.53675040000235,,,,,,,,,,,,,,,,,,,,,,,,,,,,,,,,,,,,,,,,,,,,,,,,,,123.53081089999978,123.53675040000235,124.0669618000029,124.02164510000148,124.06404770000154,124.0669618000029,124.0669618000029,124.0669618000029,134.98944420000043,Objects\163b.jpg,mid,s,10.907061600002635,None,,,,,,,,00029,001,2025-11-17_20h24.42.007,MST_test,2024.2.0,59.872101217556306,2025-11-17 20h24.48.520233 +0530,
1,0,2,s,3.95575319999989,None,2,0,1,135.00367390000247,,,,,,,,,,,,,,,,,,,,,,,,,,,,,,,,,,,,,,,,,,,,,,,,,,134.98977520000335,135.00367390000247,135.53043940000134,135.48830120000275,135.52743220000048,135.53043940000134,135.53043940000134,135.53043940000134,139.48951510000188,Scenes\138b.jpg,pre,s,3.95575319999989,None,,,,,,,,00029,001,2025-11-17_20h24.42.007,MST_test,2024.2.0,59.872101217556306,2025-11-17 20h24.48.520233 +0530,
2,0,3,s,7.066597799999727,None,3,0,2,139.5038306000024,,,,,,,,,,,,,,,,,,,,,,,,,,,,,,,,,,,,,,,,,,,,,,,,,,139.4898428000015,139.5038306000024,140.0039530000031,139.98848940000244,139.9992794000027,140.0039530000031,140.0039530000031,140.0039530000031,147.07385040000008,Objects\154a.jpg,mid,s,7.066597799999727,None,,,,,,,,00029,001,2025-11-17_20h24.42.007,MST_test,2024.2.0,59.872101217556306,2025-11-17 20h24.48.520233 +0530,
3,0,4,s,2.7385863000017707,None,4,0,3,147.08719800000108,,,,,,,,,,,,,,,,,,,,,,,,,,,,,,,,,,,,,,,,,,,,,,,,,,147.07424380000157,147.08719800000108,147.58770760000334,147.57155030000285,147.57762710000316,147.58770760000334,147.58770760000334,147.58770760000334,150.33942610000304,Foils\scenes8.jpg,none,s,2.7385863000017707,None,,,,,,,,00029,001,2025-11-17_20h24.42.007,MST_test,2024.2.0,59.872101217556306,2025-11-17 20h24.48.520233 +0530,
4,0,5,o,6.104382800000167,None,5,0,4,150.35375820000263,,,,,,,,,,,,,,,,,,,,,,,,,,,,,,,,,,,,,,,,,,,,,,,,,,150.3397240000013,150.35375820000263,150.85411410000233,150.83854990000327,150.84654030000092,150.85411410000233,150.85411410000233,150.85411410000233,156.97279680000065,Objects\072a.jpg,post,o,6.104382800000167,None,,,,,,,,00029,001,2025-11-17_20h24.42.007,MST_test,2024.2.0,59.872101217556306,2025-11-17 20h24.48.520233 +0530,
5,0,6,s,2.481631799997558,None,6,0,5,156.98719830000118,,,,,,,,,,,,,,,,,,,,,,,,,,,,,,,,,,,,,,,,,,,,,,,,,,156.97320400000172,156.98719830000118,157.49354700000185,157.47171830000298,157.49109450000105,157.49354700000185,157.49354700000185,157.49354700000185,159.9895701000023,Objects\102b.jpg,mid,s,2.481631799997558,None,,,,,,,,00029,001,2025-11-17_20h24.42.007,MST_test,2024.2.0,59.872101217556306,2025-11-17 20h24.48.520233 +0530,
6,0,7,s,1.945612200001051,None,7,0,6,160.00381630000265,,,,,,,,,,,,,,,,,,,,,,,,,,,,,,,,,,,,,,,,,,,,,,,,,,159.9899953000022,160.00381630000265,160.5165526000019,160.48829810000097,160.51353070000187,160.5165526000019,160.5165526000019,160.5165526000019,162.4729812000005,Scenes\107b.jpg,pre,s,1.945612200001051,None,,,,,,,,00029,001,2025-11-17_20h24.42.007,MST_test,2024.2.0,59.872101217556306,2025-11-17 20h24.48.520233 +0530,
7,0,8,s,1.7786980999990192,None,8,0,7,162.48728090000077,,,,,,,,,,,,,,,,,,,,,,,,,,,,,,,,,,,,,,,,,,,,,,,,,,162.473381900003,162.48728090000077,162.98775100000057,162.97161150000102,162.98205510000116,162.98775100000057,162.98775100000057,162.98775100000057,164.7728422,Scenes\087a.jpg,pre,s,1.7786980999990192,None,,,,,,,,00029,001,2025-11-17_20h24.42.007,MST_test,2024.2.0,59.872101217556306,2025-11-17 20h24.48.520233 +0530,
8,0,9,o,1.4915820999995049,None,9,0,8,164.78706200000306,,,,,,,,,,,,,,,,,,,,,,,,,,,,,,,,,,,,,,,,,,,,,,,,,,164.7731687000014,164.78706200000306,165.290824300002,165.27177470000242,165.2874202000021,165.290824300002,165.290824300002,165.290824300002,166.7896013999998,Scenes\003a.jpg,pre,o,1.4915820999995049,None,,,,,,,,00029,001,2025-11-17_20h24.42.007,MST_test,2024.2.0,59.872101217556306,2025-11-17 20h24.48.520233 +0530,
9,0,10,o,2.022256500000367,None,10,0,9,166.80385320000278,,,,,,,,,,,,,,,,,,,,,,,,,,,,,,,,,,,,,,,,,,,,,,,,,,166.78993090000222,166.80385320000278,167.30451350000294,167.2883615000028,167.29858200000308,167.30451350000294,167.30451350000294,167.30451350000294,169.339160800002,Scenes\096a.jpg,mid,o,2.022256500000367,None,,,,,,,,00029,001,2025-11-17_20h24.42.007,MST_test,2024.2.0,59.872101217556306,2025-11-17 20h24.48.520233 +0530,
10,0,11,o,2.975310300000274,None,11,0,10,169.3537111000005,,,,,,,,,,,,,,,,,,,,,,,,,,,,,,,,,,,,,,,,,,,,,,,,,,169.3394791000028,169.3537111000005,169.85580960000152,169.83813170000212,169.85288950000177,169.85580960000152,169.85580960000152,169.85580960000152,172.83915720000005,Scenes\031a.jpg,pre,o,2.975310300000274,None,,,,,,,,00029,001,2025-11-17_20h24.42.007,MST_test,2024.2.0,59.872101217556306,2025-11-17 20h24.48.520233 +0530,
11,0,12,n,4.438346400002047,None,12,0,11,172.8537077000001,,,,,,,,,,,,,,,,,,,,,,,,,,,,,,,,,,,,,,,,,,,,,,,,,,172.8395135000028,172.8537077000001,173.3604587000009,173.3381681000028,173.35742759999994,173.3604587000009,173.3604587000009,173.3604587000009,177.80574320000233,Scenes\144b.jpg,post,n,4.438346400002047,None,,,,,,,,00029,001,2025-11-17_20h24.42.007,MST_test,2024.2.0,59.872101217556306,2025-11-17 20h24.48.520233 +0530,
12,0,13,n,2.9497042000002693,None,13,0,12,177.8201794000015,,,,,,,,,,,,,,,,,,,,,,,,,,,,,,,,,,,,,,,,,,,,,,,,,,177.8060626000006,177.8201794000015,178.3214091000009,178.30498330000046,178.3184390000024,178.3214091000009,178.3214091000009,178.3214091000009,181.27303510000274,Foils\scenes3.jpg,none,n,2.9497042000002693,None,,,,,,,,00029,001,2025-11-17_20h24.42.007,MST_test,2024.2.0,59.872101217556306,2025-11-17 20h24.48.520233 +0530,
13,0,14,n,3.2673895999978413,None,14,0,13,181.28705730000001,,,,,,,,,,,,,,,,,,,,,,,,,,,,,,,,,,,,,,,,,,,,,,,,,,181.27343490000203,181.28705730000001,181.78753580000193,181.7713775000011,181.77745010000217,181.78753580000193,181.78753580000193,181.78753580000193,185.05685730000187,Foils\scenes19.jpg,none,n,3.2673895999978413,None,,,,,,,,00029,001,2025-11-17_20h24.42.007,MST_test,2024.2.0,59.872101217556306,2025-11-17 20h24.48.520233 +0530,
14,0,15,s,9.468179399998917,None,15,0,14,185.0702556000033,,,,,,,,,,,,,,,,,,,,,,,,,,,,,,,,,,,,,,,,,,,,,,,,,,185.05722190000233,185.0702556000033,185.57059740000113,185.55469160000212,185.56265429999985,185.57059740000113,185.57059740000113,185.57059740000113,195.0560191000004,Objects\173a.jpg,post,s,9.468179399998917,None,,,,,,,,00029,001,2025-11-17_20h24.42.007,MST_test,2024.2.0,59.872101217556306,2025-11-17 20h24.48.520233 +0530,
15,0,16,s,1.3773589999982505,None,16,0,15,195.07027110000126,,,,,,,,,,,,,,,,,,,,,,,,,,,,,,,,,,,,,,,,,,,,,,,,,,195.05640219999987,195.07027110000126,195.57320710000204,195.5549546000002,195.57097030000295,195.57320710000204,195.57320710000204,195.57320710000204,196.9563541000025,Objects\054b.jpg,mid,s,1.3773589999982505,None,,,,,,,,00029,001,2025-11-17_20h24.42.007,MST_test,2024.2.0,59.872101217556306,2025-11-17 20h24.48.520233 +0530,
16,0,17,s,1.4985315000012633,None,17,0,16,196.97038729999986,,,,,,,,,,,,,,,,,,,,,,,,,,,,,,,,,,,,,,,,,,,,,,,,,,196.95677320000323,196.97038729999986,197.71590330000254,197.45474430000104,197.70958200000314,197.71590330000254,197.71590330000254,197.71590330000254,199.22288160000244,Foils\scenes26.jpg,none,s,1.4985315000012633,None,,,,,,,,00029,001,2025-11-17_20h24.42.007,MST_test,2024.2.0,59.872101217556306,2025-11-17 20h24.48.520233 +0530,
17,0,18,n,2.019772900002863,None,18,0,17,199.23695380000208,,,,,,,,,,,,,,,,,,,,,,,,,,,,,,,,,,,,,,,,,,,,,,,,,,199.22320590000163,199.23695380000208,199.77817960000175,199.72171180000078,199.77560950000043,199.77817960000175,199.77817960000175,199.77817960000175,201.806040200001,Foils\073a.jpg,none,n,2.019772900002863,None,,,,,,,,00029,001,2025-11-17_20h24.42.007,MST_test,2024.2.0,59.872101217556306,2025-11-17 20h24.48.520233 +0530,
18,0,19,s,1.2135220999989542,None,19,0,18,201.82038509999984,,,,,,,,,,,,,,,,,,,,,,,,,,,,,,,,,,,,,,,,,,,,,,,,,,201.80641130000004,201.82038509999984,202.3206336000003,202.30481390000205,202.31357720000233,202.3206336000003,202.3206336000003,202.3206336000003,203.53927110000222,Objects\037b.jpg,pre,s,1.2135220999989542,None,,,,,,,,00029,001,2025-11-17_20h24.42.007,MST_test,2024.2.0,59.872101217556306,2025-11-17 20h24.48.520233 +0530,
19,0,20,s,1.1105640999994648,None,20,0,19,203.55356870000105,,,,,,,,,,,,,,,,,,,,,,,,,,,,,,,,,,,,,,,,,,,,,,,,,,203.53954320000048,203.55356870000105,204.05599130000337,204.03848930000095,204.05356790000224,204.05599130000337,204.05599130000337,204.05599130000337,205.17240420000235,Objects\133b.jpg,mid,s,1.1105640999994648,None,,,,,,,,00029,001,2025-11-17_20h24.42.007,MST_test,2024.2.0,59.872101217556306,2025-11-17 20h24.48.520233 +0530,
20,0,21,s,1.9986485999979777,None,21,0,20,205.18702490000214,,,,,,,,,,,,,,,,,,,,,,,,,,,,,,,,,,,,,,,,,,,,,,,,,,205.17270220000137,205.18702490000214,205.68773730000248,205.67160820000208,205.68472770000153,205.68773730000248,205.68773730000248,205.68773730000248,207.6897652000007,Scenes\188b.jpg,mid,s,1.9986485999979777,None,,,,,,,,00029,001,2025-11-17_20h24.42.007,MST_test,2024.2.0,59.872101217556306,2025-11-17 20h24.48.520233 +0530,
21,0,22,s,2.031795399998373,None,22,0,21,207.7036349000009,,,,,,,,,,,,,,,,,,,,,,,,,,,,,,,,,,,,,,,,,,,,,,,,,,207.69013200000336,207.7036349000009,208.21460790000128,208.1884127000012,208.21163220000017,208.21460790000128,208.21460790000128,208.21460790000128,210.25648,Scenes\175b.jpg,pre,s,2.031795399998373,None,,,,,,,,00029,001,2025-11-17_20h24.42.007,MST_test,2024.2.0,59.872101217556306,2025-11-17 20h24.48.520233 +0530,
22,0,23,n,2.40853590000188,None,23,0,22,210.27050710000185,,,,,,,,,,,,,,,,,,,,,,,,,,,,,,,,,,,,,,,,,,,,,,,,,,210.25684710000132,210.27050710000185,210.7815401000007,210.75468340000225,210.77842440000313,210.7815401000007,210.7815401000007,210.7815401000007,213.205952100001,Scenes\190b.jpg,post,n,2.40853590000188,None,,,,,,,,00029,001,2025-11-17_20h24.42.007,MST_test,2024.2.0,59.872101217556306,2025-11-17 20h24.48.520233 +0530,
23,0,24,o,1.685470799999166,None,24,0,23,213.22036740000112,,,,,,,,,,,,,,,,,,,,,,,,,,,,,,,,,,,,,,,,,,,,,,,,,,213.20633160000216,213.22036740000112,213.72116690000257,213.70461280000018,213.71260000000257,213.72116690000257,213.72116690000257,213.72116690000257,215.4218585000017,Objects\089a.jpg,post,o,1.685470799999166,None,,,,,,,,00029,001,2025-11-17_20h24.42.007,MST_test,2024.2.0,59.872101217556306,2025-11-17 20h24.48.520233 +0530,
24,0,25,o,2.3172501000008197,None,25,0,24,215.43710120000105,,,,,,,,,,,,,,,,,,,,,,,,,,,,,,,,,,,,,,,,,,,,,,,,,,215.42210350000096,215.43710120000105,215.93709640000088,215.92165210000167,215.92823000000135,215.93709640000088,215.93709640000088,215.93709640000088,218.25645400000212,Objects\120a.jpg,post,o,2.3172501000008197,None,,,,,,,,00029,001,2025-11-17_20h24.42.007,MST_test,2024.2.0,59.872101217556306,2025-11-17 20h24.48.520233 +0530,
25,0,26,n,2.8118678999999247,None,26,0,25,218.27049480000278,,,,,,,,,,,,,,,,,,,,,,,,,,,,,,,,,,,,,,,,,,,,,,,,,,218.25684040000124,218.27049480000278,218.77058820000093,218.75472110000192,218.76217210000323,218.77058820000093,218.77058820000093,218.77058820000093,221.5896896000013,Foils\121a.jpg,none,n,2.8118678999999247,None,,,,,,,,00029,001,2025-11-17_20h24.42.007,MST_test,2024.2.0,59.872101217556306,2025-11-17 20h24.48.520233 +0530,
26,0,27,s,1.7088478000005125,None,27,0,26,221.6037376000022,,,,,,,,,,,,,,,,,,,,,,,,,,,,,,,,,,,,,,,,,,,,,,,,,,221.59008170000016,221.6037376000022,222.1052763000007,222.0884705000026,222.10233780000272,222.1052763000007,222.1052763000007,222.1052763000007,223.8232648000012,Scenes\146a.jpg,mid,s,1.7088478000005125,None,,,,,,,,00029,001,2025-11-17_20h24.42.007,MST_test,2024.2.0,59.872101217556306,2025-11-17 20h24.48.520233 +0530,
27,0,28,s,2.392352499999106,None,28,0,27,223.83718399999998,,,,,,,,,,,,,,,,,,,,,,,,,,,,,,,,,,,,,,,,,,,,,,,,,,223.82367010000235,223.83718399999998,224.34974250000232,224.32128410000223,224.3468204000019,224.34974250000232,224.34974250000232,224.34974250000232,226.75617070000226,Scenes\068b.jpg,mid,s,2.392352499999106,None,,,,,,,,00029,001,2025-11-17_20h24.42.007,MST_test,2024.2.0,59.872101217556306,2025-11-17 20h24.48.520233 +0530,
28,0,29,s,1.1697143999990658,None,29,0,28,226.7705870000027,,,,,,,,,,,,,,,,,,,,,,,,,,,,,,,,,,,,,,,,,,,,,,,,,,226.75657430000138,226.7705870000027,227.27636920000077,227.25473650000276,227.2735722000034,227.27636920000077,227.27636920000077,227.27636920000077,228.4556201000014,Objects\092b.jpg,pre,s,1.1697143999990658,None,,,,,,,,00029,001,2025-11-17_20h24.42.007,MST_test,2024.2.0,59.872101217556306,2025-11-17 20h24.48.520233 +0530,
29,0,30,s,1.650852800001303,None,30,0,29,228.47033480000027,,,,,,,,,,,,,,,,,,,,,,,,,,,,,,,,,,,,,,,,,,,,,,,,,,228.4560268000023,228.47033480000027,228.97156360000008,228.95493760000318,228.9678750000021,228.97156360000008,228.97156360000008,228.97156360000008,230.63818950000132,Scenes\141a.jpg,post,s,1.650852800001303,None,,,,,,,,00029,001,2025-11-17_20h24.42.007,MST_test,2024.2.0,59.872101217556306,2025-11-17 20h24.48.520233 +0530,
30,0,31,n,2.056666499996936,None,31,0,30,230.65354389999993,,,,,,,,,,,,,,,,,,,,,,,,,,,,,,,,,,,,,,,,,,,,,,,,,,230.63837210000202,230.65354389999993,231.15770200000043,231.1381891000019,231.15478110000186,231.15770200000043,231.15770200000043,231.15770200000043,233.22268320000148,Foils\090a.jpg,none,n,2.056666499996936,None,,,,,,,,00029,001,2025-11-17_20h24.42.007,MST_test,2024.2.0,59.872101217556306,2025-11-17 20h24.48.520233 +0530,
31,0,32,s,1.2771041999985755,None,32,0,31,233.23703390000082,,,,,,,,,,,,,,,,,,,,,,,,,,,,,,,,,,,,,,,,,,,,,,,,,,233.22305210000195,233.23703390000082,233.74539860000004,233.72146890000295,233.74254680000013,233.74539860000004,233.74539860000004,233.74539860000004,235.03939900000114,Scenes\180b.jpg,post,s,1.2771041999985755,None,,,,,,,,00029,001,2025-11-17_20h24.42.007,MST_test,2024.2.0,59.872101217556306,2025-11-17 20h24.48.520233 +0530,
32,0,33,n,3.1470881999994162,None,33,0,32,235.05353220000325,,,,,,,,,,,,,,,,,,,,,,,,,,,,,,,,,,,,,,,,,,,,,,,,,,235.03975700000228,235.05353220000325,235.5554347000034,235.5382273000032,235.5524781000022,235.5554347000034,235.5554347000034,235.5554347000034,238.70583660000193,Foils\082a.jpg,none,n,3.1470881999994162,None,,,,,,,,00029,001,2025-11-17_20h24.42.007,MST_test,2024.2.0,59.872101217556306,2025-11-17 20h24.48.520233 +0530,
33,0,34,s,1.24189970000225,None,34,0,33,238.7201511000021,,,,,,,,,,,,,,,,,,,,,,,,,,,,,,,,,,,,,,,,,,,,,,,,,,238.70613500000036,238.7201511000021,239.2205126000008,239.20491120000224,239.2113003000013,239.2205126000008,239.2205126000008,239.2205126000008,240.47235990000263,Objects\067a.jpg,mid,s,1.24189970000225,None,,,,,,,,00029,001,2025-11-17_20h24.42.007,MST_test,2024.2.0,59.872101217556306,2025-11-17 20h24.48.520233 +0530,
34,0,35,s,2.369218700001511,None,35,0,34,240.48699950000082,,,,,,,,,,,,,,,,,,,,,,,,,,,,,,,,,,,,,,,,,,,,,,,,,,240.47263920000114,240.48699950000082,240.99695880000218,240.97131120000267,240.9938351000019,240.99695880000218,240.99695880000218,240.99695880000218,243.37118900000132,Scenes\156b.jpg,pre,s,2.369218700001511,None,,,,,,,,00029,001,2025-11-17_20h24.42.007,MST_test,2024.2.0,59.872101217556306,2025-11-17 20h24.48.520233 +0530,
35,0,36,s,1.3317649000018719,None,36,0,35,243.38686920000328,,,,,,,,,,,,,,,,,,,,,,,,,,,,,,,,,,,,,,,,,,,,,,,,,,243.37133910000193,243.38686920000328,243.89011050000045,243.87189840000065,243.8871730000028,243.89011050000045,243.89011050000045,243.89011050000045,245.2394712000023,Objects\160b.jpg,post,s,1.3317649000018719,None,,,,,,,,00029,001,2025-11-17_20h24.42.007,MST_test,2024.2.0,59.872101217556306,2025-11-17 20h24.48.520233 +0530,
36,0,37,s,1.2094855000032112,None,37,0,36,245.25363740000103,,,,,,,,,,,,,,,,,,,,,,,,,,,,,,,,,,,,,,,,,,,,,,,,,,245.23986030000015,245.25363740000103,245.75661580000087,245.7382991000013,245.75393540000005,245.75661580000087,245.75661580000087,245.75661580000087,246.97287540000252,Scenes\097b.jpg,mid,s,1.2094855000032112,None,,,,,,,,00029,001,2025-11-17_20h24.42.007,MST_test,2024.2.0,59.872101217556306,2025-11-17 20h24.48.520233 +0530,
37,0,38,o,2.5664882000019134,None,38,0,37,246.98706650000167,,,,,,,,,,,,,,,,,,,,,,,,,,,,,,,,,,,,,,,,,,,,,,,,,,246.97328760000164,246.98706650000167,247.4875675000003,247.47160179999992,247.48050830000284,247.4875675000003,247.4875675000003,247.4875675000003,250.0564035000025,Objects\188a.jpg,post,o,2.5664882000019134,None,,,,,,,,00029,001,2025-11-17_20h24.42.007,MST_test,2024.2.0,59.872101217556306,2025-11-17 20h24.48.520233 +0530,
38,0,39,s,5.024723200000153,None,39,0,38,250.07043340000018,,,,,,,,,,,,,,,,,,,,,,,,,,,,,,,,,,,,,,,,,,,,,,,,,,250.05681520000144,250.07043340000018,250.58134390000123,250.5547037000033,250.57839270000113,250.58134390000123,250.58134390000123,250.58134390000123,255.62299540000095,Scenes\160b.jpg,post,s,5.024723200000153,None,,,,,,,,00029,001,2025-11-17_20h24.42.007,MST_test,2024.2.0,59.872101217556306,2025-11-17 20h24.48.520233 +0530,
39,0,40,s,3.336726200002886,None,40,0,39,255.6370476000011,,,,,,,,,,,,,,,,,,,,,,,,,,,,,,,,,,,,,,,,,,,,,,,,,,255.62339590000192,255.6370476000011,256.1497285000005,256.1215603000019,256.14678560000175,256.1497285000005,256.1497285000005,256.1497285000005,259.4902002000017,Scenes\054b.jpg,pre,s,3.336726200002886,None,,,,,,,,00029,001,2025-11-17_20h24.42.007,MST_test,2024.2.0,59.872101217556306,2025-11-17 20h24.48.520233 +0530,
40,0,41,n,2.4740080000010494,None,41,0,40,259.50368340000205,,,,,,,,,,,,,,,,,,,,,,,,,,,,,,,,,,,,,,,,,,,,,,,,,,259.49049930000183,259.50368340000205,260.00437330000204,259.98821920000046,259.99600770000325,260.00437330000204,260.00437330000204,260.00437330000204,262.4893187000016,Foils\scenes30.jpg,none,n,2.4740080000010494,None,,,,,,,,00029,001,2025-11-17_20h24.42.007,MST_test,2024.2.0,59.872101217556306,2025-11-17 20h24.48.520233 +0530,
41,0,42,o,2.162373300001491,None,42,0,41,262.5037547000029,,,,,,,,,,,,,,,,,,,,,,,,,,,,,,,,,,,,,,,,,,,,,,,,,,262.48971750000055,262.5037547000029,263.0041134000021,262.98823489999995,262.9955703000014,263.0041134000021,263.0041134000021,263.0041134000021,265.1726204000006,Objects\149a.jpg,post,o,2.162373300001491,None,,,,,,,,00029,001,2025-11-17_20h24.42.007,MST_test,2024.2.0,59.872101217556306,2025-11-17 20h24.48.520233 +0530,
42,0,43,n,1.7261976000008872,None,43,0,42,265.1871594000004,,,,,,,,,,,,,,,,,,,,,,,,,,,,,,,,,,,,,,,,,,,,,,,,,,265.17294519999996,265.1871594000004,265.68772060000265,265.6716441000026,265.6776404000011,265.68772060000265,265.68772060000265,265.68772060000265,267.42293730000165,Foils\scenes18.jpg,none,n,1.7261976000008872,None,,,,,,,,00029,001,2025-11-17_20h24.42.007,MST_test,2024.2.0,59.872101217556306,2025-11-17 20h24.48.520233 +0530,
43,0,44,s,3.387726000000839,None,44,0,43,267.4371463000025,,,,,,,,,,,,,,,,,,,,,,,,,,,,,,,,,,,,,,,,,,,,,,,,,,267.4232883000004,267.4371463000025,267.9467070999999,267.92173120000007,267.94390700000076,267.9467070999999,267.9467070999999,267.9467070999999,271.34010750000016,Scenes\173b.jpg,mid,s,3.387726000000839,None,,,,,,,,00029,001,2025-11-17_20h24.42.007,MST_test,2024.2.0,59.872101217556306,2025-11-17 20h24.48.520233 +0530,
44,0,45,n,2.421849199999997,None,45,0,44,271.35375360000035,,,,,,,,,,,,,,,,,,,,,,,,,,,,,,,,,,,,,,,,,,,,,,,,,,271.3404943000023,271.35375360000035,271.8565316000022,271.838413700003,271.85426230000303,271.8565316000022,271.8565316000022,271.8565316000022,274.2893694000013,Foils\scenes13.jpg,none,n,2.421849199999997,None,,,,,,,,00029,001,2025-11-17_20h24.42.007,MST_test,2024.2.0,59.872101217556306,2025-11-17 20h24.48.520233 +0530,
45,0,46,n,1.714723099998082,None,46,0,45,274.3036577000021,,,,,,,,,,,,,,,,,,,,,,,,,,,,,,,,,,,,,,,,,,,,,,,,,,274.2897546000022,274.3036577000021,274.8040312000012,274.7880836000004,274.7950168000025,274.8040312000012,274.8040312000012,274.8040312000012,276.5229454,Foils\scenes17.jpg,none,n,1.714723099998082,None,,,,,,,,00029,001,2025-11-17_20h24.42.007,MST_test,2024.2.0,59.872101217556306,2025-11-17 20h24.48.520233 +0530,
46,0,47,o,1.2489671999974234,None,47,0,46,276.53721399999995,,,,,,,,,,,,,,,,,,,,,,,,,,,,,,,,,,,,,,,,,,,,,,,,,,276.52324540000336,276.53721399999995,277.037435000002,277.0216247000026,277.02891440000167,277.037435000002,277.037435000002,277.037435000002,278.2895647000005,Objects\182a.jpg,pre,o,1.2489671999974234,None,,,,,,,,00029,001,2025-11-17_20h24.42.007,MST_test,2024.2.0,59.872101217556306,2025-11-17 20h24.48.520233 +0530,
47,0,48,n,1.537798000001203,None,48,0,47,278.30375410000124,,,,,,,,,,,,,,,,,,,,,,,,,,,,,,,,,,,,,,,,,,,,,,,,,,278.2899157000029,278.30375410000124,278.8041043000012,278.78814430000057,278.7972535000008,278.8041043000012,278.8041043000012,278.8041043000012,280.35628610000276,Foils\106a.jpg,none,n,1.537798000001203,None,,,,,,,,00029,001,2025-11-17_20h24.42.007,MST_test,2024.2.0,59.872101217556306,2025-11-17 20h24.48.520233 +0530,
48,0,49,s,1.7899326999977347,None,49,0,48,280.37059800000134,,,,,,,,,,,,,,,,,,,,,,,,,,,,,,,,,,,,,,,,,,,,,,,,,,280.3566518000007,280.37059800000134,280.8725289000031,280.85484610000276,280.87004650000017,280.8725289000031,280.8725289000031,280.8725289000031,282.6732241000027,Objects\001b.jpg,post,s,1.7899326999977347,None,,,,,,,,00029,001,2025-11-17_20h24.42.007,MST_test,2024.2.0,59.872101217556306,2025-11-17 20h24.48.520233 +0530,
49,0,50,s,3.0347266999997373,None,50,0,49,282.687184800001,,,,,,,,,,,,,,,,,,,,,,,,,,,,,,,,,,,,,,,,,,,,,,,,,,282.67360440000266,282.687184800001,283.1872758999998,283.17168030000175,283.1798148000016,283.1872758999998,283.1872758999998,283.1872758999998,286.2394112000002,Foils\081a.jpg,none,s,3.0347266999997373,None,,,,,,,,00029,001,2025-11-17_20h24.42.007,MST_test,2024.2.0,59.872101217556306,2025-11-17 20h24.48.520233 +0530,
50,0,51,n,1.3084584999996878,None,51,0,50,286.253848700002,,,,,,,,,,,,,,,,,,,,,,,,,,,,,,,,,,,,,,,,,,,,,,,,,,286.2397486000009,286.253848700002,286.75396490000276,286.73838290000276,286.7448890000014,286.75396490000276,286.75396490000276,286.75396490000276,288.0722874000021,Foils\017a.jpg,none,n,1.3084584999996878,None,,,,,,,,00029,001,2025-11-17_20h24.42.007,MST_test,2024.2.0,59.872101217556306,2025-11-17 20h24.48.520233 +0530,
51,0,52,o,2.9203213000000687,None,52,0,51,288.08698950000326,,,,,,,,,,,,,,,,,,,,,,,,,,,,,,,,,,,,,,,,,,,,,,,,,,288.0726364000002,288.08698950000326,288.5981877000013,288.5715360000031,288.5952799000006,288.5981877000013,288.5981877000013,288.5981877000013,291.5230341000024,Scenes\063b.jpg,pre,o,2.9203213000000687,None,,,,,,,,00029,001,2025-11-17_20h24.42.007,MST_test,2024.2.0,59.872101217556306,2025-11-17 20h24.48.520233 +0530,
52,0,53,s,3.812797900001897,None,53,0,52,291.5371548000003,,,,,,,,,,,,,,,,,,,,,,,,,,,,,,,,,,,,,,,,,,,,,,,,,,291.523298600001,291.5371548000003,292.05007320000004,292.02164630000334,292.0470709000001,292.05007320000004,292.05007320000004,292.05007320000004,295.8726897000015,Scenes\043b.jpg,pre,s,3.812797900001897,None,,,,,,,,00029,001,2025-11-17_20h24.42.007,MST_test,2024.2.0,59.872101217556306,2025-11-17 20h24.48.520233 +0530,
53,0,54,s,1.7186865000003309,None,54,0,53,295.8870986000002,,,,,,,,,,,,,,,,,,,,,,,,,,,,,,,,,,,,,,,,,,,,,,,,,,295.8730927000033,295.8870986000002,296.39146200000323,296.37183330000335,296.38820320000013,296.39146200000323,296.39146200000323,296.39146200000323,298.1227566000016,Scenes\002b.jpg,post,s,1.7186865000003309,None,,,,,,,,00029,001,2025-11-17_20h24.42.007,MST_test,2024.2.0,59.872101217556306,2025-11-17 20h24.48.520233 +0530,
54,0,55,o,3.184221499999694,None,55,0,54,298.1371945000028,,,,,,,,,,,,,,,,,,,,,,,,,,,,,,,,,,,,,,,,,,,,,,,,,,298.12312060000113,298.1371945000028,298.63777400000254,298.62132620000193,298.6300975000013,298.63777400000254,298.63777400000254,298.63777400000254,301.8392982000005,Objects\112a.jpg,post,o,3.184221499999694,None,,,,,,,,00029,001,2025-11-17_20h24.42.007,MST_test,2024.2.0,59.872101217556306,2025-11-17 20h24.48.520233 +0530,
55,0,56,s,2.1957316999978502,None,56,0,55,301.8536978000011,,,,,,,,,,,,,,,,,,,,,,,,,,,,,,,,,,,,,,,,,,,,,,,,,,301.8396087000001,301.8536978000011,302.35438670000076,302.3381468000007,302.348981500003,302.35438670000076,302.35438670000076,302.35438670000076,304.5556942000003,Scenes\024a.jpg,post,s,2.1957316999978502,None,,,,,,,,00029,001,2025-11-17_20h24.42.007,MST_test,2024.2.0,59.872101217556306,2025-11-17 20h24.48.520233 +0530,
56,0,57,s,1.2388924000006227,None,57,0,56,304.5704813000011,,,,,,,,,,,,,,,,,,,,,,,,,,,,,,,,,,,,,,,,,,,,,,,,,,304.55598720000125,304.5704813000011,305.0957757000033,305.0546624000017,305.0929243000028,305.0957757000033,305.0957757000033,305.0957757000033,306.33943660000295,Objects\044b.jpg,pre,s,1.2388924000006227,None,,,,,,,,00029,001,2025-11-17_20h24.42.007,MST_test,2024.2.0,59.872101217556306,2025-11-17 20h24.48.520233 +0530,
57,0,58,s,1.3031646000017645,None,58,0,57,306.35358090000227,,,,,,,,,,,,,,,,,,,,,,,,,,,,,,,,,,,,,,,,,,,,,,,,,,306.3398632000026,306.35358090000227,306.86275110000133,306.8383842000003,306.8598938000032,306.86275110000133,306.86275110000133,306.86275110000133,308.1720374000033,Scenes\095b.jpg,pre,s,1.3031646000017645,None,,,,,,,,00029,001,2025-11-17_20h24.42.007,MST_test,2024.2.0,59.872101217556306,2025-11-17 20h24.48.520233 +0530,
58,0,59,s,3.598715899999661,None,59,0,58,308.18699350000315,,,,,,,,,,,,,,,,,,,,,,,,,,,,,,,,,,,,,,,,,,,,,,,,,,308.17234910000116,308.18699350000315,308.68782360000114,308.67138479999994,308.6822271000019,308.68782360000114,308.68782360000114,308.68782360000114,312.2874409000033,Scenes\050a.jpg,post,s,3.598715899999661,None,,,,,,,,00029,001,2025-11-17_20h24.42.007,MST_test,2024.2.0,59.872101217556306,2025-11-17 20h24.48.520233 +0530,
59,0,60,n,1.8400513000015053,None,60,0,59,312.3032497000022,,,,,,,,,,,,,,,,,,,,,,,,,,,,,,,,,,,,,,,,,,,,,,,,,,312.2875488999998,312.3032497000022,,312.7877602000008,312.8028744000003,312.8057672000032,312.8057672000032,312.8057672000032,314.65531740000006,Scenes\121a.jpg,pre,n,1.8400513000015053,None,,,,,,,,00029,001,2025-11-17_20h24.42.007,MST_test,2024.2.0,59.872101217556306,2025-11-17 20h24.48.520233 +0530,
60,0,61,s,1.4756568000011612,None,61,0,60,314.6702925999998,,,,,,,,,,,,,,,,,,,,,,,,,,,,,,,,,,,,,,,,,,,,,,,,,,314.65561920000255,314.6702925999998,315.1711850000029,315.15484070000093,315.1628055000001,315.1711850000029,315.1711850000029,315.1711850000029,316.6558565000014,Objects\190a.jpg,mid,s,1.4756568000011612,None,,,,,,,,00029,001,2025-11-17_20h24.42.007,MST_test,2024.2.0,59.872101217556306,2025-11-17 20h24.48.520233 +0530,
61,0,62,s,5.963050499998644,None,62,0,61,316.6704553000018,,,,,,,,,,,,,,,,,,,,,,,,,,,,,,,,,,,,,,,,,,,,,,,,,,316.6562294000032,316.6704553000018,317.17099990000133,317.15459060000285,317.1674183000032,317.17099990000133,317.17099990000133,317.17099990000133,323.1398547000026,Scenes\079b.jpg,pre,s,5.963050499998644,None,,,,,,,,00029,001,2025-11-17_20h24.42.007,MST_test,2024.2.0,59.872101217556306,2025-11-17 20h24.48.520233 +0530,
62,0,63,n,3.5891795999996248,None,63,0,62,323.15353640000103,,,,,,,,,,,,,,,,,,,,,,,,,,,,,,,,,,,,,,,,,,,,,,,,,,323.14024960000097,323.15353640000103,323.7213210000009,323.6380900000004,323.71711490000234,323.7213210000009,323.7213210000009,323.7213210000009,327.32315650000237,Foils\scenes25.jpg,none,n,3.5891795999996248,None,,,,,,,,00029,001,2025-11-17_20h24.42.007,MST_test,2024.2.0,59.872101217556306,2025-11-17 20h24.48.520233 +0530,
63,0,64,n,1.9051208999990195,None,64,0,63,327.33710110000175,,,,,,,,,,,,,,,,,,,,,,,,,,,,,,,,,,,,,,,,,,,,,,,,,,327.3234744000001,327.33710110000175,327.8452524000022,327.821840800003,327.8396849000019,327.8452524000022,327.8452524000022,327.8452524000022,329.75587670000095,Scenes\075b.jpg,post,n,1.9051208999990195,None,,,,,,,,00029,001,2025-11-17_20h24.42.007,MST_test,2024.2.0,59.872101217556306,2025-11-17 20h24.48.520233 +0530,
64,0,65,o,1.1751275999995414,None,65,0,64,329.7702355000001,,,,,,,,,,,,,,,,,,,,,,,,,,,,,,,,,,,,,,,,,,,,,,,,,,329.7561646000031,329.7702355000001,330.2712474,330.254802200001,330.2683186000031,330.2712474,330.2712474,330.2712474,331.45607400000154,Scenes\058a.jpg,pre,o,1.1751275999995414,None,,,,,,,,00029,001,2025-11-17_20h24.42.007,MST_test,2024.2.0,59.872101217556306,2025-11-17 20h24.48.520233 +0530,
65,0,66,o,0.9707529999977851,None,66,0,65,331.47043210000265,,,,,,,,,,,,,,,,,,,,,,,,,,,,,,,,,,,,,,,,,,,,,,,,,,331.4564445000033,331.47043210000265,331.97125589999996,331.9553431000022,331.96273530000326,331.97125589999996,331.97125589999996,331.97125589999996,332.9559418000026,Objects\100a.jpg,pre,o,0.9707529999977851,None,,,,,,,,00029,001,2025-11-17_20h24.42.007,MST_test,2024.2.0,59.872101217556306,2025-11-17 20h24.48.520233 +0530,
66,0,67,o,1.1599934000005305,None,67,0,66,332.9703534,,,,,,,,,,,,,,,,,,,,,,,,,,,,,,,,,,,,,,,,,,,,,,,,,,332.95628620000207,332.9703534,333.4705489000007,333.45474939999986,333.4617068000007,333.4705489000007,333.4705489000007,333.4705489000007,334.6381818000009,Objects\104a.jpg,pre,o,1.1599934000005305,None,,,,,,,,00029,001,2025-11-17_20h24.42.007,MST_test,2024.2.0,59.872101217556306,2025-11-17 20h24.48.520233 +0530,
67,0,68,s,1.7717828999993799,None,68,0,67,334.65365910000037,,,,,,,,,,,,,,,,,,,,,,,,,,,,,,,,,,,,,,,,,,,,,,,,,,334.6384149000005,334.65365910000037,335.16273,335.13822960000107,335.1598757000029,335.16273,335.16273,335.16273,336.9394146000013,Scenes\158b.jpg,mid,s,1.7717828999993799,None,,,,,,,,00029,001,2025-11-17_20h24.42.007,MST_test,2024.2.0,59.872101217556306,2025-11-17 20h24.48.520233 +0530,
68,0,69,n,2.8018203000028734,None,69,0,68,336.95370730000286,,,,,,,,,,,,,,,,,,,,,,,,,,,,,,,,,,,,,,,,,,,,,,,,,,336.93978600000264,336.95370730000286,337.4601786000021,337.43814810000185,337.4571207000008,337.4601786000021,337.4601786000021,337.4601786000021,340.27248280000276,Foils\101b.jpg,none,n,2.8018203000028734,None,,,,,,,,00029,001,2025-11-17_20h24.42.007,MST_test,2024.2.0,59.872101217556306,2025-11-17 20h24.48.520233 +0530,
69,0,70,o,2.123140699997748,None,70,0,69,340.28698630000144,,,,,,,,,,,,,,,,,,,,,,,,,,,,,,,,,,,,,,,,,,,,,,,,,,340.27282750000086,340.28698630000144,340.7871999000017,340.77146600000196,340.7787126000003,340.7871999000017,340.7871999000017,340.7871999000017,342.9225447000026,Objects\157a.jpg,mid,o,2.123140699997748,None,,,,,,,,00029,001,2025-11-17_20h24.42.007,MST_test,2024.2.0,59.872101217556306,2025-11-17 20h24.48.520233 +0530,
70,0,71,s,1.6568502000009175,None,71,0,70,342.937070400003,,,,,,,,,,,,,,,,,,,,,,,,,,,,,,,,,,,,,,,,,,,,,,,,,,342.9229516000014,342.937070400003,343.43718210000225,343.4215127000025,343.42815560000236,343.43718210000225,343.43718210000225,343.43718210000225,345.10584230000313,Objects\138b.jpg,post,s,1.6568502000009175,None,,,,,,,,00029,001,2025-11-17_20h24.42.007,MST_test,2024.2.0,59.872101217556306,2025-11-17 20h24.48.520233 +0530,
71,0,72,o,2.9084808000006888,None,72,0,71,345.12035410000317,,,,,,,,,,,,,,,,,,,,,,,,,,,,,,,,,,,,,,,,,,,,,,,,,,345.1062703000025,345.12035410000317,345.6338456000012,345.604721300002,345.6307829000034,345.6338456000012,345.6338456000012,345.6338456000012,348.55625860000146,Scenes\104b.jpg,mid,o,2.9084808000006888,None,,,,,,,,00029,001,2025-11-17_20h24.42.007,MST_test,2024.2.0,59.872101217556306,2025-11-17 20h24.48.520233 +0530,
72,0,73,s,4.373932000002242,None,73,0,72,348.5705050000033,,,,,,,,,,,,,,,,,,,,,,,,,,,,,,,,,,,,,,,,,,,,,,,,,,348.5566579000006,348.5705050000033,349.07250580000255,349.05502200000046,349.06931290000284,349.07250580000255,349.07250580000255,349.07250580000255,353.45625610000207,Scenes\038a.jpg,mid,s,4.373932000002242,None,,,,,,,,00029,001,2025-11-17_20h24.42.007,MST_test,2024.2.0,59.872101217556306,2025-11-17 20h24.48.520233 +0530,
73,0,74,o,2.3936065000016242,None,74,0,73,353.470695,,,,,,,,,,,,,,,,,,,,,,,,,,,,,,,,,,,,,,,,,,,,,,,,,,353.456659200001,353.470695,353.9726019000009,353.95498190000217,353.96922950000226,353.9726019000009,353.9726019000009,353.9726019000009,356.37240480000037,Scenes\124a.jpg,post,o,2.3936065000016242,None,,,,,,,,00029,001,2025-11-17_20h24.42.007,MST_test,2024.2.0,59.872101217556306,2025-11-17 20h24.48.520233 +0530,
74,0,75,o,2.5188455000024987,None,75,0,74,356.38695420000295,,,,,,,,,,,,,,,,,,,,,,,,,,,,,,,,,,,,,,,,,,,,,,,,,,356.3727534000027,356.38695420000295,356.8952715000014,356.87184310000157,356.89225290000104,356.8952715000014,356.8952715000014,356.8952715000014,359.4228071000034,Scenes\045a.jpg,pre,o,2.5188455000024987,None,,,,,,,,00029,001,2025-11-17_20h24.42.007,MST_test,2024.2.0,59.872101217556306,2025-11-17 20h24.48.520233 +0530,
75,0,76,s,3.2124229000000923,None,76,0,75,359.4369721000003,,,,,,,,,,,,,,,,,,,,,,,,,,,,,,,,,,,,,,,,,,,,,,,,,,359.4232071000006,359.4369721000003,359.9378319000025,359.921516800001,359.9287719000022,359.9378319000025,359.9378319000025,359.9378319000025,363.1554567000021,Scenes\016a.jpg,post,s,3.2124229000000923,None,,,,,,,,00029,001,2025-11-17_20h24.42.007,MST_test,2024.2.0,59.872101217556306,2025-11-17 20h24.48.520233 +0530,
76,0,77,o,1.207358599996951,None,77,0,76,363.1704720000016,,,,,,,,,,,,,,,,,,,,,,,,,,,,,,,,,,,,,,,,,,,,,,,,,,363.1557818000001,363.1704720000016,363.6708522000008,363.65476970000236,363.6612012000005,363.6708522000008,363.6708522000008,363.6708522000008,364.8893605000012,Objects\068a.jpg,mid,o,1.207358599996951,None,,,,,,,,00029,001,2025-11-17_20h24.42.007,MST_test,2024.2.0,59.872101217556306,2025-11-17 20h24.48.520233 +0530,
77,0,78,s,2.1243548000020382,None,78,0,77,364.9036053000018,,,,,,,,,,,,,,,,,,,,,,,,,,,,,,,,,,,,,,,,,,,,,,,,,,364.88967090000006,364.9036053000018,365.4098187000018,365.3882149000019,365.4070825000017,365.4098187000018,365.4098187000018,365.4098187000018,367.5393432000019,Foils\034a.jpg,none,s,2.1243548000020382,None,,,,,,,,00029,001,2025-11-17_20h24.42.007,MST_test,2024.2.0,59.872101217556306,2025-11-17 20h24.48.520233 +0530,
78,0,79,s,1.2254240000002028,None,79,0,78,367.55369580000115,,,,,,,,,,,,,,,,,,,,,,,,,,,,,,,,,,,,,,,,,,,,,,,,,,367.5396354000004,367.55369580000115,368.06061410000257,368.03839880000305,368.0576200000032,368.06061410000257,368.06061410000257,368.06061410000257,369.28988519999984,Scenes\132b.jpg,mid,s,1.2254240000002028,None,,,,,,,,00029,001,2025-11-17_20h24.42.007,MST_test,2024.2.0,59.872101217556306,2025-11-17 20h24.48.520233 +0530,
79,0,80,s,1.1617031999994651,None,80,0,79,369.30357450000156,,,,,,,,,,,,,,,,,,,,,,,,,,,,,,,,,,,,,,,,,,,,,,,,,,369.2902669000032,369.30357450000156,369.80426799999987,369.78821340000286,369.79700690000027,369.80426799999987,369.80426799999987,369.80426799999987,370.97262670000055,Foils\105a.jpg,none,s,1.1617031999994651,None,,,,,,,,00029,001,2025-11-17_20h24.42.007,MST_test,2024.2.0,59.872101217556306,2025-11-17 20h24.48.520233 +0530,
80,0,81,o,1.1978115999991132,None,81,0,80,370.98694140000225,,,,,,,,,,,,,,,,,,,,,,,,,,,,,,,,,,,,,,,,,,,,,,,,,,370.97298560000127,370.98694140000225,371.48874160000196,371.47170180000103,371.48595620000197,371.48874160000196,371.48874160000196,371.48874160000196,372.6898332000019,Scenes\176a.jpg,pre,o,1.1978115999991132,None,,,,,,,,00029,001,2025-11-17_20h24.42.007,MST_test,2024.2.0,59.872101217556306,2025-11-17 20h24.48.520233 +0530,
81,0,82,s,1.329123499999696,None,82,0,81,372.70359129999997,,,,,,,,,,,,,,,,,,,,,,,,,,,,,,,,,,,,,,,,,,,,,,,,,,372.6901640000033,372.70359129999997,373.2052401000001,373.1884228000017,373.20217550000234,373.2052401000001,373.2052401000001,373.2052401000001,374.5375754000015,Objects\090b.jpg,pre,s,1.329123499999696,None,,,,,,,,00029,001,2025-11-17_20h24.42.007,MST_test,2024.2.0,59.872101217556306,2025-11-17 20h24.48.520233 +0530,
82,0,83,o,1.46505519999846,None,83,0,82,374.55328670000017,,,,,,,,,,,,,,,,,,,,,,,,,,,,,,,,,,,,,,,,,,,,,,,,,,374.53768370000034,374.55328670000017,375.0540901000022,375.0383486000028,375.05114930000127,375.0540901000022,375.0540901000022,375.0540901000022,376.5228878000016,Scenes\109a.jpg,mid,o,1.46505519999846,None,,,,,,,,00029,001,2025-11-17_20h24.42.007,MST_test,2024.2.0,59.872101217556306,2025-11-17 20h24.48.520233 +0530,
83,0,84,n,2.4121678000010434,None,84,0,83,376.537128400003,,,,,,,,,,,,,,,,,,,,,,,,,,,,,,,,,,,,,,,,,,,,,,,,,,376.52318020000166,376.537128400003,377.0425464,377.02169030000005,377.0395419000015,377.0425464,377.0425464,377.0425464,379.4727672000008,Foils\113a.jpg,none,n,2.4121678000010434,None,,,,,,,,00029,001,2025-11-17_20h24.42.007,MST_test,2024.2.0,59.872101217556306,2025-11-17 20h24.48.520233 +0530,
84,0,85,s,1.4032790999990539,None,85,0,84,379.48716510000304,,,,,,,,,,,,,,,,,,,,,,,,,,,,,,,,,,,,,,,,,,,,,,,,,,379.4731654000025,379.48716510000304,379.987167700001,379.97123380000266,379.97900050000317,379.987167700001,379.987167700001,379.987167700001,381.4062393000022,Objects\063a.jpg,post,s,1.4032790999990539,None,,,,,,,,00029,001,2025-11-17_20h24.42.007,MST_test,2024.2.0,59.872101217556306,2025-11-17 20h24.48.520233 +0530,
85,0,86,s,1.598212599998078,None,86,0,85,381.4203714000032,,,,,,,,,,,,,,,,,,,,,,,,,,,,,,,,,,,,,,,,,,,,,,,,,,381.4066629000008,381.4203714000032,381.9205101000007,381.9049949,381.911455700003,381.9205101000007,381.9205101000007,381.9205101000007,383.5230620000002,Objects\175a.jpg,pre,s,1.598212599998078,None,,,,,,,,00029,001,2025-11-17_20h24.42.007,MST_test,2024.2.0,59.872101217556306,2025-11-17 20h24.48.520233 +0530,
86,0,87,n,3.4519869000032486,None,87,0,86,383.53704330000255,,,,,,,,,,,,,,,,,,,,,,,,,,,,,,,,,,,,,,,,,,,,,,,,,,383.5233376000033,383.53704330000255,384.05855040000097,384.0217902000004,384.0557817000008,384.05855040000097,384.05855040000097,384.05855040000097,387.522363600001,Foils\scenes11.jpg,none,n,3.4519869000032486,None,,,,,,,,00029,001,2025-11-17_20h24.42.007,MST_test,2024.2.0,59.872101217556306,2025-11-17 20h24.48.520233 +0530,
87,0,88,s,2.5779666999987967,None,88,0,87,387.53711230000044,,,,,,,,,,,,,,,,,,,,,,,,,,,,,,,,,,,,,,,,,,,,,,,,,,387.522616000002,387.53711230000044,388.0456688000013,388.0216199000024,388.04311360000065,388.0456688000013,388.0456688000013,388.0456688000013,390.63810280000325,Scenes\027b.jpg,mid,s,2.5779666999987967,None,,,,,,,,00029,001,2025-11-17_20h24.42.007,MST_test,2024.2.0,59.872101217556306,2025-11-17 20h24.48.520233 +0530,
88,0,89,o,2.0519148000021232,None,89,0,88,390.6535119,,,,,,,,,,,,,,,,,,,,,,,,,,,,,,,,,,,,,,,,,,,,,,,,,,390.63832470000125,390.6535119,391.15445340000224,391.1383882000009,391.15090190000046,391.15445340000224,391.15445340000224,391.15445340000224,393.2229670000015,Scenes\078a.jpg,mid,o,2.0519148000021232,None,,,,,,,,00029,001,2025-11-17_20h24.42.007,MST_test,2024.2.0,59.872101217556306,2025-11-17 20h24.48.520233 +0530,
89,0,90,s,3.9083964000019478,None,90,0,89,393.2370336000022,,,,,,,,,,,,,,,,,,,,,,,,,,,,,,,,,,,,,,,,,,,,,,,,,,393.2233570000026,393.2370336000022,393.73777730000074,393.7212846000002,393.7303607000031,393.73777730000074,393.73777730000074,393.73777730000074,397.6554830000023,Objects\171a.jpg,post,s,3.9083964000019478,None,,,,,,,,00029,001,2025-11-17_20h24.42.007,MST_test,2024.2.0,59.872101217556306,2025-11-17 20h24.48.520233 +0530,
90,0,91,n,1.8152470999993966,None,91,0,90,397.67039190000287,,,,,,,,,,,,,,,,,,,,,,,,,,,,,,,,,,,,,,,,,,,,,,,,,,397.65577250000206,397.67039190000287,398.18327540000246,398.15499869999985,398.18033210000067,398.18327540000246,398.18327540000246,398.18327540000246,400.00612739999997,Scenes\149b.jpg,post,n,1.8152470999993966,None,,,,,,,,00029,001,2025-11-17_20h24.42.007,MST_test,2024.2.0,59.872101217556306,2025-11-17 20h24.48.520233 +0530,
91,0,92,s,1.9507288999993762,None,92,0,91,400.02025400000275,,,,,,,,,,,,,,,,,,,,,,,,,,,,,,,,,,,,,,,,,,,,,,,,,,400.00648770000043,400.02025400000275,400.52733179999996,400.5049179000016,400.5243360000022,400.52733179999996,400.52733179999996,400.52733179999996,402.4892651000009,Scenes\007b.jpg,pre,s,1.9507288999993762,None,,,,,,,,00029,001,2025-11-17_20h24.42.007,MST_test,2024.2.0,59.872101217556306,2025-11-17 20h24.48.520233 +0530,
92,0,93,o,1.2274223000022175,None,93,0,92,402.503731300003,,,,,,,,,,,,,,,,,,,,,,,,,,,,,,,,,,,,,,,,,,,,,,,,,,402.48960179999995,402.503731300003,403.00427010000203,402.9884877000004,402.9971667000027,403.00427010000203,403.00427010000203,403.00427010000203,404.2396568000004,Objects\088a.jpg,pre,o,1.2274223000022175,None,,,,,,,,00029,001,2025-11-17_20h24.42.007,MST_test,2024.2.0,59.872101217556306,2025-11-17 20h24.48.520233 +0530,
93,0,94,o,1.357105800001591,None,94,0,93,404.2537379000023,,,,,,,,,,,,,,,,,,,,,,,,,,,,,,,,,,,,,,,,,,,,,,,,,,404.2400428000001,404.2537379000023,404.75433669999984,404.7383793000008,404.7499067000026,404.75433669999984,404.75433669999984,404.75433669999984,406.1222033000013,Scenes\006a.jpg,mid,o,1.357105800001591,None,,,,,,,,00029,001,2025-11-17_20h24.42.007,MST_test,2024.2.0,59.872101217556306,2025-11-17 20h24.48.520233 +0530,
94,0,95,o,1.6452180999986012,None,95,0,94,406.1369745000011,,,,,,,,,,,,,,,,,,,,,,,,,,,,,,,,,,,,,,,,,,,,,,,,,,406.122545000002,406.1369745000011,406.64080020000256,406.62037110000165,406.6378465000016,406.64080020000256,406.64080020000256,406.64080020000256,408.2895446000002,Scenes\093b.jpg,post,o,1.6452180999986012,None,,,,,,,,00029,001,2025-11-17_20h24.42.007,MST_test,2024.2.0,59.872101217556306,2025-11-17 20h24.48.520233 +0530,
95,0,96,s,3.123207300002832,None,96,0,95,408.30359750000207,,,,,,,,,,,,,,,,,,,,,,,,,,,,,,,,,,,,,,,,,,,,,,,,,,408.2899688000034,408.30359750000207,408.8110259000023,408.78828970000177,408.80796250000276,408.8110259000023,408.8110259000023,408.8110259000023,411.93900399999984,Scenes\166b.jpg,mid,s,3.123207300002832,None,,,,,,,,00029,001,2025-11-17_20h24.42.007,MST_test,2024.2.0,59.872101217556306,2025-11-17 20h24.48.520233 +0530,
96,0,97,s,1.438109099999565,None,97,0,96,411.9536783000003,,,,,,,,,,,,,,,,,,,,,,,,,,,,,,,,,,,,,,,,,,,,,,,,,,411.93936170000234,411.9536783000003,412.4565680000014,412.4380857000033,412.4538227000012,412.4565680000014,412.4565680000014,412.4565680000014,413.90611080000235,Objects\013b.jpg,pre,s,1.438109099999565,None,,,,,,,,00029,001,2025-11-17_20h24.42.007,MST_test,2024.2.0,59.872101217556306,2025-11-17 20h24.48.520233 +0530,
97,0,98,s,1.0796421000013652,None,98,0,97,413.92039920000025,,,,,,,,,,,,,,,,,,,,,,,,,,,,,,,,,,,,,,,,,,,,,,,,,,413.90651080000316,413.92039920000025,414.42322270000295,414.4046116000027,414.4209992000033,414.42322270000295,414.42322270000295,414.42322270000295,415.50632940000287,Objects\010b.jpg,mid,s,1.0796421000013652,None,,,,,,,,00029,001,2025-11-17_20h24.42.007,MST_test,2024.2.0,59.872101217556306,2025-11-17 20h24.48.520233 +0530,
98,0,99,s,1.1818579000027967,None,99,0,98,415.5205352000012,,,,,,,,,,,,,,,,,,,,,,,,,,,,,,,,,,,,,,,,,,,,,,,,,,415.50671839999995,415.5205352000012,416.0245702000029,416.0049801000023,416.0222745000028,416.0245702000029,416.0245702000029,416.0245702000029,417.22256370000105,Objects\130b.jpg,post,s,1.1818579000027967,None,,,,,,,,00029,001,2025-11-17_20h24.42.007,MST_test,2024.2.0,59.872101217556306,2025-11-17 20h24.48.520233 +0530,
99,0,100,o,3.068519799999194,None,100,0,99,417.2370093000027,,,,,,,,,,,,,,,,,,,,,,,,,,,,,,,,,,,,,,,,,,,,,,,,,,417.2228858000017,417.2370093000027,417.7373032000032,417.72161560000313,417.7296665000031,417.7373032000032,417.7373032000032,417.7373032000032,420.82297370000015,Objects\084a.jpg,pre,o,3.068519799999194,None,,,,,,,,00029,001,2025-11-17_20h24.42.007,MST_test,2024.2.0,59.872101217556306,2025-11-17 20h24.48.520233 +0530,
100,0,101,s,2.184715100000176,None,101,0,100,420.8370466000015,,,,,,,,,,,,,,,,,,,,,,,,,,,,,,,,,,,,,,,,,,,,,,,,,,420.82338540000273,420.8370466000015,421.3494606000022,421.32144680000056,421.34664540000085,421.3494606000022,421.3494606000022,421.3494606000022,423.5393139000007,Scenes\114b.jpg,post,s,2.184715100000176,None,,,,,,,,00029,001,2025-11-17_20h24.42.007,MST_test,2024.2.0,59.872101217556306,2025-11-17 20h24.48.520233 +0530,
101,0,102,s,1.1834754000010435,None,102,0,101,423.55424530000164,,,,,,,,,,,,,,,,,,,,,,,,,,,,,,,,,,,,,,,,,,,,,,,,,,423.53959990000294,423.55424530000164,424.0625192000007,424.03802590000123,424.05945730000167,424.0625192000007,424.0625192000007,424.0625192000007,425.2555493,Scenes\074b.jpg,mid,s,1.1834754000010435,None,,,,,,,,00029,001,2025-11-17_20h24.42.007,MST_test,2024.2.0,59.872101217556306,2025-11-17 20h24.48.520233 +0530,
102,0,103,s,2.355105899998307,None,103,0,102,425.27046710000286,,,,,,,,,,,,,,,,,,,,,,,,,,,,,,,,,,,,,,,,,,,,,,,,,,425.25588250000146,425.27046710000286,425.7711088000033,425.7546433000025,425.7629145000028,425.7711088000033,425.7711088000033,425.7711088000033,428.13899890000175,Objects\152a.jpg,pre,s,2.355105899998307,None,,,,,,,,00029,001,2025-11-17_20h24.42.007,MST_test,2024.2.0,59.872101217556306,2025-11-17 20h24.48.520233 +0530,
103,0,104,s,2.656781099998625,None,104,0,103,428.15353190000314,,,,,,,,,,,,,,,,,,,,,,,,,,,,,,,,,,,,,,,,,,,,,,,,,,428.13937010000154,428.15353190000314,428.6537081000024,428.6380472000019,428.6447078000019,428.6537081000024,428.6537081000024,428.6537081000024,431.32249440000305,Objects\062b.jpg,pre,s,2.656781099998625,None,,,,,,,,00029,001,2025-11-17_20h24.42.007,MST_test,2024.2.0,59.872101217556306,2025-11-17 20h24.48.520233 +0530,
104,0,105,n,3.0403831000003265,None,105,0,104,431.3369894000025,,,,,,,,,,,,,,,,,,,,,,,,,,,,,,,,,,,,,,,,,,,,,,,,,,431.32285070000216,431.3369894000025,431.8375390000001,431.8216038999999,431.8270669000012,431.8375390000001,431.8375390000001,431.8375390000001,434.8891111000012,Foils\scenes7.jpg,none,n,3.0403831000003265,None,,,,,,,,00029,001,2025-11-17_20h24.42.007,MST_test,2024.2.0,59.872101217556306,2025-11-17 20h24.48.520233 +0530,
105,0,106,o,1.4985176000009233,None,106,0,105,434.9035462000029,,,,,,,,,,,,,,,,,,,,,,,,,,,,,,,,,,,,,,,,,,,,,,,,,,434.88938810000036,434.9035462000029,435.40400480000244,435.38810560000275,435.39933900000324,435.40400480000244,435.40400480000244,435.40400480000244,436.90580630000113,Scenes\018a.jpg,mid,o,1.4985176000009233,None,,,,,,,,00029,001,2025-11-17_20h24.42.007,MST_test,2024.2.0,59.872101217556306,2025-11-17 20h24.48.520233 +0530,
106,0,107,n,2.2570419000003312,None,107,0,106,436.92101230000117,,,,,,,,,,,,,,,,,,,,,,,,,,,,,,,,,,,,,,,,,,,,,,,,,,436.90612580000015,436.92101230000117,437.4209737000019,437.4046382000015,437.41209040000103,437.4209737000019,437.4209737000019,437.4209737000019,439.6894042000022,Foils\057a.jpg,none,n,2.2570419000003312,None,,,,,,,,00029,001,2025-11-17_20h24.42.007,MST_test,2024.2.0,59.872101217556306,2025-11-17 20h24.48.520233 +0530,
107,0,108,n,0.931181200001447,None,108,0,107,439.7035463000029,,,,,,,,,,,,,,,,,,,,,,,,,,,,,,,,,,,,,,,,,,,,,,,,,,439.6897549000023,439.7035463000029,440.2036154000016,440.1878869000029,440.20114410000315,440.2036154000016,440.2036154000016,440.2036154000016,441.13989910000237,Foils\098a.jpg,none,n,0.931181200001447,None,,,,,,,,00029,001,2025-11-17_20h24.42.007,MST_test,2024.2.0,59.872101217556306,2025-11-17 20h24.48.520233 +0530,
108,0,109,s,1.7765161999996053,None,109,0,108,441.1535833000016,,,,,,,,,,,,,,,,,,,,,,,,,,,,,,,,,,,,,,,,,,,,,,,,,,441.1402804999998,441.1535833000016,441.6541578000033,441.6380631000029,441.64934060000087,441.6541578000033,441.6541578000033,441.6541578000033,443.4396093000032,Scenes\187a.jpg,pre,s,1.7765161999996053,None,,,,,,,,00029,001,2025-11-17_20h24.42.007,MST_test,2024.2.0,59.872101217556306,2025-11-17 20h24.48.520233 +0530,
109,0,110,s,1.1281130999996094,None,110,0,109,443.4535896000016,,,,,,,,,,,,,,,,,,,,,,,,,,,,,,,,,,,,,,,,,,,,,,,,,,443.43996479999987,443.4535896000016,443.9580227000006,443.9379555000014,443.95508470000277,443.9580227000006,443.9580227000006,443.9580227000006,445.08909450000283,Objects\113b.jpg,mid,s,1.1281130999996094,None,,,,,,,,00029,001,2025-11-17_20h24.42.007,MST_test,2024.2.0,59.872101217556306,2025-11-17 20h24.48.520233 +0530,
110,0,111,s,1.5407162999981665,None,111,0,110,445.10370970000076,,,,,,,,,,,,,,,,,,,,,,,,,,,,,,,,,,,,,,,,,,,,,,,,,,445.0894210000006,445.10370970000076,445.60943100000077,445.58838130000004,445.60678210000333,445.60943100000077,445.60943100000077,445.60943100000077,447.15666090000013,Scenes\053b.jpg,post,s,1.5407162999981665,None,,,,,,,,00029,001,2025-11-17_20h24.42.007,MST_test,2024.2.0,59.872101217556306,2025-11-17 20h24.48.520233 +0530,
111,0,112,n,1.4565226999984588,None,112,0,111,447.17048179999983,,,,,,,,,,,,,,,,,,,,,,,,,,,,,,,,,,,,,,,,,,,,,,,,,,447.15713080000205,447.17048179999983,447.6707090000018,447.6546659000014,447.6610713000009,447.6707090000018,447.6707090000018,447.6707090000018,449.1395229000009,Foils\scenes20.jpg,none,n,1.4565226999984588,None,,,,,,,,00029,001,2025-11-17_20h24.42.007,MST_test,2024.2.0,59.872101217556306,2025-11-17 20h24.48.520233 +0530,
112,0,113,o,2.1846297000010964,None,113,0,112,449.15358780000315,,,,,,,,,,,,,,,,,,,,,,,,,,,,,,,,,,,,,,,,,,,,,,,,,,449.1398829999998,449.15358780000315,449.6540892000012,449.6386424000011,449.6467040000025,449.6540892000012,449.6540892000012,449.6540892000012,451.8552297000024,Objects\040a.jpg,mid,o,2.1846297000010964,None,,,,,,,,00029,001,2025-11-17_20h24.42.007,MST_test,2024.2.0,59.872101217556306,2025-11-17 20h24.48.520233 +0530,
113,0,114,n,1.451671399998304,None,114,0,113,451.8703287000026,,,,,,,,,,,,,,,,,,,,,,,,,,,,,,,,,,,,,,,,,,,,,,,,,,451.8554991000019,451.8703287000026,452.3705958000028,452.3548079000029,452.3622882000018,452.3705958000028,452.3705958000028,452.3705958000028,453.8391392000012,Foils\026a.jpg,none,n,1.451671399998304,None,,,,,,,,00029,001,2025-11-17_20h24.42.007,MST_test,2024.2.0,59.872101217556306,2025-11-17 20h24.48.520233 +0530,
114,0,115,o,5.0037964999974065,None,115,0,114,453.85353900000337,,,,,,,,,,,,,,,,,,,,,,,,,,,,,,,,,,,,,,,,,,,,,,,,,,453.8394935000033,453.85353900000337,454.35410870000123,454.33807100000195,454.34550370000215,454.35410870000123,454.35410870000123,454.35410870000123,459.3710893000025,Objects\096a.jpg,post,o,5.0037964999974065,None,,,,,,,,00029,001,2025-11-17_20h24.42.007,MST_test,2024.2.0,59.872101217556306,2025-11-17 20h24.48.520233 +0530,
115,0,116,s,1.5670661999974982,None,116,0,115,459.3868195000032,,,,,,,,,,,,,,,,,,,,,,,,,,,,,,,,,,,,,,,,,,,,,,,,,,459.3712164000026,459.3868195000032,459.89539700000023,459.871368600001,459.8925784000021,459.89539700000023,459.89539700000023,459.89539700000023,461.4725509000018,Scenes\039b.jpg,mid,s,1.5670661999974982,None,,,,,,,,00029,001,2025-11-17_20h24.42.007,MST_test,2024.2.0,59.872101217556306,2025-11-17 20h24.48.520233 +0530,
116,0,117,o,1.468225500000699,None,117,0,116,461.48714790000304,,,,,,,,,,,,,,,,,,,,,,,,,,,,,,,,,,,,,,,,,,,,,,,,,,461.4728630999998,461.48714790000304,461.98775490000116,461.9717505000008,461.9792174000031,461.98775490000116,461.98775490000116,461.98775490000116,463.4729017999998,Objects\033a.jpg,mid,o,1.468225500000699,None,,,,,,,,00029,001,2025-11-17_20h24.42.007,MST_test,2024.2.0,59.872101217556306,2025-11-17 20h24.48.520233 +0530,
117,0,118,s,1.8797847999994701,None,118,0,117,463.4869961000004,,,,,,,,,,,,,,,,,,,,,,,,,,,,,,,,,,,,,,,,,,,,,,,,,,463.47321770000053,463.4869961000004,463.99032910000096,463.9713980000015,463.98806190000323,463.99032910000096,463.99032910000096,463.99032910000096,465.8731484000018,Objects\127b.jpg,mid,s,1.8797847999994701,None,,,,,,,,00029,001,2025-11-17_20h24.42.007,MST_test,2024.2.0,59.872101217556306,2025-11-17 20h24.48.520233 +0530,
118,0,119,n,3.4345557000015106,None,119,0,118,465.8873059000034,,,,,,,,,,,,,,,,,,,,,,,,,,,,,,,,,,,,,,,,,,,,,,,,,,465.8735465999998,465.8873059000034,466.38783230000263,466.37192060000234,466.3790813000014,466.38783230000263,466.38783230000263,466.38783230000263,469.83917160000055,Foils\scenes1.jpg,none,n,3.4345557000015106,None,,,,,,,,00029,001,2025-11-17_20h24.42.007,MST_test,2024.2.0,59.872101217556306,2025-11-17 20h24.48.520233 +0530,
119,0,120,s,9.714120299999195,None,120,0,119,469.8535838000025,,,,,,,,,,,,,,,,,,,,,,,,,,,,,,,,,,,,,,,,,,,,,,,,,,469.8394894000012,469.8535838000025,470.3559445000028,470.33814070000153,470.35331589999987,470.3559445000028,470.3559445000028,470.3559445000028,480.0730825000028,Scenes\081a.jpg,post,s,9.714120299999195,None,,,,,,,,00029,001,2025-11-17_20h24.42.007,MST_test,2024.2.0,59.872101217556306,2025-11-17 20h24.48.520233 +0530,
120,0,121,o,1.3308947000004991,None,121,0,120,480.0869781000001,,,,,,,,,,,,,,,,,,,,,,,,,,,,,,,,,,,,,,,,,,,,,,,,,,480.07344130000274,480.0869781000001,480.58766860000105,480.57167330000084,480.5798906000018,480.58766860000105,480.58766860000105,480.58766860000105,481.9226974000012,Objects\148a.jpg,mid,o,1.3308947000004991,None,,,,,,,,00029,001,2025-11-17_20h24.42.007,MST_test,2024.2.0,59.872101217556306,2025-11-17 20h24.48.520233 +0530,
121,0,122,s,1.6091688999986218,None,122,0,121,481.9371449999999,,,,,,,,,,,,,,,,,,,,,,,,,,,,,,,,,,,,,,,,,,,,,,,,,,481.92309540000133,481.9371449999999,482.437202000001,482.4214478000031,482.42796100000123,482.437202000001,482.437202000001,482.437202000001,484.05620940000153,Objects\075b.jpg,pre,s,1.6091688999986218,None,,,,,,,,00029,001,2025-11-17_20h24.42.007,MST_test,2024.2.0,59.872101217556306,2025-11-17 20h24.48.520233 +0530,
122,0,123,s,2.379292899997381,None,123,0,122,484.07030550000127,,,,,,,,,,,,,,,,,,,,,,,,,,,,,,,,,,,,,,,,,,,,,,,,,,484.05667900000117,484.07030550000127,484.57066100000156,484.5547275000026,484.5620642000031,484.57066100000156,484.57066100000156,484.57066100000156,486.95605609999984,Foils\020b.jpg,none,s,2.379292899997381,None,,,,,,,,00029,001,2025-11-17_20h24.42.007,MST_test,2024.2.0,59.872101217556306,2025-11-17 20h24.48.520233 +0530,
123,0,124,s,1.2071682999994664,None,124,0,123,486.97032949999993,,,,,,,,,,,,,,,,,,,,,,,,,,,,,,,,,,,,,,,,,,,,,,,,,,486.9564057000025,486.97032949999993,487.49552400000175,487.4548280000017,487.49313690000054,487.49552400000175,487.49552400000175,487.49552400000175,488.706331100002,Objects\132b.jpg,mid,s,1.2071682999994664,None,,,,,,,,00029,001,2025-11-17_20h24.42.007,MST_test,2024.2.0,59.872101217556306,2025-11-17 20h24.48.520233 +0530,
124,0,125,s,8.457977499998378,None,125,0,124,488.72035510000205,,,,,,,,,,,,,,,,,,,,,,,,,,,,,,,,,,,,,,,,,,,,,,,,,,488.7066515000006,488.72035510000205,489.2209752000017,489.2047498000029,489.2164853000031,489.2209752000017,489.2209752000017,489.2209752000017,497.6897331,Scenes\185a.jpg,pre,s,8.457977499998378,None,,,,,,,,00029,001,2025-11-17_20h24.42.007,MST_test,2024.2.0,59.872101217556306,2025-11-17 20h24.48.520233 +0530,
125,0,126,s,9.282129499999428,None,126,0,125,497.7037464000023,,,,,,,,,,,,,,,,,,,,,,,,,,,,,,,,,,,,,,,,,,,,,,,,,,497.69013240000277,497.7037464000023,498.20440090000193,498.18838529999994,498.1961654000006,498.20440090000193,498.20440090000193,498.20440090000193,507.48957540000265,Foils\scenes16.jpg,none,s,9.282129499999428,None,,,,,,,,00029,001,2025-11-17_20h24.42.007,MST_test,2024.2.0,59.872101217556306,2025-11-17 20h24.48.520233 +0530,
126,0,127,s,1.0374449000009918,None,127,0,126,507.50374010000087,,,,,,,,,,,,,,,,,,,,,,,,,,,,,,,,,,,,,,,,,,,,,,,,,,507.490009000001,507.50374010000087,508.0085100000033,507.9884950000014,508.0058561000005,508.0085100000033,508.0085100000033,508.0085100000033,509.0561263000018,Objects\036b.jpg,mid,s,1.0374449000009918,None,,,,,,,,00029,001,2025-11-17_20h24.42.007,MST_test,2024.2.0,59.872101217556306,2025-11-17 20h24.48.520233 +0530,
127,0,128,o,4.043800300001749,None,128,0,127,509.07046249999985,,,,,,,,,,,,,,,,,,,,,,,,,,,,,,,,,,,,,,,,,,,,,,,,,,509.0565244999998,509.07046249999985,509.570621400002,509.55492850000155,509.562917700001,509.570621400002,509.570621400002,509.570621400002,513.6228690000025,Objects\009a.jpg,pre,o,4.043800300001749,None,,,,,,,,00029,001,2025-11-17_20h24.42.007,MST_test,2024.2.0,59.872101217556306,2025-11-17 20h24.48.520233 +0530,
128,0,129,s,0.9806848999978683,None,129,0,128,513.6372242000034,,,,,,,,,,,,,,,,,,,,,,,,,,,,,,,,,,,,,,,,,,,,,,,,,,513.6232715000006,513.6372242000034,514.1372699000021,514.1215902000004,514.1271019000014,514.1372699000021,514.1372699000021,514.1372699000021,515.1230707000032,Objects\029a.jpg,mid,s,0.9806848999978683,None,,,,,,,,00029,001,2025-11-17_20h24.42.007,MST_test,2024.2.0,59.872101217556306,2025-11-17 20h24.48.520233 +0530,
129,0,130,o,1.361429800002952,None,130,0,129,515.1371549000032,,,,,,,,,,,,,,,,,,,,,,,,,,,,,,,,,,,,,,,,,,,,,,,,,,515.1234694000013,515.1371549000032,515.6527322000002,515.6218828000019,515.6497021000032,515.6527322000002,515.6527322000002,515.6527322000002,517.0228185000014,Scenes\026b.jpg,post,o,1.361429800002952,None,,,,,,,,00029,001,2025-11-17_20h24.42.007,MST_test,2024.2.0,59.872101217556306,2025-11-17 20h24.48.520233 +0530,
130,0,131,s,3.3525665999986813,None,131,0,130,517.037125400002,,,,,,,,,,,,,,,,,,,,,,,,,,,,,,,,,,,,,,,,,,,,,,,,,,517.0231535000021,517.037125400002,517.5417159000026,517.5221014000017,517.5386523000016,517.5417159000026,517.5417159000026,517.5417159000026,520.9064496000028,Objects\122b.jpg,post,s,3.3525665999986813,None,,,,,,,,00029,001,2025-11-17_20h24.42.007,MST_test,2024.2.0,59.872101217556306,2025-11-17 20h24.48.520233 +0530,
131,0,132,o,1.755020799999329,None,132,0,131,520.9204733000006,,,,,,,,,,,,,,,,,,,,,,,,,,,,,,,,,,,,,,,,,,,,,,,,,,520.906839700001,520.9204733000006,521.420646300001,521.4050275000009,521.4123902000028,521.420646300001,521.420646300001,521.420646300001,523.1895431000012,Objects\172a.jpg,pre,o,1.755020799999329,None,,,,,,,,00029,001,2025-11-17_20h24.42.007,MST_test,2024.2.0,59.872101217556306,2025-11-17 20h24.48.520233 +0530,
132,0,133,o,1.587531700002728,None,133,0,132,523.2037170000003,,,,,,,,,,,,,,,,,,,,,,,,,,,,,,,,,,,,,,,,,,,,,,,,,,523.1899387000012,523.2037170000003,523.7063951000018,523.6889084000031,523.7031696000013,523.7063951000018,523.7063951000018,523.7063951000018,525.3062586000015,Scenes\047a.jpg,mid,o,1.587531700002728,None,,,,,,,,00029,001,2025-11-17_20h24.42.007,MST_test,2024.2.0,59.872101217556306,2025-11-17 20h24.48.520233 +0530,
133,0,134,o,1.3453670000017155,None,134,0,133,525.3204913000009,,,,,,,,,,,,,,,,,,,,,,,,,,,,,,,,,,,,,,,,,,,,,,,,,,525.3066558999999,525.3204913000009,525.8211900000024,525.8050199000027,525.8138877000019,525.8211900000024,525.8211900000024,525.8211900000024,527.1729473000014,Objects\052a.jpg,post,o,1.3453670000017155,None,,,,,,,,00029,001,2025-11-17_20h24.42.007,MST_test,2024.2.0,59.872101217556306,2025-11-17 20h24.48.520233 +0530,
134,0,135,o,0.958591599999636,None,135,0,134,527.1871768000019,,,,,,,,,,,,,,,,,,,,,,,,,,,,,,,,,,,,,,,,,,,,,,,,,,527.1733430000022,527.1871768000019,527.6872497000004,527.6717344000026,527.6796730000024,527.6872497000004,527.6872497000004,527.6872497000004,528.6558629000028,Objects\156a.jpg,post,o,0.958591599999636,None,,,,,,,,00029,001,2025-11-17_20h24.42.007,MST_test,2024.2.0,59.872101217556306,2025-11-17 20h24.48.520233 +0530,
135,0,136,n,2.466407399999298,None,136,0,135,528.6705753000024,,,,,,,,,,,,,,,,,,,,,,,,,,,,,,,,,,,,,,,,,,,,,,,,,,528.6561639000029,528.6705753000024,529.1714413000009,529.154819000003,529.1683258000012,529.1714413000009,529.1714413000009,529.1714413000009,531.6394987000022,Scenes\105a.jpg,post,n,2.466407399999298,None,,,,,,,,00029,001,2025-11-17_20h24.42.007,MST_test,2024.2.0,59.872101217556306,2025-11-17 20h24.48.520233 +0530,
136,0,137,s,1.8357442000014998,None,137,0,136,531.6535077000008,,,,,,,,,,,,,,,,,,,,,,,,,,,,,,,,,,,,,,,,,,,,,,,,,,531.6398575000021,531.6535077000008,532.154449200003,532.1381419999998,532.145939500002,532.154449200003,532.154449200003,532.154449200003,534.0062352000023,Objects\085a.jpg,mid,s,1.8357442000014998,None,,,,,,,,00029,001,2025-11-17_20h24.42.007,MST_test,2024.2.0,59.872101217556306,2025-11-17 20h24.48.520233 +0530,
137,0,138,n,3.468871900000522,None,138,0,137,534.0205118000013,,,,,,,,,,,,,,,,,,,,,,,,,,,,,,,,,,,,,,,,,,,,,,,,,,534.0066165000026,534.0205118000013,534.521016900002,534.505081700001,534.5105254000009,534.521016900002,534.521016900002,534.521016900002,538.006556700002,Foils\scenes12.jpg,none,n,3.468871900000522,None,,,,,,,,00029,001,2025-11-17_20h24.42.007,MST_test,2024.2.0,59.872101217556306,2025-11-17 20h24.48.520233 +0530,
138,0,139,s,1.6427686999995785,None,139,0,138,538.020650800001,,,,,,,,,,,,,,,,,,,,,,,,,,,,,,,,,,,,,,,,,,,,,,,,,,538.0069573000001,538.020650800001,538.5312017000033,538.5047661000026,538.5284656000003,538.5312017000033,538.5312017000033,538.5312017000033,540.1896495000001,Scenes\167b.jpg,post,s,1.6427686999995785,None,,,,,,,,00029,001,2025-11-17_20h24.42.007,MST_test,2024.2.0,59.872101217556306,2025-11-17 20h24.48.520233 +0530,
139,0,140,s,1.1013729000005696,None,140,0,139,540.203878100001,,,,,,,,,,,,,,,,,,,,,,,,,,,,,,,,,,,,,,,,,,,,,,,,,,540.1900091000025,540.203878100001,540.7044568000019,540.6884131000006,540.6969914000001,540.7044568000019,540.7044568000019,540.7044568000019,541.8228813000023,Objects\011a.jpg,pre,s,1.1013729000005696,None,,,,,,,,00029,001,2025-11-17_20h24.42.007,MST_test,2024.2.0,59.872101217556306,2025-11-17 20h24.48.520233 +0530,
140,0,141,s,2.1137930000004417,None,141,0,140,541.8372922000017,,,,,,,,,,,,,,,,,,,,,,,,,,,,,,,,,,,,,,,,,,,,,,,,,,541.8232817000026,541.8372922000017,542.3411097000026,542.3216098000012,542.3383609000011,542.3411097000026,542.3411097000026,542.3411097000026,544.472723400002,Objects\108b.jpg,post,s,2.1137930000004417,None,,,,,,,,00029,001,2025-11-17_20h24.42.007,MST_test,2024.2.0,59.872101217556306,2025-11-17 20h24.48.520233 +0530,
141,0,142,o,1.8159193999999843,None,142,0,141,544.4871441000032,,,,,,,,,,,,,,,,,,,,,,,,,,,,,,,,,,,,,,,,,,,,,,,,,,544.4732065000026,544.4871441000032,544.9903904000021,544.9719586000028,544.9873544000002,544.9903904000021,544.9903904000021,544.9903904000021,546.8222969000017,Scenes\009a.jpg,mid,o,1.8159193999999843,None,,,,,,,,00029,001,2025-11-17_20h24.42.007,MST_test,2024.2.0,59.872101217556306,2025-11-17 20h24.48.520233 +0530,
142,0,143,s,1.5549200999994355,None,143,0,142,546.836976300001,,,,,,,,,,,,,,,,,,,,,,,,,,,,,,,,,,,,,,,,,,,,,,,,,,546.8226357000021,546.836976300001,547.3398831000013,547.3215622000025,547.3370370000011,547.3398831000013,547.3398831000013,547.3398831000013,548.9058751000011,Objects\123b.jpg,post,s,1.5549200999994355,None,,,,,,,,00029,001,2025-11-17_20h24.42.007,MST_test,2024.2.0,59.872101217556306,2025-11-17 20h24.48.520233 +0530,
143,0,144,o,2.7657483000002685,None,144,0,143,548.9203085000008,,,,,,,,,,,,,,,,,,,,,,,,,,,,,,,,,,,,,,,,,,,,,,,,,,548.9062682000003,548.9203085000008,549.4244769000034,549.4044451000009,549.4220972000003,549.4244769000034,549.4244769000034,549.4244769000034,552.2059343000001,Objects\043b.jpg,pre,o,2.7657483000002685,None,,,,,,,,00029,001,2025-11-17_20h24.42.007,MST_test,2024.2.0,59.872101217556306,2025-11-17 20h24.48.520233 +0530,
144,0,145,s,1.6809308000010788,None,145,0,144,552.2203419000034,,,,,,,,,,,,,,,,,,,,,,,,,,,,,,,,,,,,,,,,,,,,,,,,,,552.2063592000013,552.2203419000034,552.7255173000012,552.7051680000004,552.7228220000034,552.7255173000012,552.7255173000012,552.7255173000012,554.4225465000018,Objects\055b.jpg,pre,s,1.6809308000010788,None,,,,,,,,00029,001,2025-11-17_20h24.42.007,MST_test,2024.2.0,59.872101217556306,2025-11-17 20h24.48.520233 +0530,
145,0,146,s,1.3329763000001549,None,146,0,145,554.4369882999999,,,,,,,,,,,,,,,,,,,,,,,,,,,,,,,,,,,,,,,,,,,,,,,,,,554.4229440000017,554.4369882999999,554.9371528000011,554.9213013000008,554.9272271000009,554.9371528000011,554.9371528000011,554.9371528000011,556.2731449000021,Objects\061b.jpg,pre,s,1.3329763000001549,None,,,,,,,,00029,001,2025-11-17_20h24.42.007,MST_test,2024.2.0,59.872101217556306,2025-11-17 20h24.48.520233 +0530,
146,0,147,n,1.968565099999978,None,147,0,146,556.2869627,,,,,,,,,,,,,,,,,,,,,,,,,,,,,,,,,,,,,,,,,,,,,,,,,,556.2734952000028,556.2869627,556.7895008000014,556.771485600002,556.7870939000022,556.7895008000014,556.7895008000014,556.7895008000014,558.7725412,Objects\181b.jpg,post,n,1.968565099999978,None,,,,,,,,00029,001,2025-11-17_20h24.42.007,MST_test,2024.2.0,59.872101217556306,2025-11-17 20h24.48.520233 +0530,
147,0,148,n,4.55673139999999,None,148,0,147,558.7870058000008,,,,,,,,,,,,,,,,,,,,,,,,,,,,,,,,,,,,,,,,,,,,,,,,,,558.7728477000019,558.7870058000008,559.2905359000033,559.2714833999999,559.287806100001,559.2905359000033,559.2905359000033,559.2905359000033,563.8562972,Scenes\060a.jpg,pre,n,4.55673139999999,None,,,,,,,,00029,001,2025-11-17_20h24.42.007,MST_test,2024.2.0,59.872101217556306,2025-11-17 20h24.48.520233 +0530,
148,0,149,o,1.70586270000058,None,149,0,148,563.8705636000013,,,,,,,,,,,,,,,,,,,,,,,,,,,,,,,,,,,,,,,,,,,,,,,,,,563.856677900003,563.8705636000013,564.3721423000025,564.3547739000023,564.3692579000017,564.3721423000025,564.3721423000025,564.3721423000025,566.0896120000034,Scenes\070a.jpg,post,o,1.70586270000058,None,,,,,,,,00029,001,2025-11-17_20h24.42.007,MST_test,2024.2.0,59.872101217556306,2025-11-17 20h24.48.520233 +0530,
149,0,150,o,1.4180629000002227,None,150,0,149,566.1036722000026,,,,,,,,,,,,,,,,,,,,,,,,,,,,,,,,,,,,,,,,,,,,,,,,,,566.0900596000029,566.1036722000026,566.6043121000002,566.5872417999999,566.5909274000005,566.6043121000002,566.6043121000002,566.6043121000002,568.0390250000019,Objects\027a.jpg,mid,o,1.4180629000002227,None,,,,,,,,00029,001,2025-11-17_20h24.42.007,MST_test,2024.2.0,59.872101217556306,2025-11-17 20h24.48.520233 +0530,
,,,,,,,,,,,,,,,,,,,,,,,,,,,,,,,,,,,,,,,,,,,,,,,,,,,,,,,,,,,,,,,,,,,,,,,,,568.039246700002,568.0535935000007,568.0535935000007,569.6227104999998,space,1.5524411000005784,None,00029,001,2025-11-17_20h24.42.007,MST_test,2024.2.0,59.872101217556306,2025-11-17 20h24.48.520233 +0530,
