thisN,thisTrialN,thisRepN,key_resp_3.keys,key_resp_3.rt,key_resp_3.duration,trials.thisRepN,trials.thisTrialN,trials.thisN,trials.thisIndex,thisRow.t,notes,intro_page.started,text.started,key_resp.started,intro_page.stopped,key_resp.keys,key_resp.rt,key_resp.duration,instructions.started,text_2.started,key_resp_2.started,instructions.stopped,key_resp_2.keys,key_resp_2.rt,key_resp_2.duration,demo1.started,image_1.started,image_2.started,text_7.started,key_resp_6.started,text_9.started,demo1.stopped,key_resp_6.keys,key_resp_6.rt,key_resp_6.duration,demo2.started,image_5.started,image_6.started,text_11.started,text_12.started,key_resp_8.started,demo2.stopped,key_resp_8.keys,key_resp_8.rt,key_resp_8.duration,demo_conclusion.started,text_13.started,key_resp_9.started,demo_conclusion.stopped,key_resp_9.keys,key_resp_9.rt,key_resp_9.duration,start_test.started,text_6.started,key_resp_5.started,start_test.stopped,key_resp_5.keys,key_resp_5.rt,key_resp_5.duration,ISI.started,text_4.started,text_4.stopped,ISI.stopped,routine_1.started,image.started,text_3.started,key_resp_3.started,routine_1.stopped,image_path,position_of_stimuli,trials.key_resp_3.keys,trials.key_resp_3.rt,trials.key_resp_3.duration,End_page.started,text_5.started,key_resp_4.started,participant,session,date,expName,psychopyVersion,frameRate,expStart,
,,,,,,,,,,,,0.018054799998935778,0.0345034999991185,0.0345034999991185,2.9525642999979027,space,2.909471400002076,None,,,,,,,,,,,,,,,,,,,,,,,,,,,,,,,,,,,,,,,,,,,,,,,,,,,,,,,,,,,00025,001,2025-11-14_22h13.48.402,MST_test,2024.2.2,60.00294014462585,2025-11-14 22h13.54.524775 +0530,
,,,,,,,,,,,,,,,,,,,2.952594800000952,2.9676293000011356,2.9676293000011356,13.517933999999514,space,10.54798640000081,None,,,,,,,,,,,,,,,,,,,,,,,,,,,,,,,,,,,,,,,,,,,,,,,,,,,,00025,001,2025-11-14_22h13.48.402,MST_test,2024.2.2,60.00294014462585,2025-11-14 22h13.54.524775 +0530,
,,,,,,,,,,,,,,,,,,,,,,,,,,13.517963099999179,13.53404700000101,13.53404700000101,13.53404700000101,13.53404700000101,13.53404700000101,18.20092569999906,space,4.656118200000492,None,,,,,,,,,,,,,,,,,,,,,,,,,,,,,,,,,,,,,,,,,,00025,001,2025-11-14_22h13.48.402,MST_test,2024.2.2,60.00294014462585,2025-11-14 22h13.54.524775 +0530,
,,,,,,,,,,,,,,,,,,,,,,,,,,,,,,,,,,,,18.20094980000067,18.217274099999486,18.217274099999486,18.217274099999486,18.217274099999486,18.217274099999486,21.53432740000062,space,3.3013599999976577,None,,,,,,,,,,,,,,,,,,,,,,,,,,,,,,,,00025,001,2025-11-14_22h13.48.402,MST_test,2024.2.2,60.00294014462585,2025-11-14 22h13.54.524775 +0530,
,,,,,,,,,,,,,,,,,,,,,,,,,,,,,,,,,,,,,,,,,,,,,,21.53434930000003,21.55054879999807,21.55054879999807,54.66684600000008,space,33.10583169999882,None,,,,,,,,,,,,,,,,,,,,,,,,,00025,001,2025-11-14_22h13.48.402,MST_test,2024.2.2,60.00294014462585,2025-11-14 22h13.54.524775 +0530,
,,,,,,,,,,,,,,,,,,,,,,,,,,,,,,,,,,,,,,,,,,,,,,,,,,,,,54.666878899999574,54.683160299999145,54.683160299999145,72.09984369999802,space,17.414649700000155,None,,,,,,,,,,,,,,,,,,00025,001,2025-11-14_22h13.48.402,MST_test,2024.2.2,60.00294014462585,2025-11-14 22h13.54.524775 +0530,
0,0,0,s,4.584685100002389,None,0,0,0,0,72.1161405999992,,,,,,,,,,,,,,,,,,,,,,,,,,,,,,,,,,,,,,,,,,,,,,,,,,72.10291610000058,72.1161405999992,72.63299339999867,72.59974959999818,72.62387279999894,72.63299339999867,72.63299339999867,72.63299339999867,77.23323779999919,Scenes\058b.jpg,post,s,4.584685100002389,None,,,,00025,001,2025-11-14_22h13.48.402,MST_test,2024.2.2,60.00294014462585,2025-11-14 22h13.54.524775 +0530,
1,0,1,s,1.2016538999996556,None,1,0,1,0,77.24948709999808,,,,,,,,,,,,,,,,,,,,,,,,,,,,,,,,,,,,,,,,,,,,,,,,,,77.23332619999928,77.24948709999808,77.76601999999912,77.73292220000076,77.74890539999979,77.76601999999912,77.76601999999912,77.76601999999912,78.98292109999966,Scenes\113b.jpg,mid,s,1.2016538999996556,None,,,,00025,001,2025-11-14_22h13.48.402,MST_test,2024.2.2,60.00294014462585,2025-11-14 22h13.54.524775 +0530,
2,0,2,n,3.9772077000015997,None,2,0,2,0,78.99932869999975,,,,,,,,,,,,,,,,,,,,,,,,,,,,,,,,,,,,,,,,,,,,,,,,,,78.9830026999989,78.99932869999975,79.5160219999998,79.48287720000008,79.5005319999982,79.5160219999998,79.5160219999998,79.5160219999998,83.49948519999816,Scenes\068b.jpg,mid,n,3.9772077000015997,None,,,,00025,001,2025-11-14_22h13.48.402,MST_test,2024.2.2,60.00294014462585,2025-11-14 22h13.54.524775 +0530,
3,0,3,o,3.0865790999996534,None,3,0,3,0,83.5159046000008,,,,,,,,,,,,,,,,,,,,,,,,,,,,,,,,,,,,,,,,,,,,,,,,,,83.49956060000113,83.5159046000008,84.01607309999963,83.99937099999806,84.01012699999774,84.01607309999963,84.01607309999963,84.01607309999963,87.11610429999928,Objects\109a.jpg,pre,o,3.0865790999996534,None,,,,00025,001,2025-11-14_22h13.48.402,MST_test,2024.2.2,60.00294014462585,2025-11-14 22h13.54.524775 +0530,
4,0,4,o,1.1976260999981605,None,4,0,4,0,87.13253350000014,,,,,,,,,,,,,,,,,,,,,,,,,,,,,,,,,,,,,,,,,,,,,,,,,,87.11618029999954,87.13253350000014,87.63249759999962,87.61609419999877,87.62626720000117,87.63249759999962,87.63249759999962,87.63249759999962,88.83296269999846,Objects\034a.jpg,pre,o,1.1976260999981605,None,,,,00025,001,2025-11-14_22h13.48.402,MST_test,2024.2.2,60.00294014462585,2025-11-14 22h13.54.524775 +0530,
5,0,5,o,1.0457155000003695,None,5,0,5,0,88.84912129999793,,,,,,,,,,,,,,,,,,,,,,,,,,,,,,,,,,,,,,,,,,,,,,,,,,88.83303999999771,88.84912129999793,89.36575769999763,89.33278810000047,89.34385079999993,89.36575769999763,89.36575769999763,89.36575769999763,90.4162202999978,Scenes\169a.jpg,post,o,1.0457155000003695,None,,,,00025,001,2025-11-14_22h13.48.402,MST_test,2024.2.2,60.00294014462585,2025-11-14 22h13.54.524775 +0530,
6,0,6,o,1.7147226999986742,None,6,0,6,0,90.43241449999914,,,,,,,,,,,,,,,,,,,,,,,,,,,,,,,,,,,,,,,,,,,,,,,,,,90.41630079999959,90.43241449999914,90.94907369999783,90.91603829999804,90.92988229999901,90.94907369999783,90.94907369999783,90.94907369999783,92.66602580000108,Scenes\004a.jpg,mid,o,1.7147226999986742,None,,,,00025,001,2025-11-14_22h13.48.402,MST_test,2024.2.2,60.00294014462585,2025-11-14 22h13.54.524775 +0530,
7,0,7,o,1.7610910999974294,None,7,0,7,0,92.68236919999981,,,,,,,,,,,,,,,,,,,,,,,,,,,,,,,,,,,,,,,,,,,,,,,,,,92.66610410000067,92.68236919999981,93.19924850000098,93.16597510000065,93.17802649999794,93.19924850000098,93.19924850000098,93.19924850000098,94.96590959999958,Scenes\140a.jpg,pre,o,1.7610910999974294,None,,,,00025,001,2025-11-14_22h13.48.402,MST_test,2024.2.2,60.00294014462585,2025-11-14 22h13.54.524775 +0530,
8,0,8,s,3.1383709000001545,None,8,0,8,0,94.98233970000001,,,,,,,,,,,,,,,,,,,,,,,,,,,,,,,,,,,,,,,,,,,,,,,,,,94.9659834999984,94.98233970000001,95.49923389999822,95.46594819999882,95.48361010000008,95.49923389999822,95.49923389999822,95.49923389999822,98.64931589999833,Scenes\171a.jpg,pre,s,3.1383709000001545,None,,,,00025,001,2025-11-14_22h13.48.402,MST_test,2024.2.2,60.00294014462585,2025-11-14 22h13.54.524775 +0530,
9,0,9,n,1.0424356000003172,None,9,0,9,0,98.66561390000061,,,,,,,,,,,,,,,,,,,,,,,,,,,,,,,,,,,,,,,,,,,,,,,,,,98.64940529999876,98.66561390000061,99.16569700000036,99.14918039999975,99.16101780000099,99.16569700000036,99.16569700000036,99.16569700000036,100.21590690000085,Foils\scenes17.jpg,none,n,1.0424356000003172,None,,,,00025,001,2025-11-14_22h13.48.402,MST_test,2024.2.2,60.00294014462585,2025-11-14 22h13.54.524775 +0530,
10,0,10,o,1.4552930999998352,None,10,0,10,0,100.23224699999992,,,,,,,,,,,,,,,,,,,,,,,,,,,,,,,,,,,,,,,,,,,,,,,,,,100.21599219999916,100.23224699999992,100.73244530000011,100.7156345000003,100.7251064000011,100.73244530000011,100.73244530000011,100.73244530000011,102.1990885999985,Objects\149a.jpg,mid,o,1.4552930999998352,None,,,,00025,001,2025-11-14_22h13.48.402,MST_test,2024.2.2,60.00294014462585,2025-11-14 22h13.54.524775 +0530,
11,0,11,n,1.3438877999979013,None,11,0,11,0,102.21546500000113,,,,,,,,,,,,,,,,,,,,,,,,,,,,,,,,,,,,,,,,,,,,,,,,,,102.19916379999995,102.21546500000113,102.71573910000006,102.69910339999842,102.7095049999989,102.71573910000006,102.71573910000006,102.71573910000006,104.06578799999988,Scenes\126a.jpg,post,n,1.3438877999979013,None,,,,00025,001,2025-11-14_22h13.48.402,MST_test,2024.2.2,60.00294014462585,2025-11-14 22h13.54.524775 +0530,
12,0,12,s,1.7153160000016214,None,12,0,12,0,104.08212930000082,,,,,,,,,,,,,,,,,,,,,,,,,,,,,,,,,,,,,,,,,,,,,,,,,,104.06586410000091,104.08212930000082,104.59894429999986,104.56569759999911,104.59362580000015,104.59894429999986,104.59894429999986,104.59894429999986,106.3158340000009,Foils\scenes12.jpg,none,s,1.7153160000016214,None,,,,00025,001,2025-11-14_22h13.48.402,MST_test,2024.2.2,60.00294014462585,2025-11-14 22h13.54.524775 +0530,
13,0,13,o,1.46718619999956,None,13,0,13,0,106.33206040000005,,,,,,,,,,,,,,,,,,,,,,,,,,,,,,,,,,,,,,,,,,,,,,,,,,106.31591789999948,106.33206040000005,106.83203330000106,106.81566240000029,106.82740959999865,106.83203330000106,106.83203330000106,106.83203330000106,108.31563140000071,Foils\scenes1.jpg,none,o,1.46718619999956,None,,,,00025,001,2025-11-14_22h13.48.402,MST_test,2024.2.2,60.00294014462585,2025-11-14 22h13.54.524775 +0530,
14,0,14,o,1.8696574000023247,None,14,0,14,0,108.33200310000029,,,,,,,,,,,,,,,,,,,,,,,,,,,,,,,,,,,,,,,,,,,,,,,,,,108.31570799999827,108.33200310000029,108.8489081000007,108.815649199998,108.82564369999818,108.8489081000007,108.8489081000007,108.8489081000007,110.73237719999815,Scenes\137a.jpg,mid,o,1.8696574000023247,None,,,,00025,001,2025-11-14_22h13.48.402,MST_test,2024.2.2,60.00294014462585,2025-11-14 22h13.54.524775 +0530,
15,0,15,o,1.099078199997166,None,15,0,15,0,110.7486691999984,,,,,,,,,,,,,,,,,,,,,,,,,,,,,,,,,,,,,,,,,,,,,,,,,,110.73245339999994,110.7486691999984,111.24903429999904,111.23216939999838,111.24170199999935,111.24903429999904,111.24903429999904,111.24903429999904,112.34898559999783,Objects\186a.jpg,post,o,1.099078199997166,None,,,,00025,001,2025-11-14_22h13.48.402,MST_test,2024.2.2,60.00294014462585,2025-11-14 22h13.54.524775 +0530,
16,0,16,o,0.7226220999982615,None,16,0,16,0,112.3653521999986,,,,,,,,,,,,,,,,,,,,,,,,,,,,,,,,,,,,,,,,,,,,,,,,,,112.34907549999843,112.3653521999986,112.8819067000004,112.84887289999824,112.86447390000103,112.8819067000004,112.8819067000004,112.8819067000004,113.6156923999988,Objects\146b.jpg,pre,o,0.7226220999982615,None,,,,00025,001,2025-11-14_22h13.48.402,MST_test,2024.2.2,60.00294014462585,2025-11-14 22h13.54.524775 +0530,
17,0,17,o,0.9620615999992879,None,17,0,17,0,113.63188330000048,,,,,,,,,,,,,,,,,,,,,,,,,,,,,,,,,,,,,,,,,,,,,,,,,,113.61578559999907,113.63188330000048,114.13186979999955,114.11550929999794,114.12676849999843,114.13186979999955,114.13186979999955,114.13186979999955,115.09880469999916,Objects\135a.jpg,mid,o,0.9620615999992879,None,,,,00025,001,2025-11-14_22h13.48.402,MST_test,2024.2.2,60.00294014462585,2025-11-14 22h13.54.524775 +0530,
18,0,18,o,0.9909814999991795,None,18,0,18,0,115.11522049999985,,,,,,,,,,,,,,,,,,,,,,,,,,,,,,,,,,,,,,,,,,,,,,,,,,115.09888239999782,115.11522049999985,115.61517639999875,115.59883179999815,115.60858050000024,115.61517639999875,115.61517639999875,115.61517639999875,116.61554260000048,Objects\004a.jpg,post,o,0.9909814999991795,None,,,,00025,001,2025-11-14_22h13.48.402,MST_test,2024.2.2,60.00294014462585,2025-11-14 22h13.54.524775 +0530,
19,0,19,n,1.8577837999982876,None,19,0,19,0,116.63185410000006,,,,,,,,,,,,,,,,,,,,,,,,,,,,,,,,,,,,,,,,,,,,,,,,,,116.61562200000117,116.63185410000006,117.14848269999857,117.11535139999978,117.1316126999991,117.14848269999857,117.14848269999857,117.14848269999857,119.01539879999837,Objects\141b.jpg,post,n,1.8577837999982876,None,,,,00025,001,2025-11-14_22h13.48.402,MST_test,2024.2.2,60.00294014462585,2025-11-14 22h13.54.524775 +0530,
20,0,20,o,1.0630845999985468,None,20,0,20,0,119.03179799999998,,,,,,,,,,,,,,,,,,,,,,,,,,,,,,,,,,,,,,,,,,,,,,,,,,119.01547189999837,119.03179799999998,119.54843650000112,119.51540349999777,119.53179439999803,119.54843650000112,119.54843650000112,119.54843650000112,120.61541849999776,Objects\042b.jpg,mid,o,1.0630845999985468,None,,,,00025,001,2025-11-14_22h13.48.402,MST_test,2024.2.2,60.00294014462585,2025-11-14 22h13.54.524775 +0530,
21,0,21,o,1.6296306999975059,None,21,0,21,0,120.63176539999768,,,,,,,,,,,,,,,,,,,,,,,,,,,,,,,,,,,,,,,,,,,,,,,,,,120.61549409999861,120.63176539999768,121.14866939999774,121.11526569999842,121.12748450000072,121.14866939999774,121.14866939999774,121.14866939999774,122.78207889999976,Scenes\021a.jpg,mid,o,1.6296306999975059,None,,,,00025,001,2025-11-14_22h13.48.402,MST_test,2024.2.2,60.00294014462585,2025-11-14 22h13.54.524775 +0530,
22,0,22,n,2.1707822999997006,None,22,0,22,0,122.79838530000052,,,,,,,,,,,,,,,,,,,,,,,,,,,,,,,,,,,,,,,,,,,,,,,,,,122.78216629999952,122.79838530000052,123.31503510000039,123.28200260000085,123.2980647000004,123.31503510000039,123.31503510000039,123.31503510000039,125.49876949999816,Foils\020b.jpg,none,n,2.1707822999997006,None,,,,00025,001,2025-11-14_22h13.48.402,MST_test,2024.2.2,60.00294014462585,2025-11-14 22h13.54.524775 +0530,
23,0,23,n,0.946265400001721,None,23,0,23,0,125.51505199999883,,,,,,,,,,,,,,,,,,,,,,,,,,,,,,,,,,,,,,,,,,,,,,,,,,125.49884889999885,125.51505199999883,126.03165509999963,125.99859740000102,126.01443229999859,126.03165509999963,126.03165509999963,126.03165509999963,126.98204540000006,Foils\121a.jpg,none,n,0.946265400001721,None,,,,00025,001,2025-11-14_22h13.48.402,MST_test,2024.2.2,60.00294014462585,2025-11-14 22h13.54.524775 +0530,
24,0,24,n,1.4671899000022677,None,24,0,24,0,126.99829569999929,,,,,,,,,,,,,,,,,,,,,,,,,,,,,,,,,,,,,,,,,,,,,,,,,,126.9821265999999,126.99829569999929,127.51491809999789,127.48178159999952,127.49758819999988,127.51491809999789,127.51491809999789,127.51491809999789,128.99862310000026,Foils\105a.jpg,none,n,1.4671899000022677,None,,,,00025,001,2025-11-14_22h13.48.402,MST_test,2024.2.2,60.00294014462585,2025-11-14 22h13.54.524775 +0530,
25,0,25,o,2.5234759999984817,None,25,0,25,0,129.01492460000009,,,,,,,,,,,,,,,,,,,,,,,,,,,,,,,,,,,,,,,,,,,,,,,,,,128.9986987000011,129.01492460000009,129.51449819999834,129.49850239999796,129.50903459999972,129.51449819999834,129.51449819999834,129.51449819999834,132.04846039999757,Scenes\075a.jpg,pre,o,2.5234759999984817,None,,,,00025,001,2025-11-14_22h13.48.402,MST_test,2024.2.2,60.00294014462585,2025-11-14 22h13.54.524775 +0530,
26,0,26,n,1.1101780000026338,None,26,0,26,0,132.06484419999833,,,,,,,,,,,,,,,,,,,,,,,,,,,,,,,,,,,,,,,,,,,,,,,,,,132.0485383999985,132.06484419999833,132.58155439999973,132.5485289999997,132.56493670000054,132.58155439999973,132.58155439999973,132.58155439999973,133.6986083999982,Foils\113a.jpg,none,n,1.1101780000026338,None,,,,00025,001,2025-11-14_22h13.48.402,MST_test,2024.2.2,60.00294014462585,2025-11-14 22h13.54.524775 +0530,
27,0,27,s,2.0307565000002796,None,27,0,27,0,133.71488429999954,,,,,,,,,,,,,,,,,,,,,,,,,,,,,,,,,,,,,,,,,,,,,,,,,,133.69869109999854,133.71488429999954,134.2314669999978,134.19833719999951,134.21538879999935,134.2314669999978,134.2314669999978,134.2314669999978,136.26514189999943,Objects\108b.jpg,post,s,2.0307565000002796,None,,,,00025,001,2025-11-14_22h13.48.402,MST_test,2024.2.2,60.00294014462585,2025-11-14 22h13.54.524775 +0530,
28,0,28,o,1.880129900000611,None,28,0,28,0,136.28140209999765,,,,,,,,,,,,,,,,,,,,,,,,,,,,,,,,,,,,,,,,,,,,,,,,,,136.2652292999992,136.28140209999765,136.7982387000011,136.7649808999995,136.78073070000028,136.7982387000011,136.7982387000011,136.7982387000011,138.681743000001,Scenes\181b.jpg,mid,o,1.880129900000611,None,,,,00025,001,2025-11-14_22h13.48.402,MST_test,2024.2.2,60.00294014462585,2025-11-14 22h13.54.524775 +0530,
29,0,29,s,1.6892334000003757,None,29,0,29,0,138.69804609999846,,,,,,,,,,,,,,,,,,,,,,,,,,,,,,,,,,,,,,,,,,,,,,,,,,138.68182700000034,138.69804609999846,139.2149055000009,139.18152249999912,139.19853859999785,139.2149055000009,139.2149055000009,139.2149055000009,140.91504519999944,Scenes\101b.jpg,pre,s,1.6892334000003757,None,,,,00025,001,2025-11-14_22h13.48.402,MST_test,2024.2.2,60.00294014462585,2025-11-14 22h13.54.524775 +0530,
30,0,30,n,1.3959457999990263,None,30,0,30,0,140.93133260000104,,,,,,,,,,,,,,,,,,,,,,,,,,,,,,,,,,,,,,,,,,,,,,,,,,140.9151196999992,140.93133260000104,141.44818329999907,141.4149123999996,141.43809129999863,141.44818329999907,141.44818329999907,141.44818329999907,142.84831549999944,Scenes\032b.jpg,mid,n,1.3959457999990263,None,,,,00025,001,2025-11-14_22h13.48.402,MST_test,2024.2.2,60.00294014462585,2025-11-14 22h13.54.524775 +0530,
31,0,31,n,0.7081073000008473,None,31,0,31,0,142.8646200000003,,,,,,,,,,,,,,,,,,,,,,,,,,,,,,,,,,,,,,,,,,,,,,,,,,142.8483985999992,142.8646200000003,143.3814371999979,143.34809440000026,143.36405670000022,143.3814371999979,143.3814371999979,143.3814371999979,144.09834609999962,Objects\190b.jpg,mid,n,0.7081073000008473,None,,,,00025,001,2025-11-14_22h13.48.402,MST_test,2024.2.2,60.00294014462585,2025-11-14 22h13.54.524775 +0530,
32,0,32,o,1.3348425000003772,None,32,0,32,0,144.11459850000028,,,,,,,,,,,,,,,,,,,,,,,,,,,,,,,,,,,,,,,,,,,,,,,,,,144.0984247999986,144.11459850000028,144.63124569999854,144.59823300000062,144.61337170000115,144.63124569999854,144.63124569999854,144.63124569999854,145.98146439999982,Objects\162b.jpg,pre,o,1.3348425000003772,None,,,,00025,001,2025-11-14_22h13.48.402,MST_test,2024.2.2,60.00294014462585,2025-11-14 22h13.54.524775 +0530,
33,0,33,n,1.0752147999992303,None,33,0,33,0,145.997914399999,,,,,,,,,,,,,,,,,,,,,,,,,,,,,,,,,,,,,,,,,,,,,,,,,,145.9815512999994,145.997914399999,146.5145092999992,146.48142649999863,146.49770269999863,146.5145092999992,146.5145092999992,146.5145092999992,147.598157299999,Foils\074a.jpg,none,n,1.0752147999992303,None,,,,00025,001,2025-11-14_22h13.48.402,MST_test,2024.2.2,60.00294014462585,2025-11-14 22h13.54.524775 +0530,
34,0,34,n,2.499991199998476,None,34,0,34,0,147.61456049999833,,,,,,,,,,,,,,,,,,,,,,,,,,,,,,,,,,,,,,,,,,,,,,,,,,147.59823759999927,147.61456049999833,148.1313384999994,148.09802889999992,148.11353980000058,148.1313384999994,148.1313384999994,148.1313384999994,150.63172180000038,Scenes\139b.jpg,pre,n,2.499991199998476,None,,,,00025,001,2025-11-14_22h13.48.402,MST_test,2024.2.2,60.00294014462585,2025-11-14 22h13.54.524775 +0530,
35,0,35,o,1.1259184000009554,None,35,0,35,0,150.64779559999806,,,,,,,,,,,,,,,,,,,,,,,,,,,,,,,,,,,,,,,,,,,,,,,,,,150.63180830000056,150.64779559999806,151.1477468999983,151.1313881999995,151.14119769999888,151.1477468999983,151.1477468999983,151.1477468999983,152.28139309999824,Objects\038a.jpg,mid,o,1.1259184000009554,None,,,,00025,001,2025-11-14_22h13.48.402,MST_test,2024.2.2,60.00294014462585,2025-11-14 22h13.54.524775 +0530,
36,0,36,n,3.6871119999996154,None,36,0,36,0,152.297722299998,,,,,,,,,,,,,,,,,,,,,,,,,,,,,,,,,,,,,,,,,,,,,,,,,,152.28147399999943,152.297722299998,152.81437490000098,152.78124729999763,152.79452070000116,152.81437490000098,152.81437490000098,152.81437490000098,156.51456719999987,Scenes\010a.jpg,post,n,3.6871119999996154,None,,,,00025,001,2025-11-14_22h13.48.402,MST_test,2024.2.2,60.00294014462585,2025-11-14 22h13.54.524775 +0530,
37,0,37,n,0.841979500000889,None,37,0,37,0,156.5310000999998,,,,,,,,,,,,,,,,,,,,,,,,,,,,,,,,,,,,,,,,,,,,,,,,,,156.51465280000048,156.5310000999998,157.04767849999917,157.0144760000003,157.03017529999852,157.04767849999917,157.04767849999917,157.04767849999917,157.89817539999785,Foils\101b.jpg,none,n,0.841979500000889,None,,,,00025,001,2025-11-14_22h13.48.402,MST_test,2024.2.2,60.00294014462585,2025-11-14 22h13.54.524775 +0530,
38,0,38,n,1.1385793999979796,None,38,0,38,0,157.91425769999842,,,,,,,,,,,,,,,,,,,,,,,,,,,,,,,,,,,,,,,,,,,,,,,,,,157.8982552999987,157.91425769999842,158.4309515999994,158.3977511999983,158.41035479999846,158.4309515999994,158.4309515999994,158.4309515999994,159.5813281999981,Scenes\063a.jpg,mid,n,1.1385793999979796,None,,,,00025,001,2025-11-14_22h13.48.402,MST_test,2024.2.2,60.00294014462585,2025-11-14 22h13.54.524775 +0530,
39,0,39,s,1.5303447999976925,None,39,0,39,0,159.59759380000105,,,,,,,,,,,,,,,,,,,,,,,,,,,,,,,,,,,,,,,,,,,,,,,,,,159.5814145000004,159.59759380000105,160.1142206000004,160.08119499999884,160.09761359999902,160.1142206000004,160.1142206000004,160.1142206000004,161.64819139999963,Objects\145b.jpg,post,s,1.5303447999976925,None,,,,00025,001,2025-11-14_22h13.48.402,MST_test,2024.2.2,60.00294014462585,2025-11-14 22h13.54.524775 +0530,
40,0,40,s,3.52746180000031,None,40,0,40,0,161.66427599999952,,,,,,,,,,,,,,,,,,,,,,,,,,,,,,,,,,,,,,,,,,,,,,,,,,161.64826990000074,161.66427599999952,162.16417770000044,162.14767949999805,162.15773649999755,162.16417770000044,162.16417770000044,162.16417770000044,165.69775389999995,Objects\080a.jpg,post,s,3.52746180000031,None,,,,00025,001,2025-11-14_22h13.48.402,MST_test,2024.2.2,60.00294014462585,2025-11-14 22h13.54.524775 +0530,
41,0,41,o,1.4293365000012273,None,41,0,41,0,165.71409679999852,,,,,,,,,,,,,,,,,,,,,,,,,,,,,,,,,,,,,,,,,,,,,,,,,,165.69784169999912,165.71409679999852,166.28109299999778,166.1975977000002,166.26249240000107,166.28109299999778,166.28109299999778,166.28109299999778,167.71450600000026,Foils\scenes15.jpg,none,o,1.4293365000012273,None,,,,00025,001,2025-11-14_22h13.48.402,MST_test,2024.2.2,60.00294014462585,2025-11-14 22h13.54.524775 +0530,
42,0,42,n,2.0192310999991605,None,42,0,42,0,167.7307394999989,,,,,,,,,,,,,,,,,,,,,,,,,,,,,,,,,,,,,,,,,,,,,,,,,,167.71457969999756,167.7307394999989,168.23070709999956,168.2143345000004,168.22597200000018,168.23070709999956,168.23070709999956,168.23070709999956,170.2643203999978,Objects\169a.jpg,post,n,2.0192310999991605,None,,,,00025,001,2025-11-14_22h13.48.402,MST_test,2024.2.2,60.00294014462585,2025-11-14 22h13.54.524775 +0530,
43,0,43,o,1.3728182000013476,None,43,0,43,0,170.2806942999996,,,,,,,,,,,,,,,,,,,,,,,,,,,,,,,,,,,,,,,,,,,,,,,,,,170.26440649999859,170.2806942999996,170.78065409999908,170.7641463,170.77446100000088,170.78065409999908,170.78065409999908,170.78065409999908,172.16428319999977,Objects\015a.jpg,post,o,1.3728182000013476,None,,,,00025,001,2025-11-14_22h13.48.402,MST_test,2024.2.2,60.00294014462585,2025-11-14 22h13.54.524775 +0530,
44,0,44,o,0.9680205000004207,None,44,0,44,0,172.1806704999981,,,,,,,,,,,,,,,,,,,,,,,,,,,,,,,,,,,,,,,,,,,,,,,,,,172.16436939999767,172.1806704999981,172.69758509999883,172.66411069999958,172.68397689999983,172.69758509999883,172.69758509999883,172.69758509999883,173.6808603999998,Scenes\182a.jpg,post,o,0.9680205000004207,None,,,,00025,001,2025-11-14_22h13.48.402,MST_test,2024.2.2,60.00294014462585,2025-11-14 22h13.54.524775 +0530,
45,0,45,s,1.726401200001419,None,45,0,45,0,173.69729219999863,,,,,,,,,,,,,,,,,,,,,,,,,,,,,,,,,,,,,,,,,,,,,,,,,,173.68094469999778,173.69729219999863,174.21397799999977,174.1807755000009,174.203493099998,174.21397799999977,174.21397799999977,174.21397799999977,175.94749310000043,Scenes\190a.jpg,post,s,1.726401200001419,None,,,,00025,001,2025-11-14_22h13.48.402,MST_test,2024.2.2,60.00294014462585,2025-11-14 22h13.54.524775 +0530,
46,0,46,o,1.569750999999087,None,46,0,46,0,175.9639062999995,,,,,,,,,,,,,,,,,,,,,,,,,,,,,,,,,,,,,,,,,,,,,,,,,,175.9475711999985,175.9639062999995,176.48052889999963,176.44745649999822,176.4674570999996,176.48052889999963,176.48052889999963,176.48052889999963,178.06413229999816,Scenes\156a.jpg,post,o,1.569750999999087,None,,,,00025,001,2025-11-14_22h13.48.402,MST_test,2024.2.2,60.00294014462585,2025-11-14 22h13.54.524775 +0530,
47,0,47,o,0.8095665000000736,None,47,0,47,0,178.08052979999775,,,,,,,,,,,,,,,,,,,,,,,,,,,,,,,,,,,,,,,,,,,,,,,,,,178.06420739999885,178.08052979999775,178.58053999999902,178.56398550000085,178.5741898999986,178.58053999999902,178.58053999999902,178.58053999999902,179.3974930000004,Objects\160a.jpg,mid,o,0.8095665000000736,None,,,,00025,001,2025-11-14_22h13.48.402,MST_test,2024.2.2,60.00294014462585,2025-11-14 22h13.54.524775 +0530,
48,0,48,n,1.0638289999988046,None,48,0,48,0,179.41384339999786,,,,,,,,,,,,,,,,,,,,,,,,,,,,,,,,,,,,,,,,,,,,,,,,,,179.39756789999956,179.41384339999786,179.93049930000052,179.89729799999986,179.91322669999863,179.93049930000052,179.93049930000052,179.93049930000052,180.9975384999998,Objects\025b.jpg,pre,n,1.0638289999988046,None,,,,00025,001,2025-11-14_22h13.48.402,MST_test,2024.2.2,60.00294014462585,2025-11-14 22h13.54.524775 +0530,
49,0,49,n,2.465053899999475,None,49,0,49,0,181.01383160000114,,,,,,,,,,,,,,,,,,,,,,,,,,,,,,,,,,,,,,,,,,,,,,,,,,180.9976444999993,181.01383160000114,181.53043600000092,181.49726179999925,181.5159883999986,181.53043600000092,181.53043600000092,181.53043600000092,183.99733299999934,Scenes\077a.jpg,post,n,2.465053899999475,None,,,,00025,001,2025-11-14_22h13.48.402,MST_test,2024.2.2,60.00294014462585,2025-11-14 22h13.54.524775 +0530,
50,0,50,n,1.3334452000017336,None,50,0,50,0,184.01373749999766,,,,,,,,,,,,,,,,,,,,,,,,,,,,,,,,,,,,,,,,,,,,,,,,,,183.99742060000062,184.01373749999766,184.53039309999804,184.49722679999832,184.5133550999999,184.53039309999804,184.53039309999804,184.53039309999804,185.8641518000004,Objects\028b.jpg,post,n,1.3334452000017336,None,,,,00025,001,2025-11-14_22h13.48.402,MST_test,2024.2.2,60.00294014462585,2025-11-14 22h13.54.524775 +0530,
51,0,51,n,1.2033504999999423,None,51,0,51,0,185.88036179999835,,,,,,,,,,,,,,,,,,,,,,,,,,,,,,,,,,,,,,,,,,,,,,,,,,185.86422479999965,185.88036179999835,186.3801061999984,186.3639278999981,186.37625719999778,186.3801061999984,186.3801061999984,186.3801061999984,187.59737830000086,Scenes\053b.jpg,mid,n,1.2033504999999423,None,,,,00025,001,2025-11-14_22h13.48.402,MST_test,2024.2.2,60.00294014462585,2025-11-14 22h13.54.524775 +0530,
52,0,52,n,1.0144202999981644,None,52,0,52,0,187.61366149999958,,,,,,,,,,,,,,,,,,,,,,,,,,,,,,,,,,,,,,,,,,,,,,,,,,187.59746330000053,187.61366149999958,188.1470623999994,188.09721219999847,188.13226769999892,188.1470623999994,188.1470623999994,188.1470623999994,189.16391049999947,Foils\scenes7.jpg,none,n,1.0144202999981644,None,,,,00025,001,2025-11-14_22h13.48.402,MST_test,2024.2.2,60.00294014462585,2025-11-14 22h13.54.524775 +0530,
53,0,53,o,1.2029255999987072,None,53,0,53,0,189.18029739999838,,,,,,,,,,,,,,,,,,,,,,,,,,,,,,,,,,,,,,,,,,,,,,,,,,189.16399399999864,189.18029739999838,189.69691869999951,189.66382189999786,189.67972369999916,189.69691869999951,189.69691869999951,189.69691869999951,190.9138884999993,Objects\178b.jpg,post,o,1.2029255999987072,None,,,,00025,001,2025-11-14_22h13.48.402,MST_test,2024.2.2,60.00294014462585,2025-11-14 22h13.54.524775 +0530,
54,0,54,n,1.3778493999998318,None,54,0,54,0,190.93025959999795,,,,,,,,,,,,,,,,,,,,,,,,,,,,,,,,,,,,,,,,,,,,,,,,,,190.9139725999994,190.93025959999795,191.4302132999983,191.41376599999785,191.42462019999948,191.4302132999983,191.4302132999983,191.4302132999983,192.81426529999953,Foils\scenes18.jpg,none,n,1.3778493999998318,None,,,,00025,001,2025-11-14_22h13.48.402,MST_test,2024.2.2,60.00294014462585,2025-11-14 22h13.54.524775 +0530,
55,0,55,o,1.1321898000023793,None,55,0,55,0,192.83017729999847,,,,,,,,,,,,,,,,,,,,,,,,,,,,,,,,,,,,,,,,,,,,,,,,,,192.81435109999802,192.83017729999847,193.3301657999982,193.3137812999994,193.3233188999984,193.3301657999982,193.3301657999982,193.3301657999982,194.4638988000006,Objects\036a.jpg,mid,o,1.1321898000023793,None,,,,00025,001,2025-11-14_22h13.48.402,MST_test,2024.2.2,60.00294014462585,2025-11-14 22h13.54.524775 +0530,
56,0,56,o,0.6834775999996054,None,56,0,56,0,194.4802181999985,,,,,,,,,,,,,,,,,,,,,,,,,,,,,,,,,,,,,,,,,,,,,,,,,,194.46397530000104,194.4802181999985,194.98013580000043,194.96363890000066,194.97352709999905,194.98013580000043,194.98013580000043,194.98013580000043,195.66391799999838,Objects\022a.jpg,pre,o,0.6834775999996054,None,,,,00025,001,2025-11-14_22h13.48.402,MST_test,2024.2.2,60.00294014462585,2025-11-14 22h13.54.524775 +0530,
57,0,57,n,1.0859597999988182,None,57,0,57,0,195.68014119999862,,,,,,,,,,,,,,,,,,,,,,,,,,,,,,,,,,,,,,,,,,,,,,,,,,195.6639901999988,195.68014119999862,196.19734450000033,196.1636155999986,196.18703919999825,196.19734450000033,196.19734450000033,196.19734450000033,197.29703090000112,Scenes\177b.jpg,post,n,1.0859597999988182,None,,,,00025,001,2025-11-14_22h13.48.402,MST_test,2024.2.2,60.00294014462585,2025-11-14 22h13.54.524775 +0530,
58,0,58,n,1.874695900001825,None,58,0,58,0,197.31345370000054,,,,,,,,,,,,,,,,,,,,,,,,,,,,,,,,,,,,,,,,,,,,,,,,,,197.2971155999985,197.31345370000054,197.81371819999913,197.79701080000086,197.80312109999795,197.81371819999913,197.81371819999913,197.81371819999913,199.6969625999991,Foils\scenes19.jpg,none,n,1.874695900001825,None,,,,00025,001,2025-11-14_22h13.48.402,MST_test,2024.2.2,60.00294014462585,2025-11-14 22h13.54.524775 +0530,
59,0,59,s,1.367746600000828,None,59,0,59,0,199.71340209999835,,,,,,,,,,,,,,,,,,,,,,,,,,,,,,,,,,,,,,,,,,,,,,,,,,199.69703819999995,199.71340209999835,200.23002020000058,200.196927099998,200.21936149999965,200.23002020000058,200.23002020000058,200.23002020000058,201.61368890000085,Scenes\163b.jpg,post,s,1.367746600000828,None,,,,00025,001,2025-11-14_22h13.48.402,MST_test,2024.2.2,60.00294014462585,2025-11-14 22h13.54.524775 +0530,
60,0,60,s,1.3513344999992114,None,60,0,60,0,201.63002749999941,,,,,,,,,,,,,,,,,,,,,,,,,,,,,,,,,,,,,,,,,,,,,,,,,,201.6137751999995,201.63002749999941,202.1301827999996,202.11356370000067,202.12363650000043,202.1301827999996,202.1301827999996,202.1301827999996,203.4971282000006,Objects\008a.jpg,pre,s,1.3513344999992114,None,,,,00025,001,2025-11-14_22h13.48.402,MST_test,2024.2.2,60.00294014462585,2025-11-14 22h13.54.524775 +0530,
61,0,61,n,1.1904176999996707,None,61,0,61,0,203.51336549999905,,,,,,,,,,,,,,,,,,,,,,,,,,,,,,,,,,,,,,,,,,,,,,,,,,203.49720669999806,203.51336549999905,204.02993399999832,203.99691059999896,204.01421520000076,204.02993399999832,204.02993399999832,204.02993399999832,205.2303510999991,Scenes\069a.jpg,pre,n,1.1904176999996707,None,,,,00025,001,2025-11-14_22h13.48.402,MST_test,2024.2.2,60.00294014462585,2025-11-14 22h13.54.524775 +0530,
62,0,62,n,1.564716100001533,None,62,0,62,0,205.24660669999867,,,,,,,,,,,,,,,,,,,,,,,,,,,,,,,,,,,,,,,,,,,,,,,,,,205.23043549999784,205.24660669999867,205.76323649999904,205.73020589999942,205.7576059999992,205.76323649999904,205.76323649999904,205.76323649999904,207.3302822000005,Scenes\072b.jpg,mid,n,1.564716100001533,None,,,,00025,001,2025-11-14_22h13.48.402,MST_test,2024.2.2,60.00294014462585,2025-11-14 22h13.54.524775 +0530,
63,0,63,s,1.559393800001999,None,63,0,63,0,207.34656130000076,,,,,,,,,,,,,,,,,,,,,,,,,,,,,,,,,,,,,,,,,,,,,,,,,,207.33036139999967,207.34656130000076,207.84652310000092,207.83010219999778,207.84059409999827,207.84652310000092,207.84652310000092,207.84652310000092,209.41361809999944,Objects\183a.jpg,pre,s,1.559393800001999,None,,,,00025,001,2025-11-14_22h13.48.402,MST_test,2024.2.2,60.00294014462585,2025-11-14 22h13.54.524775 +0530,
64,0,64,o,2.107956899999408,None,64,0,64,0,209.4298568999984,,,,,,,,,,,,,,,,,,,,,,,,,,,,,,,,,,,,,,,,,,,,,,,,,,209.41370449999886,209.4298568999984,209.92986720000044,209.91342299999815,209.92355719999978,209.92986720000044,209.92986720000044,209.92986720000044,212.04682709999906,Objects\054a.jpg,mid,o,2.107956899999408,None,,,,00025,001,2025-11-14_22h13.48.402,MST_test,2024.2.2,60.00294014462585,2025-11-14 22h13.54.524775 +0530,
65,0,65,n,0.9635218000003078,None,65,0,65,0,212.06312529999923,,,,,,,,,,,,,,,,,,,,,,,,,,,,,,,,,,,,,,,,,,,,,,,,,,212.0469211999989,212.06312529999923,212.84658149999814,212.54675280000083,212.82229580000057,212.84658149999814,212.84658149999814,212.84658149999814,213.8134331000001,Foils\scenes26.jpg,none,n,0.9635218000003078,None,,,,00025,001,2025-11-14_22h13.48.402,MST_test,2024.2.2,60.00294014462585,2025-11-14 22h13.54.524775 +0530,
66,0,66,o,2.157459599999129,None,66,0,66,0,213.82975760000045,,,,,,,,,,,,,,,,,,,,,,,,,,,,,,,,,,,,,,,,,,,,,,,,,,213.81350729999758,213.82975760000045,214.34638189999896,214.31325389999984,214.32802769999762,214.34638189999896,214.34638189999896,214.34638189999896,216.513390600001,Objects\095a.jpg,post,o,2.157459599999129,None,,,,00025,001,2025-11-14_22h13.48.402,MST_test,2024.2.2,60.00294014462585,2025-11-14 22h13.54.524775 +0530,
67,0,67,n,1.3424506000010297,None,67,0,67,0,216.52970099999948,,,,,,,,,,,,,,,,,,,,,,,,,,,,,,,,,,,,,,,,,,,,,,,,,,216.51346550000017,216.52970099999948,217.04632259999926,217.01319109999895,217.02856109999993,217.04632259999926,217.04632259999926,217.04632259999926,218.39668539999911,Foils\050a.jpg,none,n,1.3424506000010297,None,,,,00025,001,2025-11-14_22h13.48.402,MST_test,2024.2.2,60.00294014462585,2025-11-14 22h13.54.524775 +0530,
68,0,68,o,1.2005342999982531,None,68,0,68,0,218.41299459999937,,,,,,,,,,,,,,,,,,,,,,,,,,,,,,,,,,,,,,,,,,,,,,,,,,218.39676400000099,218.41299459999937,218.92962369999805,218.89648989999841,218.9127351999996,218.92962369999805,218.92962369999805,218.92962369999805,220.14688409999872,Objects\089b.jpg,post,o,1.2005342999982531,None,,,,00025,001,2025-11-14_22h13.48.402,MST_test,2024.2.2,60.00294014462585,2025-11-14 22h13.54.524775 +0530,
69,0,69,o,0.9887703999993391,None,69,0,69,0,220.16295999999784,,,,,,,,,,,,,,,,,,,,,,,,,,,,,,,,,,,,,,,,,,,,,,,,,,220.14696370000092,220.16295999999784,,220.64723159999994,220.6682820999995,220.71335719999843,220.71335719999843,220.71335719999843,221.7132731999991,Scenes\043a.jpg,mid,o,0.9887703999993391,None,,,,00025,001,2025-11-14_22h13.48.402,MST_test,2024.2.2,60.00294014462585,2025-11-14 22h13.54.524775 +0530,
70,0,70,s,1.5738973000006808,None,70,0,70,0,221.7296724000007,,,,,,,,,,,,,,,,,,,,,,,,,,,,,,,,,,,,,,,,,,,,,,,,,,221.71336429999792,221.7296724000007,222.24630539999998,222.21333159999995,222.23270100000082,222.24630539999998,222.24630539999998,222.24630539999998,223.83000379999794,Scenes\074a.jpg,pre,s,1.5738973000006808,None,,,,00025,001,2025-11-14_22h13.48.402,MST_test,2024.2.2,60.00294014462585,2025-11-14 22h13.54.524775 +0530,
71,0,71,o,1.2809778000009828,None,71,0,71,0,223.84630249999827,,,,,,,,,,,,,,,,,,,,,,,,,,,,,,,,,,,,,,,,,,,,,,,,,,223.8300835000009,223.84630249999827,224.36293119999755,224.3298207000007,224.3452529999995,224.36293119999755,224.36293119999755,224.36293119999755,225.6467397999986,Objects\046b.jpg,pre,o,1.2809778000009828,None,,,,00025,001,2025-11-14_22h13.48.402,MST_test,2024.2.2,60.00294014462585,2025-11-14 22h13.54.524775 +0530,
72,0,72,n,1.1521777999987535,None,72,0,72,0,225.66293089999817,,,,,,,,,,,,,,,,,,,,,,,,,,,,,,,,,,,,,,,,,,,,,,,,,,225.64682189999803,225.66293089999817,226.17955849999998,226.14654750000045,226.16204740000103,226.17955849999998,226.17955849999998,226.17955849999998,227.34649589999754,Foils\042a.jpg,none,n,1.1521777999987535,None,,,,00025,001,2025-11-14_22h13.48.402,MST_test,2024.2.2,60.00294014462585,2025-11-14 22h13.54.524775 +0530,
73,0,73,s,1.9405389999992622,None,73,0,73,0,227.36292239999966,,,,,,,,,,,,,,,,,,,,,,,,,,,,,,,,,,,,,,,,,,,,,,,,,,227.34657040000093,227.36292239999966,227.8795444999996,227.84648430000016,227.86176469999918,227.8795444999996,227.8795444999996,227.8795444999996,229.82979010000054,Objects\058b.jpg,mid,s,1.9405389999992622,None,,,,00025,001,2025-11-14_22h13.48.402,MST_test,2024.2.2,60.00294014462585,2025-11-14 22h13.54.524775 +0530,
74,0,74,n,3.000036099998397,None,74,0,74,0,229.84616729999834,,,,,,,,,,,,,,,,,,,,,,,,,,,,,,,,,,,,,,,,,,,,,,,,,,229.8298653999991,229.84616729999834,230.36279649999778,230.3296358000007,230.34474580000096,230.36279649999778,230.36279649999778,230.36279649999778,233.36316989999978,Objects\121b.jpg,post,n,3.000036099998397,None,,,,00025,001,2025-11-14_22h13.48.402,MST_test,2024.2.2,60.00294014462585,2025-11-14 22h13.54.524775 +0530,
75,0,75,o,2.134472099998675,None,75,0,75,0,233.3795812999997,,,,,,,,,,,,,,,,,,,,,,,,,,,,,,,,,,,,,,,,,,,,,,,,,,233.3632523999986,233.3795812999997,233.87940610000078,233.86294289999933,233.87268349999795,233.87940610000078,233.87940610000078,233.87940610000078,236.02963409999938,Objects\173a.jpg,post,o,2.134472099998675,None,,,,00025,001,2025-11-14_22h13.48.402,MST_test,2024.2.2,60.00294014462585,2025-11-14 22h13.54.524775 +0530,
76,0,76,n,1.1175557999995362,None,76,0,76,0,236.04602890000024,,,,,,,,,,,,,,,,,,,,,,,,,,,,,,,,,,,,,,,,,,,,,,,,,,236.0297232999983,236.04602890000024,236.54625549999764,236.52954730000056,236.54112539999915,236.54625549999764,236.54625549999764,236.54625549999764,237.67957919999753,Foils\scenes6.jpg,none,n,1.1175557999995362,None,,,,00025,001,2025-11-14_22h13.48.402,MST_test,2024.2.2,60.00294014462585,2025-11-14 22h13.54.524775 +0530,
77,0,77,o,0.9969787000009092,None,77,0,77,0,237.6960349000001,,,,,,,,,,,,,,,,,,,,,,,,,,,,,,,,,,,,,,,,,,,,,,,,,,237.67966239999805,237.6960349000001,238.2128593999987,238.1794665999987,238.1970709999987,238.2128593999987,238.2128593999987,238.2128593999987,239.21293389999846,Scenes\111a.jpg,post,o,0.9969787000009092,None,,,,00025,001,2025-11-14_22h13.48.402,MST_test,2024.2.2,60.00294014462585,2025-11-14 22h13.54.524775 +0530,
78,0,78,o,0.7597023999987869,None,78,0,78,0,239.22927069999787,,,,,,,,,,,,,,,,,,,,,,,,,,,,,,,,,,,,,,,,,,,,,,,,,,239.21302260000084,239.22927069999787,239.74592459999985,239.7129133999988,239.729989200001,239.74592459999985,239.74592459999985,239.74592459999985,240.51289189999807,Scenes\080a.jpg,post,o,0.7597023999987869,None,,,,00025,001,2025-11-14_22h13.48.402,MST_test,2024.2.2,60.00294014462585,2025-11-14 22h13.54.524775 +0530,
79,0,79,s,1.4010779999989609,None,79,0,79,0,240.52924939999866,,,,,,,,,,,,,,,,,,,,,,,,,,,,,,,,,,,,,,,,,,,,,,,,,,240.51296419999926,240.52924939999866,241.029233199999,241.0127391999995,241.02387539999836,241.029233199999,241.029233199999,241.029233199999,242.44629780000105,Objects\087a.jpg,mid,s,1.4010779999989609,None,,,,00025,001,2025-11-14_22h13.48.402,MST_test,2024.2.2,60.00294014462585,2025-11-14 22h13.54.524775 +0530,
80,0,80,o,1.5092384999989008,None,80,0,80,0,242.46256770000036,,,,,,,,,,,,,,,,,,,,,,,,,,,,,,,,,,,,,,,,,,,,,,,,,,242.44638199999827,242.46256770000036,242.96248259999993,242.94601780000085,242.95654279999872,242.96248259999993,242.96248259999993,242.96248259999993,244.47947729999942,Objects\144a.jpg,mid,o,1.5092384999989008,None,,,,00025,001,2025-11-14_22h13.48.402,MST_test,2024.2.2,60.00294014462585,2025-11-14 22h13.54.524775 +0530,
81,0,81,s,0.7510786000020744,None,81,0,81,0,244.495857599999,,,,,,,,,,,,,,,,,,,,,,,,,,,,,,,,,,,,,,,,,,,,,,,,,,244.47956359999807,244.495857599999,245.01251279999997,244.97930980000092,244.9940643000009,245.01251279999997,245.01251279999997,245.01251279999997,245.77948599999945,Foils\034a.jpg,none,s,0.7510786000020744,None,,,,00025,001,2025-11-14_22h13.48.402,MST_test,2024.2.2,60.00294014462585,2025-11-14 22h13.54.524775 +0530,
82,0,82,n,1.9332778000025428,None,82,0,82,0,245.79583060000004,,,,,,,,,,,,,,,,,,,,,,,,,,,,,,,,,,,,,,,,,,,,,,,,,,245.77956059999997,245.79583060000004,246.3124800000005,246.27928669999892,246.29484049999883,246.3124800000005,246.3124800000005,246.3124800000005,248.24626870000066,Objects\084b.jpg,post,n,1.9332778000025428,None,,,,00025,001,2025-11-14_22h13.48.402,MST_test,2024.2.2,60.00294014462585,2025-11-14 22h13.54.524775 +0530,
83,0,83,s,2.261714000000211,None,83,0,83,0,248.26243749999776,,,,,,,,,,,,,,,,,,,,,,,,,,,,,,,,,,,,,,,,,,,,,,,,,,248.2463523999977,248.26243749999776,248.7960959000011,248.74587229999815,248.77992280000035,248.7960959000011,248.7960959000011,248.7960959000011,251.06256829999984,Scenes\088b.jpg,pre,s,2.261714000000211,None,,,,00025,001,2025-11-14_22h13.48.402,MST_test,2024.2.2,60.00294014462585,2025-11-14 22h13.54.524775 +0530,
84,0,84,s,1.7539806999993743,None,84,0,84,0,251.07895569999891,,,,,,,,,,,,,,,,,,,,,,,,,,,,,,,,,,,,,,,,,,,,,,,,,,251.0626532999995,251.07895569999891,251.61243309999918,251.5624543999984,251.59823640000104,251.61243309999918,251.61243309999918,251.61243309999918,253.3792226000005,Scenes\034b.jpg,pre,s,1.7539806999993743,None,,,,00025,001,2025-11-14_22h13.48.402,MST_test,2024.2.2,60.00294014462585,2025-11-14 22h13.54.524775 +0530,
85,0,85,n,1.6976051000019652,None,85,0,85,0,253.3955743999977,,,,,,,,,,,,,,,,,,,,,,,,,,,,,,,,,,,,,,,,,,,,,,,,,,253.37930259999848,253.3955743999977,253.92915039999934,253.87908989999778,253.908352800001,253.92915039999934,253.92915039999934,253.92915039999934,255.6291620999982,Scenes\012b.jpg,post,n,1.6976051000019652,None,,,,00025,001,2025-11-14_22h13.48.402,MST_test,2024.2.2,60.00294014462585,2025-11-14 22h13.54.524775 +0530,
86,0,86,n,0.7689891000009084,None,86,0,86,0,255.64552800000092,,,,,,,,,,,,,,,,,,,,,,,,,,,,,,,,,,,,,,,,,,,,,,,,,,255.6292418999983,255.64552800000092,256.1624733999997,256.1290689999987,256.1457252,256.1624733999997,256.1624733999997,256.1624733999997,256.94576869999946,Foils\018a.jpg,none,n,0.7689891000009084,None,,,,00025,001,2025-11-14_22h13.48.402,MST_test,2024.2.2,60.00294014462585,2025-11-14 22h13.54.524775 +0530,
87,0,87,o,2.187144299998181,None,87,0,87,0,256.9621389999993,,,,,,,,,,,,,,,,,,,,,,,,,,,,,,,,,,,,,,,,,,,,,,,,,,256.94584720000057,256.9621389999993,257.462418799998,257.4456315999996,257.4539670999984,257.462418799998,257.462418799998,257.462418799998,259.66237399999955,Scenes\097a.jpg,pre,o,2.187144299998181,None,,,,00025,001,2025-11-14_22h13.48.402,MST_test,2024.2.2,60.00294014462585,2025-11-14 22h13.54.524775 +0530,
88,0,88,o,1.46189460000096,None,88,0,88,0,259.6787824999992,,,,,,,,,,,,,,,,,,,,,,,,,,,,,,,,,,,,,,,,,,,,,,,,,,259.6624536999989,259.6787824999992,260.19568029999937,260.1622499999976,260.1843437999996,260.19568029999937,260.19568029999937,260.19568029999937,261.66238879999946,Scenes\143a.jpg,mid,o,1.46189460000096,None,,,,00025,001,2025-11-14_22h13.48.402,MST_test,2024.2.2,60.00294014462585,2025-11-14 22h13.54.524775 +0530,
89,0,89,s,1.6531716999998025,None,89,0,89,0,261.67869319999954,,,,,,,,,,,,,,,,,,,,,,,,,,,,,,,,,,,,,,,,,,,,,,,,,,261.66246540000066,261.67869319999954,262.1954060999997,262.1621607999987,262.1849035999985,262.1954060999997,262.1954060999997,262.1954060999997,263.86229620000086,Scenes\116b.jpg,pre,s,1.6531716999998025,None,,,,00025,001,2025-11-14_22h13.48.402,MST_test,2024.2.2,60.00294014462585,2025-11-14 22h13.54.524775 +0530,
90,0,90,o,1.961258600000292,None,90,0,90,0,263.8787224000007,,,,,,,,,,,,,,,,,,,,,,,,,,,,,,,,,,,,,,,,,,,,,,,,,,263.86238199999934,263.8787224000007,264.3953247999998,264.3622851,264.37991540000075,264.3953247999998,264.3953247999998,264.3953247999998,266.36232539999764,Objects\001b.jpg,post,o,1.961258600000292,None,,,,00025,001,2025-11-14_22h13.48.402,MST_test,2024.2.2,60.00294014462585,2025-11-14 22h13.54.524775 +0530,
91,0,91,o,0.8190909999975702,None,91,0,91,0,266.37860119999823,,,,,,,,,,,,,,,,,,,,,,,,,,,,,,,,,,,,,,,,,,,,,,,,,,266.36240069999985,266.37860119999823,266.8785792999988,266.86213040000075,266.8723886000007,266.8785792999988,266.8785792999988,266.8785792999988,267.7121881999992,Objects\079a.jpg,mid,o,0.8190909999975702,None,,,,00025,001,2025-11-14_22h13.48.402,MST_test,2024.2.2,60.00294014462585,2025-11-14 22h13.54.524775 +0530,
92,0,92,s,1.4809032999983174,None,92,0,92,0,267.72860030000083,,,,,,,,,,,,,,,,,,,,,,,,,,,,,,,,,,,,,,,,,,,,,,,,,,267.71226319999914,267.72860030000083,268.22885739999765,268.21207539999887,268.2231451999978,268.22885739999765,268.22885739999765,268.22885739999765,269.7122688999989,Foils\scenes2.jpg,none,s,1.4809032999983174,None,,,,00025,001,2025-11-14_22h13.48.402,MST_test,2024.2.2,60.00294014462585,2025-11-14 22h13.54.524775 +0530,
93,0,93,o,1.2776659000010113,None,93,0,93,0,269.7285591,,,,,,,,,,,,,,,,,,,,,,,,,,,,,,,,,,,,,,,,,,,,,,,,,,269.712344399999,269.7285591,270.2285073999992,270.2120364000002,270.2214838,270.2285073999992,270.2285073999992,270.2285073999992,271.5122243000005,Objects\011a.jpg,pre,o,1.2776659000010113,None,,,,00025,001,2025-11-14_22h13.48.402,MST_test,2024.2.2,60.00294014462585,2025-11-14 22h13.54.524775 +0530,
94,0,94,s,1.5768509000008635,None,94,0,94,0,271.5285167000002,,,,,,,,,,,,,,,,,,,,,,,,,,,,,,,,,,,,,,,,,,,,,,,,,,271.51229930000045,271.5285167000002,272.04540199999974,272.01203389999864,272.03373250000004,272.04540199999974,272.04540199999974,272.04540199999974,273.62874119999833,Scenes\153b.jpg,mid,s,1.5768509000008635,None,,,,00025,001,2025-11-14_22h13.48.402,MST_test,2024.2.2,60.00294014462585,2025-11-14 22h13.54.524775 +0530,
95,0,95,s,2.470273399998405,None,95,0,95,0,273.6451369999995,,,,,,,,,,,,,,,,,,,,,,,,,,,,,,,,,,,,,,,,,,,,,,,,,,273.6288179000003,273.6451369999995,274.14510900000096,274.1286302999979,274.13883709999936,274.14510900000096,274.14510900000096,274.14510900000096,276.6287161,Objects\184a.jpg,mid,s,2.470273399998405,None,,,,00025,001,2025-11-14_22h13.48.402,MST_test,2024.2.2,60.00294014462585,2025-11-14 22h13.54.524775 +0530,
96,0,96,n,1.4467459999978018,None,96,0,96,0,276.64506170000095,,,,,,,,,,,,,,,,,,,,,,,,,,,,,,,,,,,,,,,,,,,,,,,,,,276.6287975999985,276.64506170000095,277.16170019999845,277.1285554999995,277.1446797999997,277.16170019999845,277.16170019999845,277.16170019999845,278.61207260000083,Foils\017a.jpg,none,n,1.4467459999978018,None,,,,00025,001,2025-11-14_22h13.48.402,MST_test,2024.2.2,60.00294014462585,2025-11-14 22h13.54.524775 +0530,
97,0,97,n,0.8459583000003477,None,97,0,97,0,278.6283674999977,,,,,,,,,,,,,,,,,,,,,,,,,,,,,,,,,,,,,,,,,,,,,,,,,,278.6121671000001,278.6283674999977,279.1620963999994,279.11189730000115,279.14245310000115,279.1620963999994,279.1620963999994,279.1620963999994,280.0119429999977,Foils\scenes3.jpg,none,n,0.8459583000003477,None,,,,00025,001,2025-11-14_22h13.48.402,MST_test,2024.2.2,60.00294014462585,2025-11-14 22h13.54.524775 +0530,
98,0,98,n,1.8546705000007933,None,98,0,98,0,280.02832839999974,,,,,,,,,,,,,,,,,,,,,,,,,,,,,,,,,,,,,,,,,,,,,,,,,,280.01202489999923,280.02832839999974,280.54495769999994,280.51188959999854,280.52757610000117,280.54495769999994,280.54495769999994,280.54495769999994,282.41195510000034,Objects\134b.jpg,pre,n,1.8546705000007933,None,,,,00025,001,2025-11-14_22h13.48.402,MST_test,2024.2.2,60.00294014462585,2025-11-14 22h13.54.524775 +0530,
99,0,99,n,1.252851199998986,None,99,0,99,0,282.42827770000076,,,,,,,,,,,,,,,,,,,,,,,,,,,,,,,,,,,,,,,,,,,,,,,,,,282.4120275999994,282.42827770000076,282.96197029999894,282.91198689999874,282.9544610999983,282.96197029999894,282.96197029999894,282.96197029999894,284.2286329999988,Foils\scenes28.jpg,none,n,1.252851199998986,None,,,,00025,001,2025-11-14_22h13.48.402,MST_test,2024.2.2,60.00294014462585,2025-11-14 22h13.54.524775 +0530,
100,0,100,n,0.7443567000009352,None,100,0,100,0,284.2449158999989,,,,,,,,,,,,,,,,,,,,,,,,,,,,,,,,,,,,,,,,,,,,,,,,,,284.22871210000085,284.2449158999989,284.7615326999985,284.7283760999999,284.7447248999997,284.7615326999985,284.7615326999985,284.7615326999985,285.5118790999986,Objects\050b.jpg,mid,n,0.7443567000009352,None,,,,00025,001,2025-11-14_22h13.48.402,MST_test,2024.2.2,60.00294014462585,2025-11-14 22h13.54.524775 +0530,
101,0,101,n,1.5689573000017845,None,101,0,101,0,285.5282253999976,,,,,,,,,,,,,,,,,,,,,,,,,,,,,,,,,,,,,,,,,,,,,,,,,,285.51195630000075,285.5282253999976,286.0451686999986,286.0117481999987,286.0390626999979,286.0451686999986,286.0451686999986,286.0451686999986,287.62849970000025,Scenes\189b.jpg,pre,n,1.5689573000017845,None,,,,00025,001,2025-11-14_22h13.48.402,MST_test,2024.2.2,60.00294014462585,2025-11-14 22h13.54.524775 +0530,
102,0,102,s,1.2211244999998598,None,102,0,102,0,287.6448399000001,,,,,,,,,,,,,,,,,,,,,,,,,,,,,,,,,,,,,,,,,,,,,,,,,,287.62858570000026,287.6448399000001,288.1448412999998,288.1283724999994,288.1382589999994,288.1448412999998,288.1448412999998,288.1448412999998,289.3784945999978,Objects\104a.jpg,post,s,1.2211244999998598,None,,,,00025,001,2025-11-14_22h13.48.402,MST_test,2024.2.2,60.00294014462585,2025-11-14 22h13.54.524775 +0530,
103,0,103,n,2.7594304000012926,None,103,0,103,0,289.3948010999993,,,,,,,,,,,,,,,,,,,,,,,,,,,,,,,,,,,,,,,,,,,,,,,,,,289.3785749999988,289.3948010999993,289.89495859999806,289.87833789999786,289.8898485999998,289.89495859999806,289.89495859999806,289.89495859999806,292.6617477,Foils\scenes13.jpg,none,n,2.7594304000012926,None,,,,00025,001,2025-11-14_22h13.48.402,MST_test,2024.2.2,60.00294014462585,2025-11-14 22h13.54.524775 +0530,
104,0,104,s,1.4031135000004724,None,104,0,104,0,292.6780637000011,,,,,,,,,,,,,,,,,,,,,,,,,,,,,,,,,,,,,,,,,,,,,,,,,,292.6618367999981,292.6780637000011,293.19491560000097,293.1615907999985,293.1791272999981,293.19491560000097,293.19491560000097,293.19491560000097,294.61170180000045,Scenes\061b.jpg,post,s,1.4031135000004724,None,,,,00025,001,2025-11-14_22h13.48.402,MST_test,2024.2.2,60.00294014462585,2025-11-14 22h13.54.524775 +0530,
105,0,105,n,1.0611194000011892,None,105,0,105,0,294.62803279999935,,,,,,,,,,,,,,,,,,,,,,,,,,,,,,,,,,,,,,,,,,,,,,,,,,294.61177739999766,294.62803279999935,295.14464729999963,295.1114854999978,295.1275367999988,295.14464729999963,295.14464729999963,295.14464729999963,296.2117197999978,Foils\058a.jpg,none,n,1.0611194000011892,None,,,,00025,001,2025-11-14_22h13.48.402,MST_test,2024.2.2,60.00294014462585,2025-11-14 22h13.54.524775 +0530,
106,0,106,n,1.325383299998066,None,106,0,106,0,296.227956499999,,,,,,,,,,,,,,,,,,,,,,,,,,,,,,,,,,,,,,,,,,,,,,,,,,296.2117957999981,296.227956499999,296.74487039999804,296.7114675999983,296.7317292000007,296.74487039999804,296.74487039999804,296.74487039999804,298.0785429999996,Scenes\106a.jpg,pre,n,1.325383299998066,None,,,,00025,001,2025-11-14_22h13.48.402,MST_test,2024.2.2,60.00294014462585,2025-11-14 22h13.54.524775 +0530,
107,0,107,o,0.9874595000001136,None,107,0,107,0,298.0946120999979,,,,,,,,,,,,,,,,,,,,,,,,,,,,,,,,,,,,,,,,,,,,,,,,,,298.07862490000116,298.0946120999979,298.5945630999995,298.5780859000006,298.5876540999998,298.5945630999995,298.5945630999995,298.5945630999995,299.5949326000009,Objects\033a.jpg,pre,o,0.9874595000001136,None,,,,00025,001,2025-11-14_22h13.48.402,MST_test,2024.2.2,60.00294014462585,2025-11-14 22h13.54.524775 +0530,
108,0,108,o,1.7117351999986568,None,108,0,108,0,299.6112465999977,,,,,,,,,,,,,,,,,,,,,,,,,,,,,,,,,,,,,,,,,,,,,,,,,,299.59501499999897,299.6112465999977,300.12810869999885,300.09479029999784,300.11422369999855,300.12810869999885,300.12810869999885,300.12810869999885,301.8451132000009,Scenes\079a.jpg,pre,o,1.7117351999986568,None,,,,00025,001,2025-11-14_22h13.48.402,MST_test,2024.2.2,60.00294014462585,2025-11-14 22h13.54.524775 +0530,
109,0,109,o,1.2994260999985272,None,109,0,109,0,301.86119680000047,,,,,,,,,,,,,,,,,,,,,,,,,,,,,,,,,,,,,,,,,,,,,,,,,,301.8452013999995,301.86119680000047,302.37807749999774,302.34484800000064,302.3670487999989,302.37807749999774,302.37807749999774,302.37807749999774,303.6782525999988,Scenes\085a.jpg,mid,o,1.2994260999985272,None,,,,00025,001,2025-11-14_22h13.48.402,MST_test,2024.2.2,60.00294014462585,2025-11-14 22h13.54.524775 +0530,
110,0,110,s,1.326525299999048,None,110,0,110,0,303.6944747999987,,,,,,,,,,,,,,,,,,,,,,,,,,,,,,,,,,,,,,,,,,,,,,,,,,303.67834030000085,303.6944747999987,304.21110869999757,304.1780546000009,304.20508849999896,304.21110869999757,304.21110869999757,304.21110869999757,305.54473359999974,Scenes\150b.jpg,pre,s,1.326525299999048,None,,,,00025,001,2025-11-14_22h13.48.402,MST_test,2024.2.2,60.00294014462585,2025-11-14 22h13.54.524775 +0530,
111,0,111,o,1.1951308000025165,None,111,0,111,0,305.561112899999,,,,,,,,,,,,,,,,,,,,,,,,,,,,,,,,,,,,,,,,,,,,,,,,,,305.54481609999857,305.561112899999,306.06138550000105,306.04462879999846,306.05455879999863,306.06138550000105,306.06138550000105,306.06138550000105,307.26142489999984,Objects\188a.jpg,pre,o,1.1951308000025165,None,,,,00025,001,2025-11-14_22h13.48.402,MST_test,2024.2.2,60.00294014462585,2025-11-14 22h13.54.524775 +0530,
112,0,112,n,1.2352267999995092,None,112,0,112,0,307.2777453999988,,,,,,,,,,,,,,,,,,,,,,,,,,,,,,,,,,,,,,,,,,,,,,,,,,307.26150699999926,307.2777453999988,307.7946536999989,307.76127909999923,307.77753049999956,307.7946536999989,307.7946536999989,307.7946536999989,309.0447596999984,Scenes\022b.jpg,mid,n,1.2352267999995092,None,,,,00025,001,2025-11-14_22h13.48.402,MST_test,2024.2.2,60.00294014462585,2025-11-14 22h13.54.524775 +0530,
113,0,113,s,1.3243761000012455,None,113,0,113,0,309.06104269999923,,,,,,,,,,,,,,,,,,,,,,,,,,,,,,,,,,,,,,,,,,,,,,,,,,309.0448418999986,309.06104269999923,309.57769819999885,309.5445899999977,309.56144029999996,309.57769819999885,309.57769819999885,309.57769819999885,310.91134260000035,Objects\133b.jpg,pre,s,1.3243761000012455,None,,,,00025,001,2025-11-14_22h13.48.402,MST_test,2024.2.2,60.00294014462585,2025-11-14 22h13.54.524775 +0530,
114,0,114,s,1.611565499999415,None,114,0,114,0,310.9276609999979,,,,,,,,,,,,,,,,,,,,,,,,,,,,,,,,,,,,,,,,,,,,,,,,,,310.9114273999985,310.9276609999979,311.44429200000013,311.4111602999983,311.42680370000016,311.44429200000013,311.44429200000013,311.44429200000013,313.0612899000007,Objects\035b.jpg,mid,s,1.611565499999415,None,,,,00025,001,2025-11-14_22h13.48.402,MST_test,2024.2.2,60.00294014462585,2025-11-14 22h13.54.524775 +0530,
115,0,115,s,1.7261222999986785,None,115,0,115,0,313.0776244000008,,,,,,,,,,,,,,,,,,,,,,,,,,,,,,,,,,,,,,,,,,,,,,,,,,313.06137339999987,313.0776244000008,313.596027399999,313.5611675,313.58750339999824,313.596027399999,313.596027399999,313.596027399999,315.32797479999863,Scenes\045a.jpg,post,s,1.7261222999986785,None,,,,00025,001,2025-11-14_22h13.48.402,MST_test,2024.2.2,60.00294014462585,2025-11-14 22h13.54.524775 +0530,
116,0,116,s,1.23183760000029,None,116,0,116,0,315.34424059999947,,,,,,,,,,,,,,,,,,,,,,,,,,,,,,,,,,,,,,,,,,,,,,,,,,315.3280511999983,315.34424059999947,315.8609013999994,315.827771100001,315.8541974,315.8609013999994,315.8609013999994,315.8609013999994,317.09478579999995,Scenes\095b.jpg,mid,s,1.23183760000029,None,,,,00025,001,2025-11-14_22h13.48.402,MST_test,2024.2.2,60.00294014462585,2025-11-14 22h13.54.524775 +0530,
117,0,117,s,1.4647041999996873,None,117,0,117,0,317.1108663999985,,,,,,,,,,,,,,,,,,,,,,,,,,,,,,,,,,,,,,,,,,,,,,,,,,317.0948725999988,317.1108663999985,317.627523799998,317.59443610000017,317.6100970000007,317.627523799998,317.627523799998,317.627523799998,319.09470560000045,Objects\093b.jpg,post,s,1.4647041999996873,None,,,,00025,001,2025-11-14_22h13.48.402,MST_test,2024.2.2,60.00294014462585,2025-11-14 22h13.54.524775 +0530,
118,0,118,o,1.398530700000265,None,118,0,118,0,319.11081829999966,,,,,,,,,,,,,,,,,,,,,,,,,,,,,,,,,,,,,,,,,,,,,,,,,,319.09478749999835,319.11081829999966,319.6274797999977,319.5945309999988,319.60995550000007,319.6274797999977,319.6274797999977,319.6274797999977,321.02783629999976,Objects\112b.jpg,mid,o,1.398530700000265,None,,,,00025,001,2025-11-14_22h13.48.402,MST_test,2024.2.2,60.00294014462585,2025-11-14 22h13.54.524775 +0530,
119,0,119,s,1.4073185000015656,None,119,0,119,0,321.0441498,,,,,,,,,,,,,,,,,,,,,,,,,,,,,,,,,,,,,,,,,,,,,,,,,,321.02792039999986,321.0441498,321.5607385000003,321.5276405000004,321.5428983999991,321.5607385000003,321.5607385000003,321.5607385000003,322.9777381999993,Objects\177b.jpg,mid,s,1.4073185000015656,None,,,,00025,001,2025-11-14_22h13.48.402,MST_test,2024.2.2,60.00294014462585,2025-11-14 22h13.54.524775 +0530,
120,0,120,s,1.105261699998664,None,120,0,120,0,322.9940738000005,,,,,,,,,,,,,,,,,,,,,,,,,,,,,,,,,,,,,,,,,,,,,,,,,,322.9778201000008,322.9940738000005,323.5276496000006,323.47767229999954,323.5201548999976,323.5276496000006,323.5276496000006,323.5276496000006,324.64437739999994,Foils\scenes27.jpg,none,s,1.105261699998664,None,,,,00025,001,2025-11-14_22h13.48.402,MST_test,2024.2.2,60.00294014462585,2025-11-14 22h13.54.524775 +0530,
121,0,121,o,1.3031756000018504,None,121,0,121,0,324.660710199998,,,,,,,,,,,,,,,,,,,,,,,,,,,,,,,,,,,,,,,,,,,,,,,,,,324.6444659000008,324.660710199998,325.17734759999803,325.1442754999989,325.16166769999836,325.17734759999803,325.17734759999803,325.17734759999803,326.4943533000005,Objects\026b.jpg,pre,o,1.3031756000018504,None,,,,00025,001,2025-11-14_22h13.48.402,MST_test,2024.2.2,60.00294014462585,2025-11-14 22h13.54.524775 +0530,
122,0,122,s,1.8032196999993175,None,122,0,122,0,326.5106582999979,,,,,,,,,,,,,,,,,,,,,,,,,,,,,,,,,,,,,,,,,,,,,,,,,,326.49443619999874,326.5106582999979,327.02728690000004,326.9941418999988,327.0098044999977,327.02728690000004,327.02728690000004,327.02728690000004,328.8443746999983,Objects\073b.jpg,mid,s,1.8032196999993175,None,,,,00025,001,2025-11-14_22h13.48.402,MST_test,2024.2.2,60.00294014462585,2025-11-14 22h13.54.524775 +0530,
123,0,123,s,1.9483719999989262,None,123,0,123,0,328.86061250000057,,,,,,,,,,,,,,,,,,,,,,,,,,,,,,,,,,,,,,,,,,,,,,,,,,328.84445969999797,328.86061250000057,329.37725529999807,329.34417100000064,329.3600655000009,329.37725529999807,329.37725529999807,329.37725529999807,331.3276444000003,Objects\023b.jpg,pre,s,1.9483719999989262,None,,,,00025,001,2025-11-14_22h13.48.402,MST_test,2024.2.2,60.00294014462585,2025-11-14 22h13.54.524775 +0530,
124,0,124,s,1.263308199999301,None,124,0,124,0,331.34389999999985,,,,,,,,,,,,,,,,,,,,,,,,,,,,,,,,,,,,,,,,,,,,,,,,,,331.3277272999985,331.34389999999985,331.86055489999853,331.8274629000007,331.8427609999999,331.86055489999853,331.86055489999853,331.86055489999853,333.12778329999855,Objects\175b.jpg,pre,s,1.263308199999301,None,,,,00025,001,2025-11-14_22h13.48.402,MST_test,2024.2.2,60.00294014462585,2025-11-14 22h13.54.524775 +0530,
125,0,125,n,1.0943149000013364,None,125,0,125,0,333.1438627999996,,,,,,,,,,,,,,,,,,,,,,,,,,,,,,,,,,,,,,,,,,,,,,,,,,333.12787989999924,333.1438627999996,333.7940020999995,333.62738549999995,333.78022090000013,333.7940020999995,333.7940020999995,333.7940020999995,334.89419009999983,Foils\scenes25.jpg,none,n,1.0943149000013364,None,,,,00025,001,2025-11-14_22h13.48.402,MST_test,2024.2.2,60.00294014462585,2025-11-14 22h13.54.524775 +0530,
126,0,126,n,0.6490892000001622,None,126,0,126,0,334.9104953999995,,,,,,,,,,,,,,,,,,,,,,,,,,,,,,,,,,,,,,,,,,,,,,,,,,334.8942642000002,334.9104953999995,335.427115399998,335.3939971,335.41168219999963,335.427115399998,335.427115399998,335.427115399998,336.0775097000005,Foils\081a.jpg,none,n,0.6490892000001622,None,,,,00025,001,2025-11-14_22h13.48.402,MST_test,2024.2.2,60.00294014462585,2025-11-14 22h13.54.524775 +0530,
127,0,127,s,1.4729011000017636,None,127,0,127,0,336.093765900001,,,,,,,,,,,,,,,,,,,,,,,,,,,,,,,,,,,,,,,,,,,,,,,,,,336.07758099999774,336.093765900001,336.6107133999976,336.57739650000076,336.6027075999991,336.6107133999976,336.6107133999976,336.6107133999976,338.09418279999954,Scenes\107b.jpg,post,s,1.4729011000017636,None,,,,00025,001,2025-11-14_22h13.48.402,MST_test,2024.2.2,60.00294014462585,2025-11-14 22h13.54.524775 +0530,
128,0,128,o,1.2272771999996621,None,128,0,128,0,338.1104181999981,,,,,,,,,,,,,,,,,,,,,,,,,,,,,,,,,,,,,,,,,,,,,,,,,,338.0942733000011,338.1104181999981,338.6103738999991,338.5939365999984,338.6035047999976,338.6103738999991,338.6103738999991,338.6103738999991,339.84404879999784,Objects\006a.jpg,pre,o,1.2272771999996621,None,,,,00025,001,2025-11-14_22h13.48.402,MST_test,2024.2.2,60.00294014462585,2025-11-14 22h13.54.524775 +0530,
129,0,129,o,1.271163000001252,None,129,0,129,0,339.8612744999991,,,,,,,,,,,,,,,,,,,,,,,,,,,,,,,,,,,,,,,,,,,,,,,,,,339.8441251000004,339.8612744999991,340.37726620000103,340.34395609999774,340.3650302999995,340.37726620000103,340.37726620000103,340.37726620000103,341.66071870000087,Scenes\013a.jpg,post,o,1.271163000001252,None,,,,00025,001,2025-11-14_22h13.48.402,MST_test,2024.2.2,60.00294014462585,2025-11-14 22h13.54.524775 +0530,
130,0,130,s,2.8881492000000435,None,130,0,130,0,341.67700719999993,,,,,,,,,,,,,,,,,,,,,,,,,,,,,,,,,,,,,,,,,,,,,,,,,,341.6608058999991,341.67700719999993,342.1938440999984,342.1605525999985,342.18295450000005,342.1938440999984,342.1938440999984,342.1938440999984,345.09404039999936,Scenes\188b.jpg,pre,s,2.8881492000000435,None,,,,00025,001,2025-11-14_22h13.48.402,MST_test,2024.2.2,60.00294014462585,2025-11-14 22h13.54.524775 +0530,
131,0,131,o,1.131176200000482,None,131,0,131,0,345.11022989999765,,,,,,,,,,,,,,,,,,,,,,,,,,,,,,,,,,,,,,,,,,,,,,,,,,345.0941261000007,345.11022989999765,345.6271897000006,345.5937282999985,345.61058950000006,345.6271897000006,345.6271897000006,345.6271897000006,346.7606233999977,Objects\099b.jpg,mid,o,1.131176200000482,None,,,,00025,001,2025-11-14_22h13.48.402,MST_test,2024.2.2,60.00294014462585,2025-11-14 22h13.54.524775 +0530,
132,0,132,o,1.1668355999972846,None,132,0,132,0,346.7768909999977,,,,,,,,,,,,,,,,,,,,,,,,,,,,,,,,,,,,,,,,,,,,,,,,,,346.7606983000005,346.7768909999977,347.2938771000008,347.26051820000066,347.2858046000001,347.2938771000008,347.2938771000008,347.2938771000008,348.4772426999989,Scenes\055b.jpg,mid,o,1.1668355999972846,None,,,,00025,001,2025-11-14_22h13.48.402,MST_test,2024.2.2,60.00294014462585,2025-11-14 22h13.54.524775 +0530,
133,0,133,s,1.846049600000697,None,133,0,133,0,348.4936118000005,,,,,,,,,,,,,,,,,,,,,,,,,,,,,,,,,,,,,,,,,,,,,,,,,,348.4773230999999,348.4936118000005,348.99347959999795,348.9771198999988,348.9880126999997,348.99347959999795,348.99347959999795,348.99347959999795,350.84383829999933,Objects\002a.jpg,pre,s,1.846049600000697,None,,,,00025,001,2025-11-14_22h13.48.402,MST_test,2024.2.2,60.00294014462585,2025-11-14 22h13.54.524775 +0530,
134,0,134,o,2.138806700000714,None,134,0,134,0,350.8601419999977,,,,,,,,,,,,,,,,,,,,,,,,,,,,,,,,,,,,,,,,,,,,,,,,,,350.84391649999816,350.8601419999977,351.3767928999987,351.3436827999976,351.3659502999981,351.3767928999987,351.3767928999987,351.3767928999987,353.5271259000001,Scenes\144b.jpg,pre,o,2.138806700000714,None,,,,00025,001,2025-11-14_22h13.48.402,MST_test,2024.2.2,60.00294014462585,2025-11-14 22h13.54.524775 +0530,
135,0,135,o,0.7696775000003981,None,135,0,135,0,353.543415199998,,,,,,,,,,,,,,,,,,,,,,,,,,,,,,,,,,,,,,,,,,,,,,,,,,353.5272143000002,353.543415199998,354.0603616999979,354.0269499999995,354.05149809999784,354.0603616999979,354.0603616999979,354.0603616999979,354.84374709999975,Scenes\067b.jpg,post,o,0.7696775000003981,None,,,,00025,001,2025-11-14_22h13.48.402,MST_test,2024.2.2,60.00294014462585,2025-11-14 22h13.54.524775 +0530,
136,0,136,n,1.362009799999214,None,136,0,136,0,354.8600613999988,,,,,,,,,,,,,,,,,,,,,,,,,,,,,,,,,,,,,,,,,,,,,,,,,,354.84383089999756,354.8600613999988,355.36029749999943,355.3436183999984,355.3494628999979,355.36029749999943,355.36029749999943,355.36029749999943,356.72705700000006,Foils\scenes8.jpg,none,n,1.362009799999214,None,,,,00025,001,2025-11-14_22h13.48.402,MST_test,2024.2.2,60.00294014462585,2025-11-14 22h13.54.524775 +0530,
137,0,137,n,0.8379139999997278,None,137,0,137,0,356.74333620000107,,,,,,,,,,,,,,,,,,,,,,,,,,,,,,,,,,,,,,,,,,,,,,,,,,356.7271402999977,356.74333620000107,357.2599784999984,357.22696200000064,357.246783999999,357.2599784999984,357.2599784999984,357.2599784999984,358.1103738999991,Foils\scenes30.jpg,none,n,0.8379139999997278,None,,,,00025,001,2025-11-14_22h13.48.402,MST_test,2024.2.2,60.00294014462585,2025-11-14 22h13.54.524775 +0530,
138,0,138,n,0.952100700000301,None,138,0,138,0,358.1266128999996,,,,,,,,,,,,,,,,,,,,,,,,,,,,,,,,,,,,,,,,,,,,,,,,,,358.110450199998,358.1266128999996,358.64357839999866,358.61020429999917,358.62679449999996,358.64357839999866,358.64357839999866,358.64357839999866,359.61022039999807,Objects\059b.jpg,post,n,0.952100700000301,None,,,,00025,001,2025-11-14_22h13.48.402,MST_test,2024.2.2,60.00294014462585,2025-11-14 22h13.54.524775 +0530,
139,0,139,n,0.8071875999994518,None,139,0,139,0,359.62657820000095,,,,,,,,,,,,,,,,,,,,,,,,,,,,,,,,,,,,,,,,,,,,,,,,,,359.610299699998,359.62657820000095,360.1436117999983,360.11016969999764,360.13198940000075,360.1436117999983,360.1436117999983,360.1436117999983,360.96023290000085,Scenes\180b.jpg,post,n,0.8071875999994518,None,,,,00025,001,2025-11-14_22h13.48.402,MST_test,2024.2.2,60.00294014462585,2025-11-14 22h13.54.524775 +0530,
140,0,140,o,4.320374700000684,None,140,0,140,0,360.9765875999983,,,,,,,,,,,,,,,,,,,,,,,,,,,,,,,,,,,,,,,,,,,,,,,,,,360.96030529999916,360.9765875999983,361.49321559999953,361.46020829999907,361.4843555999978,361.49321559999953,361.49321559999953,361.49321559999953,365.82682560000103,Scenes\078b.jpg,pre,o,4.320374700000684,None,,,,00025,001,2025-11-14_22h13.48.402,MST_test,2024.2.2,60.00294014462585,2025-11-14 22h13.54.524775 +0530,
141,0,141,o,1.2317505000028177,None,141,0,141,0,365.8431175000005,,,,,,,,,,,,,,,,,,,,,,,,,,,,,,,,,,,,,,,,,,,,,,,,,,365.82690979999825,365.8431175000005,366.35977600000115,366.32667109999966,366.34657159999915,366.35977600000115,366.35977600000115,366.35977600000115,367.5935036999981,Scenes\158a.jpg,mid,o,1.2317505000028177,None,,,,00025,001,2025-11-14_22h13.48.402,MST_test,2024.2.2,60.00294014462585,2025-11-14 22h13.54.524775 +0530,
142,0,142,s,1.6041780000014114,None,142,0,142,0,367.609775500001,,,,,,,,,,,,,,,,,,,,,,,,,,,,,,,,,,,,,,,,,,,,,,,,,,367.5935838999976,367.609775500001,368.1097336999992,368.09336429999894,368.1030237999985,368.1097336999992,368.1097336999992,368.1097336999992,369.72668630000044,Objects\096a.jpg,pre,s,1.6041780000014114,None,,,,00025,001,2025-11-14_22h13.48.402,MST_test,2024.2.2,60.00294014462585,2025-11-14 22h13.54.524775 +0530,
143,0,143,n,1.5235419999989972,None,143,0,143,0,369.7430428999978,,,,,,,,,,,,,,,,,,,,,,,,,,,,,,,,,,,,,,,,,,,,,,,,,,369.72676189999765,369.7430428999978,370.2601723999978,370.22659209999983,370.2470776000009,370.2601723999978,370.2601723999978,370.2601723999978,371.7933277000011,Scenes\047a.jpg,pre,n,1.5235419999989972,None,,,,00025,001,2025-11-14_22h13.48.402,MST_test,2024.2.2,60.00294014462585,2025-11-14 22h13.54.524775 +0530,
144,0,144,s,1.6540888999988965,None,144,0,144,0,371.809682799998,,,,,,,,,,,,,,,,,,,,,,,,,,,,,,,,,,,,,,,,,,,,,,,,,,371.79341179999756,371.809682799998,372.32630789999894,372.29323719999957,372.31686249999984,372.32630789999894,372.32630789999894,372.32630789999894,373.9932544000003,Scenes\109b.jpg,mid,s,1.6540888999988965,None,,,,00025,001,2025-11-14_22h13.48.402,MST_test,2024.2.2,60.00294014462585,2025-11-14 22h13.54.524775 +0530,
145,0,145,s,1.8197552000019641,None,145,0,145,0,374.00963860000047,,,,,,,,,,,,,,,,,,,,,,,,,,,,,,,,,,,,,,,,,,,,,,,,,,373.99333679999836,374.00963860000047,374.5262999999977,374.4932313999998,374.5092298999989,374.5262999999977,374.5262999999977,374.5262999999977,376.36002369999915,Objects\129b.jpg,post,s,1.8197552000019641,None,,,,00025,001,2025-11-14_22h13.48.402,MST_test,2024.2.2,60.00294014462585,2025-11-14 22h13.54.524775 +0530,
146,0,146,o,3.1709805999998935,None,146,0,146,0,376.3762644999988,,,,,,,,,,,,,,,,,,,,,,,,,,,,,,,,,,,,,,,,,,,,,,,,,,376.360113499999,376.3762644999988,376.89315329999954,376.8598061999983,376.87906379999913,376.89315329999954,376.89315329999954,376.89315329999954,380.0765102999976,Scenes\117a.jpg,post,o,3.1709805999998935,None,,,,00025,001,2025-11-14_22h13.48.402,MST_test,2024.2.2,60.00294014462585,2025-11-14 22h13.54.524775 +0530,
147,0,147,s,1.9209616999978607,None,147,0,147,0,380.0928477999987,,,,,,,,,,,,,,,,,,,,,,,,,,,,,,,,,,,,,,,,,,,,,,,,,,380.07658699999956,380.0928477999987,380.6094692000006,380.5763694999987,380.5983512999992,380.6094692000006,380.6094692000006,380.6094692000006,382.54319419999956,Scenes\147b.jpg,pre,s,1.9209616999978607,None,,,,00025,001,2025-11-14_22h13.48.402,MST_test,2024.2.2,60.00294014462585,2025-11-14 22h13.54.524775 +0530,
148,0,148,n,1.7980905000003986,None,148,0,148,0,382.55942049999794,,,,,,,,,,,,,,,,,,,,,,,,,,,,,,,,,,,,,,,,,,,,,,,,,,382.54327759999796,382.55942049999794,383.0594099000009,383.04305569999997,383.05260980000094,383.0594099000009,383.0594099000009,383.0594099000009,384.8597814999994,Objects\136a.jpg,mid,n,1.7980905000003986,None,,,,00025,001,2025-11-14_22h13.48.402,MST_test,2024.2.2,60.00294014462585,2025-11-14 22h13.54.524775 +0530,
149,0,149,o,2.39709479999874,None,149,0,149,0,384.8760756999982,,,,,,,,,,,,,,,,,,,,,,,,,,,,,,,,,,,,,,,,,,,,,,,,,,384.8598677000009,384.8760756999982,385.3929830999987,385.3595327000003,385.38309819999995,385.3929830999987,385.3929830999987,385.3929830999987,387.79298930000004,Scenes\119a.jpg,mid,o,2.39709479999874,None,,,,00025,001,2025-11-14_22h13.48.402,MST_test,2024.2.2,60.00294014462585,2025-11-14 22h13.54.524775 +0530,
,,,,,,,,,,,,,,,,,,,,,,,,,,,,,,,,,,,,,,,,,,,,,,,,,,,,,,,,,,,,,,,,,,,,,,,,,,387.79304760000014,387.80934479999996,387.80934479999996,,,,,,,,
