thisN,thisTrialN,thisRepN,key_resp_3.keys,key_resp_3.rt,key_resp_3.duration,trials.thisRepN,trials.thisTrialN,trials.thisN,trials.thisIndex,thisRow.t,notes,intro_page.started,text.started,key_resp.started,intro_page.stopped,key_resp.keys,key_resp.rt,key_resp.duration,instructions.started,text_2.started,key_resp_2.started,instructions.stopped,key_resp_2.keys,key_resp_2.rt,key_resp_2.duration,demo1.started,image_1.started,image_2.started,text_7.started,key_resp_6.started,text_9.started,demo1.stopped,key_resp_6.keys,key_resp_6.rt,key_resp_6.duration,demo2.started,image_5.started,image_6.started,text_11.started,text_12.started,key_resp_8.started,demo2.stopped,key_resp_8.keys,key_resp_8.rt,key_resp_8.duration,demo_conclusion.started,text_13.started,key_resp_9.started,demo_conclusion.stopped,key_resp_9.keys,key_resp_9.rt,key_resp_9.duration,start_test.started,text_6.started,key_resp_5.started,start_test.stopped,key_resp_5.keys,key_resp_5.rt,key_resp_5.duration,ISI.started,text_4.started,text_4.stopped,ISI.stopped,routine_1.started,image.started,text_3.started,key_resp_3.started,routine_1.stopped,image_path,position_of_stimuli,trials.key_resp_3.keys,trials.key_resp_3.rt,trials.key_resp_3.duration,End_page.started,text_5.started,key_resp_4.started,End_page.stopped,key_resp_4.keys,key_resp_4.rt,key_resp_4.duration,participant,session,date,expName,psychopyVersion,frameRate,expStart,
,,,,,,,,,,,,0.018081400000028225,0.03416790000005676,0.03416790000005676,5.1511471000001166,space,5.075841400000172,None,,,,,,,,,,,,,,,,,,,,,,,,,,,,,,,,,,,,,,,,,,,,,,,,,,,,,,,,,,,,,,,00022,001,2025-11-11_05h14.33.217,MST_test,2024.2.2,60.00139203228071,2025-11-11 05h14.38.872906 +0530,
,,,,,,,,,,,,,,,,,,,5.151188199999979,5.167342100000042,5.167342100000042,15.217438800000082,space,10.038144999999986,None,,,,,,,,,,,,,,,,,,,,,,,,,,,,,,,,,,,,,,,,,,,,,,,,,,,,,,,,00022,001,2025-11-11_05h14.33.217,MST_test,2024.2.2,60.00139203228071,2025-11-11 05h14.38.872906 +0530,
,,,,,,,,,,,,,,,,,,,,,,,,,,15.217463500000122,15.233781500000077,15.233781500000077,15.233781500000077,15.233781500000077,15.233781500000077,20.433930099999998,space,5.185816599999953,None,,,,,,,,,,,,,,,,,,,,,,,,,,,,,,,,,,,,,,,,,,,,,,00022,001,2025-11-11_05h14.33.217,MST_test,2024.2.2,60.00139203228071,2025-11-11 05h14.38.872906 +0530,
,,,,,,,,,,,,,,,,,,,,,,,,,,,,,,,,,,,,20.43395140000007,20.450350800000024,20.450350800000024,20.450350800000024,20.450350800000024,20.450350800000024,22.850662700000157,space,2.3958198000000266,None,,,,,,,,,,,,,,,,,,,,,,,,,,,,,,,,,,,,00022,001,2025-11-11_05h14.33.217,MST_test,2024.2.2,60.00139203228071,2025-11-11 05h14.38.872906 +0530,
,,,,,,,,,,,,,,,,,,,,,,,,,,,,,,,,,,,,,,,,,,,,,,22.850684799999954,22.8669347,22.8669347,38.45025830000009,space,15.577559700000165,None,,,,,,,,,,,,,,,,,,,,,,,,,,,,,00022,001,2025-11-11_05h14.33.217,MST_test,2024.2.2,60.00139203228071,2025-11-11 05h14.38.872906 +0530,
,,,,,,,,,,,,,,,,,,,,,,,,,,,,,,,,,,,,,,,,,,,,,,,,,,,,,38.45028070000012,38.466605200000004,38.466605200000004,59.61648430000014,space,21.133140499999854,None,,,,,,,,,,,,,,,,,,,,,,00022,001,2025-11-11_05h14.33.217,MST_test,2024.2.2,60.00139203228071,2025-11-11 05h14.38.872906 +0530,
0,0,0,s,19.58785050000006,None,0,0,0,0,59.6327510000001,,,,,,,,,,,,,,,,,,,,,,,,,,,,,,,,,,,,,,,,,,,,,,,,,,59.61944410000001,59.6327510000001,60.16624950000005,60.11623090000012,60.14665600000012,60.16624950000005,60.16624950000005,60.16624950000005,79.76594520000003,Scenes\093b.jpg,post,s,19.58785050000006,None,,,,,,,,00022,001,2025-11-11_05h14.33.217,MST_test,2024.2.2,60.00139203228071,2025-11-11 05h14.38.872906 +0530,
1,0,1,o,6.85711809999998,None,1,0,1,0,79.78235390000009,,,,,,,,,,,,,,,,,,,,,,,,,,,,,,,,,,,,,,,,,,,,,,,,,,79.76603950000003,79.78235390000009,80.29901629999995,80.26593879999996,80.28215680000017,80.29901629999995,80.29901629999995,80.29901629999995,87.16577159999997,Scenes\124a.jpg,mid,o,6.85711809999998,None,,,,,,,,00022,001,2025-11-11_05h14.33.217,MST_test,2024.2.2,60.00139203228071,2025-11-11 05h14.38.872906 +0530,
2,0,2,s,5.7230476999998245,None,2,0,2,0,87.18221500000004,,,,,,,,,,,,,,,,,,,,,,,,,,,,,,,,,,,,,,,,,,,,,,,,,,87.16584750000015,87.18221500000004,87.68243860000007,87.66569230000005,87.67535730000009,87.68243860000007,87.68243860000007,87.68243860000007,93.41567610000016,Objects\171a.jpg,post,s,5.7230476999998245,None,,,,,,,,00022,001,2025-11-11_05h14.33.217,MST_test,2024.2.2,60.00139203228071,2025-11-11 05h14.38.872906 +0530,
3,0,3,o,8.62156200000004,None,3,0,3,0,93.4321023,,,,,,,,,,,,,,,,,,,,,,,,,,,,,,,,,,,,,,,,,,,,,,,,,,93.4157517000001,93.4321023,93.94869470000003,93.91550340000003,93.93352849999997,93.94869470000003,93.94869470000003,93.94869470000003,102.58434690000013,Objects\184a.jpg,pre,o,8.62156200000004,None,,,,,,,,00022,001,2025-11-11_05h14.33.217,MST_test,2024.2.2,60.00139203228071,2025-11-11 05h14.38.872906 +0530,
4,0,4,s,4.7610213999998905,None,4,0,4,0,102.59857790000001,,,,,,,,,,,,,,,,,,,,,,,,,,,,,,,,,,,,,,,,,,,,,,,,,,102.58442179999997,102.59857790000001,103.11517960000015,103.08212120000007,103.0950408000001,103.11517960000015,103.11517960000015,103.11517960000015,107.88205979999998,Scenes\125a.jpg,post,s,4.7610213999998905,None,,,,,,,,00022,001,2025-11-11_05h14.33.217,MST_test,2024.2.2,60.00139203228071,2025-11-11 05h14.38.872906 +0530,
5,0,5,n,6.876600900000085,None,5,0,5,0,107.89840100000015,,,,,,,,,,,,,,,,,,,,,,,,,,,,,,,,,,,,,,,,,,,,,,,,,,107.88214070000004,107.89840100000015,108.43169320000015,108.38190780000014,108.4120832000001,108.43169320000015,108.43169320000015,108.43169320000015,115.31521190000012,Foils\065a.jpg,none,n,6.876600900000085,None,,,,,,,,00022,001,2025-11-11_05h14.33.217,MST_test,2024.2.2,60.00139203228071,2025-11-11 05h14.38.872906 +0530,
6,0,6,o,3.438405300000113,None,6,0,6,0,115.33158909999997,,,,,,,,,,,,,,,,,,,,,,,,,,,,,,,,,,,,,,,,,,,,,,,,,,115.31529670000009,115.33158909999997,115.83152760000007,115.81515839999997,115.82639859999995,115.83152760000007,115.83152760000007,115.83152760000007,119.28182770000012,Objects\026a.jpg,pre,o,3.438405300000113,None,,,,,,,,00022,001,2025-11-11_05h14.33.217,MST_test,2024.2.2,60.00139203228071,2025-11-11 05h14.38.872906 +0530,
7,0,7,o,4.460899200000085,None,7,0,7,0,119.29813800000011,,,,,,,,,,,,,,,,,,,,,,,,,,,,,,,,,,,,,,,,,,,,,,,,,,119.28189960000009,119.29813800000011,119.81500240000014,119.78159500000015,119.79913980000015,119.81500240000014,119.81500240000014,119.81500240000014,124.28164660000016,Scenes\120a.jpg,post,o,4.460899200000085,None,,,,,,,,00022,001,2025-11-11_05h14.33.217,MST_test,2024.2.2,60.00139203228071,2025-11-11 05h14.38.872906 +0530,
8,0,8,s,2.32841099999996,None,8,0,8,0,124.29803030000016,,,,,,,,,,,,,,,,,,,,,,,,,,,,,,,,,,,,,,,,,,,,,,,,,,124.28172360000008,124.29803030000016,124.8314299000001,124.78141219999998,124.81564980000007,124.8314299000001,124.8314299000001,124.8314299000001,127.16496329999995,Scenes\159b.jpg,mid,s,2.32841099999996,None,,,,,,,,00022,001,2025-11-11_05h14.33.217,MST_test,2024.2.2,60.00139203228071,2025-11-11 05h14.38.872906 +0530,
9,0,9,n,6.316915899999913,None,9,0,9,0,127.18120900000008,,,,,,,,,,,,,,,,,,,,,,,,,,,,,,,,,,,,,,,,,,,,,,,,,,127.16504439999994,127.18120900000008,127.69783260000008,127.6646009000001,127.67899080000007,127.69783260000008,127.69783260000008,127.69783260000008,134.03139069999997,Scenes\105a.jpg,post,n,6.316915899999913,None,,,,,,,,00022,001,2025-11-11_05h14.33.217,MST_test,2024.2.2,60.00139203228071,2025-11-11 05h14.38.872906 +0530,
10,0,10,s,4.993126299999858,None,10,0,10,0,134.04771619999997,,,,,,,,,,,,,,,,,,,,,,,,,,,,,,,,,,,,,,,,,,,,,,,,,,134.0314760000001,134.04771619999997,134.56465249999997,134.53117399999996,134.5591773000001,134.56465249999997,134.56465249999997,134.56465249999997,139.56463840000015,Objects\065b.jpg,pre,s,4.993126299999858,None,,,,,,,,00022,001,2025-11-11_05h14.33.217,MST_test,2024.2.2,60.00139203228071,2025-11-11 05h14.38.872906 +0530,
11,0,11,s,3.8523594000000685,None,11,0,11,0,139.5809088000001,,,,,,,,,,,,,,,,,,,,,,,,,,,,,,,,,,,,,,,,,,,,,,,,,,139.56472299999996,139.5809088000001,140.1144670000001,140.06440670000006,140.10266539999998,140.1144670000001,140.1144670000001,140.1144670000001,143.98119530000008,Foils\scenes29.jpg,none,s,3.8523594000000685,None,,,,,,,,00022,001,2025-11-11_05h14.33.217,MST_test,2024.2.2,60.00139203228071,2025-11-11 05h14.38.872906 +0530,
12,0,12,o,2.9100398000000496,None,12,0,12,0,143.9974469000001,,,,,,,,,,,,,,,,,,,,,,,,,,,,,,,,,,,,,,,,,,,,,,,,,,143.98128310000016,143.9974469000001,144.4974380000001,144.4809447,144.49030259999995,144.4974380000001,144.4974380000001,144.4974380000001,147.41451540000003,Objects\011a.jpg,mid,o,2.9100398000000496,None,,,,,,,,00022,001,2025-11-11_05h14.33.217,MST_test,2024.2.2,60.00139203228071,2025-11-11 05h14.38.872906 +0530,
13,0,13,s,2.400714599999901,None,13,0,13,0,147.43074490000004,,,,,,,,,,,,,,,,,,,,,,,,,,,,,,,,,,,,,,,,,,,,,,,,,,147.4146409,147.43074490000004,147.94767960000013,147.9142872,147.93051050000008,147.94767960000013,147.94767960000013,147.94767960000013,150.36427780000008,Scenes\138a.jpg,post,s,2.400714599999901,None,,,,,,,,00022,001,2025-11-11_05h14.33.217,MST_test,2024.2.2,60.00139203228071,2025-11-11 05h14.38.872906 +0530,
14,0,14,n,11.062148900000011,None,14,0,14,0,150.38067840000008,,,,,,,,,,,,,,,,,,,,,,,,,,,,,,,,,,,,,,,,,,,,,,,,,,150.36436019999996,150.38067840000008,150.89731759999995,150.86417159999996,150.88502730000005,150.89731759999995,150.89731759999995,150.89731759999995,161.9640323000001,Objects\047b.jpg,post,n,11.062148900000011,None,,,,,,,,00022,001,2025-11-11_05h14.33.217,MST_test,2024.2.2,60.00139203228071,2025-11-11 05h14.38.872906 +0530,
15,0,15,s,3.7685836000000563,None,15,0,15,0,161.98040779999997,,,,,,,,,,,,,,,,,,,,,,,,,,,,,,,,,,,,,,,,,,,,,,,,,,161.96412310000005,161.98040779999997,162.49724030000016,162.46393220000004,162.49082980000003,162.49724030000016,162.49724030000016,162.49724030000016,166.28059110000004,Foils\scenes11.jpg,none,s,3.7685836000000563,None,,,,,,,,00022,001,2025-11-11_05h14.33.217,MST_test,2024.2.2,60.00139203228071,2025-11-11 05h14.38.872906 +0530,
16,0,16,o,2.2360711999999694,None,16,0,16,0,166.2969422000001,,,,,,,,,,,,,,,,,,,,,,,,,,,,,,,,,,,,,,,,,,,,,,,,,,166.28067260000012,166.2969422000001,166.79692670000009,166.78052960000014,166.79006130000016,166.79692670000009,166.79692670000009,166.79692670000009,169.04721410000002,Objects\158a.jpg,mid,o,2.2360711999999694,None,,,,,,,,00022,001,2025-11-11_05h14.33.217,MST_test,2024.2.2,60.00139203228071,2025-11-11 05h14.38.872906 +0530,
17,0,17,s,13.516266900000119,None,17,0,17,0,169.06358799999998,,,,,,,,,,,,,,,,,,,,,,,,,,,,,,,,,,,,,,,,,,,,,,,,,,169.04729480000015,169.06358799999998,169.58023700000012,169.54708879999998,169.57523300000003,169.58023700000012,169.58023700000012,169.58023700000012,183.09716330000015,Foils\042a.jpg,none,s,13.516266900000119,None,,,,,,,,00022,001,2025-11-11_05h14.33.217,MST_test,2024.2.2,60.00139203228071,2025-11-11 05h14.38.872906 +0530,
18,0,18,s,3.5435277999999926,None,18,0,18,0,183.1133158,,,,,,,,,,,,,,,,,,,,,,,,,,,,,,,,,,,,,,,,,,,,,,,,,,183.0972574,183.1133158,183.63003449999997,183.59695540000007,183.6132215,183.63003449999997,183.63003449999997,183.63003449999997,187.18017350000014,Objects\181a.jpg,pre,s,3.5435277999999926,None,,,,,,,,00022,001,2025-11-11_05h14.33.217,MST_test,2024.2.2,60.00139203228071,2025-11-11 05h14.38.872906 +0530,
19,0,19,n,5.481708299999809,None,19,0,19,0,187.19652510000014,,,,,,,,,,,,,,,,,,,,,,,,,,,,,,,,,,,,,,,,,,,,,,,,,,187.18026140000006,187.19652510000014,187.7298856,187.68004560000008,187.7137428000001,187.7298856,187.7298856,187.7298856,193.21326939999994,Foils\020b.jpg,none,n,5.481708299999809,None,,,,,,,,00022,001,2025-11-11_05h14.33.217,MST_test,2024.2.2,60.00139203228071,2025-11-11 05h14.38.872906 +0530,
20,0,20,s,3.8989195999999993,None,20,0,20,0,193.22969360000002,,,,,,,,,,,,,,,,,,,,,,,,,,,,,,,,,,,,,,,,,,,,,,,,,,193.21335,193.22969360000002,193.74630920000004,193.71324589999995,193.74086850000003,193.74630920000004,193.74630920000004,193.74630920000004,197.64676000000009,Foils\074a.jpg,none,s,3.8989195999999993,None,,,,,,,,00022,001,2025-11-11_05h14.33.217,MST_test,2024.2.2,60.00139203228071,2025-11-11 05h14.38.872906 +0530,
21,0,21,o,26.124650799999927,None,21,0,21,0,197.66293110000015,,,,,,,,,,,,,,,,,,,,,,,,,,,,,,,,,,,,,,,,,,,,,,,,,,197.64684620000003,197.66293110000015,198.17958250000015,198.14641340000003,198.16699429999994,198.17958250000015,198.17958250000015,198.17958250000015,224.3126975,Objects\164b.jpg,post,o,26.124650799999927,None,,,,,,,,00022,001,2025-11-11_05h14.33.217,MST_test,2024.2.2,60.00139203228071,2025-11-11 05h14.38.872906 +0530,
22,0,22,s,2.669345999999905,None,22,0,22,0,224.32906400000002,,,,,,,,,,,,,,,,,,,,,,,,,,,,,,,,,,,,,,,,,,,,,,,,,,224.31279740000014,224.32906400000002,224.845906,224.81248500000015,224.84025010000005,224.845906,224.845906,224.845906,227.52926270000012,Scenes\096b.jpg,pre,s,2.669345999999905,None,,,,,,,,00022,001,2025-11-11_05h14.33.217,MST_test,2024.2.2,60.00139203228071,2025-11-11 05h14.38.872906 +0530,
23,0,23,n,3.692602799999804,None,23,0,23,0,227.54567970000016,,,,,,,,,,,,,,,,,,,,,,,,,,,,,,,,,,,,,,,,,,,,,,,,,,227.52934330000016,227.54567970000016,228.07926629999997,228.0291605,228.06524990000003,228.07926629999997,228.07926629999997,228.07926629999997,231.77921990000004,Scenes\059b.jpg,post,n,3.692602799999804,None,,,,,,,,00022,001,2025-11-11_05h14.33.217,MST_test,2024.2.2,60.00139203228071,2025-11-11 05h14.38.872906 +0530,
24,0,24,s,1.4292695999999978,None,24,0,24,0,231.7955558000001,,,,,,,,,,,,,,,,,,,,,,,,,,,,,,,,,,,,,,,,,,,,,,,,,,231.77931080000008,231.7955558000001,232.31225600000016,232.27905740000006,232.2977201000001,232.31225600000016,232.31225600000016,232.31225600000016,233.74577279999994,Scenes\139b.jpg,post,s,1.4292695999999978,None,,,,,,,,00022,001,2025-11-11_05h14.33.217,MST_test,2024.2.2,60.00139203228071,2025-11-11 05h14.38.872906 +0530,
25,0,25,o,8.593754199999921,None,25,0,25,0,233.76218100000006,,,,,,,,,,,,,,,,,,,,,,,,,,,,,,,,,,,,,,,,,,,,,,,,,,233.74584219999997,233.76218100000006,234.26220660000013,234.24570590000008,234.25531520000004,234.26220660000013,234.26220660000013,234.26220660000013,242.8622077,Objects\175a.jpg,pre,o,8.593754199999921,None,,,,,,,,00022,001,2025-11-11_05h14.33.217,MST_test,2024.2.2,60.00139203228071,2025-11-11 05h14.38.872906 +0530,
26,0,26,n,4.640302600000041,None,26,0,26,0,242.87863749999997,,,,,,,,,,,,,,,,,,,,,,,,,,,,,,,,,,,,,,,,,,,,,,,,,,242.86228490000008,242.87863749999997,243.395483,243.3621161000001,243.37464290000003,243.395483,243.395483,243.395483,248.04562299999998,Scenes\031a.jpg,pre,n,4.640302600000041,None,,,,,,,,00022,001,2025-11-11_05h14.33.217,MST_test,2024.2.2,60.00139203228071,2025-11-11 05h14.38.872906 +0530,
27,0,27,s,3.610810399999991,None,27,0,27,0,248.06179339999994,,,,,,,,,,,,,,,,,,,,,,,,,,,,,,,,,,,,,,,,,,,,,,,,,,248.04570690000014,248.06179339999994,248.5786524,248.5452411000001,248.57065940000007,248.5786524,248.5786524,248.5786524,252.19541019999997,Foils\scenes16.jpg,none,s,3.610810399999991,None,,,,,,,,00022,001,2025-11-11_05h14.33.217,MST_test,2024.2.2,60.00139203228071,2025-11-11 05h14.38.872906 +0530,
28,0,28,n,1.7125060999999278,None,28,0,28,0,252.21166530000005,,,,,,,,,,,,,,,,,,,,,,,,,,,,,,,,,,,,,,,,,,,,,,,,,,252.19549640000014,252.21166530000005,252.72831840000003,252.69530559999998,252.72245080000016,252.72831840000003,252.72831840000003,252.72831840000003,254.4453707,Foils\scenes20.jpg,none,n,1.7125060999999278,None,,,,,,,,00022,001,2025-11-11_05h14.33.217,MST_test,2024.2.2,60.00139203228071,2025-11-11 05h14.38.872906 +0530,
29,0,29,o,1.691263299999946,None,29,0,29,0,254.46158790000004,,,,,,,,,,,,,,,,,,,,,,,,,,,,,,,,,,,,,,,,,,,,,,,,,,254.44544900000005,254.46158790000004,254.96175790000007,254.94512210000016,254.95509890000017,254.96175790000007,254.96175790000007,254.96175790000007,256.6620682,Objects\142a.jpg,mid,o,1.691263299999946,None,,,,,,,,00022,001,2025-11-11_05h14.33.217,MST_test,2024.2.2,60.00139203228071,2025-11-11 05h14.38.872906 +0530,
30,0,30,o,1.9456198999998833,None,30,0,30,0,256.6782253000001,,,,,,,,,,,,,,,,,,,,,,,,,,,,,,,,,,,,,,,,,,,,,,,,,,256.66216210000016,256.6782253000001,257.2115618,257.1617016,257.19117640000013,257.2115618,257.2115618,257.2115618,259.1619347000001,Scenes\174b.jpg,pre,o,1.9456198999998833,None,,,,,,,,00022,001,2025-11-11_05h14.33.217,MST_test,2024.2.2,60.00139203228071,2025-11-11 05h14.38.872906 +0530,
31,0,31,n,2.696208200000001,None,31,0,31,0,259.17813950000004,,,,,,,,,,,,,,,,,,,,,,,,,,,,,,,,,,,,,,,,,,,,,,,,,,259.1620061000001,259.17813950000004,259.7114670000001,259.6617168,259.6924868000001,259.7114670000001,259.7114670000001,259.7114670000001,262.4118455,Foils\086a.jpg,none,n,2.696208200000001,None,,,,,,,,00022,001,2025-11-11_05h14.33.217,MST_test,2024.2.2,60.00139203228071,2025-11-11 05h14.38.872906 +0530,
32,0,32,o,1.485841100000016,None,32,0,32,0,262.4281033,,,,,,,,,,,,,,,,,,,,,,,,,,,,,,,,,,,,,,,,,,,,,,,,,,262.4119290000001,262.4281033,262.92805339999995,262.91164950000007,262.9212364,262.92805339999995,262.92805339999995,262.92805339999995,264.42843160000007,Objects\080a.jpg,mid,o,1.485841100000016,None,,,,,,,,00022,001,2025-11-11_05h14.33.217,MST_test,2024.2.2,60.00139203228071,2025-11-11 05h14.38.872906 +0530,
33,0,33,o,2.6565140000000156,None,33,0,33,0,264.4447222000001,,,,,,,,,,,,,,,,,,,,,,,,,,,,,,,,,,,,,,,,,,,,,,,,,,264.42851229999997,264.4447222000001,264.94466809999994,264.92830930000014,264.93771560000005,264.94466809999994,264.94466809999994,264.94466809999994,267.6116750000001,Objects\161a.jpg,pre,o,2.6565140000000156,None,,,,,,,,00022,001,2025-11-11_05h14.33.217,MST_test,2024.2.2,60.00139203228071,2025-11-11 05h14.38.872906 +0530,
34,0,34,o,3.880123499999854,None,34,0,34,0,267.62797550000005,,,,,,,,,,,,,,,,,,,,,,,,,,,,,,,,,,,,,,,,,,,,,,,,,,267.61175690000005,267.62797550000005,268.16130369999996,268.1115115,268.1424303000001,268.16130369999996,268.16130369999996,268.16130369999996,272.04489779999994,Objects\004b.jpg,post,o,3.880123499999854,None,,,,,,,,00022,001,2025-11-11_05h14.33.217,MST_test,2024.2.2,60.00139203228071,2025-11-11 05h14.38.872906 +0530,
35,0,35,o,2.1950683000000026,None,35,0,35,0,272.06122819999996,,,,,,,,,,,,,,,,,,,,,,,,,,,,,,,,,,,,,,,,,,,,,,,,,,272.0449813,272.06122819999996,272.57811260000017,272.5447732,272.56091319999996,272.57811260000017,272.57811260000017,272.57811260000017,274.7782234000001,Scenes\186a.jpg,pre,o,2.1950683000000026,None,,,,,,,,00022,001,2025-11-11_05h14.33.217,MST_test,2024.2.2,60.00139203228071,2025-11-11 05h14.38.872906 +0530,
36,0,36,s,3.473915699999907,None,36,0,36,0,274.79444320000016,,,,,,,,,,,,,,,,,,,,,,,,,,,,,,,,,,,,,,,,,,,,,,,,,,274.7783041,274.79444320000016,275.32781109999996,275.277955,275.3105504,275.32781109999996,275.32781109999996,275.32781109999996,278.8113926000001,Foils\066a.jpg,none,s,3.473915699999907,None,,,,,,,,00022,001,2025-11-11_05h14.33.217,MST_test,2024.2.2,60.00139203228071,2025-11-11 05h14.38.872906 +0530,
37,0,37,o,9.045522699999992,None,37,0,37,0,278.8277366,,,,,,,,,,,,,,,,,,,,,,,,,,,,,,,,,,,,,,,,,,,,,,,,,,278.8114743000001,278.8277366,279.3443750000001,279.3112529,279.3397562,279.3443750000001,279.3443750000001,279.3443750000001,288.3945575,Objects\054b.jpg,mid,o,9.045522699999992,None,,,,,,,,00022,001,2025-11-11_05h14.33.217,MST_test,2024.2.2,60.00139203228071,2025-11-11 05h14.38.872906 +0530,
38,0,38,s,7.211892099999886,None,38,0,38,0,288.41080520000014,,,,,,,,,,,,,,,,,,,,,,,,,,,,,,,,,,,,,,,,,,,,,,,,,,288.39464040000007,288.41080520000014,288.94412239999997,288.89439660000016,288.92512680000004,288.94412239999997,288.94412239999997,288.94412239999997,296.1610734000001,Foils\057a.jpg,none,s,7.211892099999886,None,,,,,,,,00022,001,2025-11-11_05h14.33.217,MST_test,2024.2.2,60.00139203228071,2025-11-11 05h14.38.872906 +0530,
39,0,39,s,1.7551167000001442,None,39,0,39,0,296.17732720000004,,,,,,,,,,,,,,,,,,,,,,,,,,,,,,,,,,,,,,,,,,,,,,,,,,296.1611580000001,296.17732720000004,296.7106618,296.6607947,296.69178899999997,296.7106618,296.7106618,296.7106618,298.4775297000001,Objects\089b.jpg,post,s,1.7551167000001442,None,,,,,,,,00022,001,2025-11-11_05h14.33.217,MST_test,2024.2.2,60.00139203228071,2025-11-11 05h14.38.872906 +0530,
40,0,40,s,1.6963420999998107,None,40,0,40,0,298.4939408,,,,,,,,,,,,,,,,,,,,,,,,,,,,,,,,,,,,,,,,,,,,,,,,,,298.4776081,298.4939408,299.01085910000006,298.97740050000016,298.9962776,299.01085910000006,299.01085910000006,299.01085910000006,300.7109144000001,Scenes\146a.jpg,pre,s,1.6963420999998107,None,,,,,,,,00022,001,2025-11-11_05h14.33.217,MST_test,2024.2.2,60.00139203228071,2025-11-11 05h14.38.872906 +0530,
41,0,41,s,8.86230680000017,None,41,0,41,0,300.72722369999997,,,,,,,,,,,,,,,,,,,,,,,,,,,,,,,,,,,,,,,,,,,,,,,,,,300.71099879999997,300.72722369999997,301.26059570000007,301.21071159999997,301.2381379000001,301.26059570000007,301.26059570000007,301.26059570000007,310.1273831000001,Scenes\145b.jpg,mid,s,8.86230680000017,None,,,,,,,,00022,001,2025-11-11_05h14.33.217,MST_test,2024.2.2,60.00139203228071,2025-11-11 05h14.38.872906 +0530,
42,0,42,s,2.1450776000001497,None,42,0,42,0,310.14369480000005,,,,,,,,,,,,,,,,,,,,,,,,,,,,,,,,,,,,,,,,,,,,,,,,,,310.12746519999996,310.14369480000005,310.66030580000006,310.62715120000007,310.6546058000001,310.66030580000006,310.66030580000006,310.66030580000006,312.8106898000001,Objects\070b.jpg,mid,s,2.1450776000001497,None,,,,,,,,00022,001,2025-11-11_05h14.33.217,MST_test,2024.2.2,60.00139203228071,2025-11-11 05h14.38.872906 +0530,
43,0,43,o,1.6920182999999724,None,43,0,43,0,312.82696950000013,,,,,,,,,,,,,,,,,,,,,,,,,,,,,,,,,,,,,,,,,,,,,,,,,,312.8107643000001,312.82696950000013,313.34357339999997,313.31048380000016,313.33072949999996,313.34357339999997,313.34357339999997,313.34357339999997,315.04390050000006,Objects\178b.jpg,pre,o,1.6920182999999724,None,,,,,,,,00022,001,2025-11-11_05h14.33.217,MST_test,2024.2.2,60.00139203228071,2025-11-11 05h14.38.872906 +0530,
44,0,44,o,1.5127228999999716,None,44,0,44,0,315.0601948000001,,,,,,,,,,,,,,,,,,,,,,,,,,,,,,,,,,,,,,,,,,,,,,,,,,315.0439775,315.0601948000001,315.57668750000016,315.5438068000001,315.5699337000001,315.57668750000016,315.57668750000016,315.57668750000016,317.09388609999996,Scenes\142b.jpg,post,o,1.5127228999999716,None,,,,,,,,00022,001,2025-11-11_05h14.33.217,MST_test,2024.2.2,60.00139203228071,2025-11-11 05h14.38.872906 +0530,
45,0,45,s,1.4638205000001108,None,45,0,45,0,317.1101784,,,,,,,,,,,,,,,,,,,,,,,,,,,,,,,,,,,,,,,,,,,,,,,,,,317.09395889999996,317.1101784,317.6267964000001,317.59371680000004,317.6223123,317.6267964000001,317.6267964000001,317.6267964000001,319.0937778,Objects\098b.jpg,pre,s,1.4638205000001108,None,,,,,,,,00022,001,2025-11-11_05h14.33.217,MST_test,2024.2.2,60.00139203228071,2025-11-11 05h14.38.872906 +0530,
46,0,46,o,4.683820100000048,None,46,0,46,0,319.11013560000015,,,,,,,,,,,,,,,,,,,,,,,,,,,,,,,,,,,,,,,,,,,,,,,,,,319.09385050000014,319.11013560000015,319.643454,319.59363580000013,319.6258885,319.643454,319.643454,319.643454,324.34370880000006,Scenes\172b.jpg,post,o,4.683820100000048,None,,,,,,,,00022,001,2025-11-11_05h14.33.217,MST_test,2024.2.2,60.00139203228071,2025-11-11 05h14.38.872906 +0530,
47,0,47,o,1.2092807999999877,None,47,0,47,0,324.3600094000001,,,,,,,,,,,,,,,,,,,,,,,,,,,,,,,,,,,,,,,,,,,,,,,,,,324.34378979999997,324.3600094000001,324.8599657,324.84364060000007,324.8535945000001,324.8599657,324.8599657,324.8599657,326.07695220000005,Objects\016a.jpg,mid,o,1.2092807999999877,None,,,,,,,,00022,001,2025-11-11_05h14.33.217,MST_test,2024.2.2,60.00139203228071,2025-11-11 05h14.38.872906 +0530,
48,0,48,o,0.9610990000001038,None,48,0,48,0,326.09330769999997,,,,,,,,,,,,,,,,,,,,,,,,,,,,,,,,,,,,,,,,,,,,,,,,,,326.07703390000006,326.09330769999997,326.6102049000001,326.5767294,326.59661860000006,326.6102049000001,326.6102049000001,326.6102049000001,327.57695220000005,Scenes\017a.jpg,pre,o,0.9610990000001038,None,,,,,,,,00022,001,2025-11-11_05h14.33.217,MST_test,2024.2.2,60.00139203228071,2025-11-11 05h14.38.872906 +0530,
49,0,49,o,1.0898915000000216,None,49,0,49,0,327.5932692000001,,,,,,,,,,,,,,,,,,,,,,,,,,,,,,,,,,,,,,,,,,,,,,,,,,327.57702370000015,327.5932692000001,328.10993370000006,328.0767787,328.10432030000015,328.10993370000006,328.10993370000006,328.10993370000006,329.21030799999994,Objects\096b.jpg,pre,o,1.0898915000000216,None,,,,,,,,00022,001,2025-11-11_05h14.33.217,MST_test,2024.2.2,60.00139203228071,2025-11-11 05h14.38.872906 +0530,
50,0,50,o,1.1241778999999497,None,50,0,50,0,329.22656589999997,,,,,,,,,,,,,,,,,,,,,,,,,,,,,,,,,,,,,,,,,,,,,,,,,,329.21038620000013,329.22656589999997,329.7434843000001,329.71013259999995,329.7226330000001,329.7434843000001,329.7434843000001,329.7434843000001,330.876937,Scenes\155a.jpg,mid,o,1.1241778999999497,None,,,,,,,,00022,001,2025-11-11_05h14.33.217,MST_test,2024.2.2,60.00139203228071,2025-11-11 05h14.38.872906 +0530,
51,0,51,n,2.0247901000000184,None,51,0,51,0,330.89315750000014,,,,,,,,,,,,,,,,,,,,,,,,,,,,,,,,,,,,,,,,,,,,,,,,,,330.8770052,330.89315750000014,331.40981780000016,331.37671339999997,331.3984749000001,331.40981780000016,331.40981780000016,331.40981780000016,333.4433960000001,Foils\097a.jpg,none,n,2.0247901000000184,None,,,,,,,,00022,001,2025-11-11_05h14.33.217,MST_test,2024.2.2,60.00139203228071,2025-11-11 05h14.38.872906 +0530,
52,0,52,o,3.5287086000000727,None,52,0,52,0,333.45980110000005,,,,,,,,,,,,,,,,,,,,,,,,,,,,,,,,,,,,,,,,,,,,,,,,,,333.4434742000001,333.45980110000005,333.9764632000001,333.94337510000014,333.9569503,333.9764632000001,333.9764632000001,333.9764632000001,337.5100929,Scenes\128a.jpg,pre,o,3.5287086000000727,None,,,,,,,,00022,001,2025-11-11_05h14.33.217,MST_test,2024.2.2,60.00139203228071,2025-11-11 05h14.38.872906 +0530,
53,0,53,n,2.3670755000000554,None,53,0,53,0,337.52646060000006,,,,,,,,,,,,,,,,,,,,,,,,,,,,,,,,,,,,,,,,,,,,,,,,,,337.51016720000007,337.52646060000006,338.04311959999995,338.01005239999995,338.0344007000001,338.04311959999995,338.04311959999995,338.04311959999995,340.4267841000001,Scenes\161b.jpg,pre,n,2.3670755000000554,None,,,,,,,,00022,001,2025-11-11_05h14.33.217,MST_test,2024.2.2,60.00139203228071,2025-11-11 05h14.38.872906 +0530,
54,0,54,o,1.1839343999999983,None,54,0,54,0,340.4430688,,,,,,,,,,,,,,,,,,,,,,,,,,,,,,,,,,,,,,,,,,,,,,,,,,340.4268555000001,340.4430688,340.9431006,340.9265766000001,340.93601409999997,340.9431006,340.9431006,340.9431006,342.14337880000016,Objects\022a.jpg,post,o,1.1839343999999983,None,,,,,,,,00022,001,2025-11-11_05h14.33.217,MST_test,2024.2.2,60.00139203228071,2025-11-11 05h14.38.872906 +0530,
55,0,55,o,4.298501599999781,None,55,0,55,0,342.1596932,,,,,,,,,,,,,,,,,,,,,,,,,,,,,,,,,,,,,,,,,,,,,,,,,,342.14344960000017,342.1596932,342.65964570000006,342.64327159999993,342.6528650999999,342.65964570000006,342.65964570000006,342.65964570000006,346.9601372000002,Objects\083a.jpg,mid,o,4.298501599999781,None,,,,,,,,00022,001,2025-11-11_05h14.33.217,MST_test,2024.2.2,60.00139203228071,2025-11-11 05h14.38.872906 +0530,
56,0,56,o,1.1646249999998872,None,56,0,56,0,346.97624480000013,,,,,,,,,,,,,,,,,,,,,,,,,,,,,,,,,,,,,,,,,,,,,,,,,,346.96021470000005,346.97624480000013,347.4929508,347.4597176000002,347.4737848,347.4929508,347.4929508,347.4929508,348.6598472999999,Scenes\089a.jpg,pre,o,1.1646249999998872,None,,,,,,,,00022,001,2025-11-11_05h14.33.217,MST_test,2024.2.2,60.00139203228071,2025-11-11 05h14.38.872906 +0530,
57,0,57,o,3.3565894999997,None,57,0,57,0,348.6762054999999,,,,,,,,,,,,,,,,,,,,,,,,,,,,,,,,,,,,,,,,,,,,,,,,,,348.6599196000002,348.6762054999999,349.1928329000002,349.15977090000024,349.18534679999993,349.1928329000002,349.1928329000002,349.1928329000002,352.55984750000016,Objects\107b.jpg,mid,o,3.3565894999997,None,,,,,,,,00022,001,2025-11-11_05h14.33.217,MST_test,2024.2.2,60.00139203228071,2025-11-11 05h14.38.872906 +0530,
58,0,58,n,3.256661599999916,None,58,0,58,0,352.5761161999999,,,,,,,,,,,,,,,,,,,,,,,,,,,,,,,,,,,,,,,,,,,,,,,,,,352.5599284,352.5761161999999,353.09310170000026,353.05971,353.0855044,353.09310170000026,353.09310170000026,353.09310170000026,356.3597705000002,Foils\scenes2.jpg,none,n,3.256661599999916,None,,,,,,,,00022,001,2025-11-11_05h14.33.217,MST_test,2024.2.2,60.00139203228071,2025-11-11 05h14.38.872906 +0530,
59,0,59,n,2.31262229999993,None,59,0,59,0,356.376076,,,,,,,,,,,,,,,,,,,,,,,,,,,,,,,,,,,,,,,,,,,,,,,,,,356.3598565000002,356.376076,356.89288669999996,356.85952180000004,356.8840442999999,356.89288669999996,356.89288669999996,356.89288669999996,359.20955430000004,Scenes\143b.jpg,mid,n,2.31262229999993,None,,,,,,,,00022,001,2025-11-11_05h14.33.217,MST_test,2024.2.2,60.00139203228071,2025-11-11 05h14.38.872906 +0530,
60,0,60,s,2.8436153000002378,None,60,0,60,0,359.2259296000002,,,,,,,,,,,,,,,,,,,,,,,,,,,,,,,,,,,,,,,,,,,,,,,,,,359.20963759999995,359.2259296000002,359.74254299999984,359.7094836000001,359.7388532,359.74254299999984,359.74254299999984,359.74254299999984,362.5930853,Objects\141b.jpg,pre,s,2.8436153000002378,None,,,,,,,,00022,001,2025-11-11_05h14.33.217,MST_test,2024.2.2,60.00139203228071,2025-11-11 05h14.38.872906 +0530,
61,0,61,s,1.1871189000003142,None,61,0,61,0,362.6092143000001,,,,,,,,,,,,,,,,,,,,,,,,,,,,,,,,,,,,,,,,,,,,,,,,,,362.5931593,362.6092143000001,363.12613999999985,363.0929243999999,363.1127471,363.12613999999985,363.12613999999985,363.12613999999985,364.3262316999999,Foils\scenes6.jpg,none,s,1.1871189000003142,None,,,,,,,,00022,001,2025-11-11_05h14.33.217,MST_test,2024.2.2,60.00139203228071,2025-11-11 05h14.38.872906 +0530,
62,0,62,s,0.9915313000001333,None,62,0,62,0,364.3424814,,,,,,,,,,,,,,,,,,,,,,,,,,,,,,,,,,,,,,,,,,,,,,,,,,364.32630659999995,364.3424814,364.87592470000027,364.8259043000003,364.8538953000002,364.87592470000027,364.87592470000027,364.87592470000027,365.8761638000001,Scenes\054b.jpg,mid,s,0.9915313000001333,None,,,,,,,,00022,001,2025-11-11_05h14.33.217,MST_test,2024.2.2,60.00139203228071,2025-11-11 05h14.38.872906 +0530,
63,0,63,n,1.494353599999613,None,63,0,63,0,365.89240830000017,,,,,,,,,,,,,,,,,,,,,,,,,,,,,,,,,,,,,,,,,,,,,,,,,,365.87624129999995,365.89240830000017,366.4257969,366.3759150000001,366.4109735000002,366.4257969,366.4257969,366.4257969,367.9260954000001,Foils\scenes7.jpg,none,n,1.494353599999613,None,,,,,,,,00022,001,2025-11-11_05h14.33.217,MST_test,2024.2.2,60.00139203228071,2025-11-11 05h14.38.872906 +0530,
64,0,64,n,3.718244700000014,None,64,0,64,0,367.942313,,,,,,,,,,,,,,,,,,,,,,,,,,,,,,,,,,,,,,,,,,,,,,,,,,367.9261735,367.942313,368.4756311000001,368.42583490000015,368.4609028,368.4756311000001,368.4756311000001,368.4756311000001,372.20932429999993,Scenes\047b.jpg,post,n,3.718244700000014,None,,,,,,,,00022,001,2025-11-11_05h14.33.217,MST_test,2024.2.2,60.00139203228071,2025-11-11 05h14.38.872906 +0530,
65,0,65,o,2.490773099999842,None,65,0,65,0,372.2255798000001,,,,,,,,,,,,,,,,,,,,,,,,,,,,,,,,,,,,,,,,,,,,,,,,,,372.20940610000025,372.2255798000001,372.7423595,372.70907720000014,372.72475170000007,372.7423595,372.7423595,372.7423595,375.2425303,Objects\086a.jpg,mid,o,2.490773099999842,None,,,,,,,,00022,001,2025-11-11_05h14.33.217,MST_test,2024.2.2,60.00139203228071,2025-11-11 05h14.38.872906 +0530,
66,0,66,o,1.792132600000059,None,66,0,66,0,375.25883569999996,,,,,,,,,,,,,,,,,,,,,,,,,,,,,,,,,,,,,,,,,,,,,,,,,,375.2426150000001,375.25883569999996,375.75889210000014,375.7424756999999,375.75309049999987,375.75889210000014,375.75889210000014,375.75889210000014,377.55924099999993,Objects\015a.jpg,pre,o,1.792132600000059,None,,,,,,,,00022,001,2025-11-11_05h14.33.217,MST_test,2024.2.2,60.00139203228071,2025-11-11 05h14.38.872906 +0530,
67,0,67,o,3.3180327000000034,None,67,0,67,0,377.57545470000014,,,,,,,,,,,,,,,,,,,,,,,,,,,,,,,,,,,,,,,,,,,,,,,,,,377.5593122999999,377.57545470000014,378.0754081,378.05896380000013,378.06828780000023,378.0754081,378.0754081,378.0754081,381.40896759999987,Objects\010a.jpg,mid,o,3.3180327000000034,None,,,,,,,,00022,001,2025-11-11_05h14.33.217,MST_test,2024.2.2,60.00139203228071,2025-11-11 05h14.38.872906 +0530,
68,0,68,n,2.9189971999999216,None,68,0,68,0,381.42537200000015,,,,,,,,,,,,,,,,,,,,,,,,,,,,,,,,,,,,,,,,,,,,,,,,,,381.4090433000001,381.42537200000015,381.94219169999997,381.9088234000001,381.92833980000023,381.94219169999997,381.94219169999997,381.94219169999997,384.87549279999985,Scenes\175b.jpg,pre,n,2.9189971999999216,None,,,,,,,,00022,001,2025-11-11_05h14.33.217,MST_test,2024.2.2,60.00139203228071,2025-11-11 05h14.38.872906 +0530,
69,0,69,n,2.9496100999999726,None,69,0,69,0,384.8919541,,,,,,,,,,,,,,,,,,,,,,,,,,,,,,,,,,,,,,,,,,,,,,,,,,384.8755691000001,384.8919541,385.4084517000001,385.3754297999999,385.4046828999999,385.4084517000001,385.4084517000001,385.4084517000001,388.35896660000026,Foils\002a.jpg,none,n,2.9496100999999726,None,,,,,,,,00022,001,2025-11-11_05h14.33.217,MST_test,2024.2.2,60.00139203228071,2025-11-11 05h14.38.872906 +0530,
70,0,70,n,1.4999269999998432,None,70,0,70,0,388.375172,,,,,,,,,,,,,,,,,,,,,,,,,,,,,,,,,,,,,,,,,,,,,,,,,,388.35905030000004,388.375172,388.8919085000002,388.85869230000026,388.88006799999994,388.8919085000002,388.8919085000002,388.8919085000002,390.39225970000007,Objects\151b.jpg,post,n,1.4999269999998432,None,,,,,,,,00022,001,2025-11-11_05h14.33.217,MST_test,2024.2.2,60.00139203228071,2025-11-11 05h14.38.872906 +0530,
71,0,71,o,6.6080683999998655,None,71,0,71,0,390.40848730000016,,,,,,,,,,,,,,,,,,,,,,,,,,,,,,,,,,,,,,,,,,,,,,,,,,390.3923426000001,390.40848730000016,390.92511590000004,390.89217529999996,390.91171310000027,390.92511590000004,390.92511590000004,390.92511590000004,397.5420085999999,Foils\050a.jpg,none,o,6.6080683999998655,None,,,,,,,,00022,001,2025-11-11_05h14.33.217,MST_test,2024.2.2,60.00139203228071,2025-11-11 05h14.38.872906 +0530,
72,0,72,s,4.189679499999784,None,72,0,72,0,397.5583366999999,,,,,,,,,,,,,,,,,,,,,,,,,,,,,,,,,,,,,,,,,,,,,,,,,,397.54210079999984,397.5583366999999,398.09163820000003,398.0418232000002,398.0728478000001,398.09163820000003,398.09163820000003,398.09163820000003,402.2920598999999,Objects\033b.jpg,pre,s,4.189679499999784,None,,,,,,,,00022,001,2025-11-11_05h14.33.217,MST_test,2024.2.2,60.00139203228071,2025-11-11 05h14.38.872906 +0530,
73,0,73,o,2.6147783999999774,None,73,0,73,0,402.3082155000002,,,,,,,,,,,,,,,,,,,,,,,,,,,,,,,,,,,,,,,,,,,,,,,,,,402.29214120000006,402.3082155000002,402.8248358999999,402.79165620000003,402.80816689999983,402.8248358999999,402.8248358999999,402.8248358999999,405.4418335999999,Objects\049b.jpg,pre,o,2.6147783999999774,None,,,,,,,,00022,001,2025-11-11_05h14.33.217,MST_test,2024.2.2,60.00139203228071,2025-11-11 05h14.38.872906 +0530,
74,0,74,n,2.693079199999829,None,74,0,74,0,405.4581683000001,,,,,,,,,,,,,,,,,,,,,,,,,,,,,,,,,,,,,,,,,,,,,,,,,,405.4419130000001,405.4581683000001,405.97504500000014,405.94164219999993,405.95519409999997,405.97504500000014,405.97504500000014,405.97504500000014,408.67499099999986,Scenes\043a.jpg,post,n,2.693079199999829,None,,,,,,,,00022,001,2025-11-11_05h14.33.217,MST_test,2024.2.2,60.00139203228071,2025-11-11 05h14.38.872906 +0530,
75,0,75,o,13.633057999999892,None,75,0,75,0,408.69140730000026,,,,,,,,,,,,,,,,,,,,,,,,,,,,,,,,,,,,,,,,,,,,,,,,,,408.67506319999984,408.69140730000026,409.22469520000004,409.17487299999993,409.20685140000023,409.22469520000004,409.22469520000004,409.22469520000004,422.8582216,Objects\069b.jpg,pre,o,13.633057999999892,None,,,,,,,,00022,001,2025-11-11_05h14.33.217,MST_test,2024.2.2,60.00139203228071,2025-11-11 05h14.38.872906 +0530,
76,0,76,n,2.7273261000000275,None,76,0,76,0,422.8744142999999,,,,,,,,,,,,,,,,,,,,,,,,,,,,,,,,,,,,,,,,,,,,,,,,,,422.8583173000002,422.8744142999999,423.40805839999985,423.3579001000003,423.3885782000002,423.40805839999985,423.40805839999985,423.40805839999985,426.14125079999985,Foils\scenes3.jpg,none,n,2.7273261000000275,None,,,,,,,,00022,001,2025-11-11_05h14.33.217,MST_test,2024.2.2,60.00139203228071,2025-11-11 05h14.38.872906 +0530,
77,0,77,o,1.3233899000001657,None,77,0,77,0,426.1576835000001,,,,,,,,,,,,,,,,,,,,,,,,,,,,,,,,,,,,,,,,,,,,,,,,,,426.1413284999999,426.1576835000001,426.6743283999999,426.64116809999996,426.65649299999995,426.6743283999999,426.6743283999999,426.6743283999999,428.00790129999996,Objects\061a.jpg,post,o,1.3233899000001657,None,,,,,,,,00022,001,2025-11-11_05h14.33.217,MST_test,2024.2.2,60.00139203228071,2025-11-11 05h14.38.872906 +0530,
78,0,78,n,1.6010001999998167,None,78,0,78,0,428.0242939,,,,,,,,,,,,,,,,,,,,,,,,,,,,,,,,,,,,,,,,,,,,,,,,,,428.00797420000026,428.0242939,428.5409528,428.5077765000001,428.52451729999984,428.5409528,428.5409528,428.5409528,430.1578687000001,Foils\scenes19.jpg,none,n,1.6010001999998167,None,,,,,,,,00022,001,2025-11-11_05h14.33.217,MST_test,2024.2.2,60.00139203228071,2025-11-11 05h14.38.872906 +0530,
79,0,79,s,2.670258300000114,None,79,0,79,0,430.1742512999999,,,,,,,,,,,,,,,,,,,,,,,,,,,,,,,,,,,,,,,,,,,,,,,,,,430.15794570000025,430.1742512999999,430.6909448000001,430.65773820000004,430.6843431000002,430.6909448000001,430.6909448000001,430.6909448000001,433.3744353000002,Scenes\084b.jpg,pre,s,2.670258300000114,None,,,,,,,,00022,001,2025-11-11_05h14.33.217,MST_test,2024.2.2,60.00139203228071,2025-11-11 05h14.38.872906 +0530,
80,0,80,n,2.6009980999997424,None,80,0,80,0,433.39083900000014,,,,,,,,,,,,,,,,,,,,,,,,,,,,,,,,,,,,,,,,,,,,,,,,,,433.374507,433.39083900000014,433.89085320000004,433.8743147,433.88389770000003,433.89085320000004,433.89085320000004,433.89085320000004,436.5077061000002,Objects\104a.jpg,post,n,2.6009980999997424,None,,,,,,,,00022,001,2025-11-11_05h14.33.217,MST_test,2024.2.2,60.00139203228071,2025-11-11 05h14.38.872906 +0530,
81,0,81,o,5.045091799999682,None,81,0,81,0,436.52409579999994,,,,,,,,,,,,,,,,,,,,,,,,,,,,,,,,,,,,,,,,,,,,,,,,,,436.5077796999999,436.52409579999994,437.0407602999999,437.0075803,437.0232771000001,437.0407602999999,437.0407602999999,437.0407602999999,442.0909706000002,Scenes\044a.jpg,pre,o,5.045091799999682,None,,,,,,,,00022,001,2025-11-11_05h14.33.217,MST_test,2024.2.2,60.00139203228071,2025-11-11 05h14.38.872906 +0530,
82,0,82,n,1.7056015000002844,None,82,0,82,0,442.10733130000017,,,,,,,,,,,,,,,,,,,,,,,,,,,,,,,,,,,,,,,,,,,,,,,,,,442.09104819999993,442.10733130000017,442.60726250000016,442.59086560000014,442.59751510000024,442.60726250000016,442.60726250000016,442.60726250000016,444.32418770000004,Scenes\028a.jpg,pre,n,1.7056015000002844,None,,,,,,,,00022,001,2025-11-11_05h14.33.217,MST_test,2024.2.2,60.00139203228071,2025-11-11 05h14.38.872906 +0530,
83,0,83,o,6.132229499999994,None,83,0,83,0,444.3405842000002,,,,,,,,,,,,,,,,,,,,,,,,,,,,,,,,,,,,,,,,,,,,,,,,,,444.32426970000006,444.3405842000002,444.85724310000023,444.8240587,444.8398780000002,444.85724310000023,444.85724310000023,444.85724310000023,450.99083659999997,Scenes\075b.jpg,mid,o,6.132229499999994,None,,,,,,,,00022,001,2025-11-11_05h14.33.217,MST_test,2024.2.2,60.00139203228071,2025-11-11 05h14.38.872906 +0530,
84,0,84,o,1.084244900000158,None,84,0,84,0,451.00712539999995,,,,,,,,,,,,,,,,,,,,,,,,,,,,,,,,,,,,,,,,,,,,,,,,,,450.9909315,451.00712539999995,451.5239018000002,451.4906003000001,451.5193964,451.5239018000002,451.5239018000002,451.5239018000002,452.62403410000024,Scenes\018b.jpg,mid,o,1.084244900000158,None,,,,,,,,00022,001,2025-11-11_05h14.33.217,MST_test,2024.2.2,60.00139203228071,2025-11-11 05h14.38.872906 +0530,
85,0,85,s,4.535489200000029,None,85,0,85,0,452.6403951000002,,,,,,,,,,,,,,,,,,,,,,,,,,,,,,,,,,,,,,,,,,,,,,,,,,452.6241070000001,452.6403951000002,453.1739141000003,453.12398329999996,453.1552775,453.1739141000003,453.1739141000003,453.1739141000003,457.7240304000002,Scenes\060b.jpg,post,s,4.535489200000029,None,,,,,,,,00022,001,2025-11-11_05h14.33.217,MST_test,2024.2.2,60.00139203228071,2025-11-11 05h14.38.872906 +0530,
86,0,86,s,1.3323390000000472,None,86,0,86,0,457.74028279999993,,,,,,,,,,,,,,,,,,,,,,,,,,,,,,,,,,,,,,,,,,,,,,,,,,457.7241131999999,457.74028279999993,458.25711660000024,458.2237662000002,458.23974469999985,458.25711660000024,458.25711660000024,458.25711660000024,459.5904753,Objects\172a.jpg,post,s,1.3323390000000472,None,,,,,,,,00022,001,2025-11-11_05h14.33.217,MST_test,2024.2.2,60.00139203228071,2025-11-11 05h14.38.872906 +0530,
87,0,87,o,3.208560000000034,None,87,0,87,0,459.6069101000003,,,,,,,,,,,,,,,,,,,,,,,,,,,,,,,,,,,,,,,,,,,,,,,,,,459.59054689999994,459.6069101000003,460.14022680000016,460.09035959999983,460.1206367,460.14022680000016,460.14022680000016,460.14022680000016,463.35711960000026,Objects\192b.jpg,mid,o,3.208560000000034,None,,,,,,,,00022,001,2025-11-11_05h14.33.217,MST_test,2024.2.2,60.00139203228071,2025-11-11 05h14.38.872906 +0530,
88,0,88,n,2.4050100999997994,None,88,0,88,0,463.3734826,,,,,,,,,,,,,,,,,,,,,,,,,,,,,,,,,,,,,,,,,,,,,,,,,,463.3571929,463.3734826,463.8901102,463.85704209999994,463.8787548,463.8901102,463.8901102,463.8901102,466.30696720000014,Objects\128b.jpg,pre,n,2.4050100999997994,None,,,,,,,,00022,001,2025-11-11_05h14.33.217,MST_test,2024.2.2,60.00139203228071,2025-11-11 05h14.38.872906 +0530,
89,0,89,n,3.1707856999996693,None,89,0,89,0,466.3234127999999,,,,,,,,,,,,,,,,,,,,,,,,,,,,,,,,,,,,,,,,,,,,,,,,,,466.3070419999999,466.3234127999999,466.84026410000024,466.80691179999985,466.8265388,466.84026410000024,466.84026410000024,466.84026410000024,470.0235926999999,Foils\scenes18.jpg,none,n,3.1707856999996693,None,,,,,,,,00022,001,2025-11-11_05h14.33.217,MST_test,2024.2.2,60.00139203228071,2025-11-11 05h14.38.872906 +0530,
90,0,90,s,8.532187000000249,None,90,0,90,0,470.0400015,,,,,,,,,,,,,,,,,,,,,,,,,,,,,,,,,,,,,,,,,,,,,,,,,,470.0236697,470.0400015,470.55669709999984,470.52347169999985,470.5516321,470.55669709999984,470.55669709999984,470.55669709999984,479.09007329999986,Foils\106a.jpg,none,s,8.532187000000249,None,,,,,,,,00022,001,2025-11-11_05h14.33.217,MST_test,2024.2.2,60.00139203228071,2025-11-11 05h14.38.872906 +0530,
91,0,91,s,4.142144300000382,None,91,0,91,0,479.10645460000023,,,,,,,,,,,,,,,,,,,,,,,,,,,,,,,,,,,,,,,,,,,,,,,,,,479.0901477000002,479.10645460000023,479.62310979999984,479.58991990000004,479.6130484,479.62310979999984,479.62310979999984,479.62310979999984,483.773326,Foils\018a.jpg,none,s,4.142144300000382,None,,,,,,,,00022,001,2025-11-11_05h14.33.217,MST_test,2024.2.2,60.00139203228071,2025-11-11 05h14.38.872906 +0530,
92,0,92,s,1.9254143999996813,None,92,0,92,0,483.7897696,,,,,,,,,,,,,,,,,,,,,,,,,,,,,,,,,,,,,,,,,,,,,,,,,,483.77340170000025,483.7897696,484.3063092000002,484.2732406,484.29291939999985,484.3063092000002,484.3063092000002,484.3063092000002,486.2399881000001,Objects\119b.jpg,mid,s,1.9254143999996813,None,,,,,,,,00022,001,2025-11-11_05h14.33.217,MST_test,2024.2.2,60.00139203228071,2025-11-11 05h14.38.872906 +0530,
93,0,93,s,0.8709237999996731,None,93,0,93,0,486.25635760000023,,,,,,,,,,,,,,,,,,,,,,,,,,,,,,,,,,,,,,,,,,,,,,,,,,486.24006199999985,486.25635760000023,486.7563055999999,486.7398833000002,486.7493002000001,486.7563055999999,486.7563055999999,486.7563055999999,487.6399442000002,Objects\013a.jpg,pre,s,0.8709237999996731,None,,,,,,,,00022,001,2025-11-11_05h14.33.217,MST_test,2024.2.2,60.00139203228071,2025-11-11 05h14.38.872906 +0530,
94,0,94,s,1.3061815999999453,None,94,0,94,0,487.6562598999999,,,,,,,,,,,,,,,,,,,,,,,,,,,,,,,,,,,,,,,,,,,,,,,,,,487.64002010000013,487.6562598999999,488.1728968000002,488.1398078000002,488.15704229999983,488.1728968000002,488.1728968000002,488.1728968000002,489.4898111000002,Objects\031b.jpg,pre,s,1.3061815999999453,None,,,,,,,,00022,001,2025-11-11_05h14.33.217,MST_test,2024.2.2,60.00139203228071,2025-11-11 05h14.38.872906 +0530,
95,0,95,s,0.8248109999999542,None,95,0,95,0,489.5062060999999,,,,,,,,,,,,,,,,,,,,,,,,,,,,,,,,,,,,,,,,,,,,,,,,,,489.48988910000025,489.5062060999999,490.00616360000004,489.9896855000002,489.9991063000002,490.00616360000004,490.00616360000004,490.00616360000004,490.8399107,Objects\028a.jpg,post,s,0.8248109999999542,None,,,,,,,,00022,001,2025-11-11_05h14.33.217,MST_test,2024.2.2,60.00139203228071,2025-11-11 05h14.38.872906 +0530,
96,0,96,o,1.476940900000045,None,96,0,96,0,490.85619320000023,,,,,,,,,,,,,,,,,,,,,,,,,,,,,,,,,,,,,,,,,,,,,,,,,,490.83998269999984,490.85619320000023,491.3561832999999,491.33961309999995,491.3491091000001,491.3561832999999,491.3561832999999,491.3561832999999,492.8398588,Objects\099a.jpg,post,o,1.476940900000045,None,,,,,,,,00022,001,2025-11-11_05h14.33.217,MST_test,2024.2.2,60.00139203228071,2025-11-11 05h14.38.872906 +0530,
97,0,97,n,2.686180400000012,None,97,0,97,0,492.8561469000001,,,,,,,,,,,,,,,,,,,,,,,,,,,,,,,,,,,,,,,,,,,,,,,,,,492.83994040000016,492.8561469000001,493.37302450000016,493.33966550000014,493.35926370000016,493.37302450000016,493.37302450000016,493.37302450000016,496.07303550000006,Scenes\082a.jpg,pre,n,2.686180400000012,None,,,,,,,,00022,001,2025-11-11_05h14.33.217,MST_test,2024.2.2,60.00139203228071,2025-11-11 05h14.38.872906 +0530,
98,0,98,n,1.5119709999999031,None,98,0,98,0,496.08940540000003,,,,,,,,,,,,,,,,,,,,,,,,,,,,,,,,,,,,,,,,,,,,,,,,,,496.07311530000015,496.08940540000003,496.6229526000002,496.57286840000006,496.6122355000002,496.6229526000002,496.6229526000002,496.6229526000002,498.13981479999984,Scenes\088b.jpg,post,n,1.5119709999999031,None,,,,,,,,00022,001,2025-11-11_05h14.33.217,MST_test,2024.2.2,60.00139203228071,2025-11-11 05h14.38.872906 +0530,
99,0,99,o,5.641565299999911,None,99,0,99,0,498.15598720000025,,,,,,,,,,,,,,,,,,,,,,,,,,,,,,,,,,,,,,,,,,,,,,,,,,498.13988830000017,498.15598720000025,498.6730708,498.6395480000001,498.66782030000013,498.6730708,498.6730708,498.6730708,504.3227872000002,Scenes\014b.jpg,pre,o,5.641565299999911,None,,,,,,,,00022,001,2025-11-11_05h14.33.217,MST_test,2024.2.2,60.00139203228071,2025-11-11 05h14.38.872906 +0530,
100,0,100,s,5.76892560000033,None,100,0,100,0,504.3392208999999,,,,,,,,,,,,,,,,,,,,,,,,,,,,,,,,,,,,,,,,,,,,,,,,,,504.32287240000005,504.3392208999999,504.8559759999998,504.822682,504.8486492000002,504.8559759999998,504.8559759999998,504.8559759999998,510.63937239999996,Scenes\136b.jpg,pre,s,5.76892560000033,None,,,,,,,,00022,001,2025-11-11_05h14.33.217,MST_test,2024.2.2,60.00139203228071,2025-11-11 05h14.38.872906 +0530,
101,0,101,o,2.5081294999999955,None,101,0,101,0,510.6557358,,,,,,,,,,,,,,,,,,,,,,,,,,,,,,,,,,,,,,,,,,,,,,,,,,510.6394580000001,510.6557358,511.1890136000002,511.1394095999999,511.16853960000026,511.1890136000002,511.1890136000002,511.1890136000002,513.7059144,Scenes\039b.jpg,mid,o,2.5081294999999955,None,,,,,,,,00022,001,2025-11-11_05h14.33.217,MST_test,2024.2.2,60.00139203228071,2025-11-11 05h14.38.872906 +0530,
102,0,102,n,4.736456399999952,None,102,0,102,0,513.7223239999998,,,,,,,,,,,,,,,,,,,,,,,,,,,,,,,,,,,,,,,,,,,,,,,,,,513.7059904000002,513.7223239999998,514.2556531,514.2057432000001,514.2361331000002,514.2556531,514.2556531,514.2556531,519.0057990999999,Scenes\170b.jpg,mid,n,4.736456399999952,None,,,,,,,,00022,001,2025-11-11_05h14.33.217,MST_test,2024.2.2,60.00139203228071,2025-11-11 05h14.38.872906 +0530,
103,0,103,o,5.430323100000351,None,103,0,103,0,519.0222091999999,,,,,,,,,,,,,,,,,,,,,,,,,,,,,,,,,,,,,,,,,,,,,,,,,,519.0058813,519.0222091999999,519.5391459000002,519.5057015000002,519.5217178000003,519.5391459000002,519.5391459000002,519.5391459000002,524.9723861000002,Objects\051a.jpg,mid,o,5.430323100000351,None,,,,,,,,00022,001,2025-11-11_05h14.33.217,MST_test,2024.2.2,60.00139203228071,2025-11-11 05h14.38.872906 +0530,
104,0,104,n,8.955610999999863,None,104,0,104,0,524.9886987,,,,,,,,,,,,,,,,,,,,,,,,,,,,,,,,,,,,,,,,,,,,,,,,,,524.9724644000003,524.9886987,525.5056866999998,525.4722093,525.4913802000001,525.5056866999998,525.5056866999998,525.5056866999998,534.4721177000001,Foils\scenes17.jpg,none,n,8.955610999999863,None,,,,,,,,00022,001,2025-11-11_05h14.33.217,MST_test,2024.2.2,60.00139203228071,2025-11-11 05h14.38.872906 +0530,
105,0,105,o,1.4737951000001885,None,105,0,105,0,534.4885170000002,,,,,,,,,,,,,,,,,,,,,,,,,,,,,,,,,,,,,,,,,,,,,,,,,,534.4722035,534.4885170000002,535.0054706999999,534.9719979000001,534.9889714999999,535.0054706999999,535.0054706999999,535.0054706999999,536.4887462000002,Scenes\117a.jpg,post,o,1.4737951000001885,None,,,,,,,,00022,001,2025-11-11_05h14.33.217,MST_test,2024.2.2,60.00139203228071,2025-11-11 05h14.38.872906 +0530,
106,0,106,o,8.300150900000062,None,106,0,106,0,536.5051360000002,,,,,,,,,,,,,,,,,,,,,,,,,,,,,,,,,,,,,,,,,,,,,,,,,,536.4888231,536.5051360000002,537.0219747000001,536.9886117000001,537.0097421,537.0219747000001,537.0219747000001,537.0219747000001,545.3386358000002,Scenes\090a.jpg,post,o,8.300150900000062,None,,,,,,,,00022,001,2025-11-11_05h14.33.217,MST_test,2024.2.2,60.00139203228071,2025-11-11 05h14.38.872906 +0530,
107,0,107,s,8.000071500000104,None,107,0,107,0,545.3549373000001,,,,,,,,,,,,,,,,,,,,,,,,,,,,,,,,,,,,,,,,,,,,,,,,,,545.3387167999999,545.3549373000001,545.8551861000001,545.8384142999998,545.8484382000001,545.8551861000001,545.8551861000001,545.8551861000001,553.8716690000001,Objects\163a.jpg,pre,s,8.000071500000104,None,,,,,,,,00022,001,2025-11-11_05h14.33.217,MST_test,2024.2.2,60.00139203228071,2025-11-11 05h14.38.872906 +0530,
108,0,108,o,2.5585226000002876,None,108,0,108,0,553.8880672,,,,,,,,,,,,,,,,,,,,,,,,,,,,,,,,,,,,,,,,,,,,,,,,,,553.8717554,553.8880672,554.4046941000001,554.3716248000001,554.3921015999999,554.4046941000001,554.4046941000001,554.4046941000001,556.9717297000002,Objects\092b.jpg,post,o,2.5585226000002876,None,,,,,,,,00022,001,2025-11-11_05h14.33.217,MST_test,2024.2.2,60.00139203228071,2025-11-11 05h14.38.872906 +0530,
109,0,109,o,2.126559599999837,None,109,0,109,0,556.9880002999998,,,,,,,,,,,,,,,,,,,,,,,,,,,,,,,,,,,,,,,,,,,,,,,,,,556.9718158999999,556.9880002999998,557.5046195,557.4714761,557.4983812999999,557.5046195,557.5046195,557.5046195,559.6382388000002,Scenes\178b.jpg,post,o,2.126559599999837,None,,,,,,,,00022,001,2025-11-11_05h14.33.217,MST_test,2024.2.2,60.00139203228071,2025-11-11 05h14.38.872906 +0530,
110,0,110,o,1.9051933999999164,None,110,0,110,0,559.6545681000002,,,,,,,,,,,,,,,,,,,,,,,,,,,,,,,,,,,,,,,,,,,,,,,,,,559.6383237,559.6545681000002,560.1546134,560.1380438000001,560.1477147,560.1546134,560.1546134,560.1546134,562.0715921000001,Objects\106a.jpg,mid,o,1.9051933999999164,None,,,,,,,,00022,001,2025-11-11_05h14.33.217,MST_test,2024.2.2,60.00139203228071,2025-11-11 05h14.38.872906 +0530,
111,0,111,o,1.2776570000000902,None,111,0,111,0,562.0879153000001,,,,,,,,,,,,,,,,,,,,,,,,,,,,,,,,,,,,,,,,,,,,,,,,,,562.0716686999999,562.0879153000001,562.6212123999999,562.5714429,562.6001113000002,562.6212123999999,562.6212123999999,562.6212123999999,563.9049180000002,Scenes\070b.jpg,mid,o,1.2776570000000902,None,,,,,,,,00022,001,2025-11-11_05h14.33.217,MST_test,2024.2.2,60.00139203228071,2025-11-11 05h14.38.872906 +0530,
112,0,112,n,1.8584068000000116,None,112,0,112,0,563.9211715000001,,,,,,,,,,,,,,,,,,,,,,,,,,,,,,,,,,,,,,,,,,,,,,,,,,563.9050075999999,563.9211715000001,564.4211287000003,564.4047239000001,564.4116211999999,564.4211287000003,564.4211287000003,564.4211287000003,566.2880842,Scenes\189a.jpg,post,n,1.8584068000000116,None,,,,,,,,00022,001,2025-11-11_05h14.33.217,MST_test,2024.2.2,60.00139203228071,2025-11-11 05h14.38.872906 +0530,
113,0,113,o,1.9743066999999428,None,113,0,113,0,566.3044528,,,,,,,,,,,,,,,,,,,,,,,,,,,,,,,,,,,,,,,,,,,,,,,,,,566.2881667000001,566.3044528,566.8210669,566.7879339000001,566.8163358000002,566.8210669,566.8210669,566.8210669,568.8046459000002,Objects\040b.jpg,pre,o,1.9743066999999428,None,,,,,,,,00022,001,2025-11-11_05h14.33.217,MST_test,2024.2.2,60.00139203228071,2025-11-11 05h14.38.872906 +0530,
114,0,114,n,5.627560800000083,None,114,0,114,0,568.8210574,,,,,,,,,,,,,,,,,,,,,,,,,,,,,,,,,,,,,,,,,,,,,,,,,,568.8047231,568.8210574,569.3376845000003,569.304564,569.3266850999998,569.3376845000003,569.3376845000003,569.3376845000003,574.9712457,Foils\105a.jpg,none,n,5.627560800000083,None,,,,,,,,00022,001,2025-11-11_05h14.33.217,MST_test,2024.2.2,60.00139203228071,2025-11-11 05h14.38.872906 +0530,
115,0,115,n,1.2151724000000286,None,115,0,115,0,574.9875866000002,,,,,,,,,,,,,,,,,,,,,,,,,,,,,,,,,,,,,,,,,,,,,,,,,,574.9713224000002,574.9875866000002,575.5044742,575.4710770000002,575.4881473,575.5044742,575.5044742,575.5044742,576.7212395000001,Scenes\033b.jpg,mid,n,1.2151724000000286,None,,,,,,,,00022,001,2025-11-11_05h14.33.217,MST_test,2024.2.2,60.00139203228071,2025-11-11 05h14.38.872906 +0530,
116,0,116,n,1.2048463000000993,None,116,0,116,0,576.7375413999998,,,,,,,,,,,,,,,,,,,,,,,,,,,,,,,,,,,,,,,,,,,,,,,,,,576.7213228999999,576.7375413999998,577.2544753000002,577.2210295999998,577.2394428000002,577.2544753000002,577.2544753000002,577.2544753000002,578.4711872000003,Scenes\085a.jpg,mid,n,1.2048463000000993,None,,,,,,,,00022,001,2025-11-11_05h14.33.217,MST_test,2024.2.2,60.00139203228071,2025-11-11 05h14.38.872906 +0530,
117,0,117,o,1.0343440000001465,None,117,0,117,0,578.4875244,,,,,,,,,,,,,,,,,,,,,,,,,,,,,,,,,,,,,,,,,,,,,,,,,,578.4712610000001,578.4875244,579.0208277000002,578.9709321999999,579.0024226999999,579.0208277000002,579.0208277000002,579.0208277000002,580.0710681,Scenes\130b.jpg,pre,o,1.0343440000001465,None,,,,,,,,00022,001,2025-11-11_05h14.33.217,MST_test,2024.2.2,60.00139203228071,2025-11-11 05h14.38.872906 +0530,
118,0,118,o,1.0872253000002274,None,118,0,118,0,580.0874408,,,,,,,,,,,,,,,,,,,,,,,,,,,,,,,,,,,,,,,,,,,,,,,,,,580.0711511,580.0874408,580.604088,580.5708983,580.5875147000002,580.604088,580.604088,580.604088,581.7044500000002,Objects\067a.jpg,post,o,1.0872253000002274,None,,,,,,,,00022,001,2025-11-11_05h14.33.217,MST_test,2024.2.2,60.00139203228071,2025-11-11 05h14.38.872906 +0530,
119,0,119,s,3.5732914000000164,None,119,0,119,0,581.7207649000002,,,,,,,,,,,,,,,,,,,,,,,,,,,,,,,,,,,,,,,,,,,,,,,,,,581.7045249000003,581.7207649000002,582.2543105,582.2042277999999,582.2496292000001,582.2543105,582.2543105,582.2543105,585.8376054999999,Foils\scenes27.jpg,none,s,3.5732914000000164,None,,,,,,,,00022,001,2025-11-11_05h14.33.217,MST_test,2024.2.2,60.00139203228071,2025-11-11 05h14.38.872906 +0530,
120,0,120,o,1.7374485000000277,None,120,0,120,0,585.8540026999999,,,,,,,,,,,,,,,,,,,,,,,,,,,,,,,,,,,,,,,,,,,,,,,,,,585.8376803000001,585.8540026999999,586.3539566,586.3376323000002,586.3474348,586.3539566,586.3539566,586.3539566,588.1042060999998,Objects\003a.jpg,post,o,1.7374485000000277,None,,,,,,,,00022,001,2025-11-11_05h14.33.217,MST_test,2024.2.2,60.00139203228071,2025-11-11 05h14.38.872906 +0530,
121,0,121,n,1.3009710000001178,None,121,0,121,0,588.1206207,,,,,,,,,,,,,,,,,,,,,,,,,,,,,,,,,,,,,,,,,,,,,,,,,,588.1042867000001,588.1206207,588.6203495999998,588.6040784000002,588.6137377,588.6203495999998,588.6203495999998,588.6203495999998,589.9375935000003,Scenes\153a.jpg,mid,n,1.3009710000001178,None,,,,,,,,00022,001,2025-11-11_05h14.33.217,MST_test,2024.2.2,60.00139203228071,2025-11-11 05h14.38.872906 +0530,
122,0,122,n,1.3987738999999237,None,122,0,122,0,589.9539092999999,,,,,,,,,,,,,,,,,,,,,,,,,,,,,,,,,,,,,,,,,,,,,,,,,,589.9376708999998,589.9539092999999,590.4708487000003,590.4374135000003,590.4545873000002,590.4708487000003,590.4708487000003,590.4708487000003,591.8708158,Scenes\015a.jpg,pre,n,1.3987738999999237,None,,,,,,,,00022,001,2025-11-11_05h14.33.217,MST_test,2024.2.2,60.00139203228071,2025-11-11 05h14.38.872906 +0530,
123,0,123,n,5.025123899999926,None,123,0,123,0,591.8872028000001,,,,,,,,,,,,,,,,,,,,,,,,,,,,,,,,,,,,,,,,,,,,,,,,,,591.8708879000001,591.8872028000001,592.4206288,592.3708477999999,592.4115838000002,592.4206288,592.4206288,592.4206288,597.4541322999999,Scenes\149b.jpg,mid,n,5.025123899999926,None,,,,,,,,00022,001,2025-11-11_05h14.33.217,MST_test,2024.2.2,60.00139203228071,2025-11-11 05h14.38.872906 +0530,
124,0,124,o,2.866313999999875,None,124,0,124,0,597.470397,,,,,,,,,,,,,,,,,,,,,,,,,,,,,,,,,,,,,,,,,,,,,,,,,,597.4542182999999,597.470397,597.9873649000001,597.9540695000001,597.9719553,597.9873649000001,597.9873649000001,597.9873649000001,600.8541163999998,Objects\045b.jpg,post,o,2.866313999999875,None,,,,,,,,00022,001,2025-11-11_05h14.33.217,MST_test,2024.2.2,60.00139203228071,2025-11-11 05h14.38.872906 +0530,
125,0,125,n,1.45617940000011,None,125,0,125,0,600.8703260000002,,,,,,,,,,,,,,,,,,,,,,,,,,,,,,,,,,,,,,,,,,,,,,,,,,600.8541918000001,600.8703260000002,601.3869414000001,601.3537952000001,601.3752828000002,601.3869414000001,601.3869414000001,601.3869414000001,602.8539753999999,Foils\101b.jpg,none,n,1.45617940000011,None,,,,,,,,00022,001,2025-11-11_05h14.33.217,MST_test,2024.2.2,60.00139203228071,2025-11-11 05h14.38.872906 +0530,
126,0,126,n,0.9920572000000902,None,126,0,126,0,602.8702785,,,,,,,,,,,,,,,,,,,,,,,,,,,,,,,,,,,,,,,,,,,,,,,,,,602.8540539999999,602.8702785,603.3869290000002,603.3537569999999,603.3691733,603.3869290000002,603.3869290000002,603.3869290000002,604.3871632999999,Objects\043b.jpg,pre,n,0.9920572000000902,None,,,,,,,,00022,001,2025-11-11_05h14.33.217,MST_test,2024.2.2,60.00139203228071,2025-11-11 05h14.38.872906 +0530,
127,0,127,o,4.6745428999997785,None,127,0,127,0,604.4036091000003,,,,,,,,,,,,,,,,,,,,,,,,,,,,,,,,,,,,,,,,,,,,,,,,,,604.3872328000002,604.4036091000003,604.9203901999999,604.8870965000001,604.8987153000003,604.9203901999999,604.9203901999999,604.9203901999999,609.6037773000003,Scenes\100a.jpg,pre,o,4.6745428999997785,None,,,,,,,,00022,001,2025-11-11_05h14.33.217,MST_test,2024.2.2,60.00139203228071,2025-11-11 05h14.38.872906 +0530,
128,0,128,s,1.5140754999997625,None,128,0,128,0,609.6201098000001,,,,,,,,,,,,,,,,,,,,,,,,,,,,,,,,,,,,,,,,,,,,,,,,,,609.6038576999999,609.6201098000001,610.1367654999999,610.1035872000002,610.1299564000001,610.1367654999999,610.1367654999999,610.1367654999999,611.6539766999999,Objects\024b.jpg,post,s,1.5140754999997625,None,,,,,,,,00022,001,2025-11-11_05h14.33.217,MST_test,2024.2.2,60.00139203228071,2025-11-11 05h14.38.872906 +0530,
129,0,129,n,1.3697612999999365,None,129,0,129,0,611.6700401000003,,,,,,,,,,,,,,,,,,,,,,,,,,,,,,,,,,,,,,,,,,,,,,,,,,611.6540574999999,611.6700401000003,612.1866923000002,612.1536646,612.1799952000001,612.1866923000002,612.1866923000002,612.1866923000002,613.5704530000003,Foils\073a.jpg,none,n,1.3697612999999365,None,,,,,,,,00022,001,2025-11-11_05h14.33.217,MST_test,2024.2.2,60.00139203228071,2025-11-11 05h14.38.872906 +0530,
130,0,130,o,1.2930732999998327,None,130,0,130,0,613.5866974,,,,,,,,,,,,,,,,,,,,,,,,,,,,,,,,,,,,,,,,,,,,,,,,,,613.5705384000003,613.5866974,614.1034248000001,614.0703289000003,614.0869395,614.1034248000001,614.1034248000001,614.1034248000001,615.4036691000001,Scenes\058a.jpg,mid,o,1.2930732999998327,None,,,,,,,,00022,001,2025-11-11_05h14.33.217,MST_test,2024.2.2,60.00139203228071,2025-11-11 05h14.38.872906 +0530,
131,0,131,o,1.8063480999999229,None,131,0,131,0,615.4199942999999,,,,,,,,,,,,,,,,,,,,,,,,,,,,,,,,,,,,,,,,,,,,,,,,,,615.4037490999999,615.4199942999999,615.9366448999999,615.9035936999999,615.9237825,615.9366448999999,615.9366448999999,615.9366448999999,617.7540293000002,Objects\127b.jpg,post,o,1.8063480999999229,None,,,,,,,,00022,001,2025-11-11_05h14.33.217,MST_test,2024.2.2,60.00139203228071,2025-11-11 05h14.38.872906 +0530,
132,0,132,o,1.9172396999997545,None,132,0,132,0,617.7706804,,,,,,,,,,,,,,,,,,,,,,,,,,,,,,,,,,,,,,,,,,,,,,,,,,617.7541193000002,617.7706804,618.2865500000003,618.2536183000002,618.2741163999999,618.2865500000003,618.2865500000003,618.2865500000003,620.2202639000002,Scenes\097b.jpg,mid,o,1.9172396999997545,None,,,,,,,,00022,001,2025-11-11_05h14.33.217,MST_test,2024.2.2,60.00139203228071,2025-11-11 05h14.38.872906 +0530,
133,0,133,o,1.0293667999999343,None,133,0,133,0,620.2365081000003,,,,,,,,,,,,,,,,,,,,,,,,,,,,,,,,,,,,,,,,,,,,,,,,,,620.2203395000001,620.2365081000003,620.7534190000001,620.7201123999998,620.7363564000002,620.7534190000001,620.7534190000001,620.7534190000001,621.7868162999998,Scenes\026a.jpg,mid,o,1.0293667999999343,None,,,,,,,,00022,001,2025-11-11_05h14.33.217,MST_test,2024.2.2,60.00139203228071,2025-11-11 05h14.38.872906 +0530,
134,0,134,s,2.3562065000000985,None,134,0,134,0,621.803183,,,,,,,,,,,,,,,,,,,,,,,,,,,,,,,,,,,,,,,,,,,,,,,,,,621.7869000000001,621.803183,622.3368267000001,622.2867224000001,622.3191937000001,622.3368267000001,622.3368267000001,622.3368267000001,624.7033953,Scenes\063b.jpg,mid,s,2.3562065000000985,None,,,,,,,,00022,001,2025-11-11_05h14.33.217,MST_test,2024.2.2,60.00139203228071,2025-11-11 05h14.38.872906 +0530,
135,0,135,n,1.781828300000143,None,135,0,135,0,624.7197682999999,,,,,,,,,,,,,,,,,,,,,,,,,,,,,,,,,,,,,,,,,,,,,,,,,,624.7034791000001,624.7197682999999,625.2367841,625.2032654,625.2217552000002,625.2367841,625.2367841,625.2367841,627.0201145000001,Scenes\119a.jpg,post,n,1.781828300000143,None,,,,,,,,00022,001,2025-11-11_05h14.33.217,MST_test,2024.2.2,60.00139203228071,2025-11-11 05h14.38.872906 +0530,
136,0,136,n,7.009961199999907,None,136,0,136,0,627.0363972,,,,,,,,,,,,,,,,,,,,,,,,,,,,,,,,,,,,,,,,,,,,,,,,,,627.0201980000002,627.0363972,627.5531850000002,627.5198780999999,627.5434292999998,627.5531850000002,627.5531850000002,627.5531850000002,634.5697746000001,Foils\scenes12.jpg,none,n,7.009961199999907,None,,,,,,,,00022,001,2025-11-11_05h14.33.217,MST_test,2024.2.2,60.00139203228071,2025-11-11 05h14.38.872906 +0530,
137,0,137,s,1.77251219999971,None,137,0,137,0,634.5862114000001,,,,,,,,,,,,,,,,,,,,,,,,,,,,,,,,,,,,,,,,,,,,,,,,,,634.5698465999999,634.5862114000001,635.1031134999998,635.0697074,635.0850109000003,635.1031134999998,635.1031134999998,635.1031134999998,636.8864431000002,Objects\140a.jpg,mid,s,1.77251219999971,None,,,,,,,,00022,001,2025-11-11_05h14.33.217,MST_test,2024.2.2,60.00139203228071,2025-11-11 05h14.38.872906 +0530,
138,0,138,o,3.6769083999997747,None,138,0,138,0,636.9028536000001,,,,,,,,,,,,,,,,,,,,,,,,,,,,,,,,,,,,,,,,,,,,,,,,,,636.8865180000003,636.9028536000001,637.4194845000002,637.386297,637.3994342000001,637.4194845000002,637.4194845000002,637.4194845000002,641.1032006,Scenes\094a.jpg,post,o,3.6769083999997747,None,,,,,,,,00022,001,2025-11-11_05h14.33.217,MST_test,2024.2.2,60.00139203228071,2025-11-11 05h14.38.872906 +0530,
139,0,139,o,1.432232699999986,None,139,0,139,0,641.1194046,,,,,,,,,,,,,,,,,,,,,,,,,,,,,,,,,,,,,,,,,,,,,,,,,,641.1032743999999,641.1194046,641.6193582999999,641.6028947999998,641.6124129999998,641.6193582999999,641.6193582999999,641.6193582999999,643.0530104,Objects\190a.jpg,mid,o,1.432232699999986,None,,,,,,,,00022,001,2025-11-11_05h14.33.217,MST_test,2024.2.2,60.00139203228071,2025-11-11 05h14.38.872906 +0530,
140,0,140,o,0.7438695000000735,None,140,0,140,0,643.0693178000001,,,,,,,,,,,,,,,,,,,,,,,,,,,,,,,,,,,,,,,,,,,,,,,,,,643.0530812000002,643.0693178000001,643.5693016999999,643.5528305000003,643.5639016,643.5693016999999,643.5693016999999,643.5693016999999,644.3197602,Objects\082a.jpg,post,o,0.7438695000000735,None,,,,,,,,00022,001,2025-11-11_05h14.33.217,MST_test,2024.2.2,60.00139203228071,2025-11-11 05h14.38.872906 +0530,
141,0,141,o,0.7720615000002908,None,141,0,141,0,644.3359928,,,,,,,,,,,,,,,,,,,,,,,,,,,,,,,,,,,,,,,,,,,,,,,,,,644.3198316000003,644.3359928,644.8526102000001,644.8194687,644.8474704,644.8526102000001,644.8526102000001,644.8526102000001,645.6363415000001,Objects\007b.jpg,post,o,0.7720615000002908,None,,,,,,,,00022,001,2025-11-11_05h14.33.217,MST_test,2024.2.2,60.00139203228071,2025-11-11 05h14.38.872906 +0530,
142,0,142,n,0.8843783999996049,None,142,0,142,0,645.6526266999999,,,,,,,,,,,,,,,,,,,,,,,,,,,,,,,,,,,,,,,,,,,,,,,,,,645.6364109000001,645.6526266999999,646.1692459999999,646.1360949999998,646.1629298000003,646.1692459999999,646.1692459999999,646.1692459999999,647.0696593000002,Foils\009a.jpg,none,n,0.8843783999996049,None,,,,,,,,00022,001,2025-11-11_05h14.33.217,MST_test,2024.2.2,60.00139203228071,2025-11-11 05h14.38.872906 +0530,
143,0,143,n,0.820878200000152,None,143,0,143,0,647.08592,,,,,,,,,,,,,,,,,,,,,,,,,,,,,,,,,,,,,,,,,,,,,,,,,,647.069735,647.08592,647.6026115,647.5693990999998,647.5964260999999,647.6026115,647.6026115,647.6026115,648.4363453999999,Foils\058a.jpg,none,n,0.820878200000152,None,,,,,,,,00022,001,2025-11-11_05h14.33.217,MST_test,2024.2.2,60.00139203228071,2025-11-11 05h14.38.872906 +0530,
144,0,144,o,1.5455434999998943,None,144,0,144,0,648.4525546999998,,,,,,,,,,,,,,,,,,,,,,,,,,,,,,,,,,,,,,,,,,,,,,,,,,648.4364226000002,648.4525546999998,648.9692166999998,648.9361045,648.9512998,648.9692166999998,648.9692166999998,648.9692166999998,650.5195147,Objects\170a.jpg,mid,o,1.5455434999998943,None,,,,,,,,00022,001,2025-11-11_05h14.33.217,MST_test,2024.2.2,60.00139203228071,2025-11-11 05h14.38.872906 +0530,
145,0,145,o,2.635207399999672,None,145,0,145,0,650.5358448000002,,,,,,,,,,,,,,,,,,,,,,,,,,,,,,,,,,,,,,,,,,,,,,,,,,650.5195945999999,650.5358448000002,651.0357981000002,651.0194391999999,651.0292573000002,651.0357981000002,651.0357981000002,651.0357981000002,653.6862139999998,Objects\143a.jpg,mid,o,2.635207399999672,None,,,,,,,,00022,001,2025-11-11_05h14.33.217,MST_test,2024.2.2,60.00139203228071,2025-11-11 05h14.38.872906 +0530,
146,0,146,s,1.2000191999995877,None,146,0,146,0,653.7024007999999,,,,,,,,,,,,,,,,,,,,,,,,,,,,,,,,,,,,,,,,,,,,,,,,,,653.6862959999999,653.7024007999999,654.2190607000002,654.1860231,654.1991011999999,654.2190607000002,654.2190607000002,654.2190607000002,655.4194744000001,Scenes\040a.jpg,pre,s,1.2000191999995877,None,,,,,,,,00022,001,2025-11-11_05h14.33.217,MST_test,2024.2.2,60.00139203228071,2025-11-11 05h14.38.872906 +0530,
147,0,147,o,1.7472090000001117,None,147,0,147,0,655.4357112000002,,,,,,,,,,,,,,,,,,,,,,,,,,,,,,,,,,,,,,,,,,,,,,,,,,655.4195549000001,655.4357112000002,655.9523560000002,655.9192406000002,655.9471911999999,655.9523560000002,655.9523560000002,655.9523560000002,657.7026696000003,Objects\063b.jpg,mid,o,1.7472090000001117,None,,,,,,,,00022,001,2025-11-11_05h14.33.217,MST_test,2024.2.2,60.00139203228071,2025-11-11 05h14.38.872906 +0530,
148,0,148,o,1.540805999999975,None,148,0,148,0,657.7190166999999,,,,,,,,,,,,,,,,,,,,,,,,,,,,,,,,,,,,,,,,,,,,,,,,,,657.7027453999999,657.7190166999999,658.2525307000001,658.2024793,658.232743,658.2525307000001,658.2525307000001,658.2525307000001,659.8026061,Scenes\087b.jpg,post,o,1.540805999999975,None,,,,,,,,00022,001,2025-11-11_05h14.33.217,MST_test,2024.2.2,60.00139203228071,2025-11-11 05h14.38.872906 +0530,
149,0,149,o,3.6730579999998554,None,149,0,149,0,659.8189631,,,,,,,,,,,,,,,,,,,,,,,,,,,,,,,,,,,,,,,,,,,,,,,,,,659.8026788000002,659.8189631,660.3520672,660.3025508999999,660.3457695000002,660.3520672,660.3520672,660.3520672,664.0358022,Scenes\192b.jpg,mid,o,3.6730579999998554,None,,,,,,,,00022,001,2025-11-11_05h14.33.217,MST_test,2024.2.2,60.00139203228071,2025-11-11 05h14.38.872906 +0530,
,,,,,,,,,,,,,,,,,,,,,,,,,,,,,,,,,,,,,,,,,,,,,,,,,,,,,,,,,,,,,,,,,,,,,,,,,,664.0358603,664.0522528000001,664.0522528000001,666.1027330000002,space,2.0415541999996094,None,00022,001,2025-11-11_05h14.33.217,MST_test,2024.2.2,60.00139203228071,2025-11-11 05h14.38.872906 +0530,
