Sl_no,image_path,thisN,thisTrialN,thisRepN,key_resp_5.keys,key_resp_7.keys,key_resp_7.rt,key_resp_7.duration,key_resp_5.rt,key_resp_5.duration,key_resp_9.keys,key_resp_8.keys,key_resp_8.rt,key_resp_8.duration,key_resp_9.rt,key_resp_9.duration,practice.thisRepN,practice.thisTrialN,practice.thisN,practice.thisIndex,trials.thisRepN,trials.thisTrialN,trials.thisN,trials.thisIndex,thisRow.t,notes,welcome_page.started,text.started,key_resp.started,welcome_page.stopped,key_resp.keys,key_resp.rt,key_resp.duration,instructions.started,ins.started,key_resp_2.started,instructions.stopped,key_resp_2.keys,key_resp_2.rt,key_resp_2.duration,instructions_2.started,text_10.started,key_resp_10.started,instructions_2.stopped,key_resp_10.keys,key_resp_10.rt,key_resp_10.duration,objects_only_instruction.started,text_3.started,key_resp_3.started,objects_only_instruction.stopped,key_resp_3.keys,key_resp_3.rt,key_resp_3.duration,ISI.started,text_4.started,text_4.stopped,ISI.stopped,practice_block.started,image.started,text_5.started,key_resp_5.started,practice_block.stopped,practice.key_resp_5.keys,indoor_outdoor.started,text_7.started,key_resp_7.started,indoor_outdoor.stopped,practice.key_resp_7.keys,practice.key_resp_7.rt,practice.key_resp_7.duration,practice.key_resp_5.rt,practice.key_resp_5.duration,image.stopped,text_5.stopped,key_resp_5.stopped,practice_to_main.started,text_2.started,key_resp_4.started,practice_to_main.stopped,key_resp_4.keys,key_resp_4.rt,key_resp_4.duration,objects.started,image_2.started,text_9.started,key_resp_9.started,objects.stopped,trials.key_resp_9.keys,encoding_task.started,text_8.started,key_resp_8.started,encoding_task.stopped,trials.key_resp_8.keys,trials.key_resp_8.rt,trials.key_resp_8.duration,trials.key_resp_9.rt,trials.key_resp_9.duration,end_experiment.started,text_6.started,key_resp_6.started,end_experiment.stopped,key_resp_6.keys,key_resp_6.rt,key_resp_6.duration,list_of_stimuli,encoding_task_accuracy,participant,session,date,expName,psychopyVersion,frameRate,expStart,
,,,,,,,,,,,,,,,,,,,,,,,,,,,0.006745199999841134,0.023332400000072084,0.023332400000072084,190.60441260000016,space,190.5684272999997,None,,,,,,,,,,,,,,,,,,,,,,,,,,,,,,,,,,,,,,,,,,,,,,,,,,,,,,,,,,,,,,,,,,,,,,,,,,,00024,001,2025-11-14_18h21.40.405,MST_task,2024.2.2,59.979546974485615,2025-11-14 18h21.45.466299 +0530,
,,,,,,,,,,,,,,,,,,,,,,,,,,,,,,,,,,190.60444970000026,190.6192019,190.6192019,219.51891320000004,space,28.89398919999985,None,,,,,,,,,,,,,,,,,,,,,,,,,,,,,,,,,,,,,,,,,,,,,,,,,,,,,,,,,,,,,,,,,,,,00024,001,2025-11-14_18h21.40.405,MST_task,2024.2.2,59.979546974485615,2025-11-14 18h21.45.466299 +0530,
,,,,,,,,,,,,,,,,,,,,,,,,,,,,,,,,,,,,,,,,,219.5189381,219.5352714999999,219.5352714999999,250.76829540000017,space,31.222463399999924,None,,,,,,,,,,,,,,,,,,,,,,,,,,,,,,,,,,,,,,,,,,,,,,,,,,,,,,,,,,,,,00024,001,2025-11-14_18h21.40.405,MST_task,2024.2.2,59.979546974485615,2025-11-14 18h21.45.466299 +0530,
,,,,,,,,,,,,,,,,,,,,,,,,,,,,,,,,,,,,,,,,,,,,,,,,250.76832779999995,250.78460219999988,250.78460219999988,274.08448750000025,space,23.291091199999755,None,,,,,,,,,,,,,,,,,,,,,,,,,,,,,,,,,,,,,,,,,,,,,,,,,,,,,,00024,001,2025-11-14_18h21.40.405,MST_task,2024.2.2,59.979546974485615,2025-11-14 18h21.45.466299 +0530,
2,practice_images/031a.jpg,0,0,0,None,f,0.5789881000000605,None,,,,,,,,,0,0,0,1,,,,,274.10077150000006,,,,,,,,,,,,,,,,,,,,,,,,,,,,,,274.08804009999994,274.10077150000006,274.61738379999997,274.5843175,274.60405149999997,274.61738379999997,274.61738379999997,274.61738379999997,277.6008096999999,None,277.6019489999999,277.6173414,277.6173414,278.2010814,f,0.5789881000000605,None,,,,,,,,,,,,,,,,,,,,,,,,,,,,,,,,,,,,,00024,001,2025-11-14_18h21.40.405,MST_task,2024.2.2,59.979546974485615,2025-11-14 18h21.45.466299 +0530,
10,practice_images/182a.jpg,1,1,0,f,None,,,1.3212748999999349,0.1702250000003005,,,,,,,0,1,1,9,,,,,278.21732770000017,,,,,,,,,,,,,,,,,,,,,,,,,,,,,,278.20116499999995,278.21732770000017,278.7339824999999,278.70086889999993,278.71354470000006,278.7339824999999,278.7339824999999,278.7339824999999,281.7172707,f,281.71731420000015,,,281.7173235,None,,,1.3212748999999349,0.1702250000003005,,,,,,,,,,,,,,,,,,,,,,,,,,,,,,,,,,,00024,001,2025-11-14_18h21.40.405,MST_task,2024.2.2,59.979546974485615,2025-11-14 18h21.45.466299 +0530,
4,practice_images/002b.jpg,2,2,0,f,None,,,1.4362990999998146,0.16507270000010976,,,,,,,0,2,2,3,,,,,281.73392509999985,,,,,,,,,,,,,,,,,,,,,,,,,,,,,,281.71737740000026,281.73392509999985,282.2505924000002,282.2174804000001,282.23173069999984,282.2505924000002,282.2505924000002,282.2505924000002,285.23386630000005,f,285.23391679999986,,,285.2339256,None,,,1.4362990999998146,0.16507270000010976,,,,,,,,,,,,,,,,,,,,,,,,,,,,,,,,,,,00024,001,2025-11-14_18h21.40.405,MST_task,2024.2.2,59.979546974485615,2025-11-14 18h21.45.466299 +0530,
5,practice_images/139a.jpg,3,3,0,None,f,18.874302100000023,None,,,,,,,,,0,3,3,4,,,,,285.25051900000017,,,,,,,,,,,,,,,,,,,,,,,,,,,,,,285.23398270000007,285.25051900000017,285.7671641000002,285.7340779000001,285.7464933000001,285.7671641000002,285.7671641000002,285.7671641000002,288.7504672,None,288.7504950000002,288.7671545000003,288.7671545000003,307.6504058999999,f,18.874302100000023,None,,,,,,,,,,,,,,,,,,,,,,,,,,,,,,,,,,,,,00024,001,2025-11-14_18h21.40.405,MST_task,2024.2.2,59.979546974485615,2025-11-14 18h21.45.466299 +0530,
3,practice_images/037a.jpg,4,4,0,None,f,20.256601500000215,None,,,,,,,,,0,4,4,2,,,,,307.6667179000001,,,,,,,,,,,,,,,,,,,,,,,,,,,,,,307.6504847000001,307.6667179000001,308.16665550000016,308.1502567000002,308.15753270000005,308.16665550000016,308.16665550000016,308.16665550000016,311.1501843000001,None,311.1502147000001,311.16663860000017,311.16663860000017,331.43317830000024,f,20.256601500000215,None,,,311.16663860000017,311.16663860000017,311.16663860000017,,,,,,,,,,,,,,,,,,,,,,,,,,,,,,,,00024,001,2025-11-14_18h21.40.405,MST_task,2024.2.2,59.979546974485615,2025-11-14 18h21.45.466299 +0530,
7,practice_images/166a.jpg,5,5,0,None,j,0.48881919999985257,None,,,,,,,,,0,5,5,6,,,,,331.44948520000025,,,,,,,,,,,,,,,,,,,,,,,,,,,,,,331.4332678999999,331.44948520000025,331.96615169999995,331.9331124999999,331.9581278999999,331.96615169999995,331.96615169999995,331.96615169999995,334.94949399999996,None,334.9510037,334.9660925000003,334.9660925000003,335.46636339999986,j,0.48881919999985257,None,,,,,,,,,,,,,,,,,,,,,,,,,,,,,,,,,,,,,00024,001,2025-11-14_18h21.40.405,MST_task,2024.2.2,59.979546974485615,2025-11-14 18h21.45.466299 +0530,
6,practice_images/158a.jpg,6,6,0,j,None,,,2.7721787999998924,0.16235520000009274,,,,,,,0,6,6,5,,,,,335.4827386000002,,,,,,,,,,,,,,,,,,,,,,,,,,,,,,335.4664292000002,335.4827386000002,335.9994350000002,335.9663350000001,335.9857907999999,335.9994350000002,335.9994350000002,335.9994350000002,338.9828213999999,j,338.9828636000002,,,338.98287329999994,None,,,2.7721787999998924,0.16235520000009274,,,,,,,,,,,,,,,,,,,,,,,,,,,,,,,,,,,00024,001,2025-11-14_18h21.40.405,MST_task,2024.2.2,59.979546974485615,2025-11-14 18h21.45.466299 +0530,
1,practice_images/013a.jpg,7,7,0,j,None,,,1.260218999999779,0.18951560000004974,,,,,,,0,7,7,0,,,,,338.9993592000001,,,,,,,,,,,,,,,,,,,,,,,,,,,,,,338.98293139999987,338.9993592000001,339.49939619999986,339.4829702000002,339.4896888000003,339.49939619999986,339.49939619999986,339.49939619999986,342.4828729000001,j,342.4829101,,,342.4829192000002,None,,,1.260218999999779,0.18951560000004974,342.4992854000002,342.4992854000002,342.4992854000002,,,,,,,,,,,,,,,,,,,,,,,,,,,,,,,,00024,001,2025-11-14_18h21.40.405,MST_task,2024.2.2,59.979546974485615,2025-11-14 18h21.45.466299 +0530,
9,practice_images/180a.jpg,8,8,0,j,None,,,2.042167000000063,0.16644320000023072,,,,,,,0,8,8,8,,,,,342.4992854000002,,,,,,,,,,,,,,,,,,,,,,,,,,,,,,342.48297589999993,342.4992854000002,342.9992772999999,342.9827427,342.98913600000014,342.9992772999999,342.9992772999999,342.9992772999999,345.9827226000002,j,345.9827537000001,,,345.9827626000001,None,,,2.042167000000063,0.16644320000023072,345.99921040000027,345.99921040000027,345.99921040000027,,,,,,,,,,,,,,,,,,,,,,,,,,,,,,,,00024,001,2025-11-14_18h21.40.405,MST_task,2024.2.2,59.979546974485615,2025-11-14 18h21.45.466299 +0530,
8,practice_images/178a.jpg,9,9,0,f,None,,,0.8617463000000498,0.13662620000013703,,,,,,,0,9,9,7,,,,,345.99921040000027,,,,,,,,,,,,,,,,,,,,,,,,,,,,,,345.9828185000001,345.99921040000027,346.5158713999999,346.4827673,346.4988475,346.5158713999999,346.5158713999999,346.5158713999999,349.4991749999999,f,349.4992209000002,,,349.4992295000002,None,,,0.8617463000000498,0.13662620000013703,,,,,,,,,,,,,,,,,,,,,,,,,,,,,,,,,,,00024,001,2025-11-14_18h21.40.405,MST_task,2024.2.2,59.979546974485615,2025-11-14 18h21.45.466299 +0530,
,,,,,,,,,,,,,,,,,,,,,,,,,,,,,,,,,,,,,,,,,,,,,,,,,,,,,,,,,,,,,,,,,,,,,,,,,,,,,349.49926760000017,349.51576879999993,349.51576879999993,395.4817502000001,space,45.94955489999984,None,,,,,,,,,,,,,,,,,,,,,,,,,00024,001,2025-11-14_18h21.40.405,MST_task,2024.2.2,59.979546974485615,2025-11-14 18h21.45.466299 +0530,
,Scenes\165a.jpg,0,0,0,,,,,,,None,j,0.1389499000001706,None,,,,,,,0,0,0,0,395.49813700000004,,,,,,,,,,,,,,,,,,,,,,,,,,,,,,395.48233789999995,395.49813700000004,396.0149599000001,395.9815871999999,,,,,,,,,,,,,,,,,,,,,,,,,,396.00408640000023,396.0149599000001,396.0149599000001,396.0149599000001,398.9981017,None,398.99925919999987,399.01473080000005,399.01473080000005,399.16494580000017,j,0.1389499000001706,None,,,,,,,,,,,,00024,001,2025-11-14_18h21.40.405,MST_task,2024.2.2,59.979546974485615,2025-11-14 18h21.45.466299 +0530,
,Scenes\154a.jpg,1,0,1,,,,,,,j,None,,,1.245125399999779,0.1445773000000372,,,,,1,0,1,0,399.18139980000024,,,,,,,,,,,,,,,,,,,,,,,,,,,,,,399.16501100000005,399.18139980000024,399.6980469,399.6648212,,,,,,,,,,,,,,,,,,,,,,,,,,399.6801596,399.6980469,399.6980469,399.6980469,402.6813674,j,402.6814061,,,402.68141650000007,None,,,1.245125399999779,0.1445773000000372,,,,,,,,,,00024,001,2025-11-14_18h21.40.405,MST_task,2024.2.2,59.979546974485615,2025-11-14 18h21.45.466299 +0530,
,Scenes\022a.jpg,2,0,2,,,,,,,j,None,,,0.8601557000001776,0.16602589999956763,,,,,2,0,2,0,402.6979918000002,,,,,,,,,,,,,,,,,,,,,,,,,,,,,,402.68149630000016,402.6979918000002,403.2149952,403.18160910000006,,,,,,,,,,,,,,,,,,,,,,,,,,403.1943363999999,403.2149952,403.2149952,403.2149952,406.19790580000017,j,406.19794120000006,,,406.19795109999995,None,,,0.8601557000001776,0.16602589999956763,,,,,,,,,,00024,001,2025-11-14_18h21.40.405,MST_task,2024.2.2,59.979546974485615,2025-11-14 18h21.45.466299 +0530,
,Scenes\167a.jpg,3,0,3,,,,,,,j,None,,,0.9033531000000039,0.18580999999994674,,,,,3,0,3,0,406.21460060000027,,,,,,,,,,,,,,,,,,,,,,,,,,,,,,406.19803679999995,406.21460060000027,,406.69802370000025,,,,,,,,,,,,,,,,,,,,,,,,,,406.7327666000001,406.7481508999999,406.7481508999999,406.7481508999999,409.7145770000002,j,409.7146115999999,,,409.7146204999999,None,,,0.9033531000000039,0.18580999999994674,,,,,,,,,,00024,001,2025-11-14_18h21.40.405,MST_task,2024.2.2,59.979546974485615,2025-11-14 18h21.45.466299 +0530,
,Scenes\026a.jpg,4,0,4,,,,,,,j,None,,,1.5734536999998454,0.1899438000000373,,,,,4,0,4,0,409.7311672000001,,,,,,,,,,,,,,,,,,,,,,,,,,,,,,409.7147049,409.7311672000001,410.2479745999999,410.2146216000001,,,,,,,,,,,,,,,,,,,,,,,,,,410.23763869999993,410.2479745999999,410.2479745999999,410.2479745999999,413.23109999999997,j,413.23113749999993,,,413.23114650000025,None,,,1.5734536999998454,0.1899438000000373,,,,,,,,,,00024,001,2025-11-14_18h21.40.405,MST_task,2024.2.2,59.979546974485615,2025-11-14 18h21.45.466299 +0530,
,Scenes\105a.jpg,5,0,5,,,,,,,j,None,,,0.9429357999997592,0.21011970000017755,,,,,5,0,5,0,413.24776340000017,,,,,,,,,,,,,,,,,,,,,,,,,,,,,,413.2312033000003,413.24776340000017,,413.73117809999985,,,,,,,,,,,,,,,,,,,,,,,,,,413.75748139999996,413.76462919999994,413.76462919999994,413.76462919999994,416.7478166000001,j,416.7478565000001,,,416.74786570000015,None,,,0.9429357999997592,0.21011970000017755,,,,,,,,,,00024,001,2025-11-14_18h21.40.405,MST_task,2024.2.2,59.979546974485615,2025-11-14 18h21.45.466299 +0530,
,Scenes\021a.jpg,6,0,6,,,,,,,j,None,,,1.0102256999998644,0.18766910000022108,,,,,6,0,6,0,416.76433510000015,,,,,,,,,,,,,,,,,,,,,,,,,,,,,,416.7479594000001,416.76433510000015,417.2809706000003,417.24793769999997,,,,,,,,,,,,,,,,,,,,,,,,,,417.26574819999996,417.2809706000003,417.2809706000003,417.2809706000003,420.26428080000005,j,420.26431619999994,,,420.26432620000014,None,,,1.0102256999998644,0.18766910000022108,,,,,,,,,,00024,001,2025-11-14_18h21.40.405,MST_task,2024.2.2,59.979546974485615,2025-11-14 18h21.45.466299 +0530,
,Objects\129a.jpg,7,0,7,,,,,,,f,None,,,1.3028723999996146,0.1942375000003267,,,,,7,0,7,0,420.29760669999996,,,,,,,,,,,,,,,,,,,,,,,,,,,,,,420.26438270000017,420.29760669999996,,420.78095680000024,,,,,,,,,,,,,,,,,,,,,,,,,,420.7991514,420.8144572000001,420.8144572000001,420.8144572000001,423.7808921999999,f,423.7829743000002,,,423.78298559999985,None,,,1.3028723999996146,0.1942375000003267,,,,,,,,,,00024,001,2025-11-14_18h21.40.405,MST_task,2024.2.2,59.979546974485615,2025-11-14 18h21.45.466299 +0530,
,Objects\116a.jpg,8,0,8,,,,,,,f,None,,,2.3571015999996234,0.13540150000017093,,,,,8,0,8,0,423.7975300000003,,,,,,,,,,,,,,,,,,,,,,,,,,,,,,423.7830769000002,423.7975300000003,424.31415860000016,424.2809685000002,,,,,,,,,,,,,,,,,,,,,,,,,,424.3074467000001,424.31415860000016,424.31415860000016,424.31415860000016,427.2974982999999,f,427.29753389999996,,,427.2975475000003,None,,,2.3571015999996234,0.13540150000017093,,,,,,,,,,00024,001,2025-11-14_18h21.40.405,MST_task,2024.2.2,59.979546974485615,2025-11-14 18h21.45.466299 +0530,
,Objects\006a.jpg,9,0,9,,,,,,,f,None,,,2.8651261999998496,None,,,,,9,0,9,0,427.31410430000005,,,,,,,,,,,,,,,,,,,,,,,,,,,,,,427.2976684999999,427.31410430000005,427.83074160000024,427.7976286000003,,,,,,,,,,,,,,,,,,,,,,,,,,427.81452070000023,427.83074160000024,427.83074160000024,427.83074160000024,430.8140585000001,f,430.8141055000001,,,430.81411609999986,None,,,2.8651261999998496,None,,,,,,,,,,00024,001,2025-11-14_18h21.40.405,MST_task,2024.2.2,59.979546974485615,2025-11-14 18h21.45.466299 +0530,
,Objects\026a.jpg,10,0,10,,,,,,,f,None,,,1.1455638000002182,0.12426129999994373,,,,,10,0,10,0,430.8307018999999,,,,,,,,,,,,,,,,,,,,,,,,,,,,,,430.8141746000001,430.8307018999999,431.3639957999999,431.31417120000015,,,,,,,,,,,,,,,,,,,,,,,,,,431.345542,431.3639957999999,431.3639957999999,431.3639957999999,434.33064360000026,f,434.3306781000001,,,434.3306877,None,,,1.1455638000002182,0.12426129999994373,,,,,,,,,,00024,001,2025-11-14_18h21.40.405,MST_task,2024.2.2,59.979546974485615,2025-11-14 18h21.45.466299 +0530,
,Objects\110a.jpg,11,0,11,,,,,,,None,j,0.827725399999963,None,,,,,,,11,0,11,0,434.3473041000002,,,,,,,,,,,,,,,,,,,,,,,,,,,,,,434.3307712999999,434.3473041000002,434.86391730000014,434.8308397999999,,,,,,,,,,,,,,,,,,,,,,,,,,434.8568015000001,434.86391730000014,434.86391730000014,434.86391730000014,437.8472608000002,None,437.84729160000006,437.8638807000002,437.8638807000002,438.69749920000004,j,0.827725399999963,None,,,,,,,,,,,,00024,001,2025-11-14_18h21.40.405,MST_task,2024.2.2,59.979546974485615,2025-11-14 18h21.45.466299 +0530,
,Objects\022a.jpg,12,0,12,,,,,,,f,None,,,1.729222099999788,0.13763819999985571,,,,,12,0,12,0,438.71390610000026,,,,,,,,,,,,,,,,,,,,,,,,,,,,,,438.6975815999999,438.71390610000026,439.23049579999997,439.19736420000027,,,,,,,,,,,,,,,,,,,,,,,,,,439.21458930000017,439.23049579999997,439.23049579999997,439.23049579999997,442.21382410000024,f,442.2138706999999,,,442.21388060000027,None,,,1.729222099999788,0.13763819999985571,,,,,,,,,,00024,001,2025-11-14_18h21.40.405,MST_task,2024.2.2,59.979546974485615,2025-11-14 18h21.45.466299 +0530,
,Objects\083a.jpg,13,0,13,,,,,,,f,None,,,1.2251609999998436,0.14513720000013564,,,,,13,0,13,0,442.2304234000003,,,,,,,,,,,,,,,,,,,,,,,,,,,,,,442.2139341000002,442.2304234000003,442.74708340000007,442.71401019999985,,,,,,,,,,,,,,,,,,,,,,,,,,442.73041680000006,442.74708340000007,442.74708340000007,442.74708340000007,445.7304509999999,f,445.7304884,,,445.73049820000006,None,,,1.2251609999998436,0.14513720000013564,,,,,,,,,,00024,001,2025-11-14_18h21.40.405,MST_task,2024.2.2,59.979546974485615,2025-11-14 18h21.45.466299 +0530,
,Scenes\076a.jpg,14,0,14,,,,,,,j,None,,,1.240570000000389,0.1938545999996677,,,,,14,0,14,0,445.7470464000003,,,,,,,,,,,,,,,,,,,,,,,,,,,,,,445.73055639999984,445.7470464000003,446.28066480000007,446.2305918000002,,,,,,,,,,,,,,,,,,,,,,,,,,446.2648757000002,446.28066480000007,446.28066480000007,446.28066480000007,449.2469750999999,j,449.2480826000001,,,449.2480937999999,None,,,1.240570000000389,0.1938545999996677,,,,,,,,,,00024,001,2025-11-14_18h21.40.405,MST_task,2024.2.2,59.979546974485615,2025-11-14 18h21.45.466299 +0530,
,Scenes\082a.jpg,15,0,15,,,,,,,None,j,0.6937981999999465,None,,,,,,,15,0,15,0,449.26362990000007,,,,,,,,,,,,,,,,,,,,,,,,,,,,,,449.24817889999986,449.26362990000007,449.7804543000002,449.7472479000003,,,,,,,,,,,,,,,,,,,,,,,,,,449.7667308,449.7804543000002,449.7804543000002,449.7804543000002,452.76370959999986,None,452.76374179999993,452.78023770000027,452.78023770000027,453.48048419999986,j,0.6937981999999465,None,,,,,,,,,,,,00024,001,2025-11-14_18h21.40.405,MST_task,2024.2.2,59.979546974485615,2025-11-14 18h21.45.466299 +0530,
,Scenes\081a.jpg,16,0,16,,,,,,,j,None,,,0.8945110000004206,0.12719419999984893,,,,,16,0,16,0,453.4968836000003,,,,,,,,,,,,,,,,,,,,,,,,,,,,,,453.48059509999985,453.4968836000003,454.01354649999985,453.9804726000002,,,,,,,,,,,,,,,,,,,,,,,,,,453.99389629999996,454.01354649999985,454.01354649999985,454.01354649999985,456.99684209999987,j,456.9968751000001,,,456.9968852000002,None,,,0.8945110000004206,0.12719419999984893,,,,,,,,,,00024,001,2025-11-14_18h21.40.405,MST_task,2024.2.2,59.979546974485615,2025-11-14 18h21.45.466299 +0530,
,Scenes\016a.jpg,17,0,17,,,,,,,j,None,,,0.6753365999998096,0.14209269999992102,,,,,17,0,17,0,457.0134828999999,,,,,,,,,,,,,,,,,,,,,,,,,,,,,,456.99696810000023,457.0134828999999,457.53049180000016,457.49705619999986,,,,,,,,,,,,,,,,,,,,,,,,,,457.51315590000013,457.53049180000016,457.53049180000016,457.53049180000016,460.5134452000002,j,460.5134806000001,,,460.5134903000003,None,,,0.6753365999998096,0.14209269999992102,,,,,,,,,,00024,001,2025-11-14_18h21.40.405,MST_task,2024.2.2,59.979546974485615,2025-11-14 18h21.45.466299 +0530,
,Scenes\045a.jpg,18,0,18,,,,,,,None,j,0.060739099999864266,None,,,,,,,18,0,18,0,460.5300777000002,,,,,,,,,,,,,,,,,,,,,,,,,,,,,,460.5135740999999,460.5300777000002,,461.0135623000001,,,,,,,,,,,,,,,,,,,,,,,,,,461.0355098,461.0469946000003,461.0469946000003,461.0469946000003,464.0299998999999,None,464.030033,464.0466486999999,464.0466486999999,464.1135787000003,j,0.060739099999864266,None,,,,,,,,,,,,00024,001,2025-11-14_18h21.40.405,MST_task,2024.2.2,59.979546974485615,2025-11-14 18h21.45.466299 +0530,
,Scenes\187a.jpg,19,0,19,,,,,,,j,None,,,1.2963948999999957,0.18427710000014486,,,,,19,0,19,0,464.1299938000002,,,,,,,,,,,,,,,,,,,,,,,,,,,,,,464.1136428,464.1299938000002,464.64665300000024,464.61360349999995,,,,,,,,,,,,,,,,,,,,,,,,,,464.6303379000001,464.64665300000024,464.64665300000024,464.64665300000024,467.6299119,j,467.6299478000001,,,467.6299576000001,None,,,1.2963948999999957,0.18427710000014486,,,,,,,,,,00024,001,2025-11-14_18h21.40.405,MST_task,2024.2.2,59.979546974485615,2025-11-14 18h21.45.466299 +0530,
,Scenes\037a.jpg,20,0,20,,,,,,,j,None,,,2.2155901000000995,0.11221999999997934,,,,,20,0,20,0,467.64659029999984,,,,,,,,,,,,,,,,,,,,,,,,,,,,,,467.63001399999985,467.64659029999984,468.16347300000007,468.13004739999997,,,,,,,,,,,,,,,,,,,,,,,,,,468.15002540000023,468.16347300000007,468.16347300000007,468.16347300000007,471.1465382000001,j,471.1465836000002,,,471.14659329999995,None,,,2.2155901000000995,0.11221999999997934,,,,,,,,,,00024,001,2025-11-14_18h21.40.405,MST_task,2024.2.2,59.979546974485615,2025-11-14 18h21.45.466299 +0530,
,Objects\068a.jpg,21,0,21,,,,,,,f,None,,,0.9741128000000572,0.17438730000003488,,,,,21,0,21,0,471.16313290000016,,,,,,,,,,,,,,,,,,,,,,,,,,,,,,471.1466469000002,471.16313290000016,471.67984049999995,471.6467004000001,,,,,,,,,,,,,,,,,,,,,,,,,,471.66465610000023,471.67984049999995,471.67984049999995,471.67984049999995,474.66313260000015,f,474.66458710000006,,,474.66459780000014,None,,,0.9741128000000572,0.17438730000003488,,,,,,,,,,00024,001,2025-11-14_18h21.40.405,MST_task,2024.2.2,59.979546974485615,2025-11-14 18h21.45.466299 +0530,
,Objects\141a.jpg,22,0,22,,,,,,,j,None,,,2.375356699999884,0.16943140000012136,,,,,22,0,22,0,474.6797329000001,,,,,,,,,,,,,,,,,,,,,,,,,,,,,,474.66465100000005,474.6797329000001,475.19638269999996,475.1633590000001,,,,,,,,,,,,,,,,,,,,,,,,,,475.19130140000016,475.19638269999996,475.19638269999996,475.19638269999996,478.17979879999984,j,478.1798315000001,,,478.17984019999994,None,,,2.375356699999884,0.16943140000012136,,,,,,,,,,00024,001,2025-11-14_18h21.40.405,MST_task,2024.2.2,59.979546974485615,2025-11-14 18h21.45.466299 +0530,
,Objects\167a.jpg,23,0,23,,,,,,,None,f,0.22094400000014502,None,,,,,,,23,0,23,0,478.19635530000005,,,,,,,,,,,,,,,,,,,,,,,,,,,,,,478.17989220000027,478.19635530000005,478.72969109999985,478.67987630000016,,,,,,,,,,,,,,,,,,,,,,,,,,478.7123197000001,478.72969109999985,478.72969109999985,478.72969109999985,481.6963052000001,None,481.69633490000024,481.7129467,481.7129467,481.9466335000002,f,0.22094400000014502,None,,,,,,,,,,,,00024,001,2025-11-14_18h21.40.405,MST_task,2024.2.2,59.979546974485615,2025-11-14 18h21.45.466299 +0530,
,Objects\092a.jpg,24,0,24,,,,,,,f,None,,,1.6201958999999988,0.18183359999966342,,,,,24,0,24,0,481.9629460000001,,,,,,,,,,,,,,,,,,,,,,,,,,,,,,481.94669010000007,481.9629460000001,482.4796225,482.44661529999985,,,,,,,,,,,,,,,,,,,,,,,,,,482.4621511,482.4796225,482.4796225,482.4796225,485.46299069999986,f,485.4630280000001,,,485.4630384000002,None,,,1.6201958999999988,0.18183359999966342,,,,,,,,,,00024,001,2025-11-14_18h21.40.405,MST_task,2024.2.2,59.979546974485615,2025-11-14 18h21.45.466299 +0530,
,Objects\159a.jpg,25,0,25,,,,,,,f,None,,,0.9448097999998026,0.14993760000015754,,,,,25,0,25,0,485.4795276,,,,,,,,,,,,,,,,,,,,,,,,,,,,,,485.46312690000013,485.4795276,485.99614539999993,485.9631138,,,,,,,,,,,,,,,,,,,,,,,,,,485.9791903,485.99614539999993,485.99614539999993,485.99614539999993,488.97948640000004,f,488.97951999999987,,,488.97953000000007,None,,,0.9448097999998026,0.14993760000015754,,,,,,,,,,00024,001,2025-11-14_18h21.40.405,MST_task,2024.2.2,59.979546974485615,2025-11-14 18h21.45.466299 +0530,
,Objects\134a.jpg,26,0,26,,,,,,,j,None,,,1.3500710999996954,0.2060687000002872,,,,,26,0,26,0,488.9960802999999,,,,,,,,,,,,,,,,,,,,,,,,,,,,,,488.97960760000024,488.9960802999999,,489.4796308,,,,,,,,,,,,,,,,,,,,,,,,,,489.51177670000015,489.5294987000002,489.5294987000002,489.5294987000002,492.4962135999999,j,492.49624919999997,,,492.4962584,None,,,1.3500710999996954,0.2060687000002872,,,,,,,,,,00024,001,2025-11-14_18h21.40.405,MST_task,2024.2.2,59.979546974485615,2025-11-14 18h21.45.466299 +0530,
,Objects\004a.jpg,27,0,27,,,,,,,j,None,,,2.0085650000000896,0.18653760000006514,,,,,27,0,27,0,492.51277170000003,,,,,,,,,,,,,,,,,,,,,,,,,,,,,,492.49635190000026,492.51277170000003,493.02937569999995,492.9962759,,,,,,,,,,,,,,,,,,,,,,,,,,493.02547719999984,493.02937569999995,493.02937569999995,493.02937569999995,496.0127038999999,j,496.01274460000013,,,496.01275510000005,None,,,2.0085650000000896,0.18653760000006514,,,,,,,,,,00024,001,2025-11-14_18h21.40.405,MST_task,2024.2.2,59.979546974485615,2025-11-14 18h21.45.466299 +0530,
,Scenes\035a.jpg,28,0,28,,,,,,,None,j,0.23592220000000452,None,,,,,,,28,0,28,0,496.029305,,,,,,,,,,,,,,,,,,,,,,,,,,,,,,496.0128175,496.029305,496.54595270000027,496.5127447,,,,,,,,,,,,,,,,,,,,,,,,,,496.5331676999999,496.54595270000027,496.54595270000027,496.54595270000027,499.52933410000014,None,499.5304550000001,499.54595659999995,499.54595659999995,499.7962201999999,j,0.23592220000000452,None,,,,,,,,,,,,00024,001,2025-11-14_18h21.40.405,MST_task,2024.2.2,59.979546974485615,2025-11-14 18h21.45.466299 +0530,
,Scenes\150a.jpg,29,0,29,,,,,,,j,None,,,1.1318641999996544,0.1448155000002771,,,,,29,0,29,0,499.81260569999995,,,,,,,,,,,,,,,,,,,,,,,,,,,,,,499.79628589999993,499.81260569999995,500.3293453000001,500.29608929999995,,,,,,,,,,,,,,,,,,,,,,,,,,500.3127328999999,500.3293453000001,500.3293453000001,500.3293453000001,503.3127351000003,j,503.3127706999999,,,503.3127813000001,None,,,1.1318641999996544,0.1448155000002771,,,,,,,,,,00024,001,2025-11-14_18h21.40.405,MST_task,2024.2.2,59.979546974485615,2025-11-14 18h21.45.466299 +0530,
,Scenes\010a.jpg,30,0,30,,,,,,,j,None,,,0.832383800000116,0.14902170000004844,,,,,30,0,30,0,503.3292045000003,,,,,,,,,,,,,,,,,,,,,,,,,,,,,,503.3128630000001,503.3292045000003,503.8458215999999,503.8127308000003,,,,,,,,,,,,,,,,,,,,,,,,,,503.8316506000001,503.8458215999999,503.8458215999999,503.8458215999999,506.8291610000001,j,506.8291984000002,,,506.82920820000027,None,,,0.832383800000116,0.14902170000004844,,,,,,,,,,00024,001,2025-11-14_18h21.40.405,MST_task,2024.2.2,59.979546974485615,2025-11-14 18h21.45.466299 +0530,
,Scenes\017a.jpg,31,0,31,,,,,,,None,f,0.04653939999980139,None,,,,,,,31,0,31,0,506.84577709999985,,,,,,,,,,,,,,,,,,,,,,,,,,,,,,506.82932170000004,506.84577709999985,507.3627216,507.3293423,,,,,,,,,,,,,,,,,,,,,,,,,,507.3497790000001,507.3627216,507.3627216,507.3627216,510.3457447999999,None,510.34577560000025,510.36246389999997,510.36246389999997,510.41268230000014,f,0.04653939999980139,None,,,,,,,,,,,,00024,001,2025-11-14_18h21.40.405,MST_task,2024.2.2,59.979546974485615,2025-11-14 18h21.45.466299 +0530,
,Scenes\024a.jpg,32,0,32,,,,,,,j,None,,,1.4460543000000143,0.14550839999992604,,,,,32,0,32,0,510.42905210000026,,,,,,,,,,,,,,,,,,,,,,,,,,,,,,510.4127699999999,510.42905210000026,510.9458319999999,510.91263579999986,,,,,,,,,,,,,,,,,,,,,,,,,,510.9292125000002,510.9458319999999,510.9458319999999,510.9458319999999,513.9290438000003,j,513.9290856000002,,,513.9290959999998,None,,,1.4460543000000143,0.14550839999992604,,,,,,,,,,00024,001,2025-11-14_18h21.40.405,MST_task,2024.2.2,59.979546974485615,2025-11-14 18h21.45.466299 +0530,
,Scenes\074a.jpg,33,0,33,,,,,,,j,None,,,0.8073254000000816,0.15394689999993716,,,,,33,0,33,0,513.9456295999998,,,,,,,,,,,,,,,,,,,,,,,,,,,,,,513.9291824000002,513.9456295999998,514.4623016,514.4290943000001,,,,,,,,,,,,,,,,,,,,,,,,,,514.4536997,514.4623016,514.4623016,514.4623016,517.4455982,j,517.4456333000003,,,517.4456430999999,None,,,0.8073254000000816,0.15394689999993716,,,,,,,,,,00024,001,2025-11-14_18h21.40.405,MST_task,2024.2.2,59.979546974485615,2025-11-14 18h21.45.466299 +0530,
,Scenes\137a.jpg,34,0,34,,,,,,,j,None,,,0.7883920999997827,0.13324510000029477,,,,,34,0,34,0,517.4622614,,,,,,,,,,,,,,,,,,,,,,,,,,,,,,517.4457262999999,517.4622614,517.9791324000003,517.9456872999999,,,,,,,,,,,,,,,,,,,,,,,,,,517.9606429,517.9791324000003,517.9791324000003,517.9791324000003,520.9621959000001,j,520.9622334000001,,,520.9622431000003,None,,,0.7883920999997827,0.13324510000029477,,,,,,,,,,00024,001,2025-11-14_18h21.40.405,MST_task,2024.2.2,59.979546974485615,2025-11-14 18h21.45.466299 +0530,
,Objects\151a.jpg,35,0,35,,,,,,,f,None,,,1.7360066999999617,0.13478600000007646,,,,,35,0,35,0,520.9788073,,,,,,,,,,,,,,,,,,,,,,,,,,,,,,520.9623222,520.9788073,521.4958133,521.4623901,,,,,,,,,,,,,,,,,,,,,,,,,,521.4787813000003,521.4958133,521.4958133,521.4958133,524.4788616999999,f,524.4804450000001,,,524.4804568,None,,,1.7360066999999617,0.13478600000007646,,,,,,,,,,00024,001,2025-11-14_18h21.40.405,MST_task,2024.2.2,59.979546974485615,2025-11-14 18h21.45.466299 +0530,
,Objects\168a.jpg,36,0,36,,,,,,,None,f,0.2560020999999324,None,,,,,,,36,0,36,0,524.4954189,,,,,,,,,,,,,,,,,,,,,,,,,,,,,,524.4805169000001,524.4954189,525.0287309999999,524.9789872000001,,,,,,,,,,,,,,,,,,,,,,,,,,525.0206880999999,525.0287309999999,525.0287309999999,525.0287309999999,527.9954418000002,None,527.9954726000001,528.0120695,528.0120695,528.2789674999999,f,0.2560020999999324,None,,,,,,,,,,,,00024,001,2025-11-14_18h21.40.405,MST_task,2024.2.2,59.979546974485615,2025-11-14 18h21.45.466299 +0530,
,Objects\107a.jpg,37,0,37,,,,,,,j,None,,,0.8954261000003498,0.1486984999996821,,,,,37,0,37,0,528.2953588,,,,,,,,,,,,,,,,,,,,,,,,,,,,,,528.2790559999999,528.2953588,528.8119907999999,528.7788685999999,,,,,,,,,,,,,,,,,,,,,,,,,,528.8032188000002,528.8119907999999,528.8119907999999,528.8119907999999,531.7953400000001,j,531.7953766999999,,,531.7953870000001,None,,,0.8954261000003498,0.1486984999996821,,,,,,,,,,00024,001,2025-11-14_18h21.40.405,MST_task,2024.2.2,59.979546974485615,2025-11-14 18h21.45.466299 +0530,
,Objects\011a.jpg,38,0,38,,,,,,,f,None,,,0.7566288000002714,0.15049550000003364,,,,,38,0,38,0,531.8118678000001,,,,,,,,,,,,,,,,,,,,,,,,,,,,,,531.7954760000002,531.8118678000001,532.3285156000002,532.2954115000002,,,,,,,,,,,,,,,,,,,,,,,,,,532.3235078000002,532.3285156000002,532.3285156000002,532.3285156000002,535.3118236999999,f,535.3118583999999,,,535.3118684000001,None,,,0.7566288000002714,0.15049550000003364,,,,,,,,,,00024,001,2025-11-14_18h21.40.405,MST_task,2024.2.2,59.979546974485615,2025-11-14 18h21.45.466299 +0530,
,Objects\024a.jpg,39,0,39,,,,,,,f,None,,,0.8866155999999137,0.1535521000000699,,,,,39,0,39,0,535.3284515,,,,,,,,,,,,,,,,,,,,,,,,,,,,,,535.3119249000001,535.3284515,535.8449452,535.8120199999998,,,,,,,,,,,,,,,,,,,,,,,,,,535.8414128,535.8449452,535.8449452,535.8449452,538.8284162,f,538.8284530999999,,,538.8284633000003,None,,,0.8866155999999137,0.1535521000000699,,,,,,,,,,00024,001,2025-11-14_18h21.40.405,MST_task,2024.2.2,59.979546974485615,2025-11-14 18h21.45.466299 +0530,
,Objects\146a.jpg,40,0,40,,,,,,,None,j,0.04966500000000451,None,,,,,,,40,0,40,0,538.8450492000002,,,,,,,,,,,,,,,,,,,,,,,,,,,,,,538.8285476000001,538.8450492000002,539.3617059000003,539.3285879,,,,,,,,,,,,,,,,,,,,,,,,,,539.3440181000001,539.3617059000003,539.3617059000003,539.3617059000003,542.3451462000003,None,542.3451791000002,542.3616378000002,542.3616378000002,542.4121465000003,j,0.04966500000000451,None,,,,,,,,,,,,00024,001,2025-11-14_18h21.40.405,MST_task,2024.2.2,59.979546974485615,2025-11-14 18h21.45.466299 +0530,
,Objects\094a.jpg,41,0,41,,,,,,,f,None,,,1.4389808999999332,0.1543485000001965,,,,,41,0,41,0,542.4283071,,,,,,,,,,,,,,,,,,,,,,,,,,,,,,542.4122062000001,542.4283071,542.9449216000003,542.9118957000001,,,,,,,,,,,,,,,,,,,,,,,,,,542.9379962000003,542.9449216000003,542.9449216000003,542.9449216000003,545.9283834000003,f,545.9284292000002,,,545.9284394000001,None,,,1.4389808999999332,0.1543485000001965,,,,,,,,,,00024,001,2025-11-14_18h21.40.405,MST_task,2024.2.2,59.979546974485615,2025-11-14 18h21.45.466299 +0530,
,Scenes\077a.jpg,42,0,42,,,,,,,j,None,,,1.5601832999996077,0.1655998000001091,,,,,42,0,42,0,545.9448944000001,,,,,,,,,,,,,,,,,,,,,,,,,,,,,,545.9285299000003,545.9448944000001,546.4618042000002,546.4283854999999,,,,,,,,,,,,,,,,,,,,,,,,,,546.4549711,546.4618042000002,546.4618042000002,546.4618042000002,549.4449685,j,549.4461314,,,549.4461428,None,,,1.5601832999996077,0.1655998000001091,,,,,,,,,,00024,001,2025-11-14_18h21.40.405,MST_task,2024.2.2,59.979546974485615,2025-11-14 18h21.45.466299 +0530,
,Scenes\116a.jpg,43,0,43,,,,,,,j,None,,,1.1055740000001606,0.1544392999999218,,,,,43,0,43,0,549.4614853000003,,,,,,,,,,,,,,,,,,,,,,,,,,,,,,549.4462001000002,549.4614853000003,549.9781281999999,549.9450580000002,,,,,,,,,,,,,,,,,,,,,,,,,,549.9602358000002,549.9781281999999,549.9781281999999,549.9781281999999,552.9615650999999,j,552.9616048000003,,,552.9616145,None,,,1.1055740000001606,0.1544392999999218,,,,,,,,,,00024,001,2025-11-14_18h21.40.405,MST_task,2024.2.2,59.979546974485615,2025-11-14 18h21.45.466299 +0530,
,Scenes\019a.jpg,44,0,44,,,,,,,f,None,,,2.116001700000197,0.19105219999983092,,,,,44,0,44,0,552.9780602000001,,,,,,,,,,,,,,,,,,,,,,,,,,,,,,552.9617045999998,552.9780602000001,553.5113599000001,553.4616507999999,,,,,,,,,,,,,,,,,,,,,,,,,,553.4904471,553.5113599000001,553.5113599000001,553.5113599000001,556.477993,f,556.4780261999999,,,556.4780355000003,None,,,2.116001700000197,0.19105219999983092,,,,,,,,,,00024,001,2025-11-14_18h21.40.405,MST_task,2024.2.2,59.979546974485615,2025-11-14 18h21.45.466299 +0530,
,Scenes\126a.jpg,45,0,45,,,,,,,j,None,,,0.8799933999998757,0.16633860000001732,,,,,45,0,45,0,556.4946651999999,,,,,,,,,,,,,,,,,,,,,,,,,,,,,,556.4780906000001,556.4946651999999,557.0113369000001,556.9782071,,,,,,,,,,,,,,,,,,,,,,,,,,556.9962080999999,557.0113369000001,557.0113369000001,557.0113369000001,559.9947566999999,j,559.9948101999998,,,559.9948319,None,,,0.8799933999998757,0.16633860000001732,,,,,,,,,,00024,001,2025-11-14_18h21.40.405,MST_task,2024.2.2,59.979546974485615,2025-11-14 18h21.45.466299 +0530,
,Scenes\181a.jpg,46,0,46,,,,,,,f,None,,,1.251160400000117,0.16983459999983097,,,,,46,0,46,0,560.0113142,,,,,,,,,,,,,,,,,,,,,,,,,,,,,,559.9949443999999,560.0113142,560.5445985000001,560.4948353,,,,,,,,,,,,,,,,,,,,,,,,,,560.5236780999999,560.5445985000001,560.5445985000001,560.5445985000001,563.5112139000003,f,563.5112514000002,,,563.5112609000003,None,,,1.251160400000117,0.16983459999983097,,,,,,,,,,00024,001,2025-11-14_18h21.40.405,MST_task,2024.2.2,59.979546974485615,2025-11-14 18h21.45.466299 +0530,
,Scenes\063a.jpg,47,0,47,,,,,,,j,None,,,0.9908531999999468,0.169375900000432,,,,,47,0,47,0,563.5278097999999,,,,,,,,,,,,,,,,,,,,,,,,,,,,,,563.5113172000001,563.5278097999999,564.0611428000002,564.0114073,,,,,,,,,,,,,,,,,,,,,,,,,,564.0409279,564.0611428000002,564.0611428000002,564.0611428000002,567.027877,j,567.0279159000002,,,567.0279257000002,None,,,0.9908531999999468,0.169375900000432,,,,,,,,,,00024,001,2025-11-14_18h21.40.405,MST_task,2024.2.2,59.979546974485615,2025-11-14 18h21.45.466299 +0530,
,Scenes\138a.jpg,48,0,48,,,,,,,j,None,,,0.9427470999999059,0.1614052999998421,,,,,48,0,48,0,567.0444453,,,,,,,,,,,,,,,,,,,,,,,,,,,,,,567.0280164000001,567.0444453,567.5610766,567.527916,,,,,,,,,,,,,,,,,,,,,,,,,,567.5408322000003,567.5610766,567.5610766,567.5610766,570.5445296000003,j,570.5445656000002,,,570.5445754000002,None,,,0.9427470999999059,0.1614052999998421,,,,,,,,,,00024,001,2025-11-14_18h21.40.405,MST_task,2024.2.2,59.979546974485615,2025-11-14 18h21.45.466299 +0530,
,Objects\028a.jpg,49,0,49,,,,,,,j,None,,,1.9055459999999584,0.14926800000012008,,,,,49,0,49,0,570.5610691000002,,,,,,,,,,,,,,,,,,,,,,,,,,,,,,570.5446630000001,570.5610691000002,571.0943354999999,571.0446025000001,,,,,,,,,,,,,,,,,,,,,,,,,,571.0757107,571.0943354999999,571.0943354999999,571.0943354999999,574.0609866,j,574.0624029999999,,,574.0624143999999,None,,,1.9055459999999584,0.14926800000012008,,,,,,,,,,00024,001,2025-11-14_18h21.40.405,MST_task,2024.2.2,59.979546974485615,2025-11-14 18h21.45.466299 +0530,
,Objects\052a.jpg,50,0,50,,,,,,,f,None,,,0.8833973999999216,0.1496287999998458,,,,,50,0,50,0,574.0775910000002,,,,,,,,,,,,,,,,,,,,,,,,,,,,,,574.0624963999999,574.0775910000002,574.5942445000001,574.5611285999998,,,,,,,,,,,,,,,,,,,,,,,,,,574.5903581000002,574.5942445000001,574.5942445000001,574.5942445000001,577.5776971,f,577.577734,,,577.5777441,None,,,0.8833973999999216,0.1496287999998458,,,,,,,,,,00024,001,2025-11-14_18h21.40.405,MST_task,2024.2.2,59.979546974485615,2025-11-14 18h21.45.466299 +0530,
,Objects\122a.jpg,51,0,51,,,,,,,f,None,,,1.9887553000003209,0.11178010000003269,,,,,51,0,51,0,577.5942074,,,,,,,,,,,,,,,,,,,,,,,,,,,,,,577.5778009,577.5942074,578.1109105,578.0778055000001,,,,,,,,,,,,,,,,,,,,,,,,,,578.0932578000002,578.1109105,578.1109105,578.1109105,581.0941398999998,f,581.0941781000001,,,581.0941871,None,,,1.9887553000003209,0.11178010000003269,,,,,,,,,,00024,001,2025-11-14_18h21.40.405,MST_task,2024.2.2,59.979546974485615,2025-11-14 18h21.45.466299 +0530,
,Objects\072a.jpg,52,0,52,,,,,,,f,None,,,0.7853442999999061,0.13419210000029125,,,,,52,0,52,0,581.1108004000002,,,,,,,,,,,,,,,,,,,,,,,,,,,,,,581.0942416000003,581.1108004000002,581.6440791999999,581.5943265999999,,,,,,,,,,,,,,,,,,,,,,,,,,581.6245128,581.6440791999999,581.6440791999999,581.6440791999999,584.6107237000001,f,584.6107594999999,,,584.6107694000002,None,,,0.7853442999999061,0.13419210000029125,,,,,,,,,,00024,001,2025-11-14_18h21.40.405,MST_task,2024.2.2,59.979546974485615,2025-11-14 18h21.45.466299 +0530,
,Objects\111a.jpg,53,0,53,,,,,,,j,None,,,1.0918267000001833,0.1577821999999287,,,,,53,0,53,0,584.6273824,,,,,,,,,,,,,,,,,,,,,,,,,,,,,,584.6108276999998,584.6273824,585.1440081000001,585.1109354999999,,,,,,,,,,,,,,,,,,,,,,,,,,585.1320955000001,585.1440081000001,585.1440081000001,585.1440081000001,588.1273817000001,j,588.1274182000002,,,588.1274288,None,,,1.0918267000001833,0.1577821999999287,,,,,,,,,,00024,001,2025-11-14_18h21.40.405,MST_task,2024.2.2,59.979546974485615,2025-11-14 18h21.45.466299 +0530,
,Objects\118a.jpg,54,0,54,,,,,,,f,None,,,2.089296600000125,0.15383870000005118,,,,,54,0,54,0,588.1439960000002,,,,,,,,,,,,,,,,,,,,,,,,,,,,,,588.1275300000002,588.1439960000002,588.6607147,588.6275802999999,,,,,,,,,,,,,,,,,,,,,,,,,,588.6482369999999,588.6607147,588.6607147,588.6607147,591.6439267000001,f,591.6439602,,,591.6439697999999,None,,,2.089296600000125,0.15383870000005118,,,,,,,,,,00024,001,2025-11-14_18h21.40.405,MST_task,2024.2.2,59.979546974485615,2025-11-14 18h21.45.466299 +0530,
,Objects\059a.jpg,55,0,55,,,,,,,j,None,,,1.7344892000000982,0.12230369999997492,,,,,55,0,55,0,591.6605494999999,,,,,,,,,,,,,,,,,,,,,,,,,,,,,,591.6440238,591.6605494999999,592.1771850999999,592.1441,,,,,,,,,,,,,,,,,,,,,,,,,,592.1603558000002,592.1771850999999,592.1771850999999,592.1771850999999,595.1605299000003,j,595.1605643000003,,,595.1605746,None,,,1.7344892000000982,0.12230369999997492,,,,,,,,,,00024,001,2025-11-14_18h21.40.405,MST_task,2024.2.2,59.979546974485615,2025-11-14 18h21.45.466299 +0530,
,Scenes\131a.jpg,56,0,56,,,,,,,j,None,,,0.7027524000000085,0.14474969999992027,,,,,56,0,56,0,595.1771232000001,,,,,,,,,,,,,,,,,,,,,,,,,,,,,,595.1606631,595.1771232000001,595.6941095000002,595.6606941999999,,,,,,,,,,,,,,,,,,,,,,,,,,595.6790799999999,595.6941095000002,595.6941095000002,595.6941095000002,598.6770873999999,j,598.6782822999999,,,598.6782931000002,None,,,0.7027524000000085,0.14474969999992027,,,,,,,,,,00024,001,2025-11-14_18h21.40.405,MST_task,2024.2.2,59.979546974485615,2025-11-14 18h21.45.466299 +0530,
,Scenes\147a.jpg,57,0,57,,,,,,,j,None,,,0.9511184999996658,0.13831710000022213,,,,,57,0,57,0,598.6937395999998,,,,,,,,,,,,,,,,,,,,,,,,,,,,,,598.6783479999999,598.6937395999998,599.2104046,599.1772163999999,,,,,,,,,,,,,,,,,,,,,,,,,,599.1922319999999,599.2104046,599.2104046,599.2104046,602.1937375000002,j,602.1937800000001,,,602.1937903000003,None,,,0.9511184999996658,0.13831710000022213,,,,,,,,,,00024,001,2025-11-14_18h21.40.405,MST_task,2024.2.2,59.979546974485615,2025-11-14 18h21.45.466299 +0530,
,Scenes\085a.jpg,58,0,58,,,,,,,j,None,,,0.6216011999999864,0.12825399999974252,,,,,58,0,58,0,602.2103382,,,,,,,,,,,,,,,,,,,,,,,,,,,,,,602.1938887000001,602.2103382,602.7436657000003,602.6939474000001,,,,,,,,,,,,,,,,,,,,,,,,,,602.7237303000002,602.7436657000003,602.7436657000003,602.7436657000003,605.7102903999998,j,605.7103213999999,,,605.7103308999999,None,,,0.6216011999999864,0.12825399999974252,,,,,,,,,,00024,001,2025-11-14_18h21.40.405,MST_task,2024.2.2,59.979546974485615,2025-11-14 18h21.45.466299 +0530,
,Scenes\025a.jpg,59,0,59,,,,,,,j,None,,,0.6371180999999524,0.1423760000002403,,,,,59,0,59,0,605.7269396000002,,,,,,,,,,,,,,,,,,,,,,,,,,,,,,605.7104103000001,605.7269396000002,606.2605128999999,606.2104936999999,,,,,,,,,,,,,,,,,,,,,,,,,,606.2436980000002,606.2605128999999,606.2605128999999,606.2605128999999,609.2268950000002,j,609.2269440999999,,,609.2269540000002,None,,,0.6371180999999524,0.1423760000002403,,,,,,,,,,00024,001,2025-11-14_18h21.40.405,MST_task,2024.2.2,59.979546974485615,2025-11-14 18h21.45.466299 +0530,
,Scenes\176a.jpg,60,0,60,,,,,,,j,None,,,0.6954184000001078,0.14228199999979552,,,,,60,0,60,0,609.2435209999999,,,,,,,,,,,,,,,,,,,,,,,,,,,,,,609.2270093000002,609.2435209999999,609.7601417999999,609.7271231,,,,,,,,,,,,,,,,,,,,,,,,,,609.7515911,609.7601417999999,609.7601417999999,609.7601417999999,612.7435236000001,j,612.7435582000003,,,612.7435675000002,None,,,0.6954184000001078,0.14228199999979552,,,,,,,,,,00024,001,2025-11-14_18h21.40.405,MST_task,2024.2.2,59.979546974485615,2025-11-14 18h21.45.466299 +0530,
,Scenes\185a.jpg,61,0,61,,,,,,,j,None,,,1.0245131000001493,0.15784489999987272,,,,,61,0,61,0,612.7601460000001,,,,,,,,,,,,,,,,,,,,,,,,,,,,,,612.7436348000001,612.7601460000001,613.2936838,613.2436287999999,,,,,,,,,,,,,,,,,,,,,,,,,,613.2724048999999,613.2936838,613.2936838,613.2936838,616.2600926999999,j,616.2601365999999,,,616.2601463999999,None,,,1.0245131000001493,0.15784489999987272,,,,,,,,,,00024,001,2025-11-14_18h21.40.405,MST_task,2024.2.2,59.979546974485615,2025-11-14 18h21.45.466299 +0530,
,Scenes\089a.jpg,62,0,62,,,,,,,j,None,,,1.8056483000000298,0.2240310000001955,,,,,62,0,62,0,616.2767013000002,,,,,,,,,,,,,,,,,,,,,,,,,,,,,,616.2602107000002,616.2767013000002,616.8101071000001,616.7602458000001,,,,,,,,,,,,,,,,,,,,,,,,,,616.7941483,616.8101071000001,616.8101071000001,616.8101071000001,619.7767595999999,j,619.7767978000002,,,619.7768076000002,None,,,1.8056483000000298,0.2240310000001955,,,,,,,,,,00024,001,2025-11-14_18h21.40.405,MST_task,2024.2.2,59.979546974485615,2025-11-14 18h21.45.466299 +0530,
,Objects\082a.jpg,63,0,63,,,,,,,j,None,,,2.2021490000001904,0.19323410000015429,,,,,63,0,63,0,619.7932854000001,,,,,,,,,,,,,,,,,,,,,,,,,,,,,,619.7768704,619.7932854000001,620.3102465000002,620.2768525000001,,,,,,,,,,,,,,,,,,,,,,,,,,620.2956291999999,620.3102465000002,620.3102465000002,620.3102465000002,623.2932580000002,j,623.2947509999999,,,623.2947623999999,None,,,2.2021490000001904,0.19323410000015429,,,,,,,,,,00024,001,2025-11-14_18h21.40.405,MST_task,2024.2.2,59.979546974485615,2025-11-14 18h21.45.466299 +0530,
,Objects\145a.jpg,64,0,64,,,,,,,f,None,,,1.6967233000000306,0.16584689999990587,,,,,64,0,64,0,623.3098896000001,,,,,,,,,,,,,,,,,,,,,,,,,,,,,,623.2948480999999,623.3098896000001,623.8431970000001,623.7934642999999,,,,,,,,,,,,,,,,,,,,,,,,,,623.8261252000002,623.8431970000001,623.8431970000001,623.8431970000001,626.8098493000002,f,626.8098813000001,,,626.8098909999999,None,,,1.6967233000000306,0.16584689999990587,,,,,,,,,,00024,001,2025-11-14_18h21.40.405,MST_task,2024.2.2,59.979546974485615,2025-11-14 18h21.45.466299 +0530,
,Objects\091a.jpg,65,0,65,,,,,,,j,None,,,2.220760100000007,0.3203220999998848,,,,,65,0,65,0,626.8264389000001,,,,,,,,,,,,,,,,,,,,,,,,,,,,,,626.8099772999999,626.8264389000001,627.3431254000002,627.3099342999999,,,,,,,,,,,,,,,,,,,,,,,,,,627.3257515999999,627.3431254000002,627.3431254000002,627.3431254000002,630.3264082999999,j,630.3264411999999,,,630.3264509,None,,,2.220760100000007,0.3203220999998848,,,,,,,,,,00024,001,2025-11-14_18h21.40.405,MST_task,2024.2.2,59.979546974485615,2025-11-14 18h21.45.466299 +0530,
,Objects\100a.jpg,66,0,66,,,,,,,f,None,,,0.8879862000003413,0.1903901999999107,,,,,66,0,66,0,630.343065,,,,,,,,,,,,,,,,,,,,,,,,,,,,,,630.3265353000002,630.343065,630.8596912000003,630.8265999999999,,,,,,,,,,,,,,,,,,,,,,,,,,630.8433140000002,630.8596912000003,630.8596912000003,630.8596912000003,633.8430242,f,633.8430570999999,,,633.8430665999999,None,,,0.8879862000003413,0.1903901999999107,,,,,,,,,,00024,001,2025-11-14_18h21.40.405,MST_task,2024.2.2,59.979546974485615,2025-11-14 18h21.45.466299 +0530,
,Objects\042a.jpg,67,0,67,,,,,,,j,None,,,1.7097650999999132,0.16998659999990196,,,,,67,0,67,0,633.8596587000002,,,,,,,,,,,,,,,,,,,,,,,,,,,,,,633.8431224999999,633.8596587000002,634.3762811000001,634.3431884000001,,,,,,,,,,,,,,,,,,,,,,,,,,634.3593177000002,634.3762811000001,634.3762811000001,634.3762811000001,637.3596004000001,j,637.3596480000001,,,637.3596584000002,None,,,1.7097650999999132,0.16998659999990196,,,,,,,,,,00024,001,2025-11-14_18h21.40.405,MST_task,2024.2.2,59.979546974485615,2025-11-14 18h21.45.466299 +0530,
,Objects\053a.jpg,68,0,68,,,,,,,f,None,,,0.8783765999996831,0.16411510000034468,,,,,68,0,68,0,637.3762394,,,,,,,,,,,,,,,,,,,,,,,,,,,,,,637.3597184999999,637.3762394,637.9095799000002,637.8597605999998,,,,,,,,,,,,,,,,,,,,,,,,,,637.8927056000002,637.9095799000002,637.9095799000002,637.9095799000002,640.8763073999999,f,640.8763448,,,640.8763545000002,None,,,0.8783765999996831,0.16411510000034468,,,,,,,,,,00024,001,2025-11-14_18h21.40.405,MST_task,2024.2.2,59.979546974485615,2025-11-14 18h21.45.466299 +0530,
,Objects\101a.jpg,69,0,69,,,,,,,None,f,0.008260399999926449,None,,,,,,,69,0,69,0,640.8928375999999,,,,,,,,,,,,,,,,,,,,,,,,,,,,,,640.8764526,640.8928375999999,641.4094537999999,641.3763532000003,,,,,,,,,,,,,,,,,,,,,,,,,,641.4014768000002,641.4094537999999,641.4094537999999,641.4094537999999,644.3927988999999,None,644.3928326,644.4094210000003,644.4094210000003,644.4264624000002,f,0.008260399999926449,None,,,,,,,,,,,,00024,001,2025-11-14_18h21.40.405,MST_task,2024.2.2,59.979546974485615,2025-11-14 18h21.45.466299 +0530,
,Scenes\080a.jpg,70,0,70,,,,,,,j,None,,,1.0580098000000362,0.1469836999999643,,,,,70,0,70,0,644.4427605000001,,,,,,,,,,,,,,,,,,,,,,,,,,,,,,644.4265254000002,644.4427605000001,644.9594325000003,644.9262303,,,,,,,,,,,,,,,,,,,,,,,,,,644.9441056999999,644.9594325000003,644.9594325000003,644.9594325000003,647.9427329999999,j,647.9439594999999,,,647.9439751,None,,,1.0580098000000362,0.1469836999999643,,,,,,,,,,00024,001,2025-11-14_18h21.40.405,MST_task,2024.2.2,59.979546974485615,2025-11-14 18h21.45.466299 +0530,
,Scenes\040a.jpg,71,0,71,,,,,,,f,None,,,1.6735579000001053,0.1698126000001139,,,,,71,0,71,0,647.9593187999999,,,,,,,,,,,,,,,,,,,,,,,,,,,,,,647.9440675000001,647.9593187999999,648.4759810999999,648.4428997999999,,,,,,,,,,,,,,,,,,,,,,,,,,648.4614133999999,648.4759810999999,648.4759810999999,648.4759810999999,651.4593717000002,f,651.4594063,,,651.4594161999999,None,,,1.6735579000001053,0.1698126000001139,,,,,,,,,,00024,001,2025-11-14_18h21.40.405,MST_task,2024.2.2,59.979546974485615,2025-11-14 18h21.45.466299 +0530,
,Scenes\031a.jpg,72,0,72,,,,,,,None,f,1.0653615000001082,None,,,,,,,72,0,72,0,651.4759429999999,,,,,,,,,,,,,,,,,,,,,,,,,,,,,,651.4595041000002,651.4759429999999,651.9925833000002,651.9594065000001,,,,,,,,,,,,,,,,,,,,,,,,,,651.9794869000002,651.9925833000002,651.9925833000002,651.9925833000002,654.9758643,None,654.9758933000003,654.9925309999999,654.9925309999999,656.0595720000001,f,1.0653615000001082,None,,,,,,,,,,,,00024,001,2025-11-14_18h21.40.405,MST_task,2024.2.2,59.979546974485615,2025-11-14 18h21.45.466299 +0530,
,Scenes\166a.jpg,73,0,73,,,,,,,j,None,,,0.6838738000001285,0.14777109999977256,,,,,73,0,73,0,656.0758562999999,,,,,,,,,,,,,,,,,,,,,,,,,,,,,,656.0596740000001,656.0758562999999,656.5924592000001,656.5593293000002,,,,,,,,,,,,,,,,,,,,,,,,,,656.574134,656.5924592000001,656.5924592000001,656.5924592000001,659.5757813,j,659.5758175999999,,,659.5758282000002,None,,,0.6838738000001285,0.14777109999977256,,,,,,,,,,00024,001,2025-11-14_18h21.40.405,MST_task,2024.2.2,59.979546974485615,2025-11-14 18h21.45.466299 +0530,
,Scenes\144a.jpg,74,0,74,,,,,,,j,None,,,0.5623494000001301,0.17407790000015666,,,,,74,0,74,0,659.5924418,,,,,,,,,,,,,,,,,,,,,,,,,,,,,,659.5758878000001,659.5924418,,660.0758779000003,,,,,,,,,,,,,,,,,,,,,,,,,,660.1077224000001,660.1257524000002,660.1257524000002,660.1257524000002,663.0925106,j,663.0925492000001,,,663.0925581000001,None,,,0.5623494000001301,0.17407790000015666,,,,,,,,,,00024,001,2025-11-14_18h21.40.405,MST_task,2024.2.2,59.979546974485615,2025-11-14 18h21.45.466299 +0530,
,Scenes\104a.jpg,75,0,75,,,,,,,j,None,,,2.1328714999999647,0.19504249999999956,,,,,75,0,75,0,663.1090269000001,,,,,,,,,,,,,,,,,,,,,,,,,,,,,,663.0926555000001,663.1090269000001,663.6423724000001,663.5925784000001,,,,,,,,,,,,,,,,,,,,,,,,,,663.6214104000001,663.6423724000001,663.6423724000001,663.6423724000001,666.6090658000003,j,666.6091019999999,,,666.6091117000001,None,,,2.1328714999999647,0.19504249999999956,,,,,,,,,,00024,001,2025-11-14_18h21.40.405,MST_task,2024.2.2,59.979546974485615,2025-11-14 18h21.45.466299 +0530,
,Scenes\034a.jpg,76,0,76,,,,,,,j,None,,,1.8044910999997228,0.16548450000027515,,,,,76,0,76,0,666.6256109999999,,,,,,,,,,,,,,,,,,,,,,,,,,,,,,666.6091676000001,666.6256109999999,667.1592070000002,667.1091581000001,,,,,,,,,,,,,,,,,,,,,,,,,,667.1356543000002,667.1592070000002,667.1592070000002,667.1592070000002,670.1257338999999,j,670.1257844000002,,,670.1257939000002,None,,,1.8044910999997228,0.16548450000027515,,,,,,,,,,00024,001,2025-11-14_18h21.40.405,MST_task,2024.2.2,59.979546974485615,2025-11-14 18h21.45.466299 +0530,
,Objects\114a.jpg,77,0,77,,,,,,,f,None,,,0.6452459000001909,0.1655627000000095,,,,,77,0,77,0,670.1422013000001,,,,,,,,,,,,,,,,,,,,,,,,,,,,,,670.1258846999999,670.1422013000001,670.6590657000002,670.6257561000002,,,,,,,,,,,,,,,,,,,,,,,,,,670.6524829999998,670.6590657000002,670.6590657000002,670.6590657000002,673.6422510000002,f,673.6438097999999,,,673.6438226999999,None,,,0.6452459000001909,0.1655627000000095,,,,,,,,,,00024,001,2025-11-14_18h21.40.405,MST_task,2024.2.2,59.979546974485615,2025-11-14 18h21.45.466299 +0530,
,Objects\142a.jpg,78,0,78,,,,,,,f,None,,,0.7101826999996774,0.1503885000001901,,,,,78,0,78,0,673.6589165999999,,,,,,,,,,,,,,,,,,,,,,,,,,,,,,673.643881,673.6589165999999,674.1754191999999,674.1424067000003,,,,,,,,,,,,,,,,,,,,,,,,,,674.1712491000003,674.1754191999999,674.1754191999999,674.1754191999999,677.1587533000002,f,677.1587997000001,,,677.1588096,None,,,0.7101826999996774,0.1503885000001901,,,,,,,,,,00024,001,2025-11-14_18h21.40.405,MST_task,2024.2.2,59.979546974485615,2025-11-14 18h21.45.466299 +0530,
,Objects\086a.jpg,79,0,79,,,,,,,j,None,,,1.925313599999754,0.16182220000018788,,,,,79,0,79,0,677.1753812000002,,,,,,,,,,,,,,,,,,,,,,,,,,,,,,677.1588937000001,677.1753812000002,677.6920736000002,677.6589051000001,,,,,,,,,,,,,,,,,,,,,,,,,,677.6764452000002,677.6920736000002,677.6920736000002,677.6920736000002,680.6753594000002,j,680.6753924,,,680.675405,None,,,1.925313599999754,0.16182220000018788,,,,,,,,,,00024,001,2025-11-14_18h21.40.405,MST_task,2024.2.2,59.979546974485615,2025-11-14 18h21.45.466299 +0530,
,Objects\066a.jpg,80,0,80,,,,,,,None,f,0.5709430000001703,None,,,,,,,80,0,80,0,680.6919819,,,,,,,,,,,,,,,,,,,,,,,,,,,,,,680.6754871000003,680.6919819,681.2086001000002,681.175448,,,,,,,,,,,,,,,,,,,,,,,,,,681.1927015000001,681.2086001000002,681.2086001000002,681.2086001000002,684.1920003999999,None,684.1920318000002,684.2085319000003,684.2085319000003,684.7921549000002,f,0.5709430000001703,None,,,,,,,,,,,,00024,001,2025-11-14_18h21.40.405,MST_task,2024.2.2,59.979546974485615,2025-11-14 18h21.45.466299 +0530,
,Objects\062a.jpg,81,0,81,,,,,,,None,f,0.7666795000000093,None,,,,,,,81,0,81,0,684.8085209000001,,,,,,,,,,,,,,,,,,,,,,,,,,,,,,684.7922239,684.8085209000001,685.3252176000001,685.2921265999998,,,,,,,,,,,,,,,,,,,,,,,,,,685.3155793000001,685.3252176000001,685.3252176000001,685.3252176000001,688.3085504000001,None,688.3085817000001,688.3251165000001,688.3251165000001,689.0922082000002,f,0.7666795000000093,None,,,,,,,,,,,,00024,001,2025-11-14_18h21.40.405,MST_task,2024.2.2,59.979546974485615,2025-11-14 18h21.45.466299 +0530,
,Objects\131a.jpg,82,0,82,,,,,,,None,f,0.8333288000003449,None,,,,,,,82,0,82,0,689.1085214,,,,,,,,,,,,,,,,,,,,,,,,,,,,,,689.0922787,689.1085214,689.6251284,689.5920565000001,,,,,,,,,,,,,,,,,,,,,,,,,,689.6120636999999,689.6251284,689.6251284,689.6251284,692.6084390999999,None,692.6084715000002,692.6250376000003,692.6250376000003,693.4588822000001,f,0.8333288000003449,None,,,,,,,,,,,,00024,001,2025-11-14_18h21.40.405,MST_task,2024.2.2,59.979546974485615,2025-11-14 18h21.45.466299 +0530,
,Objects\121a.jpg,83,0,83,,,,,,,None,f,1.641606800000318,None,,,,,,,83,0,83,0,693.4750355000001,,,,,,,,,,,,,,,,,,,,,,,,,,,,,,693.4589544999999,693.4750355000001,693.9916882000002,693.9585814000002,,,,,,,,,,,,,,,,,,,,,,,,,,693.9744171000002,693.9916882000002,693.9916882000002,693.9916882000002,696.9750024,None,696.9750334,696.9916183,696.9916183,698.6418883000001,f,1.641606800000318,None,,,,,,,,,,,,00024,001,2025-11-14_18h21.40.405,MST_task,2024.2.2,59.979546974485615,2025-11-14 18h21.45.466299 +0530,
,Scenes\159a.jpg,84,0,84,,,,,,,j,None,,,1.0629914000001008,0.19349749999992127,,,,,84,0,84,0,698.6582567,,,,,,,,,,,,,,,,,,,,,,,,,,,,,,698.6419593,698.6582567,699.1751844,699.1417326999999,,,,,,,,,,,,,,,,,,,,,,,,,,699.1622508999999,699.1751844,699.1751844,699.1751844,702.1582200000003,j,702.1593668,,,702.1593782999998,None,,,1.0629914000001008,0.19349749999992127,,,,,,,,,,00024,001,2025-11-14_18h21.40.405,MST_task,2024.2.2,59.979546974485615,2025-11-14 18h21.45.466299 +0530,
,Scenes\172a.jpg,85,0,85,,,,,,,j,None,,,0.595594799999617,0.12944460000016988,,,,,85,0,85,0,702.1748701000001,,,,,,,,,,,,,,,,,,,,,,,,,,,,,,702.1594697999999,702.1748701000001,702.7081705,702.6584532000002,,,,,,,,,,,,,,,,,,,,,,,,,,702.6903701000001,702.7081705,702.7081705,702.7081705,705.6748315,j,705.6748923,,,705.6749070999999,None,,,0.595594799999617,0.12944460000016988,,,,,,,,,,00024,001,2025-11-14_18h21.40.405,MST_task,2024.2.2,59.979546974485615,2025-11-14 18h21.45.466299 +0530,
,Scenes\155a.jpg,86,0,86,,,,,,,j,None,,,0.5668688000000657,0.13019829999984722,,,,,86,0,86,0,705.6914339,,,,,,,,,,,,,,,,,,,,,,,,,,,,,,705.6749745000002,705.6914339,706.2080863000001,706.1749236999999,,,,,,,,,,,,,,,,,,,,,,,,,,706.1926118000001,706.2080863000001,706.2080863000001,706.2080863000001,709.1914265,j,709.1914621999999,,,709.1914726,None,,,0.5668688000000657,0.13019829999984722,,,,,,,,,,00024,001,2025-11-14_18h21.40.405,MST_task,2024.2.2,59.979546974485615,2025-11-14 18h21.45.466299 +0530,
,Scenes\095a.jpg,87,0,87,,,,,,,j,None,,,2.5467631999999867,0.14573169999994207,,,,,87,0,87,0,709.2080461999999,,,,,,,,,,,,,,,,,,,,,,,,,,,,,,709.1915592999999,709.2080461999999,709.7249499,709.6915271000003,,,,,,,,,,,,,,,,,,,,,,,,,,709.7092866000003,709.7249499,709.7249499,709.7249499,712.7080036000002,j,712.7080488000001,,,712.7080581999999,None,,,2.5467631999999867,0.14573169999994207,,,,,,,,,,00024,001,2025-11-14_18h21.40.405,MST_task,2024.2.2,59.979546974485615,2025-11-14 18h21.45.466299 +0530,
,Scenes\071a.jpg,88,0,88,,,,,,,None,j,0.1024557000000641,None,,,,,,,88,0,88,0,712.7246083,,,,,,,,,,,,,,,,,,,,,,,,,,,,,,712.7081416000001,712.7246083,713.2582072,713.2082080999999,,,,,,,,,,,,,,,,,,,,,,,,,,713.2366582,713.2582072,713.2582072,713.2582072,716.2245885000002,None,716.2246211000001,716.2412526000003,716.2412526000003,716.3582690000003,j,0.1024557000000641,None,,,,,,,,,,,,00024,001,2025-11-14_18h21.40.405,MST_task,2024.2.2,59.979546974485615,2025-11-14 18h21.45.466299 +0530,
,Scenes\009a.jpg,89,0,89,,,,,,,f,None,,,1.7342314000002261,0.1897650999999314,,,,,89,0,89,0,716.3745583,,,,,,,,,,,,,,,,,,,,,,,,,,,,,,716.3583412000003,716.3745583,716.8914789999999,716.8581267,,,,,,,,,,,,,,,,,,,,,,,,,,716.8809142999999,716.8914789999999,716.8914789999999,716.8914789999999,719.8745061,f,719.8745441000001,,,719.8745543,None,,,1.7342314000002261,0.1897650999999314,,,,,,,,,,00024,001,2025-11-14_18h21.40.405,MST_task,2024.2.2,59.979546974485615,2025-11-14 18h21.45.466299 +0530,
,Scenes\044a.jpg,90,0,90,,,,,,,None,j,1.4122378999995817,None,,,,,,,90,0,90,0,719.8911434000001,,,,,,,,,,,,,,,,,,,,,,,,,,,,,,719.8746099999998,719.8911434000001,720.4080328999999,720.3746013,,,,,,,,,,,,,,,,,,,,,,,,,,720.3906906000002,720.4080328999999,720.4080328999999,720.4080328999999,723.3910827,None,723.3911139000002,723.4077198999998,723.4077198999998,724.8246979999999,j,1.4122378999995817,None,,,,,,,,,,,,00024,001,2025-11-14_18h21.40.405,MST_task,2024.2.2,59.979546974485615,2025-11-14 18h21.45.466299 +0530,
,Objects\148a.jpg,91,0,91,,,,,,,f,None,,,2.425456999999824,0.17468760000019756,,,,,91,0,91,0,724.8410214,,,,,,,,,,,,,,,,,,,,,,,,,,,,,,724.8247762999999,724.8410214,725.3579890999999,725.3245136,,,,,,,,,,,,,,,,,,,,,,,,,,725.3420574000002,725.3579890999999,725.3579890999999,725.3579890999999,728.341089,f,728.3426309000001,,,728.3426425000002,None,,,2.425456999999824,0.17468760000019756,,,,,,,,,,00024,001,2025-11-14_18h21.40.405,MST_task,2024.2.2,59.979546974485615,2025-11-14 18h21.45.466299 +0530,
,Objects\103a.jpg,92,0,92,,,,,,,j,None,,,0.7658449999998993,0.14539289999993343,,,,,92,0,92,0,728.357614,,,,,,,,,,,,,,,,,,,,,,,,,,,,,,728.3426984000002,728.357614,728.8743026000002,728.8412241000001,,,,,,,,,,,,,,,,,,,,,,,,,,728.8573655999999,728.8743026000002,728.8743026000002,728.8743026000002,731.8575946999999,j,731.8576281,,,731.8576379000001,None,,,0.7658449999998993,0.14539289999993343,,,,,,,,,,00024,001,2025-11-14_18h21.40.405,MST_task,2024.2.2,59.979546974485615,2025-11-14 18h21.45.466299 +0530,
,Objects\088a.jpg,93,0,93,,,,,,,j,None,,,1.3177856000002066,0.15702150000015536,,,,,93,0,93,0,731.8742099000001,,,,,,,,,,,,,,,,,,,,,,,,,,,,,,731.8577198000003,731.8742099000001,732.3908268,732.3576812000001,,,,,,,,,,,,,,,,,,,,,,,,,,732.3846309,732.3908268,732.3908268,732.3908268,735.3741857,j,735.3742193000003,,,735.3742296999999,None,,,1.3177856000002066,0.15702150000015536,,,,,,,,,,00024,001,2025-11-14_18h21.40.405,MST_task,2024.2.2,59.979546974485615,2025-11-14 18h21.45.466299 +0530,
,Objects\188a.jpg,94,0,94,,,,,,,f,None,,,0.9902044999998907,0.13421629999993456,,,,,94,0,94,0,735.3907551000002,,,,,,,,,,,,,,,,,,,,,,,,,,,,,,735.3743162000001,735.3907551000002,735.9074625000003,735.8742742,,,,,,,,,,,,,,,,,,,,,,,,,,735.8903565999999,735.9074625000003,735.9074625000003,735.9074625000003,738.8909103999999,f,738.8909502000001,,,738.8909610999999,None,,,0.9902044999998907,0.13421629999993456,,,,,,,,,,00024,001,2025-11-14_18h21.40.405,MST_task,2024.2.2,59.979546974485615,2025-11-14 18h21.45.466299 +0530,
,Objects\177a.jpg,95,0,95,,,,,,,j,None,,,2.1136185000000296,0.13942489999999452,,,,,95,0,95,0,738.9073621000002,,,,,,,,,,,,,,,,,,,,,,,,,,,,,,738.8910620000001,738.9073621000002,739.4240159999999,739.3908354,,,,,,,,,,,,,,,,,,,,,,,,,,739.4086846999999,739.4240159999999,739.4240159999999,739.4240159999999,742.4073483000002,j,742.4073840000001,,,742.4073938000001,None,,,2.1136185000000296,0.13942489999999452,,,,,,,,,,00024,001,2025-11-14_18h21.40.405,MST_task,2024.2.2,59.979546974485615,2025-11-14 18h21.45.466299 +0530,
,Objects\093a.jpg,96,0,96,,,,,,,j,None,,,2.6268362000000707,0.14993600000025253,,,,,96,0,96,0,742.4239683999999,,,,,,,,,,,,,,,,,,,,,,,,,,,,,,742.4074753,742.4239683999999,742.9406290000002,742.9074393999999,,,,,,,,,,,,,,,,,,,,,,,,,,742.933853,742.9406290000002,742.9406290000002,742.9406290000002,745.9240282999999,j,745.9240765,,,745.9240863999999,None,,,2.6268362000000707,0.14993600000025253,,,,,,,,,,00024,001,2025-11-14_18h21.40.405,MST_task,2024.2.2,59.979546974485615,2025-11-14 18h21.45.466299 +0530,
,Objects\065a.jpg,97,0,97,,,,,,,j,None,,,0.9700039999997898,0.13044270000000324,,,,,97,0,97,0,745.9405682000001,,,,,,,,,,,,,,,,,,,,,,,,,,,,,,745.9241445000002,745.9405682000001,746.4572201000001,746.4240390999998,,,,,,,,,,,,,,,,,,,,,,,,,,746.4395481000001,746.4572201000001,746.4572201000001,746.4572201000001,749.4405394999999,j,749.4406821000002,,,749.4406962000003,None,,,0.9700039999997898,0.13044270000000324,,,,,,,,,,00024,001,2025-11-14_18h21.40.405,MST_task,2024.2.2,59.979546974485615,2025-11-14 18h21.45.466299 +0530,
,Scenes\110a.jpg,98,0,98,,,,,,,j,None,,,1.0198012999999264,0.12197040000000925,,,,,98,0,98,0,749.4571573000003,,,,,,,,,,,,,,,,,,,,,,,,,,,,,,749.4407902000003,749.4571573000003,749.9740120000001,749.9408601,,,,,,,,,,,,,,,,,,,,,,,,,,749.9595221,749.9740120000001,749.9740120000001,749.9740120000001,752.9571578999999,j,752.9582789000001,,,752.9582897999999,None,,,1.0198012999999264,0.12197040000000925,,,,,,,,,,00024,001,2025-11-14_18h21.40.405,MST_task,2024.2.2,59.979546974485615,2025-11-14 18h21.45.466299 +0530,
,Scenes\002a.jpg,99,0,99,,,,,,,j,None,,,1.0047785000001568,0.13723839999966003,,,,,99,0,99,0,752.9737576000002,,,,,,,,,,,,,,,,,,,,,,,,,,,,,,752.9583725000002,752.9737576000002,753.5073318,753.4572398,,,,,,,,,,,,,,,,,,,,,,,,,,753.4886698999999,753.5073318,753.5073318,753.5073318,756.4737057000002,j,756.4737527000002,,,756.4737623000001,None,,,1.0047785000001568,0.13723839999966003,,,,,,,,,,00024,001,2025-11-14_18h21.40.405,MST_task,2024.2.2,59.979546974485615,2025-11-14 18h21.45.466299 +0530,
,Scenes\149a.jpg,100,0,100,,,,,,,f,None,,,2.4668197999999393,0.1534892999998192,,,,,100,0,100,0,756.4903646000002,,,,,,,,,,,,,,,,,,,,,,,,,,,,,,756.4738579,756.4903646000002,757.0239749000002,756.9738456999999,,,,,,,,,,,,,,,,,,,,,,,,,,757.0102913000001,757.0239749000002,757.0239749000002,757.0239749000002,759.9903107,f,759.9903491,,,759.9903594000002,None,,,2.4668197999999393,0.1534892999998192,,,,,,,,,,00024,001,2025-11-14_18h21.40.405,MST_task,2024.2.2,59.979546974485615,2025-11-14 18h21.45.466299 +0530,
,Scenes\038a.jpg,101,0,101,,,,,,,j,None,,,0.6862845999999081,0.12468620000026931,,,,,101,0,101,0,760.0069286000003,,,,,,,,,,,,,,,,,,,,,,,,,,,,,,759.9904194999999,760.0069286000003,,760.4904560999998,,,,,,,,,,,,,,,,,,,,,,,,,,760.5180977999999,760.5402681,760.5402681,760.5402681,763.5069084000002,j,763.5069466999998,,,763.5069601,None,,,0.6862845999999081,0.12468620000026931,,,,,,,,,,00024,001,2025-11-14_18h21.40.405,MST_task,2024.2.2,59.979546974485615,2025-11-14 18h21.45.466299 +0530,
,Scenes\003a.jpg,102,0,102,,,,,,,f,None,,,1.0548051000000669,0.19352160000016738,,,,,102,0,102,0,763.5235249000002,,,,,,,,,,,,,,,,,,,,,,,,,,,,,,763.5070529,763.5235249000002,764.0571322000001,764.0071599000003,,,,,,,,,,,,,,,,,,,,,,,,,,764.0363612000001,764.0571322000001,764.0571322000001,764.0571322000001,767.0234926000003,f,767.0235277000002,,,767.023541,None,,,1.0548051000000669,0.19352160000016738,,,,,,,,,,00024,001,2025-11-14_18h21.40.405,MST_task,2024.2.2,59.979546974485615,2025-11-14 18h21.45.466299 +0530,
,Scenes\117a.jpg,103,0,103,,,,,,,j,None,,,1.2614720999999918,0.17690219999985857,,,,,103,0,103,0,767.0400772000003,,,,,,,,,,,,,,,,,,,,,,,,,,,,,,767.0236285999999,767.0400772000003,767.5569258,767.5236024000001,,,,,,,,,,,,,,,,,,,,,,,,,,767.5392769999999,767.5569258,767.5569258,767.5569258,770.5400758999999,j,770.5401129000002,,,770.5401222,None,,,1.2614720999999918,0.17690219999985857,,,,,,,,,,00024,001,2025-11-14_18h21.40.405,MST_task,2024.2.2,59.979546974485615,2025-11-14 18h21.45.466299 +0530,
,Scenes\055a.jpg,104,0,104,,,,,,,j,None,,,2.9135473999999704,None,,,,,104,0,104,0,770.5566619000001,,,,,,,,,,,,,,,,,,,,,,,,,,,,,,770.5402045000001,770.5566619000001,771.0900156000002,771.0401925000001,,,,,,,,,,,,,,,,,,,,,,,,,,771.0701419000002,771.0900156000002,771.0900156000002,771.0900156000002,774.0566374999999,j,774.0566696000001,,,774.0566792,None,,,2.9135473999999704,None,,,,,,,,,,00024,001,2025-11-14_18h21.40.405,MST_task,2024.2.2,59.979546974485615,2025-11-14 18h21.45.466299 +0530,
,Objects\185a.jpg,105,0,105,,,,,,,f,None,,,1.881626899999901,0.18194720000019515,,,,,105,0,105,0,774.0732861000001,,,,,,,,,,,,,,,,,,,,,,,,,,,,,,774.0567329999999,774.0732861000001,774.6068241000003,774.5567945000003,,,,,,,,,,,,,,,,,,,,,,,,,,774.5898566000001,774.6068241000003,774.6068241000003,774.6068241000003,777.5732889000001,f,777.5747031000001,,,777.5747142,None,,,1.881626899999901,0.18194720000019515,,,,,,,,,,00024,001,2025-11-14_18h21.40.405,MST_task,2024.2.2,59.979546974485615,2025-11-14 18h21.45.466299 +0530,
,Objects\161a.jpg,106,0,106,,,,,,,f,None,,,0.669246700000258,0.11425139999983003,,,,,106,0,106,0,777.5898872000002,,,,,,,,,,,,,,,,,,,,,,,,,,,,,,777.5747970000002,777.5898872000002,778.1065155000001,778.0735039000001,,,,,,,,,,,,,,,,,,,,,,,,,,778.0888168000001,778.1065155000001,778.1065155000001,778.1065155000001,781.0898444,f,781.0898781000001,,,781.0898878000003,None,,,0.669246700000258,0.11425139999983003,,,,,,,,,,00024,001,2025-11-14_18h21.40.405,MST_task,2024.2.2,59.979546974485615,2025-11-14 18h21.45.466299 +0530,
,Objects\102a.jpg,107,0,107,,,,,,,f,None,,,1.5448669000002155,0.17389730000013515,,,,,107,0,107,0,781.1064793999999,,,,,,,,,,,,,,,,,,,,,,,,,,,,,,781.0899456000002,781.1064793999999,,781.5899546,,,,,,,,,,,,,,,,,,,,,,,,,,781.6056677000001,781.6231060999999,781.6231060999999,781.6231060999999,784.6063991000001,f,784.6064443,,,784.6064529,None,,,1.5448669000002155,0.17389730000013515,,,,,,,,,,00024,001,2025-11-14_18h21.40.405,MST_task,2024.2.2,59.979546974485615,2025-11-14 18h21.45.466299 +0530,
,Objects\013a.jpg,108,0,108,,,,,,,j,None,,,0.8555633999999372,0.17825179999999818,,,,,108,0,108,0,784.6230586000001,,,,,,,,,,,,,,,,,,,,,,,,,,,,,,784.6065145000002,784.6230586000001,785.1397095000002,785.1065177,,,,,,,,,,,,,,,,,,,,,,,,,,785.1218518000001,785.1397095000002,785.1397095000002,785.1397095000002,788.1230151,j,788.1230488000001,,,788.1230582000003,None,,,0.8555633999999372,0.17825179999999818,,,,,,,,,,00024,001,2025-11-14_18h21.40.405,MST_task,2024.2.2,59.979546974485615,2025-11-14 18h21.45.466299 +0530,
,Objects\010a.jpg,109,0,109,,,,,,,f,None,,,1.1302027000001544,0.16539000000011583,,,,,109,0,109,0,788.1397720999998,,,,,,,,,,,,,,,,,,,,,,,,,,,,,,788.1231146,788.1397720999998,788.6563096,788.6230891,,,,,,,,,,,,,,,,,,,,,,,,,,788.6388351,788.6563096,788.6563096,788.6563096,791.6396083,f,791.6396423000001,,,791.6396521000001,None,,,1.1302027000001544,0.16539000000011583,,,,,,,,,,00024,001,2025-11-14_18h21.40.405,MST_task,2024.2.2,59.979546974485615,2025-11-14 18h21.45.466299 +0530,
,Objects\055a.jpg,110,0,110,,,,,,,None,f,0.61240510000016,None,,,,,,,110,0,110,0,791.6562400000003,,,,,,,,,,,,,,,,,,,,,,,,,,,,,,791.6397078999998,791.6562400000003,792.1727492999999,792.1397685000002,,,,,,,,,,,,,,,,,,,,,,,,,,792.1690383,792.1727492999999,792.1727492999999,792.1727492999999,795.1561753999999,None,795.1562066000001,795.1728378000003,795.1728378000003,795.7899046000002,f,0.61240510000016,None,,,,,,,,,,,,00024,001,2025-11-14_18h21.40.405,MST_task,2024.2.2,59.979546974485615,2025-11-14 18h21.45.466299 +0530,
,Objects\018a.jpg,111,0,111,,,,,,,j,None,,,1.3987636000001658,0.15842620000012175,,,,,111,0,111,0,795.8061435,,,,,,,,,,,,,,,,,,,,,,,,,,,,,,795.7899794999998,795.8061435,796.3227790999999,796.2897083000003,,,,,,,,,,,,,,,,,,,,,,,,,,796.3062224,796.3227790999999,796.3227790999999,796.3227790999999,799.306083,j,799.3061231000001,,,799.3061338000002,None,,,1.3987636000001658,0.15842620000012175,,,,,,,,,,00024,001,2025-11-14_18h21.40.405,MST_task,2024.2.2,59.979546974485615,2025-11-14 18h21.45.466299 +0530,
,Scenes\052a.jpg,112,0,112,,,,,,,j,None,,,2.803207499999644,0.1405837000002066,,,,,112,0,112,0,799.3227388999999,,,,,,,,,,,,,,,,,,,,,,,,,,,,,,799.3061922000002,799.3227388999999,799.8560697000003,799.806212,,,,,,,,,,,,,,,,,,,,,,,,,,799.8370235000002,799.8560697000003,799.8560697000003,799.8560697000003,802.8227096,j,802.8239170000002,,,802.8239275000001,None,,,2.803207499999644,0.1405837000002066,,,,,,,,,,00024,001,2025-11-14_18h21.40.405,MST_task,2024.2.2,59.979546974485615,2025-11-14 18h21.45.466299 +0530,
,Scenes\179a.jpg,113,0,113,,,,,,,j,None,,,0.7196400000002541,0.14626589999988937,,,,,113,0,113,0,802.8393283,,,,,,,,,,,,,,,,,,,,,,,,,,,,,,802.8239781000002,802.8393283,803.3562216,803.3228975000002,,,,,,,,,,,,,,,,,,,,,,,,,,803.3498136000003,803.3562216,803.3562216,803.3562216,806.339316,j,806.3393516000001,,,806.3393614000001,None,,,0.7196400000002541,0.14626589999988937,,,,,,,,,,00024,001,2025-11-14_18h21.40.405,MST_task,2024.2.2,59.979546974485615,2025-11-14 18h21.45.466299 +0530,
,Scenes\029a.jpg,114,0,114,,,,,,,j,None,,,0.8469657999999072,0.14172210000015184,,,,,114,0,114,0,806.3559318000002,,,,,,,,,,,,,,,,,,,,,,,,,,,,,,806.3394171999998,806.3559318000002,806.8892467000001,806.8395472000002,,,,,,,,,,,,,,,,,,,,,,,,,,806.8738139000002,806.8892467000001,806.8892467000001,806.8892467000001,809.8559034,j,809.8559389000002,,,809.8559488000001,None,,,0.8469657999999072,0.14172210000015184,,,,,,,,,,00024,001,2025-11-14_18h21.40.405,MST_task,2024.2.2,59.979546974485615,2025-11-14 18h21.45.466299 +0530,
,Scenes\118a.jpg,115,0,115,,,,,,,j,None,,,0.9155884000001606,0.1498741999998856,,,,,115,0,115,0,809.8725138,,,,,,,,,,,,,,,,,,,,,,,,,,,,,,809.8560333999999,809.8725138,810.4058039000001,810.3559753,,,,,,,,,,,,,,,,,,,,,,,,,,810.3860822000001,810.4058039000001,810.4058039000001,810.4058039000001,813.3724957,j,813.3725293000002,,,813.3725391000003,None,,,0.9155884000001606,0.1498741999998856,,,,,,,,,,00024,001,2025-11-14_18h21.40.405,MST_task,2024.2.2,59.979546974485615,2025-11-14 18h21.45.466299 +0530,
,Scenes\106a.jpg,116,0,116,,,,,,,j,None,,,0.6152984000000288,0.1540951000001769,,,,,116,0,116,0,813.3891143000001,,,,,,,,,,,,,,,,,,,,,,,,,,,,,,813.3726206000001,813.3891143000001,813.9223973000003,813.8726082000003,,,,,,,,,,,,,,,,,,,,,,,,,,813.9034378000001,813.9223973000003,813.9223973000003,813.9223973000003,816.8890931000001,j,816.8891245,,,816.8891339000002,None,,,0.6152984000000288,0.1540951000001769,,,,,,,,,,00024,001,2025-11-14_18h21.40.405,MST_task,2024.2.2,59.979546974485615,2025-11-14 18h21.45.466299 +0530,
,Scenes\168a.jpg,117,0,117,,,,,,,j,None,,,0.7530415999999605,0.1573502000001099,,,,,117,0,117,0,816.9057078999999,,,,,,,,,,,,,,,,,,,,,,,,,,,,,,816.889212,816.9057078999999,817.4390102000002,817.3891689000002,,,,,,,,,,,,,,,,,,,,,,,,,,817.4174493999999,817.4390102000002,817.4390102000002,817.4390102000002,820.4056722,j,820.4057103999999,,,820.4057198999999,None,,,0.7530415999999605,0.1573502000001099,,,,,,,,,,00024,001,2025-11-14_18h21.40.405,MST_task,2024.2.2,59.979546974485615,2025-11-14 18h21.45.466299 +0530,
,Scenes\066a.jpg,118,0,118,,,,,,,None,j,0.9183829999997215,None,,,,,,,118,0,118,0,820.4222519,,,,,,,,,,,,,,,,,,,,,,,,,,,,,,820.4057779,820.4222519,820.9558720999999,820.9057756000002,,,,,,,,,,,,,,,,,,,,,,,,,,820.941969,820.9558720999999,820.9558720999999,820.9558720999999,823.9222779000002,None,823.9223076000003,823.9388586999999,823.9388586999999,824.8724691000002,j,0.9183829999997215,None,,,,,,,,,,,,00024,001,2025-11-14_18h21.40.405,MST_task,2024.2.2,59.979546974485615,2025-11-14 18h21.45.466299 +0530,
,Objects\037a.jpg,119,0,119,,,,,,,f,None,,,1.5557860999997501,0.17527100000006612,,,,,119,0,119,0,824.8888637,,,,,,,,,,,,,,,,,,,,,,,,,,,,,,824.8725675999999,824.8888637,825.4054823000001,825.3723674000003,,,,,,,,,,,,,,,,,,,,,,,,,,825.3941656000002,825.4054823000001,825.4054823000001,825.4054823000001,828.3888185999999,f,828.3902306999998,,,828.3902418000002,None,,,1.5557860999997501,0.17527100000006612,,,,,,,,,,00024,001,2025-11-14_18h21.40.405,MST_task,2024.2.2,59.979546974485615,2025-11-14 18h21.45.466299 +0530,
,Objects\033a.jpg,120,0,120,,,,,,,f,None,,,2.3232974000002287,0.16636089999974502,,,,,120,0,120,0,828.4054516000001,,,,,,,,,,,,,,,,,,,,,,,,,,,,,,828.3903258,828.4054516000001,828.922114,828.8889690999999,,,,,,,,,,,,,,,,,,,,,,,,,,828.9043325000002,828.922114,828.922114,828.922114,831.9054875000002,f,831.905522,,,831.9055312999999,None,,,2.3232974000002287,0.16636089999974502,,,,,,,,,,00024,001,2025-11-14_18h21.40.405,MST_task,2024.2.2,59.979546974485615,2025-11-14 18h21.45.466299 +0530,
,Objects\084a.jpg,121,0,121,,,,,,,j,None,,,1.2471840999996857,0.14746780000041326,,,,,121,0,121,0,831.9221679000002,,,,,,,,,,,,,,,,,,,,,,,,,,,,,,831.9055859999999,831.9221679000002,832.4387735999999,832.4056878000001,,,,,,,,,,,,,,,,,,,,,,,,,,832.4308436000001,832.4387735999999,832.4387735999999,832.4387735999999,835.4221004000001,j,835.4221375000002,,,835.4221476000002,None,,,1.2471840999996857,0.14746780000041326,,,,,,,,,,00024,001,2025-11-14_18h21.40.405,MST_task,2024.2.2,59.979546974485615,2025-11-14 18h21.45.466299 +0530,
,Objects\054a.jpg,122,0,122,,,,,,,j,None,,,1.188991000000442,0.14727659999971365,,,,,122,0,122,0,835.4387231000001,,,,,,,,,,,,,,,,,,,,,,,,,,,,,,835.4222414999999,835.4387231000001,835.9553449999999,835.9222765,,,,,,,,,,,,,,,,,,,,,,,,,,835.9471953000002,835.9553449999999,835.9553449999999,835.9553449999999,838.9386874000002,j,838.9387211000003,,,838.9387308999999,None,,,1.188991000000442,0.14727659999971365,,,,,,,,,,00024,001,2025-11-14_18h21.40.405,MST_task,2024.2.2,59.979546974485615,2025-11-14 18h21.45.466299 +0530,
,Objects\080a.jpg,123,0,123,,,,,,,f,None,,,0.6899932999999692,0.1606232000003729,,,,,123,0,123,0,838.9552871000001,,,,,,,,,,,,,,,,,,,,,,,,,,,,,,838.9388368999998,838.9552871000001,839.4719620999999,839.4387979000003,,,,,,,,,,,,,,,,,,,,,,,,,,839.4607808000001,839.4719620999999,839.4719620999999,839.4719620999999,842.4552610999999,f,842.4552954000001,,,842.455305,None,,,0.6899932999999692,0.1606232000003729,,,,,,,,,,00024,001,2025-11-14_18h21.40.405,MST_task,2024.2.2,59.979546974485615,2025-11-14 18h21.45.466299 +0530,
,Objects\119a.jpg,124,0,124,,,,,,,f,None,,,1.8855161000001317,0.16548890000012761,,,,,124,0,124,0,842.4719051000002,,,,,,,,,,,,,,,,,,,,,,,,,,,,,,842.4553602000001,842.4719051000002,842.9885594000002,842.9553452999999,,,,,,,,,,,,,,,,,,,,,,,,,,842.9702127999999,842.9885594000002,842.9885594000002,842.9885594000002,845.9553538,f,845.9553912000001,,,845.9554008999999,None,,,1.8855161000001317,0.16548890000012761,,,,,,,,,,00024,001,2025-11-14_18h21.40.405,MST_task,2024.2.2,59.979546974485615,2025-11-14 18h21.45.466299 +0530,
,Objects\044a.jpg,125,0,125,,,,,,,f,None,,,1.1625241000001552,0.11029929999995147,,,,,125,0,125,0,845.9718247000001,,,,,,,,,,,,,,,,,,,,,,,,,,,,,,845.9554864000002,845.9718247000001,846.5051223999999,846.4553289999999,,,,,,,,,,,,,,,,,,,,,,,,,,846.4850498999999,846.5051223999999,846.5051223999999,846.5051223999999,849.4717705000003,f,849.4718069,,,849.4718170000001,None,,,1.1625241000001552,0.11029929999995147,,,,,,,,,,00024,001,2025-11-14_18h21.40.405,MST_task,2024.2.2,59.979546974485615,2025-11-14 18h21.45.466299 +0530,
,Scenes\001a.jpg,126,0,126,,,,,,,f,None,,,2.3885417999999845,0.18143489999965823,,,,,126,0,126,0,849.4884594999999,,,,,,,,,,,,,,,,,,,,,,,,,,,,,,849.4718757,849.4884594999999,850.0053237000002,849.9719115000003,,,,,,,,,,,,,,,,,,,,,,,,,,849.9962546000002,850.0053237000002,850.0053237000002,850.0053237000002,852.9883528,f,852.9894870000003,,,852.9894979999999,None,,,2.3885417999999845,0.18143489999965823,,,,,,,,,,00024,001,2025-11-14_18h21.40.405,MST_task,2024.2.2,59.979546974485615,2025-11-14 18h21.45.466299 +0530,
,Scenes\058a.jpg,127,0,127,,,,,,,f,None,,,0.8117204000000129,0.14708350000000792,,,,,127,0,127,0,853.0049707000003,,,,,,,,,,,,,,,,,,,,,,,,,,,,,,852.9895818,853.0049707000003,853.5219010999999,853.4886101000002,,,,,,,,,,,,,,,,,,,,,,,,,,853.5058511000002,853.5219010999999,853.5219010999999,853.5219010999999,856.5049695000002,f,856.5050031000001,,,856.505013,None,,,0.8117204000000129,0.14708350000000792,,,,,,,,,,00024,001,2025-11-14_18h21.40.405,MST_task,2024.2.2,59.979546974485615,2025-11-14 18h21.45.466299 +0530,
,Scenes\182a.jpg,128,0,128,,,,,,,None,f,0.494554099999732,None,,,,,,,128,0,128,0,856.5216343000002,,,,,,,,,,,,,,,,,,,,,,,,,,,,,,856.5051051,856.5216343000002,857.0382086,857.0050252000001,,,,,,,,,,,,,,,,,,,,,,,,,,857.021471,857.0382086,857.0382086,857.0382086,860.0215248,None,860.0215552,860.0381216000001,860.0381216000001,860.5383775999999,f,0.494554099999732,None,,,,,,,,,,,,00024,001,2025-11-14_18h21.40.405,MST_task,2024.2.2,59.979546974485615,2025-11-14 18h21.45.466299 +0530,
,Scenes\005a.jpg,129,0,129,,,,,,,None,f,0.6278560000000653,None,,,,,,,129,0,129,0,860.5547673000001,,,,,,,,,,,,,,,,,,,,,,,,,,,,,,860.5384537999998,860.5547673000001,861.0713776000002,861.0382346000001,,,,,,,,,,,,,,,,,,,,,,,,,,861.0642765000002,861.0713776000002,861.0713776000002,861.0713776000002,864.0547397,None,864.0547750000001,864.0713753,864.0713753,864.7049925000001,f,0.6278560000000653,None,,,,,,,,,,,,00024,001,2025-11-14_18h21.40.405,MST_task,2024.2.2,59.979546974485615,2025-11-14 18h21.45.466299 +0530,
,Scenes\068a.jpg,130,0,130,,,,,,,j,None,,,0.8177033000001757,0.14168449999988297,,,,,130,0,130,0,864.7213452999999,,,,,,,,,,,,,,,,,,,,,,,,,,,,,,864.7050614,864.7213452999999,865.2379737000001,865.2048911000002,,,,,,,,,,,,,,,,,,,,,,,,,,865.2240021000002,865.2379737000001,865.2379737000001,865.2379737000001,868.2212912999998,j,868.2213409999999,,,868.2213514,None,,,0.8177033000001757,0.14168449999988297,,,,,,,,,,00024,001,2025-11-14_18h21.40.405,MST_task,2024.2.2,59.979546974485615,2025-11-14 18h21.45.466299 +0530,
,Scenes\160a.jpg,131,0,131,,,,,,,j,None,,,0.9162999000000127,0.19489789999988716,,,,,131,0,131,0,868.2379375,,,,,,,,,,,,,,,,,,,,,,,,,,,,,,868.2214426999999,868.2379375,868.7712852,868.7214021,,,,,,,,,,,,,,,,,,,,,,,,,,868.7510240000001,868.7712852,868.7712852,868.7712852,871.7380926000001,j,871.7381304,,,871.7381393999999,None,,,0.9162999000000127,0.19489789999988716,,,,,,,,,,00024,001,2025-11-14_18h21.40.405,MST_task,2024.2.2,59.979546974485615,2025-11-14 18h21.45.466299 +0530,
,Scenes\065a.jpg,132,0,132,,,,,,,j,None,,,1.1868805999997676,0.16951940000035393,,,,,132,0,132,0,871.7545592000001,,,,,,,,,,,,,,,,,,,,,,,,,,,,,,871.7382215000002,871.7545592000001,872.2713444000001,872.2380330999999,,,,,,,,,,,,,,,,,,,,,,,,,,872.2648950000003,872.2713444000001,872.2713444000001,872.2713444000001,875.2544891000002,j,875.2545233000001,,,875.2545336000003,None,,,1.1868805999997676,0.16951940000035393,,,,,,,,,,00024,001,2025-11-14_18h21.40.405,MST_task,2024.2.2,59.979546974485615,2025-11-14 18h21.45.466299 +0530,
,Objects\087a.jpg,133,0,133,,,,,,,j,None,,,1.7952002000001812,0.17443499999990308,,,,,133,0,133,0,875.2711030999999,,,,,,,,,,,,,,,,,,,,,,,,,,,,,,875.2546176000001,875.2711030999999,875.8047520999999,875.7545839,,,,,,,,,,,,,,,,,,,,,,,,,,875.7955434999999,875.8047520999999,875.8047520999999,875.8047520999999,878.7711018999998,j,878.7726134,,,878.7726244999999,None,,,1.7952002000001812,0.17443499999990308,,,,,,,,,,00024,001,2025-11-14_18h21.40.405,MST_task,2024.2.2,59.979546974485615,2025-11-14 18h21.45.466299 +0530,
,Objects\191a.jpg,134,0,134,,,,,,,f,None,,,2.5258371999998417,0.14191800000025978,,,,,134,0,134,0,878.7877048999999,,,,,,,,,,,,,,,,,,,,,,,,,,,,,,878.7727095999999,878.7877048999999,879.3043241,879.2712684000003,,,,,,,,,,,,,,,,,,,,,,,,,,879.2994975000001,879.3043241,879.3043241,879.3043241,882.2876694000001,f,882.2877085,,,882.2877191000002,None,,,2.5258371999998417,0.14191800000025978,,,,,,,,,,00024,001,2025-11-14_18h21.40.405,MST_task,2024.2.2,59.979546974485615,2025-11-14 18h21.45.466299 +0530,
,Objects\192a.jpg,135,0,135,,,,,,,f,None,,,0.616503300000204,0.14665819999981977,,,,,135,0,135,0,882.3042951000002,,,,,,,,,,,,,,,,,,,,,,,,,,,,,,882.2878113000002,882.3042951000002,882.8209172000002,882.7877773999999,,,,,,,,,,,,,,,,,,,,,,,,,,882.8146922999999,882.8209172000002,882.8209172000002,882.8209172000002,885.8043044000001,f,885.8043404999999,,,885.8043505999999,None,,,0.616503300000204,0.14665819999981977,,,,,,,,,,00024,001,2025-11-14_18h21.40.405,MST_task,2024.2.2,59.979546974485615,2025-11-14 18h21.45.466299 +0530,
,Objects\040a.jpg,136,0,136,,,,,,,f,None,,,0.7763934999998128,0.15427760000011403,,,,,136,0,136,0,885.8208479,,,,,,,,,,,,,,,,,,,,,,,,,,,,,,885.8044095,885.8208479,886.3375348,886.304431,,,,,,,,,,,,,,,,,,,,,,,,,,886.3243293,886.3375348,886.3375348,886.3375348,889.3208592999999,f,889.320894,,,889.3209038999998,None,,,0.7763934999998128,0.15427760000011403,,,,,,,,,,00024,001,2025-11-14_18h21.40.405,MST_task,2024.2.2,59.979546974485615,2025-11-14 18h21.45.466299 +0530,
,Objects\124a.jpg,137,0,137,,,,,,,j,None,,,0.9771496000003026,0.13826010000002498,,,,,137,0,137,0,889.3374377999999,,,,,,,,,,,,,,,,,,,,,,,,,,,,,,889.3209600999999,889.3374377999999,889.8707613000001,889.8210124000002,,,,,,,,,,,,,,,,,,,,,,,,,,889.8541307,889.8707613000001,889.8707613000001,889.8707613000001,892.8373956,j,892.8374284000001,,,892.8374379000002,None,,,0.9771496000003026,0.13826010000002498,,,,,,,,,,00024,001,2025-11-14_18h21.40.405,MST_task,2024.2.2,59.979546974485615,2025-11-14 18h21.45.466299 +0530,
,Objects\171a.jpg,138,0,138,,,,,,,j,None,,,1.494738000000325,0.19800850000001446,,,,,138,0,138,0,892.8540598,,,,,,,,,,,,,,,,,,,,,,,,,,,,,,892.8375233000002,892.8540598,893.3707669,893.3375832000002,,,,,,,,,,,,,,,,,,,,,,,,,,893.3656904,893.3707669,893.3707669,893.3707669,896.35401,j,896.3540456999999,,,896.3540550000002,None,,,1.494738000000325,0.19800850000001446,,,,,,,,,,00024,001,2025-11-14_18h21.40.405,MST_task,2024.2.2,59.979546974485615,2025-11-14 18h21.45.466299 +0530,
,Objects\058a.jpg,139,0,139,,,,,,,f,None,,,2.6665095999996993,0.19786640000029365,,,,,139,0,139,0,896.3706553000002,,,,,,,,,,,,,,,,,,,,,,,,,,,,,,896.3541423000001,896.3706553000002,896.8872835000002,896.8542051,,,,,,,,,,,,,,,,,,,,,,,,,,896.8713152999999,896.8872835000002,896.8872835000002,896.8872835000002,899.8706313000002,f,899.8706637,,,899.8706754,None,,,2.6665095999996993,0.19786640000029365,,,,,,,,,,00024,001,2025-11-14_18h21.40.405,MST_task,2024.2.2,59.979546974485615,2025-11-14 18h21.45.466299 +0530,
,Scenes\060a.jpg,140,0,140,,,,,,,j,None,,,0.6368129999996199,0.18603250000023763,,,,,140,0,140,0,899.8872784999999,,,,,,,,,,,,,,,,,,,,,,,,,,,,,,899.8707484000001,899.8872784999999,900.4374572000002,900.3707843000002,,,,,,,,,,,,,,,,,,,,,,,,,,900.4140261000002,900.4374572000002,900.4374572000002,900.4374572000002,903.3871991000001,j,903.3883071,,,903.3883186000003,None,,,0.6368129999996199,0.18603250000023763,,,,,,,,,,00024,001,2025-11-14_18h21.40.405,MST_task,2024.2.2,59.979546974485615,2025-11-14 18h21.45.466299 +0530,
,Scenes\188a.jpg,141,0,141,,,,,,,j,None,,,1.0596034999998665,0.15723860000025525,,,,,141,0,141,0,903.4038119000002,,,,,,,,,,,,,,,,,,,,,,,,,,,,,,903.3884054,903.4038119000002,903.9207977000001,903.8873410000001,,,,,,,,,,,,,,,,,,,,,,,,,,903.9040605999999,903.9207977000001,903.9207977000001,903.9207977000001,906.9039234000002,j,906.9039578000002,,,906.9039673000002,None,,,1.0596034999998665,0.15723860000025525,,,,,,,,,,00024,001,2025-11-14_18h21.40.405,MST_task,2024.2.2,59.979546974485615,2025-11-14 18h21.45.466299 +0530,
,Scenes\049a.jpg,142,0,142,,,,,,,j,None,,,0.9695916999999099,0.16156550000005154,,,,,142,0,142,0,906.9204250000003,,,,,,,,,,,,,,,,,,,,,,,,,,,,,,906.9040245000001,906.9204250000003,907.4370543,907.4039751999999,,,,,,,,,,,,,,,,,,,,,,,,,,907.4196157000001,907.4370543,907.4370543,907.4370543,910.4203576,j,910.4203920999998,,,910.4204012,None,,,0.9695916999999099,0.16156550000005154,,,,,,,,,,00024,001,2025-11-14_18h21.40.405,MST_task,2024.2.2,59.979546974485615,2025-11-14 18h21.45.466299 +0530,
,Scenes\170a.jpg,143,0,143,,,,,,,j,None,,,0.814219200000025,0.16730680000000575,,,,,143,0,143,0,910.4370119999999,,,,,,,,,,,,,,,,,,,,,,,,,,,,,,910.4204874000002,910.4370119999999,910.9536447,910.9204903,,,,,,,,,,,,,,,,,,,,,,,,,,910.9396807000003,910.9536447,910.9536447,910.9536447,913.9369651000002,j,913.9369970000002,,,913.9370059000003,None,,,0.814219200000025,0.16730680000000575,,,,,,,,,,00024,001,2025-11-14_18h21.40.405,MST_task,2024.2.2,59.979546974485615,2025-11-14 18h21.45.466299 +0530,
,Scenes\192a.jpg,144,0,144,,,,,,,j,None,,,1.0760140000002139,0.16532059999963167,,,,,144,0,144,0,913.9536071000002,,,,,,,,,,,,,,,,,,,,,,,,,,,,,,913.9370616000001,913.9536071000002,914.4703073000001,914.4371481000003,,,,,,,,,,,,,,,,,,,,,,,,,,914.4529597999999,914.4703073000001,914.4703073000001,914.4703073000001,917.4536806000001,j,917.4537159000001,,,917.4537258,None,,,1.0760140000002139,0.16532059999963167,,,,,,,,,,00024,001,2025-11-14_18h21.40.405,MST_task,2024.2.2,59.979546974485615,2025-11-14 18h21.45.466299 +0530,
,Scenes\053a.jpg,145,0,145,,,,,,,j,None,,,0.7345761999999922,0.1623504999997749,,,,,145,0,145,0,917.4701645,,,,,,,,,,,,,,,,,,,,,,,,,,,,,,917.4537838000001,917.4701645,917.9871209000003,917.9537249,,,,,,,,,,,,,,,,,,,,,,,,,,917.9730057000002,917.9871209000003,917.9871209000003,917.9871209000003,920.9701795000001,j,920.9702193000003,,,920.9702289000002,None,,,0.7345761999999922,0.1623504999997749,,,,,,,,,,00024,001,2025-11-14_18h21.40.405,MST_task,2024.2.2,59.979546974485615,2025-11-14 18h21.45.466299 +0530,
,Scenes\156a.jpg,146,0,146,,,,,,,j,None,,,2.029389899999842,0.1682860000000801,,,,,146,0,146,0,920.9867490000001,,,,,,,,,,,,,,,,,,,,,,,,,,,,,,920.9703143000002,920.9867490000001,921.5037006000002,921.4702943000002,,,,,,,,,,,,,,,,,,,,,,,,,,921.4969826000001,921.5037006000002,921.5037006000002,921.5037006000002,924.4867365,j,924.4867758999999,,,924.4867864000003,None,,,2.029389899999842,0.1682860000000801,,,,,,,,,,00024,001,2025-11-14_18h21.40.405,MST_task,2024.2.2,59.979546974485615,2025-11-14 18h21.45.466299 +0530,
,Objects\007a.jpg,147,0,147,,,,,,,j,None,,,1.8112756000000445,0.19901890000028288,,,,,147,0,147,0,924.5033815000002,,,,,,,,,,,,,,,,,,,,,,,,,,,,,,924.4868811000001,924.5033815000002,925.0202973,924.9868486999999,,,,,,,,,,,,,,,,,,,,,,,,,,925.0099029000003,925.0202973,925.0202973,925.0202973,928.0033216000002,j,928.0048160000001,,,928.0048279000002,None,,,1.8112756000000445,0.19901890000028288,,,,,,,,,,00024,001,2025-11-14_18h21.40.405,MST_task,2024.2.2,59.979546974485615,2025-11-14 18h21.45.466299 +0530,
,Objects\035a.jpg,148,0,148,,,,,,,j,None,,,1.8468315999998595,0.20826650000026348,,,,,148,0,148,0,928.0199569000001,,,,,,,,,,,,,,,,,,,,,,,,,,,,,,928.0048846,928.0199569000001,928.5366315000001,928.5035636000002,,,,,,,,,,,,,,,,,,,,,,,,,,928.5206926999999,928.5366315000001,928.5366315000001,928.5366315000001,931.5199387000002,j,931.5199729000001,,,931.5199829000003,None,,,1.8468315999998595,0.20826650000026348,,,,,,,,,,00024,001,2025-11-14_18h21.40.405,MST_task,2024.2.2,59.979546974485615,2025-11-14 18h21.45.466299 +0530,
,Objects\163a.jpg,149,0,149,,,,,,,j,None,,,1.7477092999997694,0.21768610000026456,,,,,149,0,149,0,931.5365916999999,,,,,,,,,,,,,,,,,,,,,,,,,,,,,,931.5200393,931.5365916999999,932.0698796000001,932.0200491,,,,,,,,,,,,,,,,,,,,,,,,,,932.0501256000002,932.0698796000001,932.0698796000001,932.0698796000001,935.0365467000001,j,935.0365821,,,935.0365922000001,None,,,1.7477092999997694,0.21768610000026456,,,,,,,,,,00024,001,2025-11-14_18h21.40.405,MST_task,2024.2.2,59.979546974485615,2025-11-14 18h21.45.466299 +0530,
,Objects\099a.jpg,150,0,150,,,,,,,None,j,2.2115812000001824,None,,,,,,,150,0,150,0,935.0531577000002,,,,,,,,,,,,,,,,,,,,,,,,,,,,,,935.0366487000001,935.0531577000002,935.5698984999999,935.5366520000002,,,,,,,,,,,,,,,,,,,,,,,,,,935.5526838000001,935.5698984999999,935.5698984999999,935.5698984999999,938.5531068999999,None,938.5531470999999,938.5697373000003,938.5697373000003,940.7867575999999,j,2.2115812000001824,None,,,,,,,,,,,,00024,001,2025-11-14_18h21.40.405,MST_task,2024.2.2,59.979546974485615,2025-11-14 18h21.45.466299 +0530,
,Objects\160a.jpg,151,0,151,,,,,,,None,f,0.5699781999996958,None,,,,,,,151,0,151,0,940.8030343999999,,,,,,,,,,,,,,,,,,,,,,,,,,,,,,940.7868296000001,940.8030343999999,941.3196588000001,941.2866125999999,,,,,,,,,,,,,,,,,,,,,,,,,,941.3102956000002,941.3196588000001,941.3196588000001,941.3196588000001,944.3030116,None,944.3030502000001,944.3195805999999,944.3195805999999,944.9032022000001,f,0.5699781999996958,None,,,,,,,,,,,,00024,001,2025-11-14_18h21.40.405,MST_task,2024.2.2,59.979546974485615,2025-11-14 18h21.45.466299 +0530,
,Objects\109a.jpg,152,0,152,,,,,,,j,None,,,1.1384508000001006,0.18524469999965731,,,,,152,0,152,0,944.9196004,,,,,,,,,,,,,,,,,,,,,,,,,,,,,,944.9032784999999,944.9196004,945.4362267000001,945.4030769999999,,,,,,,,,,,,,,,,,,,,,,,,,,945.4228604999998,945.4362267000001,945.4362267000001,945.4362267000001,948.4196221000002,j,948.4196591999998,,,948.4196689,None,,,1.1384508000001006,0.18524469999965731,,,,,,,,,,00024,001,2025-11-14_18h21.40.405,MST_task,2024.2.2,59.979546974485615,2025-11-14 18h21.45.466299 +0530,
,Objects\036a.jpg,153,0,153,,,,,,,f,None,,,1.0546497999998792,0.23809620000020004,,,,,153,0,153,0,948.4361764,,,,,,,,,,,,,,,,,,,,,,,,,,,,,,948.4197565,948.4361764,948.9528209999999,948.9197542000002,,,,,,,,,,,,,,,,,,,,,,,,,,948.9369004999999,948.9528209999999,948.9528209999999,948.9528209999999,951.9362667999999,f,951.9363017000001,,,951.9363112000001,None,,,1.0546497999998792,0.23809620000020004,,,,,,,,,,00024,001,2025-11-14_18h21.40.405,MST_task,2024.2.2,59.979546974485615,2025-11-14 18h21.45.466299 +0530,
,Scenes\162a.jpg,154,0,154,,,,,,,j,None,,,2.2143024000001787,0.16612050000003364,,,,,154,0,154,0,951.9527886999999,,,,,,,,,,,,,,,,,,,,,,,,,,,,,,951.9363687999999,951.9527886999999,952.4694291999999,952.4363048999999,,,,,,,,,,,,,,,,,,,,,,,,,,952.4526642999999,952.4694291999999,952.4694291999999,952.4694291999999,955.4527395999999,j,955.4539988000001,,,955.4540102999999,None,,,2.2143024000001787,0.16612050000003364,,,,,,,,,,00024,001,2025-11-14_18h21.40.405,MST_task,2024.2.2,59.979546974485615,2025-11-14 18h21.45.466299 +0530,
,Scenes\004a.jpg,155,0,155,,,,,,,j,None,,,0.6456554000001233,0.19039220000013302,,,,,155,0,155,0,955.4693784000001,,,,,,,,,,,,,,,,,,,,,,,,,,,,,,955.4540941,955.4693784000001,955.9860008999999,955.9529769999999,,,,,,,,,,,,,,,,,,,,,,,,,,955.9718404999999,955.9860008999999,955.9860008999999,955.9860008999999,958.9693594999999,j,958.9693941999999,,,958.9694047000003,None,,,0.6456554000001233,0.19039220000013302,,,,,,,,,,00024,001,2025-11-14_18h21.40.405,MST_task,2024.2.2,59.979546974485615,2025-11-14 18h21.45.466299 +0530,
,Scenes\094a.jpg,156,0,156,,,,,,,f,None,,,1.3051095999999234,0.16531399999985297,,,,,156,0,156,0,958.9859591,,,,,,,,,,,,,,,,,,,,,,,,,,,,,,958.9694939999999,958.9859591,959.5192741999999,959.4694333000002,,,,,,,,,,,,,,,,,,,,,,,,,,959.5008267000003,959.5192741999999,959.5192741999999,959.5192741999999,962.4859411000002,f,962.4859769,,,962.4859864999999,None,,,1.3051095999999234,0.16531399999985297,,,,,,,,,,00024,001,2025-11-14_18h21.40.405,MST_task,2024.2.2,59.979546974485615,2025-11-14 18h21.45.466299 +0530,
,Scenes\141a.jpg,157,0,157,,,,,,,j,None,,,1.4687176000002182,0.11426199999959863,,,,,157,0,157,0,962.5025571000001,,,,,,,,,,,,,,,,,,,,,,,,,,,,,,962.4860444000001,962.5025571000001,963.0191875,962.9860408,,,,,,,,,,,,,,,,,,,,,,,,,,963.0015466,963.0191875,963.0191875,963.0191875,966.0025326999998,j,966.0025687000002,,,966.0025780000001,None,,,1.4687176000002182,0.11426199999959863,,,,,,,,,,00024,001,2025-11-14_18h21.40.405,MST_task,2024.2.2,59.979546974485615,2025-11-14 18h21.45.466299 +0530,
,Scenes\107a.jpg,158,0,158,,,,,,,j,None,,,1.4595021999998607,0.17173640000009982,,,,,158,0,158,0,966.0191500000001,,,,,,,,,,,,,,,,,,,,,,,,,,,,,,966.0026637999999,966.0191500000001,966.5357790000003,966.5026310000003,,,,,,,,,,,,,,,,,,,,,,,,,,966.5192694000002,966.5357790000003,966.5357790000003,966.5357790000003,969.5191432000001,j,969.5191779000002,,,969.5191880000002,None,,,1.4595021999998607,0.17173640000009982,,,,,,,,,,00024,001,2025-11-14_18h21.40.405,MST_task,2024.2.2,59.979546974485615,2025-11-14 18h21.45.466299 +0530,
,Scenes\175a.jpg,159,0,159,,,,,,,j,None,,,2.190464599999814,0.15278100000023187,,,,,159,0,159,0,969.5357469999999,,,,,,,,,,,,,,,,,,,,,,,,,,,,,,969.519245,969.5357469999999,970.0527113000003,970.0192446000001,,,,,,,,,,,,,,,,,,,,,,,,,,970.0340868000003,970.0527113000003,970.0527113000003,970.0527113000003,973.0358126000001,j,973.0358567000003,,,973.0358667,None,,,2.190464599999814,0.15278100000023187,,,,,,,,,,00024,001,2025-11-14_18h21.40.405,MST_task,2024.2.2,59.979546974485615,2025-11-14 18h21.45.466299 +0530,
,Scenes\109a.jpg,160,0,160,,,,,,,j,None,,,1.4231024999999136,0.12532759999976406,,,,,160,0,160,0,973.0523278000001,,,,,,,,,,,,,,,,,,,,,,,,,,,,,,973.0359315999999,973.0523278000001,973.5690007000003,973.5358489999999,,,,,,,,,,,,,,,,,,,,,,,,,,973.5560234,973.5690007000003,973.5690007000003,973.5690007000003,976.5524516,j,976.5524879,,,976.5524971,None,,,1.4231024999999136,0.12532759999976406,,,,,,,,,,00024,001,2025-11-14_18h21.40.405,MST_task,2024.2.2,59.979546974485615,2025-11-14 18h21.45.466299 +0530,
,Objects\108a.jpg,161,0,161,,,,,,,j,None,,,1.8762661000000662,0.18955749999986438,,,,,161,0,161,0,976.5688841000001,,,,,,,,,,,,,,,,,,,,,,,,,,,,,,976.5525538000002,976.5688841000001,977.0858421000003,977.0524371000001,,,,,,,,,,,,,,,,,,,,,,,,,,977.0768218000003,977.0858421000003,977.0858421000003,977.0858421000003,980.0689993000001,j,980.0705152,,,980.0705269,None,,,1.8762661000000662,0.18955749999986438,,,,,,,,,,00024,001,2025-11-14_18h21.40.405,MST_task,2024.2.2,59.979546974485615,2025-11-14 18h21.45.466299 +0530,
,Objects\189a.jpg,162,0,162,,,,,,,j,None,,,1.327219199999945,0.18259820000002946,,,,,162,0,162,0,980.0855534000002,,,,,,,,,,,,,,,,,,,,,,,,,,,,,,980.0706193000001,980.0855534000002,980.6021804000002,980.5689507000002,,,,,,,,,,,,,,,,,,,,,,,,,,980.5964173000002,980.6021804000002,980.6021804000002,980.6021804000002,983.5854316999998,j,983.5854689000003,,,983.5854789999999,None,,,1.327219199999945,0.18259820000002946,,,,,,,,,,00024,001,2025-11-14_18h21.40.405,MST_task,2024.2.2,59.979546974485615,2025-11-14 18h21.45.466299 +0530,
,Objects\057a.jpg,163,0,163,,,,,,,None,f,1.383499000000029,None,,,,,,,163,0,163,0,983.6021052000001,,,,,,,,,,,,,,,,,,,,,,,,,,,,,,983.5855756000001,983.6021052000001,,984.0855612999999,,,,,,,,,,,,,,,,,,,,,,,,,,984.1031125,984.1187846000003,984.1187846000003,984.1187846000003,987.1020557000002,None,987.1020923000001,987.1186938000001,987.1186938000001,988.5026698000001,f,1.383499000000029,None,,,,,,,,,,,,00024,001,2025-11-14_18h21.40.405,MST_task,2024.2.2,59.979546974485615,2025-11-14 18h21.45.466299 +0530,
,Objects\190a.jpg,164,0,164,,,,,,,f,None,,,1.9701301999998577,0.17467770000030214,,,,,164,0,164,0,988.5186644999999,,,,,,,,,,,,,,,,,,,,,,,,,,,,,,988.5027516999999,988.5186644999999,989.0353037,989.0021781999999,,,,,,,,,,,,,,,,,,,,,,,,,,989.0178599999999,989.0353037,989.0353037,989.0353037,992.0186570999999,f,992.0187129000001,,,992.0187277,None,,,1.9701301999998577,0.17467770000030214,,,,,,,,,,00024,001,2025-11-14_18h21.40.405,MST_task,2024.2.2,59.979546974485615,2025-11-14 18h21.45.466299 +0530,
,Objects\032a.jpg,165,0,165,,,,,,,j,None,,,2.764310099999875,0.1695281000002069,,,,,165,0,165,0,992.0352873000002,,,,,,,,,,,,,,,,,,,,,,,,,,,,,,992.0187882999999,992.0352873000002,992.5518790000001,992.5187097000003,,,,,,,,,,,,,,,,,,,,,,,,,,992.5424223,992.5518790000001,992.5518790000001,992.5518790000001,995.5352002,j,995.5352333999999,,,995.5352431000001,None,,,2.764310099999875,0.1695281000002069,,,,,,,,,,00024,001,2025-11-14_18h21.40.405,MST_task,2024.2.2,59.979546974485615,2025-11-14 18h21.45.466299 +0530,
,Objects\061a.jpg,166,0,166,,,,,,,j,None,,,1.7210944999997082,0.18552960000033636,,,,,166,0,166,0,995.5518889,,,,,,,,,,,,,,,,,,,,,,,,,,,,,,995.5353275000002,995.5518889,996.0851352,996.0353319999999,,,,,,,,,,,,,,,,,,,,,,,,,,996.0650002000002,996.0851352,996.0851352,996.0851352,999.0517960000002,j,999.0518287,,,999.0518384000002,None,,,1.7210944999997082,0.18552960000033636,,,,,,,,,,00024,001,2025-11-14_18h21.40.405,MST_task,2024.2.2,59.979546974485615,2025-11-14 18h21.45.466299 +0530,
,Objects\132a.jpg,167,0,167,,,,,,,f,None,,,1.0262345999999525,0.20284979999996722,,,,,167,0,167,0,999.0684375000001,,,,,,,,,,,,,,,,,,,,,,,,,,,,,,999.0519238000002,999.0684375000001,999.5850980999999,999.5519524000001,,,,,,,,,,,,,,,,,,,,,,,,,,999.5673377000003,999.5850980999999,999.5850980999999,999.5850980999999,1002.5684257000003,f,1002.5684590999999,,,1002.5684684000003,None,,,1.0262345999999525,0.20284979999996722,,,,,,,,,,00024,001,2025-11-14_18h21.40.405,MST_task,2024.2.2,59.979546974485615,2025-11-14 18h21.45.466299 +0530,
,Scenes\050a.jpg,168,0,168,,,,,,,j,None,,,0.6115170000002763,0.17163709999977073,,,,,168,0,168,0,1002.5850288000001,,,,,,,,,,,,,,,,,,,,,,,,,,,,,,1002.5685533000001,1002.5850288000001,1003.1018917000001,1003.0685799000003,,,,,,,,,,,,,,,,,,,,,,,,,,1003.0935088000001,1003.1018917000001,1003.1018917000001,1003.1018917000001,1006.0850206999999,j,1006.0861920000002,,,1006.0862031000001,None,,,0.6115170000002763,0.17163709999977073,,,,,,,,,,00024,001,2025-11-14_18h21.40.405,MST_task,2024.2.2,59.979546974485615,2025-11-14 18h21.45.466299 +0530,
,Scenes\090a.jpg,169,0,169,,,,,,,j,None,,,0.980852799999866,0.16106390000004467,,,,,169,0,169,0,1006.1016217000001,,,,,,,,,,,,,,,,,,,,,,,,,,,,,,1006.0862878000003,1006.1016217000001,1006.6182785999999,1006.5852043,,,,,,,,,,,,,,,,,,,,,,,,,,1006.6053197000001,1006.6182785999999,1006.6182785999999,1006.6182785999999,1009.6015732000001,j,1009.6016115000002,,,1009.6016219000003,None,,,0.980852799999866,0.16106390000004467,,,,,,,,,,00024,001,2025-11-14_18h21.40.405,MST_task,2024.2.2,59.979546974485615,2025-11-14 18h21.45.466299 +0530,
,Scenes\158a.jpg,170,0,170,,,,,,,j,None,,,2.277150800000072,0.17077579999977388,,,,,170,0,170,0,1009.6181706000002,,,,,,,,,,,,,,,,,,,,,,,,,,,,,,1009.6017155,1009.6181706000002,1010.1348339000001,1010.1017549000003,,,,,,,,,,,,,,,,,,,,,,,,,,1010.1244979000003,1010.1348339000001,1010.1348339000001,1010.1348339000001,1013.1181676000001,j,1013.1182024,,,1013.1182119999999,None,,,2.277150800000072,0.17077579999977388,,,,,,,,,,00024,001,2025-11-14_18h21.40.405,MST_task,2024.2.2,59.979546974485615,2025-11-14 18h21.45.466299 +0530,
,Scenes\183a.jpg,171,0,171,,,,,,,f,None,,,1.28317670000024,0.19838619999973162,,,,,171,0,171,0,1013.1347584,,,,,,,,,,,,,,,,,,,,,,,,,,,,,,1013.1182705000001,1013.1347584,1013.6681300999999,1013.6183463000002,,,,,,,,,,,,,,,,,,,,,,,,,,1013.6456129000003,1013.6681300999999,1013.6681300999999,1013.6681300999999,1016.6348201999999,f,1016.634857,,,1016.6348677000001,None,,,1.28317670000024,0.19838619999973162,,,,,,,,,,00024,001,2025-11-14_18h21.40.405,MST_task,2024.2.2,59.979546974485615,2025-11-14 18h21.45.466299 +0530,
,Scenes\139a.jpg,172,0,172,,,,,,,j,None,,,0.7633321999996951,0.17059710000012274,,,,,172,0,172,0,1016.6515097000001,,,,,,,,,,,,,,,,,,,,,,,,,,,,,,1016.6349644000002,1016.6515097000001,1017.1682507999999,1017.1348959000002,,,,,,,,,,,,,,,,,,,,,,,,,,1017.1490266999999,1017.1682507999999,1017.1682507999999,1017.1682507999999,1020.1513247000003,j,1020.1513605999999,,,1020.1513703,None,,,0.7633321999996951,0.17059710000012274,,,,,,,,,,00024,001,2025-11-14_18h21.40.405,MST_task,2024.2.2,59.979546974485615,2025-11-14 18h21.45.466299 +0530,
,Scenes\186a.jpg,173,0,173,,,,,,,j,None,,,2.853136000000177,None,,,,,173,0,173,0,1020.1679861000002,,,,,,,,,,,,,,,,,,,,,,,,,,,,,,1020.1514562000002,1020.1679861000002,1020.6846046999999,1020.6515463000001,,,,,,,,,,,,,,,,,,,,,,,,,,1020.6668987000003,1020.6846046999999,1020.6846046999999,1020.6846046999999,1023.6679245999999,j,1023.6679600000002,,,1023.6679705000001,None,,,2.853136000000177,None,,,,,,,,,,00024,001,2025-11-14_18h21.40.405,MST_task,2024.2.2,59.979546974485615,2025-11-14 18h21.45.466299 +0530,
,Scenes\088a.jpg,174,0,174,,,,,,,j,None,,,0.70634710000013,0.150205399999777,,,,,174,0,174,0,1023.6845722000003,,,,,,,,,,,,,,,,,,,,,,,,,,,,,,1023.6680279000002,1023.6845722000003,1024.2014933,1024.1681355,,,,,,,,,,,,,,,,,,,,,,,,,,1024.1903088,1024.2014933,1024.2014933,1024.2014933,1027.1845590000003,j,1027.1845911999999,,,1027.1846007,None,,,0.70634710000013,0.150205399999777,,,,,,,,,,00024,001,2025-11-14_18h21.40.405,MST_task,2024.2.2,59.979546974485615,2025-11-14 18h21.45.466299 +0530,
,Objects\063a.jpg,175,0,175,,,,,,,f,None,,,2.1775564999998096,0.2267296999998507,,,,,175,0,175,0,1027.2011584000002,,,,,,,,,,,,,,,,,,,,,,,,,,,,,,1027.1846831000003,1027.2011584000002,1027.7179873999999,1027.6846332,,,,,,,,,,,,,,,,,,,,,,,,,,1027.7018276,1027.7179873999999,1027.7179873999999,1027.7179873999999,1030.7011822,f,1030.7026242000002,,,1030.7026357,None,,,2.1775564999998096,0.2267296999998507,,,,,,,,,,00024,001,2025-11-14_18h21.40.405,MST_task,2024.2.2,59.979546974485615,2025-11-14 18h21.45.466299 +0530,
,Objects\027a.jpg,176,0,176,,,,,,,f,None,,,0.7348354000000654,0.21176220000006651,,,,,176,0,176,0,1030.7177239000002,,,,,,,,,,,,,,,,,,,,,,,,,,,,,,1030.7027229,1030.7177239000002,1031.2511053000003,1031.2013366,,,,,,,,,,,,,,,,,,,,,,,,,,1031.2316664999998,1031.2511053000003,1031.2511053000003,1031.2511053000003,1034.2178517000002,f,1034.2178884999998,,,1034.2178994,None,,,0.7348354000000654,0.21176220000006651,,,,,,,,,,00024,001,2025-11-14_18h21.40.405,MST_task,2024.2.2,59.979546974485615,2025-11-14 18h21.45.466299 +0530,
