thisN,thisTrialN,thisRepN,key_resp_3.keys,key_resp_3.rt,key_resp_3.duration,trials.thisRepN,trials.thisTrialN,trials.thisN,trials.thisIndex,thisRow.t,notes,intro_page.started,text.started,key_resp.started,intro_page.stopped,key_resp.keys,key_resp.rt,key_resp.duration,instructions.started,text_2.started,key_resp_2.started,instructions.stopped,key_resp_2.keys,key_resp_2.rt,key_resp_2.duration,demo1.started,image_1.started,image_2.started,text_7.started,key_resp_6.started,text_9.started,demo1.stopped,key_resp_6.keys,key_resp_6.rt,key_resp_6.duration,demo2.started,image_5.started,image_6.started,text_11.started,text_12.started,key_resp_8.started,demo2.stopped,key_resp_8.keys,key_resp_8.rt,key_resp_8.duration,demo_conclusion.started,text_13.started,key_resp_9.started,demo_conclusion.stopped,key_resp_9.keys,key_resp_9.rt,key_resp_9.duration,start_test.started,text_6.started,key_resp_5.started,start_test.stopped,key_resp_5.keys,key_resp_5.rt,key_resp_5.duration,ISI.started,text_4.started,text_4.stopped,ISI.stopped,routine_1.started,image.started,text_3.started,key_resp_3.started,routine_1.stopped,image_path,position_of_stimuli,trials.key_resp_3.keys,trials.key_resp_3.rt,trials.key_resp_3.duration,End_page.started,text_5.started,key_resp_4.started,End_page.stopped,key_resp_4.keys,key_resp_4.rt,key_resp_4.duration,participant,session,date,expName,psychopyVersion,frameRate,expStart,
,,,,,,,,,,,,0.013097000000016124,0.029402399999980844,0.029402399999980844,3.713244700000132,space,3.633869800000184,None,,,,,,,,,,,,,,,,,,,,,,,,,,,,,,,,,,,,,,,,,,,,,,,,,,,,,,,,,,,,,,,00021,001,2025-11-10_15h11.04.599,MST_test,2024.2.2,60.010429812651914,2025-11-10 15h11.10.457169 +0530,
,,,,,,,,,,,,,,,,,,,3.713285100000121,3.729288600000018,3.729288600000018,16.029486399999996,space,12.295453700000053,None,,,,,,,,,,,,,,,,,,,,,,,,,,,,,,,,,,,,,,,,,,,,,,,,,,,,,,,,00021,001,2025-11-10_15h11.04.599,MST_test,2024.2.2,60.010429812651914,2025-11-10 15h11.10.457169 +0530,
,,,,,,,,,,,,,,,,,,,,,,,,,,16.029511299999967,16.045693100000108,16.045693100000108,16.045693100000108,16.045693100000108,16.045693100000108,21.41250100000002,space,5.357426900000064,None,,,,,,,,,,,,,,,,,,,,,,,,,,,,,,,,,,,,,,,,,,,,,,00021,001,2025-11-10_15h11.04.599,MST_test,2024.2.2,60.010429812651914,2025-11-10 15h11.10.457169 +0530,
,,,,,,,,,,,,,,,,,,,,,,,,,,,,,,,,,,,,21.41252510000004,21.428904099999954,21.428904099999954,21.428904099999954,21.428904099999954,21.428904099999954,22.99594030000003,space,1.5514803000000938,None,,,,,,,,,,,,,,,,,,,,,,,,,,,,,,,,,,,,00021,001,2025-11-10_15h11.04.599,MST_test,2024.2.2,60.010429812651914,2025-11-10 15h11.10.457169 +0530,
,,,,,,,,,,,,,,,,,,,,,,,,,,,,,,,,,,,,,,,,,,,,,,22.995964500000127,23.01220269999999,23.01220269999999,37.87894110000002,space,14.85081439999999,None,,,,,,,,,,,,,,,,,,,,,,,,,,,,,00021,001,2025-11-10_15h11.04.599,MST_test,2024.2.2,60.010429812651914,2025-11-10 15h11.10.457169 +0530,
,,,,,,,,,,,,,,,,,,,,,,,,,,,,,,,,,,,,,,,,,,,,,,,,,,,,,37.8789670000001,37.89524230000006,37.89524230000006,58.22843869999997,space,20.3313763000001,None,,,,,,,,,,,,,,,,,,,,,,00021,001,2025-11-10_15h11.04.599,MST_test,2024.2.2,60.010429812651914,2025-11-10 15h11.10.457169 +0530,
0,0,0,s,7.839640200000076,None,0,0,0,0,58.24475989999996,,,,,,,,,,,,,,,,,,,,,,,,,,,,,,,,,,,,,,,,,,,,,,,,,,58.23149190000004,58.24475989999996,58.76172020000013,58.7282345000001,58.751989900000126,58.76172020000013,58.76172020000013,58.76172020000013,66.61163899999997,Objects\099b.jpg,mid,s,7.839640200000076,None,,,,,,,,00021,001,2025-11-10_15h11.04.599,MST_test,2024.2.2,60.010429812651914,2025-11-10 15h11.10.457169 +0530,
1,0,1,n,4.291047500000104,None,1,0,1,0,66.62790990000008,,,,,,,,,,,,,,,,,,,,,,,,,,,,,,,,,,,,,,,,,,,,,,,,,,66.61173080000003,66.62790990000008,67.16130859999998,67.11145520000014,67.14144580000016,67.16130859999998,67.16130859999998,67.16130859999998,71.4615123000001,Foils\020b.jpg,none,n,4.291047500000104,None,,,,,,,,00021,001,2025-11-10_15h11.04.599,MST_test,2024.2.2,60.010429812651914,2025-11-10 15h11.10.457169 +0530,
2,0,2,s,3.6527457999998205,None,2,0,2,0,71.47792040000013,,,,,,,,,,,,,,,,,,,,,,,,,,,,,,,,,,,,,,,,,,,,,,,,,,71.46159750000015,71.47792040000013,72.0113394,71.96129940000014,71.99565110000003,72.0113394,72.0113394,72.0113394,75.67805280000016,Scenes\046b.jpg,mid,s,3.6527457999998205,None,,,,,,,,00021,001,2025-11-10_15h11.04.599,MST_test,2024.2.2,60.010429812651914,2025-11-10 15h11.10.457169 +0530,
3,0,3,s,4.637950399999909,None,3,0,3,0,75.69437390000007,,,,,,,,,,,,,,,,,,,,,,,,,,,,,,,,,,,,,,,,,,,,,,,,,,75.67813860000001,75.69437390000007,76.2109680000001,76.17796169999997,76.20756530000017,76.2109680000001,76.2109680000001,76.2109680000001,80.86119940000003,Objects\109b.jpg,pre,s,4.637950399999909,None,,,,,,,,00021,001,2025-11-10_15h11.04.599,MST_test,2024.2.2,60.010429812651914,2025-11-10 15h11.10.457169 +0530,
4,0,4,s,2.5510497000000214,None,4,0,4,0,80.87756290000016,,,,,,,,,,,,,,,,,,,,,,,,,,,,,,,,,,,,,,,,,,,,,,,,,,80.8612826000001,80.87756290000016,81.39421930000003,81.36116400000014,81.38126160000002,81.39421930000003,81.39421930000003,81.39421930000003,83.96109690000003,Objects\088b.jpg,pre,s,2.5510497000000214,None,,,,,,,,00021,001,2025-11-10_15h11.04.599,MST_test,2024.2.2,60.010429812651914,2025-11-10 15h11.10.457169 +0530,
5,0,5,n,15.021845700000085,None,5,0,5,0,83.97749220000014,,,,,,,,,,,,,,,,,,,,,,,,,,,,,,,,,,,,,,,,,,,,,,,,,,83.96117330000015,83.97749220000014,84.49417889999995,84.46096780000016,84.48198130000014,84.49417889999995,84.49417889999995,84.49417889999995,99.52752360000022,Foils\033a.jpg,none,n,15.021845700000085,None,,,,,,,,00021,001,2025-11-10_15h11.04.599,MST_test,2024.2.2,60.010429812651914,2025-11-10 15h11.10.457169 +0530,
6,0,6,o,1.4028174999998555,None,6,0,6,0,99.54384949999985,,,,,,,,,,,,,,,,,,,,,,,,,,,,,,,,,,,,,,,,,,,,,,,,,,99.52760350000017,99.54384949999985,100.07745139999997,100.02740429999994,100.05639340000016,100.07745139999997,100.07745139999997,100.07745139999997,101.49415559999989,Scenes\177b.jpg,post,o,1.4028174999998555,None,,,,,,,,00021,001,2025-11-10_15h11.04.599,MST_test,2024.2.2,60.010429812651914,2025-11-10 15h11.10.457169 +0530,
7,0,7,o,1.2239062000003287,None,7,0,7,0,101.51042589999997,,,,,,,,,,,,,,,,,,,,,,,,,,,,,,,,,,,,,,,,,,,,,,,,,,101.4942286999999,101.51042589999997,102.01042009999992,101.99395069999991,102.00362880000012,102.01042009999992,102.01042009999992,102.01042009999992,103.2441044000002,Objects\177a.jpg,pre,o,1.2239062000003287,None,,,,,,,,00021,001,2025-11-10_15h11.04.599,MST_test,2024.2.2,60.010429812651914,2025-11-10 15h11.10.457169 +0530,
8,0,8,s,3.5237621000001127,None,8,0,8,0,103.26042180000013,,,,,,,,,,,,,,,,,,,,,,,,,,,,,,,,,,,,,,,,,,,,,,,,,,103.24418270000024,103.26042180000013,103.7772574999999,103.7439402,103.77267080000001,103.7772574999999,103.7772574999999,103.7772574999999,107.31070910000017,Foils\scenes6.jpg,none,s,3.5237621000001127,None,,,,,,,,00021,001,2025-11-10_15h11.04.599,MST_test,2024.2.2,60.010429812651914,2025-11-10 15h11.10.457169 +0530,
9,0,9,o,1.1407662999999957,None,9,0,9,0,107.32698019999998,,,,,,,,,,,,,,,,,,,,,,,,,,,,,,,,,,,,,,,,,,,,,,,,,,107.31078650000018,107.32698019999998,107.84381979999989,107.81061640000007,107.8240423000002,107.84381979999989,107.84381979999989,107.84381979999989,108.99391800000012,Scenes\094a.jpg,mid,o,1.1407662999999957,None,,,,,,,,00021,001,2025-11-10_15h11.04.599,MST_test,2024.2.2,60.010429812651914,2025-11-10 15h11.10.457169 +0530,
10,0,10,o,0.7096971999999369,None,10,0,10,0,109.0102938,,,,,,,,,,,,,,,,,,,,,,,,,,,,,,,,,,,,,,,,,,,,,,,,,,108.99399100000028,109.0102938,109.52692699999989,109.49375150000014,109.51015150000012,109.52692699999989,109.52692699999989,109.52692699999989,110.24402390000023,Objects\077a.jpg,pre,o,0.7096971999999369,None,,,,,,,,00021,001,2025-11-10_15h11.04.599,MST_test,2024.2.2,60.010429812651914,2025-11-10 15h11.10.457169 +0530,
11,0,11,o,0.7159999000000425,None,11,0,11,0,110.26027900000008,,,,,,,,,,,,,,,,,,,,,,,,,,,,,,,,,,,,,,,,,,,,,,,,,,110.24411009999994,110.26027900000008,110.76028069999984,110.74382590000005,110.75342360000013,110.76028069999984,110.76028069999984,110.76028069999984,111.47721349999983,Objects\188a.jpg,post,o,0.7159999000000425,None,,,,,,,,00021,001,2025-11-10_15h11.04.599,MST_test,2024.2.2,60.010429812651914,2025-11-10 15h11.10.457169 +0530,
12,0,12,o,0.960399999999936,None,12,0,12,0,111.49358029999985,,,,,,,,,,,,,,,,,,,,,,,,,,,,,,,,,,,,,,,,,,,,,,,,,,111.47729170000002,111.49358029999985,112.01023750000013,111.97703420000016,111.9886375000001,112.01023750000013,112.01023750000013,112.01023750000013,112.97716300000002,Scenes\182a.jpg,post,o,0.960399999999936,None,,,,,,,,00021,001,2025-11-10_15h11.04.599,MST_test,2024.2.2,60.010429812651914,2025-11-10 15h11.10.457169 +0530,
13,0,13,o,0.5051153000003978,None,13,0,13,0,112.99353999999994,,,,,,,,,,,,,,,,,,,,,,,,,,,,,,,,,,,,,,,,,,,,,,,,,,112.97723709999991,112.99353999999994,113.51020400000016,113.47700280000026,113.49498919999996,113.51020400000016,113.51020400000016,113.51020400000016,114.02721120000024,Scenes\092a.jpg,pre,o,0.5051153000003978,None,,,,,,,,00021,001,2025-11-10_15h11.04.599,MST_test,2024.2.2,60.010429812651914,2025-11-10 15h11.10.457169 +0530,
14,0,14,o,0.7440403000000515,None,14,0,14,0,114.04352479999989,,,,,,,,,,,,,,,,,,,,,,,,,,,,,,,,,,,,,,,,,,,,,,,,,,114.02728539999998,114.04352479999989,114.56018530000028,114.52701290000005,114.5556544000001,114.56018530000028,114.56018530000028,114.56018530000028,115.31045330000006,Objects\100b.jpg,pre,o,0.7440403000000515,None,,,,,,,,00021,001,2025-11-10_15h11.04.599,MST_test,2024.2.2,60.010429812651914,2025-11-10 15h11.10.457169 +0530,
15,0,15,o,5.633454400000119,None,15,0,15,0,115.32688400000006,,,,,,,,,,,,,,,,,,,,,,,,,,,,,,,,,,,,,,,,,,,,,,,,,,115.31052810000028,115.32688400000006,115.8437801,115.81039940000028,115.83796350000011,115.8437801,115.8437801,115.8437801,121.49361679999993,Foils\scenes3.jpg,none,o,5.633454400000119,None,,,,,,,,00021,001,2025-11-10_15h11.04.599,MST_test,2024.2.2,60.010429812651914,2025-11-10 15h11.10.457169 +0530,
16,0,16,o,1.9951958999999988,None,16,0,16,0,121.51001940000015,,,,,,,,,,,,,,,,,,,,,,,,,,,,,,,,,,,,,,,,,,,,,,,,,,121.49369460000025,121.51001940000015,122.04357310000023,121.99347530000023,122.02359019999994,122.04357310000023,122.04357310000023,122.04357310000023,124.04356529999995,Scenes\143b.jpg,pre,o,1.9951958999999988,None,,,,,,,,00021,001,2025-11-10_15h11.04.599,MST_test,2024.2.2,60.010429812651914,2025-11-10 15h11.10.457169 +0530,
17,0,17,s,2.576632999999674,None,17,0,17,0,124.05996910000022,,,,,,,,,,,,,,,,,,,,,,,,,,,,,,,,,,,,,,,,,,,,,,,,,,124.04364190000024,124.05996910000022,124.59332080000013,124.54338850000022,124.57837370000016,124.59332080000013,124.59332080000013,124.59332080000013,127.17693050000025,Scenes\109b.jpg,post,s,2.576632999999674,None,,,,,,,,00021,001,2025-11-10_15h11.04.599,MST_test,2024.2.2,60.010429812651914,2025-11-10 15h11.10.457169 +0530,
18,0,18,o,1.3069480999997722,None,18,0,18,0,127.19327180000028,,,,,,,,,,,,,,,,,,,,,,,,,,,,,,,,,,,,,,,,,,,,,,,,,,127.17701620000025,127.19327180000028,127.70987890000015,127.67684280000003,127.6925368000002,127.70987890000015,127.70987890000015,127.70987890000015,129.02678300000025,Objects\002a.jpg,pre,o,1.3069480999997722,None,,,,,,,,00021,001,2025-11-10_15h11.04.599,MST_test,2024.2.2,60.010429812651914,2025-11-10 15h11.10.457169 +0530,
19,0,19,o,1.8029771999999866,None,19,0,19,0,129.04319329999998,,,,,,,,,,,,,,,,,,,,,,,,,,,,,,,,,,,,,,,,,,,,,,,,,,129.02685470000006,129.04319329999998,129.5598141999999,129.52668189999986,129.5532908,129.5598141999999,129.5598141999999,129.5598141999999,131.37673829999994,Objects\089b.jpg,mid,o,1.8029771999999866,None,,,,,,,,00021,001,2025-11-10_15h11.04.599,MST_test,2024.2.2,60.010429812651914,2025-11-10 15h11.10.457169 +0530,
20,0,20,s,1.16049780000003,None,20,0,20,0,131.39313519999996,,,,,,,,,,,,,,,,,,,,,,,,,,,,,,,,,,,,,,,,,,,,,,,,,,131.37682129999985,131.39313519999996,131.92645810000022,131.8765874999999,131.9090498999999,131.92645810000022,131.92645810000022,131.92645810000022,133.09351749999996,Foils\081a.jpg,none,s,1.16049780000003,None,,,,,,,,00021,001,2025-11-10_15h11.04.599,MST_test,2024.2.2,60.010429812651914,2025-11-10 15h11.10.457169 +0530,
21,0,21,n,1.6822793000001184,None,21,0,21,0,133.10976970000002,,,,,,,,,,,,,,,,,,,,,,,,,,,,,,,,,,,,,,,,,,,,,,,,,,133.09359900000027,133.10976970000002,133.62642809999988,133.59321750000026,133.6122252,133.62642809999988,133.62642809999988,133.62642809999988,135.31013209999992,Scenes\082a.jpg,pre,n,1.6822793000001184,None,,,,,,,,00021,001,2025-11-10_15h11.04.599,MST_test,2024.2.2,60.010429812651914,2025-11-10 15h11.10.457169 +0530,
22,0,22,o,5.3560944000000745,None,22,0,22,0,135.32638720000023,,,,,,,,,,,,,,,,,,,,,,,,,,,,,,,,,,,,,,,,,,,,,,,,,,135.31021370000008,135.32638720000023,135.8430142000002,135.80985969999983,135.8300760000002,135.8430142000002,135.8430142000002,135.8430142000002,141.2098414000002,Scenes\058b.jpg,pre,o,5.3560944000000745,None,,,,,,,,00021,001,2025-11-10_15h11.04.599,MST_test,2024.2.2,60.010429812651914,2025-11-10 15h11.10.457169 +0530,
23,0,23,s,1.9336514000001443,None,23,0,23,0,141.22625740000012,,,,,,,,,,,,,,,,,,,,,,,,,,,,,,,,,,,,,,,,,,,,,,,,,,141.20992120000028,141.22625740000012,141.75973169999997,141.70984439999984,141.7446187999999,141.75973169999997,141.75973169999997,141.75973169999997,143.7097933,Scenes\034b.jpg,mid,s,1.9336514000001443,None,,,,,,,,00021,001,2025-11-10_15h11.04.599,MST_test,2024.2.2,60.010429812651914,2025-11-10 15h11.10.457169 +0530,
24,0,24,s,1.99758410000004,None,24,0,24,0,143.72620180000013,,,,,,,,,,,,,,,,,,,,,,,,,,,,,,,,,,,,,,,,,,,,,,,,,,143.70986600000015,143.72620180000013,144.24282330000005,144.2096630000001,144.22709160000022,144.24282330000005,144.24282330000005,144.24282330000005,146.24319049999986,Scenes\093a.jpg,post,s,1.99758410000004,None,,,,,,,,00021,001,2025-11-10_15h11.04.599,MST_test,2024.2.2,60.010429812651914,2025-11-10 15h11.10.457169 +0530,
25,0,25,n,2.7468590999997105,None,25,0,25,0,146.25947339999993,,,,,,,,,,,,,,,,,,,,,,,,,,,,,,,,,,,,,,,,,,,,,,,,,,146.24327390000008,146.25947339999993,146.7763433,146.74297410000008,146.76753169999984,146.7763433,146.7763433,146.7763433,149.52634450000005,Foils\106a.jpg,none,n,2.7468590999997105,None,,,,,,,,00021,001,2025-11-10_15h11.04.599,MST_test,2024.2.2,60.010429812651914,2025-11-10 15h11.10.457169 +0530,
26,0,26,o,1.7678851000000577,None,26,0,26,0,149.54274680000026,,,,,,,,,,,,,,,,,,,,,,,,,,,,,,,,,,,,,,,,,,,,,,,,,,149.52641919999996,149.54274680000026,150.04269299999987,150.02633530000003,150.03637590000017,150.04269299999987,150.04269299999987,150.04269299999987,151.82649440000023,Objects\103a.jpg,post,o,1.7678851000000577,None,,,,,,,,00021,001,2025-11-10_15h11.04.599,MST_test,2024.2.2,60.010429812651914,2025-11-10 15h11.10.457169 +0530,
27,0,27,o,1.207001499999933,None,27,0,27,0,151.84268800000018,,,,,,,,,,,,,,,,,,,,,,,,,,,,,,,,,,,,,,,,,,,,,,,,,,151.82657470000004,151.84268800000018,152.35967280000023,152.32620020000013,152.34164779999992,152.35967280000023,152.35967280000023,152.35967280000023,153.57622119999996,Scenes\088a.jpg,mid,o,1.207001499999933,None,,,,,,,,00021,001,2025-11-10_15h11.04.599,MST_test,2024.2.2,60.010429812651914,2025-11-10 15h11.10.457169 +0530,
28,0,28,s,2.3366792000001624,None,28,0,28,0,153.5926118000002,,,,,,,,,,,,,,,,,,,,,,,,,,,,,,,,,,,,,,,,,,,,,,,,,,153.57629589999988,153.5926118000002,154.12612040000022,154.0761634999999,154.1056609000002,154.12612040000022,154.12612040000022,154.12612040000022,156.4761784000002,Scenes\015b.jpg,pre,s,2.3366792000001624,None,,,,,,,,00021,001,2025-11-10_15h11.04.599,MST_test,2024.2.2,60.010429812651914,2025-11-10 15h11.10.457169 +0530,
29,0,29,s,3.359406999999919,None,29,0,29,0,156.49254569999994,,,,,,,,,,,,,,,,,,,,,,,,,,,,,,,,,,,,,,,,,,,,,,,,,,156.47626760000003,156.49254569999994,157.00939500000004,156.9762337000002,156.9870079000002,157.00939500000004,157.00939500000004,157.00939500000004,160.3762256,Scenes\136a.jpg,mid,s,3.359406999999919,None,,,,,,,,00021,001,2025-11-10_15h11.04.599,MST_test,2024.2.2,60.010429812651914,2025-11-10 15h11.10.457169 +0530,
30,0,30,n,2.176694399999633,None,30,0,30,0,160.3924947999999,,,,,,,,,,,,,,,,,,,,,,,,,,,,,,,,,,,,,,,,,,,,,,,,,,160.3763127000002,160.3924947999999,160.9094269000002,160.8759341,160.90420790000007,160.9094269000002,160.9094269000002,160.9094269000002,163.09266530000014,Foils\009a.jpg,none,n,2.176694399999633,None,,,,,,,,00021,001,2025-11-10_15h11.04.599,MST_test,2024.2.2,60.010429812651914,2025-11-10 15h11.10.457169 +0530,
31,0,31,s,2.188375499999893,None,31,0,31,0,163.10907010000028,,,,,,,,,,,,,,,,,,,,,,,,,,,,,,,,,,,,,,,,,,,,,,,,,,163.09274230000028,163.10907010000028,163.6090567000001,163.59254980000014,163.6022014,163.6090567000001,163.6090567000001,163.6090567000001,165.80929070000002,Objects\026a.jpg,mid,s,2.188375499999893,None,,,,,,,,00021,001,2025-11-10_15h11.04.599,MST_test,2024.2.2,60.010429812651914,2025-11-10 15h11.10.457169 +0530,
32,0,32,n,1.7580681999997978,None,32,0,32,0,165.82570859999987,,,,,,,,,,,,,,,,,,,,,,,,,,,,,,,,,,,,,,,,,,,,,,,,,,165.8093683000002,165.82570859999987,166.34256510000023,166.3092256,166.3223484,166.34256510000023,166.34256510000023,166.34256510000023,168.10937749999994,Scenes\096a.jpg,pre,n,1.7580681999997978,None,,,,,,,,00021,001,2025-11-10_15h11.04.599,MST_test,2024.2.2,60.010429812651914,2025-11-10 15h11.10.457169 +0530,
33,0,33,s,2.2667883000003712,None,33,0,33,0,168.12567230000013,,,,,,,,,,,,,,,,,,,,,,,,,,,,,,,,,,,,,,,,,,,,,,,,,,168.10945880000008,168.12567230000013,168.64230099999986,168.60907739999993,168.62570140000025,168.64230099999986,168.64230099999986,168.64230099999986,170.90946859999985,Objects\048a.jpg,pre,s,2.2667883000003712,None,,,,,,,,00021,001,2025-11-10_15h11.04.599,MST_test,2024.2.2,60.010429812651914,2025-11-10 15h11.10.457169 +0530,
34,0,34,o,2.9241495999999643,None,34,0,34,0,170.92556100000002,,,,,,,,,,,,,,,,,,,,,,,,,,,,,,,,,,,,,,,,,,,,,,,,,,170.90955750000012,170.92556100000002,171.44242269999995,171.40916560000005,171.42863810000017,171.44242269999995,171.44242269999995,171.44242269999995,174.3758839000002,Foils\scenes18.jpg,none,o,2.9241495999999643,None,,,,,,,,00021,001,2025-11-10_15h11.04.599,MST_test,2024.2.2,60.010429812651914,2025-11-10 15h11.10.457169 +0530,
35,0,35,s,2.9981469000003926,None,35,0,35,0,174.3921851,,,,,,,,,,,,,,,,,,,,,,,,,,,,,,,,,,,,,,,,,,,,,,,,,,174.37596440000016,174.3921851,174.94243570000026,174.8756518,174.92269239999996,174.94243570000026,174.94243570000026,174.94243570000026,177.94257400000015,Foils\scenes27.jpg,none,s,2.9981469000003926,None,,,,,,,,00021,001,2025-11-10_15h11.04.599,MST_test,2024.2.2,60.010429812651914,2025-11-10 15h11.10.457169 +0530,
36,0,36,n,1.6372584999999162,None,36,0,36,0,177.9587744999999,,,,,,,,,,,,,,,,,,,,,,,,,,,,,,,,,,,,,,,,,,,,,,,,,,177.94264969999995,177.9587744999999,178.4756953000001,178.4422614,178.47214440000016,178.4756953000001,178.4756953000001,178.4756953000001,180.1257267000001,Foils\scenes16.jpg,none,n,1.6372584999999162,None,,,,,,,,00021,001,2025-11-10_15h11.04.599,MST_test,2024.2.2,60.010429812651914,2025-11-10 15h11.10.457169 +0530,
37,0,37,o,2.265815400000065,None,37,0,37,0,180.14213370000016,,,,,,,,,,,,,,,,,,,,,,,,,,,,,,,,,,,,,,,,,,,,,,,,,,180.12580650000018,180.14213370000016,180.65878210000028,180.62556080000013,180.6406738999999,180.65878210000028,180.65878210000028,180.65878210000028,182.92566699999998,Scenes\137a.jpg,post,o,2.265815400000065,None,,,,,,,,00021,001,2025-11-10_15h11.04.599,MST_test,2024.2.2,60.010429812651914,2025-11-10 15h11.10.457169 +0530,
38,0,38,s,1.2393084000000272,None,38,0,38,0,182.94207589999996,,,,,,,,,,,,,,,,,,,,,,,,,,,,,,,,,,,,,,,,,,,,,,,,,,182.92574719999993,182.94207589999996,183.47560729999987,183.42553480000015,183.45462150000003,183.47560729999987,183.47560729999987,183.47560729999987,184.72573920000013,Scenes\102b.jpg,mid,s,1.2393084000000272,None,,,,,,,,00021,001,2025-11-10_15h11.04.599,MST_test,2024.2.2,60.010429812651914,2025-11-10 15h11.10.457169 +0530,
39,0,39,s,1.653972199999771,None,39,0,39,0,184.74202830000013,,,,,,,,,,,,,,,,,,,,,,,,,,,,,,,,,,,,,,,,,,,,,,,,,,184.72581720000017,184.74202830000013,185.25890040000013,185.22554230000014,185.2369137999999,185.25890040000013,185.25890040000013,185.25890040000013,186.92569120000007,Scenes\127a.jpg,mid,s,1.653972199999771,None,,,,,,,,00021,001,2025-11-10_15h11.04.599,MST_test,2024.2.2,60.010429812651914,2025-11-10 15h11.10.457169 +0530,
40,0,40,n,2.177705600000081,None,40,0,40,0,186.94198619999997,,,,,,,,,,,,,,,,,,,,,,,,,,,,,,,,,,,,,,,,,,,,,,,,,,186.92577680000022,186.94198619999997,187.4589535,187.42544820000012,187.4491455000002,187.4589535,187.4589535,187.4589535,189.6421974,Foils\058a.jpg,none,n,2.177705600000081,None,,,,,,,,00021,001,2025-11-10_15h11.04.599,MST_test,2024.2.2,60.010429812651914,2025-11-10 15h11.10.457169 +0530,
41,0,41,s,1.262066600000253,None,41,0,41,0,189.65856870000016,,,,,,,,,,,,,,,,,,,,,,,,,,,,,,,,,,,,,,,,,,,,,,,,,,189.64227110000002,189.65856870000016,190.1922039000001,190.14214649999985,190.1702132999999,190.1922039000001,190.1922039000001,190.1922039000001,191.45878240000002,Scenes\051b.jpg,post,s,1.262066600000253,None,,,,,,,,00021,001,2025-11-10_15h11.04.599,MST_test,2024.2.2,60.010429812651914,2025-11-10 15h11.10.457169 +0530,
42,0,42,n,1.2645198000000164,None,42,0,42,0,191.47522890000027,,,,,,,,,,,,,,,,,,,,,,,,,,,,,,,,,,,,,,,,,,,,,,,,,,191.45885709999993,191.47522890000027,192.09213260000024,191.95869700000003,192.07373719999987,192.09213260000024,192.09213260000024,192.09213260000024,193.35894480000024,Foils\scenes25.jpg,none,n,1.2645198000000164,None,,,,,,,,00021,001,2025-11-10_15h11.04.599,MST_test,2024.2.2,60.010429812651914,2025-11-10 15h11.10.457169 +0530,
43,0,43,o,1.1951772000002165,None,43,0,43,0,193.37518550000004,,,,,,,,,,,,,,,,,,,,,,,,,,,,,,,,,,,,,,,,,,,,,,,,,,193.3590279,193.37518550000004,193.8921209,193.85862700000007,193.88489570000002,193.8921209,193.8921209,193.8921209,195.09212340000022,Scenes\022b.jpg,mid,o,1.1951772000002165,None,,,,,,,,00021,001,2025-11-10_15h11.04.599,MST_test,2024.2.2,60.010429812651914,2025-11-10 15h11.10.457169 +0530,
44,0,44,o,0.7446322000000691,None,44,0,44,0,195.1084808999999,,,,,,,,,,,,,,,,,,,,,,,,,,,,,,,,,,,,,,,,,,,,,,,,,,195.09220030000006,195.1084808999999,195.64198540000007,195.59195409999984,195.6298065000001,195.64198540000007,195.64198540000007,195.64198540000007,196.3920363000002,Objects\062b.jpg,mid,o,0.7446322000000691,None,,,,,,,,00021,001,2025-11-10_15h11.04.599,MST_test,2024.2.2,60.010429812651914,2025-11-10 15h11.10.457169 +0530,
45,0,45,s,1.2069504000000961,None,45,0,45,0,196.40845560000025,,,,,,,,,,,,,,,,,,,,,,,,,,,,,,,,,,,,,,,,,,,,,,,,,,196.3921051000002,196.40845560000025,196.92527340000015,196.89194339999995,196.9120370999999,196.92527340000015,196.92527340000015,196.92527340000015,198.14198820000001,Scenes\071a.jpg,post,s,1.2069504000000961,None,,,,,,,,00021,001,2025-11-10_15h11.04.599,MST_test,2024.2.2,60.010429812651914,2025-11-10 15h11.10.457169 +0530,
46,0,46,o,0.9639772999998968,None,46,0,46,0,198.15838510000003,,,,,,,,,,,,,,,,,,,,,,,,,,,,,,,,,,,,,,,,,,,,,,,,,,198.142061,198.15838510000003,198.67525049999995,198.64186759999984,198.65942429999996,198.67525049999995,198.67525049999995,198.67525049999995,199.6420293000001,Scenes\061a.jpg,post,o,0.9639772999998968,None,,,,,,,,00021,001,2025-11-10_15h11.04.599,MST_test,2024.2.2,60.010429812651914,2025-11-10 15h11.10.457169 +0530,
47,0,47,s,1.417631899999833,None,47,0,47,0,199.6584238999999,,,,,,,,,,,,,,,,,,,,,,,,,,,,,,,,,,,,,,,,,,,,,,,,,,199.64210439999988,199.6584238999999,200.17506349999985,200.1418137999999,200.16748970000026,200.17506349999985,200.17506349999985,200.17506349999985,201.60872599999993,Objects\025b.jpg,pre,s,1.417631899999833,None,,,,,,,,00021,001,2025-11-10_15h11.04.599,MST_test,2024.2.2,60.010429812651914,2025-11-10 15h11.10.457169 +0530,
48,0,48,s,1.0315064000001257,None,48,0,48,0,201.6250015999999,,,,,,,,,,,,,,,,,,,,,,,,,,,,,,,,,,,,,,,,,,,,,,,,,,201.60880410000027,201.6250015999999,202.12499079999998,202.10846709999987,202.11780080000017,202.12499079999998,202.12499079999998,202.12499079999998,203.15856919999987,Objects\091a.jpg,post,s,1.0315064000001257,None,,,,,,,,00021,001,2025-11-10_15h11.04.599,MST_test,2024.2.2,60.010429812651914,2025-11-10 15h11.10.457169 +0530,
49,0,49,s,0.7298244000003251,None,49,0,49,0,203.17495270000018,,,,,,,,,,,,,,,,,,,,,,,,,,,,,,,,,,,,,,,,,,,,,,,,,,203.15864360000023,203.17495270000018,203.6916030000002,203.6584200000002,203.6790688000001,203.6916030000002,203.6916030000002,203.6916030000002,204.42520420000028,Objects\018b.jpg,pre,s,0.7298244000003251,None,,,,,,,,00021,001,2025-11-10_15h11.04.599,MST_test,2024.2.2,60.010429812651914,2025-11-10 15h11.10.457169 +0530,
50,0,50,o,0.9601792000003115,None,50,0,50,0,204.4416067000002,,,,,,,,,,,,,,,,,,,,,,,,,,,,,,,,,,,,,,,,,,,,,,,,,,204.42527139999993,204.4416067000002,204.9582307999999,204.92515869999988,204.95112530000006,204.9582307999999,204.9582307999999,204.9582307999999,205.92518999999993,Objects\142b.jpg,post,o,0.9601792000003115,None,,,,,,,,00021,001,2025-11-10_15h11.04.599,MST_test,2024.2.2,60.010429812651914,2025-11-10 15h11.10.457169 +0530,
51,0,51,s,1.4604583000000275,None,51,0,51,0,205.94157730000006,,,,,,,,,,,,,,,,,,,,,,,,,,,,,,,,,,,,,,,,,,,,,,,,,,205.92526469999984,205.94157730000006,206.45822950000002,206.42504370000006,206.4452679000001,206.45822950000002,206.45822950000002,206.45822950000002,207.92512209999995,Objects\004b.jpg,pre,s,1.4604583000000275,None,,,,,,,,00021,001,2025-11-10_15h11.04.599,MST_test,2024.2.2,60.010429812651914,2025-11-10 15h11.10.457169 +0530,
52,0,52,o,1.0517502000002423,None,52,0,52,0,207.94155660000024,,,,,,,,,,,,,,,,,,,,,,,,,,,,,,,,,,,,,,,,,,,,,,,,,,207.92519100000027,207.94155660000024,208.45863430000009,208.42498509999996,208.446007,208.45863430000009,208.45863430000009,208.45863430000009,209.52511860000004,Scenes\043a.jpg,pre,o,1.0517502000002423,None,,,,,,,,00021,001,2025-11-10_15h11.04.599,MST_test,2024.2.2,60.010429812651914,2025-11-10 15h11.10.457169 +0530,
53,0,53,o,0.7442883000003349,None,53,0,53,0,209.5414968,,,,,,,,,,,,,,,,,,,,,,,,,,,,,,,,,,,,,,,,,,,,,,,,,,209.52519170000005,209.5414968,210.05809780000027,210.0249487000001,210.0510075000002,210.05809780000027,210.05809780000027,210.05809780000027,210.80844109999998,Scenes\158a.jpg,post,o,0.7442883000003349,None,,,,,,,,00021,001,2025-11-10_15h11.04.599,MST_test,2024.2.2,60.010429812651914,2025-11-10 15h11.10.457169 +0530,
54,0,54,s,2.1876108999999815,None,54,0,54,0,210.82479839999996,,,,,,,,,,,,,,,,,,,,,,,,,,,,,,,,,,,,,,,,,,,,,,,,,,210.80850839999994,210.82479839999996,211.34137599999985,211.30824819999998,211.33704540000008,211.34137599999985,211.34137599999985,211.34137599999985,213.54184889999988,Scenes\111b.jpg,post,s,2.1876108999999815,None,,,,,,,,00021,001,2025-11-10_15h11.04.599,MST_test,2024.2.2,60.010429812651914,2025-11-10 15h11.10.457169 +0530,
55,0,55,o,3.116516899999624,None,55,0,55,0,213.5580769000003,,,,,,,,,,,,,,,,,,,,,,,,,,,,,,,,,,,,,,,,,,,,,,,,,,213.54192909999983,213.5580769000003,214.07476399999996,214.04147550000016,214.0566643000002,214.07476399999996,214.07476399999996,214.07476399999996,217.19158509999988,Objects\101a.jpg,pre,o,3.116516899999624,None,,,,,,,,00021,001,2025-11-10_15h11.04.599,MST_test,2024.2.2,60.010429812651914,2025-11-10 15h11.10.457169 +0530,
56,0,56,o,1.749519699999837,None,56,0,56,0,217.2079945999999,,,,,,,,,,,,,,,,,,,,,,,,,,,,,,,,,,,,,,,,,,,,,,,,,,217.19166020000011,217.2079945999999,217.72484369999984,217.69143080000003,217.7076218000002,217.72484369999984,217.72484369999984,217.72484369999984,219.47501749999992,Scenes\179a.jpg,pre,o,1.749519699999837,None,,,,,,,,00021,001,2025-11-10_15h11.04.599,MST_test,2024.2.2,60.010429812651914,2025-11-10 15h11.10.457169 +0530,
57,0,57,n,1.3671620000000075,None,57,0,57,0,219.49125170000025,,,,,,,,,,,,,,,,,,,,,,,,,,,,,,,,,,,,,,,,,,,,,,,,,,219.47509979999995,219.49125170000025,220.0078893,219.97483939999984,219.9957199999999,220.0078893,220.0078893,220.0078893,221.39148239999986,Foils\050a.jpg,none,n,1.3671620000000075,None,,,,,,,,00021,001,2025-11-10_15h11.04.599,MST_test,2024.2.2,60.010429812651914,2025-11-10 15h11.10.457169 +0530,
58,0,58,s,1.0885303000000022,None,58,0,58,0,221.40786430000026,,,,,,,,,,,,,,,,,,,,,,,,,,,,,,,,,,,,,,,,,,,,,,,,,,221.39155699999992,221.40786430000026,221.90778630000023,221.8913496,221.90082080000002,221.90778630000023,221.90778630000023,221.90778630000023,223.0080713000002,Objects\150a.jpg,post,s,1.0885303000000022,None,,,,,,,,00021,001,2025-11-10_15h11.04.599,MST_test,2024.2.2,60.010429812651914,2025-11-10 15h11.10.457169 +0530,
59,0,59,s,2.2797606999997697,None,59,0,59,0,223.02453130000004,,,,,,,,,,,,,,,,,,,,,,,,,,,,,,,,,,,,,,,,,,,,,,,,,,223.00813879999987,223.02453130000004,223.54113499999994,223.5079571000001,223.53371730000026,223.54113499999994,223.54113499999994,223.54113499999994,225.82472740000003,Objects\130b.jpg,post,s,2.2797606999997697,None,,,,,,,,00021,001,2025-11-10_15h11.04.599,MST_test,2024.2.2,60.010429812651914,2025-11-10 15h11.10.457169 +0530,
60,0,60,n,1.8704038999999284,None,60,0,60,0,225.84118279999984,,,,,,,,,,,,,,,,,,,,,,,,,,,,,,,,,,,,,,,,,,,,,,,,,,225.82480669999995,225.84118279999984,226.35838169999988,226.32458540000016,226.3535207,226.35838169999988,226.35838169999988,226.35838169999988,228.24142429999984,Foils\082a.jpg,none,n,1.8704038999999284,None,,,,,,,,00021,001,2025-11-10_15h11.04.599,MST_test,2024.2.2,60.010429812651914,2025-11-10 15h11.10.457169 +0530,
61,0,61,o,1.5382583999999042,None,61,0,61,0,228.2577510000001,,,,,,,,,,,,,,,,,,,,,,,,,,,,,,,,,,,,,,,,,,,,,,,,,,228.24150379999992,228.2577510000001,228.7745914000002,228.74118660000022,228.76919850000013,228.7745914000002,228.7745914000002,228.7745914000002,230.32462170000008,Scenes\035a.jpg,mid,o,1.5382583999999042,None,,,,,,,,00021,001,2025-11-10_15h11.04.599,MST_test,2024.2.2,60.010429812651914,2025-11-10 15h11.10.457169 +0530,
62,0,62,o,1.8356485000003886,None,62,0,62,0,230.3410669,,,,,,,,,,,,,,,,,,,,,,,,,,,,,,,,,,,,,,,,,,,,,,,,,,230.32470980000016,230.3410669,230.85759450000023,230.82453450000003,230.83949470000016,230.85759450000023,230.85759450000023,230.85759450000023,232.707895,Objects\122a.jpg,post,o,1.8356485000003886,None,,,,,,,,00021,001,2025-11-10_15h11.04.599,MST_test,2024.2.2,60.010429812651914,2025-11-10 15h11.10.457169 +0530,
63,0,63,s,1.2529942999999548,None,63,0,63,0,232.72423630000003,,,,,,,,,,,,,,,,,,,,,,,,,,,,,,,,,,,,,,,,,,,,,,,,,,232.70797660000017,232.72423630000003,233.22418470000002,233.20766559999993,233.21732950000023,233.22418470000002,233.22418470000002,233.22418470000002,234.49121960000002,Objects\090a.jpg,post,s,1.2529942999999548,None,,,,,,,,00021,001,2025-11-10_15h11.04.599,MST_test,2024.2.2,60.010429812651914,2025-11-10 15h11.10.457169 +0530,
64,0,64,n,1.4153274000000238,None,64,0,64,0,234.50751300000002,,,,,,,,,,,,,,,,,,,,,,,,,,,,,,,,,,,,,,,,,,,,,,,,,,234.49129369999991,234.50751300000002,235.02435550000018,234.99100260000023,235.01422839999987,235.02435550000018,235.02435550000018,235.02435550000018,236.4410987000001,Foils\scenes11.jpg,none,n,1.4153274000000238,None,,,,,,,,00021,001,2025-11-10_15h11.04.599,MST_test,2024.2.2,60.010429812651914,2025-11-10 15h11.10.457169 +0530,
65,0,65,s,1.2072749000003569,None,65,0,65,0,236.4574719000002,,,,,,,,,,,,,,,,,,,,,,,,,,,,,,,,,,,,,,,,,,,,,,,,,,236.4411699000002,236.4574719000002,236.99106010000014,236.94096769999987,236.97185070000023,236.99106010000014,236.99106010000014,236.99106010000014,238.2078593000001,Scenes\176b.jpg,pre,s,1.2072749000003569,None,,,,,,,,00021,001,2025-11-10_15h11.04.599,MST_test,2024.2.2,60.010429812651914,2025-11-10 15h11.10.457169 +0530,
66,0,66,n,1.959803600000214,None,66,0,66,0,238.22407669999984,,,,,,,,,,,,,,,,,,,,,,,,,,,,,,,,,,,,,,,,,,,,,,,,,,238.2079349999999,238.22407669999984,238.74072160000014,238.70759150000004,238.7353232999999,238.74072160000014,238.74072160000014,238.74072160000014,240.70773439999994,Foils\121a.jpg,none,n,1.959803600000214,None,,,,,,,,00021,001,2025-11-10_15h11.04.599,MST_test,2024.2.2,60.010429812651914,2025-11-10 15h11.10.457169 +0530,
67,0,67,o,1.1301389999998719,None,67,0,67,0,240.7240283000001,,,,,,,,,,,,,,,,,,,,,,,,,,,,,,,,,,,,,,,,,,,,,,,,,,240.7078136,240.7240283000001,241.24070380000012,241.20761619999985,241.23319990000027,241.24070380000012,241.24070380000012,241.24070380000012,242.3744999999999,Objects\032b.jpg,mid,o,1.1301389999998719,None,,,,,,,,00021,001,2025-11-10_15h11.04.599,MST_test,2024.2.2,60.010429812651914,2025-11-10 15h11.10.457169 +0530,
68,0,68,s,0.8843313000002127,None,68,0,68,0,242.3906780000002,,,,,,,,,,,,,,,,,,,,,,,,,,,,,,,,,,,,,,,,,,,,,,,,,,242.37457649999988,242.3906780000002,242.9240433,242.8741844000001,242.90548880000006,242.9240433,242.9240433,242.9240433,243.82434390000026,Foils\066a.jpg,none,s,0.8843313000002127,None,,,,,,,,00021,001,2025-11-10_15h11.04.599,MST_test,2024.2.2,60.010429812651914,2025-11-10 15h11.10.457169 +0530,
69,0,69,o,1.1696093999998993,None,69,0,69,0,243.84061539999993,,,,,,,,,,,,,,,,,,,,,,,,,,,,,,,,,,,,,,,,,,,,,,,,,,243.82441700000027,243.84061539999993,244.39096659999996,244.32410070000014,244.34510249999994,244.39096659999996,244.39096659999996,244.39096659999996,245.57447360000015,Scenes\134a.jpg,post,o,1.1696093999998993,None,,,,,,,,00021,001,2025-11-10_15h11.04.599,MST_test,2024.2.2,60.010429812651914,2025-11-10 15h11.10.457169 +0530,
70,0,70,o,1.4330221000000165,None,70,0,70,0,245.5906113000001,,,,,,,,,,,,,,,,,,,,,,,,,,,,,,,,,,,,,,,,,,,,,,,,,,245.57456290000027,245.5906113000001,246.107254,246.07410990000017,246.08740660000012,246.107254,246.107254,246.107254,247.5408210999999,Scenes\037a.jpg,pre,o,1.4330221000000165,None,,,,,,,,00021,001,2025-11-10_15h11.04.599,MST_test,2024.2.2,60.010429812651914,2025-11-10 15h11.10.457169 +0530,
71,0,71,n,1.4203056999999717,None,71,0,71,0,247.55723350000017,,,,,,,,,,,,,,,,,,,,,,,,,,,,,,,,,,,,,,,,,,,,,,,,,,247.54090159999987,247.55723350000017,248.07386180000003,248.04077420000021,248.0645070999999,248.07386180000003,248.07386180000003,248.07386180000003,249.50759770000013,Foils\049a.jpg,none,n,1.4203056999999717,None,,,,,,,,00021,001,2025-11-10_15h11.04.599,MST_test,2024.2.2,60.010429812651914,2025-11-10 15h11.10.457169 +0530,
72,0,72,o,0.9770045000000209,None,72,0,72,0,249.52385760000016,,,,,,,,,,,,,,,,,,,,,,,,,,,,,,,,,,,,,,,,,,,,,,,,,,249.50768060000019,249.52385760000016,250.02381130000003,250.0073207999999,250.01679749999994,250.02381130000003,250.02381130000003,250.02381130000003,251.00743580000017,Objects\172a.jpg,mid,o,0.9770045000000209,None,,,,,,,,00021,001,2025-11-10_15h11.04.599,MST_test,2024.2.2,60.010429812651914,2025-11-10 15h11.10.457169 +0530,
73,0,73,s,1.1793993999999657,None,73,0,73,0,251.02382149999994,,,,,,,,,,,,,,,,,,,,,,,,,,,,,,,,,,,,,,,,,,,,,,,,,,251.0075184000002,251.02382149999994,251.55714070000022,251.50729170000022,251.54648570000018,251.55714070000022,251.55714070000022,251.55714070000022,252.74079269999993,Scenes\130b.jpg,post,s,1.1793993999999657,None,,,,,,,,00021,001,2025-11-10_15h11.04.599,MST_test,2024.2.2,60.010429812651914,2025-11-10 15h11.10.457169 +0530,
74,0,74,s,1.2693644000000859,None,74,0,74,0,252.75708250000025,,,,,,,,,,,,,,,,,,,,,,,,,,,,,,,,,,,,,,,,,,,,,,,,,,252.74087770000006,252.75708250000025,253.27373390000002,253.2405619000001,253.25568909999993,253.27373390000002,253.27373390000002,253.27373390000002,254.5573032000002,Scenes\147a.jpg,mid,s,1.2693644000000859,None,,,,,,,,00021,001,2025-11-10_15h11.04.599,MST_test,2024.2.2,60.010429812651914,2025-11-10 15h11.10.457169 +0530,
75,0,75,o,1.0439384000001155,None,75,0,75,0,254.57375850000017,,,,,,,,,,,,,,,,,,,,,,,,,,,,,,,,,,,,,,,,,,,,,,,,,,254.55737769999996,254.57375850000017,255.0903619999999,255.0571998999999,255.07461790000025,255.0903619999999,255.0903619999999,255.0903619999999,256.1406609999999,Objects\024a.jpg,mid,o,1.0439384000001155,None,,,,,,,,00021,001,2025-11-10_15h11.04.599,MST_test,2024.2.2,60.010429812651914,2025-11-10 15h11.10.457169 +0530,
76,0,76,s,1.781529800000044,None,76,0,76,0,256.1570141000002,,,,,,,,,,,,,,,,,,,,,,,,,,,,,,,,,,,,,,,,,,,,,,,,,,256.14074040000014,256.1570141000002,256.657005,256.6405232000002,256.65012650000017,256.657005,256.657005,256.657005,258.4406162999999,Objects\138a.jpg,pre,s,1.781529800000044,None,,,,,,,,00021,001,2025-11-10_15h11.04.599,MST_test,2024.2.2,60.010429812651914,2025-11-10 15h11.10.457169 +0530,
77,0,77,o,1.1883342999999513,None,77,0,77,0,258.4569630000001,,,,,,,,,,,,,,,,,,,,,,,,,,,,,,,,,,,,,,,,,,,,,,,,,,258.4406920000001,258.4569630000001,258.99030790000006,258.94046949999984,258.9804380999999,258.99030790000006,258.99030790000006,258.99030790000006,260.19082160000016,Scenes\159b.jpg,pre,o,1.1883342999999513,None,,,,,,,,00021,001,2025-11-10_15h11.04.599,MST_test,2024.2.2,60.010429812651914,2025-11-10 15h11.10.457169 +0530,
78,0,78,n,2.56500909999977,None,78,0,78,0,260.20697280000013,,,,,,,,,,,,,,,,,,,,,,,,,,,,,,,,,,,,,,,,,,,,,,,,,,260.1909037999999,260.20697280000013,260.72357790000024,260.6907676000001,260.7155883999999,260.72357790000024,260.72357790000024,260.72357790000024,263.2906361999999,Foils\105a.jpg,none,n,2.56500909999977,None,,,,,,,,00021,001,2025-11-10_15h11.04.599,MST_test,2024.2.2,60.010429812651914,2025-11-10 15h11.10.457169 +0530,
79,0,79,o,1.1697845999997298,None,79,0,79,0,263.30687290000014,,,,,,,,,,,,,,,,,,,,,,,,,,,,,,,,,,,,,,,,,,,,,,,,,,263.29071920000024,263.30687290000014,263.8406153000001,263.7904334,263.83245380000017,263.8406153000001,263.8406153000001,263.8406153000001,265.0239058000002,Scenes\001b.jpg,pre,o,1.1697845999997298,None,,,,,,,,00021,001,2025-11-10_15h11.04.599,MST_test,2024.2.2,60.010429812651914,2025-11-10 15h11.10.457169 +0530,
80,0,80,n,3.2095666000000165,None,80,0,80,0,265.04018989999986,,,,,,,,,,,,,,,,,,,,,,,,,,,,,,,,,,,,,,,,,,,,,,,,,,265.02398500000027,265.04018989999986,265.55683150000004,265.52376230000027,265.54628030000003,265.55683150000004,265.55683150000004,265.55683150000004,268.7737866000002,Objects\029b.jpg,pre,n,3.2095666000000165,None,,,,,,,,00021,001,2025-11-10_15h11.04.599,MST_test,2024.2.2,60.010429812651914,2025-11-10 15h11.10.457169 +0530,
81,0,81,o,1.0757220000000416,None,81,0,81,0,268.79010040000003,,,,,,,,,,,,,,,,,,,,,,,,,,,,,,,,,,,,,,,,,,,,,,,,,,268.7738641000001,268.79010040000003,269.3065789000002,269.2736269000002,269.30217820000007,269.3065789000002,269.3065789000002,269.3065789000002,270.3904402000003,Scenes\023a.jpg,mid,o,1.0757220000000416,None,,,,,,,,00021,001,2025-11-10_15h11.04.599,MST_test,2024.2.2,60.010429812651914,2025-11-10 15h11.10.457169 +0530,
82,0,82,o,1.2150034999999662,None,82,0,82,0,270.40675409999994,,,,,,,,,,,,,,,,,,,,,,,,,,,,,,,,,,,,,,,,,,,,,,,,,,270.39050899999984,270.40675409999994,270.92334630000005,270.89035809999996,270.91090859999986,270.92334630000005,270.92334630000005,270.92334630000005,272.14035479999984,Objects\190b.jpg,mid,o,1.2150034999999662,None,,,,,,,,00021,001,2025-11-10_15h11.04.599,MST_test,2024.2.2,60.010429812651914,2025-11-10 15h11.10.457169 +0530,
83,0,83,o,2.6086985000001732,None,83,0,83,0,272.1567081000003,,,,,,,,,,,,,,,,,,,,,,,,,,,,,,,,,,,,,,,,,,,,,,,,,,272.14042930000005,272.1567081000003,272.690333,272.6402892000001,272.67760099999987,272.690333,272.690333,272.690333,275.30701820000013,Scenes\114b.jpg,mid,o,2.6086985000001732,None,,,,,,,,00021,001,2025-11-10_15h11.04.599,MST_test,2024.2.2,60.010429812651914,2025-11-10 15h11.10.457169 +0530,
84,0,84,o,0.8691844999998466,None,84,0,84,0,275.3232908,,,,,,,,,,,,,,,,,,,,,,,,,,,,,,,,,,,,,,,,,,,,,,,,,,275.30710610000006,275.3232908,275.85660700000017,275.8068404999999,275.84017159999985,275.85660700000017,275.85660700000017,275.85660700000017,276.74029900000005,Objects\003b.jpg,post,o,0.8691844999998466,None,,,,,,,,00021,001,2025-11-10_15h11.04.599,MST_test,2024.2.2,60.010429812651914,2025-11-10 15h11.10.457169 +0530,
85,0,85,o,1.1088267000000087,None,85,0,85,0,276.7566571000002,,,,,,,,,,,,,,,,,,,,,,,,,,,,,,,,,,,,,,,,,,,,,,,,,,276.7403792,276.7566571000002,277.29020309999987,277.2401463000001,277.27333910000016,277.29020309999987,277.29020309999987,277.29020309999987,278.4069598000001,Scenes\079b.jpg,pre,o,1.1088267000000087,None,,,,,,,,00021,001,2025-11-10_15h11.04.599,MST_test,2024.2.2,60.010429812651914,2025-11-10 15h11.10.457169 +0530,
86,0,86,o,0.7286091000000852,None,86,0,86,0,278.42321390000006,,,,,,,,,,,,,,,,,,,,,,,,,,,,,,,,,,,,,,,,,,,,,,,,,,278.40703669999994,278.42321390000006,278.93983879999996,278.9067205000001,278.9221275,278.93983879999996,278.93983879999996,278.93983879999996,279.6735678,Objects\016a.jpg,mid,o,0.7286091000000852,None,,,,,,,,00021,001,2025-11-10_15h11.04.599,MST_test,2024.2.2,60.010429812651914,2025-11-10 15h11.10.457169 +0530,
87,0,87,s,1.0059258999999656,None,87,0,87,0,279.68982030000006,,,,,,,,,,,,,,,,,,,,,,,,,,,,,,,,,,,,,,,,,,,,,,,,,,279.67363699999987,279.68982030000006,280.2066798999999,280.17342150000013,280.1887221000002,280.2066798999999,280.2066798999999,280.2066798999999,281.2234053000002,Scenes\118a.jpg,pre,s,1.0059258999999656,None,,,,,,,,00021,001,2025-11-10_15h11.04.599,MST_test,2024.2.2,60.010429812651914,2025-11-10 15h11.10.457169 +0530,
88,0,88,o,1.4701027000000977,None,88,0,88,0,281.2398462000001,,,,,,,,,,,,,,,,,,,,,,,,,,,,,,,,,,,,,,,,,,,,,,,,,,281.22347720000016,281.2398462000001,281.7564526000001,281.7234864000002,281.7443400000002,281.7564526000001,281.7564526000001,281.7564526000001,283.24004379999997,Scenes\097b.jpg,pre,o,1.4701027000000977,None,,,,,,,,00021,001,2025-11-10_15h11.04.599,MST_test,2024.2.2,60.010429812651914,2025-11-10 15h11.10.457169 +0530,
89,0,89,s,4.104983100000027,None,89,0,89,0,283.2564431999999,,,,,,,,,,,,,,,,,,,,,,,,,,,,,,,,,,,,,,,,,,,,,,,,,,283.2401264,283.2564431999999,283.7897289000002,283.73996990000023,283.76997600000004,283.7897289000002,283.7897289000002,283.7897289000002,287.90672080000013,Foils\074a.jpg,none,s,4.104983100000027,None,,,,,,,,00021,001,2025-11-10_15h11.04.599,MST_test,2024.2.2,60.010429812651914,2025-11-10 15h11.10.457169 +0530,
90,0,90,n,1.7468732000002092,None,90,0,90,0,287.92300720000003,,,,,,,,,,,,,,,,,,,,,,,,,,,,,,,,,,,,,,,,,,,,,,,,,,287.9068003000002,287.92300720000003,288.4563223,288.40651560000015,288.44601090000015,288.4563223,288.4563223,288.4563223,290.20668879999994,Foils\097a.jpg,none,n,1.7468732000002092,None,,,,,,,,00021,001,2025-11-10_15h11.04.599,MST_test,2024.2.2,60.010429812651914,2025-11-10 15h11.10.457169 +0530,
91,0,91,n,0.7989190999996936,None,91,0,91,0,290.2229582,,,,,,,,,,,,,,,,,,,,,,,,,,,,,,,,,,,,,,,,,,,,,,,,,,290.2067741000001,290.2229582,290.73958440000024,290.7065247999999,290.72999359999994,290.73958440000024,290.73958440000024,290.73958440000024,291.5402362,Objects\006b.jpg,post,n,0.7989190999996936,None,,,,,,,,00021,001,2025-11-10_15h11.04.599,MST_test,2024.2.2,60.010429812651914,2025-11-10 15h11.10.457169 +0530,
92,0,92,o,1.9298360000002504,None,92,0,92,0,291.5562554000003,,,,,,,,,,,,,,,,,,,,,,,,,,,,,,,,,,,,,,,,,,,,,,,,,,291.5403153000002,291.5562554000003,292.0729216,292.0397803999999,292.06759650000004,292.0729216,292.0729216,292.0729216,294.00670160000027,Scenes\090a.jpg,mid,o,1.9298360000002504,None,,,,,,,,00021,001,2025-11-10_15h11.04.599,MST_test,2024.2.2,60.010429812651914,2025-11-10 15h11.10.457169 +0530,
93,0,93,o,1.1445450999999593,None,93,0,93,0,294.0228795000003,,,,,,,,,,,,,,,,,,,,,,,,,,,,,,,,,,,,,,,,,,,,,,,,,,294.00677159999987,294.0228795000003,294.55617010000014,294.5064376999999,294.5378544,294.55617010000014,294.55617010000014,294.55617010000014,295.70660469999984,Scenes\039b.jpg,pre,o,1.1445450999999593,None,,,,,,,,00021,001,2025-11-10_15h11.04.599,MST_test,2024.2.2,60.010429812651914,2025-11-10 15h11.10.457169 +0530,
94,0,94,o,4.111402699999871,None,94,0,94,0,295.72280360000013,,,,,,,,,,,,,,,,,,,,,,,,,,,,,,,,,,,,,,,,,,,,,,,,,,295.7066812000003,295.72280360000013,296.239466,296.20630140000003,296.2342905999999,296.239466,296.239466,296.239466,300.35649330000024,Objects\127b.jpg,pre,o,4.111402699999871,None,,,,,,,,00021,001,2025-11-10_15h11.04.599,MST_test,2024.2.2,60.010429812651914,2025-11-10 15h11.10.457169 +0530,
95,0,95,s,2.628987600000073,None,95,0,95,0,300.37274100000013,,,,,,,,,,,,,,,,,,,,,,,,,,,,,,,,,,,,,,,,,,,,,,,,,,300.35657279999987,300.37274100000013,300.88935200000014,300.85631479999984,300.88146300000017,300.88935200000014,300.88935200000014,300.88935200000014,303.52304060000006,Objects\119b.jpg,pre,s,2.628987600000073,None,,,,,,,,00021,001,2025-11-10_15h11.04.599,MST_test,2024.2.2,60.010429812651914,2025-11-10 15h11.10.457169 +0530,
96,0,96,o,6.197783099999924,None,96,0,96,0,303.5393291999999,,,,,,,,,,,,,,,,,,,,,,,,,,,,,,,,,,,,,,,,,,,,,,,,,,303.5231124000002,303.5393291999999,304.0727130999999,304.02290170000015,304.06003310000006,304.0727130999999,304.0727130999999,304.0727130999999,310.27287190000015,Scenes\152b.jpg,mid,o,6.197783099999924,None,,,,,,,,00021,001,2025-11-10_15h11.04.599,MST_test,2024.2.2,60.010429812651914,2025-11-10 15h11.10.457169 +0530,
97,0,97,s,3.00714489999973,None,97,0,97,0,310.2892634,,,,,,,,,,,,,,,,,,,,,,,,,,,,,,,,,,,,,,,,,,,,,,,,,,310.2729475000001,310.2892634,310.8059054999999,310.7727253000003,310.79573630000004,310.8059054999999,310.8059054999999,310.8059054999999,313.8228597000002,Objects\084b.jpg,post,s,3.00714489999973,None,,,,,,,,00021,001,2025-11-10_15h11.04.599,MST_test,2024.2.2,60.010429812651914,2025-11-10 15h11.10.457169 +0530,
98,0,98,n,2.6543173000000024,None,98,0,98,0,313.83916309999995,,,,,,,,,,,,,,,,,,,,,,,,,,,,,,,,,,,,,,,,,,,,,,,,,,313.8229432000003,313.83916309999995,314.3724787000001,314.3226831000002,314.35939110000027,314.3724787000001,314.3724787000001,314.3724787000001,317.0393592999999,Scenes\124b.jpg,mid,n,2.6543173000000024,None,,,,,,,,00021,001,2025-11-10_15h11.04.599,MST_test,2024.2.2,60.010429812651914,2025-11-10 15h11.10.457169 +0530,
99,0,99,o,1.156506299999819,None,99,0,99,0,317.0557715,,,,,,,,,,,,,,,,,,,,,,,,,,,,,,,,,,,,,,,,,,,,,,,,,,317.0394317999999,317.0557715,317.57241539999995,317.5392288000003,317.55613429999994,317.57241539999995,317.57241539999995,317.57241539999995,318.7393624000001,Objects\037a.jpg,mid,o,1.156506299999819,None,,,,,,,,00021,001,2025-11-10_15h11.04.599,MST_test,2024.2.2,60.010429812651914,2025-11-10 15h11.10.457169 +0530,
100,0,100,o,3.450476200000139,None,100,0,100,0,318.755717,,,,,,,,,,,,,,,,,,,,,,,,,,,,,,,,,,,,,,,,,,,,,,,,,,318.7394352000001,318.755717,319.27233810000007,319.23924450000004,319.2684862000001,319.27233810000007,319.27233810000007,319.27233810000007,322.7393016000001,Objects\123b.jpg,mid,o,3.450476200000139,None,,,,,,,,00021,001,2025-11-10_15h11.04.599,MST_test,2024.2.2,60.010429812651914,2025-11-10 15h11.10.457169 +0530,
101,0,101,o,1.6676712999997108,None,101,0,101,0,322.7556328999999,,,,,,,,,,,,,,,,,,,,,,,,,,,,,,,,,,,,,,,,,,,,,,,,,,322.73937449999994,322.7556328999999,323.2889831000002,323.23917359999996,323.27049020000004,323.2889831000002,323.2889831000002,323.2889831000002,324.9725062000002,Objects\126b.jpg,post,o,1.6676712999997108,None,,,,,,,,00021,001,2025-11-10_15h11.04.599,MST_test,2024.2.2,60.010429812651914,2025-11-10 15h11.10.457169 +0530,
102,0,102,o,1.1616337000000385,None,102,0,102,0,324.9889425000001,,,,,,,,,,,,,,,,,,,,,,,,,,,,,,,,,,,,,,,,,,,,,,,,,,324.9725905,324.9889425000001,325.4889341000003,325.4724937000001,325.48201599999993,325.4889341000003,325.4889341000003,325.4889341000003,326.65583890000016,Objects\137a.jpg,pre,o,1.1616337000000385,None,,,,,,,,00021,001,2025-11-10_15h11.04.599,MST_test,2024.2.2,60.010429812651914,2025-11-10 15h11.10.457169 +0530,
103,0,103,o,0.6102485000001252,None,103,0,103,0,326.6722149000002,,,,,,,,,,,,,,,,,,,,,,,,,,,,,,,,,,,,,,,,,,,,,,,,,,326.65590840000004,326.6722149000002,327.17219179999984,327.1557522000003,327.1655759999999,327.17219179999984,327.17219179999984,327.17219179999984,327.7891098,Objects\023a.jpg,pre,o,0.6102485000001252,None,,,,,,,,00021,001,2025-11-10_15h11.04.599,MST_test,2024.2.2,60.010429812651914,2025-11-10 15h11.10.457169 +0530,
104,0,104,o,0.7947202000000289,None,104,0,104,0,327.80557720000024,,,,,,,,,,,,,,,,,,,,,,,,,,,,,,,,,,,,,,,,,,,,,,,,,,327.78917260000026,327.80557720000024,328.35587810000015,328.28900840000006,328.3370983,328.35587810000015,328.35587810000015,328.35587810000015,329.1558567000002,Scenes\017b.jpg,post,o,0.7947202000000289,None,,,,,,,,00021,001,2025-11-10_15h11.04.599,MST_test,2024.2.2,60.010429812651914,2025-11-10 15h11.10.457169 +0530,
105,0,105,n,0.8438931999999113,None,105,0,105,0,329.1721609000001,,,,,,,,,,,,,,,,,,,,,,,,,,,,,,,,,,,,,,,,,,,,,,,,,,329.1559293999999,329.1721609000001,329.68884160000016,329.6556584,329.67842599999994,329.68884160000016,329.68884160000016,329.68884160000016,330.5392606999999,Foils\002a.jpg,none,n,0.8438931999999113,None,,,,,,,,00021,001,2025-11-10_15h11.04.599,MST_test,2024.2.2,60.010429812651914,2025-11-10 15h11.10.457169 +0530,
106,0,106,s,1.124142699999993,None,106,0,106,0,330.55548690000023,,,,,,,,,,,,,,,,,,,,,,,,,,,,,,,,,,,,,,,,,,,,,,,,,,330.5393435000001,330.55548690000023,331.0724273999999,331.03895779999993,331.0631523000002,331.0724273999999,331.0724273999999,331.0724273999999,332.20589710000013,Scenes\131a.jpg,pre,s,1.124142699999993,None,,,,,,,,00021,001,2025-11-10_15h11.04.599,MST_test,2024.2.2,60.010429812651914,2025-11-10 15h11.10.457169 +0530,
107,0,107,s,1.5142140000002655,None,107,0,107,0,332.22215110000025,,,,,,,,,,,,,,,,,,,,,,,,,,,,,,,,,,,,,,,,,,,,,,,,,,332.2059701000003,332.22215110000025,332.73877170000014,332.70561399999997,332.72081750000007,332.73877170000014,332.73877170000014,332.73877170000014,334.25565370000004,Objects\065a.jpg,pre,s,1.5142140000002655,None,,,,,,,,00021,001,2025-11-10_15h11.04.599,MST_test,2024.2.2,60.010429812651914,2025-11-10 15h11.10.457169 +0530,
108,0,108,o,1.400495200000023,None,108,0,108,0,334.2720442,,,,,,,,,,,,,,,,,,,,,,,,,,,,,,,,,,,,,,,,,,,,,,,,,,334.25572280000006,334.2720442,334.78871260000005,334.75565700000016,334.77134860000024,334.78871260000005,334.78871260000005,334.78871260000005,336.20559749999984,Scenes\163a.jpg,post,o,1.400495200000023,None,,,,,,,,00021,001,2025-11-10_15h11.04.599,MST_test,2024.2.2,60.010429812651914,2025-11-10 15h11.10.457169 +0530,
109,0,109,n,1.03942219999999,None,109,0,109,0,336.22208180000007,,,,,,,,,,,,,,,,,,,,,,,,,,,,,,,,,,,,,,,,,,,,,,,,,,336.20566659999986,336.22208180000007,336.73868170000014,336.70551650000016,336.7212386000001,336.73868170000014,336.73868170000014,336.73868170000014,337.7890203000002,Foils\098a.jpg,none,n,1.03942219999999,None,,,,,,,,00021,001,2025-11-10_15h11.04.599,MST_test,2024.2.2,60.010429812651914,2025-11-10 15h11.10.457169 +0530,
110,0,110,o,1.2090021000003617,None,110,0,110,0,337.8053239000001,,,,,,,,,,,,,,,,,,,,,,,,,,,,,,,,,,,,,,,,,,,,,,,,,,337.7890883,337.8053239000001,338.32197670000005,338.28888719999986,338.3069562999999,338.32197670000005,338.32197670000005,338.32197670000005,339.53892480000013,Scenes\077a.jpg,mid,o,1.2090021000003617,None,,,,,,,,00021,001,2025-11-10_15h11.04.599,MST_test,2024.2.2,60.010429812651914,2025-11-10 15h11.10.457169 +0530,
111,0,111,o,2.210395399999925,None,111,0,111,0,339.55531740000015,,,,,,,,,,,,,,,,,,,,,,,,,,,,,,,,,,,,,,,,,,,,,,,,,,339.53899790000014,339.55531740000015,340.0886582000003,340.0388069999999,340.0753562,340.0886582000003,340.0886582000003,340.0886582000003,342.30565350000006,Scenes\122b.jpg,post,o,2.210395399999925,None,,,,,,,,00021,001,2025-11-10_15h11.04.599,MST_test,2024.2.2,60.010429812651914,2025-11-10 15h11.10.457169 +0530,
112,0,112,s,0.9693489000001136,None,112,0,112,0,342.3218869000002,,,,,,,,,,,,,,,,,,,,,,,,,,,,,,,,,,,,,,,,,,,,,,,,,,342.3057283000003,342.3218869000002,342.8551977000002,342.80547000000024,342.8399024,342.8551977000002,342.8551977000002,342.8551977000002,343.83887970000023,Scenes\162b.jpg,pre,s,0.9693489000001136,None,,,,,,,,00021,001,2025-11-10_15h11.04.599,MST_test,2024.2.2,60.010429812651914,2025-11-10 15h11.10.457169 +0530,
113,0,113,n,2.123355100000026,None,113,0,113,0,343.8551915000003,,,,,,,,,,,,,,,,,,,,,,,,,,,,,,,,,,,,,,,,,,,,,,,,,,343.8389618000001,343.8551915000003,344.3718275000001,344.33871739999995,344.36590750000005,344.3718275000001,344.3718275000001,344.3718275000001,346.5053613,Foils\026a.jpg,none,n,2.123355100000026,None,,,,,,,,00021,001,2025-11-10_15h11.04.599,MST_test,2024.2.2,60.010429812651914,2025-11-10 15h11.10.457169 +0530,
114,0,114,s,1.5861359000000448,None,114,0,114,0,346.5217926,,,,,,,,,,,,,,,,,,,,,,,,,,,,,,,,,,,,,,,,,,,,,,,,,,346.5054421,346.5217926,347.0385467000001,347.00525340000013,347.02047459999994,347.0385467000001,347.0385467000001,347.0385467000001,348.63870880000013,Objects\038a.jpg,post,s,1.5861359000000448,None,,,,,,,,00021,001,2025-11-10_15h11.04.599,MST_test,2024.2.2,60.010429812651914,2025-11-10 15h11.10.457169 +0530,
115,0,115,n,2.2745648999998593,None,115,0,115,0,348.6551325999999,,,,,,,,,,,,,,,,,,,,,,,,,,,,,,,,,,,,,,,,,,,,,,,,,,348.63878750000003,348.6551325999999,349.1717377,349.1386900000002,349.1536463000002,349.1717377,349.1717377,349.1717377,351.45526610000024,Objects\064a.jpg,mid,n,2.2745648999998593,None,,,,,,,,00021,001,2025-11-10_15h11.04.599,MST_test,2024.2.2,60.010429812651914,2025-11-10 15h11.10.457169 +0530,
116,0,116,o,1.6749822000001586,None,116,0,116,0,351.47168710000005,,,,,,,,,,,,,,,,,,,,,,,,,,,,,,,,,,,,,,,,,,,,,,,,,,351.4553396000001,351.47168710000005,351.9718281999999,351.9552192000001,351.967083,351.9718281999999,351.9718281999999,351.9718281999999,353.65528619999986,Scenes\014a.jpg,pre,o,1.6749822000001586,None,,,,,,,,00021,001,2025-11-10_15h11.04.599,MST_test,2024.2.2,60.010429812651914,2025-11-10 15h11.10.457169 +0530,
117,0,117,s,1.4746437000003425,None,117,0,117,0,353.67154759999994,,,,,,,,,,,,,,,,,,,,,,,,,,,,,,,,,,,,,,,,,,,,,,,,,,353.65536980000024,353.67154759999994,354.1884220000002,354.1551588000002,354.1795360000001,354.1884220000002,354.1884220000002,354.1884220000002,355.6718016,Scenes\126a.jpg,post,s,1.4746437000003425,None,,,,,,,,00021,001,2025-11-10_15h11.04.599,MST_test,2024.2.2,60.010429812651914,2025-11-10 15h11.10.457169 +0530,
118,0,118,o,0.8635889999995925,None,118,0,118,0,355.6881714000001,,,,,,,,,,,,,,,,,,,,,,,,,,,,,,,,,,,,,,,,,,,,,,,,,,355.6718796,355.6881714000001,356.2048003,356.1717225000002,356.18725300000006,356.2048003,356.2048003,356.2048003,357.07188240000005,Scenes\154a.jpg,pre,o,0.8635889999995925,None,,,,,,,,00021,001,2025-11-10_15h11.04.599,MST_test,2024.2.2,60.010429812651914,2025-11-10 15h11.10.457169 +0530,
119,0,119,o,0.7518549999999777,None,119,0,119,0,357.0881416000002,,,,,,,,,,,,,,,,,,,,,,,,,,,,,,,,,,,,,,,,,,,,,,,,,,357.0719554000002,357.0881416000002,357.65499450000016,357.57168290000027,357.6404545999999,357.65499450000016,357.65499450000016,357.65499450000016,358.42171940000026,Foils\scenes15.jpg,none,o,0.7518549999999777,None,,,,,,,,00021,001,2025-11-10_15h11.04.599,MST_test,2024.2.2,60.010429812651914,2025-11-10 15h11.10.457169 +0530,
120,0,120,o,0.7773218000002089,None,120,0,120,0,358.4381152000001,,,,,,,,,,,,,,,,,,,,,,,,,,,,,,,,,,,,,,,,,,,,,,,,,,358.4217987000002,358.4381152000001,358.9714196,358.92171480000025,358.96228789999986,358.9714196,358.9714196,358.9714196,359.7550919,Scenes\080b.jpg,mid,o,0.7773218000002089,None,,,,,,,,00021,001,2025-11-10_15h11.04.599,MST_test,2024.2.2,60.010429812651914,2025-11-10 15h11.10.457169 +0530,
121,0,121,o,0.8153735000000779,None,121,0,121,0,359.77144880000014,,,,,,,,,,,,,,,,,,,,,,,,,,,,,,,,,,,,,,,,,,,,,,,,,,359.7551619000001,359.77144880000014,360.3047369000001,360.25488459999997,360.2910944999999,360.3047369000001,360.3047369000001,360.3047369000001,361.1217661999999,Scenes\161b.jpg,post,o,0.8153735000000779,None,,,,,,,,00021,001,2025-11-10_15h11.04.599,MST_test,2024.2.2,60.010429812651914,2025-11-10 15h11.10.457169 +0530,
122,0,122,n,0.8194398000000547,None,122,0,122,0,361.1380729000002,,,,,,,,,,,,,,,,,,,,,,,,,,,,,,,,,,,,,,,,,,,,,,,,,,361.12184260000004,361.1380729000002,361.6883689000001,361.62154880000026,361.6736208000002,361.6883689000001,361.6883689000001,361.6883689000001,362.52159089999986,Foils\scenes28.jpg,none,n,0.8194398000000547,None,,,,,,,,00021,001,2025-11-10_15h11.04.599,MST_test,2024.2.2,60.010429812651914,2025-11-10 15h11.10.457169 +0530,
123,0,123,o,1.1865336999999272,None,123,0,123,0,362.5380181999999,,,,,,,,,,,,,,,,,,,,,,,,,,,,,,,,,,,,,,,,,,,,,,,,,,362.5216669000001,362.5380181999999,363.07133550000026,363.0215572000002,363.05981269999984,363.07133550000026,363.07133550000026,363.07133550000026,364.2716817999999,Scenes\164b.jpg,post,o,1.1865336999999272,None,,,,,,,,00021,001,2025-11-10_15h11.04.599,MST_test,2024.2.2,60.010429812651914,2025-11-10 15h11.10.457169 +0530,
124,0,124,o,0.7779373999997006,None,124,0,124,0,364.28796999999986,,,,,,,,,,,,,,,,,,,,,,,,,,,,,,,,,,,,,,,,,,,,,,,,,,364.2717508999999,364.28796999999986,364.80479700000024,364.77154599999994,364.79122000000007,364.80479700000024,364.80479700000024,364.80479700000024,365.58832170000005,Objects\173b.jpg,mid,o,0.7779373999997006,None,,,,,,,,00021,001,2025-11-10_15h11.04.599,MST_test,2024.2.2,60.010429812651914,2025-11-10 15h11.10.457169 +0530,
125,0,125,n,1.292905299999802,None,125,0,125,0,365.6046239000002,,,,,,,,,,,,,,,,,,,,,,,,,,,,,,,,,,,,,,,,,,,,,,,,,,365.58840020000025,365.6046239000002,366.12127120000014,366.08810989999984,366.10792519999995,366.12127120000014,366.12127120000014,366.12127120000014,367.42154660000006,Foils\090a.jpg,none,n,1.292905299999802,None,,,,,,,,00021,001,2025-11-10_15h11.04.599,MST_test,2024.2.2,60.010429812651914,2025-11-10 15h11.10.457169 +0530,
126,0,126,o,2.252700100000311,None,126,0,126,0,367.4378864999999,,,,,,,,,,,,,,,,,,,,,,,,,,,,,,,,,,,,,,,,,,,,,,,,,,367.42161829999986,367.4378864999999,367.9712291000001,367.92145800000026,367.95185930000025,367.9712291000001,367.9712291000001,367.9712291000001,370.23823949999996,Objects\146b.jpg,post,o,2.252700100000311,None,,,,,,,,00021,001,2025-11-10_15h11.04.599,MST_test,2024.2.2,60.010429812651914,2025-11-10 15h11.10.457169 +0530,
127,0,127,n,1.0502504999999474,None,127,0,127,0,370.2545161000003,,,,,,,,,,,,,,,,,,,,,,,,,,,,,,,,,,,,,,,,,,,,,,,,,,370.23832070000026,370.2545161000003,370.78808860000026,370.7380318999999,370.76784780000025,370.78808860000026,370.78808860000026,370.78808860000026,371.8549877999999,Foils\scenes7.jpg,none,n,1.0502504999999474,None,,,,,,,,00021,001,2025-11-10_15h11.04.599,MST_test,2024.2.2,60.010429812651914,2025-11-10 15h11.10.457169 +0530,
128,0,128,o,1.3947603000001436,None,128,0,128,0,371.87117549999994,,,,,,,,,,,,,,,,,,,,,,,,,,,,,,,,,,,,,,,,,,,,,,,,,,371.85505760000024,371.87117549999994,372.38804660000005,372.35468149999997,372.3802756,372.38804660000005,372.38804660000005,372.38804660000005,373.7881335000002,Scenes\187a.jpg,mid,o,1.3947603000001436,None,,,,,,,,00021,001,2025-11-10_15h11.04.599,MST_test,2024.2.2,60.010429812651914,2025-11-10 15h11.10.457169 +0530,
129,0,129,o,1.3142972999999074,None,129,0,129,0,373.80444130000024,,,,,,,,,,,,,,,,,,,,,,,,,,,,,,,,,,,,,,,,,,,,,,,,,,373.7882150999999,373.80444130000024,374.32134410000026,374.2879932999999,374.3111907000002,374.32134410000026,374.32134410000026,374.32134410000026,375.6380340999999,Scenes\167a.jpg,post,o,1.3142972999999074,None,,,,,,,,00021,001,2025-11-10_15h11.04.599,MST_test,2024.2.2,60.010429812651914,2025-11-10 15h11.10.457169 +0530,
130,0,130,o,0.7553735000001325,None,130,0,130,0,375.65440320000016,,,,,,,,,,,,,,,,,,,,,,,,,,,,,,,,,,,,,,,,,,,,,,,,,,375.63811339999984,375.65440320000016,376.17135510000026,376.13785450000023,376.1546696999999,376.17135510000026,376.17135510000026,376.17135510000026,376.9381496000001,Objects\149a.jpg,mid,o,0.7553735000001325,None,,,,,,,,00021,001,2025-11-10_15h11.04.599,MST_test,2024.2.2,60.010429812651914,2025-11-10 15h11.10.457169 +0530,
131,0,131,o,1.0930230000003576,None,131,0,131,0,376.9543394000002,,,,,,,,,,,,,,,,,,,,,,,,,,,,,,,,,,,,,,,,,,,,,,,,,,376.938228,376.9543394000002,377.48765600000024,377.4378799000001,377.46864689999984,377.48765600000024,377.48765600000024,377.48765600000024,378.5882101000002,Foils\010a.jpg,none,o,1.0930230000003576,None,,,,,,,,00021,001,2025-11-10_15h11.04.599,MST_test,2024.2.2,60.010429812651914,2025-11-10 15h11.10.457169 +0530,
132,0,132,o,0.6102161999997406,None,132,0,132,0,378.60435899999993,,,,,,,,,,,,,,,,,,,,,,,,,,,,,,,,,,,,,,,,,,,,,,,,,,378.58829479999986,378.60435899999993,379.12098670000023,379.0878112999999,379.1035895,379.12098670000023,379.12098670000023,379.12098670000023,379.73802479999995,Objects\034b.jpg,post,o,0.6102161999997406,None,,,,,,,,00021,001,2025-11-10_15h11.04.599,MST_test,2024.2.2,60.010429812651914,2025-11-10 15h11.10.457169 +0530,
133,0,133,n,0.9202786000000742,None,133,0,133,0,379.7542808000003,,,,,,,,,,,,,,,,,,,,,,,,,,,,,,,,,,,,,,,,,,,,,,,,,,379.7381034,379.7542808000003,380.27099850000013,380.2378248,380.25842090000015,380.27099850000013,380.27099850000013,380.27099850000013,381.20473300000003,Objects\187b.jpg,mid,n,0.9202786000000742,None,,,,,,,,00021,001,2025-11-10_15h11.04.599,MST_test,2024.2.2,60.010429812651914,2025-11-10 15h11.10.457169 +0530,
134,0,134,o,0.8293915999997807,None,134,0,134,0,381.2209656,,,,,,,,,,,,,,,,,,,,,,,,,,,,,,,,,,,,,,,,,,,,,,,,,,381.20481310000014,381.2209656,381.7208925,381.70443209999985,381.71381550000024,381.7208925,381.7208925,381.7208925,382.5546079999999,Objects\063a.jpg,mid,o,0.8293915999997807,None,,,,,,,,00021,001,2025-11-10_15h11.04.599,MST_test,2024.2.2,60.010429812651914,2025-11-10 15h11.10.457169 +0530,
135,0,135,s,2.1382563000001937,None,135,0,135,0,382.57091260000016,,,,,,,,,,,,,,,,,,,,,,,,,,,,,,,,,,,,,,,,,,,,,,,,,,382.5546816000001,382.57091260000016,383.1044121,383.05441310000015,383.0960970000001,383.1044121,383.1044121,383.1044121,385.2545150000001,Scenes\019b.jpg,mid,s,2.1382563000001937,None,,,,,,,,00021,001,2025-11-10_15h11.04.599,MST_test,2024.2.2,60.010429812651914,2025-11-10 15h11.10.457169 +0530,
136,0,136,s,1.374742900000001,None,136,0,136,0,385.27085639999996,,,,,,,,,,,,,,,,,,,,,,,,,,,,,,,,,,,,,,,,,,,,,,,,,,385.25459490000003,385.27085639999996,385.7708740000003,385.7543020000003,385.76376340000024,385.7708740000003,385.7708740000003,385.7708740000003,387.1545473000001,Objects\068a.jpg,pre,s,1.374742900000001,None,,,,,,,,00021,001,2025-11-10_15h11.04.599,MST_test,2024.2.2,60.010429812651914,2025-11-10 15h11.10.457169 +0530,
137,0,137,s,3.1731635999999526,None,137,0,137,0,387.1708478999999,,,,,,,,,,,,,,,,,,,,,,,,,,,,,,,,,,,,,,,,,,,,,,,,,,387.1546287000001,387.1708478999999,387.6874327999999,387.65429330000006,387.6721271000001,387.6874327999999,387.6874327999999,387.6874327999999,390.8710341000001,Objects\120a.jpg,post,s,3.1731635999999526,None,,,,,,,,00021,001,2025-11-10_15h11.04.599,MST_test,2024.2.2,60.010429812651914,2025-11-10 15h11.10.457169 +0530,
138,0,138,s,1.6310747000002266,None,138,0,138,0,390.8874316000001,,,,,,,,,,,,,,,,,,,,,,,,,,,,,,,,,,,,,,,,,,,,,,,,,,390.87112000000025,390.8874316000001,391.38739590000023,391.37085609999986,391.3805188000001,391.38739590000023,391.38739590000023,391.38739590000023,393.0212707999999,Objects\092a.jpg,mid,s,1.6310747000002266,None,,,,,,,,00021,001,2025-11-10_15h11.04.599,MST_test,2024.2.2,60.010429812651914,2025-11-10 15h11.10.457169 +0530,
139,0,139,n,1.142004100000122,None,139,0,139,0,393.0373926000002,,,,,,,,,,,,,,,,,,,,,,,,,,,,,,,,,,,,,,,,,,,,,,,,,,393.02135529999987,393.0373926000002,393.5706709000001,393.5209238000002,393.5599634,393.5706709000001,393.5706709000001,393.5706709000001,394.7210006999999,Scenes\190b.jpg,mid,n,1.142004100000122,None,,,,,,,,00021,001,2025-11-10_15h11.04.599,MST_test,2024.2.2,60.010429812651914,2025-11-10 15h11.10.457169 +0530,
140,0,140,n,0.7865916999999172,None,140,0,140,0,394.73731339999995,,,,,,,,,,,,,,,,,,,,,,,,,,,,,,,,,,,,,,,,,,,,,,,,,,394.72107570000026,394.73731339999995,395.2706311000002,395.22082039999987,395.25841720000017,395.2706311000002,395.2706311000002,395.2706311000002,396.0709528000002,Scenes\072b.jpg,post,n,0.7865916999999172,None,,,,,,,,00021,001,2025-11-10_15h11.04.599,MST_test,2024.2.2,60.010429812651914,2025-11-10 15h11.10.457169 +0530,
141,0,141,s,1.0908401000001504,None,141,0,141,0,396.0872807999999,,,,,,,,,,,,,,,,,,,,,,,,,,,,,,,,,,,,,,,,,,,,,,,,,,396.0710196,396.0872807999999,396.5872638000001,396.5707814000002,396.58024290000003,396.5872638000001,396.5872638000001,396.5872638000001,397.6875871000002,Objects\010a.jpg,mid,s,1.0908401000001504,None,,,,,,,,00021,001,2025-11-10_15h11.04.599,MST_test,2024.2.2,60.010429812651914,2025-11-10 15h11.10.457169 +0530,
142,0,142,n,1.221785700000055,None,142,0,142,0,397.70387500000015,,,,,,,,,,,,,,,,,,,,,,,,,,,,,,,,,,,,,,,,,,,,,,,,,,397.6876622,397.70387500000015,398.22052889999986,398.1873952000001,398.2071369,398.22052889999986,398.22052889999986,398.22052889999986,399.4542802000001,Foils\073a.jpg,none,n,1.221785700000055,None,,,,,,,,00021,001,2025-11-10_15h11.04.599,MST_test,2024.2.2,60.010429812651914,2025-11-10 15h11.10.457169 +0530,
143,0,143,o,1.9305116000000453,None,143,0,143,0,399.47053670000014,,,,,,,,,,,,,,,,,,,,,,,,,,,,,,,,,,,,,,,,,,,,,,,,,,399.4543604999999,399.47053670000014,400.00382660000014,399.9541293000002,399.98419349999995,400.00382660000014,400.00382660000014,400.00382660000014,401.9374438,Objects\164b.jpg,mid,o,1.9305116000000453,None,,,,,,,,00021,001,2025-11-10_15h11.04.599,MST_test,2024.2.2,60.010429812651914,2025-11-10 15h11.10.457169 +0530,
144,0,144,o,2.504838099999688,None,144,0,144,0,401.9538207999999,,,,,,,,,,,,,,,,,,,,,,,,,,,,,,,,,,,,,,,,,,,,,,,,,,401.93752380000024,401.9538207999999,402.4703174000001,402.4374020999999,402.46655139999984,402.4703174000001,402.4703174000001,402.4703174000001,404.9875698999999,Objects\022b.jpg,mid,o,2.504838099999688,None,,,,,,,,00021,001,2025-11-10_15h11.04.599,MST_test,2024.2.2,60.010429812651914,2025-11-10 15h11.10.457169 +0530,
145,0,145,s,1.1945780000000923,None,145,0,145,0,405.0037526000001,,,,,,,,,,,,,,,,,,,,,,,,,,,,,,,,,,,,,,,,,,,,,,,,,,404.9876551000002,405.0037526000001,405.52037299999984,405.4871776,405.5028290999999,405.52037299999984,405.52037299999984,405.52037299999984,406.72078680000004,Objects\180a.jpg,post,s,1.1945780000000923,None,,,,,,,,00021,001,2025-11-10_15h11.04.599,MST_test,2024.2.2,60.010429812651914,2025-11-10 15h11.10.457169 +0530,
146,0,146,n,3.775757800000065,None,146,0,146,0,406.73705180000024,,,,,,,,,,,,,,,,,,,,,,,,,,,,,,,,,,,,,,,,,,,,,,,,,,406.72086820000004,406.73705180000024,407.25367080000024,407.2206268,407.24578759999986,407.25367080000024,407.25367080000024,407.25367080000024,411.03723500000024,Objects\011b.jpg,post,n,3.775757800000065,None,,,,,,,,00021,001,2025-11-10_15h11.04.599,MST_test,2024.2.2,60.010429812651914,2025-11-10 15h11.10.457169 +0530,
147,0,147,o,1.3628161999999975,None,147,0,147,0,411.05361500000026,,,,,,,,,,,,,,,,,,,,,,,,,,,,,,,,,,,,,,,,,,,,,,,,,,411.0373135,411.05361500000026,411.55434190000005,411.5370931000002,411.5470117,411.55434190000005,411.55434190000005,411.55434190000005,412.92058610000004,Objects\009a.jpg,post,o,1.3628161999999975,None,,,,,,,,00021,001,2025-11-10_15h11.04.599,MST_test,2024.2.2,60.010429812651914,2025-11-10 15h11.10.457169 +0530,
148,0,148,o,1.8755746000001636,None,148,0,148,0,412.9369079000003,,,,,,,,,,,,,,,,,,,,,,,,,,,,,,,,,,,,,,,,,,,,,,,,,,412.92065730000013,412.9369079000003,413.45354640000005,413.4203695000001,413.4486339,413.45354640000005,413.45354640000005,413.45354640000005,415.33720859999994,Objects\058b.jpg,post,o,1.8755746000001636,None,,,,,,,,00021,001,2025-11-10_15h11.04.599,MST_test,2024.2.2,60.010429812651914,2025-11-10 15h11.10.457169 +0530,
149,0,149,n,0.9488164000003962,None,149,0,149,0,415.35351500000024,,,,,,,,,,,,,,,,,,,,,,,,,,,,,,,,,,,,,,,,,,,,,,,,,,415.33729010000025,415.35351500000024,415.8701473000001,415.8369861000001,415.8656519000001,415.8701473000001,415.8701473000001,415.8701473000001,416.8205777000003,Objects\113b.jpg,pre,n,0.9488164000003962,None,,,,,,,,00021,001,2025-11-10_15h11.04.599,MST_test,2024.2.2,60.010429812651914,2025-11-10 15h11.10.457169 +0530,
,,,,,,,,,,,,,,,,,,,,,,,,,,,,,,,,,,,,,,,,,,,,,,,,,,,,,,,,,,,,,,,,,,,,,,,,,,416.8206266000002,416.8368197,416.8368197,419.53702810000004,space,2.6907866999999897,None,00021,001,2025-11-10_15h11.04.599,MST_test,2024.2.2,60.010429812651914,2025-11-10 15h11.10.457169 +0530,
