Sl_no,image_path,thisN,thisTrialN,thisRepN,key_resp_5.keys,key_resp_5.rt,key_resp_5.duration,key_resp_7.keys,key_resp_9.keys,key_resp_9.rt,key_resp_9.duration,key_resp_8.keys,key_resp_8.rt,key_resp_8.duration,practice.thisRepN,practice.thisTrialN,practice.thisN,practice.thisIndex,trials.thisRepN,trials.thisTrialN,trials.thisN,trials.thisIndex,thisRow.t,notes,welcome_page.started,text.started,key_resp.started,welcome_page.stopped,key_resp.keys,key_resp.rt,key_resp.duration,instructions.started,ins.started,key_resp_2.started,instructions.stopped,key_resp_2.keys,key_resp_2.rt,key_resp_2.duration,instructions_2.started,text_10.started,key_resp_10.started,instructions_2.stopped,key_resp_10.keys,key_resp_10.rt,key_resp_10.duration,objects_only_instruction.started,text_3.started,key_resp_3.started,objects_only_instruction.stopped,key_resp_3.keys,key_resp_3.rt,key_resp_3.duration,ISI.started,text_4.started,text_4.stopped,ISI.stopped,practice_block.started,image.started,text_5.started,key_resp_5.started,image.stopped,text_5.stopped,key_resp_5.stopped,practice_block.stopped,practice.key_resp_5.keys,practice.key_resp_5.rt,practice.key_resp_5.duration,indoor_outdoor.started,indoor_outdoor.stopped,practice.key_resp_7.keys,practice_to_main.started,text_2.started,key_resp_4.started,practice_to_main.stopped,key_resp_4.keys,key_resp_4.rt,key_resp_4.duration,objects.started,image_2.started,text_9.started,key_resp_9.started,objects.stopped,trials.key_resp_9.keys,trials.key_resp_9.rt,trials.key_resp_9.duration,encoding_task.started,encoding_task.stopped,trials.key_resp_8.keys,image_2.stopped,text_9.stopped,key_resp_9.stopped,text_8.started,key_resp_8.started,trials.key_resp_8.rt,trials.key_resp_8.duration,end_experiment.started,text_6.started,key_resp_6.started,end_experiment.stopped,key_resp_6.keys,key_resp_6.rt,key_resp_6.duration,list_of_stimuli,encoding_task_accuracy,participant,session,date,expName,psychopyVersion,frameRate,expStart,
,,,,,,,,,,,,,,,,,,,,,,,,,0.01436860000831075,0.03092869999818504,0.03092869999818504,775.5326080000086,space,775.4978316000052,None,,,,,,,,,,,,,,,,,,,,,,,,,,,,,,,,,,,,,,,,,,,,,,,,,,,,,,,,,,,,,,,,,,,,,,,,,,00020,001,2025-11-09_17h59.31.021,MST_task,2024.2.2,59.98580736164073,2025-11-09 17h59.36.645600 +0530,
,,,,,,,,,,,,,,,,,,,,,,,,,,,,,,,,775.5326455000031,775.5473781000037,775.5473781000037,783.1143898000009,space,7.563370800009579,None,,,,,,,,,,,,,,,,,,,,,,,,,,,,,,,,,,,,,,,,,,,,,,,,,,,,,,,,,,,,,,,,,,,00020,001,2025-11-09_17h59.31.021,MST_task,2024.2.2,59.98580736164073,2025-11-09 17h59.36.645600 +0530,
,,,,,,,,,,,,,,,,,,,,,,,,,,,,,,,,,,,,,,,783.1144142999983,783.1306151000026,783.1306151000026,800.8971136000036,space,17.754809499994735,None,,,,,,,,,,,,,,,,,,,,,,,,,,,,,,,,,,,,,,,,,,,,,,,,,,,,,,,,,,,,00020,001,2025-11-09_17h59.31.021,MST_task,2024.2.2,59.98580736164073,2025-11-09 17h59.36.645600 +0530,
,,,,,,,,,,,,,,,,,,,,,,,,,,,,,,,,,,,,,,,,,,,,,,800.8971415999986,800.9135332000005,800.9135332000005,825.7633085999987,space,24.837027600005968,None,,,,,,,,,,,,,,,,,,,,,,,,,,,,,,,,,,,,,,,,,,,,,,,,,,,,,00020,001,2025-11-09_17h59.31.021,MST_task,2024.2.2,59.98580736164073,2025-11-09 17h59.36.645600 +0530,
2,practice_images/031a.jpg,0,0,0,j,2.0358374000061303,0.15796229999978095,None,,,,,,,0,0,0,1,,,,,825.7796107000031,,,,,,,,,,,,,,,,,,,,,,,,,,,,,,825.7676905000117,825.7796107000031,826.2795997000067,826.263273900011,826.2703221999982,826.2795997000067,826.2795997000067,826.2795997000067,829.279563300006,829.279563300006,829.279563300006,829.2630500000087,j,2.0358374000061303,0.15796229999978095,829.2641887000063,829.2642000000051,None,,,,,,,,,,,,,,,,,,,,,,,,,,,,,,,,,,,00020,001,2025-11-09_17h59.31.021,MST_task,2024.2.2,59.98580736164073,2025-11-09 17h59.36.645600 +0530,
6,practice_images/158a.jpg,1,1,0,j,1.1519868999894243,0.16912910000246484,None,,,,,,,0,1,1,5,,,,,829.279563300006,,,,,,,,,,,,,,,,,,,,,,,,,,,,,,829.2642598000093,829.279563300006,829.7795462000067,829.7630434000021,829.7643565000035,829.7795462000067,829.7795462000067,829.7795462000067,832.7795442000061,832.7795442000061,832.7795442000061,832.7630180999986,j,1.1519868999894243,0.16912910000246484,832.7630522000109,832.763061900012,None,,,,,,,,,,,,,,,,,,,,,,,,,,,,,,,,,,,00020,001,2025-11-09_17h59.31.021,MST_task,2024.2.2,59.98580736164073,2025-11-09 17h59.36.645600 +0530,
10,practice_images/182a.jpg,2,2,0,f,0.7667894999904092,0.20543990000442136,None,,,,,,,0,2,2,9,,,,,832.7795442000061,,,,,,,,,,,,,,,,,,,,,,,,,,,,,,832.7631175999995,832.7795442000061,833.2794490000088,833.2629760999989,833.2641953999992,833.2794490000088,833.2794490000088,833.2794490000088,836.279420100007,836.279420100007,836.279420100007,836.2630626000027,f,0.7667894999904092,0.20543990000442136,836.2630950000021,836.2631046000024,None,,,,,,,,,,,,,,,,,,,,,,,,,,,,,,,,,,,00020,001,2025-11-09_17h59.31.021,MST_task,2024.2.2,59.98580736164073,2025-11-09 17h59.36.645600 +0530,
3,practice_images/037a.jpg,3,3,0,f,1.0798786000086693,0.21746299999358598,None,,,,,,,0,3,3,2,,,,,836.279420100007,,,,,,,,,,,,,,,,,,,,,,,,,,,,,,836.2631609000091,836.279420100007,836.7793989000056,836.7628946000041,836.7641309000028,836.7793989000056,836.7793989000056,836.7793989000056,839.7793363000092,839.7793363000092,839.7793363000092,839.762948100004,f,1.0798786000086693,0.21746299999358598,839.7629816000117,839.7629916000005,None,,,,,,,,,,,,,,,,,,,,,,,,,,,,,,,,,,,00020,001,2025-11-09_17h59.31.021,MST_task,2024.2.2,59.98580736164073,2025-11-09 17h59.36.645600 +0530,
5,practice_images/139a.jpg,4,4,0,f,1.4835390000080224,0.15898540000489447,None,,,,,,,0,4,4,4,,,,,839.7793363000092,,,,,,,,,,,,,,,,,,,,,,,,,,,,,,839.76305400001,839.7793363000092,840.279329099998,840.2629024000053,840.2640982000012,840.279329099998,840.279329099998,840.279329099998,843.2792579000088,843.2792579000088,843.2792579000088,843.2627208000049,f,1.4835390000080224,0.15898540000489447,843.2627509000013,843.2627597000101,None,,,,,,,,,,,,,,,,,,,,,,,,,,,,,,,,,,,00020,001,2025-11-09_17h59.31.021,MST_task,2024.2.2,59.98580736164073,2025-11-09 17h59.36.645600 +0530,
4,practice_images/002b.jpg,5,5,0,f,0.7400587000011001,0.18162789999041706,None,,,,,,,0,5,5,3,,,,,843.2792579000088,,,,,,,,,,,,,,,,,,,,,,,,,,,,,,843.2628125000047,843.2792579000088,843.7792563000112,843.762839700008,843.7667048000003,843.7792563000112,843.7792563000112,843.7792563000112,846.7791566000087,846.7791566000087,846.7791566000087,846.7627620999992,f,0.7400587000011001,0.18162789999041706,846.764276300004,846.7642874000012,None,,,,,,,,,,,,,,,,,,,,,,,,,,,,,,,,,,,00020,001,2025-11-09_17h59.31.021,MST_task,2024.2.2,59.98580736164073,2025-11-09 17h59.36.645600 +0530,
1,practice_images/013a.jpg,6,6,0,j,1.7065853000094648,0.17587649999768473,None,,,,,,,0,6,6,0,,,,,846.7791566000087,,,,,,,,,,,,,,,,,,,,,,,,,,,,,,846.7643409000011,846.7791566000087,847.2791413000086,847.2627016000042,847.2639328000078,847.2791413000086,847.2791413000086,847.2791413000086,850.2790757000039,850.2790757000039,850.2790757000039,850.2626026000071,j,1.7065853000094648,0.17587649999768473,850.262644100003,850.2626579000062,None,,,,,,,,,,,,,,,,,,,,,,,,,,,,,,,,,,,00020,001,2025-11-09_17h59.31.021,MST_task,2024.2.2,59.98580736164073,2025-11-09 17h59.36.645600 +0530,
8,practice_images/178a.jpg,7,7,0,f,1.048384099995019,0.15723810000054073,None,,,,,,,0,7,7,7,,,,,850.2790757000039,,,,,,,,,,,,,,,,,,,,,,,,,,,,,,850.2627115000068,850.2790757000039,850.7791045000049,850.7626619000075,850.7640023999993,850.7791045000049,850.7791045000049,850.7791045000049,853.779088100011,853.779088100011,853.779088100011,853.7626019000018,f,1.048384099995019,0.15723810000054073,853.7626372000086,853.7626485000073,None,,,,,,,,,,,,,,,,,,,,,,,,,,,,,,,,,,,00020,001,2025-11-09_17h59.31.021,MST_task,2024.2.2,59.98580736164073,2025-11-09 17h59.36.645600 +0530,
7,practice_images/166a.jpg,8,8,0,f,1.433356499997899,0.18875139999727253,None,,,,,,,0,8,8,6,,,,,853.779088100011,,,,,,,,,,,,,,,,,,,,,,,,,,,,,,853.7627072000032,853.779088100011,854.2790531000064,854.2626364000025,854.263903900006,854.2790531000064,854.2790531000064,854.2790531000064,857.2789480000065,857.2789480000065,857.2789480000065,857.2624599999981,f,1.433356499997899,0.18875139999727253,857.2624977000087,857.262507899999,None,,,,,,,,,,,,,,,,,,,,,,,,,,,,,,,,,,,00020,001,2025-11-09_17h59.31.021,MST_task,2024.2.2,59.98580736164073,2025-11-09 17h59.36.645600 +0530,
9,practice_images/180a.jpg,9,9,0,j,1.1659978000097908,0.19020440000167582,None,,,,,,,0,9,9,8,,,,,857.2789480000065,,,,,,,,,,,,,,,,,,,,,,,,,,,,,,857.2625670999987,857.2789480000065,857.7789499000064,857.7624978000094,857.7637761000078,857.7789499000064,857.7789499000064,857.7789499000064,860.7788830000063,860.7788830000063,860.7788830000063,860.7623631000024,j,1.1659978000097908,0.19020440000167582,860.762395400001,860.7624044000113,None,,,,,,,,,,,,,,,,,,,,,,,,,,,,,,,,,,,00020,001,2025-11-09_17h59.31.021,MST_task,2024.2.2,59.98580736164073,2025-11-09 17h59.36.645600 +0530,
,,,,,,,,,,,,,,,,,,,,,,,,,,,,,,,,,,,,,,,,,,,,,,,,,,,,,,,,,,,,,,,,,,,,,,,860.762466900007,860.7788830000063,860.7788830000063,877.362226000012,space,16.568707200000063,None,,,,,,,,,,,,,,,,,,,,,,,,,,,,00020,001,2025-11-09_17h59.31.021,MST_task,2024.2.2,59.98580736164073,2025-11-09 17h59.36.645600 +0530,
,Scenes\009a.jpg,0,0,0,,,,,f,1.5201586000039242,0.15747820000979118,None,,,,,,,0,0,0,0,877.3785513000039,,,,,,,,,,,,,,,,,,,,,,,,,,,,,,877.362767300001,877.3785513000039,877.8953365000052,877.8620664000046,,,,,,,,,,,,,,,,,,,,,,877.8796694000048,877.8953365000052,877.8953365000052,877.8953365000052,880.8784478000016,f,1.5201586000039242,0.15747820000979118,880.8796717000077,880.8796833000088,None,,,,,,,,,,,,,,,,,00020,001,2025-11-09_17h59.31.021,MST_task,2024.2.2,59.98580736164073,2025-11-09 17h59.36.645600 +0530,
,Scenes\022a.jpg,1,0,1,,,,,j,0.9710098999930779,0.1766154000069946,None,,,,,,,1,0,1,0,880.895081900002,,,,,,,,,,,,,,,,,,,,,,,,,,,,,,880.8797402000055,880.895081900002,881.3953134000039,881.3786776000052,,,,,,,,,,,,,,,,,,,,,,881.3853554000088,881.3953134000039,881.3953134000039,881.3953134000039,884.3785635000095,j,0.9710098999930779,0.1766154000069946,884.3785970000026,884.3786059999984,None,884.3950393000123,884.3950393000123,884.3950393000123,,,,,,,,,,,,,,00020,001,2025-11-09_17h59.31.021,MST_task,2024.2.2,59.98580736164073,2025-11-09 17h59.36.645600 +0530,
,Scenes\078a.jpg,2,0,2,,,,,j,1.3140321999962907,0.1653297000011662,None,,,,,,,2,0,2,0,884.3950393000123,,,,,,,,,,,,,,,,,,,,,,,,,,,,,,884.3786806999997,884.3950393000123,884.9120037000102,884.8786086000036,,,,,,,,,,,,,,,,,,,,,,884.8981604,884.9120037000102,884.9120037000102,884.9120037000102,887.894969800007,j,1.3140321999962907,0.1653297000011662,887.8950031999993,887.8950130000012,None,,,,,,,,,,,,,,,,,00020,001,2025-11-09_17h59.31.021,MST_task,2024.2.2,59.98580736164073,2025-11-09 17h59.36.645600 +0530,
,Scenes\139a.jpg,3,0,3,,,,,j,0.8236814999982016,0.17763819999527186,None,,,,,,,3,0,3,0,887.9116289000085,,,,,,,,,,,,,,,,,,,,,,,,,,,,,,887.895096200009,887.9116289000085,,888.3950698999979,,,,,,,,,,,,,,,,,,,,,,888.4039632000058,888.411781200004,888.411781200004,888.411781200004,891.395148399999,j,0.8236814999982016,0.17763819999527186,891.3951828999998,891.3951921999978,None,891.4115606999985,891.4115606999985,891.4115606999985,,,,,,,,,,,,,,00020,001,2025-11-09_17h59.31.021,MST_task,2024.2.2,59.98580736164073,2025-11-09 17h59.36.645600 +0530,
,Scenes\092a.jpg,4,0,4,,,,,j,1.1005308000021614,0.16100739999092184,None,,,,,,,4,0,4,0,891.4115606999985,,,,,,,,,,,,,,,,,,,,,,,,,,,,,,891.3952776000078,891.4115606999985,891.9281774000119,891.8950438000029,,,,,,,,,,,,,,,,,,,,,,891.9140863000066,891.9281774000119,891.9281774000119,891.9281774000119,894.9114765999984,j,1.1005308000021614,0.16100739999092184,894.9115107000107,894.911520300011,None,,,,,,,,,,,,,,,,,00020,001,2025-11-09_17h59.31.021,MST_task,2024.2.2,59.98580736164073,2025-11-09 17h59.36.645600 +0530,
,Scenes\100a.jpg,5,0,5,,,,,f,1.7863690999947721,0.185893700007,None,,,,,,,5,0,5,0,894.9281459000049,,,,,,,,,,,,,,,,,,,,,,,,,,,,,,894.9115767000039,894.9281459000049,,895.4115743000002,,,,,,,,,,,,,,,,,,,,,,895.4233082999999,895.4447823000082,895.4447823000082,895.4447823000082,898.428095299998,f,1.7863690999947721,0.185893700007,898.4281331000093,898.4281420000043,None,,,,,,,,,,,,,,,,,00020,001,2025-11-09_17h59.31.021,MST_task,2024.2.2,59.98580736164073,2025-11-09 17h59.36.645600 +0530,
,Scenes\046a.jpg,6,0,6,,,,,j,0.777654799996526,0.1618499000032898,None,,,,,,,6,0,6,0,898.4447121999983,,,,,,,,,,,,,,,,,,,,,,,,,,,,,,898.4282329999987,898.4447121999983,,898.9282166000048,,,,,,,,,,,,,,,,,,,,,,898.9464567000105,898.9616419000085,898.9616419000085,898.9616419000085,901.9446879000025,j,0.777654799996526,0.1618499000032898,901.9447249000077,901.9447336000012,None,,,,,,,,,,,,,,,,,00020,001,2025-11-09_17h59.31.021,MST_task,2024.2.2,59.98580736164073,2025-11-09 17h59.36.645600 +0530,
,Objects\063a.jpg,7,0,7,,,,,f,1.3470767999970121,0.16948169999523088,None,,,,,,,7,0,7,0,901.9612918000057,,,,,,,,,,,,,,,,,,,,,,,,,,,,,,901.944822999998,901.9612918000057,902.4782724000106,902.4448692000005,,,,,,,,,,,,,,,,,,,,,,902.4648608999996,902.4782724000106,902.4782724000106,902.4782724000106,905.4612684000022,f,1.3470767999970121,0.16948169999523088,905.4635271000006,905.4635415000084,None,,,,,,,,,,,,,,,,,00020,001,2025-11-09_17h59.31.021,MST_task,2024.2.2,59.98580736164073,2025-11-09 17h59.36.645600 +0530,
,Objects\168a.jpg,8,0,8,,,,,f,1.7217872999899555,0.16508099999919068,None,,,,,,,8,0,8,0,905.477896100012,,,,,,,,,,,,,,,,,,,,,,,,,,,,,,905.4636320999998,905.477896100012,905.9778693999979,905.9614930000098,,,,,,,,,,,,,,,,,,,,,,905.971065900012,905.9778693999979,905.9778693999979,905.9778693999979,908.9614187000116,f,1.7217872999899555,0.16508099999919068,908.9614541000046,908.9614644000103,None,908.9778471000027,908.9778471000027,908.9778471000027,,,,,,,,,,,,,,00020,001,2025-11-09_17h59.31.021,MST_task,2024.2.2,59.98580736164073,2025-11-09 17h59.36.645600 +0530,
,Objects\042a.jpg,9,0,9,,,,,j,1.393544300008216,0.16943339999124873,None,,,,,,,9,0,9,0,908.9778471000027,,,,,,,,,,,,,,,,,,,,,,,,,,,,,,908.9615477000043,908.9778471000027,909.4778330000117,909.4613315000024,,,,,,,,,,,,,,,,,,,,,,909.4712646000116,909.4778330000117,909.4778330000117,909.4778330000117,912.461478000012,j,1.393544300008216,0.16943339999124873,912.461510699999,912.4615205000009,None,912.4777993000025,912.4777993000025,912.4777993000025,,,,,,,,,,,,,,00020,001,2025-11-09_17h59.31.021,MST_task,2024.2.2,59.98580736164073,2025-11-09 17h59.36.645600 +0530,
,Objects\178a.jpg,10,0,10,,,,,f,1.4371643000049517,0.16602160000184085,None,,,,,,,10,0,10,0,912.4777993000025,,,,,,,,,,,,,,,,,,,,,,,,,,,,,,912.4615798000013,912.4777993000025,912.977734,912.9612412999995,,,,,,,,,,,,,,,,,,,,,,912.9714842000103,912.977734,912.977734,912.977734,915.9613763000089,f,1.4371643000049517,0.16602160000184085,915.9614157000033,915.9614255000051,None,915.977762399998,915.977762399998,915.977762399998,,,,,,,,,,,,,,00020,001,2025-11-09_17h59.31.021,MST_task,2024.2.2,59.98580736164073,2025-11-09 17h59.36.645600 +0530,
,Objects\048a.jpg,11,0,11,,,,,j,1.06331689999206,0.12210639999830164,None,,,,,,,11,0,11,0,915.977762399998,,,,,,,,,,,,,,,,,,,,,,,,,,,,,,915.9614856999979,915.977762399998,916.4776409000042,916.4612445000093,,,,,,,,,,,,,,,,,,,,,,916.4714638000005,916.4776409000042,916.4776409000042,916.4776409000042,919.4611869000073,j,1.06331689999206,0.12210639999830164,919.4612207000027,919.4612309000076,None,919.4775754000002,919.4775754000002,919.4775754000002,,,,,,,,,,,,,,00020,001,2025-11-09_17h59.31.021,MST_task,2024.2.2,59.98580736164073,2025-11-09 17h59.36.645600 +0530,
,Objects\164a.jpg,12,0,12,,,,,f,0.8612144999933662,0.1860556000028737,None,,,,,,,12,0,12,0,919.4775754000002,,,,,,,,,,,,,,,,,,,,,,,,,,,,,,919.4612823000061,919.4775754000002,919.977567599999,919.961189300011,,,,,,,,,,,,,,,,,,,,,,919.972511800006,919.977567599999,919.977567599999,919.977567599999,922.9610911000054,f,0.8612144999933662,0.1860556000028737,922.9611273000046,922.9611370000057,None,922.9775372000004,922.9775372000004,922.9775372000004,,,,,,,,,,,,,,00020,001,2025-11-09_17h59.31.021,MST_task,2024.2.2,59.98580736164073,2025-11-09 17h59.36.645600 +0530,
,Objects\100a.jpg,13,0,13,,,,,f,0.6672173999977531,0.1989460000040708,None,,,,,,,13,0,13,0,922.9775372000004,,,,,,,,,,,,,,,,,,,,,,,,,,,,,,922.9612169000029,922.9775372000004,923.4774878000026,923.4609990000026,,,,,,,,,,,,,,,,,,,,,,923.4718436000112,923.4774878000026,923.4774878000026,923.4774878000026,926.4610577999993,f,0.6672173999977531,0.1989460000040708,926.4610924000008,926.4611027000064,None,926.4774605999992,926.4774605999992,926.4774605999992,,,,,,,,,,,,,,00020,001,2025-11-09_17h59.31.021,MST_task,2024.2.2,59.98580736164073,2025-11-09 17h59.36.645600 +0530,
,Scenes\071a.jpg,14,0,14,,,,,j,1.6152870999940205,0.16577850001340266,None,,,,,,,14,0,14,0,926.4774605999992,,,,,,,,,,,,,,,,,,,,,,,,,,,,,,926.4611569000117,926.4774605999992,926.9944066000025,926.9610773000022,,,,,,,,,,,,,,,,,,,,,,926.9803907000023,926.9944066000025,926.9944066000025,926.9944066000025,929.9774823000043,j,1.6152870999940205,0.16577850001340266,929.9787556000083,929.9787676999986,None,,,,,,,,,,,,,,,,,00020,001,2025-11-09_17h59.31.021,MST_task,2024.2.2,59.98580736164073,2025-11-09 17h59.36.645600 +0530,
,Scenes\096a.jpg,15,0,15,,,,,j,1.10797850000381,0.16652859999157954,None,,,,,,,15,0,15,0,929.9940477000055,,,,,,,,,,,,,,,,,,,,,,,,,,,,,,929.9788267000113,929.9940477000055,930.5109597000119,930.4775946000009,,,,,,,,,,,,,,,,,,,,,,930.4910189000075,930.5109597000119,930.5109597000119,930.5109597000119,933.4940263000026,j,1.10797850000381,0.16652859999157954,933.4940615000087,933.494071100009,None,,,,,,,,,,,,,,,,,00020,001,2025-11-09_17h59.31.021,MST_task,2024.2.2,59.98580736164073,2025-11-09 17h59.36.645600 +0530,
,Scenes\116a.jpg,16,0,16,,,,,j,0.9225714999920456,0.1474142000079155,None,,,,,,,16,0,16,0,933.5105947999982,,,,,,,,,,,,,,,,,,,,,,,,,,,,,,933.4941531000077,933.5105947999982,934.0274937000067,933.9942355000094,,,,,,,,,,,,,,,,,,,,,,934.0036001000117,934.0274937000067,934.0274937000067,934.0274937000067,937.0106616000121,j,0.9225714999920456,0.1474142000079155,937.0107032000087,937.0107133999991,None,,,,,,,,,,,,,,,,,00020,001,2025-11-09_17h59.31.021,MST_task,2024.2.2,59.98580736164073,2025-11-09 17h59.36.645600 +0530,
,Scenes\187a.jpg,17,0,17,,,,,j,1.0571056000044337,0.1595268999953987,None,,,,,,,17,0,17,0,937.0272381000104,,,,,,,,,,,,,,,,,,,,,,,,,,,,,,937.0108150000015,937.0272381000104,937.543882900005,937.5107867000042,,,,,,,,,,,,,,,,,,,,,,937.5230530999979,937.543882900005,937.543882900005,937.543882900005,940.5272614999994,j,1.0571056000044337,0.1595268999953987,940.5273318000109,940.5273455999995,None,,,,,,,,,,,,,,,,,00020,001,2025-11-09_17h59.31.021,MST_task,2024.2.2,59.98580736164073,2025-11-09 17h59.36.645600 +0530,
,Scenes\051a.jpg,18,0,18,,,,,j,1.4962635000119917,0.13635959998646285,None,,,,,,,18,0,18,0,940.5438933000114,,,,,,,,,,,,,,,,,,,,,,,,,,,,,,940.5274117000081,940.5438933000114,941.0607929000107,941.0274611000059,,,,,,,,,,,,,,,,,,,,,,941.0398132999981,941.0607929000107,941.0607929000107,941.0607929000107,944.0437334000017,j,1.4962635000119917,0.13635959998646285,944.0437688000093,944.0437786000111,None,,,,,,,,,,,,,,,,,00020,001,2025-11-09_17h59.31.021,MST_task,2024.2.2,59.98580736164073,2025-11-09 17h59.36.645600 +0530,
,Scenes\152a.jpg,19,0,19,,,,,j,0.8821599999937462,0.1582677000114927,None,,,,,,,19,0,19,0,944.0604063000064,,,,,,,,,,,,,,,,,,,,,,,,,,,,,,944.0438625000097,944.0604063000064,,944.5438475999981,,,,,,,,,,,,,,,,,,,,,,944.5544573000079,944.5770702000009,944.5770702000009,944.5770702000009,947.5604905000073,j,0.8821599999937462,0.1582677000114927,947.5605257999996,947.5605401000066,None,,,,,,,,,,,,,,,,,00020,001,2025-11-09_17h59.31.021,MST_task,2024.2.2,59.98580736164073,2025-11-09 17h59.36.645600 +0530,
,Scenes\021a.jpg,20,0,20,,,,,j,1.3331930999993347,0.1640218999964418,None,,,,,,,20,0,20,0,947.5769967000087,,,,,,,,,,,,,,,,,,,,,,,,,,,,,,947.5606256000028,947.5769967000087,948.0936190000066,948.0606114000111,,,,,,,,,,,,,,,,,,,,,,948.0732295000053,948.0936190000066,948.0936190000066,948.0936190000066,951.0769834000093,j,1.3331930999993347,0.1640218999964418,951.0770197000093,951.0770295000111,None,,,,,,,,,,,,,,,,,00020,001,2025-11-09_17h59.31.021,MST_task,2024.2.2,59.98580736164073,2025-11-09 17h59.36.645600 +0530,
,Objects\175a.jpg,21,0,21,,,,,f,1.0950320999982068,0.17861360000097193,None,,,,,,,21,0,21,0,951.0935922000062,,,,,,,,,,,,,,,,,,,,,,,,,,,,,,951.0770899000054,951.0935922000062,,951.5770539000077,,,,,,,,,,,,,,,,,,,,,,951.5880708000041,951.593949800008,951.593949800008,951.593949800008,954.5772808000038,f,1.0950320999982068,0.17861360000097193,954.57879710001,954.5788092000003,None,954.593515200002,954.593515200002,954.593515200002,,,,,,,,,,,,,,00020,001,2025-11-09_17h59.31.021,MST_task,2024.2.2,59.98580736164073,2025-11-09 17h59.36.645600 +0530,
,Objects\137a.jpg,22,0,22,,,,,f,1.5398967999935849,0.19788140000309795,None,,,,,,,22,0,22,0,954.593515200002,,,,,,,,,,,,,,,,,,,,,,,,,,,,,,954.578869200006,954.593515200002,955.0935605000122,955.0770883000077,,,,,,,,,,,,,,,,,,,,,,955.0869794000027,955.0935605000122,955.0935605000122,955.0935605000122,958.0770716000115,f,1.5398967999935849,0.19788140000309795,958.0771049000032,958.077114300002,None,958.0935528000118,958.0935528000118,958.0935528000118,,,,,,,,,,,,,,00020,001,2025-11-09_17h59.31.021,MST_task,2024.2.2,59.98580736164073,2025-11-09 17h59.36.645600 +0530,
,Objects\040a.jpg,23,0,23,,,,,f,0.8255280000012135,0.17818719999922905,None,,,,,,,23,0,23,0,958.0935528000118,,,,,,,,,,,,,,,,,,,,,,,,,,,,,,958.0771681000042,958.0935528000118,958.59347230001,958.5770462000073,,,,,,,,,,,,,,,,,,,,,,958.5869920000114,958.59347230001,958.59347230001,958.59347230001,961.5770329000079,f,0.8255280000012135,0.17818719999922905,961.5770667000033,961.5770761000022,None,961.5935688000027,961.5935688000027,961.5935688000027,,,,,,,,,,,,,,00020,001,2025-11-09_17h59.31.021,MST_task,2024.2.2,59.98580736164073,2025-11-09 17h59.36.645600 +0530,
,Objects\059a.jpg,24,0,24,,,,,j,1.3284676000039326,0.17792149999877438,None,,,,,,,24,0,24,0,961.5935688000027,,,,,,,,,,,,,,,,,,,,,,,,,,,,,,961.5771300000051,961.5935688000027,962.0934391000046,962.0769481000025,,,,,,,,,,,,,,,,,,,,,,962.0870965000067,962.0934391000046,962.0934391000046,962.0934391000046,965.0769250000012,j,1.3284676000039326,0.17792149999877438,965.0769598000043,965.0769713000045,None,965.0934183000063,965.0934183000063,965.0934183000063,,,,,,,,,,,,,,00020,001,2025-11-09_17h59.31.021,MST_task,2024.2.2,59.98580736164073,2025-11-09 17h59.36.645600 +0530,
,Objects\106a.jpg,25,0,25,,,,,f,1.3283054000057746,0.1512858999922173,None,,,,,,,25,0,25,0,965.0934183000063,,,,,,,,,,,,,,,,,,,,,,,,,,,,,,965.0770517000055,965.0934183000063,965.5933982999995,965.5768860000098,,,,,,,,,,,,,,,,,,,,,,965.5864962000051,965.5933982999995,965.5933982999995,965.5933982999995,968.5769155000016,f,1.3283054000057746,0.1512858999922173,968.5769493999978,968.576958900012,None,968.5932983000093,968.5932983000093,968.5932983000093,,,,,,,,,,,,,,00020,001,2025-11-09_17h59.31.021,MST_task,2024.2.2,59.98580736164073,2025-11-09 17h59.36.645600 +0530,
,Objects\103a.jpg,26,0,26,,,,,j,1.3703237000008812,0.1716306999878725,None,,,,,,,26,0,26,0,968.5932983000093,,,,,,,,,,,,,,,,,,,,,,,,,,,,,,968.5770397000015,968.5932983000093,969.0932733000081,969.0767690000066,,,,,,,,,,,,,,,,,,,,,,969.0867763999995,969.0932733000081,969.0932733000081,969.0932733000081,972.0767716999981,j,1.3703237000008812,0.1716306999878725,972.0768060999981,972.0768161000015,None,972.0932927000104,972.0932927000104,972.0932927000104,,,,,,,,,,,,,,00020,001,2025-11-09_17h59.31.021,MST_task,2024.2.2,59.98580736164073,2025-11-09 17h59.36.645600 +0530,
,Objects\014a.jpg,27,0,27,,,,,f,1.4499790999980178,0.1771597000042675,None,,,,,,,27,0,27,0,972.0932927000104,,,,,,,,,,,,,,,,,,,,,,,,,,,,,,972.0769024000037,972.0932927000104,972.609846700012,972.5767138000083,,,,,,,,,,,,,,,,,,,,,,972.5955297000037,972.609846700012,972.609846700012,972.609846700012,975.5932356999983,f,1.4499790999980178,0.1771597000042675,975.5932787000056,975.5932925000088,None,,,,,,,,,,,,,,,,,00020,001,2025-11-09_17h59.31.021,MST_task,2024.2.2,59.98580736164073,2025-11-09 17h59.36.645600 +0530,
,Scenes\186a.jpg,28,0,28,,,,,j,1.466463599994313,0.17697970000153873,None,,,,,,,28,0,28,0,975.609844000006,,,,,,,,,,,,,,,,,,,,,,,,,,,,,,975.5933745000075,975.609844000006,976.1266674000071,976.0933110000042,,,,,,,,,,,,,,,,,,,,,,976.1052914000029,976.1266674000071,976.1266674000071,976.1266674000071,979.1097432000097,j,1.466463599994313,0.17697970000153873,979.1108824000112,979.1108941999992,None,,,,,,,,,,,,,,,,,00020,001,2025-11-09_17h59.31.021,MST_task,2024.2.2,59.98580736164073,2025-11-09 17h59.36.645600 +0530,
,Scenes\070a.jpg,29,0,29,,,,,f,1.4420857999939471,0.17836890000035055,None,,,,,,,29,0,29,0,979.1263983000099,,,,,,,,,,,,,,,,,,,,,,,,,,,,,,979.1109496999998,979.1263983000099,979.643270600005,979.6099595999985,,,,,,,,,,,,,,,,,,,,,,979.6226188,979.643270600005,979.643270600005,979.643270600005,982.6263590000017,f,1.4420857999939471,0.17836890000035055,982.6263943000085,982.6264042000112,None,,,,,,,,,,,,,,,,,00020,001,2025-11-09_17h59.31.021,MST_task,2024.2.2,59.98580736164073,2025-11-09 17h59.36.645600 +0530,
,Scenes\018a.jpg,30,0,30,,,,,f,1.2221554999996442,0.15703970000322443,None,,,,,,,30,0,30,0,982.6430888000032,,,,,,,,,,,,,,,,,,,,,,,,,,,,,,982.6264866999991,982.6430888000032,983.1596742000111,983.1265421999997,,,,,,,,,,,,,,,,,,,,,,983.1382630000007,983.1596742000111,983.1596742000111,983.1596742000111,986.1429481000087,f,1.2221554999996442,0.15703970000322443,986.1429975000065,986.143007000006,None,,,,,,,,,,,,,,,,,00020,001,2025-11-09_17h59.31.021,MST_task,2024.2.2,59.98580736164073,2025-11-09 17h59.36.645600 +0530,
,Scenes\122a.jpg,31,0,31,,,,,f,1.0348098999966169,0.17389799999364186,None,,,,,,,31,0,31,0,986.1595769000123,,,,,,,,,,,,,,,,,,,,,,,,,,,,,,986.1430710999994,986.1595769000123,986.6762701999978,986.6430639000027,,,,,,,,,,,,,,,,,,,,,,986.6566470000107,986.6762701999978,986.6762701999978,986.6762701999978,989.6595110000053,f,1.0348098999966169,0.17389799999364186,989.6595467000006,989.6595559999987,None,,,,,,,,,,,,,,,,,00020,001,2025-11-09_17h59.31.021,MST_task,2024.2.2,59.98580736164073,2025-11-09 17h59.36.645600 +0530,
,Scenes\044a.jpg,32,0,32,,,,,f,1.022490099989227,0.17020240001147613,None,,,,,,,32,0,32,0,989.6761687000107,,,,,,,,,,,,,,,,,,,,,,,,,,,,,,989.6596409000049,989.6761687000107,990.1928195000073,990.1596455000108,,,,,,,,,,,,,,,,,,,,,,990.1710694000067,990.1928195000073,990.1928195000073,990.1928195000073,993.1760960000101,f,1.022490099989227,0.17020240001147613,993.1761293000018,993.1761392000044,None,,,,,,,,,,,,,,,,,00020,001,2025-11-09_17h59.31.021,MST_task,2024.2.2,59.98580736164073,2025-11-09 17h59.36.645600 +0530,
,Scenes\134a.jpg,33,0,33,,,,,j,0.7292457000003196,0.16668370000843424,None,,,,,,,33,0,33,0,993.1928094000032,,,,,,,,,,,,,,,,,,,,,,,,,,,,,,993.1761948000058,993.1928094000032,,993.6764181000035,,,,,,,,,,,,,,,,,,,,,,993.697030299998,993.7096562000079,993.7096562000079,993.7096562000079,996.6928062000079,j,0.7292457000003196,0.16668370000843424,996.6928402000049,996.6928488000121,None,,,,,,,,,,,,,,,,,00020,001,2025-11-09_17h59.31.021,MST_task,2024.2.2,59.98580736164073,2025-11-09 17h59.36.645600 +0530,
,Scenes\011a.jpg,34,0,34,,,,,j,0.7310859999997774,0.162263799997163,None,,,,,,,34,0,34,0,996.7093157000054,,,,,,,,,,,,,,,,,,,,,,,,,,,,,,996.6929337000038,996.7093157000054,997.2263189000078,997.1928407000087,,,,,,,,,,,,,,,,,,,,,,997.2088903000113,997.2263189000078,997.2263189000078,997.2263189000078,1000.2092777000071,j,0.7310859999997774,0.162263799997163,1000.2093146000116,1000.2093246000004,None,,,,,,,,,,,,,,,,,00020,001,2025-11-09_17h59.31.021,MST_task,2024.2.2,59.98580736164073,2025-11-09 17h59.36.645600 +0530,
,Objects\187a.jpg,35,0,35,,,,,f,0.7607672000012826,0.16735849999531638,None,,,,,,,35,0,35,0,1000.2259447000106,,,,,,,,,,,,,,,,,,,,,,,,,,,,,,1000.2094366000092,1000.2259447000106,1000.7261626000109,1000.7093759999989,,,,,,,,,,,,,,,,,,,,,,1000.7209032000101,1000.7261626000109,1000.7261626000109,1000.7261626000109,1003.7094364000077,f,0.7607672000012826,0.16735849999531638,1003.7111248000001,1003.7111372000072,None,1003.7258366000024,1003.7258366000024,1003.7258366000024,,,,,,,,,,,,,,00020,001,2025-11-09_17h59.31.021,MST_task,2024.2.2,59.98580736164073,2025-11-09 17h59.36.645600 +0530,
,Objects\151a.jpg,36,0,36,,,,,f,0.7355738999904133,0.17930610000621527,None,,,,,,,36,0,36,0,1003.7258366000024,,,,,,,,,,,,,,,,,,,,,,,,,,,,,,1003.7112267000048,1003.7258366000024,1004.225818100007,1004.2093098000041,,,,,,,,,,,,,,,,,,,,,,1004.2193952000089,1004.225818100007,1004.225818100007,1004.225818100007,1007.209368900003,f,0.7355738999904133,0.17930610000621527,1007.20940040001,1007.2094099000096,None,1007.2257551000075,1007.2257551000075,1007.2257551000075,,,,,,,,,,,,,,00020,001,2025-11-09_17h59.31.021,MST_task,2024.2.2,59.98580736164073,2025-11-09 17h59.36.645600 +0530,
,Objects\119a.jpg,37,0,37,,,,,f,0.5615078999981051,0.1738439000037033,None,,,,,,,37,0,37,0,1007.2257551000075,,,,,,,,,,,,,,,,,,,,,,,,,,,,,,1007.2094615000096,1007.2257551000075,1007.7257453000057,1007.7092953000101,,,,,,,,,,,,,,,,,,,,,,1007.7189078000083,1007.7257453000057,1007.7257453000057,1007.7257453000057,1010.709328900004,f,0.5615078999981051,0.1738439000037033,1010.7093636000063,1010.7093728000036,None,1010.7256787000078,1010.7256787000078,1010.7256787000078,,,,,,,,,,,,,,00020,001,2025-11-09_17h59.31.021,MST_task,2024.2.2,59.98580736164073,2025-11-09 17h59.36.645600 +0530,
,Objects\072a.jpg,38,0,38,,,,,f,0.7094420000066748,0.1856580000021495,None,,,,,,,38,0,38,0,1010.7256787000078,,,,,,,,,,,,,,,,,,,,,,,,,,,,,,1010.7094518000085,1010.7256787000078,1011.2256835000007,1011.2093797999987,,,,,,,,,,,,,,,,,,,,,,1011.2200175000035,1011.2256835000007,1011.2256835000007,1011.2256835000007,1014.2092109000077,f,0.7094420000066748,0.1856580000021495,1014.2092432000063,1014.2092523000028,None,1014.225603800005,1014.225603800005,1014.225603800005,,,,,,,,,,,,,,00020,001,2025-11-09_17h59.31.021,MST_task,2024.2.2,59.98580736164073,2025-11-09 17h59.36.645600 +0530,
,Objects\025a.jpg,39,0,39,,,,,f,1.0228128000017023,0.18625719999545254,None,,,,,,,39,0,39,0,1014.225603800005,,,,,,,,,,,,,,,,,,,,,,,,,,,,,,1014.2093037000013,1014.225603800005,1014.7422585000022,1014.7091745000071,,,,,,,,,,,,,,,,,,,,,,1014.7258653000026,1014.7422585000022,1014.7422585000022,1014.7422585000022,1017.7255966000084,f,1.0228128000017023,0.18625719999545254,1017.7256363000051,1017.7256463000085,None,,,,,,,,,,,,,,,,,00020,001,2025-11-09_17h59.31.021,MST_task,2024.2.2,59.98580736164073,2025-11-09 17h59.36.645600 +0530,
,Objects\114a.jpg,40,0,40,,,,,f,0.6384019999968586,0.17778669999097474,None,,,,,,,40,0,40,0,1017.742184200004,,,,,,,,,,,,,,,,,,,,,,,,,,,,,,1017.7257348999992,1017.742184200004,1018.2588541000005,1018.225732100007,,,,,,,,,,,,,,,,,,,,,,1018.2421245000005,1018.2588541000005,1018.2588541000005,1018.2588541000005,1021.2421638000087,f,0.6384019999968586,0.17778669999097474,1021.2421990000003,1021.2422088000021,None,,,,,,,,,,,,,,,,,00020,001,2025-11-09_17h59.31.021,MST_task,2024.2.2,59.98580736164073,2025-11-09 17h59.36.645600 +0530,
,Objects\162a.jpg,41,0,41,,,,,f,0.6244491999968886,0.1982346000004327,None,,,,,,,41,0,41,0,1021.2588161000022,,,,,,,,,,,,,,,,,,,,,,,,,,,,,,1021.2422668000072,1021.2588161000022,1021.7587910000002,1021.7423133999982,,,,,,,,,,,,,,,,,,,,,,1021.7522039000032,1021.7587910000002,1021.7587910000002,1021.7587910000002,1024.742336700001,f,0.6244491999968886,0.1982346000004327,1024.7423706000118,1024.742380399999,None,1024.7587070000009,1024.7587070000009,1024.7587070000009,,,,,,,,,,,,,,00020,001,2025-11-09_17h59.31.021,MST_task,2024.2.2,59.98580736164073,2025-11-09 17h59.36.645600 +0530,
,Scenes\029a.jpg,42,0,42,,,,,j,1.0463047999946866,0.14957000000867993,None,,,,,,,42,0,42,0,1024.7587070000009,,,,,,,,,,,,,,,,,,,,,,,,,,,,,,1024.7424354000104,1024.7587070000009,1025.2756348000112,1025.2421944000089,,,,,,,,,,,,,,,,,,,,,,1025.256496300004,1025.2756348000112,1025.2756348000112,1025.2756348000112,1028.2586621000082,j,1.0463047999946866,0.14957000000867993,1028.2598272000032,1028.2598414000095,None,,,,,,,,,,,,,,,,,00020,001,2025-11-09_17h59.31.021,MST_task,2024.2.2,59.98580736164073,2025-11-09 17h59.36.645600 +0530,
,Scenes\138a.jpg,43,0,43,,,,,j,1.2129736000060802,0.1667386000044644,None,,,,,,,43,0,43,0,1028.2753295000002,,,,,,,,,,,,,,,,,,,,,,,,,,,,,,1028.2599442000064,1028.2753295000002,1028.7919642000052,1028.7587753999978,,,,,,,,,,,,,,,,,,,,,,1028.770373700012,1028.7919642000052,1028.7919642000052,1028.7919642000052,1031.7753273999988,j,1.2129736000060802,0.1667386000044644,1031.7753608000057,1031.775370400006,None,,,,,,,,,,,,,,,,,00020,001,2025-11-09_17h59.31.021,MST_task,2024.2.2,59.98580736164073,2025-11-09 17h59.36.645600 +0530,
,Scenes\113a.jpg,44,0,44,,,,,j,0.7939869999972871,0.1469916999922134,None,,,,,,,44,0,44,0,1031.7919519999996,,,,,,,,,,,,,,,,,,,,,,,,,,,,,,1031.775476900002,1031.7919519999996,1032.29185400001,1032.275375600002,,,,,,,,,,,,,,,,,,,,,,1032.287378699999,1032.29185400001,1032.29185400001,1032.29185400001,1035.2753774000012,j,0.7939869999972871,0.1469916999922134,1035.275410400005,1035.275420200007,None,1035.2918395000015,1035.2918395000015,1035.2918395000015,,,,,,,,,,,,,,00020,001,2025-11-09_17h59.31.021,MST_task,2024.2.2,59.98580736164073,2025-11-09 17h59.36.645600 +0530,
,Scenes\090a.jpg,45,0,45,,,,,j,0.74246320000384,0.15393290000793058,None,,,,,,,45,0,45,0,1035.2918395000015,,,,,,,,,,,,,,,,,,,,,,,,,,,,,,1035.2754988000088,1035.2918395000015,1035.8085292000032,1035.7752964000101,,,,,,,,,,,,,,,,,,,,,,1035.7889109000098,1035.8085292000032,1035.8085292000032,1035.8085292000032,1038.7917753000074,j,0.74246320000384,0.15393290000793058,1038.7918116000073,1038.791821100007,None,,,,,,,,,,,,,,,,,00020,001,2025-11-09_17h59.31.021,MST_task,2024.2.2,59.98580736164073,2025-11-09 17h59.36.645600 +0530,
,Scenes\165a.jpg,46,0,46,,,,,j,1.2622722000087379,0.15683969999372493,None,,,,,,,46,0,46,0,1038.8084329000121,,,,,,,,,,,,,,,,,,,,,,,,,,,,,,1038.7919024000003,1038.8084329000121,,1039.2919441000122,,,,,,,,,,,,,,,,,,,,,,1039.3050479000085,1039.3250747999991,1039.3250747999991,1039.3250747999991,1042.30837720001,j,1.2622722000087379,0.15683969999372493,1042.3084220000019,1042.308436300009,None,,,,,,,,,,,,,,,,,00020,001,2025-11-09_17h59.31.021,MST_task,2024.2.2,59.98580736164073,2025-11-09 17h59.36.645600 +0530,
,Scenes\167a.jpg,47,0,47,,,,,f,1.437500900006853,0.17839079999248497,None,,,,,,,47,0,47,0,1042.3249313999986,,,,,,,,,,,,,,,,,,,,,,,,,,,,,,1042.3085022000014,1042.3249313999986,1042.8418300000048,1042.8085876000114,,,,,,,,,,,,,,,,,,,,,,1042.8223750000034,1042.8418300000048,1042.8418300000048,1042.8418300000048,1045.8249714999984,f,1.437500900006853,0.17839079999248497,1045.825009200009,1045.8250195,None,,,,,,,,,,,,,,,,,00020,001,2025-11-09_17h59.31.021,MST_task,2024.2.2,59.98580736164073,2025-11-09 17h59.36.645600 +0530,
,Scenes\035a.jpg,48,0,48,,,,,f,0.9630323000019416,0.19403689999307971,None,,,,,,,48,0,48,0,1045.8415306000097,,,,,,,,,,,,,,,,,,,,,,,,,,,,,,1045.825114200008,1045.8415306000097,1046.3581526000053,1046.325069700004,,,,,,,,,,,,,,,,,,,,,,1046.3382457999978,1046.3581526000053,1046.3581526000053,1046.3581526000053,1049.341580799999,f,0.9630323000019416,0.19403689999307971,1049.3416303000122,1049.3416412000079,None,,,,,,,,,,,,,,,,,00020,001,2025-11-09_17h59.31.021,MST_task,2024.2.2,59.98580736164073,2025-11-09 17h59.36.645600 +0530,
,Objects\104a.jpg,49,0,49,,,,,f,0.7076329999981681,0.17685880001226906,None,,,,,,,49,0,49,0,1049.358120600009,,,,,,,,,,,,,,,,,,,,,,,,,,,,,,1049.3417040000058,1049.358120600009,1049.8583302000043,1049.8416673000029,,,,,,,,,,,,,,,,,,,,,,1049.853566100006,1049.8583302000043,1049.8583302000043,1049.8583302000043,1052.841751800006,f,0.7076329999981681,0.17685880001226906,1052.8432828000077,1052.8432940000057,None,1052.8580025999981,1052.8580025999981,1052.8580025999981,,,,,,,,,,,,,,00020,001,2025-11-09_17h59.31.021,MST_task,2024.2.2,59.98580736164073,2025-11-09 17h59.36.645600 +0530,
,Objects\021a.jpg,50,0,50,,,,,f,1.8655362999998033,0.16519280000647996,None,,,,,,,50,0,50,0,1052.8580025999981,,,,,,,,,,,,,,,,,,,,,,,,,,,,,,1052.8433745000075,1052.8580025999981,1053.3580352999998,1053.341633700009,,,,,,,,,,,,,,,,,,,,,,1053.3514727000002,1053.3580352999998,1053.3580352999998,1053.3580352999998,1056.3415122000006,f,1.8655362999998033,0.16519280000647996,1056.3415486000013,1056.3415582000016,None,1056.357969100005,1056.357969100005,1056.357969100005,,,,,,,,,,,,,,00020,001,2025-11-09_17h59.31.021,MST_task,2024.2.2,59.98580736164073,2025-11-09 17h59.36.645600 +0530,
,Objects\155a.jpg,51,0,51,,,,,f,0.8569147000089288,0.18201950000366196,None,,,,,,,51,0,51,0,1056.357969100005,,,,,,,,,,,,,,,,,,,,,,,,,,,,,,1056.3416143000068,1056.357969100005,1056.857918900001,1056.8414381000039,,,,,,,,,,,,,,,,,,,,,,1056.8512255000096,1056.857918900001,1056.857918900001,1056.857918900001,1059.8414992000035,f,0.8569147000089288,0.18201950000366196,1059.8415316000028,1059.8415408,None,1059.857888300001,1059.857888300001,1059.857888300001,,,,,,,,,,,,,,00020,001,2025-11-09_17h59.31.021,MST_task,2024.2.2,59.98580736164073,2025-11-09 17h59.36.645600 +0530,
,Objects\107a.jpg,52,0,52,,,,,f,0.9304995999991661,0.18650890000571962,None,,,,,,,52,0,52,0,1059.857888300001,,,,,,,,,,,,,,,,,,,,,,,,,,,,,,1059.8416203000088,1059.857888300001,1060.3745005000092,1060.3414324000041,,,,,,,,,,,,,,,,,,,,,,1060.358921799998,1060.3745005000092,1060.3745005000092,1060.3745005000092,1063.3578460999997,f,0.9304995999991661,0.18650890000571962,1063.3578971000097,1063.3579070999986,None,,,,,,,,,,,,,,,,,00020,001,2025-11-09_17h59.31.021,MST_task,2024.2.2,59.98580736164073,2025-11-09 17h59.36.645600 +0530,
,Objects\016a.jpg,53,0,53,,,,,f,0.6349282000010135,0.16615489999821875,None,,,,,,,53,0,53,0,1063.3744773000071,,,,,,,,,,,,,,,,,,,,,,,,,,,,,,1063.3580014000036,1063.3744773000071,1063.8744339000114,1063.8580312000122,,,,,,,,,,,,,,,,,,,,,,1063.8679546000058,1063.8744339000114,1063.8744339000114,1063.8744339000114,1066.857971999998,f,0.6349282000010135,0.16615489999821875,1066.8580133000069,1066.8580243000033,None,1066.8743973000092,1066.8743973000092,1066.8743973000092,,,,,,,,,,,,,,00020,001,2025-11-09_17h59.31.021,MST_task,2024.2.2,59.98580736164073,2025-11-09 17h59.36.645600 +0530,
,Objects\144a.jpg,54,0,54,,,,,j,2.0552165000117384,0.17312700000184122,None,,,,,,,54,0,54,0,1066.8743973000092,,,,,,,,,,,,,,,,,,,,,,,,,,,,,,1066.8581077999988,1066.8743973000092,1067.3743549000064,1067.3579585999978,,,,,,,,,,,,,,,,,,,,,,1067.3684839000052,1067.3743549000064,1067.3743549000064,1067.3743549000064,1070.357868200008,j,2.0552165000117384,0.17312700000184122,1070.357900700008,1070.3579101000068,None,1070.374333300002,1070.374333300002,1070.374333300002,,,,,,,,,,,,,,00020,001,2025-11-09_17h59.31.021,MST_task,2024.2.2,59.98580736164073,2025-11-09 17h59.36.645600 +0530,
,Objects\001a.jpg,55,0,55,,,,,f,0.827764899993781,0.17012480000266805,None,,,,,,,55,0,55,0,1070.374333300002,,,,,,,,,,,,,,,,,,,,,,,,,,,,,,1070.3579884000064,1070.374333300002,1070.874289600004,1070.8578355000063,,,,,,,,,,,,,,,,,,,,,,1070.8673344999988,1070.874289600004,1070.874289600004,1070.874289600004,1073.8580046999996,f,0.827764899993781,0.17012480000266805,1073.8580395000026,1073.8580498000083,None,1073.8743560000003,1073.8743560000003,1073.8743560000003,,,,,,,,,,,,,,00020,001,2025-11-09_17h59.31.021,MST_task,2024.2.2,59.98580736164073,2025-11-09 17h59.36.645600 +0530,
,Scenes\065a.jpg,56,0,56,,,,,j,1.5725908999884268,0.15154020000773016,None,,,,,,,56,0,56,0,1073.8743560000003,,,,,,,,,,,,,,,,,,,,,,,,,,,,,,1073.8581122000032,1073.8743560000003,1074.3911955000076,1074.3578484000027,,,,,,,,,,,,,,,,,,,,,,1074.3715251000103,1074.3911955000076,1074.3911955000076,1074.3911955000076,1077.3742685000034,j,1.5725908999884268,0.15154020000773016,1077.3754497000045,1077.375460700001,None,,,,,,,,,,,,,,,,,00020,001,2025-11-09_17h59.31.021,MST_task,2024.2.2,59.98580736164073,2025-11-09 17h59.36.645600 +0530,
,Scenes\137a.jpg,57,0,57,,,,,j,1.0669495999900391,0.1598847000132082,None,,,,,,,57,0,57,0,1077.3909107000072,,,,,,,,,,,,,,,,,,,,,,,,,,,,,,1077.3755470000033,1077.3909107000072,1077.9078242000105,1077.8743713000003,,,,,,,,,,,,,,,,,,,,,,1077.8860748000006,1077.9078242000105,1077.9078242000105,1077.9078242000105,1080.8908635999978,j,1.0669495999900391,0.1598847000132082,1080.8909018999984,1080.8909123000049,None,,,,,,,,,,,,,,,,,00020,001,2025-11-09_17h59.31.021,MST_task,2024.2.2,59.98580736164073,2025-11-09 17h59.36.645600 +0530,
,Scenes\067a.jpg,58,0,58,,,,,j,0.6997151000105077,0.1256390999915311,None,,,,,,,58,0,58,0,1080.9075414000108,,,,,,,,,,,,,,,,,,,,,,,,,,,,,,1080.891000100004,1080.9075414000108,1081.4244432000123,1081.3909794000065,,,,,,,,,,,,,,,,,,,,,,1081.402586000011,1081.4244432000123,1081.4244432000123,1081.4244432000123,1084.4074416000076,j,0.6997151000105077,0.1256390999915311,1084.4074752000015,1084.4074849000026,None,,,,,,,,,,,,,,,,,00020,001,2025-11-09_17h59.31.021,MST_task,2024.2.2,59.98580736164073,2025-11-09 17h59.36.645600 +0530,
,Scenes\094a.jpg,59,0,59,,,,,j,0.7682185999874491,0.10625720000825822,None,,,,,,,59,0,59,0,1084.4241210000037,,,,,,,,,,,,,,,,,,,,,,,,,,,,,,1084.4075912999979,1084.4241210000037,1084.9407382000063,1084.9076008999982,,,,,,,,,,,,,,,,,,,,,,1084.921177199998,1084.9407382000063,1084.9407382000063,1084.9407382000063,1087.9240322000114,j,0.7682185999874491,0.10625720000825822,1087.9240648000123,1087.9240745999996,None,,,,,,,,,,,,,,,,,00020,001,2025-11-09_17h59.31.021,MST_task,2024.2.2,59.98580736164073,2025-11-09 17h59.36.645600 +0530,
,Scenes\066a.jpg,60,0,60,,,,,j,1.1581926999933785,0.1463960999972187,None,,,,,,,60,0,60,0,1087.9406568999984,,,,,,,,,,,,,,,,,,,,,,,,,,,,,,1087.924129799998,1087.9406568999984,1088.4407617000106,1088.4242424000113,,,,,,,,,,,,,,,,,,,,,,1088.4365279000049,1088.4407617000106,1088.4407617000106,1088.4407617000106,1091.424162100011,j,1.1581926999933785,0.1463960999972187,1091.4241995000048,1091.4242092000059,None,1091.4406512999994,1091.4406512999994,1091.4406512999994,,,,,,,,,,,,,,00020,001,2025-11-09_17h59.31.021,MST_task,2024.2.2,59.98580736164073,2025-11-09 17h59.36.645600 +0530,
,Scenes\102a.jpg,61,0,61,,,,,j,1.6425380000000587,0.1492982000054326,None,,,,,,,61,0,61,0,1091.4406512999994,,,,,,,,,,,,,,,,,,,,,,,,,,,,,,1091.4242940000113,1091.4406512999994,1091.9572641000123,1091.9241657000093,,,,,,,,,,,,,,,,,,,,,,1091.9451486000034,1091.9572641000123,1091.9572641000123,1091.9572641000123,1094.9405708000122,j,1.6425380000000587,0.1492982000054326,1094.9406037000008,1094.9406139000057,None,,,,,,,,,,,,,,,,,00020,001,2025-11-09_17h59.31.021,MST_task,2024.2.2,59.98580736164073,2025-11-09 17h59.36.645600 +0530,
,Scenes\185a.jpg,62,0,62,,,,,j,1.2475888000044506,0.198733799988986,None,,,,,,,62,0,62,0,1094.957235400012,,,,,,,,,,,,,,,,,,,,,,,,,,,,,,1094.940733200012,1094.957235400012,1095.4573859000084,1095.4407013000018,,,,,,,,,,,,,,,,,,,,,,1095.450828400004,1095.4573859000084,1095.4573859000084,1095.4573859000084,1098.4406698000093,j,1.2475888000044506,0.198733799988986,1098.440703500004,1098.440712800002,None,1098.4570980999997,1098.4570980999997,1098.4570980999997,,,,,,,,,,,,,,00020,001,2025-11-09_17h59.31.021,MST_task,2024.2.2,59.98580736164073,2025-11-09 17h59.36.645600 +0530,
,Objects\126a.jpg,63,0,63,,,,,j,1.818351399997482,0.15754899999592453,None,,,,,,,63,0,63,0,1098.4570980999997,,,,,,,,,,,,,,,,,,,,,,,,,,,,,,1098.4407643000013,1098.4570980999997,1098.9573252000118,1098.9407266000053,,,,,,,,,,,,,,,,,,,,,,1098.9526286000037,1098.9573252000118,1098.9573252000118,1098.9573252000118,1101.940609199999,j,1.818351399997482,0.15754899999592453,1101.9421497000003,1101.9421612000006,None,1101.9570549000055,1101.9570549000055,1101.9570549000055,,,,,,,,,,,,,,00020,001,2025-11-09_17h59.31.021,MST_task,2024.2.2,59.98580736164073,2025-11-09 17h59.36.645600 +0530,
,Objects\062a.jpg,64,0,64,,,,,f,0.6782780999928946,0.15565450000576675,None,,,,,,,64,0,64,0,1101.9570549000055,,,,,,,,,,,,,,,,,,,,,,,,,,,,,,1101.942215700008,1101.9570549000055,1102.4570108000044,1102.4405521000008,,,,,,,,,,,,,,,,,,,,,,1102.451416900003,1102.4570108000044,1102.4570108000044,1102.4570108000044,1105.44051890001,f,0.6782780999928946,0.15565450000576675,1105.4405515000108,1105.4405612000119,None,1105.4569736000121,1105.4569736000121,1105.4569736000121,,,,,,,,,,,,,,00020,001,2025-11-09_17h59.31.021,MST_task,2024.2.2,59.98580736164073,2025-11-09 17h59.36.645600 +0530,
,Objects\118a.jpg,65,0,65,,,,,f,0.7437836000026437,0.18740450000041164,None,,,,,,,65,0,65,0,1105.4569736000121,,,,,,,,,,,,,,,,,,,,,,,,,,,,,,1105.440616500011,1105.4569736000121,1105.973607699998,1105.9404711000097,,,,,,,,,,,,,,,,,,,,,,1105.956721200011,1105.973607699998,1105.973607699998,1105.973607699998,1108.9571023000026,f,0.7437836000026437,0.18740450000041164,1108.9571377000102,1108.957147699999,None,,,,,,,,,,,,,,,,,00020,001,2025-11-09_17h59.31.021,MST_task,2024.2.2,59.98580736164073,2025-11-09 17h59.36.645600 +0530,
,Objects\091a.jpg,66,0,66,,,,,j,1.9934252999955788,0.17833739999332465,None,,,,,,,66,0,66,0,1108.9735352999996,,,,,,,,,,,,,,,,,,,,,,,,,,,,,,1108.9572055000026,1108.9735352999996,1109.4735275999992,1109.4570247000083,,,,,,,,,,,,,,,,,,,,,,1109.4677960000117,1109.4735275999992,1109.4735275999992,1109.4735275999992,1112.4570625000051,j,1.9934252999955788,0.17833739999332465,1112.4570978999982,1112.4571120000037,None,1112.473487100011,1112.473487100011,1112.473487100011,,,,,,,,,,,,,,00020,001,2025-11-09_17h59.31.021,MST_task,2024.2.2,59.98580736164073,2025-11-09 17h59.36.645600 +0530,
,Objects\034a.jpg,67,0,67,,,,,f,0.5580939000064973,0.1852915000054054,None,,,,,,,67,0,67,0,1112.473487100011,,,,,,,,,,,,,,,,,,,,,,,,,,,,,,1112.4572033000004,1112.473487100011,1112.973449600002,1112.9569733000098,,,,,,,,,,,,,,,,,,,,,,1112.9680040000094,1112.973449600002,1112.973449600002,1112.973449600002,1115.9569914000022,f,0.5580939000064973,0.1852915000054054,1115.9570252999983,1115.9570353000017,None,1115.973416000008,1115.973416000008,1115.973416000008,,,,,,,,,,,,,,00020,001,2025-11-09_17h59.31.021,MST_task,2024.2.2,59.98580736164073,2025-11-09 17h59.36.645600 +0530,
,Objects\172a.jpg,68,0,68,,,,,j,1.0182175999943865,0.13325060000352096,None,,,,,,,68,0,68,0,1115.973416000008,,,,,,,,,,,,,,,,,,,,,,,,,,,,,,1115.957120200008,1115.973416000008,1116.4733735000045,1116.4569293000095,,,,,,,,,,,,,,,,,,,,,,1116.4662040000112,1116.4733735000045,1116.4733735000045,1116.4733735000045,1119.4568979000032,j,1.0182175999943865,0.13325060000352096,1119.456930100001,1119.4569392999983,None,1119.4733659000049,1119.4733659000049,1119.4733659000049,,,,,,,,,,,,,,00020,001,2025-11-09_17h59.31.021,MST_task,2024.2.2,59.98580736164073,2025-11-09 17h59.36.645600 +0530,
,Objects\032a.jpg,69,0,69,,,,,j,2.189593799994327,0.11958630000299308,None,,,,,,,69,0,69,0,1119.4733659000049,,,,,,,,,,,,,,,,,,,,,,,,,,,,,,1119.4570198000001,1119.4733659000049,1119.9733017000108,1119.9568307000009,,,,,,,,,,,,,,,,,,,,,,1119.9665907000017,1119.9733017000108,1119.9733017000108,1119.9733017000108,1122.9568609999988,j,2.189593799994327,0.11958630000299308,1122.9568914999982,1122.95690070001,None,1122.9732980000117,1122.9732980000117,1122.9732980000117,,,,,,,,,,,,,,00020,001,2025-11-09_17h59.31.021,MST_task,2024.2.2,59.98580736164073,2025-11-09 17h59.36.645600 +0530,
,Scenes\080a.jpg,70,0,70,,,,,j,1.2791750000033062,0.13829400000395253,None,,,,,,,70,0,70,0,1122.9732980000117,,,,,,,,,,,,,,,,,,,,,,,,,,,,,,1122.9569793000119,1122.9732980000117,1123.4902050000092,1123.45674590001,,,,,,,,,,,,,,,,,,,,,,1123.4699554000108,1123.4902050000092,1123.4902050000092,1123.4902050000092,1126.4731950999994,j,1.2791750000033062,0.13829400000395253,1126.4743945000082,1126.4744052000024,None,,,,,,,,,,,,,,,,,00020,001,2025-11-09_17h59.31.021,MST_task,2024.2.2,59.98580736164073,2025-11-09 17h59.36.645600 +0530,
,Scenes\145a.jpg,71,0,71,,,,,j,2.1144230000063544,0.14991120000195224,None,,,,,,,71,0,71,0,1126.4898892000056,,,,,,,,,,,,,,,,,,,,,,,,,,,,,,1126.474486600011,1126.4898892000056,1127.0064819000108,1126.9734433999984,,,,,,,,,,,,,,,,,,,,,,1126.9940358000022,1127.0064819000108,1127.0064819000108,1127.0064819000108,1129.9898900999979,j,2.1144230000063544,0.14991120000195224,1129.9899264000123,1129.989936500002,None,,,,,,,,,,,,,,,,,00020,001,2025-11-09_17h59.31.021,MST_task,2024.2.2,59.98580736164073,2025-11-09 17h59.36.645600 +0530,
,Scenes\171a.jpg,72,0,72,,,,,j,2.674001400009729,0.1334811999986414,None,,,,,,,72,0,72,0,1130.0064153999992,,,,,,,,,,,,,,,,,,,,,,,,,,,,,,1129.9900234000088,1130.0064153999992,1130.5233316000085,1130.489929000003,,,,,,,,,,,,,,,,,,,,,,1130.5061667000118,1130.5233316000085,1130.5233316000085,1130.5233316000085,1133.5063972000062,j,2.674001400009729,0.1334811999986414,1133.5064316000062,1133.5064411000058,None,,,,,,,,,,,,,,,,,00020,001,2025-11-09_17h59.31.021,MST_task,2024.2.2,59.98580736164073,2025-11-09 17h59.36.645600 +0530,
,Scenes\004a.jpg,73,0,73,,,,,j,1.6494188000069698,0.13077669999620412,None,,,,,,,73,0,73,0,1133.5229056000098,,,,,,,,,,,,,,,,,,,,,,,,,,,,,,1133.5065234000067,1133.5229056000098,1134.0396389000089,1134.006553900006,,,,,,,,,,,,,,,,,,,,,,1134.0195832000027,1134.0396389000089,1134.0396389000089,1134.0396389000089,1137.022896200011,j,1.6494188000069698,0.13077669999620412,1137.022930200008,1137.0229405999999,None,,,,,,,,,,,,,,,,,00020,001,2025-11-09_17h59.31.021,MST_task,2024.2.2,59.98580736164073,2025-11-09 17h59.36.645600 +0530,
,Scenes\180a.jpg,74,0,74,,,,,j,1.385543799988227,0.13136169999779668,None,,,,,,,74,0,74,0,1137.0395360000111,,,,,,,,,,,,,,,,,,,,,,,,,,,,,,1137.023042300003,1137.0395360000111,1137.5561534000008,1137.5229895000084,,,,,,,,,,,,,,,,,,,,,,1137.534727899998,1137.5561534000008,1137.5561534000008,1137.5561534000008,1140.539484500012,j,1.385543799988227,0.13136169999779668,1140.539531900009,1140.5395418000116,None,,,,,,,,,,,,,,,,,00020,001,2025-11-09_17h59.31.021,MST_task,2024.2.2,59.98580736164073,2025-11-09 17h59.36.645600 +0530,
,Scenes\131a.jpg,75,0,75,,,,,j,1.3400772999884794,0.13396420000935905,None,,,,,,,75,0,75,0,1140.5561325000017,,,,,,,,,,,,,,,,,,,,,,,,,,,,,,1140.5396020000044,1140.5561325000017,,1141.0395896000118,,,,,,,,,,,,,,,,,,,,,,1141.0516555000067,1141.0729703000106,1141.0729703000106,1141.0729703000106,1144.0560870000045,j,1.3400772999884794,0.13396420000935905,1144.056129100005,1144.0561385000037,None,,,,,,,,,,,,,,,,,00020,001,2025-11-09_17h59.31.021,MST_task,2024.2.2,59.98580736164073,2025-11-09 17h59.36.645600 +0530,
,Scenes\010a.jpg,76,0,76,,,,,j,1.0761248000053456,0.1259494999976596,None,,,,,,,76,0,76,0,1144.072714000009,,,,,,,,,,,,,,,,,,,,,,,,,,,,,,1144.0562027999986,1144.072714000009,1144.5893408999982,1144.5561808000057,,,,,,,,,,,,,,,,,,,,,,1144.5699506000092,1144.5893408999982,1144.5893408999982,1144.5893408999982,1147.572680600002,j,1.0761248000053456,0.1259494999976596,1147.572714400012,1147.57272370001,None,,,,,,,,,,,,,,,,,00020,001,2025-11-09_17h59.31.021,MST_task,2024.2.2,59.98580736164073,2025-11-09 17h59.36.645600 +0530,
,Objects\153a.jpg,77,0,77,,,,,f,1.0075560999976005,0.1443077000003541,None,,,,,,,77,0,77,0,1147.5893021000084,,,,,,,,,,,,,,,,,,,,,,,,,,,,,,1147.5728268000094,1147.5893021000084,1148.089301800006,1148.072991500012,,,,,,,,,,,,,,,,,,,,,,1148.0849943000067,1148.089301800006,1148.089301800006,1148.089301800006,1151.072910700008,f,1.0075560999976005,0.1443077000003541,1151.0743241000018,1151.074335199999,None,1151.0892176000052,1151.0892176000052,1151.0892176000052,,,,,,,,,,,,,,00020,001,2025-11-09_17h59.31.021,MST_task,2024.2.2,59.98580736164073,2025-11-09 17h59.36.645600 +0530,
,Objects\077a.jpg,78,0,78,,,,,j,0.9052920000103768,0.12386339998920448,None,,,,,,,78,0,78,0,1151.0892176000052,,,,,,,,,,,,,,,,,,,,,,,,,,,,,,1151.074391800008,1151.0892176000052,1151.605850699998,1151.5726633000013,,,,,,,,,,,,,,,,,,,,,,1151.5896483000106,1151.605850699998,1151.605850699998,1151.605850699998,1154.5892128999985,j,0.9052920000103768,0.12386339998920448,1154.5892468000093,1154.5892561000073,None,,,,,,,,,,,,,,,,,00020,001,2025-11-09_17h59.31.021,MST_task,2024.2.2,59.98580736164073,2025-11-09 17h59.36.645600 +0530,
,Objects\093a.jpg,79,0,79,,,,,f,0.873320300001069,0.1463946999865584,None,,,,,,,79,0,79,0,1154.6058177000086,,,,,,,,,,,,,,,,,,,,,,,,,,,,,,1154.589342200008,1154.6058177000086,1155.1057717000076,1155.0894147000072,,,,,,,,,,,,,,,,,,,,,,1155.0995201000042,1155.1057717000076,1155.1057717000076,1155.1057717000076,1158.0893806000095,f,0.873320300001069,0.1463946999865584,1158.089413499998,1158.0894229000114,None,1158.1057474000118,1158.1057474000118,1158.1057474000118,,,,,,,,,,,,,,00020,001,2025-11-09_17h59.31.021,MST_task,2024.2.2,59.98580736164073,2025-11-09 17h59.36.645600 +0530,
,Objects\189a.jpg,80,0,80,,,,,j,2.1838386000017636,0.1257253999938257,None,,,,,,,80,0,80,0,1158.1057474000118,,,,,,,,,,,,,,,,,,,,,,,,,,,,,,1158.0894801000104,1158.1057474000118,1158.6057273000042,1158.5892166999984,,,,,,,,,,,,,,,,,,,,,,1158.599480600009,1158.6057273000042,1158.6057273000042,1158.6057273000042,1161.5892527000105,j,2.1838386000017636,0.1257253999938257,1161.5892870000098,1161.589296200007,None,1161.605671000012,1161.605671000012,1161.605671000012,,,,,,,,,,,,,,00020,001,2025-11-09_17h59.31.021,MST_task,2024.2.2,59.98580736164073,2025-11-09 17h59.36.645600 +0530,
,Objects\184a.jpg,81,0,81,,,,,j,1.8055102999933297,0.13108170000487007,None,,,,,,,81,0,81,0,1161.605671000012,,,,,,,,,,,,,,,,,,,,,,,,,,,,,,1161.5893805000087,1161.605671000012,1162.1056780000072,1162.0891077999986,,,,,,,,,,,,,,,,,,,,,,1162.0990065000078,1162.1056780000072,1162.1056780000072,1162.1056780000072,1165.0892322,j,1.8055102999933297,0.13108170000487007,1165.0892731000058,1165.08928320001,None,1165.105581900003,1165.105581900003,1165.105581900003,,,,,,,,,,,,,,00020,001,2025-11-09_17h59.31.021,MST_task,2024.2.2,59.98580736164073,2025-11-09 17h59.36.645600 +0530,
,Objects\041a.jpg,82,0,82,,,,,f,1.7671375999925658,0.1584551999985706,None,,,,,,,82,0,82,0,1165.105581900003,,,,,,,,,,,,,,,,,,,,,,,,,,,,,,1165.0893752999982,1165.105581900003,1165.6055937000056,1165.5890799000044,,,,,,,,,,,,,,,,,,,,,,1165.5993698000093,1165.6055937000056,1165.6055937000056,1165.6055937000056,1168.5890787000098,f,1.7671375999925658,0.1584551999985706,1168.589118200005,1168.5891287000122,None,1168.605518299999,1168.605518299999,1168.605518299999,,,,,,,,,,,,,,00020,001,2025-11-09_17h59.31.021,MST_task,2024.2.2,59.98580736164073,2025-11-09 17h59.36.645600 +0530,
,Objects\049a.jpg,83,0,83,,,,,f,0.8991228999948362,0.14844520000042394,None,,,,,,,83,0,83,0,1168.605518299999,,,,,,,,,,,,,,,,,,,,,,,,,,,,,,1168.5892146000115,1168.605518299999,1169.122156700003,1169.0889699000109,,,,,,,,,,,,,,,,,,,,,,1169.104937600001,1169.122156700003,1169.122156700003,1169.122156700003,1172.1054428000061,f,0.8991228999948362,0.14844520000042394,1172.1054989000113,1172.1055089000001,None,,,,,,,,,,,,,,,,,00020,001,2025-11-09_17h59.31.021,MST_task,2024.2.2,59.98580736164073,2025-11-09 17h59.36.645600 +0530,
,Scenes\147a.jpg,84,0,84,,,,,j,1.0200461000058567,0.11796139999933075,None,,,,,,,84,0,84,0,1172.1221093000058,,,,,,,,,,,,,,,,,,,,,,,,,,,,,,1172.105564700003,1172.1221093000058,1172.63872480001,1172.6056624000048,,,,,,,,,,,,,,,,,,,,,,1172.617736100001,1172.63872480001,1172.63872480001,1172.63872480001,1175.622069200006,j,1.0200461000058567,0.11796139999933075,1175.6232285000006,1175.6232391000085,None,,,,,,,,,,,,,,,,,00020,001,2025-11-09_17h59.31.021,MST_task,2024.2.2,59.98580736164073,2025-11-09 17h59.36.645600 +0530,
,Scenes\087a.jpg,85,0,85,,,,,j,0.9699897000100464,0.11904439999489114,None,,,,,,,85,0,85,0,1175.6386604,,,,,,,,,,,,,,,,,,,,,,,,,,,,,,1175.6233432000008,1175.6386604,1176.1556620000047,1176.1221779000043,,,,,,,,,,,,,,,,,,,,,,1176.1325496000063,1176.1556620000047,1176.1556620000047,1176.1556620000047,1179.138627200009,j,0.9699897000100464,0.11904439999489114,1179.1386722000025,1179.138681700002,None,,,,,,,,,,,,,,,,,00020,001,2025-11-09_17h59.31.021,MST_task,2024.2.2,59.98580736164073,2025-11-09 17h59.36.645600 +0530,
,Scenes\107a.jpg,86,0,86,,,,,j,1.1731679999938933,0.10633370000869036,None,,,,,,,86,0,86,0,1179.155282000007,,,,,,,,,,,,,,,,,,,,,,,,,,,,,,1179.138738300011,1179.155282000007,1179.6719402000017,1179.6388233000034,,,,,,,,,,,,,,,,,,,,,,1179.6502263000002,1179.6719402000017,1179.6719402000017,1179.6719402000017,1182.6552031000028,j,1.1731679999938933,0.10633370000869036,1182.6552483999985,1182.655258400002,None,,,,,,,,,,,,,,,,,00020,001,2025-11-09_17h59.31.021,MST_task,2024.2.2,59.98580736164073,2025-11-09 17h59.36.645600 +0530,
,Scenes\110a.jpg,87,0,87,,,,,j,0.8511010000074748,0.13801959999545943,None,,,,,,,87,0,87,0,1182.6718751000008,,,,,,,,,,,,,,,,,,,,,,,,,,,,,,1182.6553138000017,1182.6718751000008,1183.1885107999988,1183.1553514000116,,,,,,,,,,,,,,,,,,,,,,1183.1664832000097,1183.1885107999988,1183.1885107999988,1183.1885107999988,1186.1719429000077,j,0.8511010000074748,0.13801959999545943,1186.1720043000096,1186.1720140000107,None,,,,,,,,,,,,,,,,,00020,001,2025-11-09_17h59.31.021,MST_task,2024.2.2,59.98580736164073,2025-11-09 17h59.36.645600 +0530,
,Scenes\159a.jpg,88,0,88,,,,,j,0.5778668999992078,0.11105310000129975,None,,,,,,,88,0,88,0,1186.1884686999983,,,,,,,,,,,,,,,,,,,,,,,,,,,,,,1186.172101300006,1186.1884686999983,1186.7050899000023,1186.6719287000014,,,,,,,,,,,,,,,,,,,,,,1186.6854731000058,1186.7050899000023,1186.7050899000023,1186.7050899000023,1189.6883914000064,j,0.5778668999992078,0.11105310000129975,1189.688424100008,1189.688434399999,None,,,,,,,,,,,,,,,,,00020,001,2025-11-09_17h59.31.021,MST_task,2024.2.2,59.98580736164073,2025-11-09 17h59.36.645600 +0530,
,Scenes\105a.jpg,89,0,89,,,,,j,0.6999017000052845,0.12725590000627562,None,,,,,,,89,0,89,0,1189.7050113000005,,,,,,,,,,,,,,,,,,,,,,,,,,,,,,1189.6885172000038,1189.7050113000005,,1190.1885379000014,,,,,,,,,,,,,,,,,,,,,,1190.201980800004,1190.2216672000068,1190.2216672000068,1190.2216672000068,1193.2050397999992,j,0.6999017000052845,0.12725590000627562,1193.2051013000018,1193.205111400006,None,,,,,,,,,,,,,,,,,00020,001,2025-11-09_17h59.31.021,MST_task,2024.2.2,59.98580736164073,2025-11-09 17h59.36.645600 +0530,
,Scenes\034a.jpg,90,0,90,,,,,j,1.3303814999962924,0.1615176000050269,None,,,,,,,90,0,90,0,1193.2216086000117,,,,,,,,,,,,,,,,,,,,,,,,,,,,,,1193.205205300008,1193.2216086000117,1193.7552319000097,1193.705097900005,,,,,,,,,,,,,,,,,,,,,,1193.7340766999987,1193.7552319000097,1193.7552319000097,1193.7552319000097,1196.7215865000035,j,1.3303814999962924,0.1615176000050269,1196.7216205000004,1196.721630800006,None,,,,,,,,,,,,,,,,,00020,001,2025-11-09_17h59.31.021,MST_task,2024.2.2,59.98580736164073,2025-11-09 17h59.36.645600 +0530,
,Objects\056a.jpg,91,0,91,,,,,f,1.2882221000036225,0.18560559999605175,None,,,,,,,91,0,91,0,1196.738258700003,,,,,,,,,,,,,,,,,,,,,,,,,,,,,,1196.7217259000026,1196.738258700003,1197.2551351000002,1197.221770700009,,,,,,,,,,,,,,,,,,,,,,1197.2411277000065,1197.2551351000002,1197.2551351000002,1197.2551351000002,1200.2381737000105,f,1.2882221000036225,0.18560559999605175,1200.2396271000034,1200.239637999999,None,,,,,,,,,,,,,,,,,00020,001,2025-11-09_17h59.31.021,MST_task,2024.2.2,59.98580736164073,2025-11-09 17h59.36.645600 +0530,
,Objects\027a.jpg,92,0,92,,,,,f,0.713146299996879,0.15704249999544118,None,,,,,,,92,0,92,0,1200.254819400012,,,,,,,,,,,,,,,,,,,,,,,,,,,,,,1200.239696500008,1200.254819400012,1200.7548385000118,1200.7383183000056,,,,,,,,,,,,,,,,,,,,,,1200.748572100012,1200.7548385000118,1200.7548385000118,1200.7548385000118,1203.7383062000008,f,0.713146299996879,0.15704249999544118,1203.7383415000077,1203.738351699998,None,1203.7547430000122,1203.7547430000122,1203.7547430000122,,,,,,,,,,,,,,00020,001,2025-11-09_17h59.31.021,MST_task,2024.2.2,59.98580736164073,2025-11-09 17h59.36.645600 +0530,
,Objects\183a.jpg,93,0,93,,,,,j,2.100042400008533,0.14694109999982174,None,,,,,,,93,0,93,0,1203.7547430000122,,,,,,,,,,,,,,,,,,,,,,,,,,,,,,1203.7384113000007,1203.7547430000122,1204.2547005000088,1204.2383147000073,,,,,,,,,,,,,,,,,,,,,,1204.2486351999978,1204.2547005000088,1204.2547005000088,1204.2547005000088,1207.2382058000076,j,2.100042400008533,0.14694109999982174,1207.2382399000053,1207.2382499000087,None,1207.254669700007,1207.254669700007,1207.254669700007,,,,,,,,,,,,,,00020,001,2025-11-09_17h59.31.021,MST_task,2024.2.2,59.98580736164073,2025-11-09 17h59.36.645600 +0530,
,Objects\176a.jpg,94,0,94,,,,,None,,,f,2.54202210000949,None,,,,,94,0,94,0,1207.254669700007,,,,,,,,,,,,,,,,,,,,,,,,,,,,,,1207.238333100002,1207.254669700007,1207.7712876000005,1207.7381176000054,,,,,,,,,,,,,,,,,,,,,,1207.7539319000061,1207.7712876000005,1207.7712876000005,1207.7712876000005,1210.7546157000033,None,,,1210.7546597000037,1213.3214985000086,f,,,,1210.7712660000107,1210.7712660000107,2.54202210000949,None,,,,,,,,,,00020,001,2025-11-09_17h59.31.021,MST_task,2024.2.2,59.98580736164073,2025-11-09 17h59.36.645600 +0530,
,Objects\031a.jpg,95,0,95,,,,,j,1.4317830000072718,0.13852369999221992,None,,,,,,,95,0,95,0,1213.3378672000108,,,,,,,,,,,,,,,,,,,,,,,,,,,,,,1213.3216096000106,1213.3378672000108,1213.8378206000052,1213.8213423999987,,,,,,,,,,,,,,,,,,,,,,1213.8321625000099,1213.8378206000052,1213.8378206000052,1213.8378206000052,1216.8214828000055,j,1.4317830000072718,0.13852369999221992,1216.8215177000093,1216.8215273000096,None,1216.837826700008,1216.837826700008,1216.837826700008,,,,,,,,,,,,,,00020,001,2025-11-09_17h59.31.021,MST_task,2024.2.2,59.98580736164073,2025-11-09 17h59.36.645600 +0530,
,Objects\157a.jpg,96,0,96,,,,,f,0.6653476000064984,0.15027449998888187,None,,,,,,,96,0,96,0,1216.837826700008,,,,,,,,,,,,,,,,,,,,,,,,,,,,,,1216.8216079999984,1216.837826700008,1217.3377460000047,1217.3212730000087,,,,,,,,,,,,,,,,,,,,,,1217.3321636000037,1217.3377460000047,1217.3377460000047,1217.3377460000047,1220.3213059000118,f,0.6653476000064984,0.15027449998888187,1220.321336500012,1220.3213453000062,None,1220.337727200007,1220.337727200007,1220.337727200007,,,,,,,,,,,,,,00020,001,2025-11-09_17h59.31.021,MST_task,2024.2.2,59.98580736164073,2025-11-09 17h59.36.645600 +0530,
,Objects\167a.jpg,97,0,97,,,,,f,1.1233923999971012,0.17009660000621807,None,,,,,,,97,0,97,0,1220.337727200007,,,,,,,,,,,,,,,,,,,,,,,,,,,,,,1220.321423100002,1220.337727200007,1220.8376750000025,1220.8212218000117,,,,,,,,,,,,,,,,,,,,,,1220.8313350000099,1220.8376750000025,1220.8376750000025,1220.8376750000025,1223.821324900011,f,1.1233923999971012,0.17009660000621807,1223.8213581000018,1223.821368600009,None,1223.837890499999,1223.837890499999,1223.837890499999,,,,,,,,,,,,,,00020,001,2025-11-09_17h59.31.021,MST_task,2024.2.2,59.98580736164073,2025-11-09 17h59.36.645600 +0530,
,Scenes\049a.jpg,98,0,98,,,,,j,0.7587496000051033,0.14651710000180174,None,,,,,,,98,0,98,0,1223.837890499999,,,,,,,,,,,,,,,,,,,,,,,,,,,,,,1223.8214237000066,1223.837890499999,1224.3546566000005,1224.3212146000005,,,,,,,,,,,,,,,,,,,,,,1224.3384034000046,1224.3546566000005,1224.3546566000005,1224.3546566000005,1227.3377263000002,j,0.7587496000051033,0.14651710000180174,1227.3388549000083,1227.3388661000063,None,,,,,,,,,,,,,,,,,00020,001,2025-11-09_17h59.31.021,MST_task,2024.2.2,59.98580736164073,2025-11-09 17h59.36.645600 +0530,
,Scenes\173a.jpg,99,0,99,,,,,j,2.11065139999846,0.14602559999912046,None,,,,,,,99,0,99,0,1227.3543180999986,,,,,,,,,,,,,,,,,,,,,,,,,,,,,,1227.338951800004,1227.3543180999986,1227.870953500009,1227.837878300008,,,,,,,,,,,,,,,,,,,,,,1227.8486662000068,1227.870953500009,1227.870953500009,1227.870953500009,1230.8542794000095,j,2.11065139999846,0.14602559999912046,1230.8543118000089,1230.8543223000015,None,,,,,,,,,,,,,,,,,00020,001,2025-11-09_17h59.31.021,MST_task,2024.2.2,59.98580736164073,2025-11-09 17h59.36.645600 +0530,
,Scenes\176a.jpg,100,0,100,,,,,j,2.697643399995286,0.13559990000794642,None,,,,,,,100,0,100,0,1230.87087720001,,,,,,,,,,,,,,,,,,,,,,,,,,,,,,1230.8543769000098,1230.87087720001,,1231.3544442999992,,,,,,,,,,,,,,,,,,,,,,1231.3667220000061,1231.387531100001,1231.387531100001,1231.387531100001,1234.3709184000036,j,2.697643399995286,0.13559990000794642,1234.370953500009,1234.3709627000062,None,,,,,,,,,,,,,,,,,00020,001,2025-11-09_17h59.31.021,MST_task,2024.2.2,59.98580736164073,2025-11-09 17h59.36.645600 +0530,
,Scenes\162a.jpg,101,0,101,,,,,j,2.874875299996347,None,None,,,,,,,101,0,101,0,1234.3873719000112,,,,,,,,,,,,,,,,,,,,,,,,,,,,,,1234.3710208999983,1234.3873719000112,1234.9040609000076,1234.8709709000104,,,,,,,,,,,,,,,,,,,,,,1234.8823603000055,1234.9040609000076,1234.9040609000076,1234.9040609000076,1237.8873722999997,j,2.874875299996347,None,1237.8874076000066,1237.8874183000007,None,,,,,,,,,,,,,,,,,00020,001,2025-11-09_17h59.31.021,MST_task,2024.2.2,59.98580736164073,2025-11-09 17h59.36.645600 +0530,
,Scenes\154a.jpg,102,0,102,,,,,j,1.1292149999935646,0.11885379999876022,None,,,,,,,102,0,102,0,1237.9040026000002,,,,,,,,,,,,,,,,,,,,,,,,,,,,,,1237.8875049000053,1237.9040026000002,1238.4039744000038,1238.3874275999988,,,,,,,,,,,,,,,,,,,,,,1238.3920310000103,1238.4039744000038,1238.4039744000038,1238.4039744000038,1241.38748450001,j,1.1292149999935646,0.11885379999876022,1241.387519900003,1241.3875306000118,None,1241.403921300007,1241.403921300007,1241.403921300007,,,,,,,,,,,,,,00020,001,2025-11-09_17h59.31.021,MST_task,2024.2.2,59.98580736164073,2025-11-09 17h59.36.645600 +0530,
,Scenes\164a.jpg,103,0,103,,,,,j,2.418697000000975,0.13177589999395423,None,,,,,,,103,0,103,0,1241.403921300007,,,,,,,,,,,,,,,,,,,,,,,,,,,,,,1241.3876170000003,1241.403921300007,1241.9205450000009,1241.8874666000047,,,,,,,,,,,,,,,,,,,,,,1241.8991652000113,1241.9205450000009,1241.9205450000009,1241.9205450000009,1244.903932900008,j,2.418697000000975,0.13177589999395423,1244.9039670000057,1244.9039778000006,None,,,,,,,,,,,,,,,,,00020,001,2025-11-09_17h59.31.021,MST_task,2024.2.2,59.98580736164073,2025-11-09 17h59.36.645600 +0530,
,Scenes\142a.jpg,104,0,104,,,,,j,2.6282907000131672,0.12416389999270905,None,,,,,,,104,0,104,0,1244.9205089000025,,,,,,,,,,,,,,,,,,,,,,,,,,,,,,1244.9040337000042,1244.9205089000025,1245.4371910000045,1245.4040284000075,,,,,,,,,,,,,,,,,,,,,,1245.4165582999995,1245.4371910000045,1245.4371910000045,1245.4371910000045,1248.4204539000057,j,2.6282907000131672,0.12416389999270905,1248.4204888000095,1248.420498300009,None,,,,,,,,,,,,,,,,,00020,001,2025-11-09_17h59.31.021,MST_task,2024.2.2,59.98580736164073,2025-11-09 17h59.36.645600 +0530,
,Objects\159a.jpg,105,0,105,,,,,None,,,j,0.09647420000692364,None,,,,,105,0,105,0,1248.4371022999985,,,,,,,,,,,,,,,,,,,,,,,,,,,,,,1248.4205828999984,1248.4371022999985,1248.937123900003,1248.9206806000002,,,,,,,,,,,,,,,,,,,,,,1248.9319007000013,1248.937123900003,1248.937123900003,1248.937123900003,1251.9206902000005,None,,,1251.9221599000011,1252.0374235000054,j,1251.937032300004,1251.937032300004,1251.937032300004,1251.937032300004,1251.937032300004,0.09647420000692364,None,,,,,,,,,,00020,001,2025-11-09_17h59.31.021,MST_task,2024.2.2,59.98580736164073,2025-11-09 17h59.36.645600 +0530,
,Objects\145a.jpg,106,0,106,,,,,f,1.5099588999873959,0.12133439999888651,None,,,,,,,106,0,106,0,1252.0536927000066,,,,,,,,,,,,,,,,,,,,,,,,,,,,,,1252.0375251000078,1252.0536927000066,1252.5537049000122,1252.5372799000033,,,,,,,,,,,,,,,,,,,,,,1252.5472425000044,1252.5537049000122,1252.5537049000122,1252.5537049000122,1255.537285600003,f,1.5099588999873959,0.12133439999888651,1255.5373217000015,1255.537332500011,None,1255.5536164000077,1255.5536164000077,1255.5536164000077,,,,,,,,,,,,,,00020,001,2025-11-09_17h59.31.021,MST_task,2024.2.2,59.98580736164073,2025-11-09 17h59.36.645600 +0530,
,Objects\163a.jpg,107,0,107,,,,,f,2.0816100999945775,0.15691039999364875,None,,,,,,,107,0,107,0,1255.5536164000077,,,,,,,,,,,,,,,,,,,,,,,,,,,,,,1255.537421000001,1255.5536164000077,1256.0702530999988,1256.0370785000123,,,,,,,,,,,,,,,,,,,,,,1256.0543191000033,1256.0702530999988,1256.0702530999988,1256.0702530999988,1259.0536042000022,f,2.0816100999945775,0.15691039999364875,1259.053662700011,1259.0536721000099,None,,,,,,,,,,,,,,,,,00020,001,2025-11-09_17h59.31.021,MST_task,2024.2.2,59.98580736164073,2025-11-09 17h59.36.645600 +0530,
,Objects\105a.jpg,108,0,108,,,,,f,0.5293989999918267,0.14030620000266936,None,,,,,,,108,0,108,0,1259.0702019000018,,,,,,,,,,,,,,,,,,,,,,,,,,,,,,1259.0537305000034,1259.0702019000018,1259.5701620000036,1259.5536962000042,,,,,,,,,,,,,,,,,,,,,,1259.5635280999995,1259.5701620000036,1259.5701620000036,1259.5701620000036,1262.5537123000104,f,0.5293989999918267,0.14030620000266936,1262.553746400008,1262.5537559000077,None,1262.570127900006,1262.570127900006,1262.570127900006,,,,,,,,,,,,,,00020,001,2025-11-09_17h59.31.021,MST_task,2024.2.2,59.98580736164073,2025-11-09 17h59.36.645600 +0530,
,Objects\046a.jpg,109,0,109,,,,,f,0.7234886000078404,0.16595509999024216,None,,,,,,,109,0,109,0,1262.570127900006,,,,,,,,,,,,,,,,,,,,,,,,,,,,,,1262.553811500009,1262.570127900006,1263.0701397000084,1263.0535959000117,,,,,,,,,,,,,,,,,,,,,,1263.0633476000075,1263.0701397000084,1263.0701397000084,1263.0701397000084,1266.0537068999984,f,0.7234886000078404,0.16595509999024216,1266.0537424000067,1266.053752500011,None,1266.0701665000088,1266.0701665000088,1266.0701665000088,,,,,,,,,,,,,,00020,001,2025-11-09_17h59.31.021,MST_task,2024.2.2,59.98580736164073,2025-11-09 17h59.36.645600 +0530,
,Objects\055a.jpg,110,0,110,,,,,f,1.4391075000021374,0.1191813000041293,None,,,,,,,110,0,110,0,1266.0701665000088,,,,,,,,,,,,,,,,,,,,,,,,,,,,,,1266.0538061000116,1266.0701665000088,1266.586684599999,1266.5536044000037,,,,,,,,,,,,,,,,,,,,,,1266.570685300001,1266.586684599999,1266.586684599999,1266.586684599999,1269.570042899999,f,1.4391075000021374,0.1191813000041293,1269.570078100005,1269.5700877000054,None,,,,,,,,,,,,,,,,,00020,001,2025-11-09_17h59.31.021,MST_task,2024.2.2,59.98580736164073,2025-11-09 17h59.36.645600 +0530,
,Objects\053a.jpg,111,0,111,,,,,f,0.9768539999931818,0.14546090000658296,None,,,,,,,111,0,111,0,1269.5866379000072,,,,,,,,,,,,,,,,,,,,,,,,,,,,,,1269.5701442999998,1269.5866379000072,1270.086614300002,1270.070123700003,,,,,,,,,,,,,,,,,,,,,,1270.0803733000066,1270.086614300002,1270.086614300002,1270.086614300002,1273.0701617000013,f,0.9768539999931818,0.14546090000658296,1273.0701949000068,1273.0702047000086,None,1273.086566900005,1273.086566900005,1273.086566900005,,,,,,,,,,,,,,00020,001,2025-11-09_17h59.31.021,MST_task,2024.2.2,59.98580736164073,2025-11-09 17h59.36.645600 +0530,
,Scenes\003a.jpg,112,0,112,,,,,j,2.8280388999992283,0.1375116999988677,None,,,,,,,112,0,112,0,1273.086566900005,,,,,,,,,,,,,,,,,,,,,,,,,,,,,,1273.0702915000002,1273.086566900005,1273.6034223000024,1273.5700709000084,,,,,,,,,,,,,,,,,,,,,,1273.5844834000018,1273.6034223000024,1273.6034223000024,1273.6034223000024,1276.5865259999991,j,2.8280388999992283,0.1375116999988677,1276.587632900002,1276.5876439999993,None,,,,,,,,,,,,,,,,,00020,001,2025-11-09_17h59.31.021,MST_task,2024.2.2,59.98580736164073,2025-11-09 17h59.36.645600 +0530,
,Scenes\093a.jpg,113,0,113,,,,,j,0.8010406000103103,0.1362005999981193,None,,,,,,,113,0,113,0,1276.6031229000073,,,,,,,,,,,,,,,,,,,,,,,,,,,,,,1276.587727200007,1276.6031229000073,1277.1197807999997,1277.0867283000116,,,,,,,,,,,,,,,,,,,,,,1277.0985045999987,1277.1197807999997,1277.1197807999997,1277.1197807999997,1280.103093800004,j,0.8010406000103103,0.1362005999981193,1280.1031344000075,1280.1031442000094,None,,,,,,,,,,,,,,,,,00020,001,2025-11-09_17h59.31.021,MST_task,2024.2.2,59.98580736164073,2025-11-09 17h59.36.645600 +0530,
,Scenes\115a.jpg,114,0,114,,,,,j,1.1304553999943892,0.11825159999716561,None,,,,,,,114,0,114,0,1280.1197385999985,,,,,,,,,,,,,,,,,,,,,,,,,,,,,,1280.1032345999993,1280.1197385999985,1280.6364294000086,1280.6032050000067,,,,,,,,,,,,,,,,,,,,,,1280.6151283000072,1280.6364294000086,1280.6364294000086,1280.6364294000086,1283.619749999998,j,1.1304553999943892,0.11825159999716561,1283.6197900000116,1283.6198005000042,None,,,,,,,,,,,,,,,,,00020,001,2025-11-09_17h59.31.021,MST_task,2024.2.2,59.98580736164073,2025-11-09 17h59.36.645600 +0530,
,Scenes\058a.jpg,115,0,115,,,,,f,1.6794231999956537,0.14663659999496303,None,,,,,,,115,0,115,0,1283.636333500006,,,,,,,,,,,,,,,,,,,,,,,,,,,,,,1283.6198589999985,1283.636333500006,1284.1363101000024,1284.1199199000112,,,,,,,,,,,,,,,,,,,,,,1284.1262295000051,1284.1363101000024,1284.1363101000024,1284.1363101000024,1287.1198332000058,f,1.6794231999956537,0.14663659999496303,1287.1198672000028,1287.119877300007,None,1287.1362552000064,1287.1362552000064,1287.1362552000064,,,,,,,,,,,,,,00020,001,2025-11-09_17h59.31.021,MST_task,2024.2.2,59.98580736164073,2025-11-09 17h59.36.645600 +0530,
,Scenes\052a.jpg,116,0,116,,,,,j,2.523134000002756,0.1334564999997383,None,,,,,,,116,0,116,0,1287.1362552000064,,,,,,,,,,,,,,,,,,,,,,,,,,,,,,1287.1199613000063,1287.1362552000064,1287.6362120000122,1287.6197347999987,,,,,,,,,,,,,,,,,,,,,,1287.6256630999997,1287.6362120000122,1287.6362120000122,1287.6362120000122,1290.619887400011,j,2.523134000002756,0.1334564999997383,1290.6199189000035,1290.6199284000031,None,1290.6361837000004,1290.6361837000004,1290.6361837000004,,,,,,,,,,,,,,00020,001,2025-11-09_17h59.31.021,MST_task,2024.2.2,59.98580736164073,2025-11-09 17h59.36.645600 +0530,
,Scenes\182a.jpg,117,0,117,,,,,j,1.7326638999948045,0.14977400000498164,None,,,,,,,117,0,117,0,1290.6361837000004,,,,,,,,,,,,,,,,,,,,,,,,,,,,,,1290.6199837000022,1290.6361837000004,1291.1528435000073,1291.119768900011,,,,,,,,,,,,,,,,,,,,,,1291.1318943000078,1291.1528435000073,1291.1528435000073,1291.1528435000073,1294.1361013999995,j,1.7326638999948045,0.14977400000498164,1294.1361367000063,1294.136146600009,None,,,,,,,,,,,,,,,,,00020,001,2025-11-09_17h59.31.021,MST_task,2024.2.2,59.98580736164073,2025-11-09 17h59.36.645600 +0530,
,Scenes\075a.jpg,118,0,118,,,,,j,2.367025100000319,0.12081380000745412,None,,,,,,,118,0,118,0,1294.1527731000097,,,,,,,,,,,,,,,,,,,,,,,,,,,,,,1294.136203800008,1294.1527731000097,1294.6527182999998,1294.6363205000089,,,,,,,,,,,,,,,,,,,,,,1294.6443728000013,1294.6527182999998,1294.6527182999998,1294.6527182999998,1297.636403299999,j,2.367025100000319,0.12081380000745412,1297.636440000002,1297.636450200007,None,1297.6526990999992,1297.6526990999992,1297.6526990999992,,,,,,,,,,,,,,00020,001,2025-11-09_17h59.31.021,MST_task,2024.2.2,59.98580736164073,2025-11-09 17h59.36.645600 +0530,
,Objects\096a.jpg,119,0,119,,,,,f,2.1606967999978224,0.14588940000976436,None,,,,,,,119,0,119,0,1297.6526990999992,,,,,,,,,,,,,,,,,,,,,,,,,,,,,,1297.636545900008,1297.6526990999992,1298.1526546000096,1298.1363094000117,,,,,,,,,,,,,,,,,,,,,,1298.1484370000107,1298.1526546000096,1298.1526546000096,1298.1526546000096,1301.1364190000022,f,2.1606967999978224,0.14588940000976436,1301.1379291000048,1301.1379404000036,None,1301.152593100007,1301.152593100007,1301.152593100007,,,,,,,,,,,,,,00020,001,2025-11-09_17h59.31.021,MST_task,2024.2.2,59.98580736164073,2025-11-09 17h59.36.645600 +0530,
,Objects\082a.jpg,120,0,120,,,,,j,1.2682633999938844,0.09844620000512805,None,,,,,,,120,0,120,0,1301.152593100007,,,,,,,,,,,,,,,,,,,,,,,,,,,,,,1301.1379998000048,1301.152593100007,1301.6525686000095,1301.6362213000102,,,,,,,,,,,,,,,,,,,,,,1301.646253800005,1301.6525686000095,1301.6525686000095,1301.6525686000095,1304.636098700008,j,1.2682633999938844,0.09844620000512805,1304.6361318999989,1304.6361419000023,None,1304.6525449000037,1304.6525449000037,1304.6525449000037,,,,,,,,,,,,,,00020,001,2025-11-09_17h59.31.021,MST_task,2024.2.2,59.98580736164073,2025-11-09 17h59.36.645600 +0530,
,Objects\050a.jpg,121,0,121,,,,,f,1.5089302999986103,0.13953159999800846,None,,,,,,,121,0,121,0,1304.6525449000037,,,,,,,,,,,,,,,,,,,,,,,,,,,,,,1304.6362222000025,1304.6525449000037,1305.1524960000097,1305.136075100003,,,,,,,,,,,,,,,,,,,,,,1305.1454720000038,1305.1524960000097,1305.1524960000097,1305.1524960000097,1308.1360056000121,f,1.5089302999986103,0.13953159999800846,1308.1360367000016,1308.1360461000004,None,1308.1524688000063,1308.1524688000063,1308.1524688000063,,,,,,,,,,,,,,00020,001,2025-11-09_17h59.31.021,MST_task,2024.2.2,59.98580736164073,2025-11-09 17h59.36.645600 +0530,
,Objects\069a.jpg,122,0,122,,,,,j,2.598976599998423,0.1459402000036789,None,,,,,,,122,0,122,0,1308.1524688000063,,,,,,,,,,,,,,,,,,,,,,,,,,,,,,1308.1360996000003,1308.1524688000063,1308.6524226000038,1308.6360765999998,,,,,,,,,,,,,,,,,,,,,,1308.6458022000006,1308.6524226000038,1308.6524226000038,1308.6524226000038,1311.635927700001,j,2.598976599998423,0.1459402000036789,1311.6359601000004,1311.6359693999984,None,1311.6523905000067,1311.6523905000067,1311.6523905000067,,,,,,,,,,,,,,00020,001,2025-11-09_17h59.31.021,MST_task,2024.2.2,59.98580736164073,2025-11-09 17h59.36.645600 +0530,
,Objects\020a.jpg,123,0,123,,,,,j,1.9228835999965668,0.10643050000362564,None,,,,,,,123,0,123,0,1311.6523905000067,,,,,,,,,,,,,,,,,,,,,,,,,,,,,,1311.6360456000111,1311.6523905000067,1312.152347100011,1312.135951400007,,,,,,,,,,,,,,,,,,,,,,1312.1457222000026,1312.152347100011,1312.152347100011,1312.152347100011,1315.1358789000078,j,1.9228835999965668,0.10643050000362564,1315.135911400008,1315.1359213000105,None,1315.1523167999985,1315.1523167999985,1315.1523167999985,,,,,,,,,,,,,,00020,001,2025-11-09_17h59.31.021,MST_task,2024.2.2,59.98580736164073,2025-11-09 17h59.36.645600 +0530,
,Objects\015a.jpg,124,0,124,,,,,f,1.5004429999971762,0.14443929999833927,None,,,,,,,124,0,124,0,1315.1523167999985,,,,,,,,,,,,,,,,,,,,,,,,,,,,,,1315.1360037999984,1315.1523167999985,1315.652324499999,1315.6358636000077,,,,,,,,,,,,,,,,,,,,,,1315.6462145000114,1315.652324499999,1315.652324499999,1315.652324499999,1318.6358454,f,1.5004429999971762,0.14443929999833927,1318.6358795999986,1318.6358897000027,None,1318.6522385999997,1318.6522385999997,1318.6522385999997,,,,,,,,,,,,,,00020,001,2025-11-09_17h59.31.021,MST_task,2024.2.2,59.98580736164073,2025-11-09 17h59.36.645600 +0530,
,Objects\057a.jpg,125,0,125,,,,,j,1.7849820999981603,0.1580063000001246,None,,,,,,,125,0,125,0,1318.6522385999997,,,,,,,,,,,,,,,,,,,,,,,,,,,,,,1318.6359728000098,1318.6522385999997,1319.1522517000121,1319.1358338999999,,,,,,,,,,,,,,,,,,,,,,1319.145329100007,1319.1522517000121,1319.1522517000121,1319.1522517000121,1322.1356875000056,j,1.7849820999981603,0.1580063000001246,1322.135718800011,1322.1357285000122,None,1322.1521624000015,1322.1521624000015,1322.1521624000015,,,,,,,,,,,,,,00020,001,2025-11-09_17h59.31.021,MST_task,2024.2.2,59.98580736164073,2025-11-09 17h59.36.645600 +0530,
,Scenes\149a.jpg,126,0,126,,,,,j,1.940417299992987,0.12783750001108274,None,,,,,,,126,0,126,0,1322.1521624000015,,,,,,,,,,,,,,,,,,,,,,,,,,,,,,1322.1357850000059,1322.1521624000015,1322.668817400001,1322.635722799998,,,,,,,,,,,,,,,,,,,,,,1322.6567165000015,1322.668817400001,1322.668817400001,1322.668817400001,1325.6520911000116,j,1.940417299992987,0.12783750001108274,1325.6533484000101,1325.653360700002,None,,,,,,,,,,,,,,,,,00020,001,2025-11-09_17h59.31.021,MST_task,2024.2.2,59.98580736164073,2025-11-09 17h59.36.645600 +0530,
,Scenes\045a.jpg,127,0,127,,,,,j,0.9411650999973062,0.16067959999782033,None,,,,,,,127,0,127,0,1325.668752700003,,,,,,,,,,,,,,,,,,,,,,,,,,,,,,1325.6534185000055,1325.668752700003,1326.1855963999988,1326.1522366999998,,,,,,,,,,,,,,,,,,,,,,1326.1681524000014,1326.1855963999988,1326.1855963999988,1326.1855963999988,1329.1687017000077,j,0.9411650999973062,0.16067959999782033,1329.168738200009,1329.168747600008,None,,,,,,,,,,,,,,,,,00020,001,2025-11-09_17h59.31.021,MST_task,2024.2.2,59.98580736164073,2025-11-09 17h59.36.645600 +0530,
,Scenes\054a.jpg,128,0,128,,,,,j,2.0035210000060033,0.12318049999885261,None,,,,,,,128,0,128,0,1329.1853357000073,,,,,,,,,,,,,,,,,,,,,,,,,,,,,,1329.16880520001,1329.1853357000073,1329.7020046000107,1329.6688797000097,,,,,,,,,,,,,,,,,,,,,,1329.682340200001,1329.7020046000107,1329.7020046000107,1329.7020046000107,1332.685287900007,j,2.0035210000060033,0.12318049999885261,1332.6853256000031,1332.6853356000065,None,,,,,,,,,,,,,,,,,00020,001,2025-11-09_17h59.31.021,MST_task,2024.2.2,59.98580736164073,2025-11-09 17h59.36.645600 +0530,
,Scenes\043a.jpg,129,0,129,,,,,j,2.459162999992259,0.16169210000953171,None,,,,,,,129,0,129,0,1332.7019360000122,,,,,,,,,,,,,,,,,,,,,,,,,,,,,,1332.6854202000104,1332.7019360000122,1333.201881800007,1333.1855177000107,,,,,,,,,,,,,,,,,,,,,,1333.1934507000115,1333.201881800007,1333.201881800007,1333.201881800007,1336.185408999998,j,2.459162999992259,0.16169210000953171,1336.1854448000086,1336.185454999999,None,1336.201862700007,1336.201862700007,1336.201862700007,,,,,,,,,,,,,,00020,001,2025-11-09_17h59.31.021,MST_task,2024.2.2,59.98580736164073,2025-11-09 17h59.36.645600 +0530,
,Scenes\128a.jpg,130,0,130,,,,,None,,,f,1.7334204999933718,None,,,,,130,0,130,0,1336.201862700007,,,,,,,,,,,,,,,,,,,,,,,,,,,,,,1336.185537700003,1336.201862700007,1336.7185001000034,1336.685458100008,,,,,,,,,,,,,,,,,,,,,,1336.699222299998,1336.7185001000034,1336.7185001000034,1336.7185001000034,1339.7017765000055,None,,,1339.7018201000028,1341.4522211000003,f,,,,1339.7184460999997,1339.7184460999997,1.7334204999933718,None,,,,,,,,,,00020,001,2025-11-09_17h59.31.021,MST_task,2024.2.2,59.98580736164073,2025-11-09 17h59.36.645600 +0530,
,Scenes\190a.jpg,131,0,131,,,,,j,1.0485256999963894,0.14590849999513011,None,,,,,,,131,0,131,0,1341.468414300005,,,,,,,,,,,,,,,,,,,,,,,,,,,,,,1341.4523310000077,1341.468414300005,1341.9850237000064,1341.951944600005,,,,,,,,,,,,,,,,,,,,,,1341.9660571999993,1341.9850237000064,1341.9850237000064,1341.9850237000064,1344.9683518000093,j,1.0485256999963894,0.14590849999513011,1344.9683853000024,1344.9683954000066,None,,,,,,,,,,,,,,,,,00020,001,2025-11-09_17h59.31.021,MST_task,2024.2.2,59.98580736164073,2025-11-09 17h59.36.645600 +0530,
,Scenes\177a.jpg,132,0,132,,,,,j,1.9071376999927452,0.14439950000087265,None,,,,,,,132,0,132,0,1344.9849902999995,,,,,,,,,,,,,,,,,,,,,,,,,,,,,,1344.9684531000094,1344.9849902999995,,1345.4690607000084,,,,,,,,,,,,,,,,,,,,,,1345.480785000007,1345.5016479000042,1345.5016479000042,1345.5016479000042,1348.4849183000042,j,1.9071376999927452,0.14439950000087265,1348.484951800012,1348.4849602000031,None,,,,,,,,,,,,,,,,,00020,001,2025-11-09_17h59.31.021,MST_task,2024.2.2,59.98580736164073,2025-11-09 17h59.36.645600 +0530,
,Objects\052a.jpg,133,0,133,,,,,f,1.8931048999947961,0.14996130000508856,None,,,,,,,133,0,133,0,1348.5015935999982,,,,,,,,,,,,,,,,,,,,,,,,,,,,,,1348.4850292000046,1348.5015935999982,1349.018530900008,1348.9851552000036,,,,,,,,,,,,,,,,,,,,,,1349.0036707000108,1349.018530900008,1349.018530900008,1349.018530900008,1352.0015021,f,1.8931048999947961,0.14996130000508856,1352.0030293000018,1352.0030400000105,None,,,,,,,,,,,,,,,,,00020,001,2025-11-09_17h59.31.021,MST_task,2024.2.2,59.98580736164073,2025-11-09 17h59.36.645600 +0530,
,Objects\127a.jpg,134,0,134,,,,,f,2.2831599000055576,0.1661660999961896,None,,,,,,,134,0,134,0,1352.0181563000078,,,,,,,,,,,,,,,,,,,,,,,,,,,,,,1352.0030936000112,1352.0181563000078,1352.5181287000014,1352.501713500009,,,,,,,,,,,,,,,,,,,,,,1352.5113491000084,1352.5181287000014,1352.5181287000014,1352.5181287000014,1355.5018067000055,f,2.2831599000055576,0.1661660999961896,1355.5018414000078,1355.501851500012,None,1355.5181122000067,1355.5181122000067,1355.5181122000067,,,,,,,,,,,,,,00020,001,2025-11-09_17h59.31.021,MST_task,2024.2.2,59.98580736164073,2025-11-09 17h59.36.645600 +0530,
,Objects\085a.jpg,135,0,135,,,,,j,2.717092799997772,0.14204289999906905,None,,,,,,,135,0,135,0,1355.5181122000067,,,,,,,,,,,,,,,,,,,,,,,,,,,,,,1355.5019084000087,1355.5181122000067,1356.0181150999997,1356.0015739000082,,,,,,,,,,,,,,,,,,,,,,1356.0114625999995,1356.0181150999997,1356.0181150999997,1356.0181150999997,1359.0015746999998,j,2.717092799997772,0.14204289999906905,1359.0016058000037,1359.0016166999994,None,1359.018025700003,1359.018025700003,1359.018025700003,,,,,,,,,,,,,,00020,001,2025-11-09_17h59.31.021,MST_task,2024.2.2,59.98580736164073,2025-11-09 17h59.36.645600 +0530,
,Objects\073a.jpg,136,0,136,,,,,f,2.1057370000053197,0.10869429999729618,None,,,,,,,136,0,136,0,1359.018025700003,,,,,,,,,,,,,,,,,,,,,,,,,,,,,,1359.0016976000043,1359.018025700003,1359.5346671000007,1359.5015980000026,,,,,,,,,,,,,,,,,,,,,,1359.517307000002,1359.5346671000007,1359.5346671000007,1359.5346671000007,1362.5180940999999,f,2.1057370000053197,0.10869429999729618,1362.518146100003,1362.5181598000054,None,,,,,,,,,,,,,,,,,00020,001,2025-11-09_17h59.31.021,MST_task,2024.2.2,59.98580736164073,2025-11-09 17h59.36.645600 +0530,
,Objects\160a.jpg,137,0,137,,,,,f,2.6302805000013905,0.12328519999573473,None,,,,,,,137,0,137,0,1362.5346227000118,,,,,,,,,,,,,,,,,,,,,,,,,,,,,,1362.5182834000007,1362.5346227000118,1363.0512701000116,1363.0181827000051,,,,,,,,,,,,,,,,,,,,,,1363.0337136000016,1363.0512701000116,1363.0512701000116,1363.0512701000116,1366.034582600012,f,2.6302805000013905,0.12328519999573473,1366.0346197000035,1366.0346323999984,None,,,,,,,,,,,,,,,,,00020,001,2025-11-09_17h59.31.021,MST_task,2024.2.2,59.98580736164073,2025-11-09 17h59.36.645600 +0530,
,Objects\135a.jpg,138,0,138,,,,,f,0.8719730000011623,0.13153339999553282,None,,,,,,,138,0,138,0,1366.0512055,,,,,,,,,,,,,,,,,,,,,,,,,,,,,,1366.0346909000073,1366.0512055,1366.5678724000027,1366.5346743000118,,,,,,,,,,,,,,,,,,,,,,1366.5503006000072,1366.5678724000027,1366.5678724000027,1366.5678724000027,1369.5512597000052,f,0.8719730000011623,0.13153339999553282,1369.5512961000059,1369.5513061000092,None,,,,,,,,,,,,,,,,,00020,001,2025-11-09_17h59.31.021,MST_task,2024.2.2,59.98580736164073,2025-11-09 17h59.36.645600 +0530,
,Objects\148a.jpg,139,0,139,,,,,f,1.1213900000002468,0.19403800000145566,None,,,,,,,139,0,139,0,1369.5677996000013,,,,,,,,,,,,,,,,,,,,,,,,,,,,,,1369.5513919000077,1369.5677996000013,1370.0677418999985,1370.0515121000062,,,,,,,,,,,,,,,,,,,,,,1370.0614634000085,1370.0677418999985,1370.0677418999985,1370.0677418999985,1373.0513880000071,f,1.1213900000002468,0.19403800000145566,1373.0514238000032,1373.0514333000028,None,1373.0677937,1373.0677937,1373.0677937,,,,,,,,,,,,,,00020,001,2025-11-09_17h59.31.021,MST_task,2024.2.2,59.98580736164073,2025-11-09 17h59.36.645600 +0530,
,Scenes\050a.jpg,140,0,140,,,,,j,2.1060406000033254,0.1642792000056943,None,,,,,,,140,0,140,0,1373.0677937,,,,,,,,,,,,,,,,,,,,,,,,,,,,,,1373.0514911000064,1373.0677937,1373.5845276000036,1373.5513609000045,,,,,,,,,,,,,,,,,,,,,,1373.5638913000003,1373.5845276000036,1373.5845276000036,1373.5845276000036,1376.567729500006,j,2.1060406000033254,0.1642792000056943,1376.5689098000003,1376.568921500002,None,,,,,,,,,,,,,,,,,00020,001,2025-11-09_17h59.31.021,MST_task,2024.2.2,59.98580736164073,2025-11-09 17h59.36.645600 +0530,
,Scenes\106a.jpg,141,0,141,,,,,j,1.8262670000112848,0.14688709999609273,None,,,,,,,141,0,141,0,1376.5843698000099,,,,,,,,,,,,,,,,,,,,,,,,,,,,,,1376.5690147999994,1376.5843698000099,1377.1010161000013,1377.067957200008,,,,,,,,,,,,,,,,,,,,,,1377.0809870000085,1377.1010161000013,1377.1010161000013,1377.1010161000013,1380.0843459000025,j,1.8262670000112848,0.14688709999609273,1380.0844069000013,1380.084417200007,None,,,,,,,,,,,,,,,,,00020,001,2025-11-09_17h59.31.021,MST_task,2024.2.2,59.98580736164073,2025-11-09 17h59.36.645600 +0530,
,Scenes\088a.jpg,142,0,142,,,,,j,1.1719328000035603,0.14150359999621287,None,,,,,,,142,0,142,0,1380.1009504000103,,,,,,,,,,,,,,,,,,,,,,,,,,,,,,1380.0845136999997,1380.1009504000103,1380.6179189000104,1380.5846090999985,,,,,,,,,,,,,,,,,,,,,,1380.6005093999993,1380.6179189000104,1380.6179189000104,1380.6179189000104,1383.6009393999993,j,1.1719328000035603,0.14150359999621287,1383.6009718999994,1383.600981399999,None,,,,,,,,,,,,,,,,,00020,001,2025-11-09_17h59.31.021,MST_task,2024.2.2,59.98580736164073,2025-11-09 17h59.36.645600 +0530,
,Scenes\079a.jpg,143,0,143,,,,,j,0.6832318999950076,0.14538449999236036,None,,,,,,,143,0,143,0,1383.617540799998,,,,,,,,,,,,,,,,,,,,,,,,,,,,,,1383.6010638000007,1383.617540799998,1384.1344528000045,1384.1010423000116,,,,,,,,,,,,,,,,,,,,,,1384.1113957000052,1384.1344528000045,1384.1344528000045,1384.1344528000045,1387.1175636999978,j,0.6832318999950076,0.14538449999236036,1387.117596000011,1387.1176057999983,None,,,,,,,,,,,,,,,,,00020,001,2025-11-09_17h59.31.021,MST_task,2024.2.2,59.98580736164073,2025-11-09 17h59.36.645600 +0530,
,Scenes\019a.jpg,144,0,144,,,,,j,0.6087848000024678,0.1652066999959061,None,,,,,,,144,0,144,0,1387.1341371000017,,,,,,,,,,,,,,,,,,,,,,,,,,,,,,1387.1176866000023,1387.1341371000017,1387.651045000006,1387.617621700003,,,,,,,,,,,,,,,,,,,,,,1387.63092950001,1387.651045000006,1387.651045000006,1387.651045000006,1390.6341018000094,j,0.6087848000024678,0.1652066999959061,1390.6341505000019,1390.6341609000083,None,,,,,,,,,,,,,,,,,00020,001,2025-11-09_17h59.31.021,MST_task,2024.2.2,59.98580736164073,2025-11-09 17h59.36.645600 +0530,
,Scenes\109a.jpg,145,0,145,,,,,j,2.681889300001785,0.15591039998980705,None,,,,,,,145,0,145,0,1390.6507689999999,,,,,,,,,,,,,,,,,,,,,,,,,,,,,,1390.6342267,1390.6507689999999,1391.1673890000093,1391.1343597000086,,,,,,,,,,,,,,,,,,,,,,1391.1447110000008,1391.1673890000093,1391.1673890000093,1391.1673890000093,1394.1507054000103,j,2.681889300001785,0.15591039998980705,1394.1507406000019,1394.150750300003,None,,,,,,,,,,,,,,,,,00020,001,2025-11-09_17h59.31.021,MST_task,2024.2.2,59.98580736164073,2025-11-09 17h59.36.645600 +0530,
,Scenes\189a.jpg,146,0,146,,,,,j,0.47287880000658333,0.12607329999445938,None,,,,,,,146,0,146,0,1394.1673802000005,,,,,,,,,,,,,,,,,,,,,,,,,,,,,,1394.150806900012,1394.1673802000005,1394.683978800007,1394.6508321000001,,,,,,,,,,,,,,,,,,,,,,1394.6642771000043,1394.683978800007,1394.683978800007,1394.683978800007,1397.6672835000063,j,0.47287880000658333,0.12607329999445938,1397.66732030001,1397.6673297000088,None,,,,,,,,,,,,,,,,,00020,001,2025-11-09_17h59.31.021,MST_task,2024.2.2,59.98580736164073,2025-11-09 17h59.36.645600 +0530,
,Objects\173a.jpg,147,0,147,,,,,j,2.657048199995188,0.14576080000551883,None,,,,,,,147,0,147,0,1397.6839630000031,,,,,,,,,,,,,,,,,,,,,,,,,,,,,,1397.6673881000024,1397.6839630000031,,1398.1674137000082,,,,,,,,,,,,,,,,,,,,,,1398.1790261999995,1398.184125300002,1398.184125300002,1398.184125300002,1401.1673749000038,j,2.657048199995188,0.14576080000551883,1401.1688872000086,1401.1688981000043,None,1401.183890100001,1401.183890100001,1401.183890100001,,,,,,,,,,,,,,00020,001,2025-11-09_17h59.31.021,MST_task,2024.2.2,59.98580736164073,2025-11-09 17h59.36.645600 +0530,
,Objects\066a.jpg,148,0,148,,,,,f,0.47377950001100544,0.13378229999216273,None,,,,,,,148,0,148,0,1401.183890100001,,,,,,,,,,,,,,,,,,,,,,,,,,,,,,1401.1689783000038,1401.183890100001,1401.6838439999992,1401.667289600009,,,,,,,,,,,,,,,,,,,,,,1401.6773331000004,1401.6838439999992,1401.6838439999992,1401.6838439999992,1404.667538300011,f,0.47377950001100544,0.13378229999216273,1404.667575200001,1404.6675856000074,None,1404.683780899999,1404.683780899999,1404.683780899999,,,,,,,,,,,,,,00020,001,2025-11-09_17h59.31.021,MST_task,2024.2.2,59.98580736164073,2025-11-09 17h59.36.645600 +0530,
,Objects\143a.jpg,149,0,149,,,,,j,1.3187216999940574,0.15586430000257678,None,,,,,,,149,0,149,0,1404.683780899999,,,,,,,,,,,,,,,,,,,,,,,,,,,,,,1404.667643000008,1404.683780899999,1405.2004046000075,1405.1672966000042,,,,,,,,,,,,,,,,,,,,,,1405.185336800001,1405.2004046000075,1405.2004046000075,1405.2004046000075,1408.1837420000084,j,1.3187216999940574,0.15586430000257678,1408.183777600003,1408.183787300004,None,,,,,,,,,,,,,,,,,00020,001,2025-11-09_17h59.31.021,MST_task,2024.2.2,59.98580736164073,2025-11-09 17h59.36.645600 +0530,
,Objects\109a.jpg,150,0,150,,,,,j,2.024842999991961,0.12831740001274738,None,,,,,,,150,0,150,0,1408.2004030000098,,,,,,,,,,,,,,,,,,,,,,,,,,,,,,1408.1838676000043,1408.2004030000098,1408.7003989000077,1408.6838959000015,,,,,,,,,,,,,,,,,,,,,,1408.6936172999995,1408.7003989000077,1408.7003989000077,1408.7003989000077,1411.6839028000104,j,2.024842999991961,0.12831740001274738,1411.6839369000081,1411.6839470999985,None,1411.7003311000008,1411.7003311000008,1411.7003311000008,,,,,,,,,,,,,,00020,001,2025-11-09_17h59.31.021,MST_task,2024.2.2,59.98580736164073,2025-11-09 17h59.36.645600 +0530,
,Objects\134a.jpg,151,0,151,,,,,j,1.1607152000069618,0.11040029999276157,None,,,,,,,151,0,151,0,1411.7003311000008,,,,,,,,,,,,,,,,,,,,,,,,,,,,,,1411.6840254999988,1411.7003311000008,1412.2003122000024,1412.1838564000063,,,,,,,,,,,,,,,,,,,,,,1412.1934974000033,1412.2003122000024,1412.2003122000024,1412.2003122000024,1415.183797900012,j,1.1607152000069618,0.11040029999276157,1415.183831000002,1415.1838409000047,None,1415.2002178000112,1415.2002178000112,1415.2002178000112,,,,,,,,,,,,,,00020,001,2025-11-09_17h59.31.021,MST_task,2024.2.2,59.98580736164073,2025-11-09 17h59.36.645600 +0530,
,Objects\064a.jpg,152,0,152,,,,,j,2.5923358000000007,0.09619989999919198,None,,,,,,,152,0,152,0,1415.2002178000112,,,,,,,,,,,,,,,,,,,,,,,,,,,,,,1415.1839288000047,1415.2002178000112,1415.7168549000053,1415.6837834000034,,,,,,,,,,,,,,,,,,,,,,1415.7006664000073,1415.7168549000053,1415.7168549000053,1415.7168549000053,1418.7002164000005,j,2.5923358000000007,0.09619989999919198,1418.7002502000105,1418.7002595000085,None,,,,,,,,,,,,,,,,,00020,001,2025-11-09_17h59.31.021,MST_task,2024.2.2,59.98580736164073,2025-11-09 17h59.36.645600 +0530,
,Objects\149a.jpg,153,0,153,,,,,j,0.9471999000088545,0.15310630000021774,None,,,,,,,153,0,153,0,1418.71683640001,,,,,,,,,,,,,,,,,,,,,,,,,,,,,,1418.700364000004,1418.71683640001,1419.2167404000065,1419.2002760000032,,,,,,,,,,,,,,,,,,,,,,1419.210781700007,1419.2167404000065,1419.2167404000065,1419.2167404000065,1422.200340100011,j,0.9471999000088545,0.15310630000021774,1422.2003725000104,1422.2003823000123,None,1422.2167559000081,1422.2167559000081,1422.2167559000081,,,,,,,,,,,,,,00020,001,2025-11-09_17h59.31.021,MST_task,2024.2.2,59.98580736164073,2025-11-09 17h59.36.645600 +0530,
,Scenes\002a.jpg,154,0,154,,,,,j,1.7154267000005348,0.1391890999948373,None,,,,,,,154,0,154,0,1422.2167559000081,,,,,,,,,,,,,,,,,,,,,,,,,,,,,,1422.2004611000011,1422.2167559000081,1422.7338587000122,1422.7003018000105,,,,,,,,,,,,,,,,,,,,,,1422.7161779000016,1422.7338587000122,1422.7338587000122,1422.7338587000122,1425.7166640000069,j,1.7154267000005348,0.1391890999948373,1425.717866600011,1425.7178779000096,None,,,,,,,,,,,,,,,,,00020,001,2025-11-09_17h59.31.021,MST_task,2024.2.2,59.98580736164073,2025-11-09 17h59.36.645600 +0530,
,Scenes\192a.jpg,155,0,155,,,,,j,1.8509431999991648,0.14638999999442603,None,,,,,,,155,0,155,0,1425.7334353000042,,,,,,,,,,,,,,,,,,,,,,,,,,,,,,1425.7179692000063,1425.7334353000042,1426.250235600004,1426.216854600003,,,,,,,,,,,,,,,,,,,,,,1426.2284660000005,1426.250235600004,1426.250235600004,1426.250235600004,1429.2332800000004,j,1.8509431999991648,0.14638999999442603,1429.2333152000065,1429.2333283000044,None,,,,,,,,,,,,,,,,,00020,001,2025-11-09_17h59.31.021,MST_task,2024.2.2,59.98580736164073,2025-11-09 17h59.36.645600 +0530,
,Scenes\170a.jpg,156,0,156,,,,,j,2.026397299996461,0.1381670000118902,None,,,,,,,156,0,156,0,1429.2499090000056,,,,,,,,,,,,,,,,,,,,,,,,,,,,,,1429.2334115999984,1429.2499090000056,1429.7669029000099,1429.7334346999996,,,,,,,,,,,,,,,,,,,,,,1429.7466633000004,1429.7669029000099,1429.7669029000099,1429.7669029000099,1432.7498399000033,j,2.026397299996461,0.1381670000118902,1432.7498724000034,1432.7498824000068,None,,,,,,,,,,,,,,,,,00020,001,2025-11-09_17h59.31.021,MST_task,2024.2.2,59.98580736164073,2025-11-09 17h59.36.645600 +0530,
,Scenes\023a.jpg,157,0,157,,,,,f,2.300258400005987,0.09557020000647753,None,,,,,,,157,0,157,0,1432.7665393000061,,,,,,,,,,,,,,,,,,,,,,,,,,,,,,1432.7499382000096,1432.7665393000061,1433.2834002000018,1433.2500326000008,,,,,,,,,,,,,,,,,,,,,,1433.266637400011,1433.2834002000018,1433.2834002000018,1433.2834002000018,1436.266427200011,f,2.300258400005987,0.09557020000647753,1436.2664598999982,1436.2664692000108,None,,,,,,,,,,,,,,,,,00020,001,2025-11-09_17h59.31.021,MST_task,2024.2.2,59.98580736164073,2025-11-09 17h59.36.645600 +0530,
,Scenes\114a.jpg,158,0,158,,,,,f,1.1059208000078797,0.15186509999330156,None,,,,,,,158,0,158,0,1436.2830915000086,,,,,,,,,,,,,,,,,,,,,,,,,,,,,,1436.2665530000086,1436.2830915000086,1436.7997211000038,1436.7665413000068,,,,,,,,,,,,,,,,,,,,,,1436.7797328000015,1436.7997211000038,1436.7997211000038,1436.7997211000038,1439.7830471000052,f,1.1059208000078797,0.15186509999330156,1439.7831053000118,1439.7831153000006,None,,,,,,,,,,,,,,,,,00020,001,2025-11-09_17h59.31.021,MST_task,2024.2.2,59.98580736164073,2025-11-09 17h59.36.645600 +0530,
,Scenes\169a.jpg,159,0,159,,,,,j,0.7590981000103056,0.150002599999425,None,,,,,,,159,0,159,0,1439.799656800009,,,,,,,,,,,,,,,,,,,,,,,,,,,,,,1439.7831991999992,1439.799656800009,1440.31631010001,1440.2831548000104,,,,,,,,,,,,,,,,,,,,,,1440.298763400002,1440.31631010001,1440.31631010001,1440.31631010001,1443.2996775000065,j,0.7590981000103056,0.150002599999425,1443.299709800005,1443.2997191000031,None,,,,,,,,,,,,,,,,,00020,001,2025-11-09_17h59.31.021,MST_task,2024.2.2,59.98580736164073,2025-11-09 17h59.36.645600 +0530,
,Scenes\111a.jpg,160,0,160,,,,,j,1.8510441999969771,0.15757409999787342,None,,,,,,,160,0,160,0,1443.316233999998,,,,,,,,,,,,,,,,,,,,,,,,,,,,,,1443.299774500003,1443.316233999998,1443.8162439000007,1443.7997864000063,,,,,,,,,,,,,,,,,,,,,,1443.8047383000085,1443.8162439000007,1443.8162439000007,1443.8162439000007,1446.7997913,j,1.8510441999969771,0.15757409999787342,1446.7998233000108,1446.799832900011,None,1446.8161583000037,1446.8161583000037,1446.8161583000037,,,,,,,,,,,,,,00020,001,2025-11-09_17h59.31.021,MST_task,2024.2.2,59.98580736164073,2025-11-09 17h59.36.645600 +0530,
,Objects\011a.jpg,161,0,161,,,,,f,2.0058985999930883,0.14434800000162795,None,,,,,,,161,0,161,0,1446.8161583000037,,,,,,,,,,,,,,,,,,,,,,,,,,,,,,1446.7998839000065,1446.8161583000037,1447.3331075000024,1447.2996961000026,,,,,,,,,,,,,,,,,,,,,,1447.3179602000018,1447.3331075000024,1447.3331075000024,1447.3331075000024,1450.3161338000064,f,2.0058985999930883,0.14434800000162795,1450.3176620000013,1450.3176735000015,None,,,,,,,,,,,,,,,,,00020,001,2025-11-09_17h59.31.021,MST_task,2024.2.2,59.98580736164073,2025-11-09 17h59.36.645600 +0530,
,Objects\142a.jpg,162,0,162,,,,,f,0.497617299988633,0.14307710000139195,None,,,,,,,162,0,162,0,1450.3328183999984,,,,,,,,,,,,,,,,,,,,,,,,,,,,,,1450.3177278000076,1450.3328183999984,1450.849409100003,1450.8162328000035,,,,,,,,,,,,,,,,,,,,,,1450.8323888000014,1450.849409100003,1450.849409100003,1450.849409100003,1453.832701700012,f,0.497617299988633,0.14307710000139195,1453.832737100005,1453.83274730001,None,,,,,,,,,,,,,,,,,00020,001,2025-11-09_17h59.31.021,MST_task,2024.2.2,59.98580736164073,2025-11-09 17h59.36.645600 +0530,
,Objects\088a.jpg,163,0,163,,,,,f,2.4644288000126835,0.15373959999124054,None,,,,,,,163,0,163,0,1453.8493707000016,,,,,,,,,,,,,,,,,,,,,,,,,,,,,,1453.832841200012,1453.8493707000016,1454.3493544000085,1454.3328387000074,,,,,,,,,,,,,,,,,,,,,,1454.3428358000092,1454.3493544000085,1454.3493544000085,1454.3493544000085,1457.33288490001,f,2.4644288000126835,0.15373959999124054,1457.3329213000106,1457.3329314000002,None,1457.3493306000018,1457.3493306000018,1457.3493306000018,,,,,,,,,,,,,,00020,001,2025-11-09_17h59.31.021,MST_task,2024.2.2,59.98580736164073,2025-11-09 17h59.36.645600 +0530,
