thisN,thisTrialN,thisRepN,key_resp_3.keys,key_resp_3.rt,key_resp_3.duration,trials.thisRepN,trials.thisTrialN,trials.thisN,thisRow.t,notes,intro_page.started,text.started,key_resp.started,intro_page.stopped,key_resp.keys,key_resp.rt,key_resp.duration,instructions.started,text_2.started,key_resp_2.started,instructions.stopped,key_resp_2.keys,key_resp_2.rt,key_resp_2.duration,demo1.started,image_1.started,image_2.started,text_7.started,key_resp_6.started,text_9.started,demo1.stopped,key_resp_6.keys,key_resp_6.rt,key_resp_6.duration,demo2.started,image_5.started,image_6.started,text_11.started,text_12.started,key_resp_8.started,demo2.stopped,key_resp_8.keys,key_resp_8.rt,key_resp_8.duration,demo_conclusion.started,text_13.started,key_resp_9.started,demo_conclusion.stopped,key_resp_9.keys,key_resp_9.rt,key_resp_9.duration,start_test.started,text_6.started,key_resp_5.started,start_test.stopped,key_resp_5.keys,key_resp_5.rt,key_resp_5.duration,ISI.started,text_4.started,text_4.stopped,ISI.stopped,routine_1.started,image.started,text_3.started,key_resp_3.started,routine_1.stopped,image_path,position_of_stimuli,trials.key_resp_3.keys,trials.key_resp_3.rt,trials.key_resp_3.duration,End_page.started,text_5.started,key_resp_4.started,End_page.stopped,key_resp_4.keys,key_resp_4.rt,key_resp_4.duration,participant,session,date,expName,psychopyVersion,frameRate,expStart,
,,,,,,,,,,,0.0018440999992890283,0.004085000000486616,0.004085000000486616,3.488741300003312,space,3.43607019999763,None,,,,,,,,,,,,,,,,,,,,,,,,,,,,,,,,,,,,,,,,,,,,,,,,,,,,,,,,,,,,,,,00026,001,2025-11-15_16h29.12.970,MST_test,2024.2.0,99.94213350910512,2025-11-15 16h29.20.683323 +0530,
,,,,,,,,,,,,,,,,,,3.488782100001117,3.5012195000017527,3.5012195000017527,11.806229300003906,space,8.299041100006434,None,,,,,,,,,,,,,,,,,,,,,,,,,,,,,,,,,,,,,,,,,,,,,,,,,,,,,,,,00026,001,2025-11-15_16h29.12.970,MST_test,2024.2.0,99.94213350910512,2025-11-15 16h29.20.683323 +0530,
,,,,,,,,,,,,,,,,,,,,,,,,,11.806322399999772,11.821812499998487,11.821812499998487,11.821812499998487,11.821812499998487,11.821812499998487,16.65538650000235,space,4.8266259000010905,None,,,,,,,,,,,,,,,,,,,,,,,,,,,,,,,,,,,,,,,,,,,,,,00026,001,2025-11-15_16h29.12.970,MST_test,2024.2.0,99.94213350910512,2025-11-15 16h29.20.683323 +0530,
,,,,,,,,,,,,,,,,,,,,,,,,,,,,,,,,,,,16.655461399997876,16.664178099999845,16.664178099999845,16.664178099999845,16.664178099999845,16.664178099999845,18.754658700003347,space,2.0799936999974307,None,,,,,,,,,,,,,,,,,,,,,,,,,,,,,,,,,,,,00026,001,2025-11-15_16h29.12.970,MST_test,2024.2.0,99.94213350910512,2025-11-15 16h29.20.683323 +0530,
,,,,,,,,,,,,,,,,,,,,,,,,,,,,,,,,,,,,,,,,,,,,,18.754721999997855,18.763092200002575,18.763092200002575,35.32293320000463,space,16.549033000002964,None,,,,,,,,,,,,,,,,,,,,,,,,,,,,,00026,001,2025-11-15_16h29.12.970,MST_test,2024.2.0,99.94213350910512,2025-11-15 16h29.20.683323 +0530,
,,,,,,,,,,,,,,,,,,,,,,,,,,,,,,,,,,,,,,,,,,,,,,,,,,,,35.32303590000083,35.331191400000534,35.331191400000534,86.46653420000075,space,51.13318399999844,None,,,,,,,,,,,,,,,,,,,,,,00026,001,2025-11-15_16h29.12.970,MST_test,2024.2.0,99.94213350910512,2025-11-15 16h29.20.683323 +0530,
0,0,1,s,6.008664699998917,None,1,0,0,86.47611160000088,,,,,,,,,,,,,,,,,,,,,,,,,,,,,,,,,,,,,,,,,,,,,,,,,,86.47392240000045,86.47611160000088,86.99152329999924,86.96567610000056,86.98872990000382,86.99152329999924,86.99152329999924,86.99152329999924,93.00582060000306,Objects\127b.jpg,pre,s,6.008664699998917,None,,,,,,,,00026,001,2025-11-15_16h29.12.970,MST_test,2024.2.0,99.94213350910512,2025-11-15 16h29.20.683323 +0530,
1,0,2,s,2.663134700000228,None,2,0,1,93.01405080000404,,,,,,,,,,,,,,,,,,,,,,,,,,,,,,,,,,,,,,,,,,,,,,,,,,93.00614230000065,93.01405080000404,93.5210819999993,93.50494150000304,93.51883259999886,93.5210819999993,93.5210819999993,93.5210819999993,96.18587529999786,Objects\005b.jpg,mid,s,2.663134700000228,None,,,,,,,,00026,001,2025-11-15_16h29.12.970,MST_test,2024.2.0,99.94213350910512,2025-11-15 16h29.20.683323 +0530,
2,0,3,n,7.08362489999854,None,3,0,2,96.1935747000025,,,,,,,,,,,,,,,,,,,,,,,,,,,,,,,,,,,,,,,,,,,,,,,,,,96.18618340000103,96.1935747000025,96.70087919999787,96.68497190000198,96.69861900000251,96.70087919999787,96.70087919999787,96.70087919999787,103.7941279000006,Objects\159b.jpg,pre,n,7.08362489999854,None,,,,,,,,00026,001,2025-11-15_16h29.12.970,MST_test,2024.2.0,99.94213350910512,2025-11-15 16h29.20.683323 +0530,
3,0,4,s,11.543600800003333,None,4,0,3,103.80228870000428,,,,,,,,,,,,,,,,,,,,,,,,,,,,,,,,,,,,,,,,,,,,,,,,,,103.79440079999767,103.80228870000428,104.32037600000331,104.2936378000013,104.3174358000033,104.32037600000331,104.32037600000331,104.32037600000331,115.87242649999826,Scenes\086b.jpg,post,s,11.543600800003333,None,,,,,,,,00026,001,2025-11-15_16h29.12.970,MST_test,2024.2.0,99.94213350910512,2025-11-15 16h29.20.683323 +0530,
4,0,5,o,2.0183759999999893,None,5,0,4,115.88081000000238,,,,,,,,,,,,,,,,,,,,,,,,,,,,,,,,,,,,,,,,,,,,,,,,,,115.87268349999795,115.88081000000238,116.38988059999974,116.37155229999917,116.38738220000232,116.38988059999974,116.38988059999974,116.38988059999974,118.4120275000023,Objects\045a.jpg,pre,o,2.0183759999999893,None,,,,,,,,00026,001,2025-11-15_16h29.12.970,MST_test,2024.2.0,99.94213350910512,2025-11-15 16h29.20.683323 +0530,
5,0,6,n,1.6959891999940737,None,6,0,5,118.42048010000144,,,,,,,,,,,,,,,,,,,,,,,,,,,,,,,,,,,,,,,,,,,,,,,,,,118.41225320000376,118.42048010000144,118.92808630000218,118.91172630000074,118.9256830000013,118.92808630000218,118.92808630000218,118.92808630000218,120.63228669999808,Foils\058a.jpg,none,n,1.6959891999940737,None,,,,,,,,00026,001,2025-11-15_16h29.12.970,MST_test,2024.2.0,99.94213350910512,2025-11-15 16h29.20.683323 +0530,
6,0,7,s,1.7094895000045653,None,7,0,6,120.6403289000009,,,,,,,,,,,,,,,,,,,,,,,,,,,,,,,,,,,,,,,,,,,,,,,,,,120.63255629999912,120.6403289000009,121.14673729999777,121.13163090000307,121.14433149999968,121.14673729999777,121.14673729999777,121.14673729999777,122.8622835999995,Objects\058a.jpg,post,s,1.7094895000045653,None,,,,,,,,00026,001,2025-11-15_16h29.12.970,MST_test,2024.2.0,99.94213350910512,2025-11-15 16h29.20.683323 +0530,
7,0,8,s,3.9891342999981134,None,8,0,7,122.87015020000399,,,,,,,,,,,,,,,,,,,,,,,,,,,,,,,,,,,,,,,,,,,,,,,,,,122.86259029999928,122.87015020000399,123.38745510000444,123.36067760000151,123.38432959999773,123.38745510000444,123.38745510000444,123.38745510000444,127.38096519999817,Scenes\002a.jpg,mid,s,3.9891342999981134,None,,,,,,,,00026,001,2025-11-15_16h29.12.970,MST_test,2024.2.0,99.94213350910512,2025-11-15 16h29.20.683323 +0530,
8,0,9,s,2.857471800001804,None,9,0,8,127.38935579999816,,,,,,,,,,,,,,,,,,,,,,,,,,,,,,,,,,,,,,,,,,,,,,,,,,127.38122390000353,127.38935579999816,127.90309780000098,127.88044910000463,127.89968529999896,127.90309780000098,127.90309780000098,127.90309780000098,130.7706593000039,Scenes\110a.jpg,pre,s,2.857471800001804,None,,,,,,,,00026,001,2025-11-15_16h29.12.970,MST_test,2024.2.0,99.94213350910512,2025-11-15 16h29.20.683323 +0530,
9,0,10,n,3.756455200003984,None,10,0,9,130.77912050000305,,,,,,,,,,,,,,,,,,,,,,,,,,,,,,,,,,,,,,,,,,,,,,,,,,130.7709004999997,130.77912050000305,131.3156719000035,131.2701245999997,131.3123809000026,131.3156719000035,131.3156719000035,131.3156719000035,135.08004900000378,Scenes\060a.jpg,mid,n,3.756455200003984,None,,,,,,,,00026,001,2025-11-15_16h29.12.970,MST_test,2024.2.0,99.94213350910512,2025-11-15 16h29.20.683323 +0530,
10,0,11,s,1.5058809999973164,None,11,0,10,135.08840439999767,,,,,,,,,,,,,,,,,,,,,,,,,,,,,,,,,,,,,,,,,,,,,,,,,,135.0803655999989,135.08840439999767,135.59840970000369,135.57954369999788,135.5953840000002,135.59840970000369,135.59840970000369,135.59840970000369,137.10992600000463,Scenes\016a.jpg,post,s,1.5058809999973164,None,,,,,,,,00026,001,2025-11-15_16h29.12.970,MST_test,2024.2.0,99.94213350910512,2025-11-15 16h29.20.683323 +0530,
11,0,12,s,2.820875099998375,None,12,0,11,137.11812120000104,,,,,,,,,,,,,,,,,,,,,,,,,,,,,,,,,,,,,,,,,,,,,,,,,,137.11024899999757,137.11812120000104,137.62777089999872,137.6093058999977,137.62481249999837,137.62777089999872,137.62777089999872,137.62777089999872,140.45950599999924,Objects\016b.jpg,post,s,2.820875099998375,None,,,,,,,,00026,001,2025-11-15_16h29.12.970,MST_test,2024.2.0,99.94213350910512,2025-11-15 16h29.20.683323 +0530,
12,0,13,s,4.594558400000096,None,13,0,12,140.46771740000258,,,,,,,,,,,,,,,,,,,,,,,,,,,,,,,,,,,,,,,,,,,,,,,,,,140.45980180000333,140.46771740000258,140.98180320000392,140.95879630000127,140.97879059999832,140.98180320000392,140.98180320000392,140.98180320000392,145.57951930000127,Scenes\120b.jpg,pre,s,4.594558400000096,None,,,,,,,,00026,001,2025-11-15_16h29.12.970,MST_test,2024.2.0,99.94213350910512,2025-11-15 16h29.20.683323 +0530,
13,0,14,n,1.8989530999970157,None,14,0,13,145.58706769999844,,,,,,,,,,,,,,,,,,,,,,,,,,,,,,,,,,,,,,,,,,,,,,,,,,145.5797898000019,145.58706769999844,146.09332189999986,146.07823800000187,146.09037790000002,146.09332189999986,146.09332189999986,146.09332189999986,147.99848799999745,Foils\scenes20.jpg,none,n,1.8989530999970157,None,,,,,,,,00026,001,2025-11-15_16h29.12.970,MST_test,2024.2.0,99.94213350910512,2025-11-15 16h29.20.683323 +0530,
14,0,15,o,2.3661814000006416,None,15,0,14,148.00675120000233,,,,,,,,,,,,,,,,,,,,,,,,,,,,,,,,,,,,,,,,,,,,,,,,,,147.99879289999808,148.00675120000233,148.52181869999913,148.49787530000322,148.51919610000186,148.52181869999913,148.52181869999913,148.52181869999913,150.8980225999985,Scenes\109a.jpg,pre,o,2.3661814000006416,None,,,,,,,,00026,001,2025-11-15_16h29.12.970,MST_test,2024.2.0,99.94213350910512,2025-11-15 16h29.20.683323 +0530,
15,0,16,s,3.950455999998667,None,16,0,15,150.90641160000087,,,,,,,,,,,,,,,,,,,,,,,,,,,,,,,,,,,,,,,,,,,,,,,,,,150.89825980000023,150.90641160000087,151.41800689999945,151.39747170000192,151.41492880000442,151.41800689999945,151.41800689999945,151.41800689999945,155.3777293000021,Scenes\169a.jpg,post,s,3.950455999998667,None,,,,,,,,00026,001,2025-11-15_16h29.12.970,MST_test,2024.2.0,99.94213350910512,2025-11-15 16h29.20.683323 +0530,
16,0,17,o,1.6666608000014094,None,17,0,16,155.38596580000012,,,,,,,,,,,,,,,,,,,,,,,,,,,,,,,,,,,,,,,,,,,,,,,,,,155.3779646000039,155.38596580000012,155.89364480000222,155.8768854000009,155.89082030000282,155.89364480000222,155.89364480000222,155.89364480000222,157.56700550000096,Objects\191a.jpg,mid,o,1.6666608000014094,None,,,,,,,,00026,001,2025-11-15_16h29.12.970,MST_test,2024.2.0,99.94213350910512,2025-11-15 16h29.20.683323 +0530,
17,0,18,s,3.1975084000005154,None,18,0,17,157.57550240000273,,,,,,,,,,,,,,,,,,,,,,,,,,,,,,,,,,,,,,,,,,,,,,,,,,157.5672881999999,157.57550240000273,158.08251610000298,158.06664160000219,158.080111700001,158.08251610000298,158.08251610000298,158.08251610000298,161.28598700000293,Objects\140b.jpg,pre,s,3.1975084000005154,None,,,,,,,,00026,001,2025-11-15_16h29.12.970,MST_test,2024.2.0,99.94213350910512,2025-11-15 16h29.20.683323 +0530,
18,0,19,n,2.5305522000053315,None,19,0,18,161.29502180000418,,,,,,,,,,,,,,,,,,,,,,,,,,,,,,,,,,,,,,,,,,,,,,,,,,161.28611539999838,161.29502180000418,161.8060914000016,161.7864608000018,161.80348439999943,161.8060914000016,161.8060914000016,161.8060914000016,164.3464946000022,Foils\081a.jpg,none,n,2.5305522000053315,None,,,,,,,,00026,001,2025-11-15_16h29.12.970,MST_test,2024.2.0,99.94213350910512,2025-11-15 16h29.20.683323 +0530,
19,0,20,n,1.2525153999959002,None,20,0,19,164.35465919999842,,,,,,,,,,,,,,,,,,,,,,,,,,,,,,,,,,,,,,,,,,,,,,,,,,164.34675920000154,164.35465919999842,164.86780720000388,164.8459412000011,164.86465580000367,164.86780720000388,164.86780720000388,164.86780720000388,166.12788200000068,Scenes\167b.jpg,mid,n,1.2525153999959002,None,,,,,,,,00026,001,2025-11-15_16h29.12.970,MST_test,2024.2.0,99.94213350910512,2025-11-15 16h29.20.683323 +0530,
20,0,21,s,1.4219956999950227,None,21,0,20,166.1344795000041,,,,,,,,,,,,,,,,,,,,,,,,,,,,,,,,,,,,,,,,,,,,,,,,,,166.12814459999936,166.1344795000041,166.64298730000155,166.62572910000017,166.64006130000053,166.64298730000155,166.64298730000155,166.64298730000155,168.06647250000242,Objects\179b.jpg,mid,s,1.4219956999950227,None,,,,,,,,00026,001,2025-11-15_16h29.12.970,MST_test,2024.2.0,99.94213350910512,2025-11-15 16h29.20.683323 +0530,
21,0,22,o,1.2680009000032442,None,22,0,21,168.07414029999927,,,,,,,,,,,,,,,,,,,,,,,,,,,,,,,,,,,,,,,,,,,,,,,,,,168.06676940000034,168.07414029999927,168.58045619999757,168.5654297000001,168.57798280000134,168.58045619999757,168.58045619999757,168.58045619999757,169.85607919999893,Objects\123a.jpg,post,o,1.2680009000032442,None,,,,,,,,00026,001,2025-11-15_16h29.12.970,MST_test,2024.2.0,99.94213350910512,2025-11-15 16h29.20.683323 +0530,
22,0,23,n,2.3300333000006503,None,23,0,22,169.86402739999903,,,,,,,,,,,,,,,,,,,,,,,,,,,,,,,,,,,,,,,,,,,,,,,,,,169.85638109999854,169.86402739999903,170.36653440000373,170.3546927999996,170.36396770000283,170.36653440000373,170.36653440000373,170.36653440000373,172.70576319999964,Foils\scenes3.jpg,none,n,2.3300333000006503,None,,,,,,,,00026,001,2025-11-15_16h29.12.970,MST_test,2024.2.0,99.94213350910512,2025-11-15 16h29.20.683323 +0530,
23,0,24,s,1.779982200001541,None,24,0,23,172.71375799999805,,,,,,,,,,,,,,,,,,,,,,,,,,,,,,,,,,,,,,,,,,,,,,,,,,172.70604479999747,172.71375799999805,173.2282219999979,173.20491970000148,173.2253428999975,173.2282219999979,173.2282219999979,173.2282219999979,175.01565480000136,Scenes\192b.jpg,post,s,1.779982200001541,None,,,,,,,,00026,001,2025-11-15_16h29.12.970,MST_test,2024.2.0,99.94213350910512,2025-11-15 16h29.20.683323 +0530,
24,0,25,o,5.3805205000026035,None,25,0,24,175.02338450000389,,,,,,,,,,,,,,,,,,,,,,,,,,,,,,,,,,,,,,,,,,,,,,,,,,175.01594430000114,175.02338450000389,175.5399796999991,175.51461810000183,175.53671570000006,175.5399796999991,175.5399796999991,175.5399796999991,180.92489410000417,Scenes\010a.jpg,mid,o,5.3805205000026035,None,,,,,,,,00026,001,2025-11-15_16h29.12.970,MST_test,2024.2.0,99.94213350910512,2025-11-15 16h29.20.683323 +0530,
25,0,26,o,3.278974900000321,None,26,0,25,180.93267930000002,,,,,,,,,,,,,,,,,,,,,,,,,,,,,,,,,,,,,,,,,,,,,,,,,,180.92521159999887,180.93267930000002,181.4495225999999,181.4238433999999,181.44629449999775,181.4495225999999,181.4495225999999,181.4495225999999,184.733962899998,Scenes\031a.jpg,post,o,3.278974900000321,None,,,,,,,,00026,001,2025-11-15_16h29.12.970,MST_test,2024.2.0,99.94213350910512,2025-11-15 16h29.20.683323 +0530,
26,0,27,n,2.6724219000025187,None,27,0,26,184.74218780000228,,,,,,,,,,,,,,,,,,,,,,,,,,,,,,,,,,,,,,,,,,,,,,,,,,184.7341873999976,184.74218780000228,185.25638299999991,185.23346509999828,185.2532499000008,185.25638299999991,185.25638299999991,185.25638299999991,187.9339747999984,Scenes\146b.jpg,pre,n,2.6724219000025187,None,,,,,,,,00026,001,2025-11-15_16h29.12.970,MST_test,2024.2.0,99.94213350910512,2025-11-15 16h29.20.683323 +0530,
27,0,28,o,3.18311719999474,None,28,0,27,187.94174809999822,,,,,,,,,,,,,,,,,,,,,,,,,,,,,,,,,,,,,,,,,,,,,,,,,,187.93429800000013,187.94174809999822,188.44980329999817,188.43272630000138,188.44689220000146,188.44980329999817,188.44980329999817,188.44980329999817,191.64330950000294,Objects\021a.jpg,pre,o,3.18311719999474,None,,,,,,,,00026,001,2025-11-15_16h29.12.970,MST_test,2024.2.0,99.94213350910512,2025-11-15 16h29.20.683323 +0530,
28,0,29,o,4.985651900002267,None,29,0,28,191.65140899999824,,,,,,,,,,,,,,,,,,,,,,,,,,,,,,,,,,,,,,,,,,,,,,,,,,191.64355780000187,191.65140899999824,192.16664210000454,192.14282770000136,192.1635075000013,192.16664210000454,192.16664210000454,192.16664210000454,197.16251809999812,Scenes\019a.jpg,pre,o,4.985651900002267,None,,,,,,,,00026,001,2025-11-15_16h29.12.970,MST_test,2024.2.0,99.94213350910512,2025-11-15 16h29.20.683323 +0530,
29,0,30,s,4.054612799998722,None,30,0,29,197.17067749999842,,,,,,,,,,,,,,,,,,,,,,,,,,,,,,,,,,,,,,,,,,,,,,,,,,197.16273950000323,197.17067749999842,197.69030740000017,197.6620899000045,197.68703810000443,197.69030740000017,197.69030740000017,197.69030740000017,201.75144179999916,Scenes\089b.jpg,mid,s,4.054612799998722,None,,,,,,,,00026,001,2025-11-15_16h29.12.970,MST_test,2024.2.0,99.94213350910512,2025-11-15 16h29.20.683323 +0530,
30,0,31,s,2.2532938000003924,None,31,0,30,201.7601474999974,,,,,,,,,,,,,,,,,,,,,,,,,,,,,,,,,,,,,,,,,,,,,,,,,,201.75163910000265,201.7601474999974,202.2747653999977,202.2511807999981,202.2715401000023,202.2747653999977,202.2747653999977,202.2747653999977,204.53154290000384,Scenes\126a.jpg,post,s,2.2532938000003924,None,,,,,,,,00026,001,2025-11-15_16h29.12.970,MST_test,2024.2.0,99.94213350910512,2025-11-15 16h29.20.683323 +0530,
31,0,32,n,3.162120599998161,None,32,0,31,204.53986540000187,,,,,,,,,,,,,,,,,,,,,,,,,,,,,,,,,,,,,,,,,,,,,,,,,,204.53181629999744,204.53986540000187,205.04700230000162,205.03093190000072,205.0440802000012,205.04700230000162,205.04700230000162,205.04700230000162,208.21168439999747,Foils\065a.jpg,none,n,3.162120599998161,None,,,,,,,,00026,001,2025-11-15_16h29.12.970,MST_test,2024.2.0,99.94213350910512,2025-11-15 16h29.20.683323 +0530,
32,0,33,n,3.4168935000052443,None,33,0,32,208.21932770000421,,,,,,,,,,,,,,,,,,,,,,,,,,,,,,,,,,,,,,,,,,,,,,,,,,208.21194470000046,208.21932770000421,208.73618390000047,208.7107990000004,208.73309690000315,208.73618390000047,208.73618390000047,208.73618390000047,212.16050140000152,Scenes\102b.jpg,mid,n,3.4168935000052443,None,,,,,,,,00026,001,2025-11-15_16h29.12.970,MST_test,2024.2.0,99.94213350910512,2025-11-15 16h29.20.683323 +0530,
33,0,34,s,1.5172856999997748,None,34,0,33,212.1688112999982,,,,,,,,,,,,,,,,,,,,,,,,,,,,,,,,,,,,,,,,,,,,,,,,,,212.16072700000223,212.1688112999982,212.68299230000412,212.66018279999844,212.68022629999905,212.68299230000412,212.68299230000412,212.68299230000412,214.2104746000041,Scenes\158b.jpg,mid,s,1.5172856999997748,None,,,,,,,,00026,001,2025-11-15_16h29.12.970,MST_test,2024.2.0,99.94213350910512,2025-11-15 16h29.20.683323 +0530,
34,0,35,s,1.2809768999941298,None,35,0,34,214.21864830000413,,,,,,,,,,,,,,,,,,,,,,,,,,,,,,,,,,,,,,,,,,,,,,,,,,214.2107529999994,214.21864830000413,214.72732440000254,214.709858000002,214.7245230999979,214.72732440000254,214.72732440000254,214.72732440000254,216.01077749999968,Objects\129b.jpg,mid,s,1.2809768999941298,None,,,,,,,,00026,001,2025-11-15_16h29.12.970,MST_test,2024.2.0,99.94213350910512,2025-11-15 16h29.20.683323 +0530,
35,0,36,s,1.129746199992951,None,36,0,35,216.018304600002,,,,,,,,,,,,,,,,,,,,,,,,,,,,,,,,,,,,,,,,,,,,,,,,,,216.01104950000445,216.018304600002,216.53453380000428,216.50930640000297,216.53138919999765,216.53453380000428,216.53453380000428,216.53453380000428,217.6704052999994,Scenes\009b.jpg,post,s,1.129746199992951,None,,,,,,,,00026,001,2025-11-15_16h29.12.970,MST_test,2024.2.0,99.94213350910512,2025-11-15 16h29.20.683323 +0530,
36,0,37,s,1.1834117000034894,None,37,0,36,217.6782045,,,,,,,,,,,,,,,,,,,,,,,,,,,,,,,,,,,,,,,,,,,,,,,,,,217.67070880000392,217.6782045,218.19301149999956,218.16940640000394,218.18962270000338,218.19301149999956,218.19301149999956,218.19301149999956,219.37993200000346,Scenes\055b.jpg,pre,s,1.1834117000034894,None,,,,,,,,00026,001,2025-11-15_16h29.12.970,MST_test,2024.2.0,99.94213350910512,2025-11-15 16h29.20.683323 +0530,
37,0,38,o,1.0500006000002031,None,38,0,37,219.38787749999756,,,,,,,,,,,,,,,,,,,,,,,,,,,,,,,,,,,,,,,,,,,,,,,,,,219.3802125000002,219.38787749999756,219.89464730000327,219.87887950000004,219.8917808000042,219.89464730000327,219.89464730000327,219.89464730000327,220.94920110000385,Objects\026a.jpg,post,o,1.0500006000002031,None,,,,,,,,00026,001,2025-11-15_16h29.12.970,MST_test,2024.2.0,99.94213350910512,2025-11-15 16h29.20.683323 +0530,
38,0,39,s,1.4551342999984627,None,39,0,38,220.95759610000096,,,,,,,,,,,,,,,,,,,,,,,,,,,,,,,,,,,,,,,,,,,,,,,,,,220.949454900001,220.95759610000096,221.47337130000233,221.44893740000407,221.47028470000078,221.47337130000233,221.47337130000233,221.47337130000233,222.93071659999987,Scenes\041b.jpg,post,s,1.4551342999984627,None,,,,,,,,00026,001,2025-11-15_16h29.12.970,MST_test,2024.2.0,99.94213350910512,2025-11-15 16h29.20.683323 +0530,
39,0,40,s,3.5465709999989485,None,40,0,39,222.93739800000185,,,,,,,,,,,,,,,,,,,,,,,,,,,,,,,,,,,,,,,,,,,,,,,,,,222.93104809999932,222.93739800000185,223.445447099999,223.4287067000041,223.44263160000264,223.445447099999,223.445447099999,223.445447099999,226.99832600000082,Objects\090b.jpg,pre,s,3.5465709999989485,None,,,,,,,,00026,001,2025-11-15_16h29.12.970,MST_test,2024.2.0,99.94213350910512,2025-11-15 16h29.20.683323 +0530,
40,0,41,s,1.5657709000006435,None,41,0,40,227.0068175999986,,,,,,,,,,,,,,,,,,,,,,,,,,,,,,,,,,,,,,,,,,,,,,,,,,226.99856900000304,227.0068175999986,227.5149495000005,227.49778759999754,227.51257769999938,227.5149495000005,227.5149495000005,227.5149495000005,229.08846790000098,Objects\124b.jpg,pre,s,1.5657709000006435,None,,,,,,,,00026,001,2025-11-15_16h29.12.970,MST_test,2024.2.0,99.94213350910512,2025-11-15 16h29.20.683323 +0530,
41,0,42,n,1.640742000003229,None,42,0,41,229.09654279999813,,,,,,,,,,,,,,,,,,,,,,,,,,,,,,,,,,,,,,,,,,,,,,,,,,229.08872110000084,229.09654279999813,229.60752610000054,229.58779299999878,229.6047275000019,229.60752610000054,229.60752610000054,229.60752610000054,231.25777940000262,Foils\010a.jpg,none,n,1.640742000003229,None,,,,,,,,00026,001,2025-11-15_16h29.12.970,MST_test,2024.2.0,99.94213350910512,2025-11-15 16h29.20.683323 +0530,
42,0,43,n,1.4757728000040515,None,43,0,42,231.26640050000424,,,,,,,,,,,,,,,,,,,,,,,,,,,,,,,,,,,,,,,,,,,,,,,,,,231.25806900000316,231.26640050000424,231.77292339999985,231.7571941999995,231.77025570000114,231.77292339999985,231.77292339999985,231.77292339999985,233.25841729999956,Foils\scenes19.jpg,none,n,1.4757728000040515,None,,,,,,,,00026,001,2025-11-15_16h29.12.970,MST_test,2024.2.0,99.94213350910512,2025-11-15 16h29.20.683323 +0530,
43,0,44,n,0.9824556999956258,None,44,0,43,233.26602760000242,,,,,,,,,,,,,,,,,,,,,,,,,,,,,,,,,,,,,,,,,,,,,,,,,,233.2587216000029,233.26602760000242,233.77768260000448,233.75757259999955,233.7751139000029,233.77768260000448,233.77768260000448,233.77768260000448,234.76729049999994,Foils\121a.jpg,none,n,0.9824556999956258,None,,,,,,,,00026,001,2025-11-15_16h29.12.970,MST_test,2024.2.0,99.94213350910512,2025-11-15 16h29.20.683323 +0530,
44,0,45,n,0.9573328999977093,None,45,0,44,234.77590300000156,,,,,,,,,,,,,,,,,,,,,,,,,,,,,,,,,,,,,,,,,,,,,,,,,,234.76755190000404,234.77590300000156,235.2834303999989,235.26707159999933,235.2809621999986,235.2834303999989,235.2834303999989,235.2834303999989,236.2480660000001,Objects\037a.jpg,mid,n,0.9573328999977093,None,,,,,,,,00026,001,2025-11-15_16h29.12.970,MST_test,2024.2.0,99.94213350910512,2025-11-15 16h29.20.683323 +0530,
45,0,46,n,1.0297938000003342,None,46,0,45,236.25573389999772,,,,,,,,,,,,,,,,,,,,,,,,,,,,,,,,,,,,,,,,,,,,,,,,,,236.2483757000009,236.25573389999772,236.77093089999835,236.74681810000038,236.76774880000448,236.77093089999835,236.77093089999835,236.77093089999835,237.80722400000377,Foils\scenes22.jpg,none,n,1.0297938000003342,None,,,,,,,,00026,001,2025-11-15_16h29.12.970,MST_test,2024.2.0,99.94213350910512,2025-11-15 16h29.20.683323 +0530,
46,0,47,s,1.7897612000015215,None,47,0,46,237.81555880000087,,,,,,,,,,,,,,,,,,,,,,,,,,,,,,,,,,,,,,,,,,,,,,,,,,237.8075486000016,237.81555880000087,238.32238700000016,238.3064962999997,238.31910829999833,238.32238700000016,238.32238700000016,238.32238700000016,240.1164820999984,Objects\148b.jpg,post,s,1.7897612000015215,None,,,,,,,,00026,001,2025-11-15_16h29.12.970,MST_test,2024.2.0,99.94213350910512,2025-11-15 16h29.20.683323 +0530,
47,0,48,n,3.027880699999514,None,48,0,47,240.12529910000012,,,,,,,,,,,,,,,,,,,,,,,,,,,,,,,,,,,,,,,,,,,,,,,,,,240.11667370000214,240.12529910000012,240.63646570000128,240.61625859999913,240.63345780000236,240.63646570000128,240.63646570000128,240.63646570000128,243.66655780000292,Scenes\118a.jpg,pre,n,3.027880699999514,None,,,,,,,,00026,001,2025-11-15_16h29.12.970,MST_test,2024.2.0,99.94213350910512,2025-11-15 16h29.20.683323 +0530,
48,0,49,s,3.3630936999979895,None,49,0,48,243.67473710000195,,,,,,,,,,,,,,,,,,,,,,,,,,,,,,,,,,,,,,,,,,,,,,,,,,243.6668301000027,243.67473710000195,244.18122030000086,244.16574270000274,244.17847110000002,244.18122030000086,244.18122030000086,244.18122030000086,247.5460619000005,Objects\077a.jpg,post,s,3.3630936999979895,None,,,,,,,,00026,001,2025-11-15_16h29.12.970,MST_test,2024.2.0,99.94213350910512,2025-11-15 16h29.20.683323 +0530,
49,0,50,o,1.6123463999974774,None,50,0,49,247.55430419999902,,,,,,,,,,,,,,,,,,,,,,,,,,,,,,,,,,,,,,,,,,,,,,,,,,247.54631399999926,247.55430419999902,248.06057139999757,248.04536319999897,248.0583184999996,248.06057139999757,248.06057139999757,248.06057139999757,249.67656970000098,Objects\039a.jpg,mid,o,1.6123463999974774,None,,,,,,,,00026,001,2025-11-15_16h29.12.970,MST_test,2024.2.0,99.94213350910512,2025-11-15 16h29.20.683323 +0530,
50,0,51,o,3.44010839999828,None,51,0,50,249.68399299999874,,,,,,,,,,,,,,,,,,,,,,,,,,,,,,,,,,,,,,,,,,,,,,,,,,249.67684839999856,249.68399299999874,250.1929814000032,250.17496750000282,250.190254000001,250.1929814000032,250.1929814000032,250.1929814000032,253.63537630000064,Scenes\140a.jpg,post,o,3.44010839999828,None,,,,,,,,00026,001,2025-11-15_16h29.12.970,MST_test,2024.2.0,99.94213350910512,2025-11-15 16h29.20.683323 +0530,
51,0,52,s,4.383055799997237,None,52,0,51,253.64343940000253,,,,,,,,,,,,,,,,,,,,,,,,,,,,,,,,,,,,,,,,,,,,,,,,,,253.63562220000313,253.64343940000253,254.15380880000157,254.1347975000026,254.15091740000207,254.15380880000157,254.15380880000157,254.15380880000157,258.54422019999765,Objects\040b.jpg,post,s,4.383055799997237,None,,,,,,,,00026,001,2025-11-15_16h29.12.970,MST_test,2024.2.0,99.94213350910512,2025-11-15 16h29.20.683323 +0530,
52,0,53,s,1.4552254999944125,None,53,0,52,258.55274250000366,,,,,,,,,,,,,,,,,,,,,,,,,,,,,,,,,,,,,,,,,,,,,,,,,,258.5444032000014,258.55274250000366,259.0655038000041,259.0440296000015,259.06264219999866,259.0655038000041,259.0655038000041,259.0655038000041,260.5247040000031,Scenes\123b.jpg,pre,s,1.4552254999944125,None,,,,,,,,00026,001,2025-11-15_16h29.12.970,MST_test,2024.2.0,99.94213350910512,2025-11-15 16h29.20.683323 +0530,
53,0,54,n,2.703314099999261,None,54,0,53,260.5327690999984,,,,,,,,,,,,,,,,,,,,,,,,,,,,,,,,,,,,,,,,,,,,,,,,,,260.52495620000263,260.5327690999984,261.0410981000023,261.02378950000275,261.03824120000354,261.0410981000023,261.0410981000023,261.0410981000023,263.7539523000014,Objects\141a.jpg,mid,n,2.703314099999261,None,,,,,,,,00026,001,2025-11-15_16h29.12.970,MST_test,2024.2.0,99.94213350910512,2025-11-15 16h29.20.683323 +0530,
54,0,55,o,1.2904677999977139,None,55,0,54,263.76224200000433,,,,,,,,,,,,,,,,,,,,,,,,,,,,,,,,,,,,,,,,,,,,,,,,,,263.75415839999914,263.76224200000433,264.27834099999745,264.2533984000038,264.27517400000215,264.27834099999745,264.27834099999745,264.27834099999745,265.5733513000014,Scenes\171a.jpg,mid,o,1.2904677999977139,None,,,,,,,,00026,001,2025-11-15_16h29.12.970,MST_test,2024.2.0,99.94213350910512,2025-11-15 16h29.20.683323 +0530,
55,0,56,n,5.421761499994318,None,56,0,55,265.5819728999995,,,,,,,,,,,,,,,,,,,,,,,,,,,,,,,,,,,,,,,,,,,,,,,,,,265.5735724000042,265.5819728999995,266.09053770000173,266.0733773000029,266.08813740000187,266.09053770000173,266.09053770000173,266.09053770000173,271.5227543000001,Foils\scenes13.jpg,none,n,5.421761499994318,None,,,,,,,,00026,001,2025-11-15_16h29.12.970,MST_test,2024.2.0,99.94213350910512,2025-11-15 16h29.20.683323 +0530,
56,0,57,s,2.159151500003645,None,57,0,56,271.53120189999754,,,,,,,,,,,,,,,,,,,,,,,,,,,,,,,,,,,,,,,,,,,,,,,,,,271.5230381000001,271.53120189999754,272.04141450000316,272.0222427000044,272.0387924000024,272.04141450000316,272.04141450000316,272.04141450000316,274.20318750000297,Scenes\188a.jpg,pre,s,2.159151500003645,None,,,,,,,,00026,001,2025-11-15_16h29.12.970,MST_test,2024.2.0,99.94213350910512,2025-11-15 16h29.20.683323 +0530,
57,0,58,n,1.0909460000038962,None,58,0,57,274.21094509999966,,,,,,,,,,,,,,,,,,,,,,,,,,,,,,,,,,,,,,,,,,,,,,,,,,274.2035004999998,274.21094509999966,274.717332500004,274.7018734000012,274.71457530000043,274.717332500004,274.717332500004,274.717332500004,275.81293580000056,Foils\scenes17.jpg,none,n,1.0909460000038962,None,,,,,,,,00026,001,2025-11-15_16h29.12.970,MST_test,2024.2.0,99.94213350910512,2025-11-15 16h29.20.683323 +0530,
58,0,59,o,1.8811795999936294,None,59,0,58,275.8208423000033,,,,,,,,,,,,,,,,,,,,,,,,,,,,,,,,,,,,,,,,,,,,,,,,,,275.8133022000038,275.8208423000033,276.3282518999986,276.3116220000011,276.3256642999986,276.3282518999986,276.3282518999986,276.3282518999986,278.211913500003,Objects\028b.jpg,post,o,1.8811795999936294,None,,,,,,,,00026,001,2025-11-15_16h29.12.970,MST_test,2024.2.0,99.94213350910512,2025-11-15 16h29.20.683323 +0530,
59,0,60,o,1.2343840000030468,None,60,0,59,278.22040050000214,,,,,,,,,,,,,,,,,,,,,,,,,,,,,,,,,,,,,,,,,,,,,,,,,,278.2121560000014,278.22040050000214,278.7267219999994,278.71144520000234,278.72430390000227,278.7267219999994,278.7267219999994,278.7267219999994,279.97307340000407,Objects\030a.jpg,pre,o,1.2343840000030468,None,,,,,,,,00026,001,2025-11-15_16h29.12.970,MST_test,2024.2.0,99.94213350910512,2025-11-15 16h29.20.683323 +0530,
60,0,61,s,2.1509397999980138,None,61,0,60,279.98006149999856,,,,,,,,,,,,,,,,,,,,,,,,,,,,,,,,,,,,,,,,,,,,,,,,,,279.97349140000006,279.98006149999856,280.4902828999984,280.4711183000036,280.48712360000354,280.4902828999984,280.4902828999984,280.4902828999984,282.65171030000056,Scenes\162a.jpg,pre,s,2.1509397999980138,None,,,,,,,,00026,001,2025-11-15_16h29.12.970,MST_test,2024.2.0,99.94213350910512,2025-11-15 16h29.20.683323 +0530,
61,0,62,o,1.3712505000003148,None,62,0,61,282.6599514000045,,,,,,,,,,,,,,,,,,,,,,,,,,,,,,,,,,,,,,,,,,,,,,,,,,282.65197479999915,282.6599514000045,283.16550540000026,283.15035080000234,283.16271199999755,283.16550540000026,283.16550540000026,283.16550540000026,284.541515900004,Objects\114a.jpg,pre,o,1.3712505000003148,None,,,,,,,,00026,001,2025-11-15_16h29.12.970,MST_test,2024.2.0,99.94213350910512,2025-11-15 16h29.20.683323 +0530,
62,0,63,n,1.3165036999998847,None,63,0,62,284.5496046000044,,,,,,,,,,,,,,,,,,,,,,,,,,,,,,,,,,,,,,,,,,,,,,,,,,284.5417654999983,284.5496046000044,285.05958620000456,285.0405150000006,285.05668349999905,285.05958620000456,285.05958620000456,285.05958620000456,286.3815012999985,Scenes\160b.jpg,post,n,1.3165036999998847,None,,,,,,,,00026,001,2025-11-15_16h29.12.970,MST_test,2024.2.0,99.94213350910512,2025-11-15 16h29.20.683323 +0530,
63,0,64,s,4.6642408999978215,None,64,0,63,286.3894606000031,,,,,,,,,,,,,,,,,,,,,,,,,,,,,,,,,,,,,,,,,,,,,,,,,,286.381816000001,286.3894606000031,286.8963461000021,286.88054370000464,286.89349010000296,286.8963461000021,286.8963461000021,286.8963461000021,291.5706691000014,Foils\scenes1.jpg,none,s,4.6642408999978215,None,,,,,,,,00026,001,2025-11-15_16h29.12.970,MST_test,2024.2.0,99.94213350910512,2025-11-15 16h29.20.683323 +0530,
64,0,65,s,1.3714780000009341,None,65,0,64,291.5788109999994,,,,,,,,,,,,,,,,,,,,,,,,,,,,,,,,,,,,,,,,,,,,,,,,,,291.5709683000023,291.5788109999994,292.0855462000036,292.0689335999996,292.0825814999989,292.0855462000036,292.0855462000036,292.0855462000036,293.4606222000002,Scenes\138b.jpg,post,s,1.3714780000009341,None,,,,,,,,00026,001,2025-11-15_16h29.12.970,MST_test,2024.2.0,99.94213350910512,2025-11-15 16h29.20.683323 +0530,
65,0,66,n,2.686466400002246,None,66,0,65,293.4683656999987,,,,,,,,,,,,,,,,,,,,,,,,,,,,,,,,,,,,,,,,,,,,,,,,,,293.46088800000143,293.4683656999987,293.985743199999,293.9598432999992,293.9826319999993,293.985743199999,293.985743199999,293.985743199999,296.6798237999974,Scenes\100b.jpg,pre,n,2.686466400002246,None,,,,,,,,00026,001,2025-11-15_16h29.12.970,MST_test,2024.2.0,99.94213350910512,2025-11-15 16h29.20.683323 +0530,
66,0,67,s,1.9171408000038355,None,67,0,66,296.6880042999983,,,,,,,,,,,,,,,,,,,,,,,,,,,,,,,,,,,,,,,,,,,,,,,,,,296.6800491000031,296.6880042999983,297.1956999000031,297.1792809000035,297.1927466999987,297.1956999000031,297.1956999000031,297.1956999000031,299.1191400000025,Objects\111b.jpg,mid,s,1.9171408000038355,None,,,,,,,,00026,001,2025-11-15_16h29.12.970,MST_test,2024.2.0,99.94213350910512,2025-11-15 16h29.20.683323 +0530,
67,0,68,s,4.1563365000038175,None,68,0,67,299.1277381000036,,,,,,,,,,,,,,,,,,,,,,,,,,,,,,,,,,,,,,,,,,,,,,,,,,299.119380199998,299.1277381000036,299.63633259999915,299.61879549999867,299.63314170000376,299.63633259999915,299.63633259999915,299.63633259999915,303.79916159999993,Foils\scenes6.jpg,none,s,4.1563365000038175,None,,,,,,,,00026,001,2025-11-15_16h29.12.970,MST_test,2024.2.0,99.94213350910512,2025-11-15 16h29.20.683323 +0530,
68,0,69,n,4.391958000000159,None,69,0,68,303.8072040000043,,,,,,,,,,,,,,,,,,,,,,,,,,,,,,,,,,,,,,,,,,,,,,,,,,303.79942290000326,303.8072040000043,304.32012940000277,304.29816420000134,304.3172627000022,304.32012940000277,304.32012940000277,304.32012940000277,308.71813790000306,Scenes\131a.jpg,mid,n,4.391958000000159,None,,,,,,,,00026,001,2025-11-15_16h29.12.970,MST_test,2024.2.0,99.94213350910512,2025-11-15 16h29.20.683323 +0530,
69,0,70,n,1.2571010999963619,None,70,0,69,308.7265017000027,,,,,,,,,,,,,,,,,,,,,,,,,,,,,,,,,,,,,,,,,,,,,,,,,,308.71838350000326,308.7265017000027,309.2401088999977,309.21807490000356,309.2367607999986,309.2401088999977,309.2401088999977,309.2401088999977,310.49875379999867,Scenes\187b.jpg,mid,n,1.2571010999963619,None,,,,,,,,00026,001,2025-11-15_16h29.12.970,MST_test,2024.2.0,99.94213350910512,2025-11-15 16h29.20.683323 +0530,
70,0,71,s,3.035238600001321,None,71,0,70,310.50653880000027,,,,,,,,,,,,,,,,,,,,,,,,,,,,,,,,,,,,,,,,,,,,,,,,,,310.49907879999955,310.50653880000027,311.0135857999994,310.9970461999983,311.0107141999979,311.0135857999994,311.0135857999994,311.0135857999994,314.0576613000012,Objects\061b.jpg,post,s,3.035238600001321,None,,,,,,,,00026,001,2025-11-15_16h29.12.970,MST_test,2024.2.0,99.94213350910512,2025-11-15 16h29.20.683323 +0530,
71,0,72,n,2.569955700004357,None,72,0,71,314.06603170000017,,,,,,,,,,,,,,,,,,,,,,,,,,,,,,,,,,,,,,,,,,,,,,,,,,314.05790200000047,314.06603170000017,314.57480770000257,314.55700819999765,314.5721865000014,314.57480770000257,314.57480770000257,314.57480770000257,317.14708670000255,Foils\049a.jpg,none,n,2.569955700004357,None,,,,,,,,00026,001,2025-11-15_16h29.12.970,MST_test,2024.2.0,99.94213350910512,2025-11-15 16h29.20.683323 +0530,
72,0,73,o,1.3559553999948548,None,73,0,72,317.15572010000324,,,,,,,,,,,,,,,,,,,,,,,,,,,,,,,,,,,,,,,,,,,,,,,,,,317.14725429999817,317.15572010000324,317.6686081000007,317.6465926000019,317.6655463999996,317.6686081000007,317.6686081000007,317.6686081000007,319.02705270000297,Scenes\154a.jpg,pre,o,1.3559553999948548,None,,,,,,,,00026,001,2025-11-15_16h29.12.970,MST_test,2024.2.0,99.94213350910512,2025-11-15 16h29.20.683323 +0530,
73,0,74,o,1.169394699994882,None,74,0,73,319.0355261000004,,,,,,,,,,,,,,,,,,,,,,,,,,,,,,,,,,,,,,,,,,,,,,,,,,319.0272802000036,319.0355261000004,319.54275849999976,319.52692709999974,319.5396363000036,319.54275849999976,319.54275849999976,319.54275849999976,320.71747440000036,Objects\190a.jpg,pre,o,1.169394699994882,None,,,,,,,,00026,001,2025-11-15_16h29.12.970,MST_test,2024.2.0,99.94213350910512,2025-11-15 16h29.20.683323 +0530,
74,0,75,n,2.66114540000126,None,75,0,74,320.72512090000237,,,,,,,,,,,,,,,,,,,,,,,,,,,,,,,,,,,,,,,,,,,,,,,,,,320.7177138000043,320.72512090000237,321.23555599999963,321.2163084999993,321.2329938000039,321.23555599999963,321.23555599999963,321.23555599999963,323.90680740000244,Foils\086a.jpg,none,n,2.66114540000126,None,,,,,,,,00026,001,2025-11-15_16h29.12.970,MST_test,2024.2.0,99.94213350910512,2025-11-15 16h29.20.683323 +0530,
75,0,76,n,1.4965942000053474,None,76,0,75,323.9148415000018,,,,,,,,,,,,,,,,,,,,,,,,,,,,,,,,,,,,,,,,,,,,,,,,,,323.90710100000433,323.9148415000018,324.42410190000373,324.406261600001,324.4212129000007,324.42410190000373,324.42410190000373,324.42410190000373,325.9265063999992,Foils\scenes29.jpg,none,n,1.4965942000053474,None,,,,,,,,00026,001,2025-11-15_16h29.12.970,MST_test,2024.2.0,99.94213350910512,2025-11-15 16h29.20.683323 +0530,
76,0,77,o,1.0948948000004748,None,77,0,76,325.93456040000456,,,,,,,,,,,,,,,,,,,,,,,,,,,,,,,,,,,,,,,,,,,,,,,,,,325.9267856000006,325.93456040000456,326.44157370000175,326.4255101000017,326.43888770000194,326.44157370000175,326.44157370000175,326.44157370000175,327.54580089999945,Objects\149b.jpg,pre,o,1.0948948000004748,None,,,,,,,,00026,001,2025-11-15_16h29.12.970,MST_test,2024.2.0,99.94213350910512,2025-11-15 16h29.20.683323 +0530,
77,0,78,s,1.1375352000031853,None,78,0,77,327.55434070000047,,,,,,,,,,,,,,,,,,,,,,,,,,,,,,,,,,,,,,,,,,,,,,,,,,327.54604950000066,327.55434070000047,328.06256569999823,328.04556690000027,328.0601544000019,328.06256569999823,328.06256569999823,328.06256569999823,329.2061068000039,Objects\082b.jpg,post,s,1.1375352000031853,None,,,,,,,,00026,001,2025-11-15_16h29.12.970,MST_test,2024.2.0,99.94213350910512,2025-11-15 16h29.20.683323 +0530,
78,0,79,s,3.169745699997293,None,79,0,78,329.21406849999767,,,,,,,,,,,,,,,,,,,,,,,,,,,,,,,,,,,,,,,,,,,,,,,,,,329.2063363999987,329.21406849999767,329.72682899999927,329.7054921000017,329.7237877000007,329.72682899999927,329.72682899999927,329.72682899999927,332.9052889000013,Scenes\124b.jpg,mid,s,3.169745699997293,None,,,,,,,,00026,001,2025-11-15_16h29.12.970,MST_test,2024.2.0,99.94213350910512,2025-11-15 16h29.20.683323 +0530,
79,0,80,s,1.7653221000000485,None,80,0,79,332.9136972999986,,,,,,,,,,,,,,,,,,,,,,,,,,,,,,,,,,,,,,,,,,,,,,,,,,332.90553689999797,332.9136972999986,333.42715419999877,333.4051006000009,333.4240406000026,333.42715419999877,333.42715419999877,333.42715419999877,335.19552629999816,Scenes\037b.jpg,mid,s,1.7653221000000485,None,,,,,,,,00026,001,2025-11-15_16h29.12.970,MST_test,2024.2.0,99.94213350910512,2025-11-15 16h29.20.683323 +0530,
80,0,81,s,1.3684353999997256,None,81,0,80,335.2034008000046,,,,,,,,,,,,,,,,,,,,,,,,,,,,,,,,,,,,,,,,,,,,,,,,,,335.19585240000015,335.2034008000046,335.7204211999997,335.6946098000044,335.71706950000225,335.7204211999997,335.7204211999997,335.7204211999997,337.0953746000014,Scenes\012a.jpg,post,s,1.3684353999997256,None,,,,,,,,00026,001,2025-11-15_16h29.12.970,MST_test,2024.2.0,99.94213350910512,2025-11-15 16h29.20.683323 +0530,
81,0,82,s,1.5725529999981518,None,82,0,81,337.1031793000002,,,,,,,,,,,,,,,,,,,,,,,,,,,,,,,,,,,,,,,,,,,,,,,,,,337.0957090000011,337.1031793000002,337.61232949999976,337.5943006000016,337.6092417000036,337.61232949999976,337.61232949999976,337.61232949999976,339.1943992000015,Objects\163b.jpg,post,s,1.5725529999981518,None,,,,,,,,00026,001,2025-11-15_16h29.12.970,MST_test,2024.2.0,99.94213350910512,2025-11-15 16h29.20.683323 +0530,
82,0,83,n,3.08627179999894,None,83,0,82,339.202864400002,,,,,,,,,,,,,,,,,,,,,,,,,,,,,,,,,,,,,,,,,,,,,,,,,,339.1946201000028,339.202864400002,339.71420480000234,339.69384349999746,339.7113599000004,339.71420480000234,339.71420480000234,339.71420480000234,342.8044042000038,Scenes\147a.jpg,post,n,3.08627179999894,None,,,,,,,,00026,001,2025-11-15_16h29.12.970,MST_test,2024.2.0,99.94213350910512,2025-11-15 16h29.20.683323 +0530,
83,0,84,s,2.615040000004228,None,84,0,83,342.81218549999903,,,,,,,,,,,,,,,,,,,,,,,,,,,,,,,,,,,,,,,,,,,,,,,,,,342.80472069999814,342.81218549999903,343.3211128000039,343.30382680000184,343.3180635000026,343.3211128000039,343.3211128000039,343.3211128000039,345.9436420999991,Objects\102b.jpg,pre,s,2.615040000004228,None,,,,,,,,00026,001,2025-11-15_16h29.12.970,MST_test,2024.2.0,99.94213350910512,2025-11-15 16h29.20.683323 +0530,
84,0,85,o,1.528339500000584,None,85,0,84,345.95195010000316,,,,,,,,,,,,,,,,,,,,,,,,,,,,,,,,,,,,,,,,,,,,,,,,,,345.9438932999983,345.95195010000316,346.4646352999989,346.44303890000447,346.4616884999996,346.4646352999989,346.4646352999989,346.4646352999989,348.0032586000016,Scenes\157a.jpg,mid,o,1.528339500000584,None,,,,,,,,00026,001,2025-11-15_16h29.12.970,MST_test,2024.2.0,99.94213350910512,2025-11-15 16h29.20.683323 +0530,
85,0,86,s,1.2731466999975964,None,86,0,85,348.01182289999997,,,,,,,,,,,,,,,,,,,,,,,,,,,,,,,,,,,,,,,,,,,,,,,,,,348.00351700000465,348.01182289999997,348.5197302000015,348.5030665000013,348.51692780000303,348.5197302000015,348.5197302000015,348.5197302000015,349.8030923999977,Objects\071a.jpg,post,s,1.2731466999975964,None,,,,,,,,00026,001,2025-11-15_16h29.12.970,MST_test,2024.2.0,99.94213350910512,2025-11-15 16h29.20.683323 +0530,
86,0,87,s,1.8180656000040472,None,87,0,86,349.8115334000031,,,,,,,,,,,,,,,,,,,,,,,,,,,,,,,,,,,,,,,,,,,,,,,,,,349.803327499998,349.8115334000031,350.31868830000167,350.30268420000357,350.3163805000004,350.31868830000167,350.31868830000167,350.31868830000167,352.14258690000133,Objects\059a.jpg,pre,s,1.8180656000040472,None,,,,,,,,00026,001,2025-11-15_16h29.12.970,MST_test,2024.2.0,99.94213350910512,2025-11-15 16h29.20.683323 +0530,
87,0,88,s,2.4647750000003725,None,88,0,87,352.15104129999963,,,,,,,,,,,,,,,,,,,,,,,,,,,,,,,,,,,,,,,,,,,,,,,,,,352.14285329999984,352.15104129999963,352.6650179999997,352.642523399998,352.6618008000005,352.6650179999997,352.6650179999997,352.6650179999997,355.13257370000065,Scenes\083b.jpg,post,s,2.4647750000003725,None,,,,,,,,00026,001,2025-11-15_16h29.12.970,MST_test,2024.2.0,99.94213350910512,2025-11-15 16h29.20.683323 +0530,
88,0,89,s,2.11244330000045,None,89,0,88,355.14063310000347,,,,,,,,,,,,,,,,,,,,,,,,,,,,,,,,,,,,,,,,,,,,,,,,,,355.13284450000356,355.14063310000347,355.6479130000007,355.63149690000137,355.64519239999936,355.6479130000007,355.6479130000007,355.6479130000007,357.76199610000185,Foils\scenes2.jpg,none,s,2.11244330000045,None,,,,,,,,00026,001,2025-11-15_16h29.12.970,MST_test,2024.2.0,99.94213350910512,2025-11-15 16h29.20.683323 +0530,
89,0,90,o,0.8995609999983571,None,90,0,89,357.77037750000454,,,,,,,,,,,,,,,,,,,,,,,,,,,,,,,,,,,,,,,,,,,,,,,,,,357.7622893000007,357.77037750000454,358.27721510000265,358.2615269000016,358.27475190000405,358.27721510000265,358.27721510000265,358.27721510000265,359.18203340000036,Foils\scenes18.jpg,none,o,0.8995609999983571,None,,,,,,,,00026,001,2025-11-15_16h29.12.970,MST_test,2024.2.0,99.94213350910512,2025-11-15 16h29.20.683323 +0530,
90,0,91,n,0.058762799999385606,None,91,0,90,359.19019420000404,,,,,,,,,,,,,,,,,,,,,,,,,,,,,,,,,,,,,,,,,,,,,,,,,,359.18226100000174,359.19019420000404,359.7018855999995,359.68132080000214,359.6990347000028,359.7018855999995,359.7018855999995,359.7018855999995,359.76249780000217,Scenes\156a.jpg,post,n,0.058762799999385606,None,,,,,,,,00026,001,2025-11-15_16h29.12.970,MST_test,2024.2.0,99.94213350910512,2025-11-15 16h29.20.683323 +0530,
91,0,92,n,2.377783299998555,None,92,0,91,359.7701792000007,,,,,,,,,,,,,,,,,,,,,,,,,,,,,,,,,,,,,,,,,,,,,,,,,,359.76299680000375,359.7701792000007,360.31892700000026,360.26134309999907,360.3146787000005,360.31892700000026,360.31892700000026,360.31892700000026,362.7011793999991,Foils\scenes15.jpg,none,n,2.377783299998555,None,,,,,,,,00026,001,2025-11-15_16h29.12.970,MST_test,2024.2.0,99.94213350910512,2025-11-15 16h29.20.683323 +0530,
92,0,93,s,1.4608485999997356,None,93,0,92,362.70972320000146,,,,,,,,,,,,,,,,,,,,,,,,,,,,,,,,,,,,,,,,,,,,,,,,,,362.7014099000007,362.70972320000146,363.22752340000443,363.20100240000465,363.22513869999966,363.22752340000443,363.22752340000443,363.22752340000443,364.69102759999805,Foils\scenes11.jpg,none,s,1.4608485999997356,None,,,,,,,,00026,001,2025-11-15_16h29.12.970,MST_test,2024.2.0,99.94213350910512,2025-11-15 16h29.20.683323 +0530,
93,0,94,o,1.4329406000033487,None,94,0,93,364.6994900999998,,,,,,,,,,,,,,,,,,,,,,,,,,,,,,,,,,,,,,,,,,,,,,,,,,364.6912808999987,364.6994900999998,365.2073459000021,365.1906452000039,365.20486879999953,365.2073459000021,365.2073459000021,365.2073459000021,366.65086780000274,Objects\105a.jpg,mid,o,1.4329406000033487,None,,,,,,,,00026,001,2025-11-15_16h29.12.970,MST_test,2024.2.0,99.94213350910512,2025-11-15 16h29.20.683323 +0530,
94,0,95,o,1.6534934000010253,None,95,0,94,366.65927470000315,,,,,,,,,,,,,,,,,,,,,,,,,,,,,,,,,,,,,,,,,,,,,,,,,,366.65116090000083,366.65927470000315,367.1632202000037,367.1500195999979,367.1609862999976,367.1632202000037,367.1632202000037,367.1632202000037,368.8203339000029,Objects\155b.jpg,mid,o,1.6534934000010253,None,,,,,,,,00026,001,2025-11-15_16h29.12.970,MST_test,2024.2.0,99.94213350910512,2025-11-15 16h29.20.683323 +0530,
95,0,96,n,1.1529739999969024,None,96,0,95,368.8288676000011,,,,,,,,,,,,,,,,,,,,,,,,,,,,,,,,,,,,,,,,,,,,,,,,,,368.82054710000375,368.8288676000011,369.3359658000045,369.32010869999795,369.33372640000016,369.3359658000045,369.3359658000045,369.3359658000045,370.4907416999995,Objects\178b.jpg,pre,n,1.1529739999969024,None,,,,,,,,00026,001,2025-11-15_16h29.12.970,MST_test,2024.2.0,99.94213350910512,2025-11-15 16h29.20.683323 +0530,
96,0,97,n,1.7203155999959563,None,97,0,96,370.49885879999783,,,,,,,,,,,,,,,,,,,,,,,,,,,,,,,,,,,,,,,,,,,,,,,,,,370.4909984000042,370.49885879999783,371.0080342000001,370.98979240000335,371.0056459999978,371.0080342000001,371.0080342000001,371.0080342000001,372.7304127000025,Objects\004b.jpg,mid,n,1.7203155999959563,None,,,,,,,,00026,001,2025-11-15_16h29.12.970,MST_test,2024.2.0,99.94213350910512,2025-11-15 16h29.20.683323 +0530,
97,0,98,n,0.9318090000015218,None,98,0,97,372.7385129000031,,,,,,,,,,,,,,,,,,,,,,,,,,,,,,,,,,,,,,,,,,,,,,,,,,372.7306754000019,372.7385129000031,373.2445202000017,373.2296092000033,373.24219599999924,373.2445202000017,373.2445202000017,373.2445202000017,374.17922420000104,Foils\101b.jpg,none,n,0.9318090000015218,None,,,,,,,,00026,001,2025-11-15_16h29.12.970,MST_test,2024.2.0,99.94213350910512,2025-11-15 16h29.20.683323 +0530,
98,0,99,s,1.2164283000020077,None,99,0,98,374.1881659999999,,,,,,,,,,,,,,,,,,,,,,,,,,,,,,,,,,,,,,,,,,,,,,,,,,374.17932020000444,374.1881659999999,374.6965076999986,374.67932519999886,374.69409579999774,374.6965076999986,374.6965076999986,374.6965076999986,375.92002969999885,Objects\014b.jpg,pre,s,1.2164283000020077,None,,,,,,,,00026,001,2025-11-15_16h29.12.970,MST_test,2024.2.0,99.94213350910512,2025-11-15 16h29.20.683323 +0530,
99,0,100,n,1.87570300000516,None,100,0,99,375.9280837999977,,,,,,,,,,,,,,,,,,,,,,,,,,,,,,,,,,,,,,,,,,,,,,,,,,375.9203042000008,375.9280837999977,376.4368286000026,376.4191237999985,376.43428040000435,376.4368286000026,376.4368286000026,376.4368286000026,378.32020829999965,Objects\134a.jpg,post,n,1.87570300000516,None,,,,,,,,00026,001,2025-11-15_16h29.12.970,MST_test,2024.2.0,99.94213350910512,2025-11-15 16h29.20.683323 +0530,
100,0,101,o,1.2136755999963498,None,101,0,100,378.32792029999837,,,,,,,,,,,,,,,,,,,,,,,,,,,,,,,,,,,,,,,,,,,,,,,,,,378.3205474999995,378.32792029999837,378.83476599999995,378.818895299999,378.83236970000144,378.83476599999995,378.83476599999995,378.83476599999995,380.0503067000027,Objects\128a.jpg,mid,o,1.2136755999963498,None,,,,,,,,00026,001,2025-11-15_16h29.12.970,MST_test,2024.2.0,99.94213350910512,2025-11-15 16h29.20.683323 +0530,
101,0,102,o,1.0444782999984454,None,102,0,101,380.05763709999883,,,,,,,,,,,,,,,,,,,,,,,,,,,,,,,,,,,,,,,,,,,,,,,,,,380.05060539999977,380.05763709999883,380.56414380000206,380.54856020000443,380.5616453000039,380.56414380000206,380.56414380000206,380.56414380000206,381.6193652000002,Objects\130a.jpg,mid,o,1.0444782999984454,None,,,,,,,,00026,001,2025-11-15_16h29.12.970,MST_test,2024.2.0,99.94213350910512,2025-11-15 16h29.20.683323 +0530,
102,0,103,s,2.712703400000464,None,103,0,102,381.6274743000031,,,,,,,,,,,,,,,,,,,,,,,,,,,,,,,,,,,,,,,,,,,,,,,,,,381.6196376000007,381.6274743000031,382.14379709999776,382.1187835000019,382.1405240000022,382.14379709999776,382.14379709999776,382.14379709999776,384.8577233000033,Scenes\105a.jpg,mid,s,2.712703400000464,None,,,,,,,,00026,001,2025-11-15_16h29.12.970,MST_test,2024.2.0,99.94213350910512,2025-11-15 16h29.20.683323 +0530,
103,0,104,s,5.4979330000060145,None,104,0,103,384.86684100000275,,,,,,,,,,,,,,,,,,,,,,,,,,,,,,,,,,,,,,,,,,,,,,,,,,384.85784270000295,384.86684100000275,385.3747476999997,385.3581015000018,385.37178680000216,385.3747476999997,385.3747476999997,385.3747476999997,390.87788600000204,Objects\056b.jpg,post,s,5.4979330000060145,None,,,,,,,,00026,001,2025-11-15_16h29.12.970,MST_test,2024.2.0,99.94213350910512,2025-11-15 16h29.20.683323 +0530,
104,0,105,o,2.7690568000034546,None,105,0,104,390.8863213000004,,,,,,,,,,,,,,,,,,,,,,,,,,,,,,,,,,,,,,,,,,,,,,,,,,390.87810660000105,390.8863213000004,391.39176260000386,391.3772478000028,391.3894478000002,391.39176260000386,391.39176260000386,391.39176260000386,394.16748319999897,Objects\112b.jpg,mid,o,2.7690568000034546,None,,,,,,,,00026,001,2025-11-15_16h29.12.970,MST_test,2024.2.0,99.94213350910512,2025-11-15 16h29.20.683323 +0530,
105,0,106,n,1.5102246000024024,None,106,0,105,394.17569260000164,,,,,,,,,,,,,,,,,,,,,,,,,,,,,,,,,,,,,,,,,,,,,,,,,,394.1677490000002,394.17569260000164,394.6904546000005,394.66694799999823,394.68748549999873,394.6904546000005,394.6904546000005,394.6904546000005,396.2075459999978,Scenes\059b.jpg,pre,n,1.5102246000024024,None,,,,,,,,00026,001,2025-11-15_16h29.12.970,MST_test,2024.2.0,99.94213350910512,2025-11-15 16h29.20.683323 +0530,
106,0,107,s,1.3252698999931454,None,107,0,106,396.2155208999975,,,,,,,,,,,,,,,,,,,,,,,,,,,,,,,,,,,,,,,,,,,,,,,,,,396.2077824000007,396.2155208999975,396.7236241999999,396.70674560000043,396.7207735999982,396.7236241999999,396.7236241999999,396.7236241999999,398.0576347000024,Foils\066a.jpg,none,s,1.3252698999931454,None,,,,,,,,00026,001,2025-11-15_16h29.12.970,MST_test,2024.2.0,99.94213350910512,2025-11-15 16h29.20.683323 +0530,
107,0,108,n,1.4346135000014328,None,108,0,107,398.06529079999746,,,,,,,,,,,,,,,,,,,,,,,,,,,,,,,,,,,,,,,,,,,,,,,,,,398.05798859999777,398.06529079999746,398.5820903999993,398.55649809999886,398.5788950999995,398.5820903999993,398.5820903999993,398.5820903999993,400.0266028000042,Scenes\190b.jpg,pre,n,1.4346135000014328,None,,,,,,,,00026,001,2025-11-15_16h29.12.970,MST_test,2024.2.0,99.94213350910512,2025-11-15 16h29.20.683323 +0530,
108,0,109,n,1.0566841999971075,None,109,0,108,400.035120200002,,,,,,,,,,,,,,,,,,,,,,,,,,,,,,,,,,,,,,,,,,,,,,,,,,400.0268771999981,400.035120200002,400.5434297000029,400.52636599999823,400.5403761999987,400.5434297000029,400.5434297000029,400.5434297000029,401.60720830000355,Objects\122b.jpg,mid,n,1.0566841999971075,None,,,,,,,,00026,001,2025-11-15_16h29.12.970,MST_test,2024.2.0,99.94213350910512,2025-11-15 16h29.20.683323 +0530,
109,0,110,n,0.7983557999978075,None,110,0,109,401.6149495999998,,,,,,,,,,,,,,,,,,,,,,,,,,,,,,,,,,,,,,,,,,,,,,,,,,401.60747280000214,401.6149495999998,402.12228960000357,402.10687640000106,402.119881300001,402.12228960000357,402.12228960000357,402.12228960000357,402.92676270000084,Foils\097a.jpg,none,n,0.7983557999978075,None,,,,,,,,00026,001,2025-11-15_16h29.12.970,MST_test,2024.2.0,99.94213350910512,2025-11-15 16h29.20.683323 +0530,
110,0,111,n,1.5644832000034512,None,111,0,110,402.93462960000033,,,,,,,,,,,,,,,,,,,,,,,,,,,,,,,,,,,,,,,,,,,,,,,,,,402.9270581000019,402.93462960000033,403.44402390000323,403.4260576000015,403.4413796000008,403.44402390000323,403.44402390000323,403.44402390000323,405.0161638999998,Objects\033b.jpg,post,n,1.5644832000034512,None,,,,,,,,00026,001,2025-11-15_16h29.12.970,MST_test,2024.2.0,99.94213350910512,2025-11-15 16h29.20.683323 +0530,
111,0,112,n,0.9975859999976819,None,112,0,111,405.024496500002,,,,,,,,,,,,,,,,,,,,,,,,,,,,,,,,,,,,,,,,,,,,,,,,,,405.0163844999988,405.024496500002,405.5384978000002,405.5158675999992,405.5355576000002,405.5384978000002,405.5384978000002,405.5384978000002,406.5459856000016,Scenes\093b.jpg,pre,n,0.9975859999976819,None,,,,,,,,00026,001,2025-11-15_16h29.12.970,MST_test,2024.2.0,99.94213350910512,2025-11-15 16h29.20.683323 +0530,
112,0,113,n,0.9142266999988351,None,113,0,112,406.5542160000041,,,,,,,,,,,,,,,,,,,,,,,,,,,,,,,,,,,,,,,,,,,,,,,,,,406.5462792000035,406.5542160000041,407.0624719999978,407.04561860000103,407.0596078000017,407.0624719999978,407.0624719999978,407.0624719999978,407.9856082999977,Foils\009a.jpg,none,n,0.9142266999988351,None,,,,,,,,00026,001,2025-11-15_16h29.12.970,MST_test,2024.2.0,99.94213350910512,2025-11-15 16h29.20.683323 +0530,
113,0,114,n,2.687258500001917,None,114,0,113,407.99402060000284,,,,,,,,,,,,,,,,,,,,,,,,,,,,,,,,,,,,,,,,,,,,,,,,,,407.98584900000424,407.99402060000284,408.769269000004,408.484790100003,408.76284339999984,408.769269000004,408.769269000004,408.769269000004,411.46532170000137,Foils\scenes26.jpg,none,n,2.687258500001917,None,,,,,,,,00026,001,2025-11-15_16h29.12.970,MST_test,2024.2.0,99.94213350910512,2025-11-15 16h29.20.683323 +0530,
114,0,115,s,1.196402900000976,None,115,0,114,411.47357740000007,,,,,,,,,,,,,,,,,,,,,,,,,,,,,,,,,,,,,,,,,,,,,,,,,,411.46554760000436,411.47357740000007,412.0120113000012,411.96443150000414,412.009490299999,412.0120113000012,412.0120113000012,412.0120113000012,413.2147772000026,Scenes\053a.jpg,post,s,1.196402900000976,None,,,,,,,,00026,001,2025-11-15_16h29.12.970,MST_test,2024.2.0,99.94213350910512,2025-11-15 16h29.20.683323 +0530,
115,0,116,s,1.1988079000002472,None,116,0,115,413.2233464000019,,,,,,,,,,,,,,,,,,,,,,,,,,,,,,,,,,,,,,,,,,,,,,,,,,413.2149972999978,413.2233464000019,413.7374579000025,413.7142046000008,413.7347254999986,413.7374579000025,413.7374579000025,413.7374579000025,414.94545250000374,Scenes\101a.jpg,pre,s,1.1988079000002472,None,,,,,,,,00026,001,2025-11-15_16h29.12.970,MST_test,2024.2.0,99.94213350910512,2025-11-15 16h29.20.683323 +0530,
116,0,117,n,2.38448800000333,None,117,0,116,414.9531530000022,,,,,,,,,,,,,,,,,,,,,,,,,,,,,,,,,,,,,,,,,,,,,,,,,,414.9457207000014,414.9531530000022,415.4638611000046,415.4439566000001,415.46090679999907,415.4638611000046,415.4638611000046,415.4638611000046,417.85415759999887,Scenes\179b.jpg,mid,n,2.38448800000333,None,,,,,,,,00026,001,2025-11-15_16h29.12.970,MST_test,2024.2.0,99.94213350910512,2025-11-15 16h29.20.683323 +0530,
117,0,118,o,1.2134274000054575,None,118,0,117,417.86280270000134,,,,,,,,,,,,,,,,,,,,,,,,,,,,,,,,,,,,,,,,,,,,,,,,,,417.85441100000025,417.86280270000134,418.3711622999981,418.3538306000046,418.36809180000273,418.3711622999981,418.3711622999981,418.3711622999981,419.5939006999979,Objects\144a.jpg,pre,o,1.2134274000054575,None,,,,,,,,00026,001,2025-11-15_16h29.12.970,MST_test,2024.2.0,99.94213350910512,2025-11-15 16h29.20.683323 +0530,
118,0,119,o,0.8599491000059061,None,119,0,118,419.60256169999775,,,,,,,,,,,,,,,,,,,,,,,,,,,,,,,,,,,,,,,,,,,,,,,,,,419.59411949999776,419.60256169999775,420.1092220999999,420.0933268000008,420.1067650000041,420.1092220999999,420.1092220999999,420.1092220999999,420.97400120000384,Objects\046a.jpg,post,o,0.8599491000059061,None,,,,,,,,00026,001,2025-11-15_16h29.12.970,MST_test,2024.2.0,99.94213350910512,2025-11-15 16h29.20.683323 +0530,
119,0,120,o,1.0949800000016694,None,120,0,119,420.9826469000036,,,,,,,,,,,,,,,,,,,,,,,,,,,,,,,,,,,,,,,,,,,,,,,,,,420.97426950000226,420.9826469000036,421.48941860000195,421.4732692000034,421.4869422999982,421.48941860000195,421.48941860000195,421.48941860000195,422.593475200003,Objects\120a.jpg,pre,o,1.0949800000016694,None,,,,,,,,00026,001,2025-11-15_16h29.12.970,MST_test,2024.2.0,99.94213350910512,2025-11-15 16h29.20.683323 +0530,
120,0,121,n,1.619822100001329,None,121,0,120,422.60221920000185,,,,,,,,,,,,,,,,,,,,,,,,,,,,,,,,,,,,,,,,,,,,,,,,,,422.59367190000194,422.60221920000185,423.10886530000425,423.0932909999974,423.1064249999981,423.10886530000425,423.10886530000425,423.10886530000425,424.7337791000027,Foils\082a.jpg,none,n,1.619822100001329,None,,,,,,,,00026,001,2025-11-15_16h29.12.970,MST_test,2024.2.0,99.94213350910512,2025-11-15 16h29.20.683323 +0530,
121,0,122,s,3.0139914999963366,None,122,0,121,424.7418958999988,,,,,,,,,,,,,,,,,,,,,,,,,,,,,,,,,,,,,,,,,,,,,,,,,,424.73402960000385,424.7418958999988,425.25844289999804,425.23303200000373,425.25550739999744,425.25844289999804,425.25844289999804,425.25844289999804,428.2738610000015,Scenes\094a.jpg,mid,s,3.0139914999963366,None,,,,,,,,00026,001,2025-11-15_16h29.12.970,MST_test,2024.2.0,99.94213350910512,2025-11-15 16h29.20.683323 +0530,
122,0,123,o,2.2257564999963506,None,123,0,122,428.28161949999776,,,,,,,,,,,,,,,,,,,,,,,,,,,,,,,,,,,,,,,,,,,,,,,,,,428.27408860000287,428.28161949999776,428.7911164000034,428.772767399998,428.7880871000016,428.7911164000034,428.7911164000034,428.7911164000034,431.02349200000026,Objects\182a.jpg,pre,o,2.2257564999963506,None,,,,,,,,00026,001,2025-11-15_16h29.12.970,MST_test,2024.2.0,99.94213350910512,2025-11-15 16h29.20.683323 +0530,
123,0,124,n,1.3670015999960015,None,124,0,123,431.0312427000026,,,,,,,,,,,,,,,,,,,,,,,,,,,,,,,,,,,,,,,,,,,,,,,,,,431.0238188000003,431.0312427000026,431.5379251999984,431.5224509000036,431.53556519999984,431.5379251999984,431.5379251999984,431.5379251999984,432.9130424000032,Foils\020b.jpg,none,n,1.3670015999960015,None,,,,,,,,00026,001,2025-11-15_16h29.12.970,MST_test,2024.2.0,99.94213350910512,2025-11-15 16h29.20.683323 +0530,
124,0,125,o,3.9741492999964976,None,125,0,124,432.92095880000124,,,,,,,,,,,,,,,,,,,,,,,,,,,,,,,,,,,,,,,,,,,,,,,,,,432.91334939999797,432.92095880000124,433.4347168000022,433.4117306000044,433.4317821000004,433.4347168000022,433.4347168000022,433.4347168000022,437.4123869000032,Scenes\189a.jpg,pre,o,3.9741492999964976,None,,,,,,,,00026,001,2025-11-15_16h29.12.970,MST_test,2024.2.0,99.94213350910512,2025-11-15 16h29.20.683323 +0530,
125,0,126,n,1.1240757999985362,None,126,0,125,437.4203454000017,,,,,,,,,,,,,,,,,,,,,,,,,,,,,,,,,,,,,,,,,,,,,,,,,,437.41268649999984,437.4203454000017,437.93204590000096,437.9114361000029,437.92901880000136,437.93204590000096,437.93204590000096,437.93204590000096,439.061475399998,Objects\174b.jpg,post,n,1.1240757999985362,None,,,,,,,,00026,001,2025-11-15_16h29.12.970,MST_test,2024.2.0,99.94213350910512,2025-11-15 16h29.20.683323 +0530,
126,0,127,o,1.6639589999977034,None,127,0,126,439.070048900001,,,,,,,,,,,,,,,,,,,,,,,,,,,,,,,,,,,,,,,,,,,,,,,,,,439.0616758000033,439.070048900001,439.5844670000006,439.5610381000006,439.5813602999988,439.5844670000006,439.5844670000006,439.5844670000006,441.25199789999897,Scenes\021a.jpg,post,o,1.6639589999977034,None,,,,,,,,00026,001,2025-11-15_16h29.12.970,MST_test,2024.2.0,99.94213350910512,2025-11-15 16h29.20.683323 +0530,
127,0,128,o,3.2936079999999492,None,128,0,127,441.2599571000028,,,,,,,,,,,,,,,,,,,,,,,,,,,,,,,,,,,,,,,,,,,,,,,,,,441.25237310000375,441.2599571000028,441.7705485999977,441.7511500000037,441.7676625000022,441.7705485999977,441.7705485999977,441.7705485999977,445.07174959999975,Objects\099a.jpg,mid,o,3.2936079999999492,None,,,,,,,,00026,001,2025-11-15_16h29.12.970,MST_test,2024.2.0,99.94213350910512,2025-11-15 16h29.20.683323 +0530,
128,0,129,n,2.3629776000016136,None,129,0,128,445.0794773000016,,,,,,,,,,,,,,,,,,,,,,,,,,,,,,,,,,,,,,,,,,,,,,,,,,445.07209590000275,445.0794773000016,445.5972941,445.5705971999996,445.5942914000043,445.5972941,445.5972941,445.5972941,447.97078129999863,Scenes\011b.jpg,mid,n,2.3629776000016136,None,,,,,,,,00026,001,2025-11-15_16h29.12.970,MST_test,2024.2.0,99.94213350910512,2025-11-15 16h29.20.683323 +0530,
129,0,130,s,1.962889999995241,None,130,0,129,447.97919560000446,,,,,,,,,,,,,,,,,,,,,,,,,,,,,,,,,,,,,,,,,,,,,,,,,,447.9710264000023,447.97919560000446,448.4854217000029,448.47003390000464,448.4825323000041,448.4854217000029,448.4854217000029,448.4854217000029,450.45028670000465,Objects\132b.jpg,pre,s,1.962889999995241,None,,,,,,,,00026,001,2025-11-15_16h29.12.970,MST_test,2024.2.0,99.94213350910512,2025-11-15 16h29.20.683323 +0530,
130,0,131,o,4.345051100004639,None,131,0,130,450.45861819999845,,,,,,,,,,,,,,,,,,,,,,,,,,,,,,,,,,,,,,,,,,,,,,,,,,450.45053960000223,450.45861819999845,450.96732399999746,450.949944699998,450.96443290000025,450.96732399999746,450.96732399999746,450.96732399999746,455.3200796000019,Scenes\022a.jpg,post,o,4.345051100004639,None,,,,,,,,00026,001,2025-11-15_16h29.12.970,MST_test,2024.2.0,99.94213350910512,2025-11-15 16h29.20.683323 +0530,
131,0,132,o,3.1244934999995166,None,132,0,131,455.3282373000038,,,,,,,,,,,,,,,,,,,,,,,,,,,,,,,,,,,,,,,,,,,,,,,,,,455.3203895999977,455.3282373000038,455.84384339999815,455.8193011999974,455.8406785999978,455.84384339999815,455.84384339999815,455.84384339999815,458.9696608000013,Scenes\025a.jpg,mid,o,3.1244934999995166,None,,,,,,,,00026,001,2025-11-15_16h29.12.970,MST_test,2024.2.0,99.94213350910512,2025-11-15 16h29.20.683323 +0530,
132,0,133,s,1.9308200999948895,None,133,0,132,458.977593399999,,,,,,,,,,,,,,,,,,,,,,,,,,,,,,,,,,,,,,,,,,,,,,,,,,458.96991290000005,458.977593399999,459.4855702999994,459.46822370000154,459.48227849999967,459.4855702999994,459.4855702999994,459.4855702999994,461.4194676000043,Scenes\163a.jpg,pre,s,1.9308200999948895,None,,,,,,,,00026,001,2025-11-15_16h29.12.970,MST_test,2024.2.0,99.94213350910512,2025-11-15 16h29.20.683323 +0530,
133,0,134,s,2.6194089999989956,None,134,0,133,461.42728630000056,,,,,,,,,,,,,,,,,,,,,,,,,,,,,,,,,,,,,,,,,,,,,,,,,,461.41972050000186,461.42728630000056,461.94094990000303,461.9181738999978,461.93792440000107,461.94094990000303,461.94094990000303,461.94094990000303,464.568408500003,Scenes\092b.jpg,pre,s,2.6194089999989956,None,,,,,,,,00026,001,2025-11-15_16h29.12.970,MST_test,2024.2.0,99.94213350910512,2025-11-15 16h29.20.683323 +0530,
134,0,135,n,1.4964972999950987,None,135,0,134,464.57688739999867,,,,,,,,,,,,,,,,,,,,,,,,,,,,,,,,,,,,,,,,,,,,,,,,,,464.5686449999994,464.57688739999867,465.08802090000245,465.06778150000173,465.0849356000035,465.08802090000245,465.08802090000245,465.08802090000245,466.5880751000004,Scenes\153a.jpg,mid,n,1.4964972999950987,None,,,,,,,,00026,001,2025-11-15_16h29.12.970,MST_test,2024.2.0,99.94213350910512,2025-11-15 16h29.20.683323 +0530,
135,0,136,n,1.943065799998294,None,136,0,135,466.59661510000296,,,,,,,,,,,,,,,,,,,,,,,,,,,,,,,,,,,,,,,,,,,,,,,,,,466.58828670000366,466.59661510000296,467.1050380000015,467.0880113000021,467.1021297000043,467.1050380000015,467.1050380000015,467.1050380000015,469.05777240000316,Objects\034a.jpg,post,n,1.943065799998294,None,,,,,,,,00026,001,2025-11-15_16h29.12.970,MST_test,2024.2.0,99.94213350910512,2025-11-15 16h29.20.683323 +0530,
136,0,137,n,0.9170174000028055,None,137,0,136,469.0663593999998,,,,,,,,,,,,,,,,,,,,,,,,,,,,,,,,,,,,,,,,,,,,,,,,,,469.05799520000437,469.0663593999998,469.57116490000044,469.55711580000207,469.56894230000034,469.57116490000044,469.57116490000044,469.57116490000044,470.49755800000275,Foils\106a.jpg,none,n,0.9170174000028055,None,,,,,,,,00026,001,2025-11-15_16h29.12.970,MST_test,2024.2.0,99.94213350910512,2025-11-15 16h29.20.683323 +0530,
137,0,138,n,0.7703112000017427,None,138,0,137,470.5061941000022,,,,,,,,,,,,,,,,,,,,,,,,,,,,,,,,,,,,,,,,,,,,,,,,,,470.49775840000075,470.5061941000022,471.01462580000225,470.99717419999797,471.0119562000036,471.01462580000225,471.01462580000225,471.01462580000225,471.7875697999989,Objects\085b.jpg,post,n,0.7703112000017427,None,,,,,,,,00026,001,2025-11-15_16h29.12.970,MST_test,2024.2.0,99.94213350910512,2025-11-15 16h29.20.683323 +0530,
138,0,139,s,1.4184313000005204,None,139,0,138,471.7960811000012,,,,,,,,,,,,,,,,,,,,,,,,,,,,,,,,,,,,,,,,,,,,,,,,,,471.78780240000196,471.7960811000012,472.30165410000336,472.28613130000303,472.2989061000044,472.30165410000336,472.30165410000336,472.30165410000336,473.7269312999997,Scenes\051a.jpg,pre,s,1.4184313000005204,None,,,,,,,,00026,001,2025-11-15_16h29.12.970,MST_test,2024.2.0,99.94213350910512,2025-11-15 16h29.20.683323 +0530,
139,0,140,o,2.254095199998119,None,140,0,139,473.73590780000086,,,,,,,,,,,,,,,,,,,,,,,,,,,,,,,,,,,,,,,,,,,,,,,,,,473.72704550000344,473.73590780000086,474.24248069999885,474.22675739999977,474.2396461000026,474.24248069999885,474.24248069999885,474.24248069999885,476.50668170000426,Objects\008a.jpg,mid,o,2.254095199998119,None,,,,,,,,00026,001,2025-11-15_16h29.12.970,MST_test,2024.2.0,99.94213350910512,2025-11-15 16h29.20.683323 +0530,
140,0,141,s,2.4314465999996173,None,141,0,140,476.5155315000011,,,,,,,,,,,,,,,,,,,,,,,,,,,,,,,,,,,,,,,,,,,,,,,,,,476.5068772000013,476.5155315000011,477.02545380000083,477.0054667000004,477.02221609999833,477.02545380000083,477.02545380000083,477.02545380000083,479.4664674000014,Scenes\071a.jpg,post,s,2.4314465999996173,None,,,,,,,,00026,001,2025-11-15_16h29.12.970,MST_test,2024.2.0,99.94213350910512,2025-11-15 16h29.20.683323 +0530,
141,0,142,n,1.3058339999988675,None,142,0,141,479.4750380999976,,,,,,,,,,,,,,,,,,,,,,,,,,,,,,,,,,,,,,,,,,,,,,,,,,479.46669349999866,479.4750380999976,479.98315800000273,479.9661324000044,479.98004370000126,479.98315800000273,479.98315800000273,479.98315800000273,481.2966809999998,Objects\031b.jpg,post,n,1.3058339999988675,None,,,,,,,,00026,001,2025-11-15_16h29.12.970,MST_test,2024.2.0,99.94213350910512,2025-11-15 16h29.20.683323 +0530,
142,0,143,n,0.8315562999996473,None,143,0,142,481.30476179999823,,,,,,,,,,,,,,,,,,,,,,,,,,,,,,,,,,,,,,,,,,,,,,,,,,481.29692810000415,481.30476179999823,481.82515799999965,481.7961710000018,481.8219559999998,481.82515799999965,481.82515799999965,481.82515799999965,482.66628740000306,Foils\scenes28.jpg,none,n,0.8315562999996473,None,,,,,,,,00026,001,2025-11-15_16h29.12.970,MST_test,2024.2.0,99.94213350910512,2025-11-15 16h29.20.683323 +0530,
143,0,144,n,0.9620924000046216,None,144,0,143,482.6747247000021,,,,,,,,,,,,,,,,,,,,,,,,,,,,,,,,,,,,,,,,,,,,,,,,,,482.66652640000393,482.6747247000021,483.18212230000063,483.16561809999985,483.1786559000029,483.18212230000063,483.18212230000063,483.18212230000063,484.1461732000025,Foils\scenes4.jpg,none,n,0.9620924000046216,None,,,,,,,,00026,001,2025-11-15_16h29.12.970,MST_test,2024.2.0,99.94213350910512,2025-11-15 16h29.20.683323 +0530,
144,0,145,s,5.187667699996382,None,145,0,144,484.15434559999994,,,,,,,,,,,,,,,,,,,,,,,,,,,,,,,,,,,,,,,,,,,,,,,,,,484.146361799998,484.15434559999994,484.66047000000253,484.6452991999977,484.65795549999893,484.66047000000253,484.66047000000253,484.66047000000253,489.8552075999978,Objects\166b.jpg,mid,s,5.187667699996382,None,,,,,,,,00026,001,2025-11-15_16h29.12.970,MST_test,2024.2.0,99.94213350910512,2025-11-15 16h29.20.683323 +0530,
145,0,146,n,1.3813901000030455,None,146,0,145,489.863715200001,,,,,,,,,,,,,,,,,,,,,,,,,,,,,,,,,,,,,,,,,,,,,,,,,,489.8554640000002,489.863715200001,490.37123730000167,490.35462630000256,490.36884719999944,490.37123730000167,490.37123730000167,490.37123730000167,491.7553917999976,Objects\137b.jpg,mid,n,1.3813901000030455,None,,,,,,,,00026,001,2025-11-15_16h29.12.970,MST_test,2024.2.0,99.94213350910512,2025-11-15 16h29.20.683323 +0530,
146,0,147,n,2.255635599998641,None,147,0,146,491.7634754000028,,,,,,,,,,,,,,,,,,,,,,,,,,,,,,,,,,,,,,,,,,,,,,,,,,491.7556381000031,491.7634754000028,492.2731610000046,492.25476770000387,492.27072939999925,492.2731610000046,492.2731610000046,492.2731610000046,494.5347011999984,Objects\145a.jpg,mid,n,2.255635599998641,None,,,,,,,,00026,001,2025-11-15_16h29.12.970,MST_test,2024.2.0,99.94213350910512,2025-11-15 16h29.20.683323 +0530,
147,0,148,o,1.5718784000055166,None,148,0,147,494.54310370000167,,,,,,,,,,,,,,,,,,,,,,,,,,,,,,,,,,,,,,,,,,,,,,,,,,494.5349558000016,494.54310370000167,495.0609547999993,495.0343436999974,495.0580326999989,495.0609547999993,495.0609547999993,495.0609547999993,496.63491310000245,Scenes\070b.jpg,mid,o,1.5718784000055166,None,,,,,,,,00026,001,2025-11-15_16h29.12.970,MST_test,2024.2.0,99.94213350910512,2025-11-15 16h29.20.683323 +0530,
148,0,149,s,1.3617521000051056,None,149,0,148,496.64300870000443,,,,,,,,,,,,,,,,,,,,,,,,,,,,,,,,,,,,,,,,,,,,,,,,,,496.63519200000155,496.64300870000443,497.15036710000277,497.13381110000046,497.1471762000001,497.15036710000277,497.15036710000277,497.15036710000277,498.5145687999975,Objects\133b.jpg,pre,s,1.3617521000051056,None,,,,,,,,00026,001,2025-11-15_16h29.12.970,MST_test,2024.2.0,99.94213350910512,2025-11-15 16h29.20.683323 +0530,
149,0,150,s,3.8273778000002494,None,150,0,149,498.5225617000033,,,,,,,,,,,,,,,,,,,,,,,,,,,,,,,,,,,,,,,,,,,,,,,,,,498.5148236000023,498.5225617000033,499.0369783999995,499.01350300000195,499.03398860000016,499.0369783999995,499.0369783999995,499.0369783999995,502.8738391000006,Scenes\080b.jpg,post,s,3.8273778000002494,None,,,,,,,,00026,001,2025-11-15_16h29.12.970,MST_test,2024.2.0,99.94213350910512,2025-11-15 16h29.20.683323 +0530,
,,,,,,,,,,,,,,,,,,,,,,,,,,,,,,,,,,,,,,,,,,,,,,,,,,,,,,,,,,,,,,,,,,,,,,,,,502.8739931000018,502.88224930000433,502.88224930000433,505.0734778000042,space,2.181793600000674,None,00026,001,2025-11-15_16h29.12.970,MST_test,2024.2.0,99.94213350910512,2025-11-15 16h29.20.683323 +0530,
