thisN,thisTrialN,thisRepN,key_resp_3.keys,key_resp_3.rt,key_resp_3.duration,trials.thisRepN,trials.thisTrialN,trials.thisN,trials.thisIndex,thisRow.t,notes,intro_page.started,text.started,key_resp.started,intro_page.stopped,key_resp.keys,key_resp.rt,key_resp.duration,instructions.started,text_2.started,key_resp_2.started,instructions.stopped,key_resp_2.keys,key_resp_2.rt,key_resp_2.duration,demo1.started,image_1.started,image_2.started,text_7.started,key_resp_6.started,text_9.started,demo1.stopped,key_resp_6.keys,key_resp_6.rt,key_resp_6.duration,demo2.started,image_5.started,image_6.started,text_11.started,text_12.started,key_resp_8.started,demo2.stopped,key_resp_8.keys,key_resp_8.rt,key_resp_8.duration,demo_conclusion.started,text_13.started,key_resp_9.started,demo_conclusion.stopped,key_resp_9.keys,key_resp_9.rt,key_resp_9.duration,start_test.started,text_6.started,key_resp_5.started,start_test.stopped,key_resp_5.keys,key_resp_5.rt,key_resp_5.duration,ISI.started,text_4.started,text_4.stopped,ISI.stopped,routine_1.started,image.started,text_3.started,key_resp_3.started,routine_1.stopped,image_path,position_of_stimuli,trials.key_resp_3.keys,trials.key_resp_3.rt,trials.key_resp_3.duration,End_page.started,text_5.started,key_resp_4.started,End_page.stopped,key_resp_4.keys,key_resp_4.rt,key_resp_4.duration,participant,session,date,expName,psychopyVersion,frameRate,expStart,
,,,,,,,,,,,,0.014375899991136976,0.030781399997067638,0.030781399997067638,2.3991047000017716,space,2.3564721000002464,None,,,,,,,,,,,,,,,,,,,,,,,,,,,,,,,,,,,,,,,,,,,,,,,,,,,,,,,,,,,,,,,00020,001,2025-11-09_18h37.23.782,MST_test,2024.2.2,60.00218407692183,2025-11-09 18h37.29.494432 +0530,
,,,,,,,,,,,,,,,,,,,2.3991335999889998,2.414025899997796,2.414025899997796,24.697179999988293,space,22.27846159999899,None,,,,,,,,,,,,,,,,,,,,,,,,,,,,,,,,,,,,,,,,,,,,,,,,,,,,,,,,00020,001,2025-11-09_18h37.23.782,MST_test,2024.2.2,60.00218407692183,2025-11-09 18h37.29.494432 +0530,
,,,,,,,,,,,,,,,,,,,,,,,,,,24.69720260000031,24.713540099997772,24.713540099997772,24.713540099997772,24.713540099997772,24.713540099997772,31.347035400001914,space,6.617382700002054,None,,,,,,,,,,,,,,,,,,,,,,,,,,,,,,,,,,,,,,,,,,,,,,00020,001,2025-11-09_18h37.23.782,MST_test,2024.2.2,60.00218407692183,2025-11-09 18h37.29.494432 +0530,
,,,,,,,,,,,,,,,,,,,,,,,,,,,,,,,,,,,,31.34705959999701,31.36341339998762,31.36341339998762,31.36341339998762,31.36341339998762,31.36341339998762,37.9968957999954,space,6.627887700000429,None,,,,,,,,,,,,,,,,,,,,,,,,,,,,,,,,,,,,00020,001,2025-11-09_18h37.23.782,MST_test,2024.2.2,60.00218407692183,2025-11-09 18h37.29.494432 +0530,
,,,,,,,,,,,,,,,,,,,,,,,,,,,,,,,,,,,,,,,,,,,,,,37.996917799988296,38.01327029999811,38.01327029999811,73.89619030000176,space,35.87531350000063,None,,,,,,,,,,,,,,,,,,,,,,,,,,,,,00020,001,2025-11-09_18h37.23.782,MST_test,2024.2.2,60.00218407692183,2025-11-09 18h37.29.494432 +0530,
,,,,,,,,,,,,,,,,,,,,,,,,,,,,,,,,,,,,,,,,,,,,,,,,,,,,,73.89622209999652,73.91253029998916,73.91253029998916,90.92919029999757,space,17.00473339999735,None,,,,,,,,,,,,,,,,,,,,,,00020,001,2025-11-09_18h37.23.782,MST_test,2024.2.2,60.00218407692183,2025-11-09 18h37.29.494432 +0530,
0,0,0,o,1.2956790000025649,None,0,0,0,0,90.9454507999908,,,,,,,,,,,,,,,,,,,,,,,,,,,,,,,,,,,,,,,,,,,,,,,,,,90.93224829999963,90.9454507999908,91.44517709998763,91.42899279999256,91.44127689999004,91.44517709998763,91.44517709998763,91.44517709998763,92.74572329998773,Scenes\039a.jpg,pre,o,1.2956790000025649,None,,,,,,,,00020,001,2025-11-09_18h37.23.782,MST_test,2024.2.2,60.00218407692183,2025-11-09 18h37.29.494432 +0530,
1,0,1,s,1.6498227999982191,None,1,0,1,0,92.76208699999552,,,,,,,,,,,,,,,,,,,,,,,,,,,,,,,,,,,,,,,,,,,,,,,,,,92.74580619999324,92.76208699999552,93.2787360999937,93.24568439999712,93.25783479999518,93.2787360999937,93.2787360999937,93.2787360999937,94.929071999999,Scenes\187a.jpg,mid,s,1.6498227999982191,None,,,,,,,,00020,001,2025-11-09_18h37.23.782,MST_test,2024.2.2,60.00218407692183,2025-11-09 18h37.29.494432 +0530,
2,0,2,n,2.2788113999995403,None,2,0,2,0,94.94537849999324,,,,,,,,,,,,,,,,,,,,,,,,,,,,,,,,,,,,,,,,,,,,,,,,,,94.9291583999875,94.94537849999324,95.44549069998902,95.42883599999186,95.43629879999207,95.44549069998902,95.44549069998902,95.44549069998902,97.72897899999225,Foils\scenes3.jpg,none,n,2.2788113999995403,None,,,,,,,,00020,001,2025-11-09_18h37.23.782,MST_test,2024.2.2,60.00218407692183,2025-11-09 18h37.29.494432 +0530,
3,0,3,o,2.0888996999856317,None,3,0,3,0,97.74531759999809,,,,,,,,,,,,,,,,,,,,,,,,,,,,,,,,,,,,,,,,,,,,,,,,,,97.72906810000131,97.74531759999809,98.2619643999933,98.22878539998783,98.2415459999902,98.2619643999933,98.2619643999933,98.2619643999933,100.36228390000178,Scenes\058a.jpg,mid,o,2.0888996999856317,None,,,,,,,,00020,001,2025-11-09_18h37.23.782,MST_test,2024.2.2,60.00218407692183,2025-11-09 18h37.29.494432 +0530,
4,0,4,s,2.438045400005649,None,4,0,4,0,100.37858189998951,,,,,,,,,,,,,,,,,,,,,,,,,,,,,,,,,,,,,,,,,,,,,,,,,,100.3623721999902,100.37858189998951,100.89483589999145,100.86217609999585,100.8894380999991,100.89483589999145,100.89483589999145,100.89483589999145,103.34552769998845,Scenes\132b.jpg,pre,s,2.438045400005649,None,,,,,,,,00020,001,2025-11-09_18h37.23.782,MST_test,2024.2.2,60.00218407692183,2025-11-09 18h37.29.494432 +0530,
5,0,5,s,3.512279500006116,None,5,0,5,0,103.3618509999942,,,,,,,,,,,,,,,,,,,,,,,,,,,,,,,,,,,,,,,,,,,,,,,,,,103.3456065999926,103.3618509999942,103.87872769999376,103.84545139998954,103.8576175999915,103.87872769999376,103.87872769999376,103.87872769999376,107.39535959999193,Scenes\065a.jpg,post,s,3.512279500006116,None,,,,,,,,00020,001,2025-11-09_18h37.23.782,MST_test,2024.2.2,60.00218407692183,2025-11-09 18h37.29.494432 +0530,
6,0,6,o,1.462601800012635,None,6,0,6,0,107.41176550000091,,,,,,,,,,,,,,,,,,,,,,,,,,,,,,,,,,,,,,,,,,,,,,,,,,107.39543959998991,107.41176550000091,107.92845369999122,107.89524430000165,107.90846710000187,107.92845369999122,107.92845369999122,107.92845369999122,109.39546739999787,Scenes\029a.jpg,post,o,1.462601800012635,None,,,,,,,,00020,001,2025-11-09_18h37.23.782,MST_test,2024.2.2,60.00218407692183,2025-11-09 18h37.29.494432 +0530,
7,0,7,n,3.511974100008956,None,7,0,7,0,109.41171489999397,,,,,,,,,,,,,,,,,,,,,,,,,,,,,,,,,,,,,,,,,,,,,,,,,,109.39555219998874,109.41171489999397,109.92866399999184,109.89531139998871,109.9118940999906,109.92866399999184,109.92866399999184,109.92866399999184,113.44535069999984,Foils\002a.jpg,none,n,3.511974100008956,None,,,,,,,,00020,001,2025-11-09_18h37.23.782,MST_test,2024.2.2,60.00218407692183,2025-11-09 18h37.29.494432 +0530,
8,0,8,n,3.5378089000005275,None,8,0,8,0,113.46163309999974,,,,,,,,,,,,,,,,,,,,,,,,,,,,,,,,,,,,,,,,,,,,,,,,,,113.44543500000145,113.46163309999974,113.961206699998,113.94514999999956,113.95556649999344,113.961206699998,113.961206699998,113.961206699998,117.51178399998753,Scenes\028a.jpg,post,n,3.5378089000005275,None,,,,,,,,00020,001,2025-11-09_18h37.23.782,MST_test,2024.2.2,60.00218407692183,2025-11-09 18h37.29.494432 +0530,
9,0,9,o,1.4849530000064988,None,9,0,9,0,117.52821169998788,,,,,,,,,,,,,,,,,,,,,,,,,,,,,,,,,,,,,,,,,,,,,,,,,,117.51186249998864,117.52821169998788,118.02817999999388,118.011734899992,118.02257069999177,118.02817999999388,118.02817999999388,118.02817999999388,119.52855519999866,Objects\081a.jpg,post,o,1.4849530000064988,None,,,,,,,,00020,001,2025-11-09_18h37.23.782,MST_test,2024.2.2,60.00218407692183,2025-11-09 18h37.29.494432 +0530,
10,0,10,s,2.0787389999895822,None,10,0,10,0,119.54480489999696,,,,,,,,,,,,,,,,,,,,,,,,,,,,,,,,,,,,,,,,,,,,,,,,,,119.52863590000197,119.54480489999696,120.06175839999923,120.02833770000143,120.0470828999969,120.06175839999923,120.06175839999923,120.06175839999923,122.14516719999665,Scenes\095b.jpg,post,s,2.0787389999895822,None,,,,,,,,00020,001,2025-11-09_18h37.23.782,MST_test,2024.2.2,60.00218407692183,2025-11-09 18h37.29.494432 +0530,
11,0,11,s,2.3237243999901693,None,11,0,11,0,122.16141129999596,,,,,,,,,,,,,,,,,,,,,,,,,,,,,,,,,,,,,,,,,,,,,,,,,,122.14524929999607,122.16141129999596,122.66142799999216,122.64501029999519,122.65494729999045,122.66142799999216,122.66142799999216,122.66142799999216,124.99511559998791,Objects\032a.jpg,pre,s,2.3237243999901693,None,,,,,,,,00020,001,2025-11-09_18h37.23.782,MST_test,2024.2.2,60.00218407692183,2025-11-09 18h37.29.494432 +0530,
12,0,12,s,4.248646399995778,None,12,0,12,0,125.01141009999264,,,,,,,,,,,,,,,,,,,,,,,,,,,,,,,,,,,,,,,,,,,,,,,,,,124.99519770000188,125.01141009999264,125.5282523999922,125.49489599998924,125.51219639999908,125.5282523999922,125.5282523999922,125.5282523999922,129.77835049999703,Scenes\026a.jpg,post,s,4.248646399995778,None,,,,,,,,00020,001,2025-11-09_18h37.23.782,MST_test,2024.2.2,60.00218407692183,2025-11-09 18h37.29.494432 +0530,
13,0,13,o,1.0843201999960002,None,13,0,13,0,129.7946149999916,,,,,,,,,,,,,,,,,,,,,,,,,,,,,,,,,,,,,,,,,,,,,,,,,,129.7784427000006,129.7946149999916,130.29461539999465,130.27824499999406,130.28815789999499,130.29461539999465,130.29461539999465,130.29461539999465,131.3949447999912,Objects\129a.jpg,post,o,1.0843201999960002,None,,,,,,,,00020,001,2025-11-09_18h37.23.782,MST_test,2024.2.2,60.00218407692183,2025-11-09 18h37.29.494432 +0530,
14,0,14,o,0.7151682999974582,None,14,0,14,0,131.41124399998807,,,,,,,,,,,,,,,,,,,,,,,,,,,,,,,,,,,,,,,,,,,,,,,,,,131.39504499999748,131.41124399998807,131.91125479999755,131.89485769999737,131.9047913999966,131.91125479999755,131.91125479999755,131.91125479999755,132.62831869999354,Objects\071a.jpg,pre,o,0.7151682999974582,None,,,,,,,,00020,001,2025-11-09_18h37.23.782,MST_test,2024.2.2,60.00218407692183,2025-11-09 18h37.29.494432 +0530,
15,0,15,n,1.2996814999933122,None,15,0,15,0,132.6445429999876,,,,,,,,,,,,,,,,,,,,,,,,,,,,,,,,,,,,,,,,,,,,,,,,,,132.6284028999944,132.6445429999876,133.16151399999217,133.1280770000012,133.14133109999239,133.16151399999217,133.16151399999217,133.16151399999217,134.46153159999812,Scenes\081a.jpg,mid,n,1.2996814999933122,None,,,,,,,,00020,001,2025-11-09_18h37.23.782,MST_test,2024.2.2,60.00218407692183,2025-11-09 18h37.29.494432 +0530,
16,0,16,s,3.498639900004491,None,16,0,16,0,134.47792939998908,,,,,,,,,,,,,,,,,,,,,,,,,,,,,,,,,,,,,,,,,,,,,,,,,,134.46162000000186,134.47792939998908,134.99446709999756,134.96138179999252,134.98589379999612,134.99446709999756,134.99446709999756,134.99446709999756,138.49484129999473,Scenes\094b.jpg,mid,s,3.498639900004491,None,,,,,,,,00020,001,2025-11-09_18h37.23.782,MST_test,2024.2.2,60.00218407692183,2025-11-09 18h37.29.494432 +0530,
17,0,17,n,1.9058051000029081,None,17,0,17,0,138.51109289999295,,,,,,,,,,,,,,,,,,,,,,,,,,,,,,,,,,,,,,,,,,,,,,,,,,138.49492189999728,138.51109289999295,139.01132069999585,138.99467829999048,139.00031709999894,139.01132069999585,139.01132069999585,139.01132069999585,140.92811009999423,Foils\scenes17.jpg,none,n,1.9058051000029081,None,,,,,,,,00020,001,2025-11-09_18h37.23.782,MST_test,2024.2.2,60.00218407692183,2025-11-09 18h37.29.494432 +0530,
18,0,18,o,1.3380394999985583,None,18,0,18,0,140.9443925999949,,,,,,,,,,,,,,,,,,,,,,,,,,,,,,,,,,,,,,,,,,,,,,,,,,140.92819239999517,140.9443925999949,141.44452679999813,141.42787339999632,141.4376687999902,141.44452679999813,141.44452679999813,141.44452679999813,142.79468439999619,Objects\057a.jpg,pre,o,1.3380394999985583,None,,,,,,,,00020,001,2025-11-09_18h37.23.782,MST_test,2024.2.2,60.00218407692183,2025-11-09 18h37.29.494432 +0530,
19,0,19,o,0.8975849999987986,None,19,0,19,0,142.81105789999128,,,,,,,,,,,,,,,,,,,,,,,,,,,,,,,,,,,,,,,,,,,,,,,,,,142.79476839999552,142.81105789999128,143.3276707999903,143.2945958999917,143.3228795999894,143.3276707999903,143.3276707999903,143.3276707999903,144.2279872999934,Objects\162b.jpg,pre,o,0.8975849999987986,None,,,,,,,,00020,001,2025-11-09_18h37.23.782,MST_test,2024.2.2,60.00218407692183,2025-11-09 18h37.29.494432 +0530,
20,0,20,s,1.7754825000010896,None,20,0,20,0,144.244306099994,,,,,,,,,,,,,,,,,,,,,,,,,,,,,,,,,,,,,,,,,,,,,,,,,,144.22806449999916,144.244306099994,144.76097439999285,144.7278462999966,144.7390325999877,144.76097439999285,144.76097439999285,144.76097439999285,146.5445456999878,Scenes\162a.jpg,mid,s,1.7754825000010896,None,,,,,,,,00020,001,2025-11-09_18h37.23.782,MST_test,2024.2.2,60.00218407692183,2025-11-09 18h37.29.494432 +0530,
21,0,21,s,1.7393023000040557,None,21,0,21,0,146.56097529998806,,,,,,,,,,,,,,,,,,,,,,,,,,,,,,,,,,,,,,,,,,,,,,,,,,146.54462649999186,146.56097529998806,147.07771389999834,147.04441139999835,147.0637018999987,147.07771389999834,147.07771389999834,147.07771389999834,148.82776919999742,Scenes\142b.jpg,pre,s,1.7393023000040557,None,,,,,,,,00020,001,2025-11-09_18h37.23.782,MST_test,2024.2.2,60.00218407692183,2025-11-09 18h37.29.494432 +0530,
22,0,22,s,1.2471262000035495,None,22,0,22,0,148.84420149998914,,,,,,,,,,,,,,,,,,,,,,,,,,,,,,,,,,,,,,,,,,,,,,,,,,148.82784759999777,148.84420149998914,149.3774890999921,149.3276721000002,149.3608106999891,149.3774890999921,149.3774890999921,149.3774890999921,150.62776360000134,Scenes\003b.jpg,post,s,1.2471262000035495,None,,,,,,,,00020,001,2025-11-09_18h37.23.782,MST_test,2024.2.2,60.00218407692183,2025-11-09 18h37.29.494432 +0530,
23,0,23,n,1.2240187000134028,None,23,0,23,0,150.64414959998976,,,,,,,,,,,,,,,,,,,,,,,,,,,,,,,,,,,,,,,,,,,,,,,,,,150.62784010000178,150.64414959998976,151.14442869999039,151.12763409999025,151.13820999999007,151.14442869999039,151.14442869999039,151.14442869999039,152.37772479999694,Foils\090a.jpg,none,n,1.2240187000134028,None,,,,,,,,00020,001,2025-11-09_18h37.23.782,MST_test,2024.2.2,60.00218407692183,2025-11-09 18h37.29.494432 +0530,
24,0,24,o,2.0963134999910835,None,24,0,24,0,152.39409159999923,,,,,,,,,,,,,,,,,,,,,,,,,,,,,,,,,,,,,,,,,,,,,,,,,,152.37779829998908,152.39409159999923,152.89434600000095,152.87759679999726,152.88940229998843,152.89434600000095,152.89434600000095,152.89434600000095,154.9943998999952,Foils\scenes16.jpg,none,o,2.0963134999910835,None,,,,,,,,00020,001,2025-11-09_18h37.23.782,MST_test,2024.2.2,60.00218407692183,2025-11-09 18h37.29.494432 +0530,
25,0,25,s,3.62301949999528,None,25,0,25,0,155.01069659998757,,,,,,,,,,,,,,,,,,,,,,,,,,,,,,,,,,,,,,,,,,,,,,,,,,154.9944877999951,155.01069659998757,155.52759199999855,155.49415569999837,155.5112545000011,155.52759199999855,155.52759199999855,155.52759199999855,159.16096019999532,Scenes\009a.jpg,post,s,3.62301949999528,None,,,,,,,,00020,001,2025-11-09_18h37.23.782,MST_test,2024.2.2,60.00218407692183,2025-11-09 18h37.29.494432 +0530,
26,0,26,s,1.4782169999962207,None,26,0,26,0,159.17729609999515,,,,,,,,,,,,,,,,,,,,,,,,,,,,,,,,,,,,,,,,,,,,,,,,,,159.16105779999634,159.17729609999515,159.69395580000128,159.6608023000008,159.67667079999228,159.69395580000128,159.69395580000128,159.69395580000128,161.17756479998934,Objects\152b.jpg,mid,s,1.4782169999962207,None,,,,,,,,00020,001,2025-11-09_18h37.23.782,MST_test,2024.2.2,60.00218407692183,2025-11-09 18h37.29.494432 +0530,
27,0,27,s,1.324709199994686,None,27,0,27,0,161.19392209999205,,,,,,,,,,,,,,,,,,,,,,,,,,,,,,,,,,,,,,,,,,,,,,,,,,161.1776414999913,161.19392209999205,161.7105501999904,161.6774357999966,161.69274589999986,161.7105501999904,161.7105501999904,161.7105501999904,163.04428039999038,Objects\167b.jpg,pre,s,1.324709199994686,None,,,,,,,,00020,001,2025-11-09_18h37.23.782,MST_test,2024.2.2,60.00218407692183,2025-11-09 18h37.29.494432 +0530,
28,0,28,n,1.8675415000034263,None,28,0,28,0,163.06055609999748,,,,,,,,,,,,,,,,,,,,,,,,,,,,,,,,,,,,,,,,,,,,,,,,,,163.04436929999792,163.06055609999748,163.5773826999939,163.5440966999886,163.5670941999997,163.5773826999939,163.5773826999939,163.5773826999939,165.460863100001,Scenes\015b.jpg,mid,n,1.8675415000034263,None,,,,,,,,00020,001,2025-11-09_18h37.23.782,MST_test,2024.2.2,60.00218407692183,2025-11-09 18h37.29.494432 +0530,
29,0,29,o,1.4262040000030538,None,29,0,29,0,165.47719259999576,,,,,,,,,,,,,,,,,,,,,,,,,,,,,,,,,,,,,,,,,,,,,,,,,,165.4609433000005,165.47719259999576,165.99378179998894,165.96066279998922,165.98505089999526,165.99378179998894,165.99378179998894,165.99378179998894,167.42754669999704,Objects\171b.jpg,mid,o,1.4262040000030538,None,,,,,,,,00020,001,2025-11-09_18h37.23.782,MST_test,2024.2.2,60.00218407692183,2025-11-09 18h37.29.494432 +0530,
30,0,30,o,1.2166930000093998,None,30,0,30,0,167.44379779999144,,,,,,,,,,,,,,,,,,,,,,,,,,,,,,,,,,,,,,,,,,,,,,,,,,167.42763609999383,167.44379779999144,167.94482479999715,167.92737489999854,167.93707559999893,167.94482479999715,167.94482479999715,167.94482479999715,169.17749089999415,Objects\043a.jpg,pre,o,1.2166930000093998,None,,,,,,,,00020,001,2025-11-09_18h37.23.782,MST_test,2024.2.2,60.00218407692183,2025-11-09 18h37.29.494432 +0530,
31,0,31,s,0.6325240000005579,None,31,0,31,0,169.1937392999971,,,,,,,,,,,,,,,,,,,,,,,,,,,,,,,,,,,,,,,,,,,,,,,,,,169.1775798999879,169.1937392999971,169.7106492999883,169.67728249999345,169.6911728999985,169.7106492999883,169.7106492999883,169.7106492999883,170.3439975999936,Scenes\146a.jpg,mid,s,0.6325240000005579,None,,,,,,,,00020,001,2025-11-09_18h37.23.782,MST_test,2024.2.2,60.00218407692183,2025-11-09 18h37.29.494432 +0530,
32,0,32,o,0.9867604000028223,None,32,0,32,0,170.36038899999403,,,,,,,,,,,,,,,,,,,,,,,,,,,,,,,,,,,,,,,,,,,,,,,,,,170.34407449999708,170.36038899999403,170.87702099999296,170.84386660000018,170.86798549999367,170.87702099999296,170.87702099999296,170.87702099999296,171.87742160000198,Objects\068b.jpg,pre,o,0.9867604000028223,None,,,,,,,,00020,001,2025-11-09_18h37.23.782,MST_test,2024.2.2,60.00218407692183,2025-11-09 18h37.29.494432 +0530,
33,0,33,n,2.1787278999981936,None,33,0,33,0,171.89369499999157,,,,,,,,,,,,,,,,,,,,,,,,,,,,,,,,,,,,,,,,,,,,,,,,,,171.87750439999218,171.89369499999157,172.41034459999355,172.37717439999687,172.38854329999594,172.41034459999355,172.41034459999355,172.41034459999355,174.593947699992,Scenes\126a.jpg,post,n,2.1787278999981936,None,,,,,,,,00020,001,2025-11-09_18h37.23.782,MST_test,2024.2.2,60.00218407692183,2025-11-09 18h37.29.494432 +0530,
34,0,34,s,1.5745094000012614,None,34,0,34,0,174.61030339999706,,,,,,,,,,,,,,,,,,,,,,,,,,,,,,,,,,,,,,,,,,,,,,,,,,174.5940344999981,174.61030339999706,175.11025430000154,175.09392020000087,175.1040295999992,175.11025430000154,175.11025430000154,175.11025430000154,176.6938938999956,Objects\006a.jpg,mid,s,1.5745094000012614,None,,,,,,,,00020,001,2025-11-09_18h37.23.782,MST_test,2024.2.2,60.00218407692183,2025-11-09 18h37.29.494432 +0530,
35,0,35,o,1.6154724000080023,None,35,0,35,0,176.71025249999366,,,,,,,,,,,,,,,,,,,,,,,,,,,,,,,,,,,,,,,,,,,,,,,,,,176.69397899998876,176.71025249999366,177.24387690000003,177.1937512000004,177.227034800002,177.24387690000003,177.24387690000003,177.24387690000003,178.86063879998983,Scenes\020b.jpg,mid,o,1.6154724000080023,None,,,,,,,,00020,001,2025-11-09_18h37.23.782,MST_test,2024.2.2,60.00218407692183,2025-11-09 18h37.29.494432 +0530,
36,0,36,n,2.7896470999985468,None,36,0,36,0,178.87686769998982,,,,,,,,,,,,,,,,,,,,,,,,,,,,,,,,,,,,,,,,,,,,,,,,,,178.86072939999576,178.87686769998982,179.37685629999032,179.36041589999513,179.37058719999914,179.37685629999032,179.37685629999032,179.37685629999032,182.17726219999895,Objects\067a.jpg,pre,n,2.7896470999985468,None,,,,,,,,00020,001,2025-11-09_18h37.23.782,MST_test,2024.2.2,60.00218407692183,2025-11-09 18h37.29.494432 +0530,
37,0,37,o,1.8020107000047574,None,37,0,37,0,182.19346509999014,,,,,,,,,,,,,,,,,,,,,,,,,,,,,,,,,,,,,,,,,,,,,,,,,,182.17734529999143,182.19346509999014,182.7103003999946,182.67706899999757,182.69383269999526,182.7103003999946,182.7103003999946,182.7103003999946,184.5269954999967,Scenes\023b.jpg,mid,o,1.8020107000047574,None,,,,,,,,00020,001,2025-11-09_18h37.23.782,MST_test,2024.2.2,60.00218407692183,2025-11-09 18h37.29.494432 +0530,
38,0,38,s,1.6949346999899717,None,38,0,38,0,184.54338289999578,,,,,,,,,,,,,,,,,,,,,,,,,,,,,,,,,,,,,,,,,,,,,,,,,,184.5270751999924,184.54338289999578,185.04337139999552,185.0269161999895,185.03879449999658,185.04337139999552,185.04337139999552,185.04337139999552,186.74386809999123,Objects\107a.jpg,mid,s,1.6949346999899717,None,,,,,,,,00020,001,2025-11-09_18h37.23.782,MST_test,2024.2.2,60.00218407692183,2025-11-09 18h37.29.494432 +0530,
39,0,39,s,0.7464542999950936,None,39,0,39,0,186.75999979999324,,,,,,,,,,,,,,,,,,,,,,,,,,,,,,,,,,,,,,,,,,,,,,,,,,186.7439447999932,186.75999979999324,187.25998589998926,187.24364599998808,187.25369739999587,187.25998589998926,187.25998589998926,187.25998589998926,188.01033219999226,Objects\148a.jpg,pre,s,0.7464542999950936,None,,,,,,,,00020,001,2025-11-09_18h37.23.782,MST_test,2024.2.2,60.00218407692183,2025-11-09 18h37.29.494432 +0530,
40,0,40,s,1.0601154000032693,None,40,0,40,0,188.0266713000019,,,,,,,,,,,,,,,,,,,,,,,,,,,,,,,,,,,,,,,,,,,,,,,,,,188.0104086999927,188.0266713000019,188.56043599999975,188.51014049998776,188.5417385999899,188.56043599999975,188.56043599999975,188.56043599999975,189.62693249998847,Scenes\063b.jpg,mid,s,1.0601154000032693,None,,,,,,,,00020,001,2025-11-09_18h37.23.782,MST_test,2024.2.2,60.00218407692183,2025-11-09 18h37.29.494432 +0530,
41,0,41,o,1.3130079999973532,None,41,0,41,0,189.6433021999983,,,,,,,,,,,,,,,,,,,,,,,,,,,,,,,,,,,,,,,,,,,,,,,,,,189.62701089998882,189.6433021999983,190.1599819999974,190.12683599999582,190.14437769999495,190.1599819999974,190.1599819999974,190.1599819999974,191.4769152999943,Objects\123b.jpg,post,o,1.3130079999973532,None,,,,,,,,00020,001,2025-11-09_18h37.23.782,MST_test,2024.2.2,60.00218407692183,2025-11-09 18h37.29.494432 +0530,
42,0,42,o,4.363743199995952,None,42,0,42,0,191.49326309999742,,,,,,,,,,,,,,,,,,,,,,,,,,,,,,,,,,,,,,,,,,,,,,,,,,191.47699450000073,191.49326309999742,192.02686019999965,191.9767359999969,192.01438529998995,192.02686019999965,192.02686019999965,192.02686019999965,196.39357590000145,Scenes\001b.jpg,post,o,4.363743199995952,None,,,,,,,,00020,001,2025-11-09_18h37.23.782,MST_test,2024.2.2,60.00218407692183,2025-11-09 18h37.29.494432 +0530,
43,0,43,o,2.99905640000361,None,43,0,43,0,196.4098182000016,,,,,,,,,,,,,,,,,,,,,,,,,,,,,,,,,,,,,,,,,,,,,,,,,,196.39366299999529,196.4098182000016,196.90954110000166,196.8934014999977,196.90235469999607,196.90954110000166,196.90954110000166,196.90954110000166,199.9101532999921,Scenes\155b.jpg,pre,o,2.99905640000361,None,,,,,,,,00020,001,2025-11-09_18h37.23.782,MST_test,2024.2.2,60.00218407692183,2025-11-09 18h37.29.494432 +0530,
44,0,44,o,1.2421586999989813,None,44,0,44,0,199.92641829999047,,,,,,,,,,,,,,,,,,,,,,,,,,,,,,,,,,,,,,,,,,,,,,,,,,199.91024279998965,199.92641829999047,200.44320699998934,200.4099761999969,200.42284059998929,200.44320699998934,200.44320699998934,200.44320699998934,201.6934767999919,Scenes\021a.jpg,pre,o,1.2421586999989813,None,,,,,,,,00020,001,2025-11-09_18h37.23.782,MST_test,2024.2.2,60.00218407692183,2025-11-09 18h37.29.494432 +0530,
45,0,45,s,1.0073779999947874,None,45,0,45,0,201.70969029999105,,,,,,,,,,,,,,,,,,,,,,,,,,,,,,,,,,,,,,,,,,,,,,,,,,201.69355709999218,201.70969029999105,202.24335699999938,202.19333399999596,202.22397099999944,202.24335699999938,202.24335699999938,202.24335699999938,203.26004899998952,Scenes\185b.jpg,pre,s,1.0073779999947874,None,,,,,,,,00020,001,2025-11-09_18h37.23.782,MST_test,2024.2.2,60.00218407692183,2025-11-09 18h37.29.494432 +0530,
46,0,46,n,1.5641639999957988,None,46,0,46,0,203.27631059999112,,,,,,,,,,,,,,,,,,,,,,,,,,,,,,,,,,,,,,,,,,,,,,,,,,203.26012869999977,203.27631059999112,203.77650509998784,203.75983519999136,203.77069520000077,203.77650509998784,203.77650509998784,203.77650509998784,205.34336499999336,Scenes\016a.jpg,mid,n,1.5641639999957988,None,,,,,,,,00020,001,2025-11-09_18h37.23.782,MST_test,2024.2.2,60.00218407692183,2025-11-09 18h37.29.494432 +0530,
47,0,47,n,1.2701764999947045,None,47,0,47,0,205.35963219999394,,,,,,,,,,,,,,,,,,,,,,,,,,,,,,,,,,,,,,,,,,,,,,,,,,205.34345249999024,205.35963219999394,205.87641769999755,205.84312999999383,205.85420239999075,205.87641769999755,205.87641769999755,205.87641769999755,207.15983179998875,Scenes\166a.jpg,mid,n,1.2701764999947045,None,,,,,,,,00020,001,2025-11-09_18h37.23.782,MST_test,2024.2.2,60.00218407692183,2025-11-09 18h37.29.494432 +0530,
48,0,48,n,2.6737445000035223,None,48,0,48,0,207.1762552,,,,,,,,,,,,,,,,,,,,,,,,,,,,,,,,,,,,,,,,,,,,,,,,,,207.15991079999367,207.1762552,207.692888199992,207.65982669999357,207.67896140000084,207.692888199992,207.692888199992,207.692888199992,210.37655329999689,Scenes\043b.jpg,mid,n,2.6737445000035223,None,,,,,,,,00020,001,2025-11-09_18h37.23.782,MST_test,2024.2.2,60.00218407692183,2025-11-09 18h37.29.494432 +0530,
49,0,49,n,1.1390934999944875,None,49,0,49,0,210.39281829999527,,,,,,,,,,,,,,,,,,,,,,,,,,,,,,,,,,,,,,,,,,,,,,,,,,210.37664170000062,210.39281829999527,210.9097708999907,210.87640349999128,210.89284559999942,210.9097708999907,210.9097708999907,210.9097708999907,212.059837599998,Objects\089b.jpg,pre,n,1.1390934999944875,None,,,,,,,,00020,001,2025-11-09_18h37.23.782,MST_test,2024.2.2,60.00218407692183,2025-11-09 18h37.29.494432 +0530,
50,0,50,s,0.8236345000041183,None,50,0,50,0,212.07614869999816,,,,,,,,,,,,,,,,,,,,,,,,,,,,,,,,,,,,,,,,,,,,,,,,,,212.05992299999343,212.07614869999816,212.5930578999978,212.55961959999695,212.57916049999767,212.5930578999978,212.5930578999978,212.5930578999978,213.42645759999868,Scenes\017b.jpg,post,s,0.8236345000041183,None,,,,,,,,00020,001,2025-11-09_18h37.23.782,MST_test,2024.2.2,60.00218407692183,2025-11-09 18h37.29.494432 +0530,
51,0,51,o,1.1373632000031648,None,51,0,51,0,213.44279309999547,,,,,,,,,,,,,,,,,,,,,,,,,,,,,,,,,,,,,,,,,,,,,,,,,,213.42653769999743,213.44279309999547,213.95940669999982,213.92639849999978,213.94175939999695,213.95940669999982,213.95940669999982,213.95940669999982,215.10982459998922,Foils\050a.jpg,none,o,1.1373632000031648,None,,,,,,,,00020,001,2025-11-09_18h37.23.782,MST_test,2024.2.2,60.00218407692183,2025-11-09 18h37.29.494432 +0530,
52,0,52,o,1.7694856000016443,None,52,0,52,0,215.1261164999887,,,,,,,,,,,,,,,,,,,,,,,,,,,,,,,,,,,,,,,,,,,,,,,,,,215.10990239999956,215.1261164999887,215.6257939999923,215.60961410000164,215.6196149999887,215.6257939999923,215.6257939999923,215.6257939999923,217.4264639999892,Scenes\177a.jpg,pre,o,1.7694856000016443,None,,,,,,,,00020,001,2025-11-09_18h37.23.782,MST_test,2024.2.2,60.00218407692183,2025-11-09 18h37.29.494432 +0530,
53,0,53,n,1.2731372000125702,None,53,0,53,0,217.44266970000172,,,,,,,,,,,,,,,,,,,,,,,,,,,,,,,,,,,,,,,,,,,,,,,,,,217.42655229999218,217.44266970000172,217.95932480000192,217.9262652999896,217.95213910000166,217.95932480000192,217.95932480000192,217.95932480000192,219.2429731000011,Objects\189b.jpg,mid,n,1.2731372000125702,None,,,,,,,,00020,001,2025-11-09_18h37.23.782,MST_test,2024.2.2,60.00218407692183,2025-11-09 18h37.29.494432 +0530,
54,0,54,s,1.2962062000005972,None,54,0,54,0,219.2593235999957,,,,,,,,,,,,,,,,,,,,,,,,,,,,,,,,,,,,,,,,,,,,,,,,,,219.24305429999367,219.2593235999957,220.02637849999883,219.74287579998781,219.99643479999213,220.02637849999883,220.02637849999883,220.02637849999883,221.3262870999897,Foils\scenes26.jpg,none,s,1.2962062000005972,None,,,,,,,,00020,001,2025-11-09_18h37.23.782,MST_test,2024.2.2,60.00218407692183,2025-11-09 18h37.29.494432 +0530,
55,0,55,s,0.9746341000136454,None,55,0,55,0,221.34261649999826,,,,,,,,,,,,,,,,,,,,,,,,,,,,,,,,,,,,,,,,,,,,,,,,,,221.32636429999548,221.34261649999826,221.85923329999787,221.82609869999578,221.84041499999876,221.85923329999787,221.85923329999787,221.85923329999787,222.84295719998772,Foils\066a.jpg,none,s,0.9746341000136454,None,,,,,,,,00020,001,2025-11-09_18h37.23.782,MST_test,2024.2.2,60.00218407692183,2025-11-09 18h37.29.494432 +0530,
56,0,56,s,1.1193777000007685,None,56,0,56,0,222.85925189999398,,,,,,,,,,,,,,,,,,,,,,,,,,,,,,,,,,,,,,,,,,,,,,,,,,222.84304199999315,222.85925189999398,223.35954619999393,223.3427929999889,223.35468160000164,223.35954619999393,223.35954619999393,223.35954619999393,224.49281759999576,Foils\scenes13.jpg,none,s,1.1193777000007685,None,,,,,,,,00020,001,2025-11-09_18h37.23.782,MST_test,2024.2.2,60.00218407692183,2025-11-09 18h37.29.494432 +0530,
57,0,57,o,1.6881963999912841,None,57,0,57,0,224.50917539998773,,,,,,,,,,,,,,,,,,,,,,,,,,,,,,,,,,,,,,,,,,,,,,,,,,224.49290069998824,224.50917539998773,225.02607519998855,224.99269529999583,225.01304619999428,225.02607519998855,225.02607519998855,225.02607519998855,226.72621300000174,Scenes\149a.jpg,post,o,1.6881963999912841,None,,,,,,,,00020,001,2025-11-09_18h37.23.782,MST_test,2024.2.2,60.00218407692183,2025-11-09 18h37.29.494432 +0530,
58,0,58,o,1.1557625999994343,None,58,0,58,0,226.7425244999904,,,,,,,,,,,,,,,,,,,,,,,,,,,,,,,,,,,,,,,,,,,,,,,,,,226.72629159998905,226.7425244999904,227.25912039999093,227.22608829999808,227.2470553999883,227.25912039999093,227.25912039999093,227.25912039999093,228.4261056999967,Scenes\010a.jpg,pre,o,1.1557625999994343,None,,,,,,,,00020,001,2025-11-09_18h37.23.782,MST_test,2024.2.2,60.00218407692183,2025-11-09 18h37.29.494432 +0530,
59,0,59,n,1.073957700005849,None,59,0,59,0,228.44245219998993,,,,,,,,,,,,,,,,,,,,,,,,,,,,,,,,,,,,,,,,,,,,,,,,,,228.42619449998892,228.44245219998993,228.95908999998937,228.92608089999703,228.9428743999888,228.95908999998937,228.95908999998937,228.95908999998937,230.04275809999672,Foils\033a.jpg,none,n,1.073957700005849,None,,,,,,,,00020,001,2025-11-09_18h37.23.782,MST_test,2024.2.2,60.00218407692183,2025-11-09 18h37.29.494432 +0530,
60,0,60,n,1.381662799991318,None,60,0,60,0,230.05909289998817,,,,,,,,,,,,,,,,,,,,,,,,,,,,,,,,,,,,,,,,,,,,,,,,,,230.04284989999724,230.05909289998817,230.55924159999995,230.54264449999027,230.5501399999921,230.55924159999995,230.55924159999995,230.55924159999995,231.94272490000003,Foils\scenes30.jpg,none,n,1.381662799991318,None,,,,,,,,00020,001,2025-11-09_18h37.23.782,MST_test,2024.2.2,60.00218407692183,2025-11-09 18h37.29.494432 +0530,
61,0,61,n,1.7127924999949755,None,61,0,61,0,231.9590515000018,,,,,,,,,,,,,,,,,,,,,,,,,,,,,,,,,,,,,,,,,,,,,,,,,,231.94280589999107,231.9590515000018,232.4756761999888,232.44254139999975,232.45881440000085,232.4756761999888,232.4756761999888,232.4756761999888,234.1926717999886,Foils\010a.jpg,none,n,1.7127924999949755,None,,,,,,,,00020,001,2025-11-09_18h37.23.782,MST_test,2024.2.2,60.00218407692183,2025-11-09 18h37.29.494432 +0530,
62,0,62,s,1.4383057999948505,None,62,0,62,0,234.2089968999935,,,,,,,,,,,,,,,,,,,,,,,,,,,,,,,,,,,,,,,,,,,,,,,,,,234.19275769998785,234.2089968999935,234.79249269999855,234.6925035999884,234.7751692999882,234.79249269999855,234.79249269999855,234.79249269999855,236.24262920000183,Foils\scenes15.jpg,none,s,1.4383057999948505,None,,,,,,,,00020,001,2025-11-09_18h37.23.782,MST_test,2024.2.2,60.00218407692183,2025-11-09 18h37.29.494432 +0530,
63,0,63,n,1.0947303999855649,None,63,0,63,0,236.25895859999582,,,,,,,,,,,,,,,,,,,,,,,,,,,,,,,,,,,,,,,,,,,,,,,,,,236.24270859999524,236.25895859999582,236.77584940000088,236.74242349999258,236.76011899999867,236.77584940000088,236.77584940000088,236.77584940000088,237.875990799992,Scenes\069a.jpg,post,n,1.0947303999855649,None,,,,,,,,00020,001,2025-11-09_18h37.23.782,MST_test,2024.2.2,60.00218407692183,2025-11-09 18h37.29.494432 +0530,
64,0,64,s,1.5437907000014093,None,64,0,64,0,237.892251199999,,,,,,,,,,,,,,,,,,,,,,,,,,,,,,,,,,,,,,,,,,,,,,,,,,237.87606579999556,237.892251199999,238.4091225000011,238.375822099988,238.398306099989,238.4091225000011,238.4091225000011,238.4091225000011,239.959276900001,Objects\044b.jpg,pre,s,1.5437907000014093,None,,,,,,,,00020,001,2025-11-09_18h37.23.782,MST_test,2024.2.2,60.00218407692183,2025-11-09 18h37.29.494432 +0530,
65,0,65,s,1.618356599996332,None,65,0,65,0,239.97553640000115,,,,,,,,,,,,,,,,,,,,,,,,,,,,,,,,,,,,,,,,,,,,,,,,,,239.95935839999584,239.97553640000115,240.49216879998858,240.45913199998904,240.48436799999035,240.49216879998858,240.49216879998858,240.49216879998858,242.12577719999535,Objects\185b.jpg,pre,s,1.618356599996332,None,,,,,,,,00020,001,2025-11-09_18h37.23.782,MST_test,2024.2.2,60.00218407692183,2025-11-09 18h37.29.494432 +0530,
66,0,66,s,1.0938091999996686,None,66,0,66,0,242.14213089999976,,,,,,,,,,,,,,,,,,,,,,,,,,,,,,,,,,,,,,,,,,,,,,,,,,242.12585129999206,242.14213089999976,242.65878240000166,242.62563819999923,242.65352639999765,242.65878240000166,242.65878240000166,242.65878240000166,243.75908499999787,Objects\052b.jpg,post,s,1.0938091999996686,None,,,,,,,,00020,001,2025-11-09_18h37.23.782,MST_test,2024.2.2,60.00218407692183,2025-11-09 18h37.29.494432 +0530,
67,0,67,s,0.8526846000022488,None,67,0,67,0,243.77545829999144,,,,,,,,,,,,,,,,,,,,,,,,,,,,,,,,,,,,,,,,,,,,,,,,,,243.75915889999305,243.77545829999144,244.32555799999682,244.25909439999668,244.27526999999827,244.32555799999682,244.32555799999682,244.32555799999682,245.19240669999272,Objects\159b.jpg,post,s,0.8526846000022488,None,,,,,,,,00020,001,2025-11-09_18h37.23.782,MST_test,2024.2.2,60.00218407692183,2025-11-09 18h37.29.494432 +0530,
68,0,68,o,1.473118499998236,None,68,0,68,0,245.20878889999585,,,,,,,,,,,,,,,,,,,,,,,,,,,,,,,,,,,,,,,,,,,,,,,,,,245.1924883999891,245.20878889999585,245.74316839998937,245.6923214999988,245.72741680000036,245.74316839998937,245.74316839998937,245.74316839998937,247.22575489999144,Scenes\046b.jpg,pre,o,1.473118499998236,None,,,,,,,,00020,001,2025-11-09_18h37.23.782,MST_test,2024.2.2,60.00218407692183,2025-11-09 18h37.29.494432 +0530,
69,0,69,o,1.0447382999991532,None,69,0,69,0,247.24204679999093,,,,,,,,,,,,,,,,,,,,,,,,,,,,,,,,,,,,,,,,,,,,,,,,,,247.22592259998783,247.24204679999093,247.74224819999654,247.72565939999186,247.7359371999919,247.74224819999654,247.74224819999654,247.74224819999654,248.7924628999899,Scenes\097a.jpg,pre,o,1.0447382999991532,None,,,,,,,,00020,001,2025-11-09_18h37.23.782,MST_test,2024.2.2,60.00218407692183,2025-11-09 18h37.29.494432 +0530,
70,0,70,s,1.159048300003633,None,70,0,70,0,248.80870850000065,,,,,,,,,,,,,,,,,,,,,,,,,,,,,,,,,,,,,,,,,,,,,,,,,,248.79254799999762,248.80870850000065,249.342255999989,249.29217039998912,249.32376549999753,249.342255999989,249.342255999989,249.342255999989,250.50901259999955,Objects\096b.jpg,post,s,1.159048300003633,None,,,,,,,,00020,001,2025-11-09_18h37.23.782,MST_test,2024.2.2,60.00218407692183,2025-11-09 18h37.29.494432 +0530,
71,0,71,o,0.8406416000070749,None,71,0,71,0,250.5252979999932,,,,,,,,,,,,,,,,,,,,,,,,,,,,,,,,,,,,,,,,,,,,,,,,,,250.5090976999927,250.5252979999932,251.02559569998994,251.00890449999133,251.02064149999933,251.02559569998994,251.02559569998994,251.02559569998994,251.8755422999966,Foils\scenes18.jpg,none,o,0.8406416000070749,None,,,,,,,,00020,001,2025-11-09_18h37.23.782,MST_test,2024.2.2,60.00218407692183,2025-11-09 18h37.29.494432 +0530,
72,0,72,s,3.6197377999924356,None,72,0,72,0,251.89194589998806,,,,,,,,,,,,,,,,,,,,,,,,,,,,,,,,,,,,,,,,,,,,,,,,,,251.87562169999,251.89194589998806,252.4088281000004,252.37549169998965,252.39701409998816,252.4088281000004,252.4088281000004,252.4088281000004,256.0422153999971,Scenes\068a.jpg,post,s,3.6197377999924356,None,,,,,,,,00020,001,2025-11-09_18h37.23.782,MST_test,2024.2.2,60.00218407692183,2025-11-09 18h37.29.494432 +0530,
73,0,73,s,0.7106953999900725,None,73,0,73,0,256.05849209999724,,,,,,,,,,,,,,,,,,,,,,,,,,,,,,,,,,,,,,,,,,,,,,,,,,256.0422977999988,256.05849209999724,256.59180709999055,256.5421149999893,256.57338359999994,256.59180709999055,256.59180709999055,256.59180709999055,257.30893410000135,Objects\104b.jpg,post,s,0.7106953999900725,None,,,,,,,,00020,001,2025-11-09_18h37.23.782,MST_test,2024.2.2,60.00218407692183,2025-11-09 18h37.29.494432 +0530,
74,0,74,s,0.6349167000007583,None,74,0,74,0,257.3252095999924,,,,,,,,,,,,,,,,,,,,,,,,,,,,,,,,,,,,,,,,,,,,,,,,,,257.30901179999637,257.3252095999924,257.8417786999926,257.80875299999025,257.82835309999064,257.8417786999926,257.8417786999926,257.8417786999926,258.4921781000012,Objects\011b.jpg,post,s,0.6349167000007583,None,,,,,,,,00020,001,2025-11-09_18h37.23.782,MST_test,2024.2.2,60.00218407692183,2025-11-09 18h37.29.494432 +0530,
75,0,75,s,0.6717019000061555,None,75,0,75,0,258.5084744999913,,,,,,,,,,,,,,,,,,,,,,,,,,,,,,,,,,,,,,,,,,,,,,,,,,258.4922504999995,258.5084744999913,259.02509139999165,258.99192760000005,259.02007899999444,259.02509139999165,259.02509139999165,259.02509139999165,259.70883809999214,Objects\029b.jpg,mid,s,0.6717019000061555,None,,,,,,,,00020,001,2025-11-09_18h37.23.782,MST_test,2024.2.2,60.00218407692183,2025-11-09 18h37.29.494432 +0530,
76,0,76,s,0.6031453999894438,None,76,0,76,0,259.7251070999919,,,,,,,,,,,,,,,,,,,,,,,,,,,,,,,,,,,,,,,,,,,,,,,,,,259.70892730000196,259.7251070999919,260.22506749999593,260.208744699994,260.21893309999723,260.22506749999593,260.22506749999593,260.22506749999593,260.84211389999837,Foils\105a.jpg,none,s,0.6031453999894438,None,,,,,,,,00020,001,2025-11-09_18h37.23.782,MST_test,2024.2.2,60.00218407692183,2025-11-09 18h37.29.494432 +0530,
77,0,77,n,2.4186124999978347,None,77,0,77,0,260.85843999999634,,,,,,,,,,,,,,,,,,,,,,,,,,,,,,,,,,,,,,,,,,,,,,,,,,260.84219279998797,260.85843999999634,261.3919953000004,261.34192169999005,261.37201389999245,261.3919953000004,261.3919953000004,261.3919953000004,263.8254342,Scenes\186b.jpg,post,n,2.4186124999978347,None,,,,,,,,00020,001,2025-11-09_18h37.23.782,MST_test,2024.2.2,60.00218407692183,2025-11-09 18h37.29.494432 +0530,
78,0,78,s,1.6559348000009777,None,78,0,78,0,263.8416836999968,,,,,,,,,,,,,,,,,,,,,,,,,,,,,,,,,,,,,,,,,,,,,,,,,,263.82553879999614,263.8416836999968,264.375200399998,264.3252768999955,264.3551099999895,264.375200399998,264.375200399998,264.375200399998,266.0421520999953,Scenes\075b.jpg,pre,s,1.6559348000009777,None,,,,,,,,00020,001,2025-11-09_18h37.23.782,MST_test,2024.2.2,60.00218407692183,2025-11-09 18h37.29.494432 +0530,
79,0,79,s,0.6341339999926277,None,79,0,79,0,266.05829749999975,,,,,,,,,,,,,,,,,,,,,,,,,,,,,,,,,,,,,,,,,,,,,,,,,,266.04223320000165,266.05829749999975,266.5585241999943,266.54186699999264,266.55216229999496,266.5585241999943,266.5585241999943,266.5585241999943,267.20878479999374,Objects\149a.jpg,pre,s,0.6341339999926277,None,,,,,,,,00020,001,2025-11-09_18h37.23.782,MST_test,2024.2.2,60.00218407692183,2025-11-09 18h37.29.494432 +0530,
80,0,80,s,0.6136441999988165,None,80,0,80,0,267.2249426999915,,,,,,,,,,,,,,,,,,,,,,,,,,,,,,,,,,,,,,,,,,,,,,,,,,267.208862200001,267.2249426999915,267.7415655999939,267.7085520999972,267.73466829999234,267.7415655999939,267.7415655999939,267.7415655999939,268.35862259998976,Objects\109b.jpg,mid,s,0.6136441999988165,None,,,,,,,,00020,001,2025-11-09_18h37.23.782,MST_test,2024.2.2,60.00218407692183,2025-11-09 18h37.29.494432 +0530,
81,0,81,s,1.7444789000001037,None,81,0,81,0,268.3749248999957,,,,,,,,,,,,,,,,,,,,,,,,,,,,,,,,,,,,,,,,,,,,,,,,,,268.35869339999044,268.3749248999957,268.9083036999946,268.85846949998813,268.89033959999506,268.9083036999946,268.9083036999946,268.9083036999946,270.65866479999386,Objects\069b.jpg,mid,s,1.7444789000001037,None,,,,,,,,00020,001,2025-11-09_18h37.23.782,MST_test,2024.2.2,60.00218407692183,2025-11-09 18h37.29.494432 +0530,
82,0,82,s,0.6235152999870479,None,82,0,82,0,270.6749820999976,,,,,,,,,,,,,,,,,,,,,,,,,,,,,,,,,,,,,,,,,,,,,,,,,,270.6587472999963,270.6749820999976,271.1749173999997,271.1584365000017,271.16912999999477,271.1749173999997,271.1749173999997,271.1749173999997,271.80861219999497,Objects\177a.jpg,post,s,0.6235152999870479,None,,,,,,,,00020,001,2025-11-09_18h37.23.782,MST_test,2024.2.2,60.00218407692183,2025-11-09 18h37.29.494432 +0530,
83,0,83,s,3.2171696000004886,None,83,0,83,0,271.82493319999776,,,,,,,,,,,,,,,,,,,,,,,,,,,,,,,,,,,,,,,,,,,,,,,,,,271.80869169998914,271.82493319999776,272.34156649999204,272.3085318999947,272.3240308999957,272.34156649999204,272.34156649999204,272.34156649999204,275.5752919999941,Foils\065a.jpg,none,s,3.2171696000004886,None,,,,,,,,00020,001,2025-11-09_18h37.23.782,MST_test,2024.2.2,60.00218407692183,2025-11-09 18h37.29.494432 +0530,
84,0,84,n,2.231169199993019,None,84,0,84,0,275.59149669999897,,,,,,,,,,,,,,,,,,,,,,,,,,,,,,,,,,,,,,,,,,,,,,,,,,275.57538059999933,275.59149669999897,276.10817439999664,276.0749868999992,276.0959303999989,276.10817439999664,276.10817439999664,276.10817439999664,278.34187910000037,Scenes\150b.jpg,mid,n,2.231169199993019,None,,,,,,,,00020,001,2025-11-09_18h37.23.782,MST_test,2024.2.2,60.00218407692183,2025-11-09 18h37.29.494432 +0530,
85,0,85,s,0.9091490999999223,None,85,0,85,0,278.35811889999604,,,,,,,,,,,,,,,,,,,,,,,,,,,,,,,,,,,,,,,,,,,,,,,,,,278.3419569999969,278.35811889999604,278.8914311999979,278.84175909998885,278.8841176999995,278.8914311999979,278.8914311999979,278.8914311999979,279.8084084000002,Scenes\035b.jpg,pre,s,0.9091490999999223,None,,,,,,,,00020,001,2025-11-09_18h37.23.782,MST_test,2024.2.2,60.00218407692183,2025-11-09 18h37.29.494432 +0530,
86,0,86,s,1.4236134000093443,None,86,0,86,0,279.8247515999974,,,,,,,,,,,,,,,,,,,,,,,,,,,,,,,,,,,,,,,,,,,,,,,,,,279.8084850999876,279.8247515999974,280.34161740000127,280.30822909998824,280.32797339999524,280.34161740000127,280.34161740000127,280.34161740000127,281.7751938000001,Foils\scenes27.jpg,none,s,1.4236134000093443,None,,,,,,,,00020,001,2025-11-09_18h37.23.782,MST_test,2024.2.2,60.00218407692183,2025-11-09 18h37.29.494432 +0530,
87,0,87,n,1.034441900003003,None,87,0,87,0,281.79142839999986,,,,,,,,,,,,,,,,,,,,,,,,,,,,,,,,,,,,,,,,,,,,,,,,,,281.77527899999404,281.79142839999986,282.30801449999854,282.274940599993,282.2907530999946,282.30801449999854,282.30801449999854,282.30801449999854,283.3583660000004,Scenes\147a.jpg,post,n,1.034441900003003,None,,,,,,,,00020,001,2025-11-09_18h37.23.782,MST_test,2024.2.2,60.00218407692183,2025-11-09 18h37.29.494432 +0530,
88,0,88,o,2.4198260999983177,None,88,0,88,0,283.37467559998913,,,,,,,,,,,,,,,,,,,,,,,,,,,,,,,,,,,,,,,,,,,,,,,,,,283.35844070000167,283.37467559998913,283.8748838999891,283.8581684999954,283.86788330000127,283.8748838999891,283.8748838999891,283.8748838999891,286.308315199989,Objects\008a.jpg,mid,o,2.4198260999983177,None,,,,,,,,00020,001,2025-11-09_18h37.23.782,MST_test,2024.2.2,60.00218407692183,2025-11-09 18h37.29.494432 +0530,
89,0,89,s,1.8678145000012591,None,89,0,89,0,286.3246505999996,,,,,,,,,,,,,,,,,,,,,,,,,,,,,,,,,,,,,,,,,,,,,,,,,,286.3083981999953,286.3246505999996,286.84124419999716,286.8081700999901,286.8257859000005,286.84124419999716,286.84124419999716,286.84124419999716,288.72482209999,Scenes\163b.jpg,pre,s,1.8678145000012591,None,,,,,,,,00020,001,2025-11-09_18h37.23.782,MST_test,2024.2.2,60.00218407692183,2025-11-09 18h37.29.494432 +0530,
90,0,90,s,1.0152435999916634,None,90,0,90,0,288.741268999991,,,,,,,,,,,,,,,,,,,,,,,,,,,,,,,,,,,,,,,,,,,,,,,,,,288.72490169999946,288.741268999991,289.25786129999324,289.2248639999889,289.2411316999933,289.25786129999324,289.25786129999324,289.25786129999324,290.2748753999913,Objects\001b.jpg,pre,s,1.0152435999916634,None,,,,,,,,00020,001,2025-11-09_18h37.23.782,MST_test,2024.2.2,60.00218407692183,2025-11-09 18h37.29.494432 +0530,
91,0,91,s,0.9065612999984296,None,91,0,91,0,290.2912229999929,,,,,,,,,,,,,,,,,,,,,,,,,,,,,,,,,,,,,,,,,,,,,,,,,,290.2749569000007,290.2912229999929,290.8081749999983,290.7747631999955,290.7935002999875,290.8081749999983,290.8081749999983,290.8081749999983,291.7248905999877,Scenes\110a.jpg,mid,s,0.9065612999984296,None,,,,,,,,00020,001,2025-11-09_18h37.23.782,MST_test,2024.2.2,60.00218407692183,2025-11-09 18h37.29.494432 +0530,
92,0,92,n,1.1511929999978747,None,92,0,92,0,291.74116499999946,,,,,,,,,,,,,,,,,,,,,,,,,,,,,,,,,,,,,,,,,,,,,,,,,,291.7249654999905,291.74116499999946,292.2411401999998,292.2247922999959,292.2344302999991,292.2411401999998,292.2411401999998,292.2411401999998,293.40803310000047,Objects\192a.jpg,mid,n,1.1511929999978747,None,,,,,,,,00020,001,2025-11-09_18h37.23.782,MST_test,2024.2.2,60.00218407692183,2025-11-09 18h37.29.494432 +0530,
93,0,93,n,0.7112171000044327,None,93,0,93,0,293.4244309999922,,,,,,,,,,,,,,,,,,,,,,,,,,,,,,,,,,,,,,,,,,,,,,,,,,293.4081048999942,293.4244309999922,293.94118139999046,293.9080595999985,293.9321501999948,293.94118139999046,293.94118139999046,293.94118139999046,294.658091099991,Objects\175b.jpg,post,n,0.7112171000044327,None,,,,,,,,00020,001,2025-11-09_18h37.23.782,MST_test,2024.2.2,60.00218407692183,2025-11-09 18h37.29.494432 +0530,
94,0,94,n,1.6700489000068046,None,94,0,94,0,294.6744594999909,,,,,,,,,,,,,,,,,,,,,,,,,,,,,,,,,,,,,,,,,,,,,,,,,,294.6581637999916,294.6744594999909,295.17461119999643,295.1580491999921,295.16989039999316,295.17461119999643,295.17461119999643,295.17461119999643,296.85817099999986,Foils\scenes20.jpg,none,n,1.6700489000068046,None,,,,,,,,00020,001,2025-11-09_18h37.23.782,MST_test,2024.2.2,60.00218407692183,2025-11-09 18h37.29.494432 +0530,
95,0,95,o,1.147818700002972,None,95,0,95,0,296.8744114000001,,,,,,,,,,,,,,,,,,,,,,,,,,,,,,,,,,,,,,,,,,,,,,,,,,296.85824819999107,296.8744114000001,297.3743683999928,297.3578986999928,297.3678620999999,297.3743683999928,297.3743683999928,297.3743683999928,298.5246788999939,Objects\156a.jpg,pre,o,1.147818700002972,None,,,,,,,,00020,001,2025-11-09_18h37.23.782,MST_test,2024.2.2,60.00218407692183,2025-11-09 18h37.29.494432 +0530,
96,0,96,o,0.8428719999938039,None,96,0,96,0,298.54101609998906,,,,,,,,,,,,,,,,,,,,,,,,,,,,,,,,,,,,,,,,,,,,,,,,,,298.5247576999973,298.54101609998906,299.04098029999295,299.0245511999965,299.0352756999928,299.04098029999295,299.04098029999295,299.04098029999295,299.89127929999086,Objects\126a.jpg,post,o,0.8428719999938039,None,,,,,,,,00020,001,2025-11-09_18h37.23.782,MST_test,2024.2.2,60.00218407692183,2025-11-09 18h37.29.494432 +0530,
97,0,97,n,0.9762076999904821,None,97,0,97,0,299.9076883999951,,,,,,,,,,,,,,,,,,,,,,,,,,,,,,,,,,,,,,,,,,,,,,,,,,299.8913479999901,299.9076883999951,300.40762089999043,300.3912648999976,300.40122379999957,300.40762089999043,300.40762089999043,300.40762089999043,301.39132919999247,Foils\058a.jpg,none,n,0.9762076999904821,None,,,,,,,,00020,001,2025-11-09_18h37.23.782,MST_test,2024.2.2,60.00218407692183,2025-11-09 18h37.29.494432 +0530,
98,0,98,o,1.136727199991583,None,98,0,98,0,301.4076150999899,,,,,,,,,,,,,,,,,,,,,,,,,,,,,,,,,,,,,,,,,,,,,,,,,,301.3914170999924,301.4076150999899,301.9244983999961,301.8912738999934,301.90941870000097,301.9244983999961,301.9244983999961,301.9244983999961,303.0745848999941,Scenes\049a.jpg,post,o,1.136727199991583,None,,,,,,,,00020,001,2025-11-09_18h37.23.782,MST_test,2024.2.2,60.00218407692183,2025-11-09 18h37.29.494432 +0530,
99,0,99,s,1.405641100005596,None,99,0,99,0,303.0908771999966,,,,,,,,,,,,,,,,,,,,,,,,,,,,,,,,,,,,,,,,,,,,,,,,,,303.07465939999383,303.0908771999966,303.6075514999975,303.5743650999939,303.5977195999876,303.6075514999975,303.6075514999975,303.6075514999975,305.02459909999743,Scenes\004b.jpg,mid,s,1.405641100005596,None,,,,,,,,00020,001,2025-11-09_18h37.23.782,MST_test,2024.2.2,60.00218407692183,2025-11-09 18h37.29.494432 +0530,
100,0,100,n,1.5808088000048883,None,100,0,100,0,305.0408496000018,,,,,,,,,,,,,,,,,,,,,,,,,,,,,,,,,,,,,,,,,,,,,,,,,,305.0246763999894,305.0408496000018,305.55757609999273,305.5243747999921,305.54535770000075,305.55757609999273,305.55757609999273,305.55757609999273,307.1411531999911,Scenes\189b.jpg,pre,n,1.5808088000048883,None,,,,,,,,00020,001,2025-11-09_18h37.23.782,MST_test,2024.2.2,60.00218407692183,2025-11-09 18h37.29.494432 +0530,
101,0,101,n,1.1113042000069981,None,101,0,101,0,307.1575284999999,,,,,,,,,,,,,,,,,,,,,,,,,,,,,,,,,,,,,,,,,,,,,,,,,,307.1412326999998,307.1575284999999,307.6577045000013,307.6409236999898,307.64818429999286,307.6577045000013,307.6577045000013,307.6577045000013,308.77449029999843,Foils\scenes6.jpg,none,n,1.1113042000069981,None,,,,,,,,00020,001,2025-11-09_18h37.23.782,MST_test,2024.2.2,60.00218407692183,2025-11-09 18h37.29.494432 +0530,
102,0,102,s,1.495337300002575,None,102,0,102,0,308.7907884000015,,,,,,,,,,,,,,,,,,,,,,,,,,,,,,,,,,,,,,,,,,,,,,,,,,308.77456799999345,308.7907884000015,309.30743259999144,309.27429689999553,309.2966196999914,309.30743259999144,309.30743259999144,309.30743259999144,310.80778550000105,Scenes\084a.jpg,pre,s,1.495337300002575,None,,,,,,,,00020,001,2025-11-09_18h37.23.782,MST_test,2024.2.2,60.00218407692183,2025-11-09 18h37.29.494432 +0530,
103,0,103,s,0.636624100006884,None,103,0,103,0,310.82410469999013,,,,,,,,,,,,,,,,,,,,,,,,,,,,,,,,,,,,,,,,,,,,,,,,,,310.8078591999947,310.82410469999013,311.3743123999884,311.3076716999931,311.3595915999904,311.3743123999884,311.3743123999884,311.3743123999884,312.0243241999997,Scenes\034b.jpg,pre,s,0.636624100006884,None,,,,,,,,00020,001,2025-11-09_18h37.23.782,MST_test,2024.2.2,60.00218407692183,2025-11-09 18h37.29.494432 +0530,
104,0,104,o,1.2112953000032576,None,104,0,104,0,312.04075159999775,,,,,,,,,,,,,,,,,,,,,,,,,,,,,,,,,,,,,,,,,,,,,,,,,,312.0243984999979,312.04075159999775,312.55730269999185,312.52436450000096,312.5527161999926,312.55730269999185,312.55730269999185,312.55730269999185,313.77426029999333,Scenes\080b.jpg,post,o,1.2112953000032576,None,,,,,,,,00020,001,2025-11-09_18h37.23.782,MST_test,2024.2.2,60.00218407692183,2025-11-09 18h37.29.494432 +0530,
105,0,105,s,0.7224035999970511,None,105,0,105,0,313.7907344999985,,,,,,,,,,,,,,,,,,,,,,,,,,,,,,,,,,,,,,,,,,,,,,,,,,313.7743338,313.7907344999985,314.2909107000014,314.2743419999897,314.28415700000187,314.2909107000014,314.2909107000014,314.2909107000014,315.02441699999326,Objects\072a.jpg,mid,s,0.7224035999970511,None,,,,,,,,00020,001,2025-11-09_18h37.23.782,MST_test,2024.2.2,60.00218407692183,2025-11-09 18h37.29.494432 +0530,
106,0,106,s,1.3227452999999514,None,106,0,106,0,315.04065679998894,,,,,,,,,,,,,,,,,,,,,,,,,,,,,,,,,,,,,,,,,,,,,,,,,,315.0244915999938,315.04065679998894,315.55729599999904,315.5241224999918,315.5392839999986,315.55729599999904,315.55729599999904,315.55729599999904,316.89102319999074,Scenes\153a.jpg,pre,s,1.3227452999999514,None,,,,,,,,00020,001,2025-11-09_18h37.23.782,MST_test,2024.2.2,60.00218407692183,2025-11-09 18h37.29.494432 +0530,
107,0,107,s,1.9566421000054106,None,107,0,107,0,316.9072821000009,,,,,,,,,,,,,,,,,,,,,,,,,,,,,,,,,,,,,,,,,,,,,,,,,,316.89110029999574,316.9072821000009,317.42391249998764,317.3909188999969,317.4071877999959,317.42391249998764,317.42391249998764,317.42391249998764,319.3908143000008,Objects\083b.jpg,post,s,1.9566421000054106,None,,,,,,,,00020,001,2025-11-09_18h37.23.782,MST_test,2024.2.2,60.00218407692183,2025-11-09 18h37.29.494432 +0530,
108,0,108,n,1.6671750999958022,None,108,0,108,0,319.40722399999504,,,,,,,,,,,,,,,,,,,,,,,,,,,,,,,,,,,,,,,,,,,,,,,,,,319.39089549999335,319.40722399999504,319.9238638999959,319.89073149999604,319.9066501999914,319.9238638999959,319.9238638999959,319.9238638999959,321.6074432999885,Objects\176b.jpg,mid,n,1.6671750999958022,None,,,,,,,,00020,001,2025-11-09_18h37.23.782,MST_test,2024.2.2,60.00218407692183,2025-11-09 18h37.29.494432 +0530,
109,0,109,s,1.0542662999941967,None,109,0,109,0,321.6238613999885,,,,,,,,,,,,,,,,,,,,,,,,,,,,,,,,,,,,,,,,,,,,,,,,,,321.60752169998887,321.6238613999885,322.14053009999043,322.10722079999687,322.1228085999901,322.14053009999043,322.14053009999043,322.14053009999043,323.207479299992,Objects\053b.jpg,pre,s,1.0542662999941967,None,,,,,,,,00020,001,2025-11-09_18h37.23.782,MST_test,2024.2.2,60.00218407692183,2025-11-09 18h37.29.494432 +0530,
110,0,110,s,0.8056681000016397,None,110,0,110,0,323.2237599999935,,,,,,,,,,,,,,,,,,,,,,,,,,,,,,,,,,,,,,,,,,,,,,,,,,323.20756709999114,323.2237599999935,323.7237798999995,323.70727369999804,323.7169942999899,323.7237798999995,323.7237798999995,323.7237798999995,324.5408208000008,Objects\058a.jpg,pre,s,0.8056681000016397,None,,,,,,,,00020,001,2025-11-09_18h37.23.782,MST_test,2024.2.2,60.00218407692183,2025-11-09 18h37.29.494432 +0530,
111,0,111,s,0.8733506999997189,None,111,0,111,0,324.55725299999176,,,,,,,,,,,,,,,,,,,,,,,,,,,,,,,,,,,,,,,,,,,,,,,,,,324.5408980999928,324.55725299999176,325.05708319999394,325.04059459999553,325.0512224999984,325.05708319999394,325.05708319999394,325.05708319999394,325.940852300002,Objects\073a.jpg,mid,s,0.8733506999997189,None,,,,,,,,00020,001,2025-11-09_18h37.23.782,MST_test,2024.2.2,60.00218407692183,2025-11-09 18h37.29.494432 +0530,
112,0,112,s,0.7138186999945901,None,112,0,112,0,325.95708749999176,,,,,,,,,,,,,,,,,,,,,,,,,,,,,,,,,,,,,,,,,,,,,,,,,,325.9409287000017,325.95708749999176,326.45727149999584,326.4406062999915,326.4464968999964,326.45727149999584,326.45727149999584,326.45727149999584,327.17399399999704,Foils\scenes1.jpg,none,s,0.7138186999945901,None,,,,,,,,00020,001,2025-11-09_18h37.23.782,MST_test,2024.2.2,60.00218407692183,2025-11-09 18h37.29.494432 +0530,
113,0,113,s,0.7247715999983484,None,113,0,113,0,327.19042299999273,,,,,,,,,,,,,,,,,,,,,,,,,,,,,,,,,,,,,,,,,,,,,,,,,,327.1740684999968,327.19042299999273,327.7240271999908,327.6738423999923,327.7173066999967,327.7240271999908,327.7240271999908,327.7240271999908,328.4575119999936,Scenes\090b.jpg,mid,s,0.7247715999983484,None,,,,,,,,00020,001,2025-11-09_18h37.23.782,MST_test,2024.2.2,60.00218407692183,2025-11-09 18h37.29.494432 +0530,
114,0,114,s,0.845663499989314,None,114,0,114,0,328.47366899999906,,,,,,,,,,,,,,,,,,,,,,,,,,,,,,,,,,,,,,,,,,,,,,,,,,328.4575926999969,328.47366899999906,328.97356839998974,328.9571610999992,328.9687481000001,328.97356839998974,328.97356839998974,328.97356839998974,329.8240201000008,Objects\091a.jpg,mid,s,0.845663499989314,None,,,,,,,,00020,001,2025-11-09_18h37.23.782,MST_test,2024.2.2,60.00218407692183,2025-11-09 18h37.29.494432 +0530,
115,0,115,o,0.7603977999970084,None,115,0,115,0,329.8402505999984,,,,,,,,,,,,,,,,,,,,,,,,,,,,,,,,,,,,,,,,,,,,,,,,,,329.82409499998903,329.8402505999984,330.34020109999983,330.32385069999145,330.33410509998794,330.34020109999983,330.34020109999983,330.34020109999983,331.10724719999416,Objects\153a.jpg,post,o,0.7603977999970084,None,,,,,,,,00020,001,2025-11-09_18h37.23.782,MST_test,2024.2.2,60.00218407692183,2025-11-09 18h37.29.494432 +0530,
116,0,116,n,1.766785500003607,None,116,0,116,0,331.12354380000033,,,,,,,,,,,,,,,,,,,,,,,,,,,,,,,,,,,,,,,,,,,,,,,,,,331.10732989999815,331.12354380000033,331.6402020999958,331.6071896999929,331.6226350999932,331.6402020999958,331.6402020999958,331.6402020999958,333.40738559998863,Foils\026a.jpg,none,n,1.766785500003607,None,,,,,,,,00020,001,2025-11-09_18h37.23.782,MST_test,2024.2.2,60.00218407692183,2025-11-09 18h37.29.494432 +0530,
117,0,117,n,1.5945255999977235,None,117,0,117,0,333.4235001999914,,,,,,,,,,,,,,,,,,,,,,,,,,,,,,,,,,,,,,,,,,,,,,,,,,333.4074660999904,333.4235001999914,333.9402998000005,333.9069537999894,333.9283102999907,333.9402998000005,333.9402998000005,333.9402998000005,335.5405380000011,Scenes\071b.jpg,post,n,1.5945255999977235,None,,,,,,,,00020,001,2025-11-09_18h37.23.782,MST_test,2024.2.2,60.00218407692183,2025-11-09 18h37.29.494432 +0530,
118,0,118,n,0.9980280999880051,None,118,0,118,0,335.55678509999416,,,,,,,,,,,,,,,,,,,,,,,,,,,,,,,,,,,,,,,,,,,,,,,,,,335.54061779999756,335.55678509999416,336.0569533999951,336.0402458999888,336.04731999999785,336.0569533999951,336.0569533999951,336.0569533999951,337.0570405999897,Foils\scenes19.jpg,none,n,0.9980280999880051,None,,,,,,,,00020,001,2025-11-09_18h37.23.782,MST_test,2024.2.2,60.00218407692183,2025-11-09 18h37.29.494432 +0530,
119,0,119,n,2.094717900006799,None,119,0,119,0,337.07344749999174,,,,,,,,,,,,,,,,,,,,,,,,,,,,,,,,,,,,,,,,,,,,,,,,,,337.05712459998904,337.07344749999174,337.59043169999495,337.5569792999886,337.5754976999888,337.59043169999495,337.59043169999495,337.59043169999495,339.6903081999917,Scenes\050b.jpg,post,n,2.094717900006799,None,,,,,,,,00020,001,2025-11-09_18h37.23.782,MST_test,2024.2.2,60.00218407692183,2025-11-09 18h37.29.494432 +0530,
120,0,120,s,1.8298956000071485,None,120,0,120,0,339.7066724999895,,,,,,,,,,,,,,,,,,,,,,,,,,,,,,,,,,,,,,,,,,,,,,,,,,339.6903908999957,339.7066724999895,340.2233552999969,340.19013489999634,340.21248309999646,340.2233552999969,340.2233552999969,340.2233552999969,342.0570566999959,Scenes\089a.jpg,pre,s,1.8298956000071485,None,,,,,,,,00020,001,2025-11-09_18h37.23.782,MST_test,2024.2.2,60.00218407692183,2025-11-09 18h37.29.494432 +0530,
121,0,121,s,0.8833043000049656,None,121,0,121,0,342.0733174999914,,,,,,,,,,,,,,,,,,,,,,,,,,,,,,,,,,,,,,,,,,,,,,,,,,342.05714699999953,342.0733174999914,342.57347740000114,342.55680510000093,342.5672515999904,342.57347740000114,342.57347740000114,342.57347740000114,343.4735074999917,Objects\105a.jpg,mid,s,0.8833043000049656,None,,,,,,,,00020,001,2025-11-09_18h37.23.782,MST_test,2024.2.2,60.00218407692183,2025-11-09 18h37.29.494432 +0530,
122,0,122,o,0.6309584999980871,None,122,0,122,0,343.4899708000012,,,,,,,,,,,,,,,,,,,,,,,,,,,,,,,,,,,,,,,,,,,,,,,,,,343.47358799999347,343.4899708000012,343.98990289999347,343.97353229999135,343.9848625000013,343.98990289999347,343.98990289999347,343.98990289999347,344.62358400000085,Objects\095a.jpg,mid,o,0.6309584999980871,None,,,,,,,,00020,001,2025-11-09_18h37.23.782,MST_test,2024.2.2,60.00218407692183,2025-11-09 18h37.29.494432 +0530,
123,0,123,o,1.1785640000016429,None,123,0,123,0,344.6399262999912,,,,,,,,,,,,,,,,,,,,,,,,,,,,,,,,,,,,,,,,,,,,,,,,,,344.6236549999885,344.6399262999912,345.13992329999746,345.1234805999993,345.1340594999929,345.13992329999746,345.13992329999746,345.13992329999746,346.3234567999898,Objects\036a.jpg,post,o,1.1785640000016429,None,,,,,,,,00020,001,2025-11-09_18h37.23.782,MST_test,2024.2.2,60.00218407692183,2025-11-09 18h37.29.494432 +0530,
124,0,124,s,1.1107566999999108,None,124,0,124,0,346.3398823999887,,,,,,,,,,,,,,,,,,,,,,,,,,,,,,,,,,,,,,,,,,,,,,,,,,346.3235336999933,346.3398823999887,346.83988279999176,346.82346210000105,346.8334343999886,346.83988279999176,346.83988279999176,346.83988279999176,347.9568137999886,Objects\014a.jpg,pre,s,1.1107566999999108,None,,,,,,,,00020,001,2025-11-09_18h37.23.782,MST_test,2024.2.2,60.00218407692183,2025-11-09 18h37.29.494432 +0530,
125,0,125,s,1.223029000000679,None,125,0,125,0,347.97318259999156,,,,,,,,,,,,,,,,,,,,,,,,,,,,,,,,,,,,,,,,,,,,,,,,,,347.9568881000014,347.97318259999156,348.48984299998847,348.45665649999864,348.4729376999894,348.48984299998847,348.48984299998847,348.48984299998847,349.7235745999933,Objects\178b.jpg,mid,s,1.223029000000679,None,,,,,,,,00020,001,2025-11-09_18h37.23.782,MST_test,2024.2.2,60.00218407692183,2025-11-09 18h37.29.494432 +0530,
126,0,126,o,1.1165130000008503,None,126,0,126,0,349.7398148999928,,,,,,,,,,,,,,,,,,,,,,,,,,,,,,,,,,,,,,,,,,,,,,,,,,349.72365609998815,349.7398148999928,350.25675409998803,350.2233292000019,350.24229559999367,350.25675409998803,350.25675409998803,350.25675409998803,351.3735749999905,Scenes\079a.jpg,mid,o,1.1165130000008503,None,,,,,,,,00020,001,2025-11-09_18h37.23.782,MST_test,2024.2.2,60.00218407692183,2025-11-09 18h37.29.494432 +0530,
127,0,127,n,1.3942737000033958,None,127,0,127,0,351.3898010999983,,,,,,,,,,,,,,,,,,,,,,,,,,,,,,,,,,,,,,,,,,,,,,,,,,351.3736573999922,351.3898010999983,351.90660819999175,351.87337750000006,351.89780969999265,351.90660819999175,351.90660819999175,351.90660819999175,353.30683669999416,Scenes\002b.jpg,post,n,1.3942737000033958,None,,,,,,,,00020,001,2025-11-09_18h37.23.782,MST_test,2024.2.2,60.00218407692183,2025-11-09 18h37.29.494432 +0530,
128,0,128,o,1.3995670000003884,None,128,0,128,0,353.3230315999972,,,,,,,,,,,,,,,,,,,,,,,,,,,,,,,,,,,,,,,,,,,,,,,,,,353.30691990000196,353.3230315999972,353.8232379999972,353.8065948000003,353.81701259998954,353.8232379999972,353.8232379999972,353.8232379999972,355.2234405999916,Objects\187a.jpg,post,o,1.3995670000003884,None,,,,,,,,00020,001,2025-11-09_18h37.23.782,MST_test,2024.2.2,60.00218407692183,2025-11-09 18h37.29.494432 +0530,
129,0,129,s,0.7188179000077071,None,129,0,129,0,355.23969839999336,,,,,,,,,,,,,,,,,,,,,,,,,,,,,,,,,,,,,,,,,,,,,,,,,,355.22352339999634,355.23969839999336,355.75632129999576,355.72315789999266,355.7396896999999,355.75632129999576,355.75632129999576,355.75632129999576,356.48994239998865,Foils\042a.jpg,none,s,0.7188179000077071,None,,,,,,,,00020,001,2025-11-09_18h37.23.782,MST_test,2024.2.2,60.00218407692183,2025-11-09 18h37.29.494432 +0530,
130,0,130,s,0.6721716000029119,None,130,0,130,0,356.5063461999962,,,,,,,,,,,,,,,,,,,,,,,,,,,,,,,,,,,,,,,,,,,,,,,,,,356.4900137999939,356.5063461999962,357.0063111999916,356.9899321999983,357.0010809999949,357.0063111999916,357.0063111999916,357.0063111999916,357.69007549999515,Foils\018a.jpg,none,s,0.6721716000029119,None,,,,,,,,00020,001,2025-11-09_18h37.23.782,MST_test,2024.2.2,60.00218407692183,2025-11-09 18h37.29.494432 +0530,
131,0,131,n,1.932729299995117,None,131,0,131,0,357.7063016999891,,,,,,,,,,,,,,,,,,,,,,,,,,,,,,,,,,,,,,,,,,,,,,,,,,357.6901550999901,357.7063016999891,358.2398908999894,358.18978029998834,358.22712299998966,358.2398908999894,358.2398908999894,358.2398908999894,360.1733424999984,Foils\scenes28.jpg,none,n,1.932729299995117,None,,,,,,,,00020,001,2025-11-09_18h37.23.782,MST_test,2024.2.2,60.00218407692183,2025-11-09 18h37.29.494432 +0530,
132,0,132,s,1.4515147999918554,None,132,0,132,0,360.18959739999264,,,,,,,,,,,,,,,,,,,,,,,,,,,,,,,,,,,,,,,,,,,,,,,,,,360.1734318999952,360.18959739999264,360.72309600000153,360.6731570999982,360.71219059999567,360.72309600000153,360.72309600000153,360.72309600000153,362.18997539998963,Scenes\139b.jpg,mid,s,1.4515147999918554,None,,,,,,,,00020,001,2025-11-09_18h37.23.782,MST_test,2024.2.2,60.00218407692183,2025-11-09 18h37.29.494432 +0530,
133,0,133,s,0.7881584999995539,None,133,0,133,0,362.20620789998793,,,,,,,,,,,,,,,,,,,,,,,,,,,,,,,,,,,,,,,,,,,,,,,,,,362.19005729998753,362.20620789998793,362.7063832999993,362.68981129999156,362.70051989999774,362.7063832999993,362.7063832999993,362.7063832999993,363.50654619999113,Objects\059a.jpg,mid,s,0.7881584999995539,None,,,,,,,,00020,001,2025-11-09_18h37.23.782,MST_test,2024.2.2,60.00218407692183,2025-11-09 18h37.29.494432 +0530,
134,0,134,o,0.769778599991696,None,134,0,134,0,363.5228403999936,,,,,,,,,,,,,,,,,,,,,,,,,,,,,,,,,,,,,,,,,,,,,,,,,,363.50662469999224,363.5228403999936,364.0228039999929,364.0063311999984,364.0167203999881,364.0228039999929,364.0228039999929,364.0228039999929,364.80653989998973,Objects\132a.jpg,mid,o,0.769778599991696,None,,,,,,,,00020,001,2025-11-09_18h37.23.782,MST_test,2024.2.2,60.00218407692183,2025-11-09 18h37.29.494432 +0530,
135,0,135,n,3.129381100006867,None,135,0,135,0,364.82281669999065,,,,,,,,,,,,,,,,,,,,,,,,,,,,,,,,,,,,,,,,,,,,,,,,,,364.80661919999693,364.82281669999065,365.3394869999902,365.30633389999275,365.32846189998963,365.3394869999902,365.3394869999902,365.3394869999902,368.4731635999924,Scenes\111b.jpg,pre,n,3.129381100006867,None,,,,,,,,00020,001,2025-11-09_18h37.23.782,MST_test,2024.2.2,60.00218407692183,2025-11-09 18h37.29.494432 +0530,
136,0,136,n,1.1369580000027781,None,136,0,136,0,368.4894024999958,,,,,,,,,,,,,,,,,,,,,,,,,,,,,,,,,,,,,,,,,,,,,,,,,,368.473245199988,368.4894024999958,368.9893633999891,368.9730833999929,368.98309949999384,368.9893633999891,368.9893633999891,368.9893633999891,370.1397139999899,Foils\121a.jpg,none,n,1.1369580000027781,None,,,,,,,,00020,001,2025-11-09_18h37.23.782,MST_test,2024.2.2,60.00218407692183,2025-11-09 18h37.29.494432 +0530,
137,0,137,s,3.1625124999991385,None,137,0,137,0,370.15603489999194,,,,,,,,,,,,,,,,,,,,,,,,,,,,,,,,,,,,,,,,,,,,,,,,,,370.1397872999951,370.15603489999194,370.67272239999147,370.6395638999966,370.666138200002,370.67272239999147,370.67272239999147,370.67272239999147,373.83971829999064,Objects\056b.jpg,post,s,3.1625124999991385,None,,,,,,,,00020,001,2025-11-09_18h37.23.782,MST_test,2024.2.2,60.00218407692183,2025-11-09 18h37.29.494432 +0530,
138,0,138,n,1.5868430999980774,None,138,0,138,0,373.8559233999986,,,,,,,,,,,,,,,,,,,,,,,,,,,,,,,,,,,,,,,,,,,,,,,,,,373.8398058999883,373.8559233999986,374.3559083,374.3394236999884,374.3491109999886,374.3559083,374.3559083,374.3559083,375.95626799999445,Foils\057a.jpg,none,n,1.5868430999980774,None,,,,,,,,00020,001,2025-11-09_18h37.23.782,MST_test,2024.2.2,60.00218407692183,2025-11-09 18h37.29.494432 +0530,
139,0,139,s,0.6251043000083882,None,139,0,139,0,375.97257199999876,,,,,,,,,,,,,,,,,,,,,,,,,,,,,,,,,,,,,,,,,,,,,,,,,,375.9563491000008,375.97257199999876,376.4725785999908,376.4561098999984,376.4656793999893,376.4725785999908,376.4725785999908,376.4725785999908,377.1062266999943,Objects\100a.jpg,pre,s,0.6251043000083882,None,,,,,,,,00020,001,2025-11-09_18h37.23.782,MST_test,2024.2.2,60.00218407692183,2025-11-09 18h37.29.494432 +0530,
140,0,140,s,0.8844474000070477,None,140,0,140,0,377.1225642999925,,,,,,,,,,,,,,,,,,,,,,,,,,,,,,,,,,,,,,,,,,,,,,,,,,377.1063021000009,377.1225642999925,377.6225052999944,377.60603759999503,377.6151562999876,377.6225052999944,377.6225052999944,377.6225052999944,378.52284520000103,Objects\076a.jpg,post,s,0.8844474000070477,None,,,,,,,,00020,001,2025-11-09_18h37.23.782,MST_test,2024.2.2,60.00218407692183,2025-11-09 18h37.29.494432 +0530,
141,0,141,s,0.9031091000069864,None,141,0,141,0,378.53921059999266,,,,,,,,,,,,,,,,,,,,,,,,,,,,,,,,,,,,,,,,,,,,,,,,,,378.522922499993,378.53921059999266,379.0560773999896,379.0226685999951,379.0358465999889,379.0560773999896,379.0560773999896,379.0560773999896,379.97285679999914,Foils\scenes2.jpg,none,s,0.9031091000069864,None,,,,,,,,00020,001,2025-11-09_18h37.23.782,MST_test,2024.2.2,60.00218407692183,2025-11-09 18h37.29.494432 +0530,
142,0,142,s,1.6828806999983499,None,142,0,142,0,379.98918499999854,,,,,,,,,,,,,,,,,,,,,,,,,,,,,,,,,,,,,,,,,,,,,,,,,,379.9729449000006,379.98918499999854,380.506011999998,380.472743499995,380.50012199999765,380.506011999998,380.506011999998,380.506011999998,382.1895121999987,Scenes\122b.jpg,mid,s,1.6828806999983499,None,,,,,,,,00020,001,2025-11-09_18h37.23.782,MST_test,2024.2.2,60.00218407692183,2025-11-09 18h37.29.494432 +0530,
143,0,143,s,1.8194178999983706,None,143,0,143,0,382.2057988999877,,,,,,,,,,,,,,,,,,,,,,,,,,,,,,,,,,,,,,,,,,,,,,,,,,382.18958459999703,382.2057988999877,382.73909479999566,382.6892358999903,382.72199179999006,382.73909479999566,382.73909479999566,382.73909479999566,384.5729275999911,Objects\121b.jpg,mid,s,1.8194178999983706,None,,,,,,,,00020,001,2025-11-09_18h37.23.782,MST_test,2024.2.2,60.00218407692183,2025-11-09 18h37.29.494432 +0530,
144,0,144,s,0.6333831999945687,None,144,0,144,0,384.5890537999949,,,,,,,,,,,,,,,,,,,,,,,,,,,,,,,,,,,,,,,,,,,,,,,,,,384.5730188000016,384.5890537999949,385.0890075999923,385.0725264999928,385.08276710000064,385.0890075999923,385.0890075999923,385.0890075999923,385.7228500999918,Objects\173a.jpg,post,s,0.6333831999945687,None,,,,,,,,00020,001,2025-11-09_18h37.23.782,MST_test,2024.2.2,60.00218407692183,2025-11-09 18h37.29.494432 +0530,
145,0,145,n,1.90586150001036,None,145,0,145,0,385.73903129999235,,,,,,,,,,,,,,,,,,,,,,,,,,,,,,,,,,,,,,,,,,,,,,,,,,385.7229324999935,385.73903129999235,386.25589949999994,386.2225846999936,386.23906789999455,386.25589949999994,386.25589949999994,386.25589949999994,388.17267359999823,Foils\scenes7.jpg,none,n,1.90586150001036,None,,,,,,,,00020,001,2025-11-09_18h37.23.782,MST_test,2024.2.2,60.00218407692183,2025-11-09 18h37.29.494432 +0530,
146,0,146,s,1.7471814999880735,None,146,0,146,0,388.1889747999958,,,,,,,,,,,,,,,,,,,,,,,,,,,,,,,,,,,,,,,,,,,,,,,,,,388.1727577999991,388.1889747999958,388.7058593999973,388.6725174999883,388.7003684999945,388.7058593999973,388.7058593999973,388.7058593999973,390.4559001999878,Scenes\011b.jpg,pre,s,1.7471814999880735,None,,,,,,,,00020,001,2025-11-09_18h37.23.782,MST_test,2024.2.2,60.00218407692183,2025-11-09 18h37.29.494432 +0530,
147,0,147,s,0.7599668000038946,None,147,0,147,0,390.4722235999943,,,,,,,,,,,,,,,,,,,,,,,,,,,,,,,,,,,,,,,,,,,,,,,,,,390.45598400000017,390.4722235999943,390.98889889998827,390.9557858999906,390.9792019999877,390.98889889998827,390.98889889998827,390.98889889998827,391.7559792999964,Objects\120b.jpg,post,s,0.7599668000038946,None,,,,,,,,00020,001,2025-11-09_18h37.23.782,MST_test,2024.2.2,60.00218407692183,2025-11-09 18h37.29.494432 +0530,
148,0,148,s,0.8110421000019414,None,148,0,148,0,391.77223109999613,,,,,,,,,,,,,,,,,,,,,,,,,,,,,,,,,,,,,,,,,,,,,,,,,,391.7560622000019,391.77223109999613,392.27217939999537,392.255768499992,392.26710519999324,392.27217939999537,392.27217939999537,392.27217939999537,393.08921059999557,Objects\049a.jpg,pre,s,0.8110421000019414,None,,,,,,,,00020,001,2025-11-09_18h37.23.782,MST_test,2024.2.2,60.00218407692183,2025-11-09 18h37.29.494432 +0530,
149,0,149,o,0.5566218000021763,None,149,0,149,0,393.10553380000056,,,,,,,,,,,,,,,,,,,,,,,,,,,,,,,,,,,,,,,,,,,,,,,,,,393.0892840999877,393.10553380000056,393.6221557999961,393.5891177000012,393.6055548000004,393.6221557999961,393.6221557999961,393.6221557999961,394.1890735999914,Objects\063b.jpg,post,o,0.5566218000021763,None,,,,,,,,00020,001,2025-11-09_18h37.23.782,MST_test,2024.2.2,60.00218407692183,2025-11-09 18h37.29.494432 +0530,
,,,,,,,,,,,,,,,,,,,,,,,,,,,,,,,,,,,,,,,,,,,,,,,,,,,,,,,,,,,,,,,,,,,,,,,,,,394.18913089999114,394.2055102999875,394.2055102999875,396.2725325999927,space,2.0590655999985756,None,00020,001,2025-11-09_18h37.23.782,MST_test,2024.2.2,60.00218407692183,2025-11-09 18h37.29.494432 +0530,
