Sl_no,image_path,thisN,thisTrialN,thisRepN,key_resp_5.keys,key_resp_7.keys,key_resp_7.rt,key_resp_7.duration,key_resp_5.rt,key_resp_5.duration,key_resp_9.keys,key_resp_9.rt,key_resp_9.duration,key_resp_8.keys,key_resp_8.rt,key_resp_8.duration,practice.thisRepN,practice.thisTrialN,practice.thisN,trials.thisRepN,trials.thisTrialN,trials.thisN,thisRow.t,notes,welcome_page.started,text.started,key_resp.started,welcome_page.stopped,key_resp.keys,key_resp.rt,key_resp.duration,instructions.started,ins.started,key_resp_2.started,instructions.stopped,key_resp_2.keys,key_resp_2.rt,key_resp_2.duration,instructions_2.started,text_10.started,key_resp_10.started,instructions_2.stopped,key_resp_10.keys,key_resp_10.rt,key_resp_10.duration,objects_only_instruction.started,text_3.started,key_resp_3.started,objects_only_instruction.stopped,key_resp_3.keys,key_resp_3.rt,key_resp_3.duration,ISI.started,text_4.started,ISI.stopped,practice_block.started,image.started,text_5.started,key_resp_5.started,practice_block.stopped,practice.key_resp_5.keys,indoor_outdoor.started,text_7.started,key_resp_7.started,indoor_outdoor.stopped,practice.key_resp_7.keys,practice.key_resp_7.rt,practice.key_resp_7.duration,text_4.stopped,image.stopped,text_5.stopped,key_resp_5.stopped,practice.key_resp_5.rt,practice.key_resp_5.duration,practice_to_main.started,text_2.started,key_resp_4.started,practice_to_main.stopped,key_resp_4.keys,key_resp_4.rt,key_resp_4.duration,objects.started,image_2.started,text_9.started,key_resp_9.started,objects.stopped,trials.key_resp_9.keys,trials.key_resp_9.rt,trials.key_resp_9.duration,encoding_task.started,encoding_task.stopped,trials.key_resp_8.keys,image_2.stopped,text_9.stopped,key_resp_9.stopped,text_8.started,key_resp_8.started,trials.key_resp_8.rt,trials.key_resp_8.duration,end_experiment.started,text_6.started,key_resp_6.started,end_experiment.stopped,key_resp_6.keys,key_resp_6.rt,key_resp_6.duration,list_of_stimuli,encoding_task_accuracy,participant,session,date,expName,psychopyVersion,frameRate,expStart,
,,,,,,,,,,,,,,,,,,,,,,,,,0.0017919000001711538,0.004030300000522402,0.004030300000522402,744.0896064999997,space,744.0752326999991,None,,,,,,,,,,,,,,,,,,,,,,,,,,,,,,,,,,,,,,,,,,,,,,,,,,,,,,,,,,,,,,,,,,,,,,,,,,,,,,00028,001,2025-11-17_17h09.59.427,MST_task,2024.2.0,59.97688490841146,2025-11-17 17h10.06.168199 +0530,
,,,,,,,,,,,,,,,,,,,,,,,,,,,,,,,,744.0896862999998,744.1041845,744.1041845,762.5673815999999,space,18.44686619999993,None,,,,,,,,,,,,,,,,,,,,,,,,,,,,,,,,,,,,,,,,,,,,,,,,,,,,,,,,,,,,,,,,,,,,,,,00028,001,2025-11-17_17h09.59.427,MST_task,2024.2.0,59.97688490841146,2025-11-17 17h10.06.168199 +0530,
,,,,,,,,,,,,,,,,,,,,,,,,,,,,,,,,,,,,,,,762.5674899999995,762.5821959000004,762.5821959000004,776.2677872999993,space,13.6811146,None,,,,,,,,,,,,,,,,,,,,,,,,,,,,,,,,,,,,,,,,,,,,,,,,,,,,,,,,,,,,,,,,00028,001,2025-11-17_17h09.59.427,MST_task,2024.2.0,59.97688490841146,2025-11-17 17h10.06.168199 +0530,
,,,,,,,,,,,,,,,,,,,,,,,,,,,,,,,,,,,,,,,,,,,,,,776.2679165000009,776.2824889000003,776.2824889000003,793.7847841999992,space,17.492468799999187,None,,,,,,,,,,,,,,,,,,,,,,,,,,,,,,,,,,,,,,,,,,,,,,,,,,,,,,,,,00028,001,2025-11-17_17h09.59.427,MST_task,2024.2.0,59.97688490841146,2025-11-17 17h10.06.168199 +0530,
4,practice_images/002b.jpg,0,0,1,None,f,0.45925399999941874,None,,,,,,,,,1,0,0,,,,793.8053614,,,,,,,,,,,,,,,,,,,,,,,,,,,,,,793.8026847000001,793.8053614,794.2993260999992,794.3196626000008,794.3313753000002,794.3313753000002,794.3313753000002,797.2999646999997,None,797.3066206999993,797.3155896999997,797.3155896999997,797.7839889000006,f,0.45925399999941874,None,,,,,,,,,,,,,,,,,,,,,,,,,,,,,,,,,,,,,,,,,00028,001,2025-11-17_17h09.59.427,MST_task,2024.2.0,59.97688490841146,2025-11-17 17h10.06.168199 +0530,
6,practice_images/158a.jpg,1,1,1,j,None,,,1.7473262999992585,0.16098590000001423,,,,,,,1,1,1,,,,797.7990327999996,,,,,,,,,,,,,,,,,,,,,,,,,,,,,,797.7843484999994,797.7990327999996,798.2834411000003,798.2973643999994,798.2997570999996,798.2997570999996,798.2997570999996,801.2838252000001,j,801.2839827999996,,,801.2840455000005,None,,,798.2997570999996,801.2991750000001,801.2991750000001,801.2991750000001,1.7473262999992585,0.16098590000001423,,,,,,,,,,,,,,,,,,,,,,,,,,,,,,,,,,,00028,001,2025-11-17_17h09.59.427,MST_task,2024.2.0,59.97688490841146,2025-11-17 17h10.06.168199 +0530,
1,practice_images/013a.jpg,2,2,1,j,None,,,2.9600475000006554,None,,,,,,,1,2,2,,,,801.2991750000001,,,,,,,,,,,,,,,,,,,,,,,,,,,,,,801.2843453000005,801.2991750000001,801.7834366000006,801.7961668000007,801.7992324999996,801.7992324999996,801.7992324999996,804.7837381000008,j,804.7839003000008,,,804.7839657999994,None,,,801.7992324999996,804.7991547999991,804.7991547999991,804.7991547999991,2.9600475000006554,None,,,,,,,,,,,,,,,,,,,,,,,,,,,,,,,,,,,00028,001,2025-11-17_17h09.59.427,MST_task,2024.2.0,59.97688490841146,2025-11-17 17h10.06.168199 +0530,
7,practice_images/166a.jpg,3,3,1,f,None,,,1.4994571000006545,0.15213500000027125,,,,,,,1,3,3,,,,804.7991547999991,,,,,,,,,,,,,,,,,,,,,,,,,,,,,,804.7842459000003,804.7991547999991,805.2835804000006,805.2947992000009,805.2992410999996,805.2992410999996,805.2992410999996,808.2838766999994,f,808.2840264000006,,,808.2840845999999,None,,,805.2992410999996,808.2990484999991,808.2990484999991,808.2990484999991,1.4994571000006545,0.15213500000027125,,,,,,,,,,,,,,,,,,,,,,,,,,,,,,,,,,,00028,001,2025-11-17_17h09.59.427,MST_task,2024.2.0,59.97688490841146,2025-11-17 17h10.06.168199 +0530,
5,practice_images/139a.jpg,4,4,1,f,None,,,1.1680135000005976,0.16762289999860513,,,,,,,1,4,4,,,,808.2990484999991,,,,,,,,,,,,,,,,,,,,,,,,,,,,,,808.2843396999997,808.2990484999991,808.7834354000006,808.7951721999998,808.7990805999998,808.7990805999998,808.7990805999998,811.7839158000006,f,811.7840978000004,,,811.7841614999998,None,,,808.7990805999998,811.7990836000008,811.7990836000008,811.7990836000008,1.1680135000005976,0.16762289999860513,,,,,,,,,,,,,,,,,,,,,,,,,,,,,,,,,,,00028,001,2025-11-17_17h09.59.427,MST_task,2024.2.0,59.97688490841146,2025-11-17 17h10.06.168199 +0530,
8,practice_images/178a.jpg,5,5,1,f,None,,,2.9678491999984544,None,,,,,,,1,5,5,,,,811.7990836000008,,,,,,,,,,,,,,,,,,,,,,,,,,,,,,811.7844418999994,811.7990836000008,812.2834416000005,812.3010045999999,812.3034733000004,812.3034733000004,812.3034733000004,815.2995972999997,f,815.3064868000001,,,815.3065121,None,,,812.3034733000004,,,,2.9678491999984544,None,,,,,,,,,,,,,,,,,,,,,,,,,,,,,,,,,,,00028,001,2025-11-17_17h09.59.427,MST_task,2024.2.0,59.97688490841146,2025-11-17 17h10.06.168199 +0530,
10,practice_images/182a.jpg,6,6,1,f,None,,,1.1326062000007369,0.16015100000004168,,,,,,,1,6,6,,,,815.3154462000002,,,,,,,,,,,,,,,,,,,,,,,,,,,,,,815.3066032000006,815.3154462000002,815.8003829999998,815.8159665999992,815.8183730000001,815.8183730000001,815.8183730000001,818.8162532999995,f,818.8164006000006,,,818.8164632999997,None,,,815.8183730000001,,,,1.1326062000007369,0.16015100000004168,,,,,,,,,,,,,,,,,,,,,,,,,,,,,,,,,,,00028,001,2025-11-17_17h09.59.427,MST_task,2024.2.0,59.97688490841146,2025-11-17 17h10.06.168199 +0530,
9,practice_images/180a.jpg,7,7,1,j,None,,,1.2417401000002428,0.16822209999918414,,,,,,,1,7,7,,,,818.8323414999995,,,,,,,,,,,,,,,,,,,,,,,,,,,,,,818.8167541000003,818.8323414999995,819.3169644000009,819.3301446999994,819.3327346999995,819.3327346999995,819.3327346999995,822.3169357000006,j,822.3170931999994,,,822.3171554,None,,,819.3327346999995,822.3322031000007,822.3322031000007,822.3322031000007,1.2417401000002428,0.16822209999918414,,,,,,,,,,,,,,,,,,,,,,,,,,,,,,,,,,,00028,001,2025-11-17_17h09.59.427,MST_task,2024.2.0,59.97688490841146,2025-11-17 17h10.06.168199 +0530,
3,practice_images/037a.jpg,8,8,1,f,None,,,1.6779108999999153,0.16804489999958605,,,,,,,1,8,8,,,,822.3322031000007,,,,,,,,,,,,,,,,,,,,,,,,,,,,,,822.3174361999991,822.3322031000007,822.8165164999991,822.8303254000002,822.8328056999999,822.8328056999999,822.8328056999999,825.8169397000001,f,825.8170826999994,,,825.8171763999999,None,,,822.8328056999999,825.8320717999995,825.8320717999995,825.8320717999995,1.6779108999999153,0.16804489999958605,,,,,,,,,,,,,,,,,,,,,,,,,,,,,,,,,,,00028,001,2025-11-17_17h09.59.427,MST_task,2024.2.0,59.97688490841146,2025-11-17 17h10.06.168199 +0530,
2,practice_images/031a.jpg,9,9,1,f,None,,,2.162266900000759,0.1757934999986901,,,,,,,1,9,9,,,,825.8320717999995,,,,,,,,,,,,,,,,,,,,,,,,,,,,,,825.8174624000003,825.8320717999995,826.3165637999991,826.3301995999991,826.3326823999996,826.3326823999996,826.3326823999996,829.3174878999998,f,829.3176543000009,,,829.3177204000003,None,,,826.3326823999996,829.3334448000005,829.3334448000005,829.3334448000005,2.162266900000759,0.1757934999986901,,,,,,,,,,,,,,,,,,,,,,,,,,,,,,,,,,,00028,001,2025-11-17_17h09.59.427,MST_task,2024.2.0,59.97688490841146,2025-11-17 17h10.06.168199 +0530,
,,,,,,,,,,,,,,,,,,,,,,,,,,,,,,,,,,,,,,,,,,,,,,,,,,,,,,,,,,,,,,,,,,,,,,,,,,,829.3179118999997,829.3334448000005,829.3334448000005,847.6845902000005,space,18.345681899998453,None,,,,,,,,,,,,,,,,,,,,,,,,,,,,00028,001,2025-11-17_17h09.59.427,MST_task,2024.2.0,59.97688490841146,2025-11-17 17h10.06.168199 +0530,
,Scenes\063a.jpg,0,0,1,,,,,,,j,1.4917826000000787,0.14402779999909399,None,,,,,,1,0,0,847.6988868000008,,,,,,,,,,,,,,,,,,,,,,,,,,,,,,847.6875058999995,847.6988868000008,848.1833953000005,,,,,,,,,,,,,,848.2034602999993,,,,,,,,,,,,,848.1997671999998,848.2034602999993,848.2034602999993,848.2034602999993,851.1995824000005,j,1.4917826000000787,0.14402779999909399,851.2056045000008,851.2056472000004,None,,,,,,,,,,,,,,,,,00028,001,2025-11-17_17h09.59.427,MST_task,2024.2.0,59.97688490841146,2025-11-17 17h10.06.168199 +0530,
,Scenes\068a.jpg,1,0,2,,,,,,,j,1.0186599000007845,0.1522886999991897,None,,,,,,2,0,1,851.2155953000001,,,,,,,,,,,,,,,,,,,,,,,,,,,,,,851.2058577999996,851.2155953000001,851.6989706000004,,,,,,,,,,,,,,851.7164114999996,,,,,,,,,,,,,851.7086885000008,851.7164114999996,851.7164114999996,851.7164114999996,854.7009748,j,1.0186599000007845,0.1522886999991897,854.7011359999997,854.7011882000006,None,854.7156163,854.7156163,854.7156163,,,,,,,,,,,,,,00028,001,2025-11-17_17h09.59.427,MST_task,2024.2.0,59.97688490841146,2025-11-17 17h10.06.168199 +0530,
,Scenes\124a.jpg,2,0,3,,,,,,,j,1.981465599999865,0.16865659999893978,None,,,,,,3,0,2,854.7156163,,,,,,,,,,,,,,,,,,,,,,,,,,,,,,854.7015714000008,854.7156163,855.2000270999997,,,,,,,,,,,,,,855.2172572,,,,,,,,,,,,,855.2137060000005,855.2172572,855.2172572,855.2172572,858.2163418,j,1.981465599999865,0.16865659999893978,858.2165170999997,858.2165774999994,None,,,,,,,,,,,,,,,,,00028,001,2025-11-17_17h09.59.427,MST_task,2024.2.0,59.97688490841146,2025-11-17 17h10.06.168199 +0530,
,Scenes\188a.jpg,3,0,4,,,,,,,j,2.474271699999008,0.13599400000020978,None,,,,,,4,0,3,858.2321238000004,,,,,,,,,,,,,,,,,,,,,,,,,,,,,,858.2169892000002,858.2321238000004,858.7166536999994,,,,,,,,,,,,,,858.7329305999992,,,,,,,,,,,,,858.7287577999996,858.7329305999992,858.7329305999992,858.7329305999992,861.7176407999996,j,2.474271699999008,0.13599400000020978,861.7177826999996,861.7178268999996,None,861.7320206000004,861.7320206000004,861.7320206000004,,,,,,,,,,,,,,00028,001,2025-11-17_17h09.59.427,MST_task,2024.2.0,59.97688490841146,2025-11-17 17h10.06.168199 +0530,
,Scenes\040a.jpg,4,0,5,,,,,,,f,1.4922695999994176,0.18408959999942454,None,,,,,,5,0,4,861.7320206000004,,,,,,,,,,,,,,,,,,,,,,,,,,,,,,861.7180487000005,861.7320206000004,862.2166434999999,,,,,,,,,,,,,,862.2428407000007,,,,,,,,,,,,,862.2396258999997,862.2428407000007,862.2428407000007,862.2428407000007,865.2329613999991,f,1.4922695999994176,0.18408959999942454,865.2331316,865.2331909999994,None,,,,,,,,,,,,,,,,,00028,001,2025-11-17_17h09.59.427,MST_task,2024.2.0,59.97688490841146,2025-11-17 17h10.06.168199 +0530,
,Scenes\111a.jpg,5,0,6,,,,,,,None,,,f,1.4740501000014774,None,,,,6,0,5,865.2490307000007,,,,,,,,,,,,,,,,,,,,,,,,,,,,,,865.2336238999997,865.2490307000007,865.7334888999994,,,,,,,,,,,,,,865.7553573000005,,,,,,,,,,,,,865.7520485999994,865.7553573000005,865.7553573000005,865.7553573000005,868.7495008999995,None,,,868.7496179999998,870.2502504999993,f,,,,868.7656339000005,868.7656339000005,1.4740501000014774,None,,,,,,,,,,00028,001,2025-11-17_17h09.59.427,MST_task,2024.2.0,59.97688490841146,2025-11-17 17h10.06.168199 +0530,
,Scenes\066a.jpg,6,0,7,,,,,,,j,1.6334551999989344,0.1684703000009904,None,,,,,,7,0,6,870.2655347,,,,,,,,,,,,,,,,,,,,,,,,,,,,,,870.2505134000003,870.2655347,870.7502267,,,,,,,,,,,,,,870.7732971000005,,,,,,,,,,,,,870.7706130999995,870.7732971000005,870.7732971000005,870.7732971000005,873.7662423000002,j,1.6334551999989344,0.1684703000009904,873.7664115999996,873.7664850000001,None,,,,,,,,,,,,,,,,,00028,001,2025-11-17_17h09.59.427,MST_task,2024.2.0,59.97688490841146,2025-11-17 17h10.06.168199 +0530,
,Objects\158a.jpg,7,0,8,,,,,,,f,1.21390109999993,0.21583520000058343,None,,,,,,8,0,7,873.7821655999996,,,,,,,,,,,,,,,,,,,,,,,,,,,,,,873.7669697999991,873.7821655999996,874.2667614999991,,,,,,,,,,,,,,874.2892914999993,,,,,,,,,,,,,874.2861025999991,874.2892914999993,874.2892914999993,874.2892914999993,877.2827940999996,f,1.21390109999993,0.21583520000058343,877.2914154999999,877.2914519999995,None,,,,,,,,,,,,,,,,,00028,001,2025-11-17_17h09.59.427,MST_task,2024.2.0,59.97688490841146,2025-11-17 17h10.06.168199 +0530,
,Objects\079a.jpg,8,0,9,,,,,,,j,1.3837776000000304,0.17605170000024373,None,,,,,,9,0,8,877.2987224999997,,,,,,,,,,,,,,,,,,,,,,,,,,,,,,877.2916449999993,877.2987224999997,877.7832844999994,,,,,,,,,,,,,,877.7994111999997,,,,,,,,,,,,,877.7953185000006,877.7994111999997,877.7994111999997,877.7994111999997,880.7841255999992,j,1.3837776000000304,0.17605170000024373,880.7842970000002,880.7843850999998,None,880.7989529999995,880.7989529999995,880.7989529999995,,,,,,,,,,,,,,00028,001,2025-11-17_17h09.59.427,MST_task,2024.2.0,59.97688490841146,2025-11-17 17h10.06.168199 +0530,
,Objects\181a.jpg,9,0,10,,,,,,,j,2.009955599998648,0.20876680000037595,None,,,,,,10,0,9,880.7989529999995,,,,,,,,,,,,,,,,,,,,,,,,,,,,,,880.7848118000002,880.7989529999995,881.2835474000003,,,,,,,,,,,,,,881.3010049000004,,,,,,,,,,,,,881.2984964999996,881.3010049000004,881.3010049000004,881.3010049000004,884.2996820000008,j,2.009955599998648,0.20876680000037595,884.2998557999999,884.2999163000004,None,,,,,,,,,,,,,,,,,00028,001,2025-11-17_17h09.59.427,MST_task,2024.2.0,59.97688490841146,2025-11-17 17h10.06.168199 +0530,
,Objects\100a.jpg,10,0,11,,,,,,,f,1.3673527000009926,0.20806529999936174,None,,,,,,11,0,10,884.3156084999991,,,,,,,,,,,,,,,,,,,,,,,,,,,,,,884.3002603000004,884.3156084999991,884.8002121000009,,,,,,,,,,,,,,884.8157738999998,,,,,,,,,,,,,884.8078996000004,884.8157738999998,884.8157738999998,884.8157738999998,887.8015171000006,f,1.3673527000009926,0.20806529999936174,887.8016941999995,887.8017476000005,None,887.8157504999999,887.8157504999999,887.8157504999999,,,,,,,,,,,,,,00028,001,2025-11-17_17h09.59.427,MST_task,2024.2.0,59.97688490841146,2025-11-17 17h10.06.168199 +0530,
,Objects\166a.jpg,11,0,12,,,,,,,f,1.39441590000024,0.20839689999957045,None,,,,,,12,0,11,887.8157504999999,,,,,,,,,,,,,,,,,,,,,,,,,,,,,,887.8020230999991,887.8157504999999,888.3003783999993,,,,,,,,,,,,,,888.3164319999996,,,,,,,,,,,,,888.3136154999993,888.3164319999996,888.3164319999996,888.3164319999996,891.3011477,f,1.39441590000024,0.20839689999957045,891.3013288000002,891.3013881000006,None,891.3155893000003,891.3155893000003,891.3155893000003,,,,,,,,,,,,,,00028,001,2025-11-17_17h09.59.427,MST_task,2024.2.0,59.97688490841146,2025-11-17 17h10.06.168199 +0530,
,Objects\104a.jpg,12,0,13,,,,,,,f,1.029779200000121,0.20755370000006224,None,,,,,,13,0,12,891.3155893000003,,,,,,,,,,,,,,,,,,,,,,,,,,,,,,891.3018288000003,891.3155893000003,891.8002259000004,,,,,,,,,,,,,,891.8177778999998,,,,,,,,,,,,,891.8152331000001,891.8177778999998,891.8177778999998,891.8177778999998,894.8163043999994,f,1.029779200000121,0.20755370000006224,894.8164675999997,894.8165272999995,None,,,,,,,,,,,,,,,,,00028,001,2025-11-17_17h09.59.427,MST_task,2024.2.0,59.97688490841146,2025-11-17 17h10.06.168199 +0530,
,Objects\136a.jpg,13,0,14,,,,,,,f,1.3784172999985458,0.21602600000005623,None,,,,,,14,0,13,894.8323388000008,,,,,,,,,,,,,,,,,,,,,,,,,,,,,,894.8170998999994,894.8323388000008,895.3169307000007,,,,,,,,,,,,,,895.3324367000005,,,,,,,,,,,,,895.3250950000001,895.3324367000005,895.3324367000005,895.3324367000005,898.3175386999992,f,1.3784172999985458,0.21602600000005623,898.3177073000006,898.3177624,None,898.3322578000007,898.3322578000007,898.3322578000007,,,,,,,,,,,,,,00028,001,2025-11-17_17h09.59.427,MST_task,2024.2.0,59.97688490841146,2025-11-17 17h10.06.168199 +0530,
,Scenes\067a.jpg,14,0,15,,,,,,,f,1.8377778000012768,0.2480134999987058,None,,,,,,15,0,14,898.3322578000007,,,,,,,,,,,,,,,,,,,,,,,,,,,,,,898.3181906999998,898.3322578000007,898.8165597999996,,,,,,,,,,,,,,898.8330495999999,,,,,,,,,,,,,898.8298438999991,898.8330495999999,898.8330495999999,898.8330495999999,901.8176827999996,f,1.8377778000012768,0.2480134999987058,901.8220055999991,901.8220535,None,901.8319675999992,901.8319675999992,901.8319675999992,,,,,,,,,,,,,,00028,001,2025-11-17_17h09.59.427,MST_task,2024.2.0,59.97688490841146,2025-11-17 17h10.06.168199 +0530,
,Scenes\125a.jpg,15,0,16,,,,,,,j,1.1362533000010444,0.21600469999975758,None,,,,,,16,0,15,901.8319675999992,,,,,,,,,,,,,,,,,,,,,,,,,,,,,,901.8222236999991,901.8319675999992,902.3167606000006,,,,,,,,,,,,,,902.3432529999991,,,,,,,,,,,,,902.3400464999995,902.3432529999991,902.3432529999991,902.3432529999991,905.3328722000006,j,1.1362533000010444,0.21600469999975758,905.3330451000002,905.3331065000002,None,,,,,,,,,,,,,,,,,00028,001,2025-11-17_17h09.59.427,MST_task,2024.2.0,59.97688490841146,2025-11-17 17h10.06.168199 +0530,
,Scenes\023a.jpg,16,0,17,,,,,,,f,1.3058151000004727,0.22429099999862956,None,,,,,,17,0,16,905.3489121000002,,,,,,,,,,,,,,,,,,,,,,,,,,,,,,905.3335427000002,905.3489121000002,905.8334742000006,,,,,,,,,,,,,,905.8612365000008,,,,,,,,,,,,,905.8577946999994,905.8612365000008,905.8612365000008,905.8612365000008,908.8496207999997,f,1.3058151000004727,0.22429099999862956,908.8497848000006,908.8498467000009,None,,,,,,,,,,,,,,,,,00028,001,2025-11-17_17h09.59.427,MST_task,2024.2.0,59.97688490841146,2025-11-17 17h10.06.168199 +0530,
,Scenes\047a.jpg,17,0,18,,,,,,,j,1.2525120999998762,0.23209999999926367,None,,,,,,18,0,17,908.8656833000005,,,,,,,,,,,,,,,,,,,,,,,,,,,,,,908.8502831000005,908.8656833000005,909.3501572999994,,,,,,,,,,,,,,909.3789041,,,,,,,,,,,,,909.3752743000005,909.3789041,909.3789041,909.3789041,912.3663962999999,j,1.2525120999998762,0.23209999999926367,912.3665634999998,912.3666247000001,None,,,,,,,,,,,,,,,,,00028,001,2025-11-17_17h09.59.427,MST_task,2024.2.0,59.97688490841146,2025-11-17 17h10.06.168199 +0530,
,Scenes\087a.jpg,18,0,19,,,,,,,j,1.2525746999999683,0.21542060000138008,None,,,,,,19,0,18,912.3821635999993,,,,,,,,,,,,,,,,,,,,,,,,,,,,,,912.3670918000007,912.3821635999993,912.8665928999999,,,,,,,,,,,,,,912.8830214000009,,,,,,,,,,,,,912.8769050999999,912.8830214000009,912.8830214000009,912.8830214000009,915.8677112000005,j,1.2525746999999683,0.21542060000138008,915.8678946,915.8679546999992,None,915.8821755000008,915.8821755000008,915.8821755000008,,,,,,,,,,,,,,00028,001,2025-11-17_17h09.59.427,MST_task,2024.2.0,59.97688490841146,2025-11-17 17h10.06.168199 +0530,
,Scenes\101a.jpg,19,0,20,,,,,,,f,1.7764157999990857,0.23916970000027504,None,,,,,,20,0,19,915.8821755000008,,,,,,,,,,,,,,,,,,,,,,,,,,,,,,915.8682611999993,915.8821755000008,916.3667482000001,,,,,,,,,,,,,,916.3829941999993,,,,,,,,,,,,,916.3787157999996,916.3829941999993,916.3829941999993,916.3829941999993,919.3678553999998,f,1.7764157999990857,0.23916970000027504,919.3680165000005,919.3680681000005,None,919.3823408999997,919.3823408999997,919.3823408999997,,,,,,,,,,,,,,00028,001,2025-11-17_17h09.59.427,MST_task,2024.2.0,59.97688490841146,2025-11-17 17h10.06.168199 +0530,
,Scenes\159a.jpg,20,0,21,,,,,,,j,1.1352913999999146,0.22405000000071595,None,,,,,,21,0,20,919.3823408999997,,,,,,,,,,,,,,,,,,,,,,,,,,,,,,919.3683602000001,919.3823408999997,919.8666883000005,,,,,,,,,,,,,,919.8954235000001,,,,,,,,,,,,,919.8920681,919.8954235000001,919.8954235000001,919.8954235000001,922.8828083000008,j,1.1352913999999146,0.22405000000071595,922.8829741999998,922.8830340000004,None,,,,,,,,,,,,,,,,,00028,001,2025-11-17_17h09.59.427,MST_task,2024.2.0,59.97688490841146,2025-11-17 17h10.06.168199 +0530,
,Objects\059a.jpg,21,0,22,,,,,,,j,2.8410035999986576,None,None,,,,,,22,0,21,922.8989602999991,,,,,,,,,,,,,,,,,,,,,,,,,,,,,,922.8834645999996,922.8989602999991,923.3834246999995,,,,,,,,,,,,,,923.4056684000006,,,,,,,,,,,,,923.4020388999998,923.4056684000006,923.4056684000006,923.4056684000006,926.3995598000001,j,2.8410035999986576,None,926.4061075999998,926.4061407000008,None,,,,,,,,,,,,,,,,,00028,001,2025-11-17_17h09.59.427,MST_task,2024.2.0,59.97688490841146,2025-11-17 17h10.06.168199 +0530,
,Objects\042a.jpg,22,0,23,,,,,,,j,1.3967721999997593,0.1839975000002596,None,,,,,,23,0,22,926.4154022999992,,,,,,,,,,,,,,,,,,,,,,,,,,,,,,926.4063282999996,926.4154022999992,926.9000013999994,,,,,,,,,,,,,,926.9379131999995,,,,,,,,,,,,,926.9351136000005,926.9379131999995,926.9379131999995,926.9379131999995,929.9162367999998,j,1.3967721999997593,0.1839975000002596,929.9164065000004,929.9164648000005,None,,,,,,,,,,,,,,,,,00028,001,2025-11-17_17h09.59.427,MST_task,2024.2.0,59.97688490841146,2025-11-17 17h10.06.168199 +0530,
,Objects\160a.jpg,23,0,24,,,,,,,f,0.900079299999561,0.21692430000075547,None,,,,,,24,0,23,929.9321070000005,,,,,,,,,,,,,,,,,,,,,,,,,,,,,,929.9167768000007,929.9321070000005,930.4169086999991,,,,,,,,,,,,,,930.4344624999994,,,,,,,,,,,,,930.4318765999997,930.4344624999994,930.4344624999994,930.4344624999994,933.4327773000005,f,0.900079299999561,0.21692430000075547,933.4329379999999,933.4329925999991,None,,,,,,,,,,,,,,,,,00028,001,2025-11-17_17h09.59.427,MST_task,2024.2.0,59.97688490841146,2025-11-17 17h10.06.168199 +0530,
,Objects\109a.jpg,24,0,25,,,,,,,j,1.4130829000005178,0.19992289999936474,None,,,,,,25,0,24,933.4489305000006,,,,,,,,,,,,,,,,,,,,,,,,,,,,,,933.4333323999999,933.4489305000006,933.9332754999996,,,,,,,,,,,,,,933.9541492000008,,,,,,,,,,,,,933.9515308999999,933.9541492000008,933.9541492000008,933.9541492000008,936.9494415000008,j,1.4130829000005178,0.19992289999936474,936.9496072000002,936.9496670999997,None,,,,,,,,,,,,,,,,,00028,001,2025-11-17_17h09.59.427,MST_task,2024.2.0,59.97688490841146,2025-11-17 17h10.06.168199 +0530,
,Objects\025a.jpg,25,0,26,,,,,,,j,1.9650213000004442,0.23248620000049414,None,,,,,,26,0,25,936.9655870999995,,,,,,,,,,,,,,,,,,,,,,,,,,,,,,936.9501357000008,936.9655870999995,937.4500712999998,,,,,,,,,,,,,,937.4659417999992,,,,,,,,,,,,,937.4582214999991,937.4659417999992,937.4659417999992,937.4659417999992,940.4513320000005,j,1.9650213000004442,0.23248620000049414,940.4515117999999,940.4516031000003,None,940.4655910999991,940.4655910999991,940.4655910999991,,,,,,,,,,,,,,00028,001,2025-11-17_17h09.59.427,MST_task,2024.2.0,59.97688490841146,2025-11-17 17h10.06.168199 +0530,
,Objects\122a.jpg,26,0,27,,,,,,,f,1.29430389999834,0.1999708000003011,None,,,,,,27,0,26,940.4655910999991,,,,,,,,,,,,,,,,,,,,,,,,,,,,,,940.4520094,940.4655910999991,940.9500547000007,,,,,,,,,,,,,,940.9687739000001,,,,,,,,,,,,,940.9661517999994,940.9687739000001,940.9687739000001,940.9687739000001,943.9662360000002,f,1.29430389999834,0.1999708000003011,943.9664052999997,943.9664659999999,None,,,,,,,,,,,,,,,,,00028,001,2025-11-17_17h09.59.427,MST_task,2024.2.0,59.97688490841146,2025-11-17 17h10.06.168199 +0530,
,Objects\003a.jpg,27,0,28,,,,,,,j,1.4158334000003379,0.20786709999993036,None,,,,,,28,0,27,943.9822514000007,,,,,,,,,,,,,,,,,,,,,,,,,,,,,,943.9667690000006,943.9822514000007,944.467009,,,,,,,,,,,,,,944.4874380000001,,,,,,,,,,,,,944.4849312000006,944.4874380000001,944.4874380000001,944.4874380000001,947.4826826000008,j,1.4158334000003379,0.20786709999993036,947.4828555999993,947.4829179999997,None,,,,,,,,,,,,,,,,,00028,001,2025-11-17_17h09.59.427,MST_task,2024.2.0,59.97688490841146,2025-11-17 17h10.06.168199 +0530,
,Scenes\076a.jpg,28,0,29,,,,,,,j,0.9834877000012057,0.18437339999945834,None,,,,,,29,0,28,947.4989002999991,,,,,,,,,,,,,,,,,,,,,,,,,,,,,,947.4832255999991,947.4989002999991,947.9836305999997,,,,,,,,,,,,,,948.0153097000002,,,,,,,,,,,,,948.0119087999992,948.0153097000002,948.0153097000002,948.0153097000002,950.9996265999998,j,0.9834877000012057,0.18437339999945834,951.0051275999995,951.0051803999995,None,,,,,,,,,,,,,,,,,00028,001,2025-11-17_17h09.59.427,MST_task,2024.2.0,59.97688490841146,2025-11-17 17h10.06.168199 +0530,
,Scenes\162a.jpg,29,0,30,,,,,,,j,1.3635245999994368,0.19985360000100627,None,,,,,,30,0,29,951.0153616000007,,,,,,,,,,,,,,,,,,,,,,,,,,,,,,951.0053764000004,951.0153616000007,951.5001659000009,,,,,,,,,,,,,,951.5231621000003,,,,,,,,,,,,,951.5197969000001,951.5231621000003,951.5231621000003,951.5231621000003,954.5163083000007,j,1.3635245999994368,0.19985360000100627,954.5164722999998,954.5165340999993,None,,,,,,,,,,,,,,,,,00028,001,2025-11-17_17h09.59.427,MST_task,2024.2.0,59.97688490841146,2025-11-17 17h10.06.168199 +0530,
,Scenes\128a.jpg,30,0,31,,,,,,,j,0.9568613999999798,0.20019070000125794,None,,,,,,31,0,30,954.5322612,,,,,,,,,,,,,,,,,,,,,,,,,,,,,,954.5169958999995,954.5322612,955.0166754999991,,,,,,,,,,,,,,955.0341389000005,,,,,,,,,,,,,955.0310040000004,955.0341389000005,955.0341389000005,955.0341389000005,958.0324259999998,j,0.9568613999999798,0.20019070000125794,958.0325508999995,958.0325775999991,None,,,,,,,,,,,,,,,,,00028,001,2025-11-17_17h09.59.427,MST_task,2024.2.0,59.97688490841146,2025-11-17 17h10.06.168199 +0530,
,Scenes\123a.jpg,31,0,32,,,,,,,j,1.7967740000003687,0.20881250000093132,None,,,,,,32,0,31,958.0488906999999,,,,,,,,,,,,,,,,,,,,,,,,,,,,,,958.0327748,958.0488906999999,958.5330336000006,,,,,,,,,,,,,,,,,,,,,,,,,,,958.5506592000002,958.5540144000006,958.5540144000006,958.5540144000006,961.5497711999997,j,1.7967740000003687,0.20881250000093132,961.5499390999994,961.5500002000008,None,,,,,,,,,,,,,,,,,00028,001,2025-11-17_17h09.59.427,MST_task,2024.2.0,59.97688490841146,2025-11-17 17h10.06.168199 +0530,
,Scenes\106a.jpg,32,0,33,,,,,,,j,0.9501392999991367,0.18438109999988228,None,,,,,,33,0,32,961.5657654000006,,,,,,,,,,,,,,,,,,,,,,,,,,,,,,961.5504161000008,961.5657654000006,962.0505283000002,,,,,,,,,,,,,,962.0725927000003,,,,,,,,,,,,,962.0693446000005,962.0725927000003,962.0725927000003,962.0725927000003,965.0662697999996,j,0.9501392999991367,0.18438109999988228,965.0664369999995,965.0664971000006,None,,,,,,,,,,,,,,,,,00028,001,2025-11-17_17h09.59.427,MST_task,2024.2.0,59.97688490841146,2025-11-17 17h10.06.168199 +0530,
,Scenes\037a.jpg,33,0,34,,,,,,,j,2.5199349999984406,0.22368869999991148,None,,,,,,34,0,33,965.0823951000002,,,,,,,,,,,,,,,,,,,,,,,,,,,,,,965.0669319000008,965.0823951000002,965.5667377999998,,,,,,,,,,,,,,965.5829732000002,,,,,,,,,,,,,965.5750062999996,965.5829732000002,965.5829732000002,965.5829732000002,968.5677051999992,j,2.5199349999984406,0.22368869999991148,968.5678602000007,968.5679115999992,None,968.5821531999991,968.5821531999991,968.5821531999991,,,,,,,,,,,,,,00028,001,2025-11-17_17h09.59.427,MST_task,2024.2.0,59.97688490841146,2025-11-17 17h10.06.168199 +0530,
,Scenes\167a.jpg,34,0,35,,,,,,,f,1.0570893999993132,0.20784140000068874,None,,,,,,35,0,34,968.5821531999991,,,,,,,,,,,,,,,,,,,,,,,,,,,,,,968.5682123999995,968.5821531999991,969.0669345000006,,,,,,,,,,,,,,969.0858368999998,,,,,,,,,,,,,969.0827356999998,969.0858368999998,969.0858368999998,969.0858368999998,972.0830327000003,f,1.0570893999993132,0.20784140000068874,972.0832351000008,972.0832974000004,None,,,,,,,,,,,,,,,,,00028,001,2025-11-17_17h09.59.427,MST_task,2024.2.0,59.97688490841146,2025-11-17 17h10.06.168199 +0530,
,Objects\078a.jpg,35,0,36,,,,,,,f,0.9316873000007035,0.07212799999979325,None,,,,,,36,0,35,972.0991842000003,,,,,,,,,,,,,,,,,,,,,,,,,,,,,,972.0837183000003,972.0991842000003,972.5836865000001,,,,,,,,,,,,,,972.6036827000007,,,,,,,,,,,,,972.6005315999992,972.6036827000007,972.6036827000007,972.6036827000007,975.5994436000001,f,0.9316873000007035,0.07212799999979325,975.6049877000005,975.6050166000005,None,,,,,,,,,,,,,,,,,00028,001,2025-11-17_17h09.59.427,MST_task,2024.2.0,59.97688490841146,2025-11-17 17h10.06.168199 +0530,
,Objects\028a.jpg,36,0,37,,,,,,,j,0.875322399999277,0.19240270000045712,None,,,,,,37,0,36,975.6153513000008,,,,,,,,,,,,,,,,,,,,,,,,,,,,,,975.6051251000008,975.6153513000008,976.0998775999997,,,,,,,,,,,,,,976.1157480999991,,,,,,,,,,,,,976.1073658000005,976.1157480999991,976.1157480999991,976.1157480999991,979.1007205999995,j,0.875322399999277,0.19240270000045712,979.1008837000008,979.1009355999995,None,979.1155928999997,979.1155928999997,979.1155928999997,,,,,,,,,,,,,,00028,001,2025-11-17_17h09.59.427,MST_task,2024.2.0,59.97688490841146,2025-11-17 17h10.06.168199 +0530,
,Objects\033a.jpg,37,0,38,,,,,,,f,2.116607300000396,0.19240480000007665,None,,,,,,38,0,37,979.1155928999997,,,,,,,,,,,,,,,,,,,,,,,,,,,,,,979.1013299000006,979.1155928999997,979.6002480999996,,,,,,,,,,,,,,979.6180619999996,,,,,,,,,,,,,979.6153864999997,979.6180619999996,979.6180619999996,979.6180619999996,982.6164339000006,f,2.116607300000396,0.19240480000007665,982.6165997999997,982.6166599999997,None,,,,,,,,,,,,,,,,,00028,001,2025-11-17_17h09.59.427,MST_task,2024.2.0,59.97688490841146,2025-11-17 17h10.06.168199 +0530,
,Objects\061a.jpg,38,0,39,,,,,,,j,1.4504711999998108,0.1838317999990977,None,,,,,,39,0,38,982.6322605999994,,,,,,,,,,,,,,,,,,,,,,,,,,,,,,982.6169666000005,982.6322605999994,983.1169917000007,,,,,,,,,,,,,,983.1324750999993,,,,,,,,,,,,,983.1248794000003,983.1324750999993,983.1324750999993,983.1324750999993,986.1176443999993,j,1.4504711999998108,0.1838317999990977,986.1178037999998,986.1178555999995,None,986.1321513000003,986.1321513000003,986.1321513000003,,,,,,,,,,,,,,00028,001,2025-11-17_17h09.59.427,MST_task,2024.2.0,59.97688490841146,2025-11-17 17h10.06.168199 +0530,
,Objects\048a.jpg,39,0,40,,,,,,,j,2.0391053999992437,0.22353370000018913,None,,,,,,40,0,39,986.1321513000003,,,,,,,,,,,,,,,,,,,,,,,,,,,,,,986.1182552999999,986.1321513000003,986.6167497999995,,,,,,,,,,,,,,986.6325307000006,,,,,,,,,,,,,986.6289949999991,986.6325307000006,986.6325307000006,986.6325307000006,989.6179018000003,j,2.0391053999992437,0.22353370000018913,989.6181087000004,989.6181675000007,None,989.6323611000007,989.6323611000007,989.6323611000007,,,,,,,,,,,,,,00028,001,2025-11-17_17h09.59.427,MST_task,2024.2.0,59.97688490841146,2025-11-17 17h10.06.168199 +0530,
,Objects\044a.jpg,40,0,41,,,,,,,f,1.2397782000007282,0.1998686999995698,None,,,,,,41,0,40,989.6323611000007,,,,,,,,,,,,,,,,,,,,,,,,,,,,,,989.6184615000002,989.6323611000007,990.1167198999992,,,,,,,,,,,,,,990.1356567000003,,,,,,,,,,,,,990.1329989999995,990.1356567000003,990.1356567000003,990.1356567000003,993.1328856,f,1.2397782000007282,0.1998686999995698,993.1330610000005,993.1331243999994,None,,,,,,,,,,,,,,,,,00028,001,2025-11-17_17h09.59.427,MST_task,2024.2.0,59.97688490841146,2025-11-17 17h10.06.168199 +0530,
,Objects\083a.jpg,41,0,42,,,,,,,f,1.2136430999998993,0.185064200000852,None,,,,,,42,0,41,993.1489215000001,,,,,,,,,,,,,,,,,,,,,,,,,,,,,,993.1334435000008,993.1489215000001,993.6333448999994,,,,,,,,,,,,,,993.6491339999993,,,,,,,,,,,,,993.6452167999996,993.6491339999993,993.6491339999993,993.6491339999993,996.6342074999993,f,1.2136430999998993,0.185064200000852,996.6343835999996,996.6344437000007,None,996.6489543999996,996.6489543999996,996.6489543999996,,,,,,,,,,,,,,00028,001,2025-11-17_17h09.59.427,MST_task,2024.2.0,59.97688490841146,2025-11-17 17h10.06.168199 +0530,
,Scenes\079a.jpg,42,0,43,,,,,,,j,1.6709776999996393,0.21563650000098278,None,,,,,,43,0,42,996.6489543999996,,,,,,,,,,,,,,,,,,,,,,,,,,,,,,996.6347408000001,996.6489543999996,997.1333759000008,,,,,,,,,,,,,,997.1605129,,,,,,,,,,,,,997.1574149000007,997.1605129,997.1605129,997.1605129,1000.1495964000005,j,1.6709776999996393,0.21563650000098278,1000.1553542000001,1000.1553927999994,None,,,,,,,,,,,,,,,,,00028,001,2025-11-17_17h09.59.427,MST_task,2024.2.0,59.97688490841146,2025-11-17 17h10.06.168199 +0530,
,Scenes\173a.jpg,43,0,44,,,,,,,j,0.9648139999990235,0.16012190000037663,None,,,,,,44,0,43,1000.1654127999991,,,,,,,,,,,,,,,,,,,,,,,,,,,,,,1000.1556053000004,1000.1654127999991,1000.6500672999991,,,,,,,,,,,,,,1000.6663503,,,,,,,,,,,,,1000.6602452000006,1000.6663503,1000.6663503,1000.6663503,1003.6510767,j,0.9648139999990235,0.16012190000037663,1003.6512440999995,1003.6512956999995,None,1003.6655726000008,1003.6655726000008,1003.6655726000008,,,,,,,,,,,,,,00028,001,2025-11-17_17h09.59.427,MST_task,2024.2.0,59.97688490841146,2025-11-17 17h10.06.168199 +0530,
,Scenes\140a.jpg,44,0,45,,,,,,,j,1.0731350999994902,0.18426290000024892,None,,,,,,45,0,44,1003.6655726000008,,,,,,,,,,,,,,,,,,,,,,,,,,,,,,1003.6515660000005,1003.6655726000008,1004.1501036999998,,,,,,,,,,,,,,1004.1736277,,,,,,,,,,,,,1004.1704212999994,1004.1736277,1004.1736277,1004.1736277,1007.1662667,j,1.0731350999994902,0.18426290000024892,1007.1664394,1007.1664987999993,None,,,,,,,,,,,,,,,,,00028,001,2025-11-17_17h09.59.427,MST_task,2024.2.0,59.97688490841146,2025-11-17 17h10.06.168199 +0530,
,Scenes\181a.jpg,45,0,46,,,,,,,f,1.505887300001632,0.1918530999992072,None,,,,,,46,0,45,1007.1821457000005,,,,,,,,,,,,,,,,,,,,,,,,,,,,,,1007.1669158999994,1007.1821457000005,1007.6668680999992,,,,,,,,,,,,,,1007.6852228999996,,,,,,,,,,,,,1007.6819243999998,1007.6852228999996,1007.6852228999996,1007.6852228999996,1010.6828793000004,f,1.505887300001632,0.1918530999992072,1010.6830477999993,1010.6831091999993,None,,,,,,,,,,,,,,,,,00028,001,2025-11-17_17h09.59.427,MST_task,2024.2.0,59.97688490841146,2025-11-17 17h10.06.168199 +0530,
,Scenes\046a.jpg,46,0,47,,,,,,,f,0.7517523000005895,0.19152589999976044,None,,,,,,47,0,46,1010.6989489000007,,,,,,,,,,,,,,,,,,,,,,,,,,,,,,1010.6834089000004,1010.6989489000007,1011.1821880000007,,,,,,,,,,,,,,1011.1996548999996,,,,,,,,,,,,,1011.1944039999998,1011.1996548999996,1011.1996548999996,1011.1996548999996,1014.1846127000008,f,0.7517523000005895,0.19152589999976044,1014.1847873999995,1014.1848432999996,None,1014.1989188000007,1014.1989188000007,1014.1989188000007,,,,,,,,,,,,,,00028,001,2025-11-17_17h09.59.427,MST_task,2024.2.0,59.97688490841146,2025-11-17 17h10.06.168199 +0530,
,Scenes\117a.jpg,47,0,48,,,,,,,j,1.3469118000011804,0.20825969999896188,None,,,,,,48,0,47,1014.1989188000007,,,,,,,,,,,,,,,,,,,,,,,,,,,,,,1014.1852713999997,1014.1989188000007,1014.6834254999994,,,,,,,,,,,,,,1014.6997646,,,,,,,,,,,,,1014.6945395999992,1014.6997646,1014.6997646,1014.6997646,1017.6842591999994,j,1.3469118000011804,0.20825969999896188,1017.6844483000004,1017.6845061000004,None,1017.6989556999997,1017.6989556999997,1017.6989556999997,,,,,,,,,,,,,,00028,001,2025-11-17_17h09.59.427,MST_task,2024.2.0,59.97688490841146,2025-11-17 17h10.06.168199 +0530,
,Scenes\131a.jpg,48,0,49,,,,,,,j,0.9997303999989526,0.1994328000000678,None,,,,,,49,0,48,1017.6989556999997,,,,,,,,,,,,,,,,,,,,,,,,,,,,,,1017.6849428999994,1017.6989556999997,1018.1834103000001,,,,,,,,,,,,,,1018.1998894000008,,,,,,,,,,,,,1018.1967081000003,1018.1998894000008,1018.1998894000008,1018.1998894000008,1021.1843848000008,j,0.9997303999989526,0.1994328000000678,1021.1845350999993,1021.1845795999998,None,1021.1990423000007,1021.1990423000007,1021.1990423000007,,,,,,,,,,,,,,00028,001,2025-11-17_17h09.59.427,MST_task,2024.2.0,59.97688490841146,2025-11-17 17h10.06.168199 +0530,
,Objects\007a.jpg,49,0,50,,,,,,,j,1.662851300001421,0.19977969999854395,None,,,,,,50,0,49,1021.1990423000007,,,,,,,,,,,,,,,,,,,,,,,,,,,,,,1021.1848675000001,1021.1990423000007,1021.6834311999992,,,,,,,,,,,,,,1021.7045147000008,,,,,,,,,,,,,1021.7012085999995,1021.7045147000008,1021.7045147000008,1021.7045147000008,1024.6997410000004,j,1.662851300001421,0.19977969999854395,1024.7066699000006,1024.7067043999996,None,,,,,,,,,,,,,,,,,00028,001,2025-11-17_17h09.59.427,MST_task,2024.2.0,59.97688490841146,2025-11-17 17h10.06.168199 +0530,
,Objects\111a.jpg,50,0,51,,,,,,,j,2.1029779000000417,0.2080789999999979,None,,,,,,51,0,50,1024.7155024999993,,,,,,,,,,,,,,,,,,,,,,,,,,,,,,1024.7068433999993,1024.7155024999993,1025.2005403000003,,,,,,,,,,,,,,1025.215866299999,,,,,,,,,,,,,1025.2083340000008,1025.215866299999,1025.215866299999,1025.215866299999,1028.2015126000006,j,2.1029779000000417,0.2080789999999979,1028.2017211000002,1028.2017809000008,None,1028.2157914,1028.2157914,1028.2157914,,,,,,,,,,,,,,00028,001,2025-11-17_17h09.59.427,MST_task,2024.2.0,59.97688490841146,2025-11-17 17h10.06.168199 +0530,
,Objects\085a.jpg,51,0,52,,,,,,,None,,,j,0.10646289999931469,None,,,,52,0,51,1028.2157914,,,,,,,,,,,,,,,,,,,,,,,,,,,,,,1028.202220699999,1028.2157914,1028.7002911,,,,,,,,,,,,,,1028.7210720999992,,,,,,,,,,,,,1028.7182408000008,1028.7210720999992,1028.7210720999992,1028.7210720999992,1031.7162310999993,None,,,1031.7164807000008,1031.8509938999996,j,,,,1031.7323058000002,1031.7323058000002,0.10646289999931469,None,,,,,,,,,,00028,001,2025-11-17_17h09.59.427,MST_task,2024.2.0,59.97688490841146,2025-11-17 17h10.06.168199 +0530,
,Objects\132a.jpg,52,0,53,,,,,,,f,1.2974369999992632,0.1913832000009279,None,,,,,,53,0,52,1031.8656064000006,,,,,,,,,,,,,,,,,,,,,,,,,,,,,,1031.8515310999992,1031.8656064000006,1032.3503204999997,,,,,,,,,,,,,,1032.3658333999992,,,,,,,,,,,,,1032.3582810999997,1032.3658333999992,1032.3658333999992,1032.3658333999992,1035.3508994999993,f,1.2974369999992632,0.1913832000009279,1035.3511223999994,1035.3511816999999,None,1035.3656924999996,1035.3656924999996,1035.3656924999996,,,,,,,,,,,,,,00028,001,2025-11-17_17h09.59.427,MST_task,2024.2.0,59.97688490841146,2025-11-17 17h10.06.168199 +0530,
,Objects\135a.jpg,53,0,54,,,,,,,f,1.2851970000010624,0.19961049999983516,None,,,,,,54,0,53,1035.3656924999996,,,,,,,,,,,,,,,,,,,,,,,,,,,,,,1035.3517812999999,1035.3656924999996,1035.8503182000004,,,,,,,,,,,,,,1035.8658742000007,,,,,,,,,,,,,1035.8570044999997,1035.8658742000007,1035.8658742000007,1035.8658742000007,1038.851296499999,f,1.2851970000010624,0.19961049999983516,1038.8514704000008,1038.8515269,None,1038.8657227000003,1038.8657227000003,1038.8657227000003,,,,,,,,,,,,,,00028,001,2025-11-17_17h09.59.427,MST_task,2024.2.0,59.97688490841146,2025-11-17 17h10.06.168199 +0530,
,Objects\101a.jpg,54,0,55,,,,,,,f,1.9678048999994644,0.20805749999999534,None,,,,,,55,0,54,1038.8657227000003,,,,,,,,,,,,,,,,,,,,,,,,,,,,,,1038.8519367999997,1038.8657227000003,1039.3503566,,,,,,,,,,,,,,1039.3672549000003,,,,,,,,,,,,,1039.3645576,1039.3672549000003,1039.3672549000003,1039.3672549000003,1042.3666938000006,f,1.9678048999994644,0.20805749999999534,1042.3668742999998,1042.3669365000005,None,,,,,,,,,,,,,,,,,00028,001,2025-11-17_17h09.59.427,MST_task,2024.2.0,59.97688490841146,2025-11-17 17h10.06.168199 +0530,
,Objects\110a.jpg,55,0,56,,,,,,,f,2.5924091000015324,0.16821389999859093,None,,,,,,56,0,55,1042.382289699999,,,,,,,,,,,,,,,,,,,,,,,,,,,,,,1042.3672361999998,1042.382289699999,1042.8669332000009,,,,,,,,,,,,,,1042.8865809,,,,,,,,,,,,,1042.8837707000002,1042.8865809,1042.8865809,1042.8865809,1045.8831401000007,f,2.5924091000015324,0.16821389999859093,1045.8833178000004,1045.8833773999995,None,,,,,,,,,,,,,,,,,00028,001,2025-11-17_17h09.59.427,MST_task,2024.2.0,59.97688490841146,2025-11-17 17h10.06.168199 +0530,
,Scenes\191a.jpg,56,0,57,,,,,,,j,1.3354036999990058,0.23263150000093447,None,,,,,,57,0,56,1045.8990661000007,,,,,,,,,,,,,,,,,,,,,,,,,,,,,,1045.8836821000004,1045.8990661000007,1046.3834984999994,,,,,,,,,,,,,,1046.3995661999998,,,,,,,,,,,,,1046.3958848000002,1046.3995661999998,1046.3995661999998,1046.3995661999998,1049.3849172999999,j,1.3354036999990058,0.23263150000093447,1049.3896476999998,1049.3896817000004,None,1049.3988477999992,1049.3988477999992,1049.3988477999992,,,,,,,,,,,,,,00028,001,2025-11-17_17h09.59.427,MST_task,2024.2.0,59.97688490841146,2025-11-17 17h10.06.168199 +0530,
,Scenes\105a.jpg,57,0,58,,,,,,,j,1.1531376999992062,0.18341870000040217,None,,,,,,58,0,57,1049.3988477999992,,,,,,,,,,,,,,,,,,,,,,,,,,,,,,1049.3898167000007,1049.3988477999992,1049.8832741999995,,,,,,,,,,,,,,1049.9023976000008,,,,,,,,,,,,,1049.8991454999996,1049.9023976000008,1049.9023976000008,1049.9023976000008,1052.8996874999993,j,1.1531376999992062,0.18341870000040217,1052.8998561000008,1052.8999158000006,None,,,,,,,,,,,,,,,,,00028,001,2025-11-17_17h09.59.427,MST_task,2024.2.0,59.97688490841146,2025-11-17 17h10.06.168199 +0530,
,Scenes\100a.jpg,58,0,59,,,,,,,f,1.6558884999994916,0.1926604000000225,None,,,,,,59,0,58,1052.9158038000005,,,,,,,,,,,,,,,,,,,,,,,,,,,,,,1052.9003389000009,1052.9158038000005,1053.4002151999994,,,,,,,,,,,,,,1053.4309775000002,,,,,,,,,,,,,1053.4277963999994,1053.4309775000002,1053.4309775000002,1053.4309775000002,1056.4164020999997,f,1.6558884999994916,0.1926604000000225,1056.4165623999997,1056.4166222000003,None,,,,,,,,,,,,,,,,,00028,001,2025-11-17_17h09.59.427,MST_task,2024.2.0,59.97688490841146,2025-11-17 17h10.06.168199 +0530,
,Scenes\058a.jpg,59,0,60,,,,,,,f,1.7231174999997165,0.19962180000038643,None,,,,,,60,0,59,1056.4323282000005,,,,,,,,,,,,,,,,,,,,,,,,,,,,,,1056.4170422999996,1056.4323282000005,1056.9169671,,,,,,,,,,,,,,1056.9401696999994,,,,,,,,,,,,,1056.9368957000006,1056.9401696999994,1056.9401696999994,1056.9401696999994,1059.9330398999991,f,1.7231174999997165,0.19962180000038643,1059.93325,1059.9333177999997,None,,,,,,,,,,,,,,,,,00028,001,2025-11-17_17h09.59.427,MST_task,2024.2.0,59.97688490841146,2025-11-17 17h10.06.168199 +0530,
,Scenes\189a.jpg,60,0,61,,,,,,,j,0.8500058999998146,0.20013069999913569,None,,,,,,61,0,60,1059.9491720999995,,,,,,,,,,,,,,,,,,,,,,,,,,,,,,1059.9337450000003,1059.9491720999995,1060.4335293999993,,,,,,,,,,,,,,1060.4612851000002,,,,,,,,,,,,,1060.4585568000002,1060.4612851000002,1060.4612851000002,1060.4612851000002,1063.4497233000002,j,0.8500058999998146,0.20013069999913569,1063.4498910000002,1063.4499500000002,None,,,,,,,,,,,,,,,,,00028,001,2025-11-17_17h09.59.427,MST_task,2024.2.0,59.97688490841146,2025-11-17 17h10.06.168199 +0530,
,Scenes\157a.jpg,61,0,62,,,,,,,None,,,j,0.08864229999926465,None,,,,62,0,61,1063.4657497999997,,,,,,,,,,,,,,,,,,,,,,,,,,,,,,1063.4503860000004,1063.4657497999997,1063.9502083000007,,,,,,,,,,,,,,1063.9743044000006,,,,,,,,,,,,,1063.9708616000007,1063.9743044000006,1063.9743044000006,1063.9743044000006,1066.9662403999992,None,,,1066.9663834000003,1067.0839130999993,j,,,,1066.9821646,1066.9821646,0.08864229999926465,None,,,,,,,,,,00028,001,2025-11-17_17h09.59.427,MST_task,2024.2.0,59.97688490841146,2025-11-17 17h10.06.168199 +0530,
,Scenes\062a.jpg,62,0,63,,,,,,,j,1.2039485000004788,0.17587109999840322,None,,,,,,63,0,62,1067.0989628999996,,,,,,,,,,,,,,,,,,,,,,,,,,,,,,1067.0843750000004,1067.0989628999996,1067.5830798999996,,,,,,,,,,,,,,1067.6107243000006,,,,,,,,,,,,,1067.6075746999995,1067.6107243000006,1067.6107243000006,1067.6107243000006,1070.5993956000002,j,1.2039485000004788,0.17587109999840322,1070.5995824000001,1070.5996446999998,None,,,,,,,,,,,,,,,,,00028,001,2025-11-17_17h09.59.427,MST_task,2024.2.0,59.97688490841146,2025-11-17 17h10.06.168199 +0530,
,Objects\138a.jpg,63,0,64,,,,,,,j,1.504407500000525,0.18389819999902102,None,,,,,,64,0,63,1070.6155206999993,,,,,,,,,,,,,,,,,,,,,,,,,,,,,,1070.6000810999994,1070.6155206999993,1071.0999147999992,,,,,,,,,,,,,,1071.1185091000007,,,,,,,,,,,,,1071.1153183999995,1071.1185091000007,1071.1185091000007,1071.1185091000007,1074.1162275999995,j,1.504407500000525,0.18389819999902102,1074.1228142,1074.1228472000003,None,,,,,,,,,,,,,,,,,00028,001,2025-11-17_17h09.59.427,MST_task,2024.2.0,59.97688490841146,2025-11-17 17h10.06.168199 +0530,
,Objects\176a.jpg,64,0,65,,,,,,,j,1.2068401000015,0.18401919999996608,None,,,,,,65,0,64,1074.1319148000002,,,,,,,,,,,,,,,,,,,,,,,,,,,,,,1074.1230326999994,1074.1319148000002,1074.6159970999997,,,,,,,,,,,,,,1074.6325283999995,,,,,,,,,,,,,1074.6209509,1074.6325283999995,1074.6325283999995,1074.6325283999995,1077.6176637000008,j,1.2068401000015,0.18401919999996608,1077.617807999999,1077.6178505000007,None,1077.6321368999998,1077.6321368999998,1077.6321368999998,,,,,,,,,,,,,,00028,001,2025-11-17_17h09.59.427,MST_task,2024.2.0,59.97688490841146,2025-11-17 17h10.06.168199 +0530,
,Objects\143a.jpg,65,0,66,,,,,,,j,2.3062441000001854,0.19274630000109028,None,,,,,,66,0,65,1077.6321368999998,,,,,,,,,,,,,,,,,,,,,,,,,,,,,,1077.6182026000006,1077.6321368999998,1078.1165593999995,,,,,,,,,,,,,,1078.1324793000003,,,,,,,,,,,,,1078.1238398000005,1078.1324793000003,1078.1324793000003,1078.1324793000003,1081.1176111999994,j,2.3062441000001854,0.19274630000109028,1081.1177607999998,1081.1178130000008,None,1081.1321325000008,1081.1321325000008,1081.1321325000008,,,,,,,,,,,,,,00028,001,2025-11-17_17h09.59.427,MST_task,2024.2.0,59.97688490841146,2025-11-17 17h10.06.168199 +0530,
,Objects\170a.jpg,66,0,67,,,,,,,j,1.3511619000000792,0.21542520000002696,None,,,,,,67,0,66,1081.1321325000008,,,,,,,,,,,,,,,,,,,,,,,,,,,,,,1081.1181151,1081.1321325000008,1081.6164640000006,,,,,,,,,,,,,,1081.6322870999993,,,,,,,,,,,,,1081.6237514000004,1081.6322870999993,1081.6322870999993,1081.6322870999993,1084.6178509000001,j,1.3511619000000792,0.21542520000002696,1084.6184407,1084.6185115999997,None,1084.6322751999996,1084.6322751999996,1084.6322751999996,,,,,,,,,,,,,,00028,001,2025-11-17_17h09.59.427,MST_task,2024.2.0,59.97688490841146,2025-11-17 17h10.06.168199 +0530,
,Objects\178a.jpg,67,0,68,,,,,,,f,0.8624254000005749,0.1841684000009991,None,,,,,,68,0,67,1084.6322751999996,,,,,,,,,,,,,,,,,,,,,,,,,,,,,,1084.6191180999995,1084.6322751999996,1085.1174460999991,,,,,,,,,,,,,,1085.1368409999995,,,,,,,,,,,,,1085.1341634,1085.1368409999995,1085.1368409999995,1085.1368409999995,1088.1327043000001,f,0.8624254000005749,0.1841684000009991,1088.1328833000007,1088.1329439,None,,,,,,,,,,,,,,,,,00028,001,2025-11-17_17h09.59.427,MST_task,2024.2.0,59.97688490841146,2025-11-17 17h10.06.168199 +0530,
,Objects\009a.jpg,68,0,69,,,,,,,f,1.1394817999989755,0.18394520000038028,None,,,,,,69,0,68,1088.1489990999999,,,,,,,,,,,,,,,,,,,,,,,,,,,,,,1088.1333018000005,1088.1489990999999,1088.6333742000006,,,,,,,,,,,,,,1088.6517621000003,,,,,,,,,,,,,1088.6490990000002,1088.6517621000003,1088.6517621000003,1088.6517621000003,1091.6498102999994,f,1.1394817999989755,0.18394520000038028,1091.6499961000009,1091.6500593,None,,,,,,,,,,,,,,,,,00028,001,2025-11-17_17h09.59.427,MST_task,2024.2.0,59.97688490841146,2025-11-17 17h10.06.168199 +0530,
,Objects\088a.jpg,69,0,70,,,,,,,j,1.6348928000006708,0.1917646000001696,None,,,,,,70,0,69,1091.6655948999996,,,,,,,,,,,,,,,,,,,,,,,,,,,,,,1091.6503613999994,1091.6655948999996,1092.150232,,,,,,,,,,,,,,1092.1885717000005,,,,,,,,,,,,,1092.1858916,1092.1885717000005,1092.1885717000005,1092.1885717000005,1095.1659588999992,j,1.6348928000006708,0.1917646000001696,1095.1660835000002,1095.166126,None,,,,,,,,,,,,,,,,,00028,001,2025-11-17_17h09.59.427,MST_task,2024.2.0,59.97688490841146,2025-11-17 17h10.06.168199 +0530,
,Scenes\094a.jpg,70,0,71,,,,,,,j,1.4563584000006813,0.1839005999991059,None,,,,,,71,0,70,1095.1821495999993,,,,,,,,,,,,,,,,,,,,,,,,,,,,,,1095.1664113999996,1095.1821495999993,1095.6671253000004,,,,,,,,,,,,,,1095.6868083999998,,,,,,,,,,,,,1095.6835501000005,1095.6868083999998,1095.6868083999998,1095.6868083999998,1098.6827209999992,j,1.4563584000006813,0.1839005999991059,1098.6871831000008,1098.6872144000008,None,,,,,,,,,,,,,,,,,00028,001,2025-11-17_17h09.59.427,MST_task,2024.2.0,59.97688490841146,2025-11-17 17h10.06.168199 +0530,
,Scenes\086a.jpg,71,0,72,,,,,,,j,0.9968399000008503,0.2175296999994316,None,,,,,,72,0,71,1098.6987695999997,,,,,,,,,,,,,,,,,,,,,,,,,,,,,,1098.6873350999995,1098.6987695999997,1099.1834359000004,,,,,,,,,,,,,,1099.2099039000004,,,,,,,,,,,,,1099.2071288000006,1099.2099039000004,1099.2099039000004,1099.2099039000004,1102.1998783,j,0.9968399000008503,0.2175296999994316,1102.2000506999993,1102.2001130999997,None,,,,,,,,,,,,,,,,,00028,001,2025-11-17_17h09.59.427,MST_task,2024.2.0,59.97688490841146,2025-11-17 17h10.06.168199 +0530,
,Scenes\158a.jpg,72,0,73,,,,,,,j,1.9352036000000226,0.185051200000089,None,,,,,,73,0,72,1102.2155827000006,,,,,,,,,,,,,,,,,,,,,,,,,,,,,,1102.2004106999993,1102.2155827000006,1102.7002094,,,,,,,,,,,,,,1102.7199,,,,,,,,,,,,,1102.7167637000002,1102.7199,1102.7199,1102.7199,1105.7164917999999,j,1.9352036000000226,0.185051200000089,1105.7166632000008,1105.7167222999997,None,,,,,,,,,,,,,,,,,00028,001,2025-11-17_17h09.59.427,MST_task,2024.2.0,59.97688490841146,2025-11-17 17h10.06.168199 +0530,
,Scenes\083a.jpg,73,0,74,,,,,,,j,0.8084054999999353,0.2083279999988008,None,,,,,,74,0,73,1105.732086599999,,,,,,,,,,,,,,,,,,,,,,,,,,,,,,1105.7170248999992,1105.732086599999,1106.2166720999994,,,,,,,,,,,,,,1106.2383487000006,,,,,,,,,,,,,1106.2351271000007,1106.2383487000006,1106.2383487000006,1106.2383487000006,1109.2327573999992,j,0.8084054999999353,0.2083279999988008,1109.2329114000004,1109.2329664999997,None,,,,,,,,,,,,,,,,,00028,001,2025-11-17_17h09.59.427,MST_task,2024.2.0,59.97688490841146,2025-11-17 17h10.06.168199 +0530,
,Scenes\022a.jpg,74,0,75,,,,,,,j,2.7450607999999193,0.18437339999945834,None,,,,,,75,0,74,1109.248889299999,,,,,,,,,,,,,,,,,,,,,,,,,,,,,,1109.2333481999995,1109.248889299999,1109.7322841000005,,,,,,,,,,,,,,1109.7498474000004,,,,,,,,,,,,,1109.7359954999993,1109.7498474000004,1109.7498474000004,1109.7498474000004,1112.7342136000007,j,2.7450607999999193,0.18437339999945834,1112.7344386999994,1112.7344943000007,None,1112.748931,1112.748931,1112.748931,,,,,,,,,,,,,,00028,001,2025-11-17_17h09.59.427,MST_task,2024.2.0,59.97688490841146,2025-11-17 17h10.06.168199 +0530,
,Scenes\120a.jpg,75,0,76,,,,,,,j,1.1251255000006495,0.19292440000026545,None,,,,,,76,0,75,1112.748931,,,,,,,,,,,,,,,,,,,,,,,,,,,,,,1112.7348636999996,1112.748931,1113.2331878000005,,,,,,,,,,,,,,1113.2498792000006,,,,,,,,,,,,,1113.2466559999993,1113.2498792000006,1113.2498792000006,1113.2498792000006,1116.2343493000008,j,1.1251255000006495,0.19292440000026545,1116.2345186000002,1116.2345745000002,None,1116.2489028,1116.2489028,1116.2489028,,,,,,,,,,,,,,00028,001,2025-11-17_17h09.59.427,MST_task,2024.2.0,59.97688490841146,2025-11-17 17h10.06.168199 +0530,
,Scenes\103a.jpg,76,0,77,,,,,,,j,2.319727400001284,0.2000226999989536,None,,,,,,77,0,76,1116.2489028,,,,,,,,,,,,,,,,,,,,,,,,,,,,,,1116.2349974999997,1116.2489028,1116.7336006000005,,,,,,,,,,,,,,1116.7595380000002,,,,,,,,,,,,,1116.75598,1116.7595380000002,1116.7595380000002,1116.7595380000002,1119.7491575000004,j,2.319727400001284,0.2000226999989536,1119.7492156000008,1119.7492340000008,None,,,,,,,,,,,,,,,,,00028,001,2025-11-17_17h09.59.427,MST_task,2024.2.0,59.97688490841146,2025-11-17 17h10.06.168199 +0530,
,Objects\063a.jpg,77,0,78,,,,,,,f,1.4683308000003308,0.17666680000002088,None,,,,,,78,0,77,1119.7654423000004,,,,,,,,,,,,,,,,,,,,,,,,,,,,,,1119.7493728000009,1119.7654423000004,1120.2493814000009,,,,,,,,,,,,,,,,,,,,,,,,,,,1120.2623745,1120.2663563999995,1120.2663563999995,1120.2663563999995,1123.2494145,f,1.4683308000003308,0.17666680000002088,1123.2545277000008,1123.2545549000006,None,,,,,,,,,,,,,,,,,00028,001,2025-11-17_17h09.59.427,MST_task,2024.2.0,59.97688490841146,2025-11-17 17h10.06.168199 +0530,
,Objects\053a.jpg,78,0,79,,,,,,,f,1.0572363999999652,0.23193480000009004,None,,,,,,79,0,78,1123.2653430999999,,,,,,,,,,,,,,,,,,,,,,,,,,,,,,1123.2547197000004,1123.2653430999999,1123.7491651,,,,,,,,,,,,,,1123.7658068,,,,,,,,,,,,,1123.7535626000008,1123.7658068,1123.7658068,1123.7658068,1126.7496532000005,f,1.0572363999999652,0.23193480000009004,1126.7497015000008,1126.7497136999991,None,1126.7652844999993,1126.7652844999993,1126.7652844999993,,,,,,,,,,,,,,00028,001,2025-11-17_17h09.59.427,MST_task,2024.2.0,59.97688490841146,2025-11-17 17h10.06.168199 +0530,
,Objects\189a.jpg,79,0,80,,,,,,,j,0.9674698999988323,0.18365860000085377,None,,,,,,80,0,79,1126.7652844999993,,,,,,,,,,,,,,,,,,,,,,,,,,,,,,1126.7498240999994,1126.7652844999993,1127.2503964999996,,,,,,,,,,,,,,1127.2716600999993,,,,,,,,,,,,,1127.2689788999996,1127.2716600999993,1127.2716600999993,1127.2716600999993,1130.266426099999,j,0.9674698999988323,0.18365860000085377,1130.2665892999994,1130.2666482000004,None,,,,,,,,,,,,,,,,,00028,001,2025-11-17_17h09.59.427,MST_task,2024.2.0,59.97688490841146,2025-11-17 17h10.06.168199 +0530,
,Objects\185a.jpg,80,0,81,,,,,,,None,,,f,0.4009320999994088,None,,,,81,0,80,1130.2822465999998,,,,,,,,,,,,,,,,,,,,,,,,,,,,,,1130.2670742999999,1130.2822465999998,1130.7669239000006,,,,,,,,,,,,,,1130.7825465999995,,,,,,,,,,,,,1130.7749991,1130.7825465999995,1130.7825465999995,1130.7825465999995,1133.7678660000001,None,,,1133.7680115999992,1134.2010059000004,f,1133.7822261000001,1133.7822261000001,1133.7822261000001,1133.7822261000001,1133.7822261000001,0.4009320999994088,None,,,,,,,,,,00028,001,2025-11-17_17h09.59.427,MST_task,2024.2.0,59.97688490841146,2025-11-17 17h10.06.168199 +0530,
,Objects\018a.jpg,81,0,82,,,,,,,j,1.8388314000003447,0.21613720000095782,None,,,,,,82,0,81,1134.2158211000005,,,,,,,,,,,,,,,,,,,,,,,,,,,,,,1134.2015355000003,1134.2158211000005,1134.6997066999993,,,,,,,,,,,,,,1134.7204208999992,,,,,,,,,,,,,1134.7177511999998,1134.7204208999992,1134.7204208999992,1134.7204208999992,1137.7163887000006,j,1.8388314000003447,0.21613720000095782,1137.7166663000007,1137.7167394999997,None,,,,,,,,,,,,,,,,,00028,001,2025-11-17_17h09.59.427,MST_task,2024.2.0,59.97688490841146,2025-11-17 17h10.06.168199 +0530,
,Objects\098a.jpg,82,0,83,,,,,,,f,1.5983319999995729,0.20807130000139296,None,,,,,,83,0,82,1137.7322022999997,,,,,,,,,,,,,,,,,,,,,,,,,,,,,,1137.7170573999992,1137.7322022999997,1138.2170805999995,,,,,,,,,,,,,,1138.2323675000007,,,,,,,,,,,,,1138.2254809000005,1138.2323675000007,1138.2323675000007,1138.2323675000007,1141.2179054000007,f,1.5983319999995729,0.20807130000139296,1141.2180692000002,1141.2181163999994,None,1141.2323247999993,1141.2323247999993,1141.2323247999993,,,,,,,,,,,,,,00028,001,2025-11-17_17h09.59.427,MST_task,2024.2.0,59.97688490841146,2025-11-17 17h10.06.168199 +0530,
,Objects\036a.jpg,83,0,84,,,,,,,f,1.7920178999993368,0.18414410000150383,None,,,,,,84,0,83,1141.2323247999993,,,,,,,,,,,,,,,,,,,,,,,,,,,,,,1141.2185129000009,1141.2323247999993,1141.7170236999991,,,,,,,,,,,,,,1141.7349245000005,,,,,,,,,,,,,1141.7321701,1141.7349245000005,1141.7349245000005,1141.7349245000005,1144.7330216999999,f,1.7920178999993368,0.18414410000150383,1144.7331828999995,1144.7332432999992,None,,,,,,,,,,,,,,,,,00028,001,2025-11-17_17h09.59.427,MST_task,2024.2.0,59.97688490841146,2025-11-17 17h10.06.168199 +0530,
,Scenes\113a.jpg,84,0,85,,,,,,,j,1.0594571000001451,0.20086129999981495,None,,,,,,85,0,84,1144.7493212999998,,,,,,,,,,,,,,,,,,,,,,,,,,,,,,1144.7335440999996,1144.7493212999998,1145.2337551,,,,,,,,,,,,,,1145.2591235,,,,,,,,,,,,,1145.2558186999995,1145.2591235,1145.2591235,1145.2591235,1148.2494585000004,j,1.0594571000001451,0.20086129999981495,1148.2526378999992,1148.2526624999991,None,,,,,,,,,,,,,,,,,00028,001,2025-11-17_17h09.59.427,MST_task,2024.2.0,59.97688490841146,2025-11-17 17h10.06.168199 +0530,
,Scenes\096a.jpg,85,0,86,,,,,,,j,1.0250443000004452,0.20774649999839312,None,,,,,,86,0,85,1148.2653833000004,,,,,,,,,,,,,,,,,,,,,,,,,,,,,,1148.2528046999996,1148.2653833000004,1148.7501780000002,,,,,,,,,,,,,,1148.7663589999993,,,,,,,,,,,,,1148.7587205,1148.7663589999993,1148.7663589999993,1148.7663589999993,1151.7510122000003,j,1.0250443000004452,0.20774649999839312,1151.7511290999992,1151.7511658000003,None,1151.7658367999993,1151.7658367999993,1151.7658367999993,,,,,,,,,,,,,,00028,001,2025-11-17_17h09.59.427,MST_task,2024.2.0,59.97688490841146,2025-11-17 17h10.06.168199 +0530,
,Scenes\018a.jpg,86,0,87,,,,,,,f,1.084359200000108,0.20823299999938172,None,,,,,,87,0,86,1151.7658367999993,,,,,,,,,,,,,,,,,,,,,,,,,,,,,,1151.7514716000005,1151.7658367999993,1152.2503025999995,,,,,,,,,,,,,,1152.2663702999998,,,,,,,,,,,,,1152.2619348000007,1152.2663702999998,1152.2663702999998,1152.2663702999998,1155.2512115000009,f,1.084359200000108,0.20823299999938172,1155.2513818999996,1155.2514393000001,None,1155.2656943000002,1155.2656943000002,1155.2656943000002,,,,,,,,,,,,,,00028,001,2025-11-17_17h09.59.427,MST_task,2024.2.0,59.97688490841146,2025-11-17 17h10.06.168199 +0530,
,Scenes\109a.jpg,87,0,88,,,,,,,f,1.42755120000038,0.20068840000021737,None,,,,,,88,0,87,1155.2656943000002,,,,,,,,,,,,,,,,,,,,,,,,,,,,,,1155.2517212999992,1155.2656943000002,1155.7507102,,,,,,,,,,,,,,1155.7717759000006,,,,,,,,,,,,,1155.7684441000001,1155.7717759000006,1155.7717759000006,1155.7717759000006,1158.7661883,f,1.42755120000038,0.20068840000021737,1158.7663266,1158.7663740999997,None,,,,,,,,,,,,,,,,,00028,001,2025-11-17_17h09.59.427,MST_task,2024.2.0,59.97688490841146,2025-11-17 17h10.06.168199 +0530,
,Scenes\147a.jpg,88,0,89,,,,,,,j,2.115457999998398,0.16860690000066825,None,,,,,,89,0,88,1158.782277799999,,,,,,,,,,,,,,,,,,,,,,,,,,,,,,1158.7666554999996,1158.782277799999,1159.2665705,,,,,,,,,,,,,,1159.2832295999997,,,,,,,,,,,,,1159.2775863999996,1159.2832295999997,1159.2832295999997,1159.2832295999997,1162.2678022,j,2.115457999998398,0.16860690000066825,1162.2679788000005,1162.2680364999997,None,1162.2824056000009,1162.2824056000009,1162.2824056000009,,,,,,,,,,,,,,00028,001,2025-11-17_17h09.59.427,MST_task,2024.2.0,59.97688490841146,2025-11-17 17h10.06.168199 +0530,
,Scenes\027a.jpg,89,0,90,,,,,,,f,2.235468099999707,0.19278530000156024,None,,,,,,90,0,89,1162.2824056000009,,,,,,,,,,,,,,,,,,,,,,,,,,,,,,1162.2684802999993,1162.2824056000009,1162.7659021,,,,,,,,,,,,,,1162.7871028999998,,,,,,,,,,,,,1162.7837096000003,1162.7871028999998,1162.7871028999998,1162.7871028999998,1165.7831313999995,f,2.235468099999707,0.19278530000156024,1165.7833267999995,1165.7833936000006,None,,,,,,,,,,,,,,,,,00028,001,2025-11-17_17h09.59.427,MST_task,2024.2.0,59.97688490841146,2025-11-17 17h10.06.168199 +0530,
,Scenes\150a.jpg,90,0,91,,,,,,,j,1.139775699999518,0.19141420000050857,None,,,,,,91,0,90,1165.7991103999993,,,,,,,,,,,,,,,,,,,,,,,,,,,,,,1165.7836926,1165.7991103999993,1166.2832842999997,,,,,,,,,,,,,,1166.2996540000004,,,,,,,,,,,,,1166.2931833000002,1166.2996540000004,1166.2996540000004,1166.2996540000004,1169.2845548999994,j,1.139775699999518,0.19141420000050857,1169.2846984999996,1169.2847772999994,None,1169.2990434000003,1169.2990434000003,1169.2990434000003,,,,,,,,,,,,,,00028,001,2025-11-17_17h09.59.427,MST_task,2024.2.0,59.97688490841146,2025-11-17 17h10.06.168199 +0530,
,Objects\004a.jpg,91,0,92,,,,,,,j,2.3993265999997675,0.17590050000035262,None,,,,,,92,0,91,1169.2990434000003,,,,,,,,,,,,,,,,,,,,,,,,,,,,,,1169.285115999999,1169.2990434000003,1169.7823657999998,,,,,,,,,,,,,,1169.7995695999998,,,,,,,,,,,,,1169.7875096999996,1169.7995695999998,1169.7995695999998,1169.7995695999998,1172.7835047999997,j,2.3993265999997675,0.17590050000035262,1172.7864277999997,1172.7864589,None,1172.7988962,1172.7988962,1172.7988962,,,,,,,,,,,,,,00028,001,2025-11-17_17h09.59.427,MST_task,2024.2.0,59.97688490841146,2025-11-17 17h10.06.168199 +0530,
,Objects\117a.jpg,92,0,93,,,,,,,f,1.115996799999266,0.1844773000011628,None,,,,,,93,0,92,1172.7988962,,,,,,,,,,,,,,,,,,,,,,,,,,,,,,1172.7865989000002,1172.7988962,1173.2836810999997,,,,,,,,,,,,,,1173.2991710000006,,,,,,,,,,,,,1173.2913731000008,1173.2991710000006,1173.2991710000006,1173.2991710000006,1176.2844989999994,f,1.115996799999266,0.1844773000011628,1176.2846719000008,1176.2847287000004,None,1176.2990635999995,1176.2990635999995,1176.2990635999995,,,,,,,,,,,,,,00028,001,2025-11-17_17h09.59.427,MST_task,2024.2.0,59.97688490841146,2025-11-17 17h10.06.168199 +0530,
,Objects\105a.jpg,93,0,94,,,,,,,f,1.1842673999999533,0.20026679999864427,None,,,,,,94,0,93,1176.2990635999995,,,,,,,,,,,,,,,,,,,,,,,,,,,,,,1176.2850617999993,1176.2990635999995,1176.7832242999993,,,,,,,,,,,,,,1176.7991629999997,,,,,,,,,,,,,1176.789362899999,1176.7991629999997,1176.7991629999997,1176.7991629999997,1179.7844016,f,1.1842673999999533,0.20026679999864427,1179.7845751000004,1179.7846301000009,None,1179.7988136000004,1179.7988136000004,1179.7988136000004,,,,,,,,,,,,,,00028,001,2025-11-17_17h09.59.427,MST_task,2024.2.0,59.97688490841146,2025-11-17 17h10.06.168199 +0530,
,Objects\184a.jpg,94,0,95,,,,,,,j,1.3643716999995377,0.22397610000007262,None,,,,,,95,0,94,1179.7988136000004,,,,,,,,,,,,,,,,,,,,,,,,,,,,,,1179.7848866000004,1179.7988136000004,1180.2832644999999,,,,,,,,,,,,,,1180.2991390999996,,,,,,,,,,,,,1180.2899660000003,1180.2991390999996,1180.2991390999996,1180.2991390999996,1183.2841542000006,j,1.3643716999995377,0.22397610000007262,1183.2843269000005,1183.2843847000004,None,1183.2988839000009,1183.2988839000009,1183.2988839000009,,,,,,,,,,,,,,00028,001,2025-11-17_17h09.59.427,MST_task,2024.2.0,59.97688490841146,2025-11-17 17h10.06.168199 +0530,
,Objects\131a.jpg,95,0,96,,,,,,,None,,,j,0.1438889000000927,None,,,,96,0,95,1183.2988839000009,,,,,,,,,,,,,,,,,,,,,,,,,,,,,,1183.2848267999998,1183.2988839000009,1183.7832636999992,,,,,,,,,,,,,,1183.8034511000005,,,,,,,,,,,,,1183.8008315999996,1183.8034511000005,1183.8034511000005,1183.8034511000005,1186.799938,None,,,1186.8001187999998,1186.9677616999998,j,,,,1186.8155580000002,1186.8155580000002,0.1438889000000927,None,,,,,,,,,,00028,001,2025-11-17_17h09.59.427,MST_task,2024.2.0,59.97688490841146,2025-11-17 17h10.06.168199 +0530,
,Objects\034a.jpg,96,0,97,,,,,,,f,1.7173819999989064,0.1596653000015067,None,,,,,,97,0,96,1186.9822858999996,,,,,,,,,,,,,,,,,,,,,,,,,,,,,,1186.9681314000009,1186.9822858999996,1187.4668631999994,,,,,,,,,,,,,,1187.4823247999993,,,,,,,,,,,,,1187.4743612999991,1187.4823247999993,1187.4823247999993,1187.4823247999993,1190.4680116,f,1.7173819999989064,0.1596653000015067,1190.4681920999992,1190.4682532999996,None,1190.4823441000008,1190.4823441000008,1190.4823441000008,,,,,,,,,,,,,,00028,001,2025-11-17_17h09.59.427,MST_task,2024.2.0,59.97688490841146,2025-11-17 17h10.06.168199 +0530,
,Objects\075a.jpg,97,0,98,,,,,,,f,0.9022082999999839,0.18371899999874586,None,,,,,,98,0,97,1190.4823441000008,,,,,,,,,,,,,,,,,,,,,,,,,,,,,,1190.4687233999994,1190.4823441000008,1190.9669381999993,,,,,,,,,,,,,,1190.9847143000006,,,,,,,,,,,,,1190.9819802999991,1190.9847143000006,1190.9847143000006,1190.9847143000006,1193.9826264999992,f,0.9022082999999839,0.18371899999874586,1193.9827494,1193.9827937999999,None,,,,,,,,,,,,,,,,,00028,001,2025-11-17_17h09.59.427,MST_task,2024.2.0,59.97688490841146,2025-11-17 17h10.06.168199 +0530,
,Scenes\177a.jpg,98,0,99,,,,,,,j,1.3550997999991523,0.151156699999774,None,,,,,,99,0,98,1193.9990065000002,,,,,,,,,,,,,,,,,,,,,,,,,,,,,,1193.9830980000006,1193.9990065000002,1194.4833794999995,,,,,,,,,,,,,,1194.5004184000009,,,,,,,,,,,,,1194.4971016,1194.5004184000009,1194.5004184000009,1194.5004184000009,1197.4996370999997,j,1.3550997999991523,0.151156699999774,1197.5053391000001,1197.5053788999994,None,,,,,,,,,,,,,,,,,00028,001,2025-11-17_17h09.59.427,MST_task,2024.2.0,59.97688490841146,2025-11-17 17h10.06.168199 +0530,
,Scenes\084a.jpg,99,0,100,,,,,,,j,1.148065499999575,0.17456829999900947,None,,,,,,100,0,99,1197.5155429999995,,,,,,,,,,,,,,,,,,,,,,,,,,,,,,1197.5055458999996,1197.5155429999995,1198.0005223000007,,,,,,,,,,,,,,1198.019929,,,,,,,,,,,,,1198.0166465000002,1198.019929,1198.019929,1198.019929,1201.0161958000008,j,1.148065499999575,0.17456829999900947,1201.0163656000004,1201.0164256000007,None,,,,,,,,,,,,,,,,,00028,001,2025-11-17_17h09.59.427,MST_task,2024.2.0,59.97688490841146,2025-11-17 17h10.06.168199 +0530,
,Scenes\092a.jpg,100,0,101,,,,,,,None,,,j,None,None,,,,101,0,100,1201.0322090000009,,,,,,,,,,,,,,,,,,,,,,,,,,,,,,1201.0168470000008,1201.0322090000009,1201.5167853999992,,,,,,,,,,,,,,1201.5397288999993,,,,,,,,,,,,,1201.5363866000007,1201.5397288999993,1201.5397288999993,1201.5397288999993,1204.5327228999995,None,,,1204.5328690000006,1204.7341173999994,j,,,,1204.5488409999998,1204.5488409999998,None,None,,,,,,,,,,00028,001,2025-11-17_17h09.59.427,MST_task,2024.2.0,59.97688490841146,2025-11-17 17h10.06.168199 +0530,
,Scenes\168a.jpg,101,0,102,,,,,,,j,1.0620678000013868,0.1915231999992102,None,,,,,,102,0,101,1204.7489139000008,,,,,,,,,,,,,,,,,,,,,,,,,,,,,,1204.7345145,1204.7489139000008,1205.233284,,,,,,,,,,,,,,1205.2495994,,,,,,,,,,,,,1205.2443043000003,1205.2495994,1205.2495994,1205.2495994,1208.2342544999992,j,1.0620678000013868,0.1915231999992102,1208.2344405000003,1208.2344997,None,1208.2489494000001,1208.2489494000001,1208.2489494000001,,,,,,,,,,,,,,00028,001,2025-11-17_17h09.59.427,MST_task,2024.2.0,59.97688490841146,2025-11-17 17h10.06.168199 +0530,
,Scenes\182a.jpg,102,0,103,,,,,,,f,1.3551030999988143,0.21601400000145077,None,,,,,,103,0,102,1208.2489494000001,,,,,,,,,,,,,,,,,,,,,,,,,,,,,,1208.2347699000002,1208.2489494000001,1208.7332922999994,,,,,,,,,,,,,,1208.755819599999,,,,,,,,,,,,,1208.7523468,1208.755819599999,1208.755819599999,1208.755819599999,1211.7496759999995,f,1.3551030999988143,0.21601400000145077,1211.7498011000007,1211.7498434999998,None,,,,,,,,,,,,,,,,,00028,001,2025-11-17_17h09.59.427,MST_task,2024.2.0,59.97688490841146,2025-11-17 17h10.06.168199 +0530,
,Scenes\119a.jpg,103,0,104,,,,,,,j,0.8535221000001911,0.22356670000044687,None,,,,,,104,0,103,1211.7656494000003,,,,,,,,,,,,,,,,,,,,,,,,,,,,,,1211.7500340999995,1211.7656494000003,1212.2500314000008,,,,,,,,,,,,,,1212.2736138,,,,,,,,,,,,,1212.2701588,1212.2736138,1212.2736138,1212.2736138,1215.2661251000009,j,0.8535221000001911,0.22356670000044687,1215.2662799999998,1215.2663334000008,None,,,,,,,,,,,,,,,,,00028,001,2025-11-17_17h09.59.427,MST_task,2024.2.0,59.97688490841146,2025-11-17 17h10.06.168199 +0530,
,Scenes\095a.jpg,104,0,105,,,,,,,f,1.3917168999996647,0.200055400000565,None,,,,,,105,0,104,1215.2820591,,,,,,,,,,,,,,,,,,,,,,,,,,,,,,1215.2667504,1215.2820591,1215.7669320999994,,,,,,,,,,,,,,1215.7829662000004,,,,,,,,,,,,,1215.7787812999995,1215.7829662000004,1215.7829662000004,1215.7829662000004,1218.7676620000002,f,1.3917168999996647,0.200055400000565,1218.7678264999995,1218.7678758000002,None,1218.7822433000001,1218.7822433000001,1218.7822433000001,,,,,,,,,,,,,,00028,001,2025-11-17_17h09.59.427,MST_task,2024.2.0,59.97688490841146,2025-11-17 17h10.06.168199 +0530,
,Objects\120a.jpg,105,0,106,,,,,,,f,1.1101009999983944,0.20022370000151568,None,,,,,,106,0,105,1218.7822433000001,,,,,,,,,,,,,,,,,,,,,,,,,,,,,,1218.7682327000002,1218.7822433000001,1219.2666424,,,,,,,,,,,,,,1219.2889677000003,,,,,,,,,,,,,1219.2854972999994,1219.2889677000003,1219.2889677000003,1219.2889677000003,1222.2827003999992,f,1.1101009999983944,0.20022370000151568,1222.289288,1222.2893179000002,None,,,,,,,,,,,,,,,,,00028,001,2025-11-17_17h09.59.427,MST_task,2024.2.0,59.97688490841146,2025-11-17 17h10.06.168199 +0530,
,Objects\172a.jpg,106,0,107,,,,,,,j,1.0357031999992614,0.19194600000082573,None,,,,,,107,0,106,1222.2986815999993,,,,,,,,,,,,,,,,,,,,,,,,,,,,,,1222.2894345999994,1222.2986815999993,1222.7836360000001,,,,,,,,,,,,,,1222.8034112000005,,,,,,,,,,,,,1222.8007414999993,1222.8034112000005,1222.8034112000005,1222.8034112000005,1225.7996598999998,j,1.0357031999992614,0.19194600000082573,1225.7998466999998,1225.7999082999995,None,,,,,,,,,,,,,,,,,00028,001,2025-11-17_17h09.59.427,MST_task,2024.2.0,59.97688490841146,2025-11-17 17h10.06.168199 +0530,
,Objects\116a.jpg,107,0,108,,,,,,,f,1.717940799999269,0.20039689999975963,None,,,,,,108,0,107,1225.8157377000007,,,,,,,,,,,,,,,,,,,,,,,,,,,,,,1225.8003482000004,1225.8157377000007,1226.2999689000007,,,,,,,,,,,,,,1226.3210416999991,,,,,,,,,,,,,1226.3184746000006,1226.3210416999991,1226.3210416999991,1226.3210416999991,1229.3162276999992,f,1.717940799999269,0.20039689999975963,1229.3164008000003,1229.3164634999994,None,,,,,,,,,,,,,,,,,00028,001,2025-11-17_17h09.59.427,MST_task,2024.2.0,59.97688490841146,2025-11-17 17h10.06.168199 +0530,
,Objects\027a.jpg,108,0,109,,,,,,,f,1.1709874999996828,0.16856860000007146,None,,,,,,109,0,108,1229.3322766000001,,,,,,,,,,,,,,,,,,,,,,,,,,,,,,1229.3169282,1229.3322766000001,1229.8164085999997,,,,,,,,,,,,,,1229.8363250000002,,,,,,,,,,,,,1229.8337539000004,1229.8363250000002,1229.8363250000002,1229.8363250000002,1232.8330451000002,f,1.1709874999996828,0.16856860000007146,1232.8332147,1232.8332761000001,None,,,,,,,,,,,,,,,,,00028,001,2025-11-17_17h09.59.427,MST_task,2024.2.0,59.97688490841146,2025-11-17 17h10.06.168199 +0530,
,Objects\032a.jpg,109,0,110,,,,,,,j,1.5536964000002627,0.1997615999989648,None,,,,,,110,0,109,1232.8489654999994,,,,,,,,,,,,,,,,,,,,,,,,,,,,,,1232.8335759000001,1232.8489654999994,1233.3331316999993,,,,,,,,,,,,,,1233.3491567,,,,,,,,,,,,,1233.3454552000003,1233.3491567,1233.3491567,1233.3491567,1236.3339799999994,j,1.5536964000002627,0.1997615999989648,1236.3341259000008,1236.3341734999995,None,1236.3488667000001,1236.3488667000001,1236.3488667000001,,,,,,,,,,,,,,00028,001,2025-11-17_17h09.59.427,MST_task,2024.2.0,59.97688490841146,2025-11-17 17h10.06.168199 +0530,
,Objects\162a.jpg,110,0,111,,,,,,,f,1.343774000000849,0.18407789999946544,None,,,,,,111,0,110,1236.3488667000001,,,,,,,,,,,,,,,,,,,,,,,,,,,,,,1236.3345527000001,1236.3488667000001,1236.8330872000006,,,,,,,,,,,,,,1236.8552433000004,,,,,,,,,,,,,1236.8521572999998,1236.8552433000004,1236.8552433000004,1236.8552433000004,1239.8496053,f,1.343774000000849,0.18407789999946544,1239.8497705999998,1239.8498292999993,None,,,,,,,,,,,,,,,,,00028,001,2025-11-17_17h09.59.427,MST_task,2024.2.0,59.97688490841146,2025-11-17 17h10.06.168199 +0530,
,Objects\070a.jpg,111,0,112,,,,,,,j,2.0705730999998195,0.20017720000032568,None,,,,,,112,0,111,1239.8656580999996,,,,,,,,,,,,,,,,,,,,,,,,,,,,,,1239.8501302000004,1239.8656580999996,1240.3500672999999,,,,,,,,,,,,,,1240.3684486999991,,,,,,,,,,,,,1240.3658727000002,1240.3684486999991,1240.3684486999991,1240.3684486999991,1243.3663643,j,2.0705730999998195,0.20017720000032568,1243.3665297999996,1243.3665901999993,None,,,,,,,,,,,,,,,,,00028,001,2025-11-17_17h09.59.427,MST_task,2024.2.0,59.97688490841146,2025-11-17 17h10.06.168199 +0530,
,Scenes\127a.jpg,112,0,113,,,,,,,j,1.4973737000000256,0.21603239999967627,None,,,,,,113,0,112,1243.3822421000004,,,,,,,,,,,,,,,,,,,,,,,,,,,,,,1243.3668928000006,1243.3822421000004,1243.8667141000005,,,,,,,,,,,,,,1243.8857752999993,,,,,,,,,,,,,1243.8825980000001,1243.8857752999993,1243.8857752999993,1243.8857752999993,1246.8829368999995,j,1.4973737000000256,0.21603239999967627,1246.8890169999995,1246.8890585999998,None,,,,,,,,,,,,,,,,,00028,001,2025-11-17_17h09.59.427,MST_task,2024.2.0,59.97688490841146,2025-11-17 17h10.06.168199 +0530,
,Scenes\190a.jpg,113,0,114,,,,,,,j,1.2355167000005167,0.20010170000023209,None,,,,,,114,0,113,1246.8988866,,,,,,,,,,,,,,,,,,,,,,,,,,,,,,1246.8892949,1246.8988866,1247.3834200000001,,,,,,,,,,,,,,1247.4041830000006,,,,,,,,,,,,,1247.4008128000005,1247.4041830000006,1247.4041830000006,1247.4041830000006,1250.3995434999997,j,1.2355167000005167,0.20010170000023209,1250.3997473,1250.3998121000004,None,,,,,,,,,,,,,,,,,00028,001,2025-11-17_17h09.59.427,MST_task,2024.2.0,59.97688490841146,2025-11-17 17h10.06.168199 +0530,
,Scenes\156a.jpg,114,0,115,,,,,,,j,1.1383179999993445,0.20840070000122068,None,,,,,,115,0,114,1250.4156490000005,,,,,,,,,,,,,,,,,,,,,,,,,,,,,,1250.4001389999994,1250.4156490000005,1250.9000287,,,,,,,,,,,,,,1250.9166979000001,,,,,,,,,,,,,1250.9134446999997,1250.9166979000001,1250.9166979000001,1250.9166979000001,1253.9008907000007,j,1.1383179999993445,0.20840070000122068,1253.9010443000006,1253.9010925000002,None,1253.9156688000003,1253.9156688000003,1253.9156688000003,,,,,,,,,,,,,,00028,001,2025-11-17_17h09.59.427,MST_task,2024.2.0,59.97688490841146,2025-11-17 17h10.06.168199 +0530,
,Scenes\161a.jpg,115,0,116,,,,,,,j,2.499609700000292,0.1997762999999395,None,,,,,,116,0,115,1253.9156688000003,,,,,,,,,,,,,,,,,,,,,,,,,,,,,,1253.9014454999997,1253.9156688000003,1254.3999022999997,,,,,,,,,,,,,,1254.4273472000004,,,,,,,,,,,,,1254.4245097999992,1254.4273472000004,1254.4273472000004,1254.4273472000004,1257.416355199999,j,2.499609700000292,0.1997762999999395,1257.4165214999994,1257.4165818000001,None,,,,,,,,,,,,,,,,,00028,001,2025-11-17_17h09.59.427,MST_task,2024.2.0,59.97688490841146,2025-11-17 17h10.06.168199 +0530,
,Scenes\130a.jpg,116,0,117,,,,,,,None,,,j,5.522317200000543,None,,,,117,0,116,1257.4323552000005,,,,,,,,,,,,,,,,,,,,,,,,,,,,,,1257.4170185999992,1257.4323552000005,1257.9168561000006,,,,,,,,,,,,,,1257.9471993999996,,,,,,,,,,,,,1257.943807399999,1257.9471993999996,1257.9471993999996,1257.9471993999996,1260.9328518000002,None,,,1260.9329947999995,1266.484198,j,,,,1260.9488865999992,1260.9488865999992,5.522317200000543,None,,,,,,,,,,00028,001,2025-11-17_17h09.59.427,MST_task,2024.2.0,59.97688490841146,2025-11-17 17h10.06.168199 +0530,
,Scenes\102a.jpg,117,0,118,,,,,,,f,1.5055253000009543,0.19881600000007893,None,,,,,,118,0,117,1266.4990715999993,,,,,,,,,,,,,,,,,,,,,,,,,,,,,,1266.4845872000005,1266.4990715999993,1266.9833442,,,,,,,,,,,,,,1267.014202799999,,,,,,,,,,,,,1267.0107862000004,1267.014202799999,1267.014202799999,1267.014202799999,1269.9995151000003,f,1.5055253000009543,0.19881600000007893,1269.9996783000006,1269.9997526000006,None,,,,,,,,,,,,,,,,,00028,001,2025-11-17_17h09.59.427,MST_task,2024.2.0,59.97688490841146,2025-11-17 17h10.06.168199 +0530,
,Scenes\082a.jpg,118,0,119,,,,,,,f,1.53088679999928,0.20791370000006282,None,,,,,,119,0,118,1270.0156404000008,,,,,,,,,,,,,,,,,,,,,,,,,,,,,,1270.0003099999994,1270.0156404000008,1270.499600699999,,,,,,,,,,,,,,1270.5158374999992,,,,,,,,,,,,,1270.5131113000007,1270.5158374999992,1270.5158374999992,1270.5158374999992,1273.5014847000002,f,1.53088679999928,0.20791370000006282,1273.5016302999993,1273.5016761999996,None,1273.5155687999995,1273.5155687999995,1273.5155687999995,,,,,,,,,,,,,,00028,001,2025-11-17_17h09.59.427,MST_task,2024.2.0,59.97688490841146,2025-11-17 17h10.06.168199 +0530,
,Objects\156a.jpg,119,0,120,,,,,,,f,1.5827805000008084,0.20799559999977646,None,,,,,,120,0,119,1273.5155687999995,,,,,,,,,,,,,,,,,,,,,,,,,,,,,,1273.5020396,1273.5155687999995,1274.0003094000003,,,,,,,,,,,,,,1274.0163009999997,,,,,,,,,,,,,1274.0110041999997,1274.0163009999997,1274.0163009999997,1274.0163009999997,1277.0009690999996,f,1.5827805000008084,0.20799559999977646,1277.006671699999,1277.0067013000007,None,1277.0154669999993,1277.0154669999993,1277.0154669999993,,,,,,,,,,,,,,00028,001,2025-11-17_17h09.59.427,MST_task,2024.2.0,59.97688490841146,2025-11-17 17h10.06.168199 +0530,
,Objects\035a.jpg,120,0,121,,,,,,,j,2.6103172000002814,0.19183399999928952,None,,,,,,121,0,120,1277.0154669999993,,,,,,,,,,,,,,,,,,,,,,,,,,,,,,1277.0068222999998,1277.0154669999993,1277.4999793000006,,,,,,,,,,,,,,1277.5165424999996,,,,,,,,,,,,,1277.5138253999994,1277.5165424999996,1277.5165424999996,1277.5165424999996,1280.5011407999991,j,2.6103172000002814,0.19183399999928952,1280.5013161999996,1280.5013739999995,None,1280.5158971,1280.5158971,1280.5158971,,,,,,,,,,,,,,00028,001,2025-11-17_17h09.59.427,MST_task,2024.2.0,59.97688490841146,2025-11-17 17h10.06.168199 +0530,
,Objects\096a.jpg,121,0,122,,,,,,,j,2.561025900000459,0.18414119999943068,None,,,,,,122,0,121,1280.5158971,,,,,,,,,,,,,,,,,,,,,,,,,,,,,,1280.5017855000006,1280.5158971,1280.9997478999994,,,,,,,,,,,,,,1281.0379267000008,,,,,,,,,,,,,1281.0346764000005,1281.0379267000008,1281.0379267000008,1281.0379267000008,1284.0162825999996,j,2.561025900000459,0.18414119999943068,1284.0165964999997,1284.0166647999995,None,,,,,,,,,,,,,,,,,00028,001,2025-11-17_17h09.59.427,MST_task,2024.2.0,59.97688490841146,2025-11-17 17h10.06.168199 +0530,
,Objects\039a.jpg,122,0,123,,,,,,,j,1.1122063000002527,0.15280480000001262,None,,,,,,123,0,122,1284.0323067000008,,,,,,,,,,,,,,,,,,,,,,,,,,,,,,1284.0169442999995,1284.0323067000008,1284.5168467000003,,,,,,,,,,,,,,1284.5349096999998,,,,,,,,,,,,,1284.5320871000004,1284.5349096999998,1284.5349096999998,1284.5349096999998,1287.5329638999992,j,1.1122063000002527,0.15280480000001262,1287.5331358000003,1287.5331974,None,,,,,,,,,,,,,,,,,00028,001,2025-11-17_17h09.59.427,MST_task,2024.2.0,59.97688490841146,2025-11-17 17h10.06.168199 +0530,
,Objects\021a.jpg,123,0,124,,,,,,,f,2.086222199999611,0.18426970000109577,None,,,,,,124,0,123,1287.5489123000007,,,,,,,,,,,,,,,,,,,,,,,,,,,,,,1287.5336305,1287.5489123000007,1288.0338539000004,,,,,,,,,,,,,,1288.0491337000003,,,,,,,,,,,,,1288.0415814999997,1288.0491337000003,1288.0491337000003,1288.0491337000003,1291.0341731000008,f,2.086222199999611,0.18426970000109577,1291.0343133000006,1291.0343575999996,None,1291.0489140999998,1291.0489140999998,1291.0489140999998,,,,,,,,,,,,,,00028,001,2025-11-17_17h09.59.427,MST_task,2024.2.0,59.97688490841146,2025-11-17 17h10.06.168199 +0530,
,Objects\089a.jpg,124,0,125,,,,,,,j,0.9059814000011102,0.1760809999996127,None,,,,,,125,0,124,1291.0489140999998,,,,,,,,,,,,,,,,,,,,,,,,,,,,,,1291.0345964000007,1291.0489140999998,1291.5332600000002,,,,,,,,,,,,,,1291.5491087999999,,,,,,,,,,,,,1291.5401772999994,1291.5491087999999,1291.5491087999999,1291.5491087999999,1294.5340331999996,j,0.9059814000011102,0.1760809999996127,1294.534146599999,1294.5341824000006,None,1294.5489151000002,1294.5489151000002,1294.5489151000002,,,,,,,,,,,,,,00028,001,2025-11-17_17h09.59.427,MST_task,2024.2.0,59.97688490841146,2025-11-17 17h10.06.168199 +0530,
,Objects\173a.jpg,125,0,126,,,,,,,f,0.9822305000016058,0.2076054999997723,None,,,,,,126,0,125,1294.5489151000002,,,,,,,,,,,,,,,,,,,,,,,,,,,,,,1294.5344705000007,1294.5489151000002,1295.0334172999992,,,,,,,,,,,,,,1295.0491089000006,,,,,,,,,,,,,1295.042096699999,1295.0491089000006,1295.0491089000006,1295.0491089000006,1298.0340696999992,f,0.9822305000016058,0.2076054999997723,1298.0342180999996,1298.0342672000006,None,1298.0488779000007,1298.0488779000007,1298.0488779000007,,,,,,,,,,,,,,00028,001,2025-11-17_17h09.59.427,MST_task,2024.2.0,59.97688490841146,2025-11-17 17h10.06.168199 +0530,
,Scenes\126a.jpg,126,0,127,,,,,,,j,1.0377576999999292,0.2150072000004002,None,,,,,,127,0,126,1298.0488779000007,,,,,,,,,,,,,,,,,,,,,,,,,,,,,,1298.0346200000004,1298.0488779000007,1298.5336661000001,,,,,,,,,,,,,,1298.5618742999995,,,,,,,,,,,,,1298.5586328999998,1298.5618742999995,1298.5618742999995,1298.5618742999995,1301.5494949000004,j,1.0377576999999292,0.2150072000004002,1301.5543990999995,1301.5544327000007,None,,,,,,,,,,,,,,,,,00028,001,2025-11-17_17h09.59.427,MST_task,2024.2.0,59.97688490841146,2025-11-17 17h10.06.168199 +0530,
,Scenes\017a.jpg,127,0,128,,,,,,,f,1.3237958000008803,0.19207470000037574,None,,,,,,128,0,127,1301.5653817999992,,,,,,,,,,,,,,,,,,,,,,,,,,,,,,1301.5546297,1301.5653817999992,1302.0504978999998,,,,,,,,,,,,,,1302.0674211999994,,,,,,,,,,,,,1302.0642086000007,1302.0674211999994,1302.0674211999994,1302.0674211999994,1305.0663402999999,f,1.3237958000008803,0.19207470000037574,1305.0665253999996,1305.0665867999996,None,,,,,,,,,,,,,,,,,00028,001,2025-11-17_17h09.59.427,MST_task,2024.2.0,59.97688490841146,2025-11-17 17h10.06.168199 +0530,
,Scenes\049a.jpg,128,0,129,,,,,,,j,2.536938699999155,0.21563680000144814,None,,,,,,129,0,128,1305.0820865999995,,,,,,,,,,,,,,,,,,,,,,,,,,,,,,1305.0670121999992,1305.0820865999995,1305.5667403999996,,,,,,,,,,,,,,1305.5900714,,,,,,,,,,,,,1305.586754,1305.5900714,1305.5900714,1305.5900714,1308.5827633999997,j,2.536938699999155,0.21563680000144814,1308.5829283999992,1308.5829900000008,None,,,,,,,,,,,,,,,,,00028,001,2025-11-17_17h09.59.427,MST_task,2024.2.0,59.97688490841146,2025-11-17 17h10.06.168199 +0530,
,Scenes\052a.jpg,129,0,130,,,,,,,f,2.5552767000008316,0.23194689999945695,None,,,,,,130,0,129,1308.5989052999994,,,,,,,,,,,,,,,,,,,,,,,,,,,,,,1308.5834582000007,1308.5989052999994,1309.0833767999993,,,,,,,,,,,,,,1309.0997179999995,,,,,,,,,,,,,1309.0955377999999,1309.0997179999995,1309.0997179999995,1309.0997179999995,1312.0844180999993,f,2.5552767000008316,0.23194689999945695,1312.0845685000004,1312.0846201000004,None,1312.0990414999997,1312.0990414999997,1312.0990414999997,,,,,,,,,,,,,,00028,001,2025-11-17_17h09.59.427,MST_task,2024.2.0,59.97688490841146,2025-11-17 17h10.06.168199 +0530,
,Scenes\183a.jpg,130,0,131,,,,,,,f,1.0224336000010226,0.22453529999984312,None,,,,,,131,0,130,1312.0990414999997,,,,,,,,,,,,,,,,,,,,,,,,,,,,,,1312.0848643999998,1312.0990414999997,1312.5833163000007,,,,,,,,,,,,,,1312.6001097000008,,,,,,,,,,,,,1312.5975369000007,1312.6001097000008,1312.6001097000008,1312.6001097000008,1315.5842983999992,f,1.0224336000010226,0.22453529999984312,1315.5844526,1315.5845023000002,None,1315.5989305000003,1315.5989305000003,1315.5989305000003,,,,,,,,,,,,,,00028,001,2025-11-17_17h09.59.427,MST_task,2024.2.0,59.97688490841146,2025-11-17 17h10.06.168199 +0530,
,Scenes\114a.jpg,131,0,132,,,,,,,None,,,f,0.0031103000001166947,None,,,,132,0,131,1315.5989305000003,,,,,,,,,,,,,,,,,,,,,,,,,,,,,,1315.5849194000002,1315.5989305000003,1316.0835129999996,,,,,,,,,,,,,,1316.1025455,,,,,,,,,,,,,1316.0999326,1316.1025455,1316.1025455,1316.1025455,1319.099748999999,None,,,1319.0998851000004,1319.1343152000009,f,,,,1319.1156050999998,1319.1156050999998,0.0031103000001166947,None,,,,,,,,,,00028,001,2025-11-17_17h09.59.427,MST_task,2024.2.0,59.97688490841146,2025-11-17 17h10.06.168199 +0530,
,Scenes\003a.jpg,132,0,133,,,,,,,f,1.0734133000005386,0.2072610999985045,None,,,,,,133,0,132,1319.1490190000004,,,,,,,,,,,,,,,,,,,,,,,,,,,,,,1319.1347413000003,1319.1490190000004,1319.633253,,,,,,,,,,,,,,1319.6619241000008,,,,,,,,,,,,,1319.6587044000007,1319.6619241000008,1319.6619241000008,1319.6619241000008,1322.6496461000006,f,1.0734133000005386,0.2072610999985045,1322.6499595999994,1322.6500345999993,None,,,,,,,,,,,,,,,,,00028,001,2025-11-17_17h09.59.427,MST_task,2024.2.0,59.97688490841146,2025-11-17 17h10.06.168199 +0530,
,Objects\016a.jpg,133,0,134,,,,,,,f,1.1533411999989767,0.23181750000003376,None,,,,,,134,0,133,1322.6658521000008,,,,,,,,,,,,,,,,,,,,,,,,,,,,,,1322.6506119000005,1322.6658521000008,1323.1503126000007,,,,,,,,,,,,,,1323.1734682999995,,,,,,,,,,,,,1323.1700954999997,1323.1734682999995,1323.1734682999995,1323.1734682999995,1326.1661650000005,f,1.1533411999989767,0.23181750000003376,1326.1722023000002,1326.1722322999995,None,,,,,,,,,,,,,,,,,00028,001,2025-11-17_17h09.59.427,MST_task,2024.2.0,59.97688490841146,2025-11-17 17h10.06.168199 +0530,
,Objects\119a.jpg,134,0,135,,,,,,,f,1.4749568000006548,0.23971779999919818,None,,,,,,135,0,134,1326.1818927999993,,,,,,,,,,,,,,,,,,,,,,,,,,,,,,1326.1724255999998,1326.1818927999993,1326.6668023999991,,,,,,,,,,,,,,1326.6843528999998,,,,,,,,,,,,,1326.6817317999994,1326.6843528999998,1326.6843528999998,1326.6843528999998,1329.6828380000006,f,1.4749568000006548,0.23971779999919818,1329.6830155999996,1329.6830731999999,None,,,,,,,,,,,,,,,,,00028,001,2025-11-17_17h09.59.427,MST_task,2024.2.0,59.97688490841146,2025-11-17 17h10.06.168199 +0530,
,Objects\073a.jpg,135,0,136,,,,,,,f,0.6470829999998386,0.19916639999973995,None,,,,,,136,0,135,1329.6991978000005,,,,,,,,,,,,,,,,,,,,,,,,,,,,,,1329.6834944999991,1329.6991978000005,1330.1832684,,,,,,,,,,,,,,1330.2003686999997,,,,,,,,,,,,,1330.1977439999991,1330.2003686999997,1330.2003686999997,1330.2003686999997,1333.1997902999992,f,0.6470829999998386,0.19916639999973995,1333.1999539000008,1333.2000150000003,None,,,,,,,,,,,,,,,,,00028,001,2025-11-17_17h09.59.427,MST_task,2024.2.0,59.97688490841146,2025-11-17 17h10.06.168199 +0530,
,Objects\175a.jpg,136,0,137,,,,,,,f,0.7306305999991309,0.21605500000077882,None,,,,,,137,0,136,1333.2158528,,,,,,,,,,,,,,,,,,,,,,,,,,,,,,1333.2004417999997,1333.2158528,1333.7002838999997,,,,,,,,,,,,,,1333.7159596000001,,,,,,,,,,,,,1333.7062745000003,1333.7159596000001,1333.7159596000001,1333.7159596000001,1336.7009417999998,f,0.7306305999991309,0.21605500000077882,1336.7011086000002,1336.7011655000006,None,1336.7155674999995,1336.7155674999995,1336.7155674999995,,,,,,,,,,,,,,00028,001,2025-11-17_17h09.59.427,MST_task,2024.2.0,59.97688490841146,2025-11-17 17h10.06.168199 +0530,
,Objects\114a.jpg,137,0,138,,,,,,,f,0.6559823999996297,0.21474140000100306,None,,,,,,138,0,137,1336.7155674999995,,,,,,,,,,,,,,,,,,,,,,,,,,,,,,1336.7014584999997,1336.7155674999995,1337.2003022000008,,,,,,,,,,,,,,1337.2158576000002,,,,,,,,,,,,,1337.2079785999995,1337.2158576000002,1337.2158576000002,1337.2158576000002,1340.201436199999,f,0.6559823999996297,0.21474140000100306,1340.2016165000005,1340.2016736000005,None,1340.2158448999999,1340.2158448999999,1340.2158448999999,,,,,,,,,,,,,,00028,001,2025-11-17_17h09.59.427,MST_task,2024.2.0,59.97688490841146,2025-11-17 17h10.06.168199 +0530,
,Objects\151a.jpg,138,0,139,,,,,,,f,1.0423076000006404,0.2153149999994639,None,,,,,,139,0,138,1340.2158448999999,,,,,,,,,,,,,,,,,,,,,,,,,,,,,,1340.2019901000003,1340.2158448999999,1340.6999317999998,,,,,,,,,,,,,,1340.7171474999996,,,,,,,,,,,,,1340.7144272000005,1340.7171474999996,1340.7171474999996,1340.7171474999996,1343.7165107,f,1.0423076000006404,0.2153149999994639,1343.7166787999995,1343.7167793000008,None,,,,,,,,,,,,,,,,,00028,001,2025-11-17_17h09.59.427,MST_task,2024.2.0,59.97688490841146,2025-11-17 17h10.06.168199 +0530,
,Objects\144a.jpg,139,0,140,,,,,,,j,1.9267253999987588,0.19990340000003926,None,,,,,,140,0,139,1343.7321905999997,,,,,,,,,,,,,,,,,,,,,,,,,,,,,,1343.7170805999995,1343.7321905999997,1344.216890399999,,,,,,,,,,,,,,1344.2324484,,,,,,,,,,,,,1344.2263039999998,1344.2324484,1344.2324484,1344.2324484,1347.2178177000005,j,1.9267253999987588,0.19990340000003926,1347.2180329000003,1347.2180852000001,None,1347.2323765,1347.2323765,1347.2323765,,,,,,,,,,,,,,00028,001,2025-11-17_17h09.59.427,MST_task,2024.2.0,59.97688490841146,2025-11-17 17h10.06.168199 +0530,
,Scenes\025a.jpg,140,0,141,,,,,,,j,1.164447500001188,0.20012299999871175,None,,,,,,141,0,140,1347.2323765,,,,,,,,,,,,,,,,,,,,,,,,,,,,,,1347.2184631,1347.2323765,1347.7165213000007,,,,,,,,,,,,,,1347.7468590000008,,,,,,,,,,,,,1347.7436340999993,1347.7468590000008,1347.7468590000008,1347.7468590000008,1350.7326243000007,j,1.164447500001188,0.20012299999871175,1350.7376497000005,1350.7376908000006,None,,,,,,,,,,,,,,,,,00028,001,2025-11-17_17h09.59.427,MST_task,2024.2.0,59.97688490841146,2025-11-17 17h10.06.168199 +0530,
,Scenes\007a.jpg,141,0,142,,,,,,,f,1.7258621000000858,0.2246617000000697,None,,,,,,142,0,141,1350.7488942,,,,,,,,,,,,,,,,,,,,,,,,,,,,,,1350.7378589,1350.7488942,1351.2332865999997,,,,,,,,,,,,,,1351.2497096000006,,,,,,,,,,,,,1351.2461674999995,1351.2497096000006,1351.2497096000006,1351.2497096000006,1354.2344150000008,f,1.7258621000000858,0.2246617000000697,1354.2345986,1354.2346560000005,None,1354.2489325999995,1354.2489325999995,1354.2489325999995,,,,,,,,,,,,,,00028,001,2025-11-17_17h09.59.427,MST_task,2024.2.0,59.97688490841146,2025-11-17 17h10.06.168199 +0530,
,Scenes\153a.jpg,142,0,143,,,,,,,j,1.584850400000505,0.17615810000097554,None,,,,,,143,0,142,1354.2489325999995,,,,,,,,,,,,,,,,,,,,,,,,,,,,,,1354.23495,1354.2489325999995,1354.7332463999992,,,,,,,,,,,,,,1354.7580933000008,,,,,,,,,,,,,1354.7549044000007,1354.7580933000008,1354.7580933000008,1354.7580933000008,1357.7499807999993,j,1.584850400000505,0.17615810000097554,1357.7502564999995,1357.7503273999992,None,,,,,,,,,,,,,,,,,00028,001,2025-11-17_17h09.59.427,MST_task,2024.2.0,59.97688490841146,2025-11-17 17h10.06.168199 +0530,
,Scenes\175a.jpg,143,0,144,,,,,,,j,0.8747425000001385,0.18437020000055782,None,,,,,,144,0,143,1357.7655740999999,,,,,,,,,,,,,,,,,,,,,,,,,,,,,,1357.7506835999993,1357.7655740999999,1358.2501013,,,,,,,,,,,,,,1358.2761461999999,,,,,,,,,,,,,1358.2730112000008,1358.2761461999999,1358.2761461999999,1358.2761461999999,1361.266207999999,j,0.8747425000001385,0.18437020000055782,1361.2663713999991,1361.2664316999999,None,,,,,,,,,,,,,,,,,00028,001,2025-11-17_17h09.59.427,MST_task,2024.2.0,59.97688490841146,2025-11-17 17h10.06.168199 +0530,
,Scenes\008a.jpg,144,0,145,,,,,,,f,1.905059100001381,0.2168762000001152,None,,,,,,145,0,144,1361.2820565999991,,,,,,,,,,,,,,,,,,,,,,,,,,,,,,1361.2667313000002,1361.2820565999991,1361.7668059999996,,,,,,,,,,,,,,1361.7894094000003,,,,,,,,,,,,,1361.7861384000007,1361.7894094000003,1361.7894094000003,1361.7894094000003,1364.7829337000003,f,1.905059100001381,0.2168762000001152,1364.7830957000006,1364.7831551,None,,,,,,,,,,,,,,,,,00028,001,2025-11-17_17h09.59.427,MST_task,2024.2.0,59.97688490841146,2025-11-17 17h10.06.168199 +0530,
,Scenes\155a.jpg,145,0,146,,,,,,,j,0.7400748000000021,0.175972199998796,None,,,,,,146,0,145,1364.7989799999996,,,,,,,,,,,,,,,,,,,,,,,,,,,,,,1364.7834561,1364.7989799999996,1365.2833353000005,,,,,,,,,,,,,,1365.3069452,,,,,,,,,,,,,1365.3037456000002,1365.3069452,1365.3069452,1365.3069452,1368.2995763,j,0.7400748000000021,0.175972199998796,1368.2997431999993,1368.2998031000006,None,,,,,,,,,,,,,,,,,00028,001,2025-11-17_17h09.59.427,MST_task,2024.2.0,59.97688490841146,2025-11-17 17h10.06.168199 +0530,
,Scenes\116a.jpg,146,0,147,,,,,,,j,1.2001421999993909,0.18314230000032694,None,,,,,,147,0,146,1368.3155336,,,,,,,,,,,,,,,,,,,,,,,,,,,,,,1368.3002250999998,1368.3155336,1368.8001645000004,,,,,,,,,,,,,,1368.8238093,,,,,,,,,,,,,1368.8205049999997,1368.8238093,1368.8238093,1368.8238093,1371.8163230999999,j,1.2001421999993909,0.18314230000032694,1371.8165052000004,1371.8165671999996,None,,,,,,,,,,,,,,,,,00028,001,2025-11-17_17h09.59.427,MST_task,2024.2.0,59.97688490841146,2025-11-17 17h10.06.168199 +0530,
,Objects\177a.jpg,147,0,148,,,,,,,j,1.3226945000005799,0.21569689999887487,None,,,,,,148,0,147,1371.8322246999996,,,,,,,,,,,,,,,,,,,,,,,,,,,,,,1371.8170007999997,1371.8322246999996,1372.3168148999994,,,,,,,,,,,,,,1372.3327654000004,,,,,,,,,,,,,1372.3293842999992,1372.3327654000004,1372.3327654000004,1372.3327654000004,1375.3176812000002,j,1.3226945000005799,0.21569689999887487,1375.3236500999992,1375.3236768000006,None,1375.3319205000007,1375.3319205000007,1375.3319205000007,,,,,,,,,,,,,,00028,001,2025-11-17_17h09.59.427,MST_task,2024.2.0,59.97688490841146,2025-11-17 17h10.06.168199 +0530,
,Objects\183a.jpg,148,0,149,,,,,,,j,0.8783165000004374,0.15285729999959585,None,,,,,,149,0,148,1375.3319205000007,,,,,,,,,,,,,,,,,,,,,,,,,,,,,,1375.3238474999998,1375.3319205000007,1375.8167783999997,,,,,,,,,,,,,,1375.832311099999,,,,,,,,,,,,,1375.8232274999991,1375.832311099999,1375.832311099999,1375.832311099999,1378.8176528999993,j,0.8783165000004374,0.15285729999959585,1378.8178272000005,1378.8178850999993,None,1378.8321185000004,1378.8321185000004,1378.8321185000004,,,,,,,,,,,,,,00028,001,2025-11-17_17h09.59.427,MST_task,2024.2.0,59.97688490841146,2025-11-17 17h10.06.168199 +0530,
,Objects\159a.jpg,149,0,150,,,,,,,f,0.7566191000005347,0.1681155000005674,None,,,,,,150,0,149,1378.8321185000004,,,,,,,,,,,,,,,,,,,,,,,,,,,,,,1378.8183279999994,1378.8321185000004,1379.3168447000007,,,,,,,,,,,,,,1379.3384533999997,,,,,,,,,,,,,1379.3358798000008,1379.3384533999997,1379.3384533999997,1379.3384533999997,1382.3328220999992,f,0.7566191000005347,0.1681155000005674,1382.3329568999998,1382.3330022999999,None,,,,,,,,,,,,,,,,,00028,001,2025-11-17_17h09.59.427,MST_task,2024.2.0,59.97688490841146,2025-11-17 17h10.06.168199 +0530,
,Objects\133a.jpg,150,0,151,,,,,,,f,1.3176684000009118,0.1839765000004263,None,,,,,,151,0,150,1382.3490321999998,,,,,,,,,,,,,,,,,,,,,,,,,,,,,,1382.3333550000007,1382.3490321999998,1382.8336354999992,,,,,,,,,,,,,,1382.8491419999991,,,,,,,,,,,,,1382.8405901999995,1382.8491419999991,1382.8491419999991,1382.8491419999991,1385.8345652000007,f,1.3176684000009118,0.1839765000004263,1385.8347379999996,1385.8347952999993,None,1385.8490720999998,1385.8490720999998,1385.8490720999998,,,,,,,,,,,,,,00028,001,2025-11-17_17h09.59.427,MST_task,2024.2.0,59.97688490841146,2025-11-17 17h10.06.168199 +0530,
,Objects\008a.jpg,151,0,152,,,,,,,f,0.9350888999997551,0.21621349999986705,None,,,,,,152,0,151,1385.8490720999998,,,,,,,,,,,,,,,,,,,,,,,,,,,,,,1385.8350871000002,1385.8490720999998,1386.3335145,,,,,,,,,,,,,,1386.3519720999993,,,,,,,,,,,,,1386.3486816000004,1386.3519720999993,1386.3519720999993,1386.3519720999993,1389.3496288999995,f,0.9350888999997551,0.21621349999986705,1389.3498333999996,1389.3498968000004,None,,,,,,,,,,,,,,,,,00028,001,2025-11-17_17h09.59.427,MST_task,2024.2.0,59.97688490841146,2025-11-17 17h10.06.168199 +0530,
,Objects\148a.jpg,152,0,153,,,,,,,f,1.053097699999853,0.2079940000003262,None,,,,,,153,0,152,1389.3655163000003,,,,,,,,,,,,,,,,,,,,,,,,,,,,,,1389.350117,1389.3655163000003,1389.8501741,,,,,,,,,,,,,,1389.8659695999995,,,,,,,,,,,,,1389.8579231999993,1389.8659695999995,1389.8659695999995,1389.8659695999995,1392.8511299000002,f,1.053097699999853,0.2079940000003262,1392.8512814000005,1392.8513316999997,None,1392.8657449000002,1392.8657449000002,1392.8657449000002,,,,,,,,,,,,,,00028,001,2025-11-17_17h09.59.427,MST_task,2024.2.0,59.97688490841146,2025-11-17 17h10.06.168199 +0530,
,Objects\062a.jpg,153,0,154,,,,,,,f,1.2855326999997487,0.20019950000096287,None,,,,,,154,0,153,1392.8657449000002,,,,,,,,,,,,,,,,,,,,,,,,,,,,,,1392.851595,1392.8657449000002,1393.3502489999992,,,,,,,,,,,,,,1393.3695941000005,,,,,,,,,,,,,1393.3668899999993,1393.3695941000005,1393.3695941000005,1393.3695941000005,1396.3676197999994,f,1.2855326999997487,0.20019950000096287,1396.3677716999991,1396.3678249999994,None,,,,,,,,,,,,,,,,,00028,001,2025-11-17_17h09.59.427,MST_task,2024.2.0,59.97688490841146,2025-11-17 17h10.06.168199 +0530,
,Scenes\019a.jpg,154,0,155,,,,,,,f,2.1603076999999757,0.20759700000053272,None,,,,,,155,0,154,1396.3823628999999,,,,,,,,,,,,,,,,,,,,,,,,,,,,,,1396.3681001999994,1396.3823628999999,1396.8669761,,,,,,,,,,,,,,1396.8867716000004,,,,,,,,,,,,,1396.8835799000008,1396.8867716000004,1396.8867716000004,1396.8867716000004,1399.8830259000006,f,2.1603076999999757,0.20759700000053272,1399.8902961000003,1399.8903114000004,None,,,,,,,,,,,,,,,,,00028,001,2025-11-17_17h09.59.427,MST_task,2024.2.0,59.97688490841146,2025-11-17 17h10.06.168199 +0530,
,Scenes\031a.jpg,155,0,156,,,,,,,f,1.9408557000006113,0.19979229999989911,None,,,,,,156,0,155,1399.8990954,,,,,,,,,,,,,,,,,,,,,,,,,,,,,,1399.8903807999995,1399.8990954,1400.3834447999998,,,,,,,,,,,,,,1400.4028816999999,,,,,,,,,,,,,1400.3996165000008,1400.4028816999999,1400.4028816999999,1400.4028816999999,1403.3998265999999,f,1.9408557000006113,0.19979229999989911,1403.3999908000005,1403.4000505999993,None,,,,,,,,,,,,,,,,,00028,001,2025-11-17_17h09.59.427,MST_task,2024.2.0,59.97688490841146,2025-11-17 17h10.06.168199 +0530,
,Scenes\097a.jpg,156,0,157,,,,,,,f,1.2022734999991371,0.22397100000125647,None,,,,,,157,0,156,1403.4157298999999,,,,,,,,,,,,,,,,,,,,,,,,,,,,,,1403.4004767999995,1403.4157298999999,1403.9000935000004,,,,,,,,,,,,,,1403.9164053999993,,,,,,,,,,,,,1403.9072529999994,1403.9164053999993,1403.9164053999993,1403.9164053999993,1406.9012053000006,f,1.2022734999991371,0.22397100000125647,1406.9013808,1406.9014387999996,None,1406.9157627000004,1406.9157627000004,1406.9157627000004,,,,,,,,,,,,,,00028,001,2025-11-17_17h09.59.427,MST_task,2024.2.0,59.97688490841146,2025-11-17 17h10.06.168199 +0530,
,Scenes\088a.jpg,157,0,158,,,,,,,j,0.7608770999995613,0.21730579999893962,None,,,,,,158,0,157,1406.9157627000004,,,,,,,,,,,,,,,,,,,,,,,,,,,,,,1406.9018512000002,1406.9157627000004,1407.4004659999991,,,,,,,,,,,,,,1407.4302671000005,,,,,,,,,,,,,1407.4269015999998,1407.4302671000005,1407.4302671000005,1407.4302671000005,1410.4161100000001,j,0.7608770999995613,0.21730579999893962,1410.4163067999998,1410.4163683999996,None,,,,,,,,,,,,,,,,,00028,001,2025-11-17_17h09.59.427,MST_task,2024.2.0,59.97688490841146,2025-11-17 17h10.06.168199 +0530,
,Scenes\145a.jpg,158,0,159,,,,,,,j,1.4221796999991057,0.17640469999969355,None,,,,,,159,0,158,1410.4321117,,,,,,,,,,,,,,,,,,,,,,,,,,,,,,1410.4168174999995,1410.4321117,1410.9168938999992,,,,,,,,,,,,,,1410.9447505000007,,,,,,,,,,,,,1410.9413667999997,1410.9447505000007,1410.9447505000007,1410.9447505000007,1413.9323115000007,j,1.4221796999991057,0.17640469999969355,1413.9323588999996,1413.9323710999997,None,,,,,,,,,,,,,,,,,00028,001,2025-11-17_17h09.59.427,MST_task,2024.2.0,59.97688490841146,2025-11-17 17h10.06.168199 +0530,
,Scenes\005a.jpg,159,0,160,,,,,,,f,2.0706817000009323,0.19168589999935648,None,,,,,,160,0,159,1413.9488005000003,,,,,,,,,,,,,,,,,,,,,,,,,,,,,,1413.9325152000001,1413.9488005000003,1414.4331253,,,,,,,,,,,,,,1414.4563101999993,,,,,,,,,,,,,1414.4529485999992,1414.4563101999993,1414.4563101999993,1414.4563101999993,1417.4326079999992,f,2.0706817000009323,0.19168589999935648,1417.4327995999993,1417.4328905999992,None,,,,,,,,,,,,,,,,,00028,001,2025-11-17_17h09.59.427,MST_task,2024.2.0,59.97688490841146,2025-11-17 17h10.06.168199 +0530,
,Scenes\110a.jpg,160,0,161,,,,,,,j,0.9848729000004823,0.18501280000054976,None,,,,,,161,0,160,1417.4489938000006,,,,,,,,,,,,,,,,,,,,,,,,,,,,,,1417.4331982999993,1417.4489938000006,1417.9336110999993,,,,,,,,,,,,,,1417.9497355999993,,,,,,,,,,,,,1417.9452342999994,1417.9497355999993,1417.9497355999993,1417.9497355999993,1420.9344490000003,j,0.9848729000004823,0.18501280000054976,1420.9346760000008,1420.9347345999995,None,1420.9488395999997,1420.9488395999997,1420.9488395999997,,,,,,,,,,,,,,00028,001,2025-11-17_17h09.59.427,MST_task,2024.2.0,59.97688490841146,2025-11-17 17h10.06.168199 +0530,
,Objects\051a.jpg,161,0,162,,,,,,,f,2.110217299999931,0.22300640000139538,None,,,,,,162,0,161,1420.9488395999997,,,,,,,,,,,,,,,,,,,,,,,,,,,,,,1420.9351614999996,1420.9488395999997,1421.4335812999998,,,,,,,,,,,,,,1421.4496672000005,,,,,,,,,,,,,1421.4422414,1421.4496672000005,1421.4496672000005,1421.4496672000005,1424.4339762,f,2.110217299999931,0.22300640000139538,1424.4390796999996,1424.4391039999991,None,1424.4486851000001,1424.4486851000001,1424.4486851000001,,,,,,,,,,,,,,00028,001,2025-11-17_17h09.59.427,MST_task,2024.2.0,59.97688490841146,2025-11-17 17h10.06.168199 +0530,
,Objects\115a.jpg,162,0,163,,,,,,,f,0.6312899999993533,0.20809170000029553,None,,,,,,163,0,162,1424.4486851000001,,,,,,,,,,,,,,,,,,,,,,,,,,,,,,1424.4392055000008,1424.4486851000001,1424.9331683,,,,,,,,,,,,,,1424.951624199999,,,,,,,,,,,,,1424.9489685000008,1424.951624199999,1424.951624199999,1424.951624199999,1427.9494496999996,f,0.6312899999993533,0.20809170000029553,1427.9497876999994,1427.9498614000004,None,,,,,,,,,,,,,,,,,00028,001,2025-11-17_17h09.59.427,MST_task,2024.2.0,59.97688490841146,2025-11-17 17h10.06.168199 +0530,
,Objects\080a.jpg,163,0,164,,,,,,,f,0.6206889999994019,0.21651609999935317,None,,,,,,164,0,163,1427.9655466999993,,,,,,,,,,,,,,,,,,,,,,,,,,,,,,1427.9504166999996,1427.9655466999993,1428.4501161999997,,,,,,,,,,,,,,1428.4659838999996,,,,,,,,,,,,,1428.4584577999995,1428.4659838999996,1428.4659838999996,1428.4659838999996,1431.4510871999992,f,0.6206889999994019,0.21651609999935317,1431.4512243000008,1431.4512685999998,None,1431.4655846000005,1431.4655846000005,1431.4655846000005,,,,,,,,,,,,,,00028,001,2025-11-17_17h09.59.427,MST_task,2024.2.0,59.97688490841146,2025-11-17 17h10.06.168199 +0530,
,Objects\024a.jpg,164,0,165,,,,,,,f,0.8735935999993671,0.21553750000020955,None,,,,,,165,0,164,1431.4655846000005,,,,,,,,,,,,,,,,,,,,,,,,,,,,,,1431.4514901999992,1431.4655846000005,1431.9500270000008,,,,,,,,,,,,,,1431.9657755999997,,,,,,,,,,,,,1431.9590587999992,1431.9657755999997,1431.9657755999997,1431.9657755999997,1434.9510871000002,f,0.8735935999993671,0.21553750000020955,1434.9512654999999,1434.9513422,None,1434.9657855999994,1434.9657855999994,1434.9657855999994,,,,,,,,,,,,,,00028,001,2025-11-17_17h09.59.427,MST_task,2024.2.0,59.97688490841146,2025-11-17 17h10.06.168199 +0530,
