Sl_no,image_path,thisN,thisTrialN,thisRepN,key_resp_5.keys,key_resp_7.keys,key_resp_7.rt,key_resp_7.duration,key_resp_5.rt,key_resp_5.duration,key_resp_9.keys,key_resp_9.rt,key_resp_9.duration,key_resp_8.keys,key_resp_8.rt,key_resp_8.duration,practice.thisRepN,practice.thisTrialN,practice.thisN,practice.thisIndex,trials.thisRepN,trials.thisTrialN,trials.thisN,trials.thisIndex,thisRow.t,notes,welcome_page.started,text.started,key_resp.started,welcome_page.stopped,key_resp.keys,key_resp.rt,key_resp.duration,instructions.started,ins.started,key_resp_2.started,instructions.stopped,key_resp_2.keys,key_resp_2.rt,key_resp_2.duration,instructions_2.started,text_10.started,key_resp_10.started,instructions_2.stopped,key_resp_10.keys,key_resp_10.rt,key_resp_10.duration,objects_only_instruction.started,text_3.started,key_resp_3.started,objects_only_instruction.stopped,key_resp_3.keys,key_resp_3.rt,key_resp_3.duration,ISI.started,text_4.started,ISI.stopped,practice_block.started,image.started,text_5.started,key_resp_5.started,practice_block.stopped,practice.key_resp_5.keys,indoor_outdoor.started,text_7.started,key_resp_7.started,indoor_outdoor.stopped,practice.key_resp_7.keys,practice.key_resp_7.rt,practice.key_resp_7.duration,text_4.stopped,image.stopped,text_5.stopped,key_resp_5.stopped,practice.key_resp_5.rt,practice.key_resp_5.duration,practice_to_main.started,text_2.started,key_resp_4.started,practice_to_main.stopped,key_resp_4.keys,key_resp_4.rt,key_resp_4.duration,objects.started,image_2.started,text_9.started,key_resp_9.started,objects.stopped,trials.key_resp_9.keys,trials.key_resp_9.rt,trials.key_resp_9.duration,encoding_task.started,encoding_task.stopped,trials.key_resp_8.keys,text_8.started,key_resp_8.started,trials.key_resp_8.rt,trials.key_resp_8.duration,end_experiment.started,text_6.started,key_resp_6.started,end_experiment.stopped,key_resp_6.keys,key_resp_6.rt,key_resp_6.duration,list_of_stimuli,encoding_task_accuracy,participant,session,date,expName,psychopyVersion,frameRate,expStart,
,,,,,,,,,,,,,,,,,,,,,,,,,,,0.012995300000000043,0.09627960000000257,0.09627960000000257,11.049571600000007,space,10.87495100000001,None,,,,,,,,,,,,,,,,,,,,,,,,,,,,,,,,,,,,,,,,,,,,,,,,,,,,,,,,,,,,,,,,,,,,,,,,,,,00022,001,2025-11-11_04h49.33.010,MST_task,2024.2.2,60.41080555997154,2025-11-11 04h49.42.740284 +0530,
,,,,,,,,,,,,,,,,,,,,,,,,,,,,,,,,,,11.049614300000002,11.062690500000002,11.062690500000002,31.429294700000014,space,20.35879,None,,,,,,,,,,,,,,,,,,,,,,,,,,,,,,,,,,,,,,,,,,,,,,,,,,,,,,,,,,,,,,,,,,,,00022,001,2025-11-11_04h49.33.010,MST_task,2024.2.2,60.41080555997154,2025-11-11 04h49.42.740284 +0530,
,,,,,,,,,,,,,,,,,,,,,,,,,,,,,,,,,,,,,,,,,31.429319399999997,31.44563819999999,31.44563819999999,50.012180900000004,space,18.56335180000002,None,,,,,,,,,,,,,,,,,,,,,,,,,,,,,,,,,,,,,,,,,,,,,,,,,,,,,,,,,,,,,00022,001,2025-11-11_04h49.33.010,MST_task,2024.2.2,60.41080555997154,2025-11-11 04h49.42.740284 +0530,
,,,,,,,,,,,,,,,,,,,,,,,,,,,,,,,,,,,,,,,,,,,,,,,,50.012212000000005,50.028565499999985,50.028565499999985,69.17842720000002,space,19.14458589999998,None,,,,,,,,,,,,,,,,,,,,,,,,,,,,,,,,,,,,,,,,,,,,,,,,,,,,,,00022,001,2025-11-11_04h49.33.010,MST_task,2024.2.2,60.41080555997154,2025-11-11 04h49.42.740284 +0530,
7,practice_images/166a.jpg,0,0,0,None,f,3.673692800000026,None,,,,,,,,,0,0,0,6,,,,,69.2113386,,,,,,,,,,,,,,,,,,,,,,,,,,,,,,69.19581639999998,69.2113386,69.69480969999998,69.74317210000001,69.76164129999998,69.76164129999998,69.76164129999998,72.694623,None,72.69587700000002,72.7112291,72.7112291,76.39507219999999,f,3.673692800000026,None,,,,,,,,,,,,,,,,,,,,,,,,,,,,,,,,,,,,,,00022,001,2025-11-11_04h49.33.010,MST_task,2024.2.2,60.41080555997154,2025-11-11 04h49.42.740284 +0530,
5,practice_images/139a.jpg,1,1,0,None,j,1.0818968000000382,None,,,,,,,,,0,1,1,4,,,,,76.41113529999998,,,,,,,,,,,,,,,,,,,,,,,,,,,,,,76.39515309999999,76.41113529999998,76.89465870000001,76.9222177,76.92783130000001,76.92783130000001,76.92783130000001,79.91122770000001,None,79.91126269999998,79.92776189999998,79.92776189999998,81.01140649999999,j,1.0818968000000382,None,76.92783130000001,,,,,,,,,,,,,,,,,,,,,,,,,,,,,,,,,,,,,00022,001,2025-11-11_04h49.33.010,MST_task,2024.2.2,60.41080555997154,2025-11-11 04h49.42.740284 +0530,
6,practice_images/158a.jpg,2,2,0,j,None,,,2.167372300000011,0.0918811999999889,,,,,,,0,2,2,5,,,,,81.02773570000002,,,,,,,,,,,,,,,,,,,,,,,,,,,,,,81.01148509999999,81.02773570000002,81.51131369999999,81.52331740000002,81.52755099999999,81.52755099999999,81.52755099999999,84.51114770000001,j,84.5111838,,,84.51119229999998,None,,,81.52755099999999,84.5276446,84.5276446,84.5276446,2.167372300000011,0.0918811999999889,,,,,,,,,,,,,,,,,,,,,,,,,,,,,,,,00022,001,2025-11-11_04h49.33.010,MST_task,2024.2.2,60.41080555997154,2025-11-11 04h49.42.740284 +0530,
1,practice_images/013a.jpg,3,3,0,j,None,,,1.3191443999999706,0.12473929999998745,,,,,,,0,3,3,0,,,,,84.5276446,,,,,,,,,,,,,,,,,,,,,,,,,,,,,,84.51124860000002,84.5276446,85.01119480000003,85.03538449999999,85.04430299999999,85.04430299999999,85.04430299999999,88.0275958,j,88.02762959999998,,,88.0276388,None,,,85.04430299999999,,,,1.3191443999999706,0.12473929999998745,,,,,,,,,,,,,,,,,,,,,,,,,,,,,,,,00022,001,2025-11-11_04h49.33.010,MST_task,2024.2.2,60.41080555997154,2025-11-11 04h49.42.740284 +0530,
9,practice_images/180a.jpg,4,4,0,f,None,,,1.0468829999999798,0.18908759999999347,,,,,,,0,4,4,8,,,,,88.04422980000001,,,,,,,,,,,,,,,,,,,,,,,,,,,,,,88.02769470000001,88.04422980000001,88.52767839999999,88.54553810000002,88.56086480000002,88.56086480000002,88.56086480000002,91.5442831,f,91.54431830000001,,,91.54432749999998,None,,,88.56086480000002,,,,1.0468829999999798,0.18908759999999347,,,,,,,,,,,,,,,,,,,,,,,,,,,,,,,,00022,001,2025-11-11_04h49.33.010,MST_task,2024.2.2,60.41080555997154,2025-11-11 04h49.42.740284 +0530,
4,practice_images/002b.jpg,5,5,0,None,j,3.049569099999985,None,,,,,,,,,0,5,5,3,,,,,91.5608455,,,,,,,,,,,,,,,,,,,,,,,,,,,,,,91.54438480000002,91.5608455,92.04439140000002,92.06713219999997,92.07749070000003,92.07749070000003,92.07749070000003,95.06076629999998,None,95.06229590000001,95.0773996,95.0773996,98.12764610000002,j,3.049569099999985,None,92.07749070000003,,,,,,,,,,,,,,,,,,,,,,,,,,,,,,,,,,,,,00022,001,2025-11-11_04h49.33.010,MST_task,2024.2.2,60.41080555997154,2025-11-11 04h49.42.740284 +0530,
10,practice_images/182a.jpg,6,6,0,None,f,0.12422980000002326,None,,,,,,,,,0,6,6,9,,,,,98.14407279999998,,,,,,,,,,,,,,,,,,,,,,,,,,,,,,98.1277249,98.14407279999998,98.62753840000002,98.64181540000001,98.6606583,98.6606583,98.6606583,101.64402349999997,None,101.64406169999998,101.66058269999999,101.66058269999999,101.79430690000001,f,0.12422980000002326,None,98.6606583,,,,,,,,,,,,,,,,,,,,,,,,,,,,,,,,,,,,,00022,001,2025-11-11_04h49.33.010,MST_task,2024.2.2,60.41080555997154,2025-11-11 04h49.42.740284 +0530,
2,practice_images/031a.jpg,7,7,0,j,None,,,2.2303084999999783,0.15084519999999202,,,,,,,0,7,7,1,,,,,101.81058679999998,,,,,,,,,,,,,,,,,,,,,,,,,,,,,,101.79437399999998,101.81058679999998,102.29409310000003,102.31770930000002,102.32725889999998,102.32725889999998,102.32725889999998,105.3106076,j,105.31064510000002,,,105.31065459999999,None,,,102.32725889999998,,,,2.2303084999999783,0.15084519999999202,,,,,,,,,,,,,,,,,,,,,,,,,,,,,,,,00022,001,2025-11-11_04h49.33.010,MST_task,2024.2.2,60.41080555997154,2025-11-11 04h49.42.740284 +0530,
8,practice_images/178a.jpg,8,8,0,f,None,,,1.7555190000000493,0.1752689999999575,,,,,,,0,8,8,7,,,,,105.32717310000001,,,,,,,,,,,,,,,,,,,,,,,,,,,,,,105.31071080000001,105.32717310000001,105.81067379999999,105.82335370000001,105.84383060000002,105.84383060000002,105.84383060000002,108.827257,f,108.8272939,,,108.82730339999998,None,,,105.84383060000002,,,,1.7555190000000493,0.1752689999999575,,,,,,,,,,,,,,,,,,,,,,,,,,,,,,,,00022,001,2025-11-11_04h49.33.010,MST_task,2024.2.2,60.41080555997154,2025-11-11 04h49.42.740284 +0530,
3,practice_images/037a.jpg,9,9,0,None,j,0.2589783999999895,None,,,,,,,,,0,9,9,2,,,,,108.8437542,,,,,,,,,,,,,,,,,,,,,,,,,,,,,,108.82736229999998,108.8437542,109.3273412,109.34387849999999,109.3604402,109.3604402,109.3604402,112.34374849999998,None,112.3437797,112.36034780000003,112.36034780000003,112.62738670000002,j,0.2589783999999895,None,109.3604402,,,,,,,,,,,,,,,,,,,,,,,,,,,,,,,,,,,,,00022,001,2025-11-11_04h49.33.010,MST_task,2024.2.2,60.41080555997154,2025-11-11 04h49.42.740284 +0530,
,,,,,,,,,,,,,,,,,,,,,,,,,,,,,,,,,,,,,,,,,,,,,,,,,,,,,,,,,,,,,,,,,,,,,,,,,,,,,112.62743800000001,112.64363369999998,112.64363369999998,160.22630439999998,space,47.572674500000005,None,,,,,,,,,,,,,,,,,,,,,,,,,00022,001,2025-11-11_04h49.33.010,MST_task,2024.2.2,60.41080555997154,2025-11-11 04h49.42.740284 +0530,
,Scenes\117a.jpg,0,0,0,,,,,,,j,1.9632746999999995,0.13827689999999393,None,,,,,,,0,0,0,0,160.242582,,,,,,,,,,,,,,,,,,,,,,,,,,,,,,160.22690910000003,160.242582,160.7261801,,,,,,,,,,,,,,160.80954469999998,,,,,,,,,,,,,160.79793149999998,160.80954469999998,160.80954469999998,160.80954469999998,163.7426042,j,1.9632746999999995,0.13827689999999393,163.7437988,163.7438139,None,,,,,,,,,,,,,,00022,001,2025-11-11_04h49.33.010,MST_task,2024.2.2,60.41080555997154,2025-11-11 04h49.42.740284 +0530,
,Scenes\115a.jpg,1,0,1,,,,,,,None,,,j,0.513507699999991,None,,,,,1,0,1,0,163.7591641,,,,,,,,,,,,,,,,,,,,,,,,,,,,,,163.74389900000003,163.7591641,164.24271539999998,,,,,,,,,,,,,,164.292808,,,,,,,,,,,,,164.28075450000003,164.292808,164.292808,164.292808,167.25909220000003,None,,,167.2591338,167.7926844,j,167.27575099999999,167.27575099999999,0.513507699999991,None,,,,,,,,,,00022,001,2025-11-11_04h49.33.010,MST_task,2024.2.2,60.41080555997154,2025-11-11 04h49.42.740284 +0530,
,Scenes\122a.jpg,2,0,2,,,,,,,f,1.9428120999999692,0.13458460000003925,None,,,,,,,2,0,2,0,167.8090728,,,,,,,,,,,,,,,,,,,,,,,,,,,,,,167.79276819999998,167.8090728,168.29251430000002,,,,,,,,,,,,,,168.34236869999998,,,,,,,,,,,,,168.3243737,168.34236869999998,168.34236869999998,168.34236869999998,171.3089944,f,1.9428120999999692,0.13458460000003925,171.3090301,171.30904030000002,None,,,,,,,,,,,,,,00022,001,2025-11-11_04h49.33.010,MST_task,2024.2.2,60.41080555997154,2025-11-11 04h49.42.740284 +0530,
,Scenes\192a.jpg,3,0,3,,,,,,,j,1.8906418999999914,0.1419361999999751,None,,,,,,,3,0,3,0,171.32566,,,,,,,,,,,,,,,,,,,,,,,,,,,,,,171.3091388,171.32566,171.80913110000003,,,,,,,,,,,,,,171.85901400000003,,,,,,,,,,,,,171.8376506,171.85901400000003,171.85901400000003,171.85901400000003,174.82560579999998,j,1.8906418999999914,0.1419361999999751,174.82564169999998,174.82565259999998,None,,,,,,,,,,,,,,00022,001,2025-11-11_04h49.33.010,MST_task,2024.2.2,60.41080555997154,2025-11-11 04h49.42.740284 +0530,
,Scenes\163a.jpg,4,0,4,,,,,,,j,2.0218333999999913,0.1452931000000035,None,,,,,,,4,0,4,0,174.8422406,,,,,,,,,,,,,,,,,,,,,,,,,,,,,,174.8257116,174.8422406,175.32572480000002,,,,,,,,,,,,,,175.3755864,,,,,,,,,,,,,175.3529839,175.3755864,175.3755864,175.3755864,178.34225510000002,j,2.0218333999999913,0.1452931000000035,178.3422973,178.3423084,None,,,,,,,,,,,,,,00022,001,2025-11-11_04h49.33.010,MST_task,2024.2.2,60.41080555997154,2025-11-11 04h49.42.740284 +0530,
,Scenes\034a.jpg,5,0,5,,,,,,,None,,,f,1.6542153999999982,None,,,,,5,0,5,0,178.35882139999998,,,,,,,,,,,,,,,,,,,,,,,,,,,,,,178.3424047,178.35882139999998,178.84234440000003,,,,,,,,,,,,,,178.90904170000002,,,,,,,,,,,,,178.8890135,178.90904170000002,178.90904170000002,178.90904170000002,181.8588445,None,,,181.8588989,183.5423115,f,181.87542370000003,181.87542370000003,1.6542153999999982,None,,,,,,,,,,00022,001,2025-11-11_04h49.33.010,MST_task,2024.2.2,60.41080555997154,2025-11-11 04h49.42.740284 +0530,
,Scenes\017a.jpg,6,0,6,,,,,,,f,1.9076169000000505,0.1339368999999806,None,,,,,,,6,0,6,0,183.55875010000003,,,,,,,,,,,,,,,,,,,,,,,,,,,,,,183.5424275,183.55875010000003,184.04221170000002,,,,,,,,,,,,,,184.0923534,,,,,,,,,,,,,184.0809867,184.0923534,184.0923534,184.0923534,187.05866740000002,f,1.9076169000000505,0.1339368999999806,187.05870230000002,187.05871370000003,None,,,,,,,,,,,,,,00022,001,2025-11-11_04h49.33.010,MST_task,2024.2.2,60.41080555997154,2025-11-11 04h49.42.740284 +0530,
,Objects\067a.jpg,7,0,7,,,,,,,None,,,f,0.19303530000001956,None,,,,,7,0,7,0,187.07530290000003,,,,,,,,,,,,,,,,,,,,,,,,,,,,,,187.0588018,187.07530290000003,187.55878529999998,,,,,,,,,,,,,,,,,,,,,,,,,,,187.59908270000003,187.6088369,187.6088369,187.6088369,190.5752757,None,,,190.57742199999998,190.79225820000002,f,190.5918702,190.5918702,0.19303530000001956,None,,,,,,,,,,00022,001,2025-11-11_04h49.33.010,MST_task,2024.2.2,60.41080555997154,2025-11-11 04h49.42.740284 +0530,
,Objects\021a.jpg,8,0,8,,,,,,,j,1.7715064999999868,0.12353189999998904,None,,,,,,,8,0,8,0,190.8085422,,,,,,,,,,,,,,,,,,,,,,,,,,,,,,190.7923335,190.8085422,191.29206459999997,,,,,,,,,,,,,,191.3418359,,,,,,,,,,,,,191.32558550000002,191.3418359,191.3418359,191.3418359,194.30862199999999,j,1.7715064999999868,0.12353189999998904,194.30866260000002,194.3086746,None,,,,,,,,,,,,,,00022,001,2025-11-11_04h49.33.010,MST_task,2024.2.2,60.41080555997154,2025-11-11 04h49.42.740284 +0530,
,Objects\132a.jpg,9,0,9,,,,,,,None,,,f,0.23170290000001614,None,,,,,9,0,9,0,194.32516489999998,,,,,,,,,,,,,,,,,,,,,,,,,,,,,,194.30875340000003,194.32516489999998,194.80880349999998,,,,,,,,,,,,,,194.84179020000002,,,,,,,,,,,,,194.83498319999998,194.84179020000002,194.84179020000002,194.84179020000002,197.8251235,None,,,197.8251602,198.07547430000002,f,197.84168350000002,197.84168350000002,0.23170290000001614,None,,,,,,,,,,00022,001,2025-11-11_04h49.33.010,MST_task,2024.2.2,60.41080555997154,2025-11-11 04h49.42.740284 +0530,
,Objects\070a.jpg,10,0,10,,,,,,,f,1.878809799999999,0.13983070000000453,None,,,,,,,10,0,10,0,198.09170450000002,,,,,,,,,,,,,,,,,,,,,,,,,,,,,,198.07558100000003,198.09170450000002,198.57525869999998,,,,,,,,,,,,,,198.60832789999998,,,,,,,,,,,,,198.60033280000002,198.60832789999998,198.60832789999998,198.60832789999998,201.5916667,f,1.878809799999999,0.13983070000000453,201.5917168,201.5917289,None,,,,,,,,,,,,,,00022,001,2025-11-11_04h49.33.010,MST_task,2024.2.2,60.41080555997154,2025-11-11 04h49.42.740284 +0530,
,Objects\122a.jpg,11,0,11,,,,,,,None,,,f,0.15224259999996548,None,,,,,11,0,11,0,201.6082966,,,,,,,,,,,,,,,,,,,,,,,,,,,,,,201.59178999999997,201.6082966,202.0918607,,,,,,,,,,,,,,202.1247888,,,,,,,,,,,,,202.12106659999998,202.1247888,202.1247888,202.1247888,205.10826269999998,None,,,205.10829500000003,205.29178929999998,f,205.1248843,205.1248843,0.15224259999996548,None,,,,,,,,,,00022,001,2025-11-11_04h49.33.010,MST_task,2024.2.2,60.41080555997154,2025-11-11 04h49.42.740284 +0530,
,Objects\052a.jpg,12,0,12,,,,,,,f,1.462047699999971,0.16209730000002764,None,,,,,,,12,0,12,0,205.3082135,,,,,,,,,,,,,,,,,,,,,,,,,,,,,,205.29185909999998,205.3082135,205.79174600000002,,,,,,,,,,,,,,205.84149549999998,,,,,,,,,,,,,205.8318851,205.84149549999998,205.84149549999998,205.84149549999998,208.8083038,f,1.462047699999971,0.16209730000002764,208.8083458,208.8083569,None,,,,,,,,,,,,,,00022,001,2025-11-11_04h49.33.010,MST_task,2024.2.2,60.41080555997154,2025-11-11 04h49.42.740284 +0530,
,Objects\181a.jpg,13,0,13,,,,,,,j,1.4105761000000143,0.1693051999999966,None,,,,,,,13,0,13,0,208.82479350000003,,,,,,,,,,,,,,,,,,,,,,,,,,,,,,208.80842320000002,208.82479350000003,209.3083412,,,,,,,,,,,,,,209.34145020000003,,,,,,,,,,,,,209.33252080000003,209.34145020000003,209.34145020000003,209.34145020000003,212.32489339999998,j,1.4105761000000143,0.1693051999999966,212.32493589999999,212.32494820000002,None,,,,,,,,,,,,,,00022,001,2025-11-11_04h49.33.010,MST_task,2024.2.2,60.41080555997154,2025-11-11 04h49.42.740284 +0530,
,Scenes\138a.jpg,14,0,14,,,,,,,j,2.698678599999994,0.14942389999998795,None,,,,,,,14,0,14,0,212.3414997,,,,,,,,,,,,,,,,,,,,,,,,,,,,,,212.3250146,212.3414997,212.82494469999997,,,,,,,,,,,,,,212.87501060000002,,,,,,,,,,,,,212.856814,212.87501060000002,212.87501060000002,212.87501060000002,215.84135799999999,j,2.698678599999994,0.14942389999998795,215.84252869999997,215.8425452,None,,,,,,,,,,,,,,00022,001,2025-11-11_04h49.33.010,MST_task,2024.2.2,60.41080555997154,2025-11-11 04h49.42.740284 +0530,
,Scenes\035a.jpg,15,0,15,,,,,,,j,2.962297299999989,None,None,,,,,,,15,0,15,0,215.85798580000002,,,,,,,,,,,,,,,,,,,,,,,,,,,,,,215.84264170000003,215.85798580000002,216.3415037,,,,,,,,,,,,,,216.3747572,,,,,,,,,,,,,216.36049110000002,216.3747572,216.3747572,216.3747572,219.3580016,j,2.962297299999989,None,219.358054,219.3580661,None,,,,,,,,,,,,,,00022,001,2025-11-11_04h49.33.010,MST_task,2024.2.2,60.41080555997154,2025-11-11 04h49.42.740284 +0530,
,Scenes\116a.jpg,16,0,16,,,,,,,j,1.9634720000000243,0.1814115999999899,None,,,,,,,16,0,16,0,219.37461299999998,,,,,,,,,,,,,,,,,,,,,,,,,,,,,,219.35813069999998,219.37461299999998,219.8580924,,,,,,,,,,,,,,219.90794939999998,,,,,,,,,,,,,219.8915742,219.90794939999998,219.90794939999998,219.90794939999998,222.8746045,j,1.9634720000000243,0.1814115999999899,222.87465089999998,222.8746642,None,,,,,,,,,,,,,,00022,001,2025-11-11_04h49.33.010,MST_task,2024.2.2,60.41080555997154,2025-11-11 04h49.42.740284 +0530,
,Scenes\058a.jpg,17,0,17,,,,,,,f,1.5152152999999657,0.19583610000000817,None,,,,,,,17,0,17,0,222.89120499999999,,,,,,,,,,,,,,,,,,,,,,,,,,,,,,222.87476560000002,222.89120499999999,223.3747236,,,,,,,,,,,,,,223.40780479999998,,,,,,,,,,,,,223.39241990000002,223.40780479999998,223.40780479999998,223.40780479999998,226.3910776,f,1.5152152999999657,0.19583610000000817,226.39112709999998,226.39113890000002,None,,,,,,,,,,,,,,00022,001,2025-11-11_04h49.33.010,MST_task,2024.2.2,60.41080555997154,2025-11-11 04h49.42.740284 +0530,
,Scenes\066a.jpg,18,0,18,,,,,,,j,1.09210539999998,0.1940849000000071,None,,,,,,,18,0,18,0,226.40772180000002,,,,,,,,,,,,,,,,,,,,,,,,,,,,,,226.3912309,226.40772180000002,226.89123709999998,,,,,,,,,,,,,,226.94144450000002,,,,,,,,,,,,,226.9271686,226.94144450000002,226.94144450000002,226.94144450000002,229.90770289999998,j,1.09210539999998,0.1940849000000071,229.907745,229.9077558,None,,,,,,,,,,,,,,00022,001,2025-11-11_04h49.33.010,MST_task,2024.2.2,60.41080555997154,2025-11-11 04h49.42.740284 +0530,
,Scenes\019a.jpg,19,0,19,,,,,,,j,2.3678357000000005,0.1373514,None,,,,,,,19,0,19,0,229.9243144,,,,,,,,,,,,,,,,,,,,,,,,,,,,,,229.9078416,229.9243144,230.40780070000002,,,,,,,,,,,,,,230.45763739999998,,,,,,,,,,,,,230.43968650000002,230.45763739999998,230.45763739999998,230.45763739999998,233.42430190000002,j,2.3678357000000005,0.1373514,233.42433780000002,233.42434870000002,None,,,,,,,,,,,,,,00022,001,2025-11-11_04h49.33.010,MST_task,2024.2.2,60.41080555997154,2025-11-11 04h49.42.740284 +0530,
,Scenes\096a.jpg,20,0,20,,,,,,,j,1.4740348000000267,0.16194280000001982,None,,,,,,,20,0,20,0,233.44090070000001,,,,,,,,,,,,,,,,,,,,,,,,,,,,,,233.4244075,233.44090070000001,233.92436510000002,,,,,,,,,,,,,,233.95751829999998,,,,,,,,,,,,,233.94866320000003,233.95751829999998,233.95751829999998,233.95751829999998,236.9408963,j,1.4740348000000267,0.16194280000001982,236.94093619999998,236.9409479,None,,,,,,,,,,,,,,00022,001,2025-11-11_04h49.33.010,MST_task,2024.2.2,60.41080555997154,2025-11-11 04h49.42.740284 +0530,
,Objects\172a.jpg,21,0,21,,,,,,,j,2.3845534000000157,0.11079829999999902,None,,,,,,,21,0,21,0,236.9574817,,,,,,,,,,,,,,,,,,,,,,,,,,,,,,236.94104180000002,236.9574817,237.440983,,,,,,,,,,,,,,237.4741167,,,,,,,,,,,,,237.4689178,237.4741167,237.4741167,237.4741167,240.45746319999998,j,2.3845534000000157,0.11079829999999902,240.45902780000003,240.4590396,None,,,,,,,,,,,,,,00022,001,2025-11-11_04h49.33.010,MST_task,2024.2.2,60.41080555997154,2025-11-11 04h49.42.740284 +0530,
,Objects\117a.jpg,22,0,22,,,,,,,None,,,f,0.978580299999976,None,,,,,22,0,22,0,240.47406429999998,,,,,,,,,,,,,,,,,,,,,,,,,,,,,,240.45912030000002,240.47406429999998,240.9575622,,,,,,,,,,,,,,240.99069599999999,,,,,,,,,,,,,240.97951120000002,240.99069599999999,240.99069599999999,240.99069599999999,243.9741359,None,,,243.97416969999998,244.97439519999998,f,243.99066200000001,243.99066200000001,0.978580299999976,None,,,,,,,,,,00022,001,2025-11-11_04h49.33.010,MST_task,2024.2.2,60.41080555997154,2025-11-11 04h49.42.740284 +0530,
,Objects\179a.jpg,23,0,23,,,,,,,f,2.2827093999999875,0.1966904000000227,None,,,,,,,23,0,23,0,244.99064,,,,,,,,,,,,,,,,,,,,,,,,,,,,,,244.9744716,244.99064,245.4742211,,,,,,,,,,,,,,245.5239501,,,,,,,,,,,,,245.5106843,245.5239501,245.5239501,245.5239501,248.4906121,f,2.2827093999999875,0.1966904000000227,248.4906543,248.49066610000003,None,,,,,,,,,,,,,,00022,001,2025-11-11_04h49.33.010,MST_task,2024.2.2,60.41080555997154,2025-11-11 04h49.42.740284 +0530,
,Objects\051a.jpg,24,0,24,,,,,,,j,1.8884550999999874,0.16608770000004824,None,,,,,,,24,0,24,0,248.50722599999997,,,,,,,,,,,,,,,,,,,,,,,,,,,,,,248.4907562,248.50722599999997,248.99069620000003,,,,,,,,,,,,,,249.04050880000003,,,,,,,,,,,,,249.0216336,249.04050880000003,249.04050880000003,249.04050880000003,252.00719360000002,j,1.8884550999999874,0.16608770000004824,252.00723259999998,252.007243,None,,,,,,,,,,,,,,00022,001,2025-11-11_04h49.33.010,MST_task,2024.2.2,60.41080555997154,2025-11-11 04h49.42.740284 +0530,
,Objects\188a.jpg,25,0,25,,,,,,,f,2.1212084000000004,0.14144199999998364,None,,,,,,,25,0,25,0,252.0237695,,,,,,,,,,,,,,,,,,,,,,,,,,,,,,252.0073002,252.0237695,252.50726590000002,,,,,,,,,,,,,,252.5404318,,,,,,,,,,,,,252.52367189999998,252.5404318,252.5404318,252.5404318,255.52388750000003,f,2.1212084000000004,0.14144199999998364,255.5239291,255.52394,None,,,,,,,,,,,,,,00022,001,2025-11-11_04h49.33.010,MST_task,2024.2.2,60.41080555997154,2025-11-11 04h49.42.740284 +0530,
,Objects\046a.jpg,26,0,26,,,,,,,f,2.554002500000024,0.15367349999996804,None,,,,,,,26,0,26,0,255.54038649999998,,,,,,,,,,,,,,,,,,,,,,,,,,,,,,255.52403110000003,255.54038649999998,256.0239401,,,,,,,,,,,,,,256.0570771,,,,,,,,,,,,,256.04668000000004,256.0570771,256.0570771,256.0570771,259.04033690000006,f,2.554002500000024,0.15367349999996804,259.04037589999996,259.0403874,None,,,,,,,,,,,,,,00022,001,2025-11-11_04h49.33.010,MST_task,2024.2.2,60.41080555997154,2025-11-11 04h49.42.740284 +0530,
,Objects\141a.jpg,27,0,27,,,,,,,j,1.3504877000000306,0.19039629999997487,None,,,,,,,27,0,27,0,259.0569861,,,,,,,,,,,,,,,,,,,,,,,,,,,,,,259.0404472,259.0569861,259.54043120000006,,,,,,,,,,,,,,259.59029740000005,,,,,,,,,,,,,259.5711884,259.59029740000005,259.59029740000005,259.59029740000005,262.55696720000003,j,1.3504877000000306,0.19039629999997487,262.55700390000004,262.5570152,None,,,,,,,,,,,,,,00022,001,2025-11-11_04h49.33.010,MST_task,2024.2.2,60.41080555997154,2025-11-11 04h49.42.740284 +0530,
,Scenes\139a.jpg,28,0,28,,,,,,,j,1.3807766999999558,0.1730117000000746,None,,,,,,,28,0,28,0,262.57356070000003,,,,,,,,,,,,,,,,,,,,,,,,,,,,,,262.5570752,262.57356070000003,263.0570566,,,,,,,,,,,,,,263.1071952,,,,,,,,,,,,,263.08575040000005,263.1071952,263.1071952,263.1071952,266.0735436,j,1.3807766999999558,0.1730117000000746,266.07465119999995,266.07466309999995,None,,,,,,,,,,,,,,00022,001,2025-11-11_04h49.33.010,MST_task,2024.2.2,60.41080555997154,2025-11-11 04h49.42.740284 +0530,
,Scenes\083a.jpg,29,0,29,,,,,,,j,1.9158312000000706,0.0919711000000234,None,,,,,,,29,0,29,0,266.09014809999996,,,,,,,,,,,,,,,,,,,,,,,,,,,,,,266.07474720000005,266.09014809999996,266.573806,,,,,,,,,,,,,,266.60707379999997,,,,,,,,,,,,,266.5924228,266.60707379999997,266.60707379999997,266.60707379999997,269.59010090000004,j,1.9158312000000706,0.0919711000000234,269.5901381,269.59014950000005,None,,,,,,,,,,,,,,00022,001,2025-11-11_04h49.33.010,MST_task,2024.2.2,60.41080555997154,2025-11-11 04h49.42.740284 +0530,
,Scenes\190a.jpg,30,0,30,,,,,,,j,1.261128499999927,0.11389029999998002,None,,,,,,,30,0,30,0,269.60674259999996,,,,,,,,,,,,,,,,,,,,,,,,,,,,,,269.5902394,269.60674259999996,270.09022219999997,,,,,,,,,,,,,,270.14002059999996,,,,,,,,,,,,,270.11763859999996,270.14002059999996,270.14002059999996,270.14002059999996,273.10667509999996,j,1.261128499999927,0.11389029999998002,273.1067101,273.10672079999995,None,,,,,,,,,,,,,,00022,001,2025-11-11_04h49.33.010,MST_task,2024.2.2,60.41080555997154,2025-11-11 04h49.42.740284 +0530,
,Scenes\085a.jpg,31,0,31,,,,,,,None,,,j,0.5036448999999266,None,,,,,31,0,31,0,273.1233181,,,,,,,,,,,,,,,,,,,,,,,,,,,,,,273.10677999999996,273.1233181,273.60681950000003,,,,,,,,,,,,,,273.6566087,,,,,,,,,,,,,273.63581669999996,273.6566087,273.6566087,273.6566087,276.623294,None,,,276.62332660000004,277.1569048,j,276.63990820000004,276.63990820000004,0.5036448999999266,None,,,,,,,,,,00022,001,2025-11-11_04h49.33.010,MST_task,2024.2.2,60.41080555997154,2025-11-11 04h49.42.740284 +0530,
,Scenes\073a.jpg,32,0,32,,,,,,,j,2.4310378999999784,0.12968399999999747,None,,,,,,,32,0,32,0,277.1732389,,,,,,,,,,,,,,,,,,,,,,,,,,,,,,277.15700130000005,277.1732389,277.65670350000005,,,,,,,,,,,,,,277.70659750000004,,,,,,,,,,,,,277.6872018,277.70659750000004,277.70659750000004,277.70659750000004,280.67317089999995,j,2.4310378999999784,0.12968399999999747,280.6732091,280.6732213,None,,,,,,,,,,,,,,00022,001,2025-11-11_04h49.33.010,MST_task,2024.2.2,60.41080555997154,2025-11-11 04h49.42.740284 +0530,
,Scenes\006a.jpg,33,0,33,,,,,,,f,2.1405514000000494,0.15373049999993782,None,,,,,,,33,0,33,0,280.6898314,,,,,,,,,,,,,,,,,,,,,,,,,,,,,,280.6733121,280.6898314,281.17329400000006,,,,,,,,,,,,,,281.20648000000006,,,,,,,,,,,,,281.1972234,281.20648000000006,281.20648000000006,281.20648000000006,284.1898026,f,2.1405514000000494,0.15373049999993782,284.18983860000003,284.18984939999996,None,,,,,,,,,,,,,,00022,001,2025-11-11_04h49.33.010,MST_task,2024.2.2,60.41080555997154,2025-11-11 04h49.42.740284 +0530,
,Scenes\082a.jpg,34,0,34,,,,,,,f,2.445715199999995,0.16079239999999118,None,,,,,,,34,0,34,0,284.206411,,,,,,,,,,,,,,,,,,,,,,,,,,,,,,284.1899099,284.206411,284.689922,,,,,,,,,,,,,,,,,,,,,,,,,,,284.73506899999995,284.75649710000005,284.75649710000005,284.75649710000005,287.7063875,f,2.445715199999995,0.16079239999999118,287.7064275,287.7064385,None,,,,,,,,,,,,,,00022,001,2025-11-11_04h49.33.010,MST_task,2024.2.2,60.41080555997154,2025-11-11 04h49.42.740284 +0530,
,Objects\061a.jpg,35,0,35,,,,,,,j,1.8193549999999732,0.16511530000002494,None,,,,,,,35,0,35,0,287.722992,,,,,,,,,,,,,,,,,,,,,,,,,,,,,,287.70653489999995,287.722992,288.2065337,,,,,,,,,,,,,,288.25670920000005,,,,,,,,,,,,,288.24124900000004,288.25670920000005,288.25670920000005,288.25670920000005,291.2229662,j,1.8193549999999732,0.16511530000002494,291.22440389999997,291.224416,None,,,,,,,,,,,,,,00022,001,2025-11-11_04h49.33.010,MST_task,2024.2.2,60.41080555997154,2025-11-11 04h49.42.740284 +0530,
,Objects\186a.jpg,36,0,36,,,,,,,None,,,j,0.6430693999999448,None,,,,,36,0,36,0,291.2395795,,,,,,,,,,,,,,,,,,,,,,,,,,,,,,291.22450360000005,291.2395795,291.7230413,,,,,,,,,,,,,,291.75619200000006,,,,,,,,,,,,,291.75018769999997,291.75619200000006,291.75619200000006,291.75619200000006,294.7395632,None,,,294.73959790000004,295.40641559999995,j,294.7561644,294.7561644,0.6430693999999448,None,,,,,,,,,,00022,001,2025-11-11_04h49.33.010,MST_task,2024.2.2,60.41080555997154,2025-11-11 04h49.42.740284 +0530,
,Objects\133a.jpg,37,0,37,,,,,,,None,,,f,0.3616561000000047,None,,,,,37,0,37,0,295.4228084,,,,,,,,,,,,,,,,,,,,,,,,,,,,,,295.40648869999995,295.4228084,295.90648450000003,,,,,,,,,,,,,,295.93946059999996,,,,,,,,,,,,,295.9337133,295.93946059999996,295.93946059999996,295.93946059999996,298.9228025,None,,,298.9228408,299.3064355,f,298.93940269999996,298.93940269999996,0.3616561000000047,None,,,,,,,,,,00022,001,2025-11-11_04h49.33.010,MST_task,2024.2.2,60.41080555997154,2025-11-11 04h49.42.740284 +0530,
,Objects\140a.jpg,38,0,38,,,,,,,f,2.8880759999999555,0.06804130000000441,None,,,,,,,38,0,38,0,299.3227485,,,,,,,,,,,,,,,,,,,,,,,,,,,,,,299.3065136,299.3227485,299.8062735,,,,,,,,,,,,,,299.83934139999997,,,,,,,,,,,,,299.8351557,299.83934139999997,299.83934139999997,299.83934139999997,302.82270559999995,f,2.8880759999999555,0.06804130000000441,302.8227438,302.8227557,None,,,,,,,,,,,,,,00022,001,2025-11-11_04h49.33.010,MST_task,2024.2.2,60.41080555997154,2025-11-11 04h49.42.740284 +0530,
,Objects\135a.jpg,39,0,39,,,,,,,f,1.1809204999999565,0.17815470000005007,None,,,,,,,39,0,39,0,302.8393116,,,,,,,,,,,,,,,,,,,,,,,,,,,,,,302.82281309999996,302.8393116,303.3227871,,,,,,,,,,,,,,303.3559785,,,,,,,,,,,,,303.35005739999997,303.3559785,303.3559785,303.3559785,306.33928189999995,f,1.1809204999999565,0.17815470000005007,306.339331,306.339344,None,,,,,,,,,,,,,,00022,001,2025-11-11_04h49.33.010,MST_task,2024.2.2,60.41080555997154,2025-11-11 04h49.42.740284 +0530,
,Objects\006a.jpg,40,0,40,,,,,,,None,,,f,0.7944062999999915,None,,,,,40,0,40,0,306.35589419999997,,,,,,,,,,,,,,,,,,,,,,,,,,,,,,306.33943999999997,306.35589419999997,306.83943869999996,,,,,,,,,,,,,,306.8725173,,,,,,,,,,,,,306.8552442,306.8725173,306.8725173,306.8725173,309.8558745,None,,,309.85593459999996,310.67299119999996,f,309.87249069999996,309.87249069999996,0.7944062999999915,None,,,,,,,,,,00022,001,2025-11-11_04h49.33.010,MST_task,2024.2.2,60.41080555997154,2025-11-11 04h49.42.740284 +0530,
,Objects\128a.jpg,41,0,41,,,,,,,j,2.211406199999942,0.12575730000003205,None,,,,,,,41,0,41,0,310.6891317999999,,,,,,,,,,,,,,,,,,,,,,,,,,,,,,310.6730702,310.6891317999999,311.1726006,,,,,,,,,,,,,,311.2057813,,,,,,,,,,,,,311.18898449999995,311.2057813,311.2057813,311.2057813,314.1891567,j,2.211406199999942,0.12575730000003205,314.18919289999997,314.18920449999996,None,,,,,,,,,,,,,,00022,001,2025-11-11_04h49.33.010,MST_task,2024.2.2,60.41080555997154,2025-11-11 04h49.42.740284 +0530,
,Scenes\093a.jpg,42,0,42,,,,,,,f,1.7748137999999472,0.1697294000000511,None,,,,,,,42,0,42,0,314.2057106,,,,,,,,,,,,,,,,,,,,,,,,,,,,,,314.18926039999997,314.2057106,314.6891871,,,,,,,,,,,,,,314.72237599999994,,,,,,,,,,,,,314.7082181999999,314.72237599999994,314.72237599999994,314.72237599999994,317.70570179999993,f,1.7748137999999472,0.1697294000000511,317.7068319,317.70684429999994,None,,,,,,,,,,,,,,00022,001,2025-11-11_04h49.33.010,MST_task,2024.2.2,60.41080555997154,2025-11-11 04h49.42.740284 +0530,
,Scenes\004a.jpg,43,0,43,,,,,,,None,,,j,1.02071310000008,None,,,,,43,0,43,0,317.72229429999993,,,,,,,,,,,,,,,,,,,,,,,,,,,,,,317.70692899999995,317.72229429999993,318.205778,,,,,,,,,,,,,,318.2389825,,,,,,,,,,,,,318.2250865,318.2389825,318.2389825,318.2389825,321.2222712,None,,,321.22230279999997,322.27260179999996,j,321.2388874999999,321.2388874999999,1.02071310000008,None,,,,,,,,,,00022,001,2025-11-11_04h49.33.010,MST_task,2024.2.2,60.41080555997154,2025-11-11 04h49.42.740284 +0530,
,Scenes\191a.jpg,44,0,44,,,,,,,None,,,j,0.4031456000000162,None,,,,,44,0,44,0,322.2888621999999,,,,,,,,,,,,,,,,,,,,,,,,,,,,,,322.27271569999994,322.2888621999999,322.7723466,,,,,,,,,,,,,,322.82252489999996,,,,,,,,,,,,,322.80502089999993,322.82252489999996,322.82252489999996,322.82252489999996,325.7887843,None,,,325.7888267999999,326.22258569999997,j,325.8054578,325.8054578,0.4031456000000162,None,,,,,,,,,,00022,001,2025-11-11_04h49.33.010,MST_task,2024.2.2,60.41080555997154,2025-11-11 04h49.42.740284 +0530,
,Scenes\039a.jpg,45,0,45,,,,,,,j,1.4653240999999753,0.19990659999996296,None,,,,,,,45,0,45,0,326.2387481999999,,,,,,,,,,,,,,,,,,,,,,,,,,,,,,326.2226547,326.2387481999999,326.72226539999997,,,,,,,,,,,,,,326.7554011,,,,,,,,,,,,,326.74749269999995,326.7554011,326.7554011,326.7554011,329.7387502,j,1.4653240999999753,0.19990659999996296,329.7387993,329.73881099999994,None,,,,,,,,,,,,,,00022,001,2025-11-11_04h49.33.010,MST_task,2024.2.2,60.41080555997154,2025-11-11 04h49.42.740284 +0530,
,Scenes\045a.jpg,46,0,46,,,,,,,j,2.594703500000037,0.11017879999997149,None,,,,,,,46,0,46,0,329.7553445,,,,,,,,,,,,,,,,,,,,,,,,,,,,,,329.73889869999994,329.7553445,330.2389581,,,,,,,,,,,,,,330.2889054,,,,,,,,,,,,,330.27989519999994,330.2889054,330.2889054,330.2889054,333.25530879999997,j,2.594703500000037,0.11017879999997149,333.25534559999994,333.2553564,None,,,,,,,,,,,,,,00022,001,2025-11-11_04h49.33.010,MST_task,2024.2.2,60.41080555997154,2025-11-11 04h49.42.740284 +0530,
,Scenes\005a.jpg,47,0,47,,,,,,,None,,,f,0.552708300000063,None,,,,,47,0,47,0,333.27196559999993,,,,,,,,,,,,,,,,,,,,,,,,,,,,,,333.2554106,333.27196559999993,333.7554852999999,,,,,,,,,,,,,,333.78859079999995,,,,,,,,,,,,,333.7810001,333.78859079999995,333.78859079999995,333.78859079999995,336.7718629,None,,,336.771894,337.35549249999997,f,336.7885307,336.7885307,0.552708300000063,None,,,,,,,,,,00022,001,2025-11-11_04h49.33.010,MST_task,2024.2.2,60.41080555997154,2025-11-11 04h49.42.740284 +0530,
,Scenes\146a.jpg,48,0,48,,,,,,,j,1.3318917000000283,0.19106560000000172,None,,,,,,,48,0,48,0,337.37188719999995,,,,,,,,,,,,,,,,,,,,,,,,,,,,,,337.3555630999999,337.37188719999995,337.85539959999994,,,,,,,,,,,,,,337.90514699999994,,,,,,,,,,,,,337.8870962,337.90514699999994,337.90514699999994,337.90514699999994,340.8718413,j,1.3318917000000283,0.19106560000000172,340.8718777,340.8718885999999,None,,,,,,,,,,,,,,00022,001,2025-11-11_04h49.33.010,MST_task,2024.2.2,60.41080555997154,2025-11-11 04h49.42.740284 +0530,
,Objects\007a.jpg,49,0,49,,,,,,,j,1.8319428000000926,0.09354449999989356,None,,,,,,,49,0,49,0,340.88844159999996,,,,,,,,,,,,,,,,,,,,,,,,,,,,,,340.8719722999999,340.88844159999996,341.3719512,,,,,,,,,,,,,,341.4054013,,,,,,,,,,,,,341.3977738,341.4054013,341.4054013,341.4054013,344.3883906,j,1.8319428000000926,0.09354449999989356,344.3898971,344.3899129,None,,,,,,,,,,,,,,00022,001,2025-11-11_04h49.33.010,MST_task,2024.2.2,60.41080555997154,2025-11-11 04h49.42.740284 +0530,
,Objects\156a.jpg,50,0,50,,,,,,,j,2.114570399999934,0.13371910000000753,None,,,,,,,50,0,50,0,344.405028,,,,,,,,,,,,,,,,,,,,,,,,,,,,,,344.3899688,344.405028,344.8885690999999,,,,,,,,,,,,,,344.938312,,,,,,,,,,,,,344.9334731,344.938312,344.938312,344.938312,347.905116,j,2.114570399999934,0.13371910000000753,347.9051870999999,347.90520189999995,None,,,,,,,,,,,,,,00022,001,2025-11-11_04h49.33.010,MST_task,2024.2.2,60.41080555997154,2025-11-11 04h49.42.740284 +0530,
,Objects\120a.jpg,51,0,51,,,,,,,f,1.2021687999999813,0.13887180000006083,None,,,,,,,51,0,51,0,347.9217365999999,,,,,,,,,,,,,,,,,,,,,,,,,,,,,,347.90526909999994,347.9217365999999,348.40525479999997,,,,,,,,,,,,,,348.4384428999999,,,,,,,,,,,,,348.4201739,348.4384428999999,348.4384428999999,348.4384428999999,351.4216114999999,f,1.2021687999999813,0.13887180000006083,351.421657,351.42168029999993,None,,,,,,,,,,,,,,00022,001,2025-11-11_04h49.33.010,MST_task,2024.2.2,60.41080555997154,2025-11-11 04h49.42.740284 +0530,
,Objects\170a.jpg,52,0,52,,,,,,,j,2.289903200000026,0.1277168999999958,None,,,,,,,52,0,52,0,351.43837329999997,,,,,,,,,,,,,,,,,,,,,,,,,,,,,,351.42174779999993,351.43837329999997,351.92173059999993,,,,,,,,,,,,,,,,,,,,,,,,,,,351.9476664,351.9549161,351.9549161,351.9549161,354.93772509999997,j,2.289903200000026,0.1277168999999958,354.93776579999997,354.93777639999996,None,,,,,,,,,,,,,,00022,001,2025-11-11_04h49.33.010,MST_task,2024.2.2,60.41080555997154,2025-11-11 04h49.42.740284 +0530,
,Objects\009a.jpg,53,0,53,,,,,,,None,,,f,0.3223077000000103,None,,,,,53,0,53,0,354.95425209999996,,,,,,,,,,,,,,,,,,,,,,,,,,,,,,354.9378418,354.95425209999996,355.4377925,,,,,,,,,,,,,,355.4709045999999,,,,,,,,,,,,,355.45350699999995,355.4709045999999,355.4709045999999,355.4709045999999,358.43816229999993,None,,,358.43820429999994,358.7882548,f,358.4546795,358.4546795,0.3223077000000103,None,,,,,,,,,,00022,001,2025-11-11_04h49.33.010,MST_task,2024.2.2,60.41080555997154,2025-11-11 04h49.42.740284 +0530,
,Objects\153a.jpg,54,0,54,,,,,,,f,1.8020797000000357,0.15761050000003252,None,,,,,,,54,0,54,0,358.8047286,,,,,,,,,,,,,,,,,,,,,,,,,,,,,,358.7883178999999,358.8047286,359.2882598,,,,,,,,,,,,,,359.3213536999999,,,,,,,,,,,,,359.3153182,359.3213536999999,359.3213536999999,359.3213536999999,362.3046282,f,1.8020797000000357,0.15761050000003252,362.3046636,362.3046787999999,None,,,,,,,,,,,,,,00022,001,2025-11-11_04h49.33.010,MST_task,2024.2.2,60.41080555997154,2025-11-11 04h49.42.740284 +0530,
,Objects\043a.jpg,55,0,55,,,,,,,None,,,f,1.8525407000000769,None,,,,,55,0,55,0,362.321287,,,,,,,,,,,,,,,,,,,,,,,,,,,,,,362.3047352,362.321287,362.8047951,,,,,,,,,,,,,,362.83794009999997,,,,,,,,,,,,,362.8336124,362.83794009999997,362.83794009999997,362.83794009999997,365.8212602,None,,,365.8212962,367.7047163,f,365.83787540000003,365.83787540000003,1.8525407000000769,None,,,,,,,,,,00022,001,2025-11-11_04h49.33.010,MST_task,2024.2.2,60.41080555997154,2025-11-11 04h49.42.740284 +0530,
,Scenes\090a.jpg,56,0,56,,,,,,,j,1.399315099999967,0.1261475999999675,None,,,,,,,56,0,56,0,367.7211555,,,,,,,,,,,,,,,,,,,,,,,,,,,,,,367.70478919999994,367.7211555,368.20459589999996,,,,,,,,,,,,,,368.23781169999995,,,,,,,,,,,,,368.22542769999995,368.23781169999995,368.23781169999995,368.23781169999995,371.2210934,j,1.399315099999967,0.1261475999999675,371.2222017,371.2222134,None,,,,,,,,,,,,,,00022,001,2025-11-11_04h49.33.010,MST_task,2024.2.2,60.41080555997154,2025-11-11 04h49.42.740284 +0530,
,Scenes\140a.jpg,57,0,57,,,,,,,j,1.819857299999967,0.1433142000000771,None,,,,,,,57,0,57,0,371.2377442999999,,,,,,,,,,,,,,,,,,,,,,,,,,,,,,371.2222974,371.2377442999999,371.7212243,,,,,,,,,,,,,,371.7714486,,,,,,,,,,,,,371.7488035,371.7714486,371.7714486,371.7714486,374.7377176,j,1.819857299999967,0.1433142000000771,374.73775479999995,374.7377652,None,,,,,,,,,,,,,,00022,001,2025-11-11_04h49.33.010,MST_task,2024.2.2,60.41080555997154,2025-11-11 04h49.42.740284 +0530,
,Scenes\110a.jpg,58,0,58,,,,,,,j,1.9482497000000194,0.13860439999996288,None,,,,,,,58,0,58,0,374.75435319999997,,,,,,,,,,,,,,,,,,,,,,,,,,,,,,374.73785109999994,374.75435319999997,375.2378193999999,,,,,,,,,,,,,,,,,,,,,,,,,,,375.2624664,375.2709509,375.2709509,375.2709509,378.25429169999995,j,1.9482497000000194,0.13860439999996288,378.25432749999993,378.25433699999996,None,,,,,,,,,,,,,,00022,001,2025-11-11_04h49.33.010,MST_task,2024.2.2,60.41080555997154,2025-11-11 04h49.42.740284 +0530,
,Scenes\124a.jpg,59,0,59,,,,,,,f,2.672428400000058,0.23428239999998368,None,,,,,,,59,0,59,0,378.2709100999999,,,,,,,,,,,,,,,,,,,,,,,,,,,,,,378.25443269999994,378.2709100999999,378.7543909,,,,,,,,,,,,,,378.8042083,,,,,,,,,,,,,378.7884599,378.8042083,378.8042083,378.8042083,381.77088889999993,f,2.672428400000058,0.23428239999998368,381.7709357,381.7709503,None,,,,,,,,,,,,,,00022,001,2025-11-11_04h49.33.010,MST_task,2024.2.2,60.41080555997154,2025-11-11 04h49.42.740284 +0530,
,Scenes\007a.jpg,60,0,60,,,,,,,f,1.8948467000000164,0.24223770000003242,None,,,,,,,60,0,60,0,381.78750049999996,,,,,,,,,,,,,,,,,,,,,,,,,,,,,,381.7710326,381.78750049999996,382.27096819999997,,,,,,,,,,,,,,382.3041187,,,,,,,,,,,,,382.2960819,382.3041187,382.3041187,382.3041187,385.2875708,f,1.8948467000000164,0.24223770000003242,385.28760669999997,385.2876179,None,,,,,,,,,,,,,,00022,001,2025-11-11_04h49.33.010,MST_task,2024.2.2,60.41080555997154,2025-11-11 04h49.42.740284 +0530,
,Scenes\079a.jpg,61,0,61,,,,,,,j,1.6601917000000412,0.16629829999999401,None,,,,,,,61,0,61,0,385.3040932,,,,,,,,,,,,,,,,,,,,,,,,,,,,,,385.28767619999996,385.3040932,385.7875484,,,,,,,,,,,,,,385.82074909999994,,,,,,,,,,,,,385.80572889999996,385.82074909999994,385.82074909999994,385.82074909999994,388.80407549999995,j,1.6601917000000412,0.16629829999999401,388.80411300000003,388.8041237,None,,,,,,,,,,,,,,00022,001,2025-11-11_04h49.33.010,MST_task,2024.2.2,60.41080555997154,2025-11-11 04h49.42.740284 +0530,
,Scenes\044a.jpg,62,0,62,,,,,,,None,,,f,0.32731300000000374,None,,,,,62,0,62,0,388.8206709,,,,,,,,,,,,,,,,,,,,,,,,,,,,,,388.80420589999994,388.8206709,389.30417879999993,,,,,,,,,,,,,,389.3539567,,,,,,,,,,,,,389.33587579999994,389.3539567,389.3539567,389.3539567,392.3206367,None,,,392.32066729999997,392.67098369999997,f,392.3372548,392.3372548,0.32731300000000374,None,,,,,,,,,,00022,001,2025-11-11_04h49.33.010,MST_task,2024.2.2,60.41080555997154,2025-11-11 04h49.42.740284 +0530,
,Objects\151a.jpg,63,0,63,,,,,,,None,,,j,0.3470884999999271,None,,,,,63,0,63,0,392.6872552,,,,,,,,,,,,,,,,,,,,,,,,,,,,,,392.6710518,392.6872552,393.1707225,,,,,,,,,,,,,,393.20411939999997,,,,,,,,,,,,,393.1881460999999,393.20411939999997,393.20411939999997,393.20411939999997,396.18722949999994,None,,,396.1887283,396.55411730000003,j,396.203847,396.203847,0.3470884999999271,None,,,,,,,,,,00022,001,2025-11-11_04h49.33.010,MST_task,2024.2.2,60.41080555997154,2025-11-11 04h49.42.740284 +0530,
,Objects\102a.jpg,64,0,64,,,,,,,None,,,f,2.1095366000000695,None,,,,,64,0,64,0,396.57050549999997,,,,,,,,,,,,,,,,,,,,,,,,,,,,,,396.55418099999997,396.57050549999997,397.05391239999994,,,,,,,,,,,,,,397.0867339,,,,,,,,,,,,,397.0831101,397.0867339,397.0867339,397.0867339,400.0704365,None,,,400.07046589999993,402.20398009999997,f,400.0870817,400.0870817,2.1095366000000695,None,,,,,,,,,,00022,001,2025-11-11_04h49.33.010,MST_task,2024.2.2,60.41080555997154,2025-11-11 04h49.42.740284 +0530,
,Objects\020a.jpg,65,0,65,,,,,,,f,2.0476216000000704,0.14996589999998378,None,,,,,,,65,0,65,0,402.220382,,,,,,,,,,,,,,,,,,,,,,,,,,,,,,402.2040536999999,402.220382,402.70394639999995,,,,,,,,,,,,,,402.75371599999994,,,,,,,,,,,,,402.7365257,402.75371599999994,402.75371599999994,402.75371599999994,405.72034009999993,f,2.0476216000000704,0.14996589999998378,405.720374,405.72038539999994,None,,,,,,,,,,,,,,00022,001,2025-11-11_04h49.33.010,MST_task,2024.2.2,60.41080555997154,2025-11-11 04h49.42.740284 +0530,
,Objects\086a.jpg,66,0,66,,,,,,,None,,,j,0.0010095999999748528,None,,,,,66,0,66,0,405.7369572,,,,,,,,,,,,,,,,,,,,,,,,,,,,,,405.7204726,405.7369572,406.2204418,,,,,,,,,,,,,,406.25360639999997,,,,,,,,,,,,,406.2424711,406.25360639999997,406.25360639999997,406.25360639999997,409.23693249999997,None,,,409.2369655,409.270613,j,409.2535365,409.2535365,0.0010095999999748528,None,,,,,,,,,,00022,001,2025-11-11_04h49.33.010,MST_task,2024.2.2,60.41080555997154,2025-11-11 04h49.42.740284 +0530,
,Objects\077a.jpg,67,0,67,,,,,,,j,1.6407686000000012,0.11274839999998676,None,,,,,,,67,0,67,0,409.2868723,,,,,,,,,,,,,,,,,,,,,,,,,,,,,,409.27070630000003,409.2868723,409.77049379999994,,,,,,,,,,,,,,409.8035265,,,,,,,,,,,,,409.79643120000003,409.8035265,409.8035265,409.8035265,412.7868194,j,1.6407686000000012,0.11274839999998676,412.78686089999997,412.78687319999995,None,,,,,,,,,,,,,,00022,001,2025-11-11_04h49.33.010,MST_task,2024.2.2,60.41080555997154,2025-11-11 04h49.42.740284 +0530,
,Objects\090a.jpg,68,0,68,,,,,,,j,2.270325400000047,0.1343363999999383,None,,,,,,,68,0,68,0,412.80346069999996,,,,,,,,,,,,,,,,,,,,,,,,,,,,,,412.78696949999994,412.80346069999996,413.2869336,,,,,,,,,,,,,,,,,,,,,,,,,,,413.3042044,413.3201086,413.3201086,413.3201086,416.30342399999995,j,2.270325400000047,0.1343363999999383,416.3034589,416.3034685,None,,,,,,,,,,,,,,00022,001,2025-11-11_04h49.33.010,MST_task,2024.2.2,60.41080555997154,2025-11-11 04h49.42.740284 +0530,
,Objects\184a.jpg,69,0,69,,,,,,,j,1.2263562999999067,0.14987230000008367,None,,,,,,,69,0,69,0,416.3200474,,,,,,,,,,,,,,,,,,,,,,,,,,,,,,416.30352589999995,416.3200474,416.80351329999996,,,,,,,,,,,,,,416.83667319999995,,,,,,,,,,,,,416.81903109999996,416.83667319999995,416.83667319999995,416.83667319999995,419.8200518,j,1.2263562999999067,0.14987230000008367,419.8200853999999,419.82009659999994,None,,,,,,,,,,,,,,00022,001,2025-11-11_04h49.33.010,MST_task,2024.2.2,60.41080555997154,2025-11-11 04h49.42.740284 +0530,
,Scenes\088a.jpg,70,0,70,,,,,,,j,1.2719119999999293,0.14199760000008155,None,,,,,,,70,0,70,0,419.8366592,,,,,,,,,,,,,,,,,,,,,,,,,,,,,,419.8201828,419.8366592,420.3203095,,,,,,,,,,,,,,420.35349899999994,,,,,,,,,,,,,420.3449045,420.35349899999994,420.35349899999994,420.35349899999994,423.3365984999999,j,1.2719119999999293,0.14199760000008155,423.3377832,423.33779489999995,None,,,,,,,,,,,,,,00022,001,2025-11-11_04h49.33.010,MST_task,2024.2.2,60.41080555997154,2025-11-11 04h49.42.740284 +0530,
,Scenes\055a.jpg,71,0,71,,,,,,,j,1.6483189000000493,0.09994369999992614,None,,,,,,,71,0,71,0,423.3532152,,,,,,,,,,,,,,,,,,,,,,,,,,,,,,423.3378948999999,423.3532152,423.8366569,,,,,,,,,,,,,,423.8701304,,,,,,,,,,,,,423.85978439999997,423.8701304,423.8701304,423.8701304,426.8533178,j,1.6483189000000493,0.09994369999992614,426.8533535,426.8533652,None,,,,,,,,,,,,,,00022,001,2025-11-11_04h49.33.010,MST_task,2024.2.2,60.41080555997154,2025-11-11 04h49.42.740284 +0530,
,Scenes\154a.jpg,72,0,72,,,,,,,j,1.3707556999999042,0.1478017000000591,None,,,,,,,72,0,72,0,426.86979869999993,,,,,,,,,,,,,,,,,,,,,,,,,,,,,,426.853423,426.86979869999993,427.3532539,,,,,,,,,,,,,,427.38645629999996,,,,,,,,,,,,,427.36893939999993,427.38645629999996,427.38645629999996,427.38645629999996,430.3697542,j,1.3707556999999042,0.1478017000000591,430.36978899999997,430.3697995,None,,,,,,,,,,,,,,00022,001,2025-11-11_04h49.33.010,MST_task,2024.2.2,60.41080555997154,2025-11-11 04h49.42.740284 +0530,
,Scenes\063a.jpg,73,0,73,,,,,,,j,1.2934583999999631,0.12477250000006279,None,,,,,,,73,0,73,0,430.3863838,,,,,,,,,,,,,,,,,,,,,,,,,,,,,,430.36988539999993,430.3863838,430.86993529999995,,,,,,,,,,,,,,430.9030623,,,,,,,,,,,,,430.8908897,430.9030623,430.9030623,430.9030623,433.8864708,j,1.2934583999999631,0.12477250000006279,433.8865059,433.886517,None,,,,,,,,,,,,,,00022,001,2025-11-11_04h49.33.010,MST_task,2024.2.2,60.41080555997154,2025-11-11 04h49.42.740284 +0530,
,Scenes\021a.jpg,74,0,74,,,,,,,None,,,j,2.0459626999999045,None,,,,,74,0,74,0,433.90297709999993,,,,,,,,,,,,,,,,,,,,,,,,,,,,,,433.88659889999997,433.90297709999993,434.38645859999997,,,,,,,,,,,,,,434.4196435,,,,,,,,,,,,,434.40418179999995,434.4196435,434.4196435,434.4196435,437.4029276,None,,,437.40295979999996,439.4699435,j,437.4195238,437.4195238,2.0459626999999045,None,,,,,,,,,,00022,001,2025-11-11_04h49.33.010,MST_task,2024.2.2,60.41080555997154,2025-11-11 04h49.42.740284 +0530,
,Scenes\182a.jpg,75,0,75,,,,,,,j,2.2319784000000027,0.11812650000001668,None,,,,,,,75,0,75,0,439.4861824999999,,,,,,,,,,,,,,,,,,,,,,,,,,,,,,439.4700229,439.4861824999999,439.9697451999999,,,,,,,,,,,,,,440.00284079999994,,,,,,,,,,,,,439.9848005,440.00284079999994,440.00284079999994,440.00284079999994,442.98614739999994,j,2.2319784000000027,0.11812650000001668,442.9861877999999,442.98619969999993,None,,,,,,,,,,,,,,00022,001,2025-11-11_04h49.33.010,MST_task,2024.2.2,60.41080555997154,2025-11-11 04h49.42.740284 +0530,
,Scenes\186a.jpg,76,0,76,,,,,,,j,2.683573000000024,0.13798559999997906,None,,,,,,,76,0,76,0,443.00276799999995,,,,,,,,,,,,,,,,,,,,,,,,,,,,,,442.9862571,443.00276799999995,443.48622119999993,,,,,,,,,,,,,,443.5196639999999,,,,,,,,,,,,,443.5023337,443.5196639999999,443.5196639999999,443.5196639999999,446.5027249,j,2.683573000000024,0.13798559999997906,446.5027754,446.50278619999995,None,,,,,,,,,,,,,,00022,001,2025-11-11_04h49.33.010,MST_task,2024.2.2,60.41080555997154,2025-11-11 04h49.42.740284 +0530,
,Objects\127a.jpg,77,0,77,,,,,,,None,,,j,0.5474559000000454,None,,,,,77,0,77,0,446.5195735,,,,,,,,,,,,,,,,,,,,,,,,,,,,,,446.5028464999999,446.5195735,447.00279879999994,,,,,,,,,,,,,,447.03623919999995,,,,,,,,,,,,,447.0248163,447.03623919999995,447.03623919999995,447.03623919999995,450.019309,None,,,450.02087859999995,450.58633639999994,j,450.0359433,450.0359433,0.5474559000000454,None,,,,,,,,,,00022,001,2025-11-11_04h49.33.010,MST_task,2024.2.2,60.41080555997154,2025-11-11 04h49.42.740284 +0530,
,Objects\169a.jpg,78,0,78,,,,,,,None,,,f,0.6301671999999598,None,,,,,78,0,78,0,450.6025856,,,,,,,,,,,,,,,,,,,,,,,,,,,,,,450.5864136,450.6025856,451.0861562,,,,,,,,,,,,,,451.1192516,,,,,,,,,,,,,451.1027376999999,451.1192516,451.1192516,451.1192516,454.10268769999993,None,,,454.1027278,454.75277859999994,f,454.11917719999997,454.11917719999997,0.6301671999999598,None,,,,,,,,,,00022,001,2025-11-11_04h49.33.010,MST_task,2024.2.2,60.41080555997154,2025-11-11 04h49.42.740284 +0530,
,Objects\030a.jpg,79,0,79,,,,,,,f,2.1433821000000535,0.15932439999994585,None,,,,,,,79,0,79,0,454.76917089999995,,,,,,,,,,,,,,,,,,,,,,,,,,,,,,454.75284969999996,454.76917089999995,455.2527026,,,,,,,,,,,,,,455.2857874,,,,,,,,,,,,,455.27061219999996,455.2857874,455.2857874,455.2857874,458.2691413,f,2.1433821000000535,0.15932439999994585,458.269177,458.269188,None,,,,,,,,,,,,,,00022,001,2025-11-11_04h49.33.010,MST_task,2024.2.2,60.41080555997154,2025-11-11 04h49.42.740284 +0530,
,Objects\063a.jpg,80,0,80,,,,,,,f,1.310529699999961,0.1301970000000665,None,,,,,,,80,0,80,0,458.2857834,,,,,,,,,,,,,,,,,,,,,,,,,,,,,,458.269277,458.2857834,458.76920889999997,,,,,,,,,,,,,,458.80237049999994,,,,,,,,,,,,,458.79433399999994,458.80237049999994,458.80237049999994,458.80237049999994,461.78574949999995,f,1.310529699999961,0.1301970000000665,461.78578429999993,461.785795,None,,,,,,,,,,,,,,00022,001,2025-11-11_04h49.33.010,MST_task,2024.2.2,60.41080555997154,2025-11-11 04h49.42.740284 +0530,
,Objects\136a.jpg,81,0,81,,,,,,,f,2.4899176000000125,0.137910799999986,None,,,,,,,81,0,81,0,461.8023303,,,,,,,,,,,,,,,,,,,,,,,,,,,,,,461.7858888999999,461.8023303,462.2858299999999,,,,,,,,,,,,,,462.31895480000003,,,,,,,,,,,,,462.3087931,462.31895480000003,462.31895480000003,462.31895480000003,465.3022989,f,2.4899176000000125,0.137910799999986,465.3023349,465.30234529999996,None,,,,,,,,,,,,,,00022,001,2025-11-11_04h49.33.010,MST_task,2024.2.2,60.41080555997154,2025-11-11 04h49.42.740284 +0530,
,Objects\053a.jpg,82,0,82,,,,,,,f,0.8936423000000104,0.14581869999994979,None,,,,,,,82,0,82,0,465.3189173999999,,,,,,,,,,,,,,,,,,,,,,,,,,,,,,465.3024306,465.3189173999999,465.8024087,,,,,,,,,,,,,,465.8355514,,,,,,,,,,,,,465.82610149999994,465.8355514,465.8355514,465.8355514,468.81887499999993,f,0.8936423000000104,0.14581869999994979,468.8189275,468.8189436,None,,,,,,,,,,,,,,00022,001,2025-11-11_04h49.33.010,MST_task,2024.2.2,60.41080555997154,2025-11-11 04h49.42.740284 +0530,
,Objects\065a.jpg,83,0,83,,,,,,,j,2.0672614999999723,0.09169789999998557,None,,,,,,,83,0,83,0,468.8355232,,,,,,,,,,,,,,,,,,,,,,,,,,,,,,468.81905269999993,468.8355232,469.3190277,,,,,,,,,,,,,,469.35216719999994,,,,,,,,,,,,,469.3346814,469.35216719999994,469.35216719999994,469.35216719999994,472.33553659999995,j,2.0672614999999723,0.09169789999998557,472.33558089999997,472.3355933,None,,,,,,,,,,,,,,00022,001,2025-11-11_04h49.33.010,MST_task,2024.2.2,60.41080555997154,2025-11-11 04h49.42.740284 +0530,
,Scenes\119a.jpg,84,0,84,,,,,,,j,1.6780542000000196,0.1119171999999935,None,,,,,,,84,0,84,0,472.35212379999996,,,,,,,,,,,,,,,,,,,,,,,,,,,,,,472.3357016,472.35212379999996,472.8357214,,,,,,,,,,,,,,472.86903499999994,,,,,,,,,,,,,472.8572368,472.86903499999994,472.86903499999994,472.86903499999994,475.85206329999994,j,1.6780542000000196,0.1119171999999935,475.8532921,475.85330939999994,None,,,,,,,,,,,,,,00022,001,2025-11-11_04h49.33.010,MST_task,2024.2.2,60.41080555997154,2025-11-11 04h49.42.740284 +0530,
,Scenes\051a.jpg,85,0,85,,,,,,,j,1.1788434000000052,0.12394920000008369,None,,,,,,,85,0,85,0,475.86869709999996,,,,,,,,,,,,,,,,,,,,,,,,,,,,,,475.8534088,475.86869709999996,476.35214659999997,,,,,,,,,,,,,,476.40225109999994,,,,,,,,,,,,,476.38600799999995,476.40225109999994,476.40225109999994,476.40225109999994,479.36866969999994,j,1.1788434000000052,0.12394920000008369,479.36870909999993,479.3687205,None,,,,,,,,,,,,,,00022,001,2025-11-11_04h49.33.010,MST_task,2024.2.2,60.41080555997154,2025-11-11 04h49.42.740284 +0530,
,Scenes\025a.jpg,86,0,86,,,,,,,j,1.7963733999999931,0.12966440000002422,None,,,,,,,86,0,86,0,479.3852541,,,,,,,,,,,,,,,,,,,,,,,,,,,,,,479.36884499999996,479.3852541,479.86882819999994,,,,,,,,,,,,,,479.9188961,,,,,,,,,,,,,479.90735589999997,479.9188961,479.9188961,479.9188961,482.8854761,j,1.7963733999999931,0.12966440000002422,482.8855284,482.88554209999995,None,,,,,,,,,,,,,,00022,001,2025-11-11_04h49.33.010,MST_task,2024.2.2,60.41080555997154,2025-11-11 04h49.42.740284 +0530,
,Scenes\018a.jpg,87,0,87,,,,,,,j,2.358235499999978,0.11777540000002773,None,,,,,,,87,0,87,0,482.90215409999996,,,,,,,,,,,,,,,,,,,,,,,,,,,,,,482.8856041,482.90215409999996,483.3854659,,,,,,,,,,,,,,483.41882509999994,,,,,,,,,,,,,483.4017364,483.41882509999994,483.41882509999994,483.41882509999994,486.4018601,j,2.358235499999978,0.11777540000002773,486.40189439999995,486.4019048,None,,,,,,,,,,,,,,00022,001,2025-11-11_04h49.33.010,MST_task,2024.2.2,60.41080555997154,2025-11-11 04h49.42.740284 +0530,
,Scenes\062a.jpg,88,0,88,,,,,,,j,1.0651521000000912,0.10977869999999257,None,,,,,,,88,0,88,0,486.4185566,,,,,,,,,,,,,,,,,,,,,,,,,,,,,,486.40196089999995,486.4185566,486.9019657,,,,,,,,,,,,,,486.9518249,,,,,,,,,,,,,486.9321252,486.9518249,486.9518249,486.9518249,489.91844530000003,j,1.0651521000000912,0.10977869999999257,489.9184778,489.9184882999999,None,,,,,,,,,,,,,,00022,001,2025-11-11_04h49.33.010,MST_task,2024.2.2,60.41080555997154,2025-11-11 04h49.42.740284 +0530,
,Scenes\166a.jpg,89,0,89,,,,,,,j,0.838882300000023,0.15004940000005718,None,,,,,,,89,0,89,0,489.93510949999995,,,,,,,,,,,,,,,,,,,,,,,,,,,,,,489.91857919999995,489.93510949999995,490.4186141,,,,,,,,,,,,,,490.4517502,,,,,,,,,,,,,490.44100389999994,490.4517502,490.4517502,490.4517502,493.4350848,j,0.838882300000023,0.15004940000005718,493.4351382,493.4351498,None,,,,,,,,,,,,,,00022,001,2025-11-11_04h49.33.010,MST_task,2024.2.2,60.41080555997154,2025-11-11 04h49.42.740284 +0530,
,Scenes\040a.jpg,90,0,90,,,,,,,f,1.6277463000000125,0.13992110000003777,None,,,,,,,90,0,90,0,493.4517384999999,,,,,,,,,,,,,,,,,,,,,,,,,,,,,,493.43521339999995,493.4517384999999,493.9352642,,,,,,,,,,,,,,493.98512619999997,,,,,,,,,,,,,493.9651269,493.98512619999997,493.98512619999997,493.98512619999997,496.9516098,f,1.6277463000000125,0.13992110000003777,496.95164839999995,496.9516595,None,,,,,,,,,,,,,,00022,001,2025-11-11_04h49.33.010,MST_task,2024.2.2,60.41080555997154,2025-11-11 04h49.42.740284 +0530,
,Objects\003a.jpg,91,0,91,,,,,,,j,2.5902434000000767,0.15480939999997645,None,,,,,,,91,0,91,0,496.96821539999996,,,,,,,,,,,,,,,,,,,,,,,,,,,,,,496.9517531,496.96821539999996,497.45187039999996,,,,,,,,,,,,,,497.48521759999994,,,,,,,,,,,,,497.4796785,497.48521759999994,497.48521759999994,497.48521759999994,500.4683092,j,2.5902434000000767,0.15480939999997645,500.4697655,500.4697777,None,,,,,,,,,,,,,,00022,001,2025-11-11_04h49.33.010,MST_task,2024.2.2,60.41080555997154,2025-11-11 04h49.42.740284 +0530,
,Objects\146a.jpg,92,0,92,,,,,,,f,2.6051436000000194,0.21039910000001782,None,,,,,,,92,0,92,0,500.48478739999996,,,,,,,,,,,,,,,,,,,,,,,,,,,,,,500.46983349999994,500.48478739999996,500.96842979999997,,,,,,,,,,,,,,501.0014986,,,,,,,,,,,,,500.9968392999999,501.0014986,501.0014986,501.0014986,503.98482839999997,f,2.6051436000000194,0.21039910000001782,503.9848635999999,503.9848794999999,None,,,,,,,,,,,,,,00022,001,2025-11-11_04h49.33.010,MST_task,2024.2.2,60.41080555997154,2025-11-11 04h49.42.740284 +0530,
,Objects\124a.jpg,93,0,93,,,,,,,j,1.9787346000000525,0.12652600000001257,None,,,,,,,93,0,93,0,504.0014811,,,,,,,,,,,,,,,,,,,,,,,,,,,,,,503.9849573,504.0014811,504.48499619999996,,,,,,,,,,,,,,504.51809779999996,,,,,,,,,,,,,504.5063382999999,504.51809779999996,504.51809779999996,504.51809779999996,507.5016276,j,1.9787346000000525,0.12652600000001257,507.50166790000003,507.50167939999994,None,,,,,,,,,,,,,,00022,001,2025-11-11_04h49.33.010,MST_task,2024.2.2,60.41080555997154,2025-11-11 04h49.42.740284 +0530,
,Objects\054a.jpg,94,0,94,,,,,,,None,,,j,0.01615079999999125,None,,,,,94,0,94,0,507.51799629999994,,,,,,,,,,,,,,,,,,,,,,,,,,,,,,507.5017772,507.51799629999994,508.00151859999994,,,,,,,,,,,,,,508.0346677,,,,,,,,,,,,,508.01845649999996,508.0346677,508.0346677,508.0346677,511.0181953,None,,,511.0182327,511.05152439999995,j,511.03460259999997,511.03460259999997,0.01615079999999125,None,,,,,,,,,,00022,001,2025-11-11_04h49.33.010,MST_task,2024.2.2,60.41080555997154,2025-11-11 04h49.42.740284 +0530,
,Objects\059a.jpg,95,0,95,,,,,,,j,1.4853927999999996,0.16255929999999807,None,,,,,,,95,0,95,0,511.0680601,,,,,,,,,,,,,,,,,,,,,,,,,,,,,,511.05161669999995,511.0680601,511.5514267,,,,,,,,,,,,,,511.6012772,,,,,,,,,,,,,511.58167979999996,511.6012772,511.6012772,511.6012772,514.567944,j,1.4853927999999996,0.16255929999999807,514.5679838,514.567996,None,,,,,,,,,,,,,,00022,001,2025-11-11_04h49.33.010,MST_task,2024.2.2,60.41080555997154,2025-11-11 04h49.42.740284 +0530,
,Objects\095a.jpg,96,0,96,,,,,,,f,1.3823201000000154,0.13955090000001746,None,,,,,,,96,0,96,0,514.5845959,,,,,,,,,,,,,,,,,,,,,,,,,,,,,,514.5680825,514.5845959,515.0678955,,,,,,,,,,,,,,515.1011767,,,,,,,,,,,,,515.0907238,515.1011767,515.1011767,515.1011767,518.0845132,f,1.3823201000000154,0.13955090000001746,518.0845496,518.0845598999999,None,,,,,,,,,,,,,,00022,001,2025-11-11_04h49.33.010,MST_task,2024.2.2,60.41080555997154,2025-11-11 04h49.42.740284 +0530,
,Objects\040a.jpg,97,0,97,,,,,,,f,2.1068700000000717,0.1586234000000104,None,,,,,,,97,0,97,0,518.1011674,,,,,,,,,,,,,,,,,,,,,,,,,,,,,,518.0846477,518.1011674,518.5846368,,,,,,,,,,,,,,518.6344200999999,,,,,,,,,,,,,518.6144756,518.6344200999999,518.6344200999999,518.6344200999999,521.6010415,f,2.1068700000000717,0.1586234000000104,521.6010742999999,521.6010847,None,,,,,,,,,,,,,,00022,001,2025-11-11_04h49.33.010,MST_task,2024.2.2,60.41080555997154,2025-11-11 04h49.42.740284 +0530,
,Scenes\189a.jpg,98,0,98,,,,,,,j,1.2303143999999975,0.1897155000000339,None,,,,,,,98,0,98,0,521.6176467,,,,,,,,,,,,,,,,,,,,,,,,,,,,,,521.6011414999999,521.6176467,522.1011095,,,,,,,,,,,,,,,,,,,,,,,,,,,522.1277908,522.1510112,522.1510112,522.1510112,525.1177229,j,1.2303143999999975,0.1897155000000339,525.1190279,525.1190408,None,,,,,,,,,,,,,,00022,001,2025-11-11_04h49.33.010,MST_task,2024.2.2,60.41080555997154,2025-11-11 04h49.42.740284 +0530,
,Scenes\118a.jpg,99,0,99,,,,,,,j,1.695550199999957,0.12525560000005953,None,,,,,,,99,0,99,0,525.1342575,,,,,,,,,,,,,,,,,,,,,,,,,,,,,,525.1190958,525.1342575,525.6177875,,,,,,,,,,,,,,525.667606,,,,,,,,,,,,,525.6476934,525.667606,525.667606,525.667606,528.6342304,j,1.695550199999957,0.12525560000005953,528.6342659,528.6342773,None,,,,,,,,,,,,,,00022,001,2025-11-11_04h49.33.010,MST_task,2024.2.2,60.41080555997154,2025-11-11 04h49.42.740284 +0530,
,Scenes\008a.jpg,100,0,100,,,,,,,None,,,j,0.05248240000003079,None,,,,,100,0,100,0,528.650927,,,,,,,,,,,,,,,,,,,,,,,,,,,,,,528.6343644,528.650927,529.1343843999999,,,,,,,,,,,,,,529.1677277,,,,,,,,,,,,,529.156676,529.1677277,529.1677277,529.1677277,532.1508478999999,None,,,532.1508785999999,532.2344014,j,532.1674593,532.1674593,0.05248240000003079,None,,,,,,,,,,00022,001,2025-11-11_04h49.33.010,MST_task,2024.2.2,60.41080555997154,2025-11-11 04h49.42.740284 +0530,
,Scenes\155a.jpg,101,0,101,,,,,,,j,0.8646876999999904,0.13630259999990813,None,,,,,,,101,0,101,0,532.2508041,,,,,,,,,,,,,,,,,,,,,,,,,,,,,,532.2344621999999,532.2508041,532.7342980999999,,,,,,,,,,,,,,532.7841085,,,,,,,,,,,,,532.7626673999999,532.7841085,532.7841085,532.7841085,535.7508766999999,j,0.8646876999999904,0.13630259999990813,535.7509291,535.7509403,None,,,,,,,,,,,,,,00022,001,2025-11-11_04h49.33.010,MST_task,2024.2.2,60.41080555997154,2025-11-11 04h49.42.740284 +0530,
,Scenes\137a.jpg,102,0,102,,,,,,,j,1.118237000000022,0.15989029999991544,None,,,,,,,102,0,102,0,535.7673734,,,,,,,,,,,,,,,,,,,,,,,,,,,,,,535.7510241,535.7673734,536.2509001999999,,,,,,,,,,,,,,536.3009797999999,,,,,,,,,,,,,536.2807098999999,536.3009797999999,536.3009797999999,536.3009797999999,539.2674638,j,1.118237000000022,0.15989029999991544,539.2674992999999,539.2675097,None,,,,,,,,,,,,,,00022,001,2025-11-11_04h49.33.010,MST_task,2024.2.2,60.41080555997154,2025-11-11 04h49.42.740284 +0530,
,Scenes\078a.jpg,103,0,103,,,,,,,j,1.4193606999999702,0.15100089999998545,None,,,,,,,103,0,103,0,539.2839669,,,,,,,,,,,,,,,,,,,,,,,,,,,,,,539.2676025999999,539.2839669,539.7674741999999,,,,,,,,,,,,,,539.8175325,,,,,,,,,,,,,539.8042196,539.8175325,539.8175325,539.8175325,542.7838144,j,1.4193606999999702,0.15100089999998545,542.7838466,542.7838573,None,,,,,,,,,,,,,,00022,001,2025-11-11_04h49.33.010,MST_task,2024.2.2,60.41080555997154,2025-11-11 04h49.42.740284 +0530,
,Scenes\161a.jpg,104,0,104,,,,,,,j,0.7829710000000887,0.13212479999992865,None,,,,,,,104,0,104,0,542.8004784999999,,,,,,,,,,,,,,,,,,,,,,,,,,,,,,542.7839366,542.8004784999999,543.2839415999999,,,,,,,,,,,,,,,,,,,,,,,,,,,543.3116076,543.333801,543.333801,543.333801,546.3004887,j,0.7829710000000887,0.13212479999992865,546.3005372,546.3005473,None,,,,,,,,,,,,,,00022,001,2025-11-11_04h49.33.010,MST_task,2024.2.2,60.41080555997154,2025-11-11 04h49.42.740284 +0530,
,Objects\024a.jpg,105,0,105,,,,,,,f,1.5465405999999575,0.15278090000003886,None,,,,,,,105,0,105,0,546.3170645,,,,,,,,,,,,,,,,,,,,,,,,,,,,,,546.3006383,546.3170645,546.8005367,,,,,,,,,,,,,,546.8339774,,,,,,,,,,,,,546.8273045,546.8339774,546.8339774,546.8339774,549.8170435,f,1.5465405999999575,0.15278090000003886,549.8185391,549.8185512,None,,,,,,,,,,,,,,00022,001,2025-11-11_04h49.33.010,MST_task,2024.2.2,60.41080555997154,2025-11-11 04h49.42.740284 +0530,
,Objects\066a.jpg,106,0,106,,,,,,,f,2.6778494000000137,0.1457785000000058,None,,,,,,,106,0,106,0,549.8336191999999,,,,,,,,,,,,,,,,,,,,,,,,,,,,,,549.8186334,549.8336191999999,550.3172476,,,,,,,,,,,,,,550.3669705,,,,,,,,,,,,,550.3468538,550.3669705,550.3669705,550.3669705,553.3336057,f,2.6778494000000137,0.1457785000000058,553.3336423,553.3336532,None,,,,,,,,,,,,,,00022,001,2025-11-11_04h49.33.010,MST_task,2024.2.2,60.41080555997154,2025-11-11 04h49.42.740284 +0530,
,Objects\168a.jpg,107,0,107,,,,,,,f,2.0531128999999737,0.20607800000004772,None,,,,,,,107,0,107,0,553.3502371,,,,,,,,,,,,,,,,,,,,,,,,,,,,,,553.33371,553.3502371,553.8338512,,,,,,,,,,,,,,553.8835247,,,,,,,,,,,,,553.8711985,553.8835247,553.8835247,553.8835247,556.8502228,f,2.0531128999999737,0.20607800000004772,556.8502631,556.8502742,None,,,,,,,,,,,,,,00022,001,2025-11-11_04h49.33.010,MST_task,2024.2.2,60.41080555997154,2025-11-11 04h49.42.740284 +0530,
,Objects\190a.jpg,108,0,108,,,,,,,f,0.6573892000000114,0.21382170000003953,None,,,,,,,108,0,108,0,556.8668268,,,,,,,,,,,,,,,,,,,,,,,,,,,,,,556.8503569,556.8668268,557.3504425,,,,,,,,,,,,,,557.3835174999999,,,,,,,,,,,,,557.3705238,557.3835174999999,557.3835174999999,557.3835174999999,560.3668180999999,f,0.6573892000000114,0.21382170000003953,560.3668528,560.3668633999999,None,,,,,,,,,,,,,,00022,001,2025-11-11_04h49.33.010,MST_task,2024.2.2,60.41080555997154,2025-11-11 04h49.42.740284 +0530,
,Objects\034a.jpg,109,0,109,,,,,,,f,2.3803407000000334,0.1913724999999431,None,,,,,,,109,0,109,0,560.3834147,,,,,,,,,,,,,,,,,,,,,,,,,,,,,,560.3669209,560.3834147,560.8669972,,,,,,,,,,,,,,560.9000315999999,,,,,,,,,,,,,560.8951367,560.9000315999999,560.9000315999999,560.9000315999999,563.8834024,f,2.3803407000000334,0.1913724999999431,563.8834385,563.8834492,None,,,,,,,,,,,,,,00022,001,2025-11-11_04h49.33.010,MST_task,2024.2.2,60.41080555997154,2025-11-11 04h49.42.740284 +0530,
,Objects\113a.jpg,110,0,110,,,,,,,j,1.8608857000000398,0.17303229999993164,None,,,,,,,110,0,110,0,563.8999924999999,,,,,,,,,,,,,,,,,,,,,,,,,,,,,,563.8835398,563.8999924999999,564.3834760999999,,,,,,,,,,,,,,564.4332858,,,,,,,,,,,,,564.4262721,564.4332858,564.4332858,564.4332858,567.3999791,j,1.8608857000000398,0.17303229999993164,567.4000146999999,567.4000257,None,,,,,,,,,,,,,,00022,001,2025-11-11_04h49.33.010,MST_task,2024.2.2,60.41080555997154,2025-11-11 04h49.42.740284 +0530,
,Objects\033a.jpg,111,0,111,,,,,,,j,2.337295900000072,0.12016380000000026,None,,,,,,,111,0,111,0,567.4165525999999,,,,,,,,,,,,,,,,,,,,,,,,,,,,,,567.4000817,567.4165525999999,567.9000545,,,,,,,,,,,,,,567.9332317999999,,,,,,,,,,,,,567.9273718,567.9332317999999,567.9332317999999,567.9332317999999,570.9165555,j,2.337295900000072,0.12016380000000026,570.9165915,570.9166018999999,None,,,,,,,,,,,,,,00022,001,2025-11-11_04h49.33.010,MST_task,2024.2.2,60.41080555997154,2025-11-11 04h49.42.740284 +0530,
,Scenes\105a.jpg,112,0,112,,,,,,,j,1.530497500000024,0.1292618999999604,None,,,,,,,112,0,112,0,570.933129,,,,,,,,,,,,,,,,,,,,,,,,,,,,,,570.9166613,570.933129,571.4166518999999,,,,,,,,,,,,,,571.466495,,,,,,,,,,,,,571.4460316,571.466495,571.466495,571.466495,574.4332168,j,1.530497500000024,0.1292618999999604,574.434399,574.4344112,None,,,,,,,,,,,,,,00022,001,2025-11-11_04h49.33.010,MST_task,2024.2.2,60.41080555997154,2025-11-11 04h49.42.740284 +0530,
,Scenes\188a.jpg,113,0,113,,,,,,,j,1.6835670000000391,0.12736840000002303,None,,,,,,,113,0,113,0,574.4497577999999,,,,,,,,,,,,,,,,,,,,,,,,,,,,,,574.4345010999999,574.4497577999999,574.9333148,,,,,,,,,,,,,,574.9833242,,,,,,,,,,,,,574.9654009,574.9833242,574.9833242,574.9833242,577.9496942999999,j,1.6835670000000391,0.12736840000002303,577.9497286999999,577.9497391,None,,,,,,,,,,,,,,00022,001,2025-11-11_04h49.33.010,MST_task,2024.2.2,60.41080555997154,2025-11-11 04h49.42.740284 +0530,
,Scenes\134a.jpg,114,0,114,,,,,,,j,1.444970699999999,0.1004777999999078,None,,,,,,,114,0,114,0,577.9663411,,,,,,,,,,,,,,,,,,,,,,,,,,,,,,577.9497964,577.9663411,578.4498065,,,,,,,,,,,,,,578.4996639999999,,,,,,,,,,,,,578.478167,578.4996639999999,578.4996639999999,578.4996639999999,581.4663177,j,1.444970699999999,0.1004777999999078,581.4663544,581.4663663,None,,,,,,,,,,,,,,00022,001,2025-11-11_04h49.33.010,MST_task,2024.2.2,60.41080555997154,2025-11-11 04h49.42.740284 +0530,
,Scenes\033a.jpg,115,0,115,,,,,,,j,0.7100242000000208,0.1771417999999585,None,,,,,,,115,0,115,0,581.4829333,,,,,,,,,,,,,,,,,,,,,,,,,,,,,,581.46646,581.4829333,581.9665201,,,,,,,,,,,,,,581.9998823999999,,,,,,,,,,,,,581.9901179,581.9998823999999,581.9998823999999,581.9998823999999,584.9829776,j,0.7100242000000208,0.1771417999999585,584.983013,584.9830243,None,,,,,,,,,,,,,,00022,001,2025-11-11_04h49.33.010,MST_task,2024.2.2,60.41080555997154,2025-11-11 04h49.42.740284 +0530,
,Scenes\027a.jpg,116,0,116,,,,,,,j,2.3201450999999906,0.1576486000000159,None,,,,,,,116,0,116,0,584.9995121,,,,,,,,,,,,,,,,,,,,,,,,,,,,,,584.9830830999999,584.9995121,585.4830807999999,,,,,,,,,,,,,,585.5330620999999,,,,,,,,,,,,,585.5124218,585.5330620999999,585.5330620999999,585.5330620999999,588.4994554,j,2.3201450999999906,0.1576486000000159,588.4994902,588.4995013,None,,,,,,,,,,,,,,00022,001,2025-11-11_04h49.33.010,MST_task,2024.2.2,60.41080555997154,2025-11-11 04h49.42.740284 +0530,
,Scenes\157a.jpg,117,0,117,,,,,,,j,2.16654189999997,0.1656315000000177,None,,,,,,,117,0,117,0,588.5161065,,,,,,,,,,,,,,,,,,,,,,,,,,,,,,588.499558,588.5161065,588.9996986,,,,,,,,,,,,,,589.0327186,,,,,,,,,,,,,589.0242407,589.0327186,589.0327186,589.0327186,592.0160797,j,2.16654189999997,0.1656315000000177,592.0161135999999,592.0161241999999,None,,,,,,,,,,,,,,00022,001,2025-11-11_04h49.33.010,MST_task,2024.2.2,60.41080555997154,2025-11-11 04h49.42.740284 +0530,
,Scenes\128a.jpg,118,0,118,,,,,,,j,1.3492899999999963,0.12301649999994879,None,,,,,,,118,0,118,0,592.0326844,,,,,,,,,,,,,,,,,,,,,,,,,,,,,,592.0162078,592.0326844,592.5161524,,,,,,,,,,,,,,592.5659668999999,,,,,,,,,,,,,592.5446333,592.5659668999999,592.5659668999999,592.5659668999999,595.5327388,j,1.3492899999999963,0.12301649999994879,595.5327745,595.5327854,None,,,,,,,,,,,,,,00022,001,2025-11-11_04h49.33.010,MST_task,2024.2.2,60.41080555997154,2025-11-11 04h49.42.740284 +0530,
,Objects\004a.jpg,119,0,119,,,,,,,j,2.8383183999999346,0.1206533000000718,None,,,,,,,119,0,119,0,595.5492669,,,,,,,,,,,,,,,,,,,,,,,,,,,,,,595.532878,595.5492669,596.0329411,,,,,,,,,,,,,,596.0661028999999,,,,,,,,,,,,,596.0596982,596.0661028999999,596.0661028999999,596.0661028999999,599.0493604999999,j,2.8383183999999346,0.1206533000000718,599.0509392,599.0509512,None,,,,,,,,,,,,,,00022,001,2025-11-11_04h49.33.010,MST_task,2024.2.2,60.41080555997154,2025-11-11 04h49.42.740284 +0530,
,Objects\129a.jpg,120,0,120,,,,,,,f,1.054194900000084,0.2022448999999824,None,,,,,,,120,0,120,0,599.0658562,,,,,,,,,,,,,,,,,,,,,,,,,,,,,,599.0510069,599.0658562,599.5494047,,,,,,,,,,,,,,599.5824797,,,,,,,,,,,,,599.5655323,599.5824797,599.5824797,599.5824797,602.5658255999999,f,1.054194900000084,0.2022448999999824,602.5658618,602.5658735,None,,,,,,,,,,,,,,00022,001,2025-11-11_04h49.33.010,MST_task,2024.2.2,60.41080555997154,2025-11-11 04h49.42.740284 +0530,
,Objects\157a.jpg,121,0,121,,,,,,,f,0.9154029999999693,0.16603139999995165,None,,,,,,,121,0,121,0,602.5824073,,,,,,,,,,,,,,,,,,,,,,,,,,,,,,602.5659575,602.5824073,603.0659125999999,,,,,,,,,,,,,,603.0990856999999,,,,,,,,,,,,,603.092177,603.0990856999999,603.0990856999999,603.0990856999999,606.082489,f,0.9154029999999693,0.16603139999995165,606.0825274,606.0825394999999,None,,,,,,,,,,,,,,00022,001,2025-11-11_04h49.33.010,MST_task,2024.2.2,60.41080555997154,2025-11-11 04h49.42.740284 +0530,
,Objects\192a.jpg,122,0,122,,,,,,,f,1.1925099999999702,0.1697589999999991,None,,,,,,,122,0,122,0,606.0990312,,,,,,,,,,,,,,,,,,,,,,,,,,,,,,606.0826218,606.0990312,606.5825722,,,,,,,,,,,,,,606.6323229,,,,,,,,,,,,,606.613109,606.6323229,606.6323229,606.6323229,609.5990914,f,1.1925099999999702,0.1697589999999991,609.5991259,609.5991362,None,,,,,,,,,,,,,,00022,001,2025-11-11_04h49.33.010,MST_task,2024.2.2,60.41080555997154,2025-11-11 04h49.42.740284 +0530,
,Objects\177a.jpg,123,0,123,,,,,,,j,1.5622614999999769,0.19052980000003572,None,,,,,,,123,0,123,0,609.6156075,,,,,,,,,,,,,,,,,,,,,,,,,,,,,,609.5991931,609.6156075,610.0990869,,,,,,,,,,,,,,610.132291,,,,,,,,,,,,,610.1254437,610.132291,610.132291,610.132291,613.1156005,j,1.5622614999999769,0.19052980000003572,613.1156378,613.1156487999999,None,,,,,,,,,,,,,,00022,001,2025-11-11_04h49.33.010,MST_task,2024.2.2,60.41080555997154,2025-11-11 04h49.42.740284 +0530,
,Objects\018a.jpg,124,0,124,,,,,,,f,2.350029500000005,0.1339153000000124,None,,,,,,,124,0,124,0,613.1322021999999,,,,,,,,,,,,,,,,,,,,,,,,,,,,,,613.1157323,613.1322021999999,613.6157558,,,,,,,,,,,,,,613.6488779,,,,,,,,,,,,,613.6361228,613.6488779,613.6488779,613.6488779,616.6323022,f,2.350029500000005,0.1339153000000124,616.6323437,616.6323558,None,,,,,,,,,,,,,,00022,001,2025-11-11_04h49.33.010,MST_task,2024.2.2,60.41080555997154,2025-11-11 04h49.42.740284 +0530,
,Objects\096a.jpg,125,0,125,,,,,,,j,1.7868623999999045,0.15087270000003628,None,,,,,,,125,0,125,0,616.6487827,,,,,,,,,,,,,,,,,,,,,,,,,,,,,,616.6324182,616.6487827,617.1322732,,,,,,,,,,,,,,617.165409,,,,,,,,,,,,,617.1551954,617.165409,617.165409,617.165409,620.1488406,j,1.7868623999999045,0.15087270000003628,620.148881,620.1488929999999,None,,,,,,,,,,,,,,00022,001,2025-11-11_04h49.33.010,MST_task,2024.2.2,60.41080555997154,2025-11-11 04h49.42.740284 +0530,
,Scenes\172a.jpg,126,0,126,,,,,,,j,1.5358257999999978,0.16499659999999494,None,,,,,,,126,0,126,0,620.1654205,,,,,,,,,,,,,,,,,,,,,,,,,,,,,,620.148956,620.1654205,620.6490491999999,,,,,,,,,,,,,,620.6819902999999,,,,,,,,,,,,,620.6723035,620.6819902999999,620.6819902999999,620.6819902999999,623.6653524999999,j,1.5358257999999978,0.16499659999999494,623.6664791,623.6664903999999,None,,,,,,,,,,,,,,00022,001,2025-11-11_04h49.33.010,MST_task,2024.2.2,60.41080555997154,2025-11-11 04h49.42.740284 +0530,
,Scenes\123a.jpg,127,0,127,,,,,,,j,0.9797532999999703,0.17352940000000672,None,,,,,,,127,0,127,0,623.6820137999999,,,,,,,,,,,,,,,,,,,,,,,,,,,,,,623.6665481,623.6820137999999,624.1654604,,,,,,,,,,,,,,624.1988923,,,,,,,,,,,,,624.1897146,624.1988923,624.1988923,624.1988923,627.1819426999999,j,0.9797532999999703,0.17352940000000672,627.181979,627.1819906,None,,,,,,,,,,,,,,00022,001,2025-11-11_04h49.33.010,MST_task,2024.2.2,60.41080555997154,2025-11-11 04h49.42.740284 +0530,
,Scenes\158a.jpg,128,0,128,,,,,,,j,1.9198212999999669,0.17854380000005676,None,,,,,,,128,0,128,0,627.1985414999999,,,,,,,,,,,,,,,,,,,,,,,,,,,,,,627.1820756,627.1985414999999,627.6820199,,,,,,,,,,,,,,627.7147815,,,,,,,,,,,,,627.7081346,627.7147815,627.7147815,627.7147815,630.6985253,j,1.9198212999999669,0.17854380000005676,630.6985599,630.6985707,None,,,,,,,,,,,,,,00022,001,2025-11-11_04h49.33.010,MST_task,2024.2.2,60.41080555997154,2025-11-11 04h49.42.740284 +0530,
,Scenes\054a.jpg,129,0,129,,,,,,,j,0.8053008000000546,0.11124929999994038,None,,,,,,,129,0,129,0,630.7150988999999,,,,,,,,,,,,,,,,,,,,,,,,,,,,,,630.6986307,630.7150988999999,631.1986492999999,,,,,,,,,,,,,,631.2317805,,,,,,,,,,,,,631.2186538999999,631.2317805,631.2317805,631.2317805,634.2151137,j,0.8053008000000546,0.11124929999994038,634.2151477,634.2151587999999,None,,,,,,,,,,,,,,00022,001,2025-11-11_04h49.33.010,MST_task,2024.2.2,60.41080555997154,2025-11-11 04h49.42.740284 +0530,
,Scenes\113a.jpg,130,0,130,,,,,,,j,0.749853499999972,0.13383380000004763,None,,,,,,,130,0,130,0,634.2316839,,,,,,,,,,,,,,,,,,,,,,,,,,,,,,634.2152421999999,634.2316839,634.7151944999999,,,,,,,,,,,,,,634.7651893999999,,,,,,,,,,,,,634.7469001,634.7651893999999,634.7651893999999,634.7651893999999,637.7317626,j,0.749853499999972,0.13383380000004763,637.7317984,637.7318091,None,,,,,,,,,,,,,,00022,001,2025-11-11_04h49.33.010,MST_task,2024.2.2,60.41080555997154,2025-11-11 04h49.42.740284 +0530,
,Scenes\101a.jpg,131,0,131,,,,,,,j,1.1237459000000172,0.1323366999999962,None,,,,,,,131,0,131,0,637.7483092,,,,,,,,,,,,,,,,,,,,,,,,,,,,,,637.7318953,637.7483092,638.2317352,,,,,,,,,,,,,,638.2649547,,,,,,,,,,,,,638.2571894,638.2649547,638.2649547,638.2649547,641.2482694,j,1.1237459000000172,0.1323366999999962,641.248303,641.2483138,None,,,,,,,,,,,,,,00022,001,2025-11-11_04h49.33.010,MST_task,2024.2.2,60.41080555997154,2025-11-11 04h49.42.740284 +0530,
,Scenes\015a.jpg,132,0,132,,,,,,,j,1.3238589999999704,0.12997089999998934,None,,,,,,,132,0,132,0,641.2648871,,,,,,,,,,,,,,,,,,,,,,,,,,,,,,641.2483705999999,641.2648871,641.7483816,,,,,,,,,,,,,,,,,,,,,,,,,,,641.7830703,641.7986308999999,641.7986308999999,641.7986308999999,644.7648206,j,1.3238589999999704,0.12997089999998934,644.7648554,644.7648656,None,,,,,,,,,,,,,,00022,001,2025-11-11_04h49.33.010,MST_task,2024.2.2,60.41080555997154,2025-11-11 04h49.42.740284 +0530,
,Objects\047a.jpg,133,0,133,,,,,,,f,1.1467559000000165,0.14953719999994064,None,,,,,,,133,0,133,0,644.7814683,,,,,,,,,,,,,,,,,,,,,,,,,,,,,,644.7649517,644.7814683,645.2649514,,,,,,,,,,,,,,,,,,,,,,,,,,,645.2903732,645.2984068999999,645.2984068999999,645.2984068999999,648.2814596,f,1.1467559000000165,0.14953719999994064,648.2828966,648.2829082999999,None,,,,,,,,,,,,,,00022,001,2025-11-11_04h49.33.010,MST_task,2024.2.2,60.41080555997154,2025-11-11 04h49.42.740284 +0530,
,Objects\068a.jpg,134,0,134,,,,,,,f,0.9576585999999452,0.16211920000000646,None,,,,,,,134,0,134,0,648.2980640999999,,,,,,,,,,,,,,,,,,,,,,,,,,,,,,648.2829916,648.2980640999999,648.7815564,,,,,,,,,,,,,,648.81468,,,,,,,,,,,,,648.8078209,648.81468,648.81468,648.81468,651.7980037,f,0.9576585999999452,0.16211920000000646,651.7980397,651.7980507999999,None,,,,,,,,,,,,,,00022,001,2025-11-11_04h49.33.010,MST_task,2024.2.2,60.41080555997154,2025-11-11 04h49.42.740284 +0530,
,Objects\087a.jpg,135,0,135,,,,,,,j,1.127206000000001,0.166485200000011,None,,,,,,,135,0,135,0,651.8146525999999,,,,,,,,,,,,,,,,,,,,,,,,,,,,,,651.7981098,651.8146525999999,652.2981357,,,,,,,,,,,,,,652.3312956,,,,,,,,,,,,,652.3222753,652.3312956,652.3312956,652.3312956,655.3146485999999,j,1.127206000000001,0.166485200000011,655.3146872,655.3146987,None,,,,,,,,,,,,,,00022,001,2025-11-11_04h49.33.010,MST_task,2024.2.2,60.41080555997154,2025-11-11 04h49.42.740284 +0530,
,Objects\143a.jpg,136,0,136,,,,,,,j,1.6102963000000727,0.1659733999999844,None,,,,,,,136,0,136,0,655.3312316,,,,,,,,,,,,,,,,,,,,,,,,,,,,,,655.3147872999999,655.3312316,655.8146885,,,,,,,,,,,,,,655.8478537,,,,,,,,,,,,,655.8381191,655.8478537,655.8478537,655.8478537,658.8312157,j,1.6102963000000727,0.1659733999999844,658.8312506999999,658.8312612999999,None,,,,,,,,,,,,,,00022,001,2025-11-11_04h49.33.010,MST_task,2024.2.2,60.41080555997154,2025-11-11 04h49.42.740284 +0530,
,Objects\025a.jpg,137,0,137,,,,,,,j,1.4667409999999563,0.18633620000002793,None,,,,,,,137,0,137,0,658.8478221,,,,,,,,,,,,,,,,,,,,,,,,,,,,,,658.8313205,658.8478221,659.33128,,,,,,,,,,,,,,659.3644356,,,,,,,,,,,,,659.3552789,659.3644356,659.3644356,659.3644356,662.3478607,j,1.4667409999999563,0.18633620000002793,662.3478967,662.3479079,None,,,,,,,,,,,,,,00022,001,2025-11-11_04h49.33.010,MST_task,2024.2.2,60.41080555997154,2025-11-11 04h49.42.740284 +0530,
,Objects\189a.jpg,138,0,138,,,,,,,j,1.5940073000000439,0.12957029999995484,None,,,,,,,138,0,138,0,662.3644155,,,,,,,,,,,,,,,,,,,,,,,,,,,,,,662.3480145999999,662.3644155,662.848151,,,,,,,,,,,,,,662.8810221,,,,,,,,,,,,,662.8740382999999,662.8810221,662.8810221,662.8810221,665.8644412,j,1.5940073000000439,0.12957029999995484,665.8644777,665.8644888,None,,,,,,,,,,,,,,00022,001,2025-11-11_04h49.33.010,MST_task,2024.2.2,60.41080555997154,2025-11-11 04h49.42.740284 +0530,
,Objects\049a.jpg,139,0,139,,,,,,,f,2.4349381999999196,0.2045028000000002,None,,,,,,,139,0,139,0,665.8809547999999,,,,,,,,,,,,,,,,,,,,,,,,,,,,,,665.864571,665.8809547999999,666.3644969,,,,,,,,,,,,,,666.3976107999999,,,,,,,,,,,,,666.3830967,666.3976107999999,666.3976107999999,666.3976107999999,669.3809253,f,2.4349381999999196,0.2045028000000002,669.3809646,669.3809765999999,None,,,,,,,,,,,,,,00022,001,2025-11-11_04h49.33.010,MST_task,2024.2.2,60.41080555997154,2025-11-11 04h49.42.740284 +0530,
,Scenes\087a.jpg,140,0,140,,,,,,,j,1.084059400000001,0.15401630000008026,None,,,,,,,140,0,140,0,669.3975835,,,,,,,,,,,,,,,,,,,,,,,,,,,,,,669.3810351,669.3975835,669.8810976,,,,,,,,,,,,,,669.9145853,,,,,,,,,,,,,669.9030325,669.9145853,669.9145853,669.9145853,672.8976402999999,j,1.084059400000001,0.15401630000008026,672.8988868,672.8988989,None,,,,,,,,,,,,,,00022,001,2025-11-11_04h49.33.010,MST_task,2024.2.2,60.41080555997154,2025-11-11 04h49.42.740284 +0530,
,Scenes\173a.jpg,141,0,141,,,,,,,j,0.9090264000000161,0.11585109999998622,None,,,,,,,141,0,141,0,672.9141647,,,,,,,,,,,,,,,,,,,,,,,,,,,,,,672.898954,672.9141647,673.3976338,,,,,,,,,,,,,,673.4477828,,,,,,,,,,,,,673.4262468,673.4477828,673.4477828,673.4477828,676.4141480999999,j,0.9090264000000161,0.11585109999998622,676.414187,676.4141989,None,,,,,,,,,,,,,,00022,001,2025-11-11_04h49.33.010,MST_task,2024.2.2,60.41080555997154,2025-11-11 04h49.42.740284 +0530,
,Scenes\022a.jpg,142,0,142,,,,,,,j,0.708927000000017,0.12624559999994744,None,,,,,,,142,0,142,0,676.4307509,,,,,,,,,,,,,,,,,,,,,,,,,,,,,,676.4142634,676.4307509,676.9142754999999,,,,,,,,,,,,,,676.9476672999999,,,,,,,,,,,,,676.9398193,676.9476672999999,676.9476672999999,676.9476672999999,679.9307509,j,0.708927000000017,0.12624559999994744,679.9307891,679.930801,None,,,,,,,,,,,,,,00022,001,2025-11-11_04h49.33.010,MST_task,2024.2.2,60.41080555997154,2025-11-11 04h49.42.740284 +0530,
,Scenes\145a.jpg,143,0,143,,,,,,,j,0.7605042999999796,0.13001770000005308,None,,,,,,,143,0,143,0,679.9473439,,,,,,,,,,,,,,,,,,,,,,,,,,,,,,679.9309264,679.9473439,680.4308251,,,,,,,,,,,,,,680.4806664,,,,,,,,,,,,,680.4654009999999,680.4806664,680.4806664,680.4806664,683.4473296,j,0.7605042999999796,0.13001770000005308,683.4473833999999,683.4473945,None,,,,,,,,,,,,,,00022,001,2025-11-11_04h49.33.010,MST_task,2024.2.2,60.41080555997154,2025-11-11 04h49.42.740284 +0530,
,Scenes\187a.jpg,144,0,144,,,,,,,j,0.6325131999999485,0.1378406000000041,None,,,,,,,144,0,144,0,683.4639344,,,,,,,,,,,,,,,,,,,,,,,,,,,,,,683.4474796,683.4639344,683.9474669,,,,,,,,,,,,,,683.9805378,,,,,,,,,,,,,683.9723517,683.9805378,683.9805378,683.9805378,686.9638833,j,0.6325131999999485,0.1378406000000041,686.9639156,686.9639655999999,None,,,,,,,,,,,,,,00022,001,2025-11-11_04h49.33.010,MST_task,2024.2.2,60.41080555997154,2025-11-11 04h49.42.740284 +0530,
,Scenes\049a.jpg,145,0,145,,,,,,,j,1.116816100000051,0.1581923999999617,None,,,,,,,145,0,145,0,686.9806308999999,,,,,,,,,,,,,,,,,,,,,,,,,,,,,,686.9640330999999,686.9806308999999,687.4641035999999,,,,,,,,,,,,,,687.5137976999999,,,,,,,,,,,,,687.4927199,687.5137976999999,687.5137976999999,687.5137976999999,690.4805686999999,j,1.116816100000051,0.1581923999999617,690.4806046,690.4806159999999,None,,,,,,,,,,,,,,00022,001,2025-11-11_04h49.33.010,MST_task,2024.2.2,60.41080555997154,2025-11-11 04h49.42.740284 +0530,
,Scenes\014a.jpg,146,0,146,,,,,,,f,2.782603399999971,None,None,,,,,,,146,0,146,0,690.4970856,,,,,,,,,,,,,,,,,,,,,,,,,,,,,,690.4807059,690.4970856,690.9806745999999,,,,,,,,,,,,,,691.0306032,,,,,,,,,,,,,691.0127651,691.0306032,691.0306032,691.0306032,693.9970394,f,2.782603399999971,None,693.9970726,693.9970832,None,,,,,,,,,,,,,,00022,001,2025-11-11_04h49.33.010,MST_task,2024.2.2,60.41080555997154,2025-11-11 04h49.42.740284 +0530,
,Objects\099a.jpg,147,0,147,,,,,,,j,2.155299100000093,0.17371959999991304,None,,,,,,,147,0,147,0,694.0136817,,,,,,,,,,,,,,,,,,,,,,,,,,,,,,693.9971373999999,694.0136817,694.4971433,,,,,,,,,,,,,,,,,,,,,,,,,,,694.5286804,694.5472872,694.5472872,694.5472872,697.5136529,j,2.155299100000093,0.17371959999991304,697.515092,697.5151063999999,None,,,,,,,,,,,,,,00022,001,2025-11-11_04h49.33.010,MST_task,2024.2.2,60.41080555997154,2025-11-11 04h49.42.740284 +0530,
,Objects\091a.jpg,148,0,148,,,,,,,None,,,j,0.3137965000000804,None,,,,,148,0,148,0,697.5302285,,,,,,,,,,,,,,,,,,,,,,,,,,,,,,697.5151718,697.5302285,698.013745,,,,,,,,,,,,,,698.0469228,,,,,,,,,,,,,698.0390906,698.0469228,698.0469228,698.0469228,701.0302105999999,None,,,701.0302409999999,701.3639919999999,j,701.0468654,701.0468654,0.3137965000000804,None,,,,,,,,,,00022,001,2025-11-11_04h49.33.010,MST_task,2024.2.2,60.41080555997154,2025-11-11 04h49.42.740284 +0530,
,Objects\154a.jpg,149,0,149,,,,,,,j,1.1707876000000397,0.15046159999997144,None,,,,,,,149,0,149,0,701.3801774,,,,,,,,,,,,,,,,,,,,,,,,,,,,,,701.3640867,701.3801774,701.8638116999999,,,,,,,,,,,,,,701.9135054999999,,,,,,,,,,,,,701.8945808999999,701.9135054999999,701.9135054999999,701.9135054999999,704.8801199,j,1.1707876000000397,0.15046159999997144,704.8801533999999,704.8801639,None,,,,,,,,,,,,,,00022,001,2025-11-11_04h49.33.010,MST_task,2024.2.2,60.41080555997154,2025-11-11 04h49.42.740284 +0530,
,Objects\106a.jpg,150,0,150,,,,,,,f,1.8491179000000102,0.17421330000001944,None,,,,,,,150,0,150,0,704.8967657,,,,,,,,,,,,,,,,,,,,,,,,,,,,,,704.8802459999999,704.8967657,705.3803702,,,,,,,,,,,,,,705.4133914,,,,,,,,,,,,,705.4060632,705.4133914,705.4133914,705.4133914,708.3968725,f,1.8491179000000102,0.17421330000001944,708.3969083,708.3969191,None,,,,,,,,,,,,,,00022,001,2025-11-11_04h49.33.010,MST_task,2024.2.2,60.41080555997154,2025-11-11 04h49.42.740284 +0530,
,Objects\041a.jpg,151,0,151,,,,,,,j,2.1428240000000187,0.13828539999997247,None,,,,,,,151,0,151,0,708.4133759,,,,,,,,,,,,,,,,,,,,,,,,,,,,,,708.3970123,708.4133759,708.8969439,,,,,,,,,,,,,,708.9299741,,,,,,,,,,,,,708.9250872,708.9299741,708.9299741,708.9299741,711.9133211,j,2.1428240000000187,0.13828539999997247,711.9133585999999,711.9133697,None,,,,,,,,,,,,,,00022,001,2025-11-11_04h49.33.010,MST_task,2024.2.2,60.41080555997154,2025-11-11 04h49.42.740284 +0530,
,Objects\173a.jpg,152,0,152,,,,,,,f,1.7384665000000723,0.18144840000002205,None,,,,,,,152,0,152,0,711.9299351,,,,,,,,,,,,,,,,,,,,,,,,,,,,,,711.9134604,711.9299351,712.4134204,,,,,,,,,,,,,,712.4465551,,,,,,,,,,,,,712.4289585,712.4465551,712.4465551,712.4465551,715.4299055,f,1.7384665000000723,0.18144840000002205,715.4299563999999,715.4299761999999,None,,,,,,,,,,,,,,00022,001,2025-11-11_04h49.33.010,MST_task,2024.2.2,60.41080555997154,2025-11-11 04h49.42.740284 +0530,
,Objects\026a.jpg,153,0,153,,,,,,,j,0.8085790000000088,0.16462959999989835,None,,,,,,,153,0,153,0,715.4465981999999,,,,,,,,,,,,,,,,,,,,,,,,,,,,,,715.4300741,715.4465981999999,715.9301002,,,,,,,,,,,,,,715.9631496,,,,,,,,,,,,,715.9567092999999,715.9631496,715.9631496,715.9631496,718.9466097999999,j,0.8085790000000088,0.16462959999989835,718.946644,718.946659,None,,,,,,,,,,,,,,00022,001,2025-11-11_04h49.33.010,MST_task,2024.2.2,60.41080555997154,2025-11-11 04h49.42.740284 +0530,
,Scenes\178a.jpg,154,0,154,,,,,,,None,,,j,2.076933199999985,None,,,,,154,0,154,0,718.9630751999999,,,,,,,,,,,,,,,,,,,,,,,,,,,,,,718.9467526999999,718.9630751999999,719.4465702,,,,,,,,,,,,,,719.4797593999999,,,,,,,,,,,,,719.4632177999999,719.4797593999999,719.4797593999999,719.4797593999999,722.4632851,None,,,722.4645564,724.5634438,j,722.4797565,722.4797565,2.076933199999985,None,,,,,,,,,,00022,001,2025-11-11_04h49.33.010,MST_task,2024.2.2,60.41080555997154,2025-11-11 04h49.42.740284 +0530,
,Scenes\065a.jpg,155,0,155,,,,,,,j,1.0958528999999544,0.1069784000000027,None,,,,,,,155,0,155,0,724.5797602,,,,,,,,,,,,,,,,,,,,,,,,,,,,,,724.5635217,724.5797602,725.0631496999999,,,,,,,,,,,,,,725.0965871,,,,,,,,,,,,,725.0863042999999,725.0965871,725.0965871,725.0965871,728.0796611999999,j,1.0958528999999544,0.1069784000000027,728.0796955999999,728.0797077,None,,,,,,,,,,,,,,00022,001,2025-11-11_04h49.33.010,MST_task,2024.2.2,60.41080555997154,2025-11-11 04h49.42.740284 +0530,
,Scenes\102a.jpg,156,0,156,,,,,,,None,,,f,0.12984210000001895,None,,,,,156,0,156,0,728.0963643,,,,,,,,,,,,,,,,,,,,,,,,,,,,,,728.0797914,728.0963643,728.5798879,,,,,,,,,,,,,,728.6296331,,,,,,,,,,,,,728.6121558,728.6296331,728.6296331,728.6296331,731.5963134,None,,,731.5963452,731.7465159999999,f,731.6129462,731.6129462,0.12984210000001895,None,,,,,,,,,,00022,001,2025-11-11_04h49.33.010,MST_task,2024.2.2,60.41080555997154,2025-11-11 04h49.42.740284 +0530,
,Scenes\149a.jpg,157,0,157,,,,,,,None,,,j,0.5007830999999214,None,,,,,157,0,157,0,731.7629012,,,,,,,,,,,,,,,,,,,,,,,,,,,,,,731.7466062,731.7629012,732.2463342,,,,,,,,,,,,,,732.2962552,,,,,,,,,,,,,732.2740979,732.2962552,732.2962552,732.2962552,735.2628808,None,,,735.2629111,735.7963572,j,735.2794743,735.2794743,0.5007830999999214,None,,,,,,,,,,00022,001,2025-11-11_04h49.33.010,MST_task,2024.2.2,60.41080555997154,2025-11-11 04h49.42.740284 +0530,
,Scenes\050a.jpg,158,0,158,,,,,,,j,0.8292450000000144,0.17006950000006782,None,,,,,,,158,0,158,0,735.8128512,,,,,,,,,,,,,,,,,,,,,,,,,,,,,,735.7964286,735.8128512,736.2963616,,,,,,,,,,,,,,736.3290637,,,,,,,,,,,,,736.3215577,736.3290637,736.3290637,736.3290637,739.3127675,j,0.8292450000000144,0.17006950000006782,739.3128184999999,739.312832,None,,,,,,,,,,,,,,00022,001,2025-11-11_04h49.33.010,MST_task,2024.2.2,60.41080555997154,2025-11-11 04h49.42.740284 +0530,
,Scenes\012a.jpg,159,0,159,,,,,,,j,0.9329314999999951,0.125987900000041,None,,,,,,,159,0,159,0,739.3294301,,,,,,,,,,,,,,,,,,,,,,,,,,,,,,739.3129248,739.3294301,739.8128802,,,,,,,,,,,,,,740.0792838,,,,,,,,,,,,,740.0684692,740.0792838,740.0792838,740.0792838,742.829434,j,0.9329314999999951,0.125987900000041,742.8294774999999,742.8294885,None,,,,,,,,,,,,,,00022,001,2025-11-11_04h49.33.010,MST_task,2024.2.2,60.41080555997154,2025-11-11 04h49.42.740284 +0530,
,Scenes\130a.jpg,160,0,160,,,,,,,j,2.0671257999999852,0.16946680000000924,None,,,,,,,160,0,160,0,742.8459362,,,,,,,,,,,,,,,,,,,,,,,,,,,,,,742.8295762,742.8459362,743.329484,,,,,,,,,,,,,,743.4295157,,,,,,,,,,,,,743.4109963999999,743.4295157,743.4295157,743.4295157,746.3459703,j,2.0671257999999852,0.16946680000000924,746.3460096,746.3460203,None,,,,,,,,,,,,,,00022,001,2025-11-11_04h49.33.010,MST_task,2024.2.2,60.41080555997154,2025-11-11 04h49.42.740284 +0530,
,Objects\104a.jpg,161,0,161,,,,,,,f,1.8524876999999833,0.16192599999999402,None,,,,,,,161,0,161,0,746.3626092,,,,,,,,,,,,,,,,,,,,,,,,,,,,,,746.3460832,746.3626092,746.8459593,,,,,,,,,,,,,,746.8961491,,,,,,,,,,,,,746.8775016999999,746.8961491,746.8961491,746.8961491,749.8624351,f,1.8524876999999833,0.16192599999999402,749.8641663,749.8641868,None,,,,,,,,,,,,,,00022,001,2025-11-11_04h49.33.010,MST_task,2024.2.2,60.41080555997154,2025-11-11 04h49.42.740284 +0530,
,Objects\085a.jpg,162,0,162,,,,,,,j,2.468090899999993,0.14166649999992842,None,,,,,,,162,0,162,0,749.8790339,,,,,,,,,,,,,,,,,,,,,,,,,,,,,,749.8642702999999,749.8790339,750.3625637,,,,,,,,,,,,,,750.3953111999999,,,,,,,,,,,,,750.3918426,750.3953111999999,750.3953111999999,750.3953111999999,753.3785055999999,j,2.468090899999993,0.14166649999992842,753.378548,753.37856,None,,,,,,,,,,,,,,00022,001,2025-11-11_04h49.33.010,MST_task,2024.2.2,60.41080555997154,2025-11-11 04h49.42.740284 +0530,
,Objects\073a.jpg,163,0,163,,,,,,,f,1.5949703,0.19401640000000953,None,,,,,,,163,0,163,0,753.3952335,,,,,,,,,,,,,,,,,,,,,,,,,,,,,,753.3786599,753.3952335,753.8785997,,,,,,,,,,,,,,753.9118002,,,,,,,,,,,,,753.9024271999999,753.9118002,753.9118002,753.9118002,756.8789191,f,1.5949703,0.19401640000000953,756.8789628,756.8789757999999,None,,,,,,,,,,,,,,00022,001,2025-11-11_04h49.33.010,MST_task,2024.2.2,60.41080555997154,2025-11-11 04h49.42.740284 +0530,
,Objects\083a.jpg,164,0,164,,,,,,,f,0.6352964000000156,0.19393679999996039,None,,,,,,,164,0,164,0,756.895443,,,,,,,,,,,,,,,,,,,,,,,,,,,,,,756.8790713999999,756.895443,757.379164,,,,,,,,,,,,,,757.4288634999999,,,,,,,,,,,,,757.4154178,757.4288634999999,757.4288634999999,757.4288634999999,760.3955397,f,0.6352964000000156,0.19393679999996039,760.3955775,760.3955887,None,,,,,,,,,,,,,,00022,001,2025-11-11_04h49.33.010,MST_task,2024.2.2,60.41080555997154,2025-11-11 04h49.42.740284 +0530,
,Objects\078a.jpg,165,0,165,,,,,,,j,0.8672171000000617,0.1859125999999378,None,,,,,,,165,0,165,0,760.4121675,,,,,,,,,,,,,,,,,,,,,,,,,,,,,,760.3956607,760.4121675,760.8957295,,,,,,,,,,,,,,760.9454537,,,,,,,,,,,,,760.9395097,760.9454537,760.9454537,760.9454537,763.9121155,j,0.8672171000000617,0.1859125999999378,763.9121648,763.9121759,None,,,,,,,,,,,,,,00022,001,2025-11-11_04h49.33.010,MST_task,2024.2.2,60.41080555997154,2025-11-11 04h49.42.740284 +0530,
,Objects\072a.jpg,166,0,166,,,,,,,f,1.4889964999999847,0.17081240000004527,None,,,,,,,166,0,166,0,763.9287107,,,,,,,,,,,,,,,,,,,,,,,,,,,,,,763.9122563999999,763.9287107,764.4122301,,,,,,,,,,,,,,,,,,,,,,,,,,,764.4659283,764.4786975,764.4786975,764.4786975,767.4288389,f,1.4889964999999847,0.17081240000004527,767.4288799,767.4288905,None,,,,,,,,,,,,,,00022,001,2025-11-11_04h49.33.010,MST_task,2024.2.2,60.41080555997154,2025-11-11 04h49.42.740284 +0530,
,Objects\178a.jpg,167,0,167,,,,,,,f,2.150487300000009,0.15770359999999073,None,,,,,,,167,0,167,0,767.4452928,,,,,,,,,,,,,,,,,,,,,,,,,,,,,,767.4289744,767.4452928,767.9287815,,,,,,,,,,,,,,768.0119516,,,,,,,,,,,,,768.0007947,768.0119516,768.0119516,768.0119516,770.9453913,f,2.150487300000009,0.15770359999999073,770.9454291,770.9454403999999,None,,,,,,,,,,,,,,00022,001,2025-11-11_04h49.33.010,MST_task,2024.2.2,60.41080555997154,2025-11-11 04h49.42.740284 +0530,
,Scenes\120a.jpg,168,0,168,,,,,,,j,1.1131401999999753,0.14599590000000262,None,,,,,,,168,0,168,0,770.9619326999999,,,,,,,,,,,,,,,,,,,,,,,,,,,,,,770.9454987,770.9619326999999,771.4454418,,,,,,,,,,,,,,771.4954898,,,,,,,,,,,,,771.4862132999999,771.4954898,771.4954898,771.4954898,774.4618411,j,1.1131401999999753,0.14599590000000262,774.4629854,774.4630006,None,,,,,,,,,,,,,,00022,001,2025-11-11_04h49.33.010,MST_task,2024.2.2,60.41080555997154,2025-11-11 04h49.42.740284 +0530,
,Scenes\052a.jpg,169,0,169,,,,,,,j,2.648974400000043,0.11770749999993768,None,,,,,,,169,0,169,0,774.4785468,,,,,,,,,,,,,,,,,,,,,,,,,,,,,,774.4630913,774.4785468,774.9622243,,,,,,,,,,,,,,775.0120711,,,,,,,,,,,,,775.002877,775.0120711,775.0120711,775.0120711,777.9784819,j,2.648974400000043,0.11770749999993768,777.9785181999999,777.9785294999999,None,,,,,,,,,,,,,,00022,001,2025-11-11_04h49.33.010,MST_task,2024.2.2,60.41080555997154,2025-11-11 04h49.42.740284 +0530,
,Scenes\176a.jpg,170,0,170,,,,,,,j,2.258008700000005,0.15194350000001577,None,,,,,,,170,0,170,0,777.9950966,,,,,,,,,,,,,,,,,,,,,,,,,,,,,,777.9785891,777.9950966,778.4785602,,,,,,,,,,,,,,778.5950933,,,,,,,,,,,,,778.5741333999999,778.5950933,778.5950933,778.5950933,781.4951867,j,2.258008700000005,0.15194350000001577,781.4952304,781.4952417,None,,,,,,,,,,,,,,00022,001,2025-11-11_04h49.33.010,MST_task,2024.2.2,60.41080555997154,2025-11-11 04h49.42.740284 +0530,
,Scenes\143a.jpg,171,0,171,,,,,,,j,1.2226896999999326,0.20504770000002281,None,,,,,,,171,0,171,0,781.5117071999999,,,,,,,,,,,,,,,,,,,,,,,,,,,,,,781.4953028,781.5117071999999,781.9952006,,,,,,,,,,,,,,782.0283463999999,,,,,,,,,,,,,782.0059436,782.0283463999999,782.0283463999999,782.0283463999999,785.0116373999999,j,1.2226896999999326,0.20504770000002281,785.0116711,785.0116813999999,None,,,,,,,,,,,,,,00022,001,2025-11-11_04h49.33.010,MST_task,2024.2.2,60.41080555997154,2025-11-11 04h49.42.740284 +0530,
,Scenes\077a.jpg,172,0,172,,,,,,,f,2.52282189999994,0.17014019999999164,None,,,,,,,172,0,172,0,785.028271,,,,,,,,,,,,,,,,,,,,,,,,,,,,,,785.0117688,785.028271,785.5118262999999,,,,,,,,,,,,,,785.5615958,,,,,,,,,,,,,785.5427430999999,785.5615958,785.5615958,785.5615958,788.5282399,f,2.52282189999994,0.17014019999999164,788.5283003,788.5283108,None,,,,,,,,,,,,,,00022,001,2025-11-11_04h49.33.010,MST_task,2024.2.2,60.41080555997154,2025-11-11 04h49.42.740284 +0530,
,Scenes\074a.jpg,173,0,173,,,,,,,j,0.9927814999999782,0.1532627000000275,None,,,,,,,173,0,173,0,788.5448626,,,,,,,,,,,,,,,,,,,,,,,,,,,,,,788.5283691,788.5448626,789.0283241999999,,,,,,,,,,,,,,789.0781524,,,,,,,,,,,,,789.057778,789.0781524,789.0781524,789.0781524,792.0448405,j,0.9927814999999782,0.1532627000000275,792.0448831,792.0448946,None,,,,,,,,,,,,,,00022,001,2025-11-11_04h49.33.010,MST_task,2024.2.2,60.41080555997154,2025-11-11 04h49.42.740284 +0530,
,Scenes\084a.jpg,174,0,174,,,,,,,j,1.250561599999969,0.17131330000006528,None,,,,,,,174,0,174,0,792.0614416,,,,,,,,,,,,,,,,,,,,,,,,,,,,,,792.0449902,792.0614416,792.5449388,,,,,,,,,,,,,,792.5780937,,,,,,,,,,,,,792.562746,792.5780937,792.5780937,792.5780937,795.5613822,j,1.250561599999969,0.17131330000006528,795.5614368,795.5614492999999,None,,,,,,,,,,,,,,00022,001,2025-11-11_04h49.33.010,MST_task,2024.2.2,60.41080555997154,2025-11-11 04h49.42.740284 +0530,
,Objects\082a.jpg,175,0,175,,,,,,,j,2.373629400000027,0.13355639999997493,None,,,,,,,175,0,175,0,795.577997,,,,,,,,,,,,,,,,,,,,,,,,,,,,,,795.5615771,795.577997,796.0614823999999,,,,,,,,,,,,,,796.0948887999999,,,,,,,,,,,,,796.0867568,796.0948887999999,796.0948887999999,796.0948887999999,799.0779628,j,2.373629400000027,0.13355639999997493,799.0794099999999,799.0794222,None,,,,,,,,,,,,,,00022,001,2025-11-11_04h49.33.010,MST_task,2024.2.2,60.41080555997154,2025-11-11 04h49.42.740284 +0530,
,Objects\111a.jpg,176,0,176,,,,,,,j,1.4995513000000074,0.1377769000000626,None,,,,,,,176,0,176,0,799.0945730999999,,,,,,,,,,,,,,,,,,,,,,,,,,,,,,799.0795102,799.0945730999999,799.5782455,,,,,,,,,,,,,,799.6113229,,,,,,,,,,,,,799.5978561,799.6113229,799.6113229,799.6113229,802.5945411,j,1.4995513000000074,0.1377769000000626,802.5945760999999,802.5945878,None,,,,,,,,,,,,,,00022,001,2025-11-11_04h49.33.010,MST_task,2024.2.2,60.41080555997154,2025-11-11 04h49.42.740284 +0530,
,Objects\130a.jpg,177,0,177,,,,,,,j,1.4147444000000178,0.110074799999893,None,,,,,,,177,0,177,0,802.6111999,,,,,,,,,,,,,,,,,,,,,,,,,,,,,,802.5946715,802.6111999,803.0947249,,,,,,,,,,,,,,803.1278487,,,,,,,,,,,,,803.1187924999999,803.1278487,803.1278487,803.1278487,806.1111136,j,1.4147444000000178,0.110074799999893,806.1111475,806.1111586999999,None,,,,,,,,,,,,,,00022,001,2025-11-11_04h49.33.010,MST_task,2024.2.2,60.41080555997154,2025-11-11 04h49.42.740284 +0530,
,Objects\158a.jpg,178,0,178,,,,,,,f,0.9016268999999966,0.15038340000000971,None,,,,,,,178,0,178,0,806.1277855,,,,,,,,,,,,,,,,,,,,,,,,,,,,,,806.1112162,806.1277855,806.6112604,,,,,,,,,,,,,,806.6444071,,,,,,,,,,,,,806.6367766,806.6444071,806.6444071,806.6444071,809.627843,f,0.9016268999999966,0.15038340000000971,809.6278816,809.6278925,None,,,,,,,,,,,,,,00022,001,2025-11-11_04h49.33.010,MST_task,2024.2.2,60.41080555997154,2025-11-11 04h49.42.740284 +0530,
,Objects\138a.jpg,179,0,179,,,,,,,j,2.3968589999999494,0.18224980000002233,None,,,,,,,179,0,179,0,809.6443654,,,,,,,,,,,,,,,,,,,,,,,,,,,,,,809.6279842,809.6443654,810.1279648,,,,,,,,,,,,,,810.1776818999999,,,,,,,,,,,,,810.1587165,810.1776818999999,810.1776818999999,810.1776818999999,813.1443312,j,2.3968589999999494,0.18224980000002233,813.1443838,813.1443965,None,,,,,,,,,,,,,,00022,001,2025-11-11_04h49.33.010,MST_task,2024.2.2,60.41080555997154,2025-11-11 04h49.42.740284 +0530,
,Objects\121a.jpg,180,0,180,,,,,,,f,2.221353299999919,0.2211173000000599,None,,,,,,,180,0,180,0,813.1609578,,,,,,,,,,,,,,,,,,,,,,,,,,,,,,813.1444847,813.1609578,813.6444346,,,,,,,,,,,,,,813.6775779,,,,,,,,,,,,,813.6693795,813.6775779,813.6775779,813.6775779,816.6609318000001,f,2.221353299999919,0.2211173000000599,816.6609708000001,816.6609813,None,,,,,,,,,,,,,,00022,001,2025-11-11_04h49.33.010,MST_task,2024.2.2,60.41080555997154,2025-11-11 04h49.42.740284 +0530,
,Objects\031a.jpg,181,0,181,,,,,,,j,1.320023400000082,0.16042210000000523,None,,,,,,,181,0,181,0,816.6775554999999,,,,,,,,,,,,,,,,,,,,,,,,,,,,,,816.6610393000001,816.6775554999999,817.1610559999999,,,,,,,,,,,,,,817.1941609,,,,,,,,,,,,,817.1882762,817.1941609,817.1941609,817.1941609,820.1775422999999,j,1.320023400000082,0.16042210000000523,820.1775780999999,820.1775886,None,,,,,,,,,,,,,,00022,001,2025-11-11_04h49.33.010,MST_task,2024.2.2,60.41080555997154,2025-11-11 04h49.42.740284 +0530,
,Scenes\047a.jpg,182,0,182,,,,,,,j,2.0286121999999978,0.1546138000001065,None,,,,,,,182,0,182,0,820.1941264,,,,,,,,,,,,,,,,,,,,,,,,,,,,,,820.177672,820.1941264,820.6775769999999,,,,,,,,,,,,,,820.7276628,,,,,,,,,,,,,820.7053756999999,820.7276628,820.7276628,820.7276628,823.6941211000001,j,2.0286121999999978,0.1546138000001065,823.6952956999999,823.6953076,None,,,,,,,,,,,,,,00022,001,2025-11-11_04h49.33.010,MST_task,2024.2.2,60.41080555997154,2025-11-11 04h49.42.740284 +0530,
,Scenes\095a.jpg,183,0,183,,,,,,,j,0.8374255000001085,0.18196169999987433,None,,,,,,,183,0,183,0,823.7107042999999,,,,,,,,,,,,,,,,,,,,,,,,,,,,,,823.6953867,823.7107042999999,824.1941912,,,,,,,,,,,,,,824.2275545,,,,,,,,,,,,,824.2116163999999,824.2275545,824.2275545,824.2275545,827.2106862,j,0.8374255000001085,0.18196169999987433,827.2107209999999,827.210732,None,,,,,,,,,,,,,,00022,001,2025-11-11_04h49.33.010,MST_task,2024.2.2,60.41080555997154,2025-11-11 04h49.42.740284 +0530,
,Scenes\141a.jpg,184,0,184,,,,,,,j,2.0104477000002134,0.17014199999994162,None,,,,,,,184,0,184,0,827.227257,,,,,,,,,,,,,,,,,,,,,,,,,,,,,,827.2108154,827.227257,827.7107180999999,,,,,,,,,,,,,,827.7439443000001,,,,,,,,,,,,,827.7344343,827.7439443000001,827.7439443000001,827.7439443000001,830.7272639999999,j,2.0104477000002134,0.17014199999994162,830.7273029,830.7273143,None,,,,,,,,,,,,,,00022,001,2025-11-11_04h49.33.010,MST_task,2024.2.2,60.41080555997154,2025-11-11 04h49.42.740284 +0530,
,Scenes\159a.jpg,185,0,185,,,,,,,j,1.1699590999999145,0.17346599999996215,None,,,,,,,185,0,185,0,830.7438463000001,,,,,,,,,,,,,,,,,,,,,,,,,,,,,,830.7273963999999,830.7438463000001,831.2273597999999,,,,,,,,,,,,,,831.2771757999999,,,,,,,,,,,,,831.2597258000001,831.2771757999999,831.2771757999999,831.2771757999999,834.2438589000001,j,1.1699590999999145,0.17346599999996215,834.2439116999999,834.2439224,None,,,,,,,,,,,,,,00022,001,2025-11-11_04h49.33.010,MST_task,2024.2.2,60.41080555997154,2025-11-11 04h49.42.740284 +0530,
,Scenes\038a.jpg,186,0,186,,,,,,,j,0.8864475999998831,0.12557440000000497,None,,,,,,,186,0,186,0,834.2604819000001,,,,,,,,,,,,,,,,,,,,,,,,,,,,,,834.2440108000001,834.2604819000001,834.7439164,,,,,,,,,,,,,,834.7940745000001,,,,,,,,,,,,,834.7806490999999,834.7940745000001,834.7940745000001,834.7940745000001,837.7604067,j,0.8864475999998831,0.12557440000000497,837.7604408,837.760452,None,,,,,,,,,,,,,,00022,001,2025-11-11_04h49.33.010,MST_task,2024.2.2,60.41080555997154,2025-11-11 04h49.42.740284 +0530,
,Scenes\029a.jpg,187,0,187,,,,,,,j,0.9119793999998365,0.17449290000013207,None,,,,,,,187,0,187,0,837.7771233000001,,,,,,,,,,,,,,,,,,,,,,,,,,,,,,837.7605355999999,837.7771233000001,838.2605788000001,,,,,,,,,,,,,,838.3104243,,,,,,,,,,,,,838.2971580999999,838.3104243,838.3104243,838.3104243,841.2770100999999,j,0.9119793999998365,0.17449290000013207,841.2770430999999,841.2770561,None,,,,,,,,,,,,,,00022,001,2025-11-11_04h49.33.010,MST_task,2024.2.2,60.41080555997154,2025-11-11 04h49.42.740284 +0530,
