Sl_no,image_path,thisN,thisTrialN,thisRepN,key_resp_5.keys,key_resp_5.rt,key_resp_5.duration,key_resp_7.keys,key_resp_7.rt,key_resp_7.duration,key_resp_9.keys,key_resp_9.rt,key_resp_9.duration,key_resp_8.keys,key_resp_8.rt,key_resp_8.duration,practice.thisRepN,practice.thisTrialN,practice.thisN,practice.thisIndex,trials.thisRepN,trials.thisTrialN,trials.thisN,trials.thisIndex,thisRow.t,notes,welcome_page.started,text.started,key_resp.started,welcome_page.stopped,key_resp.keys,key_resp.rt,key_resp.duration,instructions.started,ins.started,key_resp_2.started,instructions.stopped,key_resp_2.keys,key_resp_2.rt,key_resp_2.duration,instructions_2.started,text_10.started,key_resp_10.started,instructions_2.stopped,key_resp_10.keys,key_resp_10.rt,key_resp_10.duration,objects_only_instruction.started,text_3.started,key_resp_3.started,objects_only_instruction.stopped,key_resp_3.keys,key_resp_3.rt,key_resp_3.duration,ISI.started,text_4.started,text_4.stopped,ISI.stopped,practice_block.started,image.started,text_5.started,key_resp_5.started,practice_block.stopped,practice.key_resp_5.keys,practice.key_resp_5.rt,practice.key_resp_5.duration,indoor_outdoor.started,indoor_outdoor.stopped,practice.key_resp_7.keys,image.stopped,text_5.stopped,key_resp_5.stopped,text_7.started,key_resp_7.started,practice.key_resp_7.rt,practice.key_resp_7.duration,practice_to_main.started,text_2.started,key_resp_4.started,practice_to_main.stopped,key_resp_4.keys,key_resp_4.rt,key_resp_4.duration,objects.started,image_2.started,text_9.started,key_resp_9.started,objects.stopped,trials.key_resp_9.keys,trials.key_resp_9.rt,trials.key_resp_9.duration,encoding_task.started,encoding_task.stopped,trials.key_resp_8.keys,image_2.stopped,text_9.stopped,key_resp_9.stopped,text_8.started,key_resp_8.started,trials.key_resp_8.rt,trials.key_resp_8.duration,end_experiment.started,text_6.started,key_resp_6.started,end_experiment.stopped,key_resp_6.keys,key_resp_6.rt,key_resp_6.duration,list_of_stimuli,encoding_task_accuracy,participant,session,date,expName,psychopyVersion,frameRate,expStart,
,,,,,,,,,,,,,,,,,,,,,,,,,,,0.00877530000070692,0.025292700000136392,0.025292700000136392,11.476653100000476,space,11.440337900001396,None,,,,,,,,,,,,,,,,,,,,,,,,,,,,,,,,,,,,,,,,,,,,,,,,,,,,,,,,,,,,,,,,,,,,,,,,,,,,,,00025,001,2025-11-14_21h47.43.146,MST_task,2024.2.2,59.971381656497606,2025-11-14 21h47.48.271851 +0530,
,,,,,,,,,,,,,,,,,,,,,,,,,,,,,,,,,,11.47668689999955,11.49170260000028,11.49170260000028,23.475179999999455,space,11.980221600000732,None,,,,,,,,,,,,,,,,,,,,,,,,,,,,,,,,,,,,,,,,,,,,,,,,,,,,,,,,,,,,,,,,,,,,,,,00025,001,2025-11-14_21h47.43.146,MST_task,2024.2.2,59.971381656497606,2025-11-14 21h47.48.271851 +0530,
,,,,,,,,,,,,,,,,,,,,,,,,,,,,,,,,,,,,,,,,,23.475210900000093,23.491499399999157,23.491499399999157,44.708066499999404,space,21.21217280000019,None,,,,,,,,,,,,,,,,,,,,,,,,,,,,,,,,,,,,,,,,,,,,,,,,,,,,,,,,,,,,,,,,00025,001,2025-11-14_21h47.43.146,MST_task,2024.2.2,59.971381656497606,2025-11-14 21h47.48.271851 +0530,
,,,,,,,,,,,,,,,,,,,,,,,,,,,,,,,,,,,,,,,,,,,,,,,,44.708097599999746,44.72434229999999,44.72434229999999,61.42444590000014,space,16.695489899999302,None,,,,,,,,,,,,,,,,,,,,,,,,,,,,,,,,,,,,,,,,,,,,,,,,,,,,,,,,,00025,001,2025-11-14_21h47.43.146,MST_task,2024.2.2,59.971381656497606,2025-11-14 21h47.48.271851 +0530,
6,practice_images/158a.jpg,0,0,0,j,2.2929535999992368,0.1115444999995816,None,,,,,,,,,0,0,0,5,,,,,61.44063359999927,,,,,,,,,,,,,,,,,,,,,,,,,,,,,,61.42995580000024,61.44063359999927,61.957310300000245,61.924185100000614,61.93894449999971,61.957310300000245,61.957310300000245,61.957310300000245,64.94060069999978,j,2.2929535999992368,0.1115444999995816,64.94175069999983,64.94176270000025,None,,,,,,,,,,,,,,,,,,,,,,,,,,,,,,,,,,,,,,,,,,00025,001,2025-11-14_21h47.43.146,MST_task,2024.2.2,59.971381656497606,2025-11-14 21h47.48.271851 +0530,
4,practice_images/002b.jpg,1,1,0,f,1.4249165000001085,0.12527399999999034,None,,,,,,,,,0,1,1,3,,,,,64.95719599999939,,,,,,,,,,,,,,,,,,,,,,,,,,,,,,64.94181749999916,64.95719599999939,65.4571863000001,65.44077440000001,65.44771349999974,65.4571863000001,65.4571863000001,65.4571863000001,68.44080819999908,f,1.4249165000001085,0.12527399999999034,68.44084219999968,68.44085160000031,None,68.45716089999951,68.45716089999951,68.45716089999951,,,,,,,,,,,,,,,,,,,,,,,,,,,,,,,,,,,,,,,00025,001,2025-11-14_21h47.43.146,MST_task,2024.2.2,59.971381656497606,2025-11-14 21h47.48.271851 +0530,
1,practice_images/013a.jpg,2,2,0,None,,,j,1.5489495000001625,None,,,,,,,0,2,2,0,,,,,68.45716089999951,,,,,,,,,,,,,,,,,,,,,,,,,,,,,,68.44090999999935,68.45716089999951,68.95710580000014,68.94070049999937,68.94739370000025,68.95710580000014,68.95710580000014,68.95710580000014,71.94061519999923,None,,,71.94064529999923,73.50752789999933,j,71.9571049999995,71.9571049999995,71.9571049999995,71.9571049999995,71.9571049999995,1.5489495000001625,None,,,,,,,,,,,,,,,,,,,,,,,,,,,,,,,,,,,00025,001,2025-11-14_21h47.43.146,MST_task,2024.2.2,59.971381656497606,2025-11-14 21h47.48.271851 +0530,
8,practice_images/178a.jpg,3,3,0,j,1.7895009000003483,0.1448696999996173,None,,,,,,,,,0,3,3,7,,,,,73.52368170000045,,,,,,,,,,,,,,,,,,,,,,,,,,,,,,73.50760059999993,73.52368170000045,74.02367659999982,74.00730649999969,74.01394339999933,74.02367659999982,74.02367659999982,74.02367659999982,77.00725899999998,j,1.7895009000003483,0.1448696999996173,77.00729259999935,77.00730280000062,None,77.02360399999998,77.02360399999998,77.02360399999998,,,,,,,,,,,,,,,,,,,,,,,,,,,,,,,,,,,,,,,00025,001,2025-11-14_21h47.43.146,MST_task,2024.2.2,59.971381656497606,2025-11-14 21h47.48.271851 +0530,
2,practice_images/031a.jpg,4,4,0,f,1.6385520000003453,0.14419000000089,None,,,,,,,,,0,4,4,1,,,,,77.02360399999998,,,,,,,,,,,,,,,,,,,,,,,,,,,,,,77.00738230000024,77.02360399999998,77.52362069999981,77.50724099999934,77.51375539999935,77.52362069999981,77.52362069999981,77.52362069999981,80.507114,f,1.6385520000003453,0.14419000000089,80.50714999999946,80.50715970000056,None,80.52356370000052,80.52356370000052,80.52356370000052,,,,,,,,,,,,,,,,,,,,,,,,,,,,,,,,,,,,,,,00025,001,2025-11-14_21h47.43.146,MST_task,2024.2.2,59.971381656497606,2025-11-14 21h47.48.271851 +0530,
7,practice_images/166a.jpg,5,5,0,None,,,f,1.6374414999991131,None,,,,,,,0,5,5,6,,,,,80.52356370000052,,,,,,,,,,,,,,,,,,,,,,,,,,,,,,80.50721730000078,80.52356370000052,81.02352670000073,81.00710310000068,81.01638850000018,81.02352670000073,81.02352670000073,81.02352670000073,84.00700320000033,None,,,84.00850399999945,85.67380279999998,f,84.02348949999941,84.02348949999941,84.02348949999941,84.02348949999941,84.02348949999941,1.6374414999991131,None,,,,,,,,,,,,,,,,,,,,,,,,,,,,,,,,,,,00025,001,2025-11-14_21h47.43.146,MST_task,2024.2.2,59.971381656497606,2025-11-14 21h47.48.271851 +0530,
3,practice_images/037a.jpg,6,6,0,f,2.2892878000002383,0.13851230000000214,None,,,,,,,,,0,6,6,2,,,,,85.69012119999934,,,,,,,,,,,,,,,,,,,,,,,,,,,,,,85.67387570000028,85.69012119999934,86.19011399999908,86.17366779999975,86.18062809999901,86.19011399999908,86.19011399999908,86.19011399999908,89.17360670000016,f,2.2892878000002383,0.13851230000000214,89.17364930000076,89.17366009999932,None,89.19003399999929,89.19003399999929,89.19003399999929,,,,,,,,,,,,,,,,,,,,,,,,,,,,,,,,,,,,,,,00025,001,2025-11-14_21h47.43.146,MST_task,2024.2.2,59.971381656497606,2025-11-14 21h47.48.271851 +0530,
10,practice_images/182a.jpg,7,7,0,f,2.6061829999998736,0.12542519999988144,None,,,,,,,,,0,7,7,9,,,,,89.19003399999929,,,,,,,,,,,,,,,,,,,,,,,,,,,,,,89.1737221000003,89.19003399999929,89.69000369999958,89.67353829999956,89.68011809999916,89.69000369999958,89.69000369999958,89.69000369999958,92.67358029999923,f,2.6061829999998736,0.12542519999988144,92.67361589999928,92.67362560000038,None,92.68999500000064,92.68999500000064,92.68999500000064,,,,,,,,,,,,,,,,,,,,,,,,,,,,,,,,,,,,,,,00025,001,2025-11-14_21h47.43.146,MST_task,2024.2.2,59.971381656497606,2025-11-14 21h47.48.271851 +0530,
9,practice_images/180a.jpg,8,8,0,j,0.9617885999996361,0.13424579999991693,None,,,,,,,,,0,8,8,8,,,,,92.68999500000064,,,,,,,,,,,,,,,,,,,,,,,,,,,,,,92.67368379999971,92.68999500000064,93.18994240000029,93.17355279999902,93.18030120000003,93.18994240000029,93.18994240000029,93.18994240000029,96.17344400000002,j,0.9617885999996361,0.13424579999991693,96.1734747999999,96.17348350000066,None,96.18989429999965,96.18989429999965,96.18989429999965,,,,,,,,,,,,,,,,,,,,,,,,,,,,,,,,,,,,,,,00025,001,2025-11-14_21h47.43.146,MST_task,2024.2.2,59.971381656497606,2025-11-14 21h47.48.271851 +0530,
5,practice_images/139a.jpg,9,9,0,None,,,j,0.36210510000091745,None,,,,,,,0,9,9,4,,,,,96.18989429999965,,,,,,,,,,,,,,,,,,,,,,,,,,,,,,96.1735334999994,96.18989429999965,96.68995360000008,96.67342269999972,96.68010409999988,96.68995360000008,96.68995360000008,96.68995360000008,99.67341560000023,None,,,99.67345240000031,100.05680729999949,j,99.68981859999985,99.68981859999985,99.68981859999985,99.68981859999985,99.68981859999985,0.36210510000091745,None,,,,,,,,,,,,,,,,,,,,,,,,,,,,,,,,,,,00025,001,2025-11-14_21h47.43.146,MST_task,2024.2.2,59.971381656497606,2025-11-14 21h47.48.271851 +0530,
,,,,,,,,,,,,,,,,,,,,,,,,,,,,,,,,,,,,,,,,,,,,,,,,,,,,,,,,,,,,,,,,,,,,,,,,,,,,,100.05686360000072,100.07316840000021,100.07316840000021,149.67250590000003,space,49.5906599000009,None,,,,,,,,,,,,,,,,,,,,,,,,,,,,00025,001,2025-11-14_21h47.43.146,MST_task,2024.2.2,59.971381656497606,2025-11-14 21h47.48.271851 +0530,
,Objects\015a.jpg,0,0,0,,,,,,,f,1.4341758000009577,0.1241890000001149,None,,,,,,,0,0,0,0,149.6887329000001,,,,,,,,,,,,,,,,,,,,,,,,,,,,,,149.67311840000002,149.6887329000001,150.2055763999997,150.17226780000055,,,,,,,,,,,,,,,,,,,,,,,,,,150.1872633999992,150.2055763999997,150.2055763999997,150.2055763999997,153.18872249999913,f,1.4341758000009577,0.1241890000001149,153.19089499999973,153.1909083999999,None,,,,,,,,,,,,,,,,,00025,001,2025-11-14_21h47.43.146,MST_task,2024.2.2,59.971381656497606,2025-11-14 21h47.48.271851 +0530,
,Objects\056a.jpg,1,0,1,,,,,,,f,1.5630220000002737,0.14149539999925764,None,,,,,,,1,0,1,0,153.2053481999992,,,,,,,,,,,,,,,,,,,,,,,,,,,,,,153.19098929999927,153.2053481999992,153.70532289999937,153.68897760000073,,,,,,,,,,,,,,,,,,,,,,,,,,153.69719070000065,153.70532289999937,153.70532289999937,153.70532289999937,156.68886369999927,f,1.5630220000002737,0.14149539999925764,156.68889780000063,156.68890699999974,None,156.70526889999928,156.70526889999928,156.70526889999928,,,,,,,,,,,,,,00025,001,2025-11-14_21h47.43.146,MST_task,2024.2.2,59.971381656497606,2025-11-14 21h47.48.271851 +0530,
,Objects\100a.jpg,2,0,2,,,,,,,f,0.7432250000001659,0.15745379999862053,None,,,,,,,2,0,2,0,156.70526889999928,,,,,,,,,,,,,,,,,,,,,,,,,,,,,,156.68896119999954,156.70526889999928,157.20523230000072,157.1888715999994,,,,,,,,,,,,,,,,,,,,,,,,,,157.19680139999946,157.20523230000072,157.20523230000072,157.20523230000072,160.18877950000024,f,0.7432250000001659,0.15745379999862053,160.18881580000016,160.18882590000067,None,160.20518190000075,160.20518190000075,160.20518190000075,,,,,,,,,,,,,,00025,001,2025-11-14_21h47.43.146,MST_task,2024.2.2,59.971381656497606,2025-11-14 21h47.48.271851 +0530,
,Objects\038a.jpg,3,0,3,,,,,,,f,0.8052361999998539,0.1332337000003463,None,,,,,,,3,0,3,0,160.20518190000075,,,,,,,,,,,,,,,,,,,,,,,,,,,,,,160.1888837000006,160.20518190000075,160.70513779999965,160.68866659999912,,,,,,,,,,,,,,,,,,,,,,,,,,160.69621949999964,160.70513779999965,160.70513779999965,160.70513779999965,163.6887301000006,f,0.8052361999998539,0.1332337000003463,163.68876799999998,163.6887783000002,None,163.70511169999918,163.70511169999918,163.70511169999918,,,,,,,,,,,,,,00025,001,2025-11-14_21h47.43.146,MST_task,2024.2.2,59.971381656497606,2025-11-14 21h47.48.271851 +0530,
,Objects\019a.jpg,4,0,4,,,,,,,j,2.2912596999995003,0.1295004000003246,None,,,,,,,4,0,4,0,163.70511169999918,,,,,,,,,,,,,,,,,,,,,,,,,,,,,,163.68886550000025,163.70511169999918,164.20512190000045,164.18857890000072,,,,,,,,,,,,,,,,,,,,,,,,,,164.19600809999974,164.20512190000045,164.20512190000045,164.20512190000045,167.18857539999954,j,2.2912596999995003,0.1295004000003246,167.18860719999975,167.18861619999916,None,167.20503559999997,167.20503559999997,167.20503559999997,,,,,,,,,,,,,,00025,001,2025-11-14_21h47.43.146,MST_task,2024.2.2,59.971381656497606,2025-11-14 21h47.48.271851 +0530,
,Objects\153a.jpg,5,0,5,,,,,,,f,1.0443878999994922,0.12324830000034126,None,,,,,,,5,0,5,0,167.20503559999997,,,,,,,,,,,,,,,,,,,,,,,,,,,,,,167.18866979999984,167.20503559999997,167.70504889999938,167.68859109999903,,,,,,,,,,,,,,,,,,,,,,,,,,167.69647430000077,167.70504889999938,167.70504889999938,167.70504889999938,170.6886140000006,f,1.0443878999994922,0.12324830000034126,170.6886488,170.6886582999996,None,170.70495049999954,170.70495049999954,170.70495049999954,,,,,,,,,,,,,,00025,001,2025-11-14_21h47.43.146,MST_task,2024.2.2,59.971381656497606,2025-11-14 21h47.48.271851 +0530,
,Objects\183a.jpg,6,0,6,,,,,,,j,0.7188709000001836,0.10382460000073479,None,,,,,,,6,0,6,0,170.70495049999954,,,,,,,,,,,,,,,,,,,,,,,,,,,,,,170.68871149999904,170.70495049999954,171.20495579999988,171.18844739999986,,,,,,,,,,,,,,,,,,,,,,,,,,171.1963577000006,171.20495579999988,171.20495579999988,171.20495579999988,174.1884184999999,j,0.7188709000001836,0.10382460000073479,174.18845239999973,174.1884618999993,None,174.20487970000067,174.20487970000067,174.20487970000067,,,,,,,,,,,,,,00025,001,2025-11-14_21h47.43.146,MST_task,2024.2.2,59.971381656497606,2025-11-14 21h47.48.271851 +0530,
,Scenes\182a.jpg,7,0,7,,,,,,,j,1.884095299999899,0.16995369999858667,None,,,,,,,7,0,7,0,174.20487970000067,,,,,,,,,,,,,,,,,,,,,,,,,,,,,,174.18853820000004,174.20487970000067,174.72183330000007,174.68847499999902,,,,,,,,,,,,,,,,,,,,,,,,,,174.70703949999915,174.72183330000007,174.72183330000007,174.72183330000007,177.70496280000043,j,1.884095299999899,0.16995369999858667,177.70619609999994,177.7062076000002,None,,,,,,,,,,,,,,,,,00025,001,2025-11-14_21h47.43.146,MST_task,2024.2.2,59.971381656497606,2025-11-14 21h47.48.271851 +0530,
,Scenes\136a.jpg,8,0,8,,,,,,,f,1.6053998000006686,0.13582489999862446,None,,,,,,,8,0,8,0,177.7214423000005,,,,,,,,,,,,,,,,,,,,,,,,,,,,,,177.70626559999982,177.7214423000005,178.23814069999935,178.2049594,,,,,,,,,,,,,,,,,,,,,,,,,,178.221348699999,178.23814069999935,178.23814069999935,178.23814069999935,181.22140059999947,f,1.6053998000006686,0.13582489999862446,181.2214411999994,181.2214507000008,None,,,,,,,,,,,,,,,,,00025,001,2025-11-14_21h47.43.146,MST_task,2024.2.2,59.971381656497606,2025-11-14 21h47.48.271851 +0530,
,Scenes\184a.jpg,9,0,9,,,,,,,j,1.283582000000024,0.1540322999990167,None,,,,,,,9,0,9,0,181.2380618999996,,,,,,,,,,,,,,,,,,,,,,,,,,,,,,181.22156369999902,181.2380618999996,181.75469770000018,181.7217299999993,,,,,,,,,,,,,,,,,,,,,,,,,,181.73820949999936,181.75469770000018,181.75469770000018,181.75469770000018,184.7380219000006,j,1.283582000000024,0.1540322999990167,184.73806850000074,184.73807809999926,None,,,,,,,,,,,,,,,,,00025,001,2025-11-14_21h47.43.146,MST_task,2024.2.2,59.971381656497606,2025-11-14 21h47.48.271851 +0530,
,Scenes\043a.jpg,10,0,10,,,,,,,j,1.4363962999996147,0.12805740000112564,None,,,,,,,10,0,10,0,184.75465110000005,,,,,,,,,,,,,,,,,,,,,,,,,,,,,,184.73813770000015,184.75465110000005,185.27127819999987,185.23818989999927,,,,,,,,,,,,,,,,,,,,,,,,,,185.25809900000058,185.27127819999987,185.27127819999987,185.27127819999987,188.25458179999987,j,1.4363962999996147,0.12805740000112564,188.2546155,188.25462460000017,None,,,,,,,,,,,,,,,,,00025,001,2025-11-14_21h47.43.146,MST_task,2024.2.2,59.971381656497606,2025-11-14 21h47.48.271851 +0530,
,Scenes\115a.jpg,11,0,11,,,,,,,j,1.4896159999989322,0.14676800000052026,None,,,,,,,11,0,11,0,188.27124019999974,,,,,,,,,,,,,,,,,,,,,,,,,,,,,,188.25470700000005,188.27124019999974,188.78786799999943,188.7548100999993,,,,,,,,,,,,,,,,,,,,,,,,,,188.7667354999994,188.78786799999943,188.78786799999943,188.78786799999943,191.77119820000007,j,1.4896159999989322,0.14676800000052026,191.7712487000008,191.77126040000076,None,,,,,,,,,,,,,,,,,00025,001,2025-11-14_21h47.43.146,MST_task,2024.2.2,59.971381656497606,2025-11-14 21h47.48.271851 +0530,
,Scenes\125a.jpg,12,0,12,,,,,,,j,1.1752926000008301,0.1284627000004548,None,,,,,,,12,0,12,0,191.78783850000036,,,,,,,,,,,,,,,,,,,,,,,,,,,,,,191.77133350000076,191.78783850000036,192.30445809999947,192.2714237,,,,,,,,,,,,,,,,,,,,,,,,,,192.28489400000035,192.30445809999947,192.30445809999947,192.30445809999947,195.28776610000023,j,1.1752926000008301,0.1284627000004548,195.28780329999972,195.28781270000036,None,,,,,,,,,,,,,,,,,00025,001,2025-11-14_21h47.43.146,MST_task,2024.2.2,59.971381656497606,2025-11-14 21h47.48.271851 +0530,
,Scenes\097a.jpg,13,0,13,,,,,,,f,0.7508983000006992,0.14565029999903345,None,,,,,,,13,0,13,0,195.30438139999933,,,,,,,,,,,,,,,,,,,,,,,,,,,,,,195.28790970000045,195.30438139999933,195.8212968000007,195.78796449999936,,,,,,,,,,,,,,,,,,,,,,,,,,195.80537449999974,195.8212968000007,195.8212968000007,195.8212968000007,198.80437960000017,f,0.7508983000006992,0.14565029999903345,198.80442699999912,198.80443679999917,None,,,,,,,,,,,,,,,,,00025,001,2025-11-14_21h47.43.146,MST_task,2024.2.2,59.971381656497606,2025-11-14 21h47.48.271851 +0530,
,Objects\169a.jpg,14,0,14,,,,,,,f,2.218885500000397,0.1545836999994208,None,,,,,,,14,0,14,0,198.82098489999953,,,,,,,,,,,,,,,,,,,,,,,,,,,,,,198.8045246999991,198.82098489999953,199.33790659999977,199.30456360000062,,,,,,,,,,,,,,,,,,,,,,,,,,199.32392380000056,199.33790659999977,199.33790659999977,199.33790659999977,202.3209554999994,f,2.218885500000397,0.1545836999994208,202.32247540000026,202.3224869000005,None,,,,,,,,,,,,,,,,,00025,001,2025-11-14_21h47.43.146,MST_task,2024.2.2,59.971381656497606,2025-11-14 21h47.48.271851 +0530,
,Objects\155a.jpg,15,0,15,,,,,,,f,0.7966680000008637,0.1284773999996105,None,,,,,,,15,0,15,0,202.33759610000016,,,,,,,,,,,,,,,,,,,,,,,,,,,,,,202.32254300000022,202.33759610000016,202.85423009999977,202.8211484000003,,,,,,,,,,,,,,,,,,,,,,,,,,202.83778969999912,202.85423009999977,202.85423009999977,202.85423009999977,205.83753249999972,f,0.7966680000008637,0.1284773999996105,205.8375675999996,205.83757689999948,None,,,,,,,,,,,,,,,,,00025,001,2025-11-14_21h47.43.146,MST_task,2024.2.2,59.971381656497606,2025-11-14 21h47.48.271851 +0530,
,Objects\090a.jpg,16,0,16,,,,,,,f,1.5701898999996047,0.11906339999950433,None,,,,,,,16,0,16,0,205.85422540000036,,,,,,,,,,,,,,,,,,,,,,,,,,,,,,205.83766020000076,205.85422540000036,,206.33767479999915,,,,,,,,,,,,,,,,,,,,,,,,,,206.3548451000006,206.37082399999963,206.37082399999963,206.37082399999963,209.3541552000006,f,1.5701898999996047,0.11906339999950433,209.35418989999926,209.35419879999972,None,,,,,,,,,,,,,,,,,00025,001,2025-11-14_21h47.43.146,MST_task,2024.2.2,59.971381656497606,2025-11-14 21h47.48.271851 +0530,
,Objects\079a.jpg,17,0,17,,,,,,,j,0.9555373999992298,0.13493630000084522,None,,,,,,,17,0,17,0,209.3707940000004,,,,,,,,,,,,,,,,,,,,,,,,,,,,,,209.35427189999973,209.3707940000004,209.88744659999975,209.85437479999928,,,,,,,,,,,,,,,,,,,,,,,,,,209.87055689999943,209.88744659999975,209.88744659999975,209.88744659999975,212.87072219999936,j,0.9555373999992298,0.13493630000084522,212.87076949999937,212.8707789,None,,,,,,,,,,,,,,,,,00025,001,2025-11-14_21h47.43.146,MST_task,2024.2.2,59.971381656497606,2025-11-14 21h47.48.271851 +0530,
,Objects\055a.jpg,18,0,18,,,,,,,f,0.6177918000012141,0.1502344999989873,None,,,,,,,18,0,18,0,212.88737980000042,,,,,,,,,,,,,,,,,,,,,,,,,,,,,,212.87086799999997,212.88737980000042,213.4040339000003,213.3709390999993,,,,,,,,,,,,,,,,,,,,,,,,,,213.38616999999977,213.4040339000003,213.4040339000003,213.4040339000003,216.38732619999973,f,0.6177918000012141,0.1502344999989873,216.3873612999996,216.38737089999995,None,,,,,,,,,,,,,,,,,00025,001,2025-11-14_21h47.43.146,MST_task,2024.2.2,59.971381656497606,2025-11-14 21h47.48.271851 +0530,
,Objects\078a.jpg,19,0,19,,,,,,,f,1.077246799999557,0.13832840000031865,None,,,,,,,19,0,19,0,216.4039709000008,,,,,,,,,,,,,,,,,,,,,,,,,,,,,,216.38743149999937,216.4039709000008,216.92062729999998,216.88759980000032,,,,,,,,,,,,,,,,,,,,,,,,,,216.90347610000026,216.92062729999998,216.92062729999998,216.92062729999998,219.90389460000006,f,1.077246799999557,0.13832840000031865,219.90393659999972,219.903946299999,None,,,,,,,,,,,,,,,,,00025,001,2025-11-14_21h47.43.146,MST_task,2024.2.2,59.971381656497606,2025-11-14 21h47.48.271851 +0530,
,Objects\025a.jpg,20,0,20,,,,,,,j,1.1623230000004696,0.17000759999973525,None,,,,,,,20,0,20,0,219.92055939999955,,,,,,,,,,,,,,,,,,,,,,,,,,,,,,219.90400489999956,219.92055939999955,220.4372629999998,220.40411459999996,,,,,,,,,,,,,,,,,,,,,,,,,,220.4197977999993,220.4372629999998,220.4372629999998,220.4372629999998,223.42061880000074,j,1.1623230000004696,0.17000759999973525,223.42066159999922,223.42067169999973,None,,,,,,,,,,,,,,,,,00025,001,2025-11-14_21h47.43.146,MST_task,2024.2.2,59.971381656497606,2025-11-14 21h47.48.271851 +0530,
,Scenes\013a.jpg,21,0,21,,,,,,,j,1.2779038999997283,0.15778289999980188,None,,,,,,,21,0,21,0,223.43714630000068,,,,,,,,,,,,,,,,,,,,,,,,,,,,,,223.42077880000033,223.43714630000068,223.95411969999986,223.92068169999948,,,,,,,,,,,,,,,,,,,,,,,,,,223.94068750000042,223.95411969999986,223.95411969999986,223.95411969999986,226.93725919999997,j,1.2779038999997283,0.15778289999980188,226.93843329999982,226.93844440000066,None,,,,,,,,,,,,,,,,,00025,001,2025-11-14_21h47.43.146,MST_task,2024.2.2,59.971381656497606,2025-11-14 21h47.48.271851 +0530,
,Scenes\112a.jpg,22,0,22,,,,,,,j,0.8718269000000873,0.1418152000005648,None,,,,,,,22,0,22,0,226.9537409000004,,,,,,,,,,,,,,,,,,,,,,,,,,,,,,226.93853130000025,226.9537409000004,227.4706272000003,227.43723110000064,,,,,,,,,,,,,,,,,,,,,,,,,,227.45524660000046,227.4706272000003,227.4706272000003,227.4706272000003,230.45370489999914,j,0.8718269000000873,0.1418152000005648,230.45375149999927,230.45376129999931,None,,,,,,,,,,,,,,,,,00025,001,2025-11-14_21h47.43.146,MST_task,2024.2.2,59.971381656497606,2025-11-14 21h47.48.271851 +0530,
,Scenes\172a.jpg,23,0,23,,,,,,,j,0.7278344000005745,0.10757790000025125,None,,,,,,,23,0,23,0,230.4702914999998,,,,,,,,,,,,,,,,,,,,,,,,,,,,,,230.45382079999945,230.4702914999998,230.9869789000004,230.9539917000002,,,,,,,,,,,,,,,,,,,,,,,,,,230.9701556,230.9869789000004,230.9869789000004,230.9869789000004,233.97036990000015,j,0.7278344000005745,0.10757790000025125,233.97040670000024,233.97041680000075,None,,,,,,,,,,,,,,,,,00025,001,2025-11-14_21h47.43.146,MST_task,2024.2.2,59.971381656497606,2025-11-14 21h47.48.271851 +0530,
,Scenes\055a.jpg,24,0,24,,,,,,,j,0.9808268999986467,0.12513310000031197,None,,,,,,,24,0,24,0,233.98692370000026,,,,,,,,,,,,,,,,,,,,,,,,,,,,,,233.97048220000033,233.98692370000026,234.50355259999924,234.47036449999905,,,,,,,,,,,,,,,,,,,,,,,,,,234.48827920000076,234.50355259999924,234.50355259999924,234.50355259999924,237.48690729999907,j,0.9808268999986467,0.12513310000031197,237.48694699999942,237.48695769999904,None,,,,,,,,,,,,,,,,,00025,001,2025-11-14_21h47.43.146,MST_task,2024.2.2,59.971381656497606,2025-11-14 21h47.48.271851 +0530,
,Scenes\141a.jpg,25,0,25,,,,,,,j,0.991674900000362,0.12251800000012736,None,,,,,,,25,0,25,0,237.50351609999962,,,,,,,,,,,,,,,,,,,,,,,,,,,,,,237.48702400000002,237.50351609999962,238.0201460999997,237.98717439999928,,,,,,,,,,,,,,,,,,,,,,,,,,238.0031244999991,238.0201460999997,238.0201460999997,238.0201460999997,241.00349049999932,j,0.991674900000362,0.12251800000012736,241.0036602,241.00367259999985,None,,,,,,,,,,,,,,,,,00025,001,2025-11-14_21h47.43.146,MST_task,2024.2.2,59.971381656497606,2025-11-14 21h47.48.271851 +0530,
,Scenes\073a.jpg,26,0,26,,,,,,,j,1.1010655000009137,0.12391759999991336,None,,,,,,,26,0,26,0,241.02011250000032,,,,,,,,,,,,,,,,,,,,,,,,,,,,,,241.00377169999956,241.02011250000032,241.53685910000058,241.5036211000006,,,,,,,,,,,,,,,,,,,,,,,,,,241.5198259000008,241.53685910000058,241.53685910000058,241.53685910000058,244.52011590000075,j,1.1010655000009137,0.12391759999991336,244.52015269999902,244.5201622000004,None,,,,,,,,,,,,,,,,,00025,001,2025-11-14_21h47.43.146,MST_task,2024.2.2,59.971381656497606,2025-11-14 21h47.48.271851 +0530,
,Scenes\171a.jpg,27,0,27,,,,,,,f,1.0177756999983103,0.12713720000101603,None,,,,,,,27,0,27,0,244.53670330000023,,,,,,,,,,,,,,,,,,,,,,,,,,,,,,244.52024849999907,244.53670330000023,245.05378539999947,245.0202258999998,,,,,,,,,,,,,,,,,,,,,,,,,,245.04286709999906,245.05378539999947,245.05378539999947,245.05378539999947,248.03666739999971,f,1.0177756999983103,0.12713720000101603,248.0367310999991,248.0367413999993,None,,,,,,,,,,,,,,,,,00025,001,2025-11-14_21h47.43.146,MST_task,2024.2.2,59.971381656497606,2025-11-14 21h47.48.271851 +0530,
,Objects\059a.jpg,28,0,28,,,,,,,j,1.8761630000008154,0.13306109999939508,None,,,,,,,28,0,28,0,248.05329639999945,,,,,,,,,,,,,,,,,,,,,,,,,,,,,,248.03683549999914,248.05329639999945,248.57026079999923,248.53688839999995,,,,,,,,,,,,,,,,,,,,,,,,,,248.55471469999975,248.57026079999923,248.57026079999923,248.57026079999923,251.55324830000063,j,1.8761630000008154,0.13306109999939508,251.5547305,251.5547430000006,None,,,,,,,,,,,,,,,,,00025,001,2025-11-14_21h47.43.146,MST_task,2024.2.2,59.971381656497606,2025-11-14 21h47.48.271851 +0530,
,Objects\051a.jpg,29,0,29,,,,,,,f,1.2510929000000033,0.15033549999861862,None,,,,,,,29,0,29,0,251.56986750000033,,,,,,,,,,,,,,,,,,,,,,,,,,,,,,251.55482630000006,251.56986750000033,252.0865761999994,252.05339129999993,,,,,,,,,,,,,,,,,,,,,,,,,,252.0686886000003,252.0865761999994,252.0865761999994,252.0865761999994,255.06987329999902,f,1.2510929000000033,0.15033549999861862,255.06990810000025,255.0699177000006,None,,,,,,,,,,,,,,,,,00025,001,2025-11-14_21h47.43.146,MST_task,2024.2.2,59.971381656497606,2025-11-14 21h47.48.271851 +0530,
,Objects\174a.jpg,30,0,30,,,,,,,f,1.7249942000016745,0.13950339999973949,None,,,,,,,30,0,30,0,255.08647139999994,,,,,,,,,,,,,,,,,,,,,,,,,,,,,,255.06997690000026,255.08647139999994,255.6030914999992,255.56996199999958,,,,,,,,,,,,,,,,,,,,,,,,,,255.58565669999916,255.6030914999992,255.6030914999992,255.6030914999992,258.58655589999944,f,1.7249942000016745,0.13950339999973949,258.5865962000007,258.5866059,None,,,,,,,,,,,,,,,,,00025,001,2025-11-14_21h47.43.146,MST_task,2024.2.2,59.971381656497606,2025-11-14 21h47.48.271851 +0530,
,Objects\054a.jpg,31,0,31,,,,,,,j,1.5477267000005668,0.11275749999913387,None,,,,,,,31,0,31,0,258.6030245999991,,,,,,,,,,,,,,,,,,,,,,,,,,,,,,258.5866977000005,258.6030245999991,259.1196918000005,259.08654279999973,,,,,,,,,,,,,,,,,,,,,,,,,,259.1039574000006,259.1196918000005,259.1196918000005,259.1196918000005,262.1030382000008,j,1.5477267000005668,0.11275749999913387,262.1030752000006,262.10308559999976,None,,,,,,,,,,,,,,,,,00025,001,2025-11-14_21h47.43.146,MST_task,2024.2.2,59.971381656497606,2025-11-14 21h47.48.271851 +0530,
,Objects\105a.jpg,32,0,32,,,,,,,f,1.3759196000009979,0.14592139999876963,None,,,,,,,32,0,32,0,262.1196209999998,,,,,,,,,,,,,,,,,,,,,,,,,,,,,,262.10317120000036,262.1196209999998,262.63627930000075,262.6032417000006,,,,,,,,,,,,,,,,,,,,,,,,,,262.62031600000046,262.63627930000075,262.63627930000075,262.63627930000075,265.61959690000003,f,1.3759196000009979,0.14592139999876963,265.61964869999974,265.6196583000001,None,,,,,,,,,,,,,,,,,00025,001,2025-11-14_21h47.43.146,MST_task,2024.2.2,59.971381656497606,2025-11-14 21h47.48.271851 +0530,
,Objects\101a.jpg,33,0,33,,,,,,,j,1.9186756999988575,0.12589220000154455,None,,,,,,,33,0,33,0,265.6362405,,,,,,,,,,,,,,,,,,,,,,,,,,,,,,265.6197188999995,265.6362405,266.15291889999935,266.11978629999976,,,,,,,,,,,,,,,,,,,,,,,,,,266.13527109999995,266.15291889999935,266.15291889999935,266.15291889999935,269.1362061,j,1.9186756999988575,0.12589220000154455,269.1362446999992,269.13625499999944,None,,,,,,,,,,,,,,,,,00025,001,2025-11-14_21h47.43.146,MST_task,2024.2.2,59.971381656497606,2025-11-14 21h47.48.271851 +0530,
,Objects\034a.jpg,34,0,34,,,,,,,f,2.150241499999538,0.14024120000067342,None,,,,,,,34,0,34,0,269.1528268999991,,,,,,,,,,,,,,,,,,,,,,,,,,,,,,269.1363182999994,269.1528268999991,,269.6363263000003,,,,,,,,,,,,,,,,,,,,,,,,,,269.65335009999944,269.66948930000035,269.66948930000035,269.66948930000035,272.6527798999996,f,2.150241499999538,0.14024120000067342,272.65284149999934,272.65286039999955,None,,,,,,,,,,,,,,,,,00025,001,2025-11-14_21h47.43.146,MST_task,2024.2.2,59.971381656497606,2025-11-14 21h47.48.271851 +0530,
,Scenes\045a.jpg,35,0,35,,,,,,,j,0.899924800000008,0.13030439999965893,None,,,,,,,35,0,35,0,272.6694299999999,,,,,,,,,,,,,,,,,,,,,,,,,,,,,,272.6529647999996,272.6694299999999,273.1863271000002,273.1530447999994,,,,,,,,,,,,,,,,,,,,,,,,,,273.1765185000004,273.1863271000002,273.1863271000002,273.1863271000002,276.1694167000005,j,0.899924800000008,0.13030439999965893,276.1708302999996,276.17084219999924,None,,,,,,,,,,,,,,,,,00025,001,2025-11-14_21h47.43.146,MST_task,2024.2.2,59.971381656497606,2025-11-14 21h47.48.271851 +0530,
,Scenes\066a.jpg,36,0,36,,,,,,,j,1.0371226000006573,0.13338369999837596,None,,,,,,,36,0,36,0,276.18602479999936,,,,,,,,,,,,,,,,,,,,,,,,,,,,,,276.1708985000005,276.18602479999936,276.7029849999999,276.6696396999996,,,,,,,,,,,,,,,,,,,,,,,,,,276.68792360000043,276.7029849999999,276.7029849999999,276.7029849999999,279.68599320000067,j,1.0371226000006573,0.13338369999837596,279.6860274999999,279.6860371999992,None,,,,,,,,,,,,,,,,,00025,001,2025-11-14_21h47.43.146,MST_task,2024.2.2,59.971381656497606,2025-11-14 21h47.48.271851 +0530,
,Scenes\018a.jpg,37,0,37,,,,,,,f,2.3906575000000885,0.1218563999991602,None,,,,,,,37,0,37,0,279.7026036999996,,,,,,,,,,,,,,,,,,,,,,,,,,,,,,279.6861363000007,279.7026036999996,280.21954299999925,280.1861976,,,,,,,,,,,,,,,,,,,,,,,,,,280.201952899999,280.21954299999925,280.21954299999925,280.21954299999925,283.20257649999985,f,2.3906575000000885,0.1218563999991602,283.2026098999995,283.2026231,None,,,,,,,,,,,,,,,,,00025,001,2025-11-14_21h47.43.146,MST_task,2024.2.2,59.971381656497606,2025-11-14 21h47.48.271851 +0530,
,Scenes\004a.jpg,38,0,38,,,,,,,j,0.9556296999999176,0.11794360000021697,None,,,,,,,38,0,38,0,283.2191934000002,,,,,,,,,,,,,,,,,,,,,,,,,,,,,,283.2026819999992,283.2191934000002,,283.7026618,,,,,,,,,,,,,,,,,,,,,,,,,,283.7214301999993,283.7358268000007,283.7358268000007,283.7358268000007,286.71928300000036,j,0.9556296999999176,0.11794360000021697,286.71932410000045,286.71933460000037,None,,,,,,,,,,,,,,,,,00025,001,2025-11-14_21h47.43.146,MST_task,2024.2.2,59.971381656497606,2025-11-14 21h47.48.271851 +0530,
,Scenes\162a.jpg,39,0,39,,,,,,,j,1.1315452999988338,0.1102007000008598,None,,,,,,,39,0,39,0,286.7357867999999,,,,,,,,,,,,,,,,,,,,,,,,,,,,,,286.7194318999991,286.7357867999999,287.25248009999996,287.21937629999957,,,,,,,,,,,,,,,,,,,,,,,,,,287.2350447000008,287.25248009999996,287.25248009999996,287.25248009999996,290.2357252999991,j,1.1315452999988338,0.1102007000008598,290.2357728999996,290.2357826000007,None,,,,,,,,,,,,,,,,,00025,001,2025-11-14_21h47.43.146,MST_task,2024.2.2,59.971381656497606,2025-11-14 21h47.48.271851 +0530,
,Scenes\186a.jpg,40,0,40,,,,,,,j,1.227311100001316,0.1339797999989969,None,,,,,,,40,0,40,0,290.2523492,,,,,,,,,,,,,,,,,,,,,,,,,,,,,,290.23587249999946,290.2523492,,290.73585730000013,,,,,,,,,,,,,,,,,,,,,,,,,,290.75138530000004,290.7692274000001,290.7692274000001,290.7692274000001,293.7524701000002,j,1.227311100001316,0.1339797999989969,293.7525050000004,293.75251709999975,None,,,,,,,,,,,,,,,,,00025,001,2025-11-14_21h47.43.146,MST_task,2024.2.2,59.971381656497606,2025-11-14 21h47.48.271851 +0530,
,Scenes\150a.jpg,41,0,41,,,,,,,j,0.9603690999992978,0.1215678000007756,None,,,,,,,41,0,41,0,293.76896209999904,,,,,,,,,,,,,,,,,,,,,,,,,,,,,,293.7525762999994,293.76896209999904,294.2855975000002,294.25251899999967,,,,,,,,,,,,,,,,,,,,,,,,,,294.2700019999993,294.2855975000002,294.2855975000002,294.2855975000002,297.2689317000004,j,0.9603690999992978,0.1215678000007756,297.26896660000057,297.26897610000015,None,,,,,,,,,,,,,,,,,00025,001,2025-11-14_21h47.43.146,MST_task,2024.2.2,59.971381656497606,2025-11-14 21h47.48.271851 +0530,
,Objects\129a.jpg,42,0,42,,,,,,,f,1.7594000000008236,0.1499742999985756,None,,,,,,,42,0,42,0,297.28552219999983,,,,,,,,,,,,,,,,,,,,,,,,,,,,,,297.2690614000003,297.28552219999983,297.8024189000007,297.76905049999914,,,,,,,,,,,,,,,,,,,,,,,,,,297.7873063999996,297.8024189000007,297.8024189000007,297.8024189000007,300.78555310000047,f,1.7594000000008236,0.1499742999985756,300.7870820999997,300.78709419999905,None,,,,,,,,,,,,,,,,,00025,001,2025-11-14_21h47.43.146,MST_task,2024.2.2,59.971381656497606,2025-11-14 21h47.48.271851 +0530,
,Objects\052a.jpg,43,0,43,,,,,,,f,0.7869863999985682,0.11424070000066422,None,,,,,,,43,0,43,0,300.8021334999994,,,,,,,,,,,,,,,,,,,,,,,,,,,,,,300.7871775000003,300.8021334999994,301.3187847999998,301.2855932000002,,,,,,,,,,,,,,,,,,,,,,,,,,301.3013405999991,301.3187847999998,301.3187847999998,301.3187847999998,304.30208719999973,f,0.7869863999985682,0.11424070000066422,304.30213189999995,304.3021413999995,None,,,,,,,,,,,,,,,,,00025,001,2025-11-14_21h47.43.146,MST_task,2024.2.2,59.971381656497606,2025-11-14 21h47.48.271851 +0530,
,Objects\192a.jpg,44,0,44,,,,,,,j,1.4344099999998434,0.1579143999988446,None,,,,,,,44,0,44,0,304.31874140000036,,,,,,,,,,,,,,,,,,,,,,,,,,,,,,304.3022001999998,304.31874140000036,304.83542019999913,304.80230370000027,,,,,,,,,,,,,,,,,,,,,,,,,,304.81831260000035,304.83542019999913,304.83542019999913,304.83542019999913,307.8186982999996,j,1.4344099999998434,0.1579143999988446,307.81873219999943,307.818741699999,None,,,,,,,,,,,,,,,,,00025,001,2025-11-14_21h47.43.146,MST_task,2024.2.2,59.971381656497606,2025-11-14 21h47.48.271851 +0530,
,Objects\050a.jpg,45,0,45,,,,,,,None,,,f,1.6700180000007094,None,,,,,45,0,45,0,307.83534099999997,,,,,,,,,,,,,,,,,,,,,,,,,,,,,,307.81879819999995,307.83534099999997,308.3519847999996,308.31889860000047,,,,,,,,,,,,,,,,,,,,,,,,,,308.33446879999974,308.3519847999996,308.3519847999996,308.3519847999996,311.33542579999994,None,,,311.3354853000001,313.0355244000002,f,,,,311.35193059999983,311.35193059999983,1.6700180000007094,None,,,,,,,,,,00025,001,2025-11-14_21h47.43.146,MST_task,2024.2.2,59.971381656497606,2025-11-14 21h47.48.271851 +0530,
,Objects\071a.jpg,46,0,46,,,,,,,j,1.085628099999667,0.11438880000059726,None,,,,,,,46,0,46,0,313.05189380000047,,,,,,,,,,,,,,,,,,,,,,,,,,,,,,313.0356018000002,313.05189380000047,313.56855200000064,313.5353520999997,,,,,,,,,,,,,,,,,,,,,,,,,,313.55078499999945,313.56855200000064,313.56855200000064,313.56855200000064,316.55189020000034,j,1.085628099999667,0.11438880000059726,316.55192890000035,316.5519385000007,None,,,,,,,,,,,,,,,,,00025,001,2025-11-14_21h47.43.146,MST_task,2024.2.2,59.971381656497606,2025-11-14 21h47.48.271851 +0530,
,Objects\067a.jpg,47,0,47,,,,,,,f,0.9925178000012238,0.15794579999965208,None,,,,,,,47,0,47,0,316.5684777000006,,,,,,,,,,,,,,,,,,,,,,,,,,,,,,316.55202649999956,316.5684777000006,317.0851698000006,317.0519516000004,,,,,,,,,,,,,,,,,,,,,,,,,,317.06776179999906,317.0851698000006,317.0851698000006,317.0851698000006,320.06841709999935,f,0.9925178000012238,0.15794579999965208,320.0684695,320.06847879999987,None,,,,,,,,,,,,,,,,,00025,001,2025-11-14_21h47.43.146,MST_task,2024.2.2,59.971381656497606,2025-11-14 21h47.48.271851 +0530,
,Objects\188a.jpg,48,0,48,,,,,,,f,1.1500701999993908,0.15497189999950933,None,,,,,,,48,0,48,0,320.0851034999996,,,,,,,,,,,,,,,,,,,,,,,,,,,,,,320.06853709999996,320.0851034999996,,320.5685618999996,,,,,,,,,,,,,,,,,,,,,,,,,,320.58601699999963,320.60172710000006,320.60172710000006,320.60172710000006,323.5851313000003,f,1.1500701999993908,0.15497189999950933,323.58519440000055,323.58520320000025,None,,,,,,,,,,,,,,,,,00025,001,2025-11-14_21h47.43.146,MST_task,2024.2.2,59.971381656497606,2025-11-14 21h47.48.271851 +0530,
,Scenes\010a.jpg,49,0,49,,,,,,,j,0.8081082999997307,0.1331454000010126,None,,,,,,,49,0,49,0,323.6016615999997,,,,,,,,,,,,,,,,,,,,,,,,,,,,,,323.58530919999976,323.6016615999997,324.11833859999933,324.08513590000075,,,,,,,,,,,,,,,,,,,,,,,,,,324.1070620999999,324.11833859999933,324.11833859999933,324.11833859999933,327.1016316999994,j,0.8081082999997307,0.1331454000010126,327.10277739999947,327.10278859999926,None,,,,,,,,,,,,,,,,,00025,001,2025-11-14_21h47.43.146,MST_task,2024.2.2,59.971381656497606,2025-11-14 21h47.48.271851 +0530,
,Scenes\146a.jpg,50,0,50,,,,,,,j,0.7449546999996528,0.1142612999992707,None,,,,,,,50,0,50,0,327.11828389999937,,,,,,,,,,,,,,,,,,,,,,,,,,,,,,327.1028771000001,327.11828389999937,327.6349016999993,327.60181159999956,,,,,,,,,,,,,,,,,,,,,,,,,,327.6158407999992,327.6349016999993,327.6349016999993,327.6349016999993,330.6182114000003,j,0.7449546999996528,0.1142612999992707,330.6182585000006,330.6182676999997,None,,,,,,,,,,,,,,,,,00025,001,2025-11-14_21h47.43.146,MST_task,2024.2.2,59.971381656497606,2025-11-14 21h47.48.271851 +0530,
,Scenes\131a.jpg,51,0,51,,,,,,,j,1.0901429999994434,0.1319314000011218,None,,,,,,,51,0,51,0,330.63480490000074,,,,,,,,,,,,,,,,,,,,,,,,,,,,,,330.6183519999995,330.63480490000074,331.15177869999934,331.1184071000007,,,,,,,,,,,,,,,,,,,,,,,,,,331.13577970000006,331.15177869999934,331.15177869999934,331.15177869999934,334.13489370000025,j,1.0901429999994434,0.1319314000011218,334.1349542000007,334.13496420000047,None,,,,,,,,,,,,,,,,,00025,001,2025-11-14_21h47.43.146,MST_task,2024.2.2,59.971381656497606,2025-11-14 21h47.48.271851 +0530,
,Scenes\021a.jpg,52,0,52,,,,,,,j,1.8282416999991256,0.12998900000093272,None,,,,,,,52,0,52,0,334.15143089999947,,,,,,,,,,,,,,,,,,,,,,,,,,,,,,334.13502809999954,334.15143089999947,334.6680577999996,334.63501349999933,,,,,,,,,,,,,,,,,,,,,,,,,,334.6531701999993,334.6680577999996,334.6680577999996,334.6680577999996,337.65144110000074,j,1.8282416999991256,0.12998900000093272,337.6514757999994,337.65148539999973,None,,,,,,,,,,,,,,,,,00025,001,2025-11-14_21h47.43.146,MST_task,2024.2.2,59.971381656497606,2025-11-14 21h47.48.271851 +0530,
,Scenes\020a.jpg,53,0,53,,,,,,,f,1.2695629000008921,0.1495971999993344,None,,,,,,,53,0,53,0,337.6680290000004,,,,,,,,,,,,,,,,,,,,,,,,,,,,,,337.65154280000024,337.6680290000004,,338.15151569999944,,,,,,,,,,,,,,,,,,,,,,,,,,338.1741081,338.1849488000007,338.1849488000007,338.1849488000007,341.16796670000076,f,1.2695629000008921,0.1495971999993344,341.16801850000047,341.1680271000005,None,,,,,,,,,,,,,,,,,00025,001,2025-11-14_21h47.43.146,MST_task,2024.2.2,59.971381656497606,2025-11-14 21h47.48.271851 +0530,
,Scenes\083a.jpg,54,0,54,,,,,,,j,0.8338622999999643,0.13030950000029407,None,,,,,,,54,0,54,0,341.1846146000007,,,,,,,,,,,,,,,,,,,,,,,,,,,,,,341.16811269999926,341.1846146000007,341.70124550000037,341.66811830000006,,,,,,,,,,,,,,,,,,,,,,,,,,341.68547430000035,341.70124550000037,341.70124550000037,341.70124550000037,344.68467299999975,j,0.8338622999999643,0.13030950000029407,344.6847326999996,344.6847422999999,None,,,,,,,,,,,,,,,,,00025,001,2025-11-14_21h47.43.146,MST_task,2024.2.2,59.971381656497606,2025-11-14 21h47.48.271851 +0530,
,Scenes\069a.jpg,55,0,55,,,,,,,j,0.7500197000008484,0.12224889999924926,None,,,,,,,55,0,55,0,344.7011953000001,,,,,,,,,,,,,,,,,,,,,,,,,,,,,,344.6848298999994,344.7011953000001,345.2178621000003,345.1847875000003,,,,,,,,,,,,,,,,,,,,,,,,,,345.2003886000002,345.2178621000003,345.2178621000003,345.2178621000003,348.20116360000065,j,0.7500197000008484,0.12224889999924926,348.2011973999997,348.20120719999977,None,,,,,,,,,,,,,,,,,00025,001,2025-11-14_21h47.43.146,MST_task,2024.2.2,59.971381656497606,2025-11-14 21h47.48.271851 +0530,
,Objects\186a.jpg,56,0,56,,,,,,,f,0.9529834000004485,0.14448079999965557,None,,,,,,,56,0,56,0,348.21780020000006,,,,,,,,,,,,,,,,,,,,,,,,,,,,,,348.2012921000005,348.21780020000006,348.7346808000002,348.70131910000055,,,,,,,,,,,,,,,,,,,,,,,,,,348.71901219999927,348.7346808000002,348.7346808000002,348.7346808000002,351.71779419999984,f,0.9529834000004485,0.14448079999965557,351.7193017999998,351.719313399999,None,,,,,,,,,,,,,,,,,00025,001,2025-11-14_21h47.43.146,MST_task,2024.2.2,59.971381656497606,2025-11-14 21h47.48.271851 +0530,
,Objects\094a.jpg,57,0,57,,,,,,,f,0.7394055999993725,0.17265740000038932,None,,,,,,,57,0,57,0,351.73440759999903,,,,,,,,,,,,,,,,,,,,,,,,,,,,,,351.7193714999994,351.73440759999903,352.2510502999994,352.21799929999906,,,,,,,,,,,,,,,,,,,,,,,,,,352.2335399000003,352.2510502999994,352.2510502999994,352.2510502999994,355.2343471000004,f,0.7394055999993725,0.17265740000038932,355.23438390000047,355.23439300000064,None,,,,,,,,,,,,,,,,,00025,001,2025-11-14_21h47.43.146,MST_task,2024.2.2,59.971381656497606,2025-11-14 21h47.48.271851 +0530,
,Objects\032a.jpg,58,0,58,,,,,,,j,0.7485328999991907,0.13734219999969355,None,,,,,,,58,0,58,0,355.2509776000006,,,,,,,,,,,,,,,,,,,,,,,,,,,,,,355.23447959999976,355.2509776000006,355.7676018000002,355.7344874999999,,,,,,,,,,,,,,,,,,,,,,,,,,355.75075090000064,355.7676018000002,355.7676018000002,355.7676018000002,358.75093670000024,j,0.7485328999991907,0.13734219999969355,358.75096830000075,358.75097749999986,None,,,,,,,,,,,,,,,,,00025,001,2025-11-14_21h47.43.146,MST_task,2024.2.2,59.971381656497606,2025-11-14 21h47.48.271851 +0530,
,Objects\184a.jpg,59,0,59,,,,,,,j,1.817760800000542,0.16253889999825333,None,,,,,,,59,0,59,0,358.76753540000027,,,,,,,,,,,,,,,,,,,,,,,,,,,,,,358.751056699999,358.76753540000027,359.2841993999991,359.2511090000007,,,,,,,,,,,,,,,,,,,,,,,,,,359.2677272000001,359.2841993999991,359.2841993999991,359.2841993999991,362.2675326999997,j,1.817760800000542,0.16253889999825333,362.2675670999997,362.2675775000007,None,,,,,,,,,,,,,,,,,00025,001,2025-11-14_21h47.43.146,MST_task,2024.2.2,59.971381656497606,2025-11-14 21h47.48.271851 +0530,
,Objects\088a.jpg,60,0,60,,,,,,,j,1.277497899998707,0.1022491000003356,None,,,,,,,60,0,60,0,362.28416110000035,,,,,,,,,,,,,,,,,,,,,,,,,,,,,,362.2676618000005,362.28416110000035,362.8007868000004,362.7676021999996,,,,,,,,,,,,,,,,,,,,,,,,,,362.7839569000007,362.8007868000004,362.8007868000004,362.8007868000004,365.7841009999993,j,1.277497899998707,0.1022491000003356,365.7841346999994,365.7841444000005,None,,,,,,,,,,,,,,,,,00025,001,2025-11-14_21h47.43.146,MST_task,2024.2.2,59.971381656497606,2025-11-14 21h47.48.271851 +0530,
,Objects\165a.jpg,61,0,61,,,,,,,f,1.3378429999993386,0.17619879999983823,None,,,,,,,61,0,61,0,365.8007603999995,,,,,,,,,,,,,,,,,,,,,,,,,,,,,,365.7842282999991,365.8007603999995,366.31740940000054,366.2842051000007,,,,,,,,,,,,,,,,,,,,,,,,,,366.3006038000003,366.31740940000054,366.31740940000054,366.31740940000054,369.30068159999973,f,1.3378429999993386,0.17619879999983823,369.3007259999995,369.3007359000003,None,,,,,,,,,,,,,,,,,00025,001,2025-11-14_21h47.43.146,MST_task,2024.2.2,59.971381656497606,2025-11-14 21h47.48.271851 +0530,
,Objects\109a.jpg,62,0,62,,,,,,,j,0.9135570999987976,0.136963700000706,None,,,,,,,62,0,62,0,369.31742230000054,,,,,,,,,,,,,,,,,,,,,,,,,,,,,,369.3008188999993,369.31742230000054,,369.8008236000005,,,,,,,,,,,,,,,,,,,,,,,,,,369.8157257999992,369.83399069999905,369.83399069999905,369.83399069999905,372.8173114000001,j,0.9135570999987976,0.136963700000706,372.81734440000037,372.8173530999993,None,,,,,,,,,,,,,,,,,00025,001,2025-11-14_21h47.43.146,MST_task,2024.2.2,59.971381656497606,2025-11-14 21h47.48.271851 +0530,
,Scenes\177a.jpg,63,0,63,,,,,,,j,1.1314579999998386,0.14839959999881103,None,,,,,,,63,0,63,0,372.83394210000006,,,,,,,,,,,,,,,,,,,,,,,,,,,,,,372.8174378999993,372.83394210000006,373.3505657000005,373.31752310000047,,,,,,,,,,,,,,,,,,,,,,,,,,373.3352462999992,373.3505657000005,373.3505657000005,373.3505657000005,376.33397870000044,j,1.1314579999998386,0.14839959999881103,376.33515869999974,376.3351715000008,None,,,,,,,,,,,,,,,,,00025,001,2025-11-14_21h47.43.146,MST_task,2024.2.2,59.971381656497606,2025-11-14 21h47.48.271851 +0530,
,Scenes\037a.jpg,64,0,64,,,,,,,j,2.3763693000000785,0.14667659999940952,None,,,,,,,64,0,64,0,376.3504976999993,,,,,,,,,,,,,,,,,,,,,,,,,,,,,,376.3352326999993,376.3504976999993,376.86739189999935,376.83407839999927,,,,,,,,,,,,,,,,,,,,,,,,,,376.85313739999947,376.86739189999935,376.86739189999935,376.86739189999935,379.85045229999923,j,2.3763693000000785,0.14667659999940952,379.8504864000006,379.8504962999996,None,,,,,,,,,,,,,,,,,00025,001,2025-11-14_21h47.43.146,MST_task,2024.2.2,59.971381656497606,2025-11-14 21h47.48.271851 +0530,
,Scenes\124a.jpg,65,0,65,,,,,,,f,1.0000070000005508,0.13856049999958486,None,,,,,,,65,0,65,0,379.86710630000016,,,,,,,,,,,,,,,,,,,,,,,,,,,,,,379.8505538999998,379.86710630000016,,380.35055470000043,,,,,,,,,,,,,,,,,,,,,,,,,,380.3660247000007,380.383761699999,380.383761699999,380.383761699999,383.3671618999997,f,1.0000070000005508,0.13856049999958486,383.3671971999993,383.3672079000007,None,,,,,,,,,,,,,,,,,00025,001,2025-11-14_21h47.43.146,MST_task,2024.2.2,59.971381656497606,2025-11-14 21h47.48.271851 +0530,
,Scenes\068a.jpg,66,0,66,,,,,,,j,1.2752863999994588,0.14212050000060117,None,,,,,,,66,0,66,0,383.3837937999997,,,,,,,,,,,,,,,,,,,,,,,,,,,,,,383.3673424999997,383.3837937999997,383.90043289999994,383.8672939999997,,,,,,,,,,,,,,,,,,,,,,,,,,383.88661499999944,383.90043289999994,383.90043289999994,383.90043289999994,386.8837475,j,1.2752863999994588,0.14212050000060117,386.8837877999995,386.8837980999997,None,,,,,,,,,,,,,,,,,00025,001,2025-11-14_21h47.43.146,MST_task,2024.2.2,59.971381656497606,2025-11-14 21h47.48.271851 +0530,
,Scenes\183a.jpg,67,0,67,,,,,,,f,1.1789351000006718,0.18169339999985823,None,,,,,,,67,0,67,0,386.9004136000003,,,,,,,,,,,,,,,,,,,,,,,,,,,,,,386.8838852000008,386.9004136000003,387.4170374999994,387.38378960000045,,,,,,,,,,,,,,,,,,,,,,,,,,387.40242059999946,387.4170374999994,387.4170374999994,387.4170374999994,390.4002297999996,f,1.1789351000006718,0.18169339999985823,390.4002830999998,390.4002935999997,None,,,,,,,,,,,,,,,,,00025,001,2025-11-14_21h47.43.146,MST_task,2024.2.2,59.971381656497606,2025-11-14 21h47.48.271851 +0530,
,Scenes\094a.jpg,68,0,68,,,,,,,j,1.6103327000000718,0.16646639999999024,None,,,,,,,68,0,68,0,390.4168783999994,,,,,,,,,,,,,,,,,,,,,,,,,,,,,,390.40038579999964,390.4168783999994,390.9336344000003,390.90043479999986,,,,,,,,,,,,,,,,,,,,,,,,,,390.9144873000005,390.9336344000003,390.9336344000003,390.9336344000003,393.9169841999992,j,1.6103327000000718,0.16646639999999024,393.9170204000002,393.91703009999947,None,,,,,,,,,,,,,,,,,00025,001,2025-11-14_21h47.43.146,MST_task,2024.2.2,59.971381656497606,2025-11-14 21h47.48.271851 +0530,
,Scenes\144a.jpg,69,0,69,,,,,,,j,0.693518199999744,0.12417220000133966,None,,,,,,,69,0,69,0,393.93355469999915,,,,,,,,,,,,,,,,,,,,,,,,,,,,,,393.9170875,393.93355469999915,394.4502193999997,394.4170479000004,,,,,,,,,,,,,,,,,,,,,,,,,,394.43320250000033,394.4502193999997,394.4502193999997,394.4502193999997,397.43345109999973,j,0.693518199999744,0.12417220000133966,397.43348479999986,397.4334940000008,None,,,,,,,,,,,,,,,,,00025,001,2025-11-14_21h47.43.146,MST_task,2024.2.2,59.971381656497606,2025-11-14 21h47.48.271851 +0530,
,Objects\121a.jpg,70,0,70,,,,,,,f,1.5890419999996084,0.1427483999996184,None,,,,,,,70,0,70,0,397.4502109999994,,,,,,,,,,,,,,,,,,,,,,,,,,,,,,397.43357769999966,397.4502109999994,397.9667912999994,397.9336504999992,,,,,,,,,,,,,,,,,,,,,,,,,,397.95147200000065,397.9667912999994,397.9667912999994,397.9667912999994,400.9500953000006,f,1.5890419999996084,0.1427483999996184,400.95162490000075,400.9516354999996,None,,,,,,,,,,,,,,,,,00025,001,2025-11-14_21h47.43.146,MST_task,2024.2.2,59.971381656497606,2025-11-14 21h47.48.271851 +0530,
,Objects\027a.jpg,71,0,71,,,,,,,f,0.9747301999996125,0.14221230000111973,None,,,,,,,71,0,71,0,400.966763299999,,,,,,,,,,,,,,,,,,,,,,,,,,,,,,400.9516910000002,400.966763299999,401.4833811999997,401.4502209000002,,,,,,,,,,,,,,,,,,,,,,,,,,401.46575160000066,401.4833811999997,401.4833811999997,401.4833811999997,404.4666913000001,f,0.9747301999996125,0.14221230000111973,404.4667277999997,404.466737499999,None,,,,,,,,,,,,,,,,,00025,001,2025-11-14_21h47.43.146,MST_task,2024.2.2,59.971381656497606,2025-11-14 21h47.48.271851 +0530,
,Objects\075a.jpg,72,0,72,,,,,,,f,0.7546148999990692,0.15783080000073824,None,,,,,,,72,0,72,0,404.4833856999994,,,,,,,,,,,,,,,,,,,,,,,,,,,,,,404.4668153999992,404.4833856999994,404.99996979999923,404.96680600000036,,,,,,,,,,,,,,,,,,,,,,,,,,404.9820641999995,404.99996979999923,404.99996979999923,404.99996979999923,407.9832024999996,f,0.7546148999990692,0.15783080000073824,407.9832358999993,407.9832449000005,None,,,,,,,,,,,,,,,,,00025,001,2025-11-14_21h47.43.146,MST_task,2024.2.2,59.971381656497606,2025-11-14 21h47.48.271851 +0530,
,Objects\058a.jpg,73,0,73,,,,,,,None,,,j,0.07177629999932833,None,,,,,73,0,73,0,407.9998495,,,,,,,,,,,,,,,,,,,,,,,,,,,,,,407.9833347999993,407.9998495,,408.48333210000055,,,,,,,,,,,,,,,,,,,,,,,,,,408.4990089999992,408.5165109999998,408.5165109999998,408.5165109999998,411.4998333000003,None,,,411.49986510000053,411.6001974999999,j,,,,411.51644169999963,411.51644169999963,0.07177629999932833,None,,,,,,,,,,00025,001,2025-11-14_21h47.43.146,MST_task,2024.2.2,59.971381656497606,2025-11-14 21h47.48.271851 +0530,
,Objects\063a.jpg,74,0,74,,,,,,,f,0.9034668000003876,0.1610419999997248,None,,,,,,,74,0,74,0,411.61642849999953,,,,,,,,,,,,,,,,,,,,,,,,,,,,,,411.6002642000003,411.61642849999953,412.13308850000067,412.09998710000036,,,,,,,,,,,,,,,,,,,,,,,,,,412.1157402000008,412.13308850000067,412.13308850000067,412.13308850000067,415.11638329999914,f,0.9034668000003876,0.1610419999997248,415.11643249999906,415.11644239999987,None,,,,,,,,,,,,,,,,,00025,001,2025-11-14_21h47.43.146,MST_task,2024.2.2,59.971381656497606,2025-11-14 21h47.48.271851 +0530,
,Objects\164a.jpg,75,0,75,,,,,,,f,1.4121832999990147,0.14168730000164942,None,,,,,,,75,0,75,0,415.13302459999977,,,,,,,,,,,,,,,,,,,,,,,,,,,,,,415.11653149999984,415.13302459999977,415.64971650000007,415.6166190999993,,,,,,,,,,,,,,,,,,,,,,,,,,415.63204679999944,415.64971650000007,415.64971650000007,415.64971650000007,418.6329764000002,f,1.4121832999990147,0.14168730000164942,418.6330216000006,418.63303260000066,None,,,,,,,,,,,,,,,,,00025,001,2025-11-14_21h47.43.146,MST_task,2024.2.2,59.971381656497606,2025-11-14 21h47.48.271851 +0530,
,Objects\134a.jpg,76,0,76,,,,,,,j,1.5454634000016085,0.13802409999880183,None,,,,,,,76,0,76,0,418.6496138000002,,,,,,,,,,,,,,,,,,,,,,,,,,,,,,418.6331332999998,418.6496138000002,419.16625569999997,419.1331661999993,,,,,,,,,,,,,,,,,,,,,,,,,,419.1485389999998,419.16625569999997,419.16625569999997,419.16625569999997,422.1495467000004,j,1.5454634000016085,0.13802409999880183,422.14958359999946,422.14959330000056,None,,,,,,,,,,,,,,,,,00025,001,2025-11-14_21h47.43.146,MST_task,2024.2.2,59.971381656497606,2025-11-14 21h47.48.271851 +0530,
,Scenes\190a.jpg,77,0,77,,,,,,,j,0.851058500000363,0.13778350000029604,None,,,,,,,77,0,77,0,422.166173399999,,,,,,,,,,,,,,,,,,,,,,,,,,,,,,422.1496845999991,422.166173399999,422.6828547999994,422.64978060000067,,,,,,,,,,,,,,,,,,,,,,,,,,422.67118689999916,422.6828547999994,422.6828547999994,422.6828547999994,425.66615880000063,j,0.851058500000363,0.13778350000029604,425.6673415000005,425.66735250000056,None,,,,,,,,,,,,,,,,,00025,001,2025-11-14_21h47.43.146,MST_task,2024.2.2,59.971381656497606,2025-11-14 21h47.48.271851 +0530,
,Scenes\062a.jpg,78,0,78,,,,,,,j,1.2895834999999352,0.12570700000105717,None,,,,,,,78,0,78,0,425.6827611000008,,,,,,,,,,,,,,,,,,,,,,,,,,,,,,425.6674186,425.6827611000008,426.2002536,426.1664039999996,,,,,,,,,,,,,,,,,,,,,,,,,,426.1858109999994,426.2002536,426.2002536,426.2002536,429.1827494999998,j,1.2895834999999352,0.12570700000105717,429.1827857999997,429.18279540000003,None,,,,,,,,,,,,,,,,,00025,001,2025-11-14_21h47.43.146,MST_task,2024.2.2,59.971381656497606,2025-11-14 21h47.48.271851 +0530,
,Scenes\100a.jpg,79,0,79,,,,,,,f,1.3077720000001136,0.1324254999999539,None,,,,,,,79,0,79,0,429.1993843,,,,,,,,,,,,,,,,,,,,,,,,,,,,,,429.18288310000025,429.1993843,429.71602469999925,429.68288159999975,,,,,,,,,,,,,,,,,,,,,,,,,,429.69975410000006,429.71602469999925,429.71602469999925,429.71602469999925,432.69931329999963,f,1.3077720000001136,0.1324254999999539,432.6993461999991,432.69935559999976,None,,,,,,,,,,,,,,,,,00025,001,2025-11-14_21h47.43.146,MST_task,2024.2.2,59.971381656497606,2025-11-14 21h47.48.271851 +0530,
,Scenes\153a.jpg,80,0,80,,,,,,,j,1.0092831000001752,0.14386129999911645,None,,,,,,,80,0,80,0,432.7159766999994,,,,,,,,,,,,,,,,,,,,,,,,,,,,,,432.69946399999935,432.7159766999994,433.2326052999997,433.19948660000045,,,,,,,,,,,,,,,,,,,,,,,,,,433.2138367999996,433.2326052999997,433.2326052999997,433.2326052999997,436.21592509999937,j,1.0092831000001752,0.14386129999911645,436.2159580000007,436.2159675999992,None,,,,,,,,,,,,,,,,,00025,001,2025-11-14_21h47.43.146,MST_task,2024.2.2,59.971381656497606,2025-11-14 21h47.48.271851 +0530,
,Scenes\157a.jpg,81,0,81,,,,,,,j,1.0084630000001198,0.1538574999995035,None,,,,,,,81,0,81,0,436.2325978000008,,,,,,,,,,,,,,,,,,,,,,,,,,,,,,436.216051899999,436.2325978000008,436.7496128999992,436.7161285000002,,,,,,,,,,,,,,,,,,,,,,,,,,436.7320915,436.7496128999992,436.7496128999992,436.7496128999992,439.73263620000034,j,1.0084630000001198,0.1538574999995035,439.73269749999963,439.73270720000073,None,,,,,,,,,,,,,,,,,00025,001,2025-11-14_21h47.43.146,MST_task,2024.2.2,59.971381656497606,2025-11-14 21h47.48.271851 +0530,
,Scenes\179a.jpg,82,0,82,,,,,,,j,0.7361246000000392,0.14742330000080983,None,,,,,,,82,0,82,0,439.7491504999998,,,,,,,,,,,,,,,,,,,,,,,,,,,,,,439.73279790000015,439.7491504999998,440.26608789999955,440.2327934999994,,,,,,,,,,,,,,,,,,,,,,,,,,440.2479946000003,440.26608789999955,440.26608789999955,440.26608789999955,443.24912399999994,j,0.7361246000000392,0.14742330000080983,443.2491570000002,443.2491666999995,None,,,,,,,,,,,,,,,,,00025,001,2025-11-14_21h47.43.146,MST_task,2024.2.2,59.971381656497606,2025-11-14 21h47.48.271851 +0530,
,Scenes\101a.jpg,83,0,83,,,,,,,j,1.0817349999997532,0.1518876000009186,None,,,,,,,83,0,83,0,443.26578510000036,,,,,,,,,,,,,,,,,,,,,,,,,,,,,,443.2492237000006,443.26578510000036,443.78263549999974,443.7493040999998,,,,,,,,,,,,,,,,,,,,,,,,,,443.7660825999992,443.78263549999974,443.78263549999974,443.78263549999974,446.76568829999997,j,1.0817349999997532,0.1518876000009186,446.76573409999946,446.76574380000056,None,,,,,,,,,,,,,,,,,00025,001,2025-11-14_21h47.43.146,MST_task,2024.2.2,59.971381656497606,2025-11-14 21h47.48.271851 +0530,
,Objects\084a.jpg,84,0,84,,,,,,,f,2.0823409000004176,0.15363280000019586,None,,,,,,,84,0,84,0,446.7823349999999,,,,,,,,,,,,,,,,,,,,,,,,,,,,,,446.76580289999947,446.7823349999999,447.2993315999993,447.26592549999987,,,,,,,,,,,,,,,,,,,,,,,,,,447.28464689999964,447.2993315999993,447.2993315999993,447.2993315999993,450.28226639999957,f,2.0823409000004176,0.15363280000019586,450.2836977999996,450.28370919999907,None,,,,,,,,,,,,,,,,,00025,001,2025-11-14_21h47.43.146,MST_task,2024.2.2,59.971381656497606,2025-11-14 21h47.48.271851 +0530,
,Objects\013a.jpg,85,0,85,,,,,,,j,2.0700493000003917,0.1444772999984707,None,,,,,,,85,0,85,0,450.2989302999995,,,,,,,,,,,,,,,,,,,,,,,,,,,,,,450.28379759999916,450.2989302999995,450.81560440000067,450.78251249999994,,,,,,,,,,,,,,,,,,,,,,,,,,450.7997348000008,450.81560440000067,450.81560440000067,450.81560440000067,453.798882699999,j,2.0700493000003917,0.1444772999984707,453.798929999999,453.7989395000004,None,,,,,,,,,,,,,,,,,00025,001,2025-11-14_21h47.43.146,MST_task,2024.2.2,59.971381656497606,2025-11-14 21h47.48.271851 +0530,
,Objects\070a.jpg,86,0,86,,,,,,,j,1.735494699998526,0.1661550000007992,None,,,,,,,86,0,86,0,453.8154792000005,,,,,,,,,,,,,,,,,,,,,,,,,,,,,,453.79899959999966,453.8154792000005,,454.29902819999916,,,,,,,,,,,,,,,,,,,,,,,,,,454.3155915999996,454.3321424000005,454.3321424000005,454.3321424000005,457.3154766000007,j,1.735494699998526,0.1661550000007992,457.3155124999994,457.31552080000074,None,,,,,,,,,,,,,,,,,00025,001,2025-11-14_21h47.43.146,MST_task,2024.2.2,59.971381656497606,2025-11-14 21h47.48.271851 +0530,
,Objects\160a.jpg,87,0,87,,,,,,,f,1.5571758999994927,0.15001740000116115,None,,,,,,,87,0,87,0,457.3321030999996,,,,,,,,,,,,,,,,,,,,,,,,,,,,,,457.315579099999,457.3321030999996,457.84879530000035,457.8156911999995,,,,,,,,,,,,,,,,,,,,,,,,,,457.832035899999,457.84879530000035,457.84879530000035,457.84879530000035,460.8321362000006,f,1.5571758999994927,0.15001740000116115,460.8321715999991,460.8321806999993,None,,,,,,,,,,,,,,,,,00025,001,2025-11-14_21h47.43.146,MST_task,2024.2.2,59.971381656497606,2025-11-14 21h47.48.271851 +0530,
,Objects\069a.jpg,88,0,88,,,,,,,j,0.7506260999998631,0.1633481999997457,None,,,,,,,88,0,88,0,460.84871659999953,,,,,,,,,,,,,,,,,,,,,,,,,,,,,,460.83227160000024,460.84871659999953,461.36535410000033,461.3322494999993,,,,,,,,,,,,,,,,,,,,,,,,,,461.34791199999927,461.36535410000033,461.36535410000033,461.36535410000033,464.34865569999965,j,0.7506260999998631,0.1633481999997457,464.3486950000006,464.34870450000017,None,,,,,,,,,,,,,,,,,00025,001,2025-11-14_21h47.43.146,MST_task,2024.2.2,59.971381656497606,2025-11-14 21h47.48.271851 +0530,
,Objects\066a.jpg,89,0,89,,,,,,,f,1.4025275999993028,0.1772954000007303,None,,,,,,,89,0,89,0,464.3653013000003,,,,,,,,,,,,,,,,,,,,,,,,,,,,,,464.3488068000006,464.3653013000003,,464.8487786000005,,,,,,,,,,,,,,,,,,,,,,,,,,464.8647774000001,464.8819242999998,464.8819242999998,464.8819242999998,467.8652569999995,f,1.4025275999993028,0.1772954000007303,467.86531920000016,467.86532819999957,None,,,,,,,,,,,,,,,,,00025,001,2025-11-14_21h47.43.146,MST_task,2024.2.2,59.971381656497606,2025-11-14 21h47.48.271851 +0530,
,Objects\046a.jpg,90,0,90,,,,,,,f,0.6717305000001943,0.15812000000005355,None,,,,,,,90,0,90,0,467.88188289999925,,,,,,,,,,,,,,,,,,,,,,,,,,,,,,467.86538719999953,467.88188289999925,468.39853849999963,468.3654224999991,,,,,,,,,,,,,,,,,,,,,,,,,,468.38081930000044,468.39853849999963,468.39853849999963,468.39853849999963,471.38186040000073,f,0.6717305000001943,0.15812000000005355,471.38189369999964,471.3819031000003,None,,,,,,,,,,,,,,,,,00025,001,2025-11-14_21h47.43.146,MST_task,2024.2.2,59.971381656497606,2025-11-14 21h47.48.271851 +0530,
,Scenes\180a.jpg,91,0,91,,,,,,,j,0.6668402000013884,0.1599283999985346,None,,,,,,,91,0,91,0,471.3985367000005,,,,,,,,,,,,,,,,,,,,,,,,,,,,,,471.3819593999997,471.3985367000005,471.91510519999974,471.8821361999999,,,,,,,,,,,,,,,,,,,,,,,,,,471.8991688999995,471.91510519999974,471.91510519999974,471.91510519999974,474.8984901999993,j,0.6668402000013884,0.1599283999985346,474.8997409000003,474.89975400000003,None,,,,,,,,,,,,,,,,,00025,001,2025-11-14_21h47.43.146,MST_task,2024.2.2,59.971381656497606,2025-11-14 21h47.48.271851 +0530,
,Scenes\091a.jpg,92,0,92,,,,,,,j,0.8645457000002352,0.12986709999859158,None,,,,,,,92,0,92,0,474.91504349999923,,,,,,,,,,,,,,,,,,,,,,,,,,,,,,474.8998104000002,474.91504349999923,475.43172980000054,475.39856639999925,,,,,,,,,,,,,,,,,,,,,,,,,,475.4105557999992,475.43172980000054,475.43172980000054,475.43172980000054,478.41499250000015,j,0.8645457000002352,0.12986709999859158,478.41502279999986,478.41503159999957,None,,,,,,,,,,,,,,,,,00025,001,2025-11-14_21h47.43.146,MST_task,2024.2.2,59.971381656497606,2025-11-14 21h47.48.271851 +0530,
,Scenes\105a.jpg,93,0,93,,,,,,,j,1.1729085999995732,0.12082480000026408,None,,,,,,,93,0,93,0,478.4316794999995,,,,,,,,,,,,,,,,,,,,,,,,,,,,,,478.4151254999997,478.4316794999995,478.9482946999997,478.9152414,,,,,,,,,,,,,,,,,,,,,,,,,,478.9348446999993,478.9482946999997,478.9482946999997,478.9482946999997,481.9315850999992,j,1.1729085999995732,0.12082480000026408,481.93161859999964,481.93162780000057,None,,,,,,,,,,,,,,,,,00025,001,2025-11-14_21h47.43.146,MST_task,2024.2.2,59.971381656497606,2025-11-14 21h47.48.271851 +0530,
,Scenes\095a.jpg,94,0,94,,,,,,,f,2.8805639000001975,None,None,,,,,,,94,0,94,0,481.9482532000002,,,,,,,,,,,,,,,,,,,,,,,,,,,,,,481.9317140000003,481.9482532000002,,482.4317451000006,,,,,,,,,,,,,,,,,,,,,,,,,,482.4487659000006,482.4651952000004,482.4651952000004,482.4651952000004,485.4482399999997,f,2.8805639000001975,None,485.4482738000006,485.4482826000003,None,,,,,,,,,,,,,,,,,00025,001,2025-11-14_21h47.43.146,MST_task,2024.2.2,59.971381656497606,2025-11-14 21h47.48.271851 +0530,
,Scenes\128a.jpg,95,0,95,,,,,,,j,1.1821034999993572,0.15867090000028838,None,,,,,,,95,0,95,0,485.4648053000001,,,,,,,,,,,,,,,,,,,,,,,,,,,,,,485.4483677999997,485.4648053000001,485.9814733000003,485.94838510000045,,,,,,,,,,,,,,,,,,,,,,,,,,485.9675064999992,485.9814733000003,485.9814733000003,485.9814733000003,488.9648022000001,j,1.1821034999993572,0.15867090000028838,488.9648350000007,488.96484430000055,None,,,,,,,,,,,,,,,,,00025,001,2025-11-14_21h47.43.146,MST_task,2024.2.2,59.971381656497606,2025-11-14 21h47.48.271851 +0530,
,Scenes\110a.jpg,96,0,96,,,,,,,j,1.2035046000000875,0.15829239999948186,None,,,,,,,96,0,96,0,488.9813943999998,,,,,,,,,,,,,,,,,,,,,,,,,,,,,,488.96492899999976,488.9813943999998,489.49838459999955,489.4649731999998,,,,,,,,,,,,,,,,,,,,,,,,,,489.4814057000003,489.49838459999955,489.49838459999955,489.49838459999955,492.4813706999994,j,1.2035046000000875,0.15829239999948186,492.4814153999996,492.4814263999997,None,,,,,,,,,,,,,,,,,00025,001,2025-11-14_21h47.43.146,MST_task,2024.2.2,59.971381656497606,2025-11-14 21h47.48.271851 +0530,
,Scenes\106a.jpg,97,0,97,,,,,,,j,0.7435144999999466,0.12738849999914237,None,,,,,,,97,0,97,0,492.4980582999997,,,,,,,,,,,,,,,,,,,,,,,,,,,,,,492.48153939999975,492.4980582999997,493.0146788000002,492.98151770000004,,,,,,,,,,,,,,,,,,,,,,,,,,493.00001730000076,493.0146788000002,493.0146788000002,493.0146788000002,495.9980789000001,j,0.7435144999999466,0.12738849999914237,495.9981181999992,495.99812869999914,None,,,,,,,,,,,,,,,,,00025,001,2025-11-14_21h47.43.146,MST_task,2024.2.2,59.971381656497606,2025-11-14 21h47.48.271851 +0530,
,Objects\145a.jpg,98,0,98,,,,,,,f,1.2982379000004585,0.16672289999951317,None,,,,,,,98,0,98,0,496.0146067000005,,,,,,,,,,,,,,,,,,,,,,,,,,,,,,495.9982278000007,496.0146067000005,496.53150540000024,496.49822739999945,,,,,,,,,,,,,,,,,,,,,,,,,,496.5154788,496.53150540000024,496.53150540000024,496.53150540000024,499.5145732000001,f,1.2982379000004585,0.16672289999951317,499.5160689000004,499.5160799000005,None,,,,,,,,,,,,,,,,,00025,001,2025-11-14_21h47.43.146,MST_task,2024.2.2,59.971381656497606,2025-11-14 21h47.48.271851 +0530,
,Objects\130a.jpg,99,0,99,,,,,,,j,1.8384590000005119,0.12577869999950053,None,,,,,,,99,0,99,0,499.5312121999996,,,,,,,,,,,,,,,,,,,,,,,,,,,,,,499.51616769999964,499.5312121999996,500.04782870000054,500.0147646000005,,,,,,,,,,,,,,,,,,,,,,,,,,500.0301342999992,500.04782870000054,500.04782870000054,500.04782870000054,503.03113959999973,j,1.8384590000005119,0.12577869999950053,503.03117439999914,503.03118410000025,None,,,,,,,,,,,,,,,,,00025,001,2025-11-14_21h47.43.146,MST_task,2024.2.2,59.971381656497606,2025-11-14 21h47.48.271851 +0530,
,Objects\171a.jpg,100,0,100,,,,,,,j,2.532139900000402,0.12529539999923145,None,,,,,,,100,0,100,0,503.04779860000053,,,,,,,,,,,,,,,,,,,,,,,,,,,,,,503.0312431000002,503.04779860000053,503.5644553000002,503.53129640000043,,,,,,,,,,,,,,,,,,,,,,,,,,503.54690479999954,503.5644553000002,503.5644553000002,503.5644553000002,506.5477506999996,j,2.532139900000402,0.12529539999923145,506.54779729999973,506.54780759999994,None,,,,,,,,,,,,,,,,,00025,001,2025-11-14_21h47.43.146,MST_task,2024.2.2,59.971381656497606,2025-11-14 21h47.48.271851 +0530,
,Objects\177a.jpg,101,0,101,,,,,,,f,0.8666924999997718,0.15840620000017225,None,,,,,,,101,0,101,0,506.5643906000005,,,,,,,,,,,,,,,,,,,,,,,,,,,,,,506.54789449999953,506.5643906000005,,507.0478705000005,,,,,,,,,,,,,,,,,,,,,,,,,,507.06290330000047,507.0810450000008,507.0810450000008,507.0810450000008,510.0644890000003,f,0.8666924999997718,0.15840620000017225,510.0645242999999,510.06453300000067,None,,,,,,,,,,,,,,,,,00025,001,2025-11-14_21h47.43.146,MST_task,2024.2.2,59.971381656497606,2025-11-14 21h47.48.271851 +0530,
,Objects\064a.jpg,102,0,102,,,,,,,j,0.862790799999857,0.1498719000010169,None,,,,,,,102,0,102,0,510.08101089999946,,,,,,,,,,,,,,,,,,,,,,,,,,,,,,510.0646276999996,510.08101089999946,510.5976675999991,510.5646794000004,,,,,,,,,,,,,,,,,,,,,,,,,,510.5812800999993,510.5976675999991,510.5976675999991,510.5976675999991,513.5809473999998,j,0.862790799999857,0.1498719000010169,513.5809831999995,513.5809933,None,,,,,,,,,,,,,,,,,00025,001,2025-11-14_21h47.43.146,MST_task,2024.2.2,59.971381656497606,2025-11-14 21h47.48.271851 +0530,
,Objects\150a.jpg,103,0,103,,,,,,,j,1.0258331000004546,0.1362634999986767,None,,,,,,,103,0,103,0,513.5975768000008,,,,,,,,,,,,,,,,,,,,,,,,,,,,,,513.5810817000001,513.5975768000008,514.1142263999991,514.0811329000007,,,,,,,,,,,,,,,,,,,,,,,,,,514.0981379999994,514.1142263999991,514.1142263999991,514.1142263999991,517.0976673000005,j,1.0258331000004546,0.1362634999986767,517.0977094999998,517.0977192999999,None,,,,,,,,,,,,,,,,,00025,001,2025-11-14_21h47.43.146,MST_task,2024.2.2,59.971381656497606,2025-11-14 21h47.48.271851 +0530,
,Objects\162a.jpg,104,0,104,,,,,,,f,2.3592464000012114,0.15456489999996847,None,,,,,,,104,0,104,0,517.1141282000008,,,,,,,,,,,,,,,,,,,,,,,,,,,,,,517.0977858000006,517.1141282000008,517.6307890999997,517.5977184000003,,,,,,,,,,,,,,,,,,,,,,,,,,517.6138995999991,517.6307890999997,517.6307890999997,517.6307890999997,520.6141255000002,f,2.3592464000012114,0.15456489999996847,520.6141592000004,520.6141683999995,None,,,,,,,,,,,,,,,,,00025,001,2025-11-14_21h47.43.146,MST_task,2024.2.2,59.971381656497606,2025-11-14 21h47.48.271851 +0530,
,Scenes\058a.jpg,105,0,105,,,,,,,f,2.0329507000005833,0.17051139999966836,None,,,,,,,105,0,105,0,520.6307199000003,,,,,,,,,,,,,,,,,,,,,,,,,,,,,,520.6142256999992,520.6307199000003,521.1474125999994,521.1143004999994,,,,,,,,,,,,,,,,,,,,,,,,,,521.1328224999997,521.1474125999994,521.1474125999994,521.1474125999994,524.1306956999997,f,2.0329507000005833,0.17051139999966836,524.1319218999997,524.1319337000004,None,,,,,,,,,,,,,,,,,00025,001,2025-11-14_21h47.43.146,MST_task,2024.2.2,59.971381656497606,2025-11-14 21h47.48.271851 +0530,
,Scenes\006a.jpg,106,0,106,,,,,,,f,2.1697271000011824,0.18355609999889566,None,,,,,,,106,0,106,0,524.1473172999995,,,,,,,,,,,,,,,,,,,,,,,,,,,,,,524.1320194,524.1473172999995,524.6639682000005,524.6309760000004,,,,,,,,,,,,,,,,,,,,,,,,,,524.6464474999993,524.6639682000005,524.6639682000005,524.6639682000005,527.6472625999995,f,2.1697271000011824,0.18355609999889566,527.6472990000002,527.6473088000002,None,,,,,,,,,,,,,,,,,00025,001,2025-11-14_21h47.43.146,MST_task,2024.2.2,59.971381656497606,2025-11-14 21h47.48.271851 +0530,
,Scenes\015a.jpg,107,0,107,,,,,,,j,0.6472684999989724,0.1453536000008171,None,,,,,,,107,0,107,0,527.6639319999995,,,,,,,,,,,,,,,,,,,,,,,,,,,,,,527.6473686999998,527.6639319999995,528.1809362000004,528.1474087999995,,,,,,,,,,,,,,,,,,,,,,,,,,528.1701496999995,528.1809362000004,528.1809362000004,528.1809362000004,531.1638655000006,j,0.6472684999989724,0.1453536000008171,531.1639125000002,531.1639218,None,,,,,,,,,,,,,,,,,00025,001,2025-11-14_21h47.43.146,MST_task,2024.2.2,59.971381656497606,2025-11-14 21h47.48.271851 +0530,
,Scenes\022a.jpg,108,0,108,,,,,,,j,1.250559100000828,0.16592729999865696,None,,,,,,,108,0,108,0,531.1805215000004,,,,,,,,,,,,,,,,,,,,,,,,,,,,,,531.1640112000005,531.1805215000004,,531.6639959999993,,,,,,,,,,,,,,,,,,,,,,,,,,531.6762997999995,531.6974508999992,531.6974508999992,531.6974508999992,534.6806345999994,j,1.250559100000828,0.16592729999865696,534.6806732000005,534.6806821999999,None,,,,,,,,,,,,,,,,,00025,001,2025-11-14_21h47.43.146,MST_task,2024.2.2,59.971381656497606,2025-11-14 21h47.48.271851 +0530,
,Scenes\051a.jpg,109,0,109,,,,,,,j,0.9983438999988721,0.16603850000137754,None,,,,,,,109,0,109,0,534.6971133000006,,,,,,,,,,,,,,,,,,,,,,,,,,,,,,534.6807731000008,534.6971133000006,535.2141341000006,535.1806503000007,,,,,,,,,,,,,,,,,,,,,,,,,,535.1953907000006,535.2141341000006,535.2141341000006,535.2141341000006,538.1970839999994,j,0.9983438999988721,0.16603850000137754,538.1971162999998,538.1971259999991,None,,,,,,,,,,,,,,,,,00025,001,2025-11-14_21h47.43.146,MST_task,2024.2.2,59.971381656497606,2025-11-14 21h47.48.271851 +0530,
,Scenes\089a.jpg,110,0,110,,,,,,,j,1.9928350999998656,0.15426229999866337,None,,,,,,,110,0,110,0,538.2137008999998,,,,,,,,,,,,,,,,,,,,,,,,,,,,,,538.1972258999995,538.2137008999998,538.7306107000004,538.6972420999991,,,,,,,,,,,,,,,,,,,,,,,,,,538.7180676000007,538.7306107000004,538.7306107000004,538.7306107000004,541.7136387999999,j,1.9928350999998656,0.15426229999866337,541.7136702999996,541.7136800000007,None,,,,,,,,,,,,,,,,,00025,001,2025-11-14_21h47.43.146,MST_task,2024.2.2,59.971381656497606,2025-11-14 21h47.48.271851 +0530,
,Scenes\088a.jpg,111,0,111,,,,,,,j,0.952335399999356,0.14630050000050687,None,,,,,,,111,0,111,0,541.7303023000004,,,,,,,,,,,,,,,,,,,,,,,,,,,,,,541.7137366000006,541.7303023000004,,542.2137839999996,,,,,,,,,,,,,,,,,,,,,,,,,,542.2358590000003,542.2473308000008,542.2473308000008,542.2473308000008,545.2302507000004,j,0.952335399999356,0.14630050000050687,545.2303124999999,545.2303216,None,,,,,,,,,,,,,,,,,00025,001,2025-11-14_21h47.43.146,MST_task,2024.2.2,59.971381656497606,2025-11-14 21h47.48.271851 +0530,
,Objects\028a.jpg,112,0,112,,,,,,,j,2.1538911999996344,0.16606080000019574,None,,,,,,,112,0,112,0,545.2468847,,,,,,,,,,,,,,,,,,,,,,,,,,,,,,545.2304191000003,545.2468847,545.7638838000003,545.7304165999994,,,,,,,,,,,,,,,,,,,,,,,,,,545.7481449000006,545.7638838000003,545.7638838000003,545.7638838000003,548.7469533000003,j,2.1538911999996344,0.16606080000019574,548.7486047999992,548.7486348999992,None,,,,,,,,,,,,,,,,,00025,001,2025-11-14_21h47.43.146,MST_task,2024.2.2,59.971381656497606,2025-11-14 21h47.48.271851 +0530,
,Objects\020a.jpg,113,0,113,,,,,,,f,0.8274693000003026,0.1866676000008738,None,,,,,,,113,0,113,0,548.7634854999997,,,,,,,,,,,,,,,,,,,,,,,,,,,,,,548.7487306000003,548.7634854999997,549.2801495999993,549.2470916999991,,,,,,,,,,,,,,,,,,,,,,,,,,549.2637689000003,549.2801495999993,549.2801495999993,549.2801495999993,552.2635740999995,f,0.8274693000003026,0.1866676000008738,552.2636129000002,552.2636285000008,None,,,,,,,,,,,,,,,,,00025,001,2025-11-14_21h47.43.146,MST_task,2024.2.2,59.971381656497606,2025-11-14 21h47.48.271851 +0530,
,Objects\115a.jpg,114,0,114,,,,,,,f,0.72378050000043,0.17040389999965555,None,,,,,,,114,0,114,0,552.2800432999993,,,,,,,,,,,,,,,,,,,,,,,,,,,,,,552.2637159000005,552.2800432999993,552.7967045999994,552.7636230000007,,,,,,,,,,,,,,,,,,,,,,,,,,552.7800060999998,552.7967045999994,552.7967045999994,552.7967045999994,555.7800021999992,f,0.72378050000043,0.17040389999965555,555.7800367,555.7800473999996,None,,,,,,,,,,,,,,,,,00025,001,2025-11-14_21h47.43.146,MST_task,2024.2.2,59.971381656497606,2025-11-14 21h47.48.271851 +0530,
,Objects\190a.jpg,115,0,115,,,,,,,f,0.7971283000006224,0.18172860000049695,None,,,,,,,115,0,115,0,555.7966538000001,,,,,,,,,,,,,,,,,,,,,,,,,,,,,,555.7801596999998,555.7966538000001,556.3133292999992,556.2801512999995,,,,,,,,,,,,,,,,,,,,,,,,,,556.2965258000004,556.3133292999992,556.3133292999992,556.3133292999992,559.2801125000005,f,0.7971283000006224,0.18172860000049695,559.2801478999991,559.2801576999991,None,,,,,,,,,,,,,,,,,00025,001,2025-11-14_21h47.43.146,MST_task,2024.2.2,59.971381656497606,2025-11-14 21h47.48.271851 +0530,
,Objects\014a.jpg,116,0,116,,,,,,,f,0.6763245999991341,0.15481700000054843,None,,,,,,,116,0,116,0,559.2965423000005,,,,,,,,,,,,,,,,,,,,,,,,,,,,,,559.2802186000008,559.2965423000005,559.8132148999994,559.7800434000001,,,,,,,,,,,,,,,,,,,,,,,,,,559.7964157000006,559.8132148999994,559.8132148999994,559.8132148999994,562.7966340999992,f,0.6763245999991341,0.15481700000054843,562.7966749000007,562.796685199999,None,,,,,,,,,,,,,,,,,00025,001,2025-11-14_21h47.43.146,MST_task,2024.2.2,59.971381656497606,2025-11-14 21h47.48.271851 +0530,
,Objects\132a.jpg,117,0,117,,,,,,,f,1.2052401000000827,0.1567802000008669,None,,,,,,,117,0,117,0,562.8131775999991,,,,,,,,,,,,,,,,,,,,,,,,,,,,,,562.7967750999996,562.8131775999991,563.3298006000005,563.2966794999993,,,,,,,,,,,,,,,,,,,,,,,,,,563.3127005000006,563.3298006000005,563.3298006000005,563.3298006000005,566.3131333000001,f,1.2052401000000827,0.1567802000008669,566.3131677999991,566.3131773999994,None,,,,,,,,,,,,,,,,,00025,001,2025-11-14_21h47.43.146,MST_task,2024.2.2,59.971381656497606,2025-11-14 21h47.48.271851 +0530,
,Objects\033a.jpg,118,0,118,,,,,,,j,1.125435699999798,0.13803209999969113,None,,,,,,,118,0,118,0,566.3297657999992,,,,,,,,,,,,,,,,,,,,,,,,,,,,,,566.3132619999997,566.3297657999992,,566.8132636999999,,,,,,,,,,,,,,,,,,,,,,,,,,566.8286401999994,566.8463991000008,566.8463991000008,566.8463991000008,569.8297688999992,j,1.125435699999798,0.13803209999969113,569.8298016000008,569.8298104999994,None,,,,,,,,,,,,,,,,,00025,001,2025-11-14_21h47.43.146,MST_task,2024.2.2,59.971381656497606,2025-11-14 21h47.48.271851 +0530,
,Scenes\163a.jpg,119,0,119,,,,,,,j,1.0081061000000773,0.1404144999996788,None,,,,,,,119,0,119,0,569.8463608000002,,,,,,,,,,,,,,,,,,,,,,,,,,,,,,569.8298694000005,569.8463608000002,570.3633927999999,570.3298603999992,,,,,,,,,,,,,,,,,,,,,,,,,,570.3457878999998,570.3633927999999,570.3633927999999,570.3633927999999,573.3463193999996,j,1.0081061000000773,0.1404144999996788,573.3474898000004,573.3475015999993,None,,,,,,,,,,,,,,,,,00025,001,2025-11-14_21h47.43.146,MST_task,2024.2.2,59.971381656497606,2025-11-14 21h47.48.271851 +0530,
,Scenes\142a.jpg,120,0,120,,,,,,,j,1.0566108999992139,0.15007619999960298,None,,,,,,,120,0,120,0,573.3629524000007,,,,,,,,,,,,,,,,,,,,,,,,,,,,,,573.3475871999999,573.3629524000007,573.8795824999997,573.8464638000005,,,,,,,,,,,,,,,,,,,,,,,,,,573.8651599999994,573.8795824999997,573.8795824999997,573.8795824999997,576.8629194000005,j,1.0566108999992139,0.15007619999960298,576.8629531000006,576.8629634000008,None,,,,,,,,,,,,,,,,,00025,001,2025-11-14_21h47.43.146,MST_task,2024.2.2,59.971381656497606,2025-11-14 21h47.48.271851 +0530,
,Scenes\130a.jpg,121,0,121,,,,,,,j,2.1621326000004046,0.1617222999993828,None,,,,,,,121,0,121,0,576.8795463000006,,,,,,,,,,,,,,,,,,,,,,,,,,,,,,576.8630630000007,576.8795463000006,577.3963399000004,577.3630971000002,,,,,,,,,,,,,,,,,,,,,,,,,,577.3841892,577.3963399000004,577.3963399000004,577.3963399000004,580.3795988999991,j,2.1621326000004046,0.1617222999993828,580.3796385000005,580.3796495999995,None,,,,,,,,,,,,,,,,,00025,001,2025-11-14_21h47.43.146,MST_task,2024.2.2,59.971381656497606,2025-11-14 21h47.48.271851 +0530,
,Scenes\113a.jpg,122,0,122,,,,,,,j,0.6724085999994713,0.15818850000141538,None,,,,,,,122,0,122,0,580.3961218000004,,,,,,,,,,,,,,,,,,,,,,,,,,,,,,580.3797164999996,580.3961218000004,580.9131206999991,580.8796290999999,,,,,,,,,,,,,,,,,,,,,,,,,,580.8986588999996,580.9131206999991,580.9131206999991,580.9131206999991,583.8961271000007,j,0.6724085999994713,0.15818850000141538,583.8961703999994,583.8961920999991,None,,,,,,,,,,,,,,,,,00025,001,2025-11-14_21h47.43.146,MST_task,2024.2.2,59.971381656497606,2025-11-14 21h47.48.271851 +0530,
,Scenes\008a.jpg,123,0,123,,,,,,,f,0.9903589999994438,0.16734730000098352,None,,,,,,,123,0,123,0,583.9127257,,,,,,,,,,,,,,,,,,,,,,,,,,,,,,583.8962948000008,583.9127257,584.4296051999991,584.3962427000006,,,,,,,,,,,,,,,,,,,,,,,,,,584.4120165000004,584.4296051999991,584.4296051999991,584.4296051999991,587.4128120999994,f,0.9903589999994438,0.16734730000098352,587.4128474999998,587.4128574000006,None,,,,,,,,,,,,,,,,,00025,001,2025-11-14_21h47.43.146,MST_task,2024.2.2,59.971381656497606,2025-11-14 21h47.48.271851 +0530,
,Scenes\154a.jpg,124,0,124,,,,,,,j,0.9558168000003207,0.15408399999978428,None,,,,,,,124,0,124,0,587.4293006000007,,,,,,,,,,,,,,,,,,,,,,,,,,,,,,587.4129274000006,587.4293006000007,587.946224199999,587.9129400999991,,,,,,,,,,,,,,,,,,,,,,,,,,587.9279666000002,587.946224199999,587.946224199999,587.946224199999,590.9294078000003,j,0.9558168000003207,0.15408399999978428,590.9294437999997,590.929453499999,None,,,,,,,,,,,,,,,,,00025,001,2025-11-14_21h47.43.146,MST_task,2024.2.2,59.971381656497606,2025-11-14 21h47.48.271851 +0530,
,Scenes\079a.jpg,125,0,125,,,,,,,j,0.9408676000002743,0.15081600000121398,None,,,,,,,125,0,125,0,590.9458694999994,,,,,,,,,,,,,,,,,,,,,,,,,,,,,,590.9295445999996,590.9458694999994,591.4627560999998,591.4295559999991,,,,,,,,,,,,,,,,,,,,,,,,,,591.4446674999999,591.4627560999998,591.4627560999998,591.4627560999998,594.4458501999998,j,0.9408676000002743,0.15081600000121398,594.4459136999994,594.4459241999994,None,,,,,,,,,,,,,,,,,00025,001,2025-11-14_21h47.43.146,MST_task,2024.2.2,59.971381656497606,2025-11-14 21h47.48.271851 +0530,
,Objects\001a.jpg,126,0,126,,,,,,,f,1.0023074000000634,0.16609450000032666,None,,,,,,,126,0,126,0,594.4624946999993,,,,,,,,,,,,,,,,,,,,,,,,,,,,,,594.4460273999994,594.4624946999993,594.9794108999995,594.9460264999998,,,,,,,,,,,,,,,,,,,,,,,,,,594.9642679999997,594.9794108999995,594.9794108999995,594.9794108999995,597.9624726000002,f,1.0023074000000634,0.16609450000032666,597.9639592999993,597.9639747000001,None,,,,,,,,,,,,,,,,,00025,001,2025-11-14_21h47.43.146,MST_task,2024.2.2,59.971381656497606,2025-11-14 21h47.48.271851 +0530,
,Objects\191a.jpg,127,0,127,,,,,,,f,0.7666638999999122,0.1771071999992273,None,,,,,,,127,0,127,0,597.9790661000006,,,,,,,,,,,,,,,,,,,,,,,,,,,,,,597.9640311000003,597.9790661000006,598.4957460000005,598.4626816,,,,,,,,,,,,,,,,,,,,,,,,,,598.4784116999999,598.4957460000005,598.4957460000005,598.4957460000005,601.4790725000003,f,0.7666638999999122,0.1771071999992273,601.4791065999998,601.4791163999998,None,,,,,,,,,,,,,,,,,00025,001,2025-11-14_21h47.43.146,MST_task,2024.2.2,59.971381656497606,2025-11-14 21h47.48.271851 +0530,
,Objects\176a.jpg,128,0,128,,,,,,,j,0.5872285000004922,0.1662295999994967,None,,,,,,,128,0,128,0,601.4956810999993,,,,,,,,,,,,,,,,,,,,,,,,,,,,,,601.4791998000001,601.4956810999993,602.0123043999993,601.9792782000004,,,,,,,,,,,,,,,,,,,,,,,,,,601.9947154999991,602.0123043999993,602.0123043999993,602.0123043999993,604.9957541000003,j,0.5872285000004922,0.1662295999994967,604.9957892999992,604.9957990999992,None,,,,,,,,,,,,,,,,,00025,001,2025-11-14_21h47.43.146,MST_task,2024.2.2,59.971381656497606,2025-11-14 21h47.48.271851 +0530,
,Objects\144a.jpg,129,0,129,,,,,,,j,1.9446991000004346,0.1704437999997026,None,,,,,,,129,0,129,0,605.0122890000002,,,,,,,,,,,,,,,,,,,,,,,,,,,,,,604.9958888000001,605.0122890000002,605.5289173000001,605.4957529000003,,,,,,,,,,,,,,,,,,,,,,,,,,605.5122888999995,605.5289173000001,605.5289173000001,605.5289173000001,608.5122245000002,j,1.9446991000004346,0.1704437999997026,608.5122721999996,608.5122819999997,None,,,,,,,,,,,,,,,,,00025,001,2025-11-14_21h47.43.146,MST_task,2024.2.2,59.971381656497606,2025-11-14 21h47.48.271851 +0530,
,Objects\076a.jpg,130,0,130,,,,,,,f,1.610077999999703,0.19031569999970088,None,,,,,,,130,0,130,0,608.5288596999999,,,,,,,,,,,,,,,,,,,,,,,,,,,,,,608.5123736000005,608.5288596999999,,609.0123779000005,,,,,,,,,,,,,,,,,,,,,,,,,,609.0282439999992,609.0456343000005,609.0456343000005,609.0456343000005,612.0288349000002,f,1.610077999999703,0.19031569999970088,612.0288827000004,612.0288913999993,None,,,,,,,,,,,,,,,,,00025,001,2025-11-14_21h47.43.146,MST_task,2024.2.2,59.971381656497606,2025-11-14 21h47.48.271851 +0530,
,Objects\113a.jpg,131,0,131,,,,,,,j,1.7134141000005911,0.15053210000041872,None,,,,,,,131,0,131,0,612.0454664999997,,,,,,,,,,,,,,,,,,,,,,,,,,,,,,612.0289821999995,612.0454664999997,612.5621379000004,612.5289379000005,,,,,,,,,,,,,,,,,,,,,,,,,,612.5449086000008,612.5621379000004,612.5621379000004,612.5621379000004,615.545532099999,j,1.7134141000005911,0.15053210000041872,615.5455681000003,615.5455777000006,None,,,,,,,,,,,,,,,,,00025,001,2025-11-14_21h47.43.146,MST_task,2024.2.2,59.971381656497606,2025-11-14 21h47.48.271851 +0530,
,Objects\022a.jpg,132,0,132,,,,,,,j,2.2874818999989657,0.17412860000149522,None,,,,,,,132,0,132,0,615.5620576999991,,,,,,,,,,,,,,,,,,,,,,,,,,,,,,615.5456391999996,615.5620576999991,616.0786575000002,616.0455266999998,,,,,,,,,,,,,,,,,,,,,,,,,,616.0618519,616.0786575000002,616.0786575000002,616.0786575000002,619.0620333000006,j,2.2874818999989657,0.17412860000149522,619.0620734000004,619.0620830000007,None,,,,,,,,,,,,,,,,,00025,001,2025-11-14_21h47.43.146,MST_task,2024.2.2,59.971381656497606,2025-11-14 21h47.48.271851 +0530,
,Scenes\117a.jpg,133,0,133,,,,,,,j,2.6823577000013756,0.13442269999904966,None,,,,,,,133,0,133,0,619.0786215000007,,,,,,,,,,,,,,,,,,,,,,,,,,,,,,619.0621525999995,619.0786215000007,619.5952792000007,619.5622246000003,,,,,,,,,,,,,,,,,,,,,,,,,,619.5783800999998,619.5952792000007,619.5952792000007,619.5952792000007,622.5786943000003,j,2.6823577000013756,0.13442269999904966,622.5798469999991,622.5798580999999,None,,,,,,,,,,,,,,,,,00025,001,2025-11-14_21h47.43.146,MST_task,2024.2.2,59.971381656497606,2025-11-14 21h47.48.271851 +0530,
,Scenes\029a.jpg,134,0,134,,,,,,,j,0.5874113999998372,0.1623691000004328,None,,,,,,,134,0,134,0,622.5951948000002,,,,,,,,,,,,,,,,,,,,,,,,,,,,,,622.5799537999992,622.5951948000002,623.1121351000002,623.0788073000003,,,,,,,,,,,,,,,,,,,,,,,,,,623.0986565000003,623.1121351000002,623.1121351000002,623.1121351000002,626.0952550000002,j,0.5874113999998372,0.1623691000004328,626.0952966999994,626.0953062999997,None,,,,,,,,,,,,,,,,,00025,001,2025-11-14_21h47.43.146,MST_task,2024.2.2,59.971381656497606,2025-11-14 21h47.48.271851 +0530,
,Scenes\192a.jpg,135,0,135,,,,,,,j,1.0334390999996685,0.15759559999969497,None,,,,,,,135,0,135,0,626.1118129000006,,,,,,,,,,,,,,,,,,,,,,,,,,,,,,626.0954079000003,626.1118129000006,626.6284321000003,626.5952973999993,,,,,,,,,,,,,,,,,,,,,,,,,,626.6104137999992,626.6284321000003,626.6284321000003,626.6284321000003,629.6117701000003,j,1.0334390999996685,0.15759559999969497,629.6118208000007,629.6118313000006,None,,,,,,,,,,,,,,,,,00025,001,2025-11-14_21h47.43.146,MST_task,2024.2.2,59.971381656497606,2025-11-14 21h47.48.271851 +0530,
,Scenes\158a.jpg,136,0,136,,,,,,,j,1.3588024000000587,0.16647820000071079,None,,,,,,,136,0,136,0,629.6284061000006,,,,,,,,,,,,,,,,,,,,,,,,,,,,,,629.6118953000005,629.6284061000006,630.1450564000006,630.1120386000002,,,,,,,,,,,,,,,,,,,,,,,,,,630.1306562999998,630.1450564000006,630.1450564000006,630.1450564000006,633.1283519999997,j,1.3588024000000587,0.16647820000071079,633.1283860000003,633.1283958000004,None,,,,,,,,,,,,,,,,,00025,001,2025-11-14_21h47.43.146,MST_task,2024.2.2,59.971381656497606,2025-11-14 21h47.48.271851 +0530,
,Scenes\002a.jpg,137,0,137,,,,,,,j,2.8245636000010563,None,None,,,,,,,137,0,137,0,633.1449928999991,,,,,,,,,,,,,,,,,,,,,,,,,,,,,,633.1284534000006,633.1449928999991,633.6618178999997,633.6284897999994,,,,,,,,,,,,,,,,,,,,,,,,,,633.6514977999996,633.6618178999997,633.6618178999997,633.6618178999997,636.6449737999992,j,2.8245636000010563,None,636.6450058999999,636.6450158999996,None,,,,,,,,,,,,,,,,,00025,001,2025-11-14_21h47.43.146,MST_task,2024.2.2,59.971381656497606,2025-11-14 21h47.48.271851 +0530,
,Scenes\161a.jpg,138,0,138,,,,,,,j,0.6634561999999278,0.13424119999945106,None,,,,,,,138,0,138,0,636.6615779999993,,,,,,,,,,,,,,,,,,,,,,,,,,,,,,636.6451001999994,636.6615779999993,637.1782273000008,637.1451820999991,,,,,,,,,,,,,,,,,,,,,,,,,,637.1654251,637.1782273000008,637.1782273000008,637.1782273000008,640.1615920999993,j,0.6634561999999278,0.13424119999945106,640.1616262000007,640.1616371,None,,,,,,,,,,,,,,,,,00025,001,2025-11-14_21h47.43.146,MST_task,2024.2.2,59.971381656497606,2025-11-14 21h47.48.271851 +0530,
,Scenes\188a.jpg,139,0,139,,,,,,,j,1.315120899998874,0.14605699999992794,None,,,,,,,139,0,139,0,640.1781761999991,,,,,,,,,,,,,,,,,,,,,,,,,,,,,,640.161725599999,640.1781761999991,640.6950434999999,640.6617743999996,,,,,,,,,,,,,,,,,,,,,,,,,,640.6780256999991,640.6950434999999,640.6950434999999,640.6950434999999,643.6782303,j,1.315120899998874,0.14605699999992794,643.6782652000002,643.6782748000005,None,,,,,,,,,,,,,,,,,00025,001,2025-11-14_21h47.43.146,MST_task,2024.2.2,59.971381656497606,2025-11-14 21h47.48.271851 +0530,
,Objects\080a.jpg,140,0,140,,,,,,,f,1.948068300000159,0.17406210000081046,None,,,,,,,140,0,140,0,643.6947734000005,,,,,,,,,,,,,,,,,,,,,,,,,,,,,,643.6783376999992,643.6947734000005,644.2116642000001,644.1783433,,,,,,,,,,,,,,,,,,,,,,,,,,644.1957586999997,644.2116642000001,644.2116642000001,644.2116642000001,647.1946912999992,f,1.948068300000159,0.17406210000081046,647.1962074999992,647.1962189999995,None,,,,,,,,,,,,,,,,,00025,001,2025-11-14_21h47.43.146,MST_task,2024.2.2,59.971381656497606,2025-11-14 21h47.48.271851 +0530,
,Objects\143a.jpg,141,0,141,,,,,,,j,1.1551366999992752,0.13134809999974095,None,,,,,,,141,0,141,0,647.2113578000008,,,,,,,,,,,,,,,,,,,,,,,,,,,,,,647.1962793000002,647.2113578000008,647.7279834000001,647.6948071000006,,,,,,,,,,,,,,,,,,,,,,,,,,647.7103062000006,647.7279834000001,647.7279834000001,647.7279834000001,650.7113121000002,j,1.1551366999992752,0.13134809999974095,650.7113649000003,650.7113740999994,None,,,,,,,,,,,,,,,,,00025,001,2025-11-14_21h47.43.146,MST_task,2024.2.2,59.971381656497606,2025-11-14 21h47.48.271851 +0530,
,Objects\110a.jpg,142,0,142,,,,,,,f,1.9416507999994792,0.16083479999906558,None,,,,,,,142,0,142,0,650.727914699999,,,,,,,,,,,,,,,,,,,,,,,,,,,,,,650.7114321999998,650.727914699999,651.2445972999994,651.2114892999998,,,,,,,,,,,,,,,,,,,,,,,,,,651.2276222,651.2445972999994,651.2445972999994,651.2445972999994,654.2279075000006,f,1.9416507999994792,0.16083479999906558,654.2279569999992,654.2279667999992,None,,,,,,,,,,,,,,,,,00025,001,2025-11-14_21h47.43.146,MST_task,2024.2.2,59.971381656497606,2025-11-14 21h47.48.271851 +0530,
,Objects\099a.jpg,143,0,143,,,,,,,j,1.4510940999989543,0.17425470000125642,None,,,,,,,143,0,143,0,654.244525099999,,,,,,,,,,,,,,,,,,,,,,,,,,,,,,654.2280281000003,654.244525099999,654.7611766999999,654.7280573000007,,,,,,,,,,,,,,,,,,,,,,,,,,654.7443038000001,654.7611766999999,654.7611766999999,654.7611766999999,657.7444625000007,j,1.4510940999989543,0.17425470000125642,657.7444957000007,657.7445052000003,None,,,,,,,,,,,,,,,,,00025,001,2025-11-14_21h47.43.146,MST_task,2024.2.2,59.971381656497606,2025-11-14 21h47.48.271851 +0530,
,Objects\127a.jpg,144,0,144,,,,,,,j,1.7388205000006565,0.16227679999974498,None,,,,,,,144,0,144,0,657.7611448000007,,,,,,,,,,,,,,,,,,,,,,,,,,,,,,657.7445630000002,657.7611448000007,658.2777666000002,658.2445991000004,,,,,,,,,,,,,,,,,,,,,,,,,,658.2610325000005,658.2777666000002,658.2777666000002,658.2777666000002,661.2610944999997,j,1.7388205000006565,0.16227679999974498,661.2611422999998,661.2611522999996,None,,,,,,,,,,,,,,,,,00025,001,2025-11-14_21h47.43.146,MST_task,2024.2.2,59.971381656497606,2025-11-14 21h47.48.271851 +0530,
,Objects\041a.jpg,145,0,145,,,,,,,j,1.875082399999883,0.13299220000044443,None,,,,,,,145,0,145,0,661.2777277000005,,,,,,,,,,,,,,,,,,,,,,,,,,,,,,661.2612095999993,661.2777277000005,661.794353199999,661.7612907999992,,,,,,,,,,,,,,,,,,,,,,,,,,661.7768522000006,661.794353199999,661.794353199999,661.794353199999,664.7777055999995,j,1.875082399999883,0.13299220000044443,664.7777442999995,664.7777545000008,None,,,,,,,,,,,,,,,,,00025,001,2025-11-14_21h47.43.146,MST_task,2024.2.2,59.971381656497606,2025-11-14 21h47.48.271851 +0530,
,Objects\175a.jpg,146,0,146,,,,,,,j,1.0473689999998896,0.15740100000039092,None,,,,,,,146,0,146,0,664.7943106999992,,,,,,,,,,,,,,,,,,,,,,,,,,,,,,664.777861999999,664.7943106999992,665.3109466000005,665.2777346000003,,,,,,,,,,,,,,,,,,,,,,,,,,665.2933293999995,665.3109466000005,665.3109466000005,665.3109466000005,668.2943914999996,j,1.0473689999998896,0.15740100000039092,668.2944248999993,668.2944348000001,None,,,,,,,,,,,,,,,,,00025,001,2025-11-14_21h47.43.146,MST_task,2024.2.2,59.971381656497606,2025-11-14 21h47.48.271851 +0530,
,Scenes\156a.jpg,147,0,147,,,,,,,j,1.4958251000007294,0.15448539999852073,None,,,,,,,147,0,147,0,668.3109012999994,,,,,,,,,,,,,,,,,,,,,,,,,,,,,,668.2944924999993,668.3109012999994,668.8278188999993,668.7944874000004,,,,,,,,,,,,,,,,,,,,,,,,,,668.8122033,668.8278188999993,668.8278188999993,668.8278188999993,671.8108759999996,j,1.4958251000007294,0.15448539999852073,671.8121229999997,671.8121351999998,None,,,,,,,,,,,,,,,,,00025,001,2025-11-14_21h47.43.146,MST_task,2024.2.2,59.971381656497606,2025-11-14 21h47.48.271851 +0530,
,Scenes\042a.jpg,148,0,148,,,,,,,j,0.8596890000007988,0.17004970000016328,None,,,,,,,148,0,148,0,671.8274872000002,,,,,,,,,,,,,,,,,,,,,,,,,,,,,,671.8122222000002,671.8274872000002,672.3441282000003,672.3109490999996,,,,,,,,,,,,,,,,,,,,,,,,,,672.3269254000006,672.3441282000003,672.3441282000003,672.3441282000003,675.327437599999,j,0.8596890000007988,0.17004970000016328,675.3274707,675.3274796999995,None,,,,,,,,,,,,,,,,,00025,001,2025-11-14_21h47.43.146,MST_task,2024.2.2,59.971381656497606,2025-11-14 21h47.48.271851 +0530,
,Scenes\134a.jpg,149,0,149,,,,,,,j,1.0086824999998498,0.17844609999883687,None,,,,,,,149,0,149,0,675.3440864999993,,,,,,,,,,,,,,,,,,,,,,,,,,,,,,675.3275384999997,675.3440864999993,675.8608922000003,675.8275474000002,,,,,,,,,,,,,,,,,,,,,,,,,,675.8464177999995,675.8608922000003,675.8608922000003,675.8608922000003,678.8440274999994,j,1.0086824999998498,0.17844609999883687,678.8440630000005,678.8440769999997,None,,,,,,,,,,,,,,,,,00025,001,2025-11-14_21h47.43.146,MST_task,2024.2.2,59.971381656497606,2025-11-14 21h47.48.271851 +0530,
,Scenes\143a.jpg,150,0,150,,,,,,,j,1.2223381000003428,0.16254049999952258,None,,,,,,,150,0,150,0,678.860705699999,,,,,,,,,,,,,,,,,,,,,,,,,,,,,,678.8441655000006,678.860705699999,679.3773385000004,679.3441430000003,,,,,,,,,,,,,,,,,,,,,,,,,,679.3625143999998,679.3773385000004,679.3773385000004,679.3773385000004,682.3606488999994,j,1.2223381000003428,0.16254049999952258,682.3606854999998,682.3606956000003,None,,,,,,,,,,,,,,,,,00025,001,2025-11-14_21h47.43.146,MST_task,2024.2.2,59.971381656497606,2025-11-14 21h47.48.271851 +0530,
,Scenes\026a.jpg,151,0,151,,,,,,,j,0.6332417999983591,0.14290640000035637,None,,,,,,,151,0,151,0,682.3772594000002,,,,,,,,,,,,,,,,,,,,,,,,,,,,,,682.3607950999995,682.3772594000002,682.8941574,682.8607360999995,,,,,,,,,,,,,,,,,,,,,,,,,,682.8831893999995,682.8941574,682.8941574,682.8941574,685.8772241999995,j,0.6332417999983591,0.14290640000035637,685.8772585000006,685.8772685000004,None,,,,,,,,,,,,,,,,,00025,001,2025-11-14_21h47.43.146,MST_task,2024.2.2,59.971381656497606,2025-11-14 21h47.48.271851 +0530,
,Scenes\049a.jpg,152,0,152,,,,,,,j,0.8393872000015108,0.15455929999916407,None,,,,,,,152,0,152,0,685.8938952000008,,,,,,,,,,,,,,,,,,,,,,,,,,,,,,685.8773263000003,685.8938952000008,686.4104802999991,686.3774111000002,,,,,,,,,,,,,,,,,,,,,,,,,,686.3927205,686.4104802999991,686.4104802999991,686.4104802999991,689.3937783999991,j,0.8393872000015108,0.15455929999916407,689.3938125000004,689.3938223000005,None,,,,,,,,,,,,,,,,,00025,001,2025-11-14_21h47.43.146,MST_task,2024.2.2,59.971381656497606,2025-11-14 21h47.48.271851 +0530,
,Scenes\047a.jpg,153,0,153,,,,,,,j,0.6955132999992202,0.17318779999914113,None,,,,,,,153,0,153,0,689.4104487999994,,,,,,,,,,,,,,,,,,,,,,,,,,,,,,689.3939066999992,689.4104487999994,689.9271332999997,689.8940368999993,,,,,,,,,,,,,,,,,,,,,,,,,,689.9128032999997,689.9271332999997,689.9271332999997,689.9271332999997,692.9104678999993,j,0.6955132999992202,0.17318779999914113,692.9105020000006,692.9105116999999,None,,,,,,,,,,,,,,,,,00025,001,2025-11-14_21h47.43.146,MST_task,2024.2.2,59.971381656497606,2025-11-14 21h47.48.271851 +0530,
,Objects\104a.jpg,154,0,154,,,,,,,f,1.437593000000561,0.18870439999955124,None,,,,,,,154,0,154,0,692.927072299999,,,,,,,,,,,,,,,,,,,,,,,,,,,,,,692.9106076000007,692.927072299999,693.4439473000002,693.4106166000001,,,,,,,,,,,,,,,,,,,,,,,,,,693.4277540999992,693.4439473000002,693.4439473000002,693.4439473000002,696.427012099999,f,1.437593000000561,0.18870439999955124,696.4286171999993,696.4286284999998,None,,,,,,,,,,,,,,,,,00025,001,2025-11-14_21h47.43.146,MST_task,2024.2.2,59.971381656497606,2025-11-14 21h47.48.271851 +0530,
,Objects\156a.jpg,155,0,155,,,,,,,f,1.1358794999996462,0.18590320000112115,None,,,,,,,155,0,155,0,696.4436623999991,,,,,,,,,,,,,,,,,,,,,,,,,,,,,,696.4287172999993,696.4436623999991,696.9602606000008,696.9271470999993,,,,,,,,,,,,,,,,,,,,,,,,,,696.9438647000006,696.9602606000008,696.9602606000008,696.9602606000008,699.9435577000004,f,1.1358794999996462,0.18590320000112115,699.9435900000008,699.9435988000005,None,,,,,,,,,,,,,,,,,00025,001,2025-11-14_21h47.43.146,MST_task,2024.2.2,59.971381656497606,2025-11-14 21h47.48.271851 +0530,
,Objects\148a.jpg,156,0,156,,,,,,,f,0.5654136000011931,0.1533300999999483,None,,,,,,,156,0,156,0,699.9602321000002,,,,,,,,,,,,,,,,,,,,,,,,,,,,,,699.9436645000005,699.9602321000002,700.4768894999997,700.4436712000006,,,,,,,,,,,,,,,,,,,,,,,,,,700.4603296999994,700.4768894999997,700.4768894999997,700.4768894999997,703.4601820999997,f,0.5654136000011931,0.1533300999999483,703.4602295000004,703.4602391000008,None,,,,,,,,,,,,,,,,,00025,001,2025-11-14_21h47.43.146,MST_task,2024.2.2,59.971381656497606,2025-11-14 21h47.48.271851 +0530,
,Objects\035a.jpg,157,0,157,,,,,,,j,1.2606739999991987,0.13366060000043944,None,,,,,,,157,0,157,0,703.4768201999996,,,,,,,,,,,,,,,,,,,,,,,,,,,,,,703.4602961,703.4768201999996,703.9934737000003,703.9603523000005,,,,,,,,,,,,,,,,,,,,,,,,,,703.9753987999993,703.9934737000003,703.9934737000003,703.9934737000003,706.9767429000003,j,1.2606739999991987,0.13366060000043944,706.9767981000005,706.9768081000002,None,,,,,,,,,,,,,,,,,00025,001,2025-11-14_21h47.43.146,MST_task,2024.2.2,59.971381656497606,2025-11-14 21h47.48.271851 +0530,
,Objects\044a.jpg,158,0,158,,,,,,,f,0.7939380000007077,0.19438459999946645,None,,,,,,,158,0,158,0,706.9934071999996,,,,,,,,,,,,,,,,,,,,,,,,,,,,,,706.9768664000003,706.9934071999996,,707.4769037000005,,,,,,,,,,,,,,,,,,,,,,,,,,707.4921329000008,707.5101037999993,707.5101037999993,707.5101037999993,710.4933357999998,f,0.7939380000007077,0.19438459999946645,710.493368899999,710.493377499999,None,,,,,,,,,,,,,,,,,00025,001,2025-11-14_21h47.43.146,MST_task,2024.2.2,59.971381656497606,2025-11-14 21h47.48.271851 +0530,
,Objects\060a.jpg,159,0,159,,,,,,,j,0.7714429999996355,0.14002820000132488,None,,,,,,,159,0,159,0,710.5100244000005,,,,,,,,,,,,,,,,,,,,,,,,,,,,,,710.4934491999993,710.5100244000005,711.0266377000007,710.9935714999992,,,,,,,,,,,,,,,,,,,,,,,,,,711.0099773000002,711.0266377000007,711.0266377000007,711.0266377000007,713.9934441999994,j,0.7714429999996355,0.14002820000132488,713.9935052000001,713.9935146999997,None,,,,,,,,,,,,,,,,,00025,001,2025-11-14_21h47.43.146,MST_task,2024.2.2,59.971381656497606,2025-11-14 21h47.48.271851 +0530,
,Objects\096a.jpg,160,0,160,,,,,,,j,1.801090099999783,0.17822130000058678,None,,,,,,,160,0,160,0,714.0099238999992,,,,,,,,,,,,,,,,,,,,,,,,,,,,,,713.9935740000001,714.0099238999992,714.5265412000008,714.4934670999992,,,,,,,,,,,,,,,,,,,,,,,,,,714.5092041999997,714.5265412000008,714.5265412000008,714.5265412000008,717.5098849000005,j,1.801090099999783,0.17822130000058678,717.5099255999994,717.5099460999991,None,,,,,,,,,,,,,,,,,00025,001,2025-11-14_21h47.43.146,MST_task,2024.2.2,59.971381656497606,2025-11-14 21h47.48.271851 +0530,
,Scenes\169a.jpg,161,0,161,,,,,,,j,0.862479200000962,0.14002509999954782,None,,,,,,,161,0,161,0,717.5265142000007,,,,,,,,,,,,,,,,,,,,,,,,,,,,,,717.5100488999997,717.5265142000007,718.0431358000005,718.0100791000004,,,,,,,,,,,,,,,,,,,,,,,,,,718.0262600000005,718.0431358000005,718.0431358000005,718.0431358000005,721.0264743000007,j,0.862479200000962,0.14002509999954782,721.0276541000003,721.0276647999999,None,,,,,,,,,,,,,,,,,00025,001,2025-11-14_21h47.43.146,MST_task,2024.2.2,59.971381656497606,2025-11-14 21h47.48.271851 +0530,
,Scenes\090a.jpg,162,0,162,,,,,,,j,0.7217395000006945,0.144730800000616,None,,,,,,,162,0,162,0,721.0430591000004,,,,,,,,,,,,,,,,,,,,,,,,,,,,,,721.0277220999997,721.0430591000004,721.5597684999993,721.5265904999997,,,,,,,,,,,,,,,,,,,,,,,,,,721.5464893999997,721.5597684999993,721.5597684999993,721.5597684999993,724.5430653000003,j,0.7217395000006945,0.144730800000616,724.543101199999,724.5431100999995,None,,,,,,,,,,,,,,,,,00025,001,2025-11-14_21h47.43.146,MST_task,2024.2.2,59.971381656497606,2025-11-14 21h47.48.271851 +0530,
,Scenes\152a.jpg,163,0,163,,,,,,,j,1.2151176999996096,0.1762990000006539,None,,,,,,,163,0,163,0,724.5596623999991,,,,,,,,,,,,,,,,,,,,,,,,,,,,,,724.543214199999,724.5596623999991,725.0763143000004,725.0431501999992,,,,,,,,,,,,,,,,,,,,,,,,,,725.0583597999994,725.0763143000004,725.0763143000004,725.0763143000004,728.0596698999998,j,1.2151176999996096,0.1762990000006539,728.0597035999999,728.0597132999992,None,,,,,,,,,,,,,,,,,00025,001,2025-11-14_21h47.43.146,MST_task,2024.2.2,59.971381656497606,2025-11-14 21h47.48.271851 +0530,
,Scenes\032a.jpg,164,0,164,,,,,,,j,0.9843424999999115,0.13466340000013588,None,,,,,,,164,0,164,0,728.0762830999993,,,,,,,,,,,,,,,,,,,,,,,,,,,,,,728.0597995000007,728.0762830999993,728.5931961000006,728.5598162000006,,,,,,,,,,,,,,,,,,,,,,,,,,728.5818507999993,728.5931961000006,728.5931961000006,728.5931961000006,731.5762455999993,j,0.9843424999999115,0.13466340000013588,731.5762782999991,731.5762875,None,,,,,,,,,,,,,,,,,00025,001,2025-11-14_21h47.43.146,MST_task,2024.2.2,59.971381656497606,2025-11-14 21h47.48.271851 +0530,
,Scenes\185a.jpg,165,0,165,,,,,,,j,1.3826670999987982,0.13539510000009614,None,,,,,,,165,0,165,0,731.5928796000007,,,,,,,,,,,,,,,,,,,,,,,,,,,,,,731.5763456000004,731.5928796000007,732.1097578000008,732.076422099999,,,,,,,,,,,,,,,,,,,,,,,,,,732.0921612999991,732.1097578000008,732.1097578000008,732.1097578000008,735.0928401000001,j,1.3826670999987982,0.13539510000009614,735.0928733000001,735.0928822000005,None,,,,,,,,,,,,,,,,,00025,001,2025-11-14_21h47.43.146,MST_task,2024.2.2,59.971381656497606,2025-11-14 21h47.48.271851 +0530,
,Scenes\040a.jpg,166,0,166,,,,,,,f,1.0615032000005158,0.19426299999940966,None,,,,,,,166,0,166,0,735.1094668999995,,,,,,,,,,,,,,,,,,,,,,,,,,,,,,735.0929397,735.1094668999995,735.6263244999991,735.5930503,,,,,,,,,,,,,,,,,,,,,,,,,,735.6114699999998,735.6263244999991,735.6263244999991,735.6263244999991,738.6095977999994,f,1.0615032000005158,0.19426299999940966,738.6096364999994,738.6096462999994,None,,,,,,,,,,,,,,,,,00025,001,2025-11-14_21h47.43.146,MST_task,2024.2.2,59.971381656497606,2025-11-14 21h47.48.271851 +0530,
,Scenes\139a.jpg,167,0,167,,,,,,,j,0.9131250999998883,0.13003300000127638,None,,,,,,,167,0,167,0,738.6261400000003,,,,,,,,,,,,,,,,,,,,,,,,,,,,,,738.6097382000007,738.6261400000003,739.1428352999992,739.1096276000007,,,,,,,,,,,,,,,,,,,,,,,,,,739.1238444999999,739.1428352999992,739.1428352999992,739.1428352999992,742.1260366999995,j,0.9131250999998883,0.13003300000127638,742.1260698999995,742.1260815000005,None,,,,,,,,,,,,,,,,,00025,001,2025-11-14_21h47.43.146,MST_task,2024.2.2,59.971381656497606,2025-11-14 21h47.48.271851 +0530,
,Objects\095a.jpg,168,0,168,,,,,,,f,2.0863033999994514,0.1738973999999871,None,,,,,,,168,0,168,0,742.1427719999992,,,,,,,,,,,,,,,,,,,,,,,,,,,,,,742.126177099999,742.1427719999992,742.6596472000001,742.6262979000003,,,,,,,,,,,,,,,,,,,,,,,,,,742.6440765999996,742.6596472000001,742.6596472000001,742.6596472000001,745.6426716000005,f,2.0863033999994514,0.1738973999999871,745.6442028000001,745.6442141000007,None,,,,,,,,,,,,,,,,,00025,001,2025-11-14_21h47.43.146,MST_task,2024.2.2,59.971381656497606,2025-11-14 21h47.48.271851 +0530,
,Objects\179a.jpg,169,0,169,,,,,,,f,1.0960477000007813,0.16226819999974396,None,,,,,,,169,0,169,0,745.6593962999996,,,,,,,,,,,,,,,,,,,,,,,,,,,,,,745.6443001000007,745.6593962999996,746.1759533999993,746.1428699999997,,,,,,,,,,,,,,,,,,,,,,,,,,746.1584144000008,746.1759533999993,746.1759533999993,746.1759533999993,749.1593238999994,f,1.0960477000007813,0.16226819999974396,749.1593568000008,749.1593668999994,None,,,,,,,,,,,,,,,,,00025,001,2025-11-14_21h47.43.146,MST_task,2024.2.2,59.971381656497606,2025-11-14 21h47.48.271851 +0530,
