Sl_no,image_path,thisN,thisTrialN,thisRepN,key_resp_5.keys,key_resp_7.keys,key_resp_7.rt,key_resp_7.duration,key_resp_5.rt,key_resp_5.duration,key_resp_9.keys,key_resp_8.keys,key_resp_8.rt,key_resp_8.duration,key_resp_9.rt,key_resp_9.duration,practice.thisRepN,practice.thisTrialN,practice.thisN,trials.thisRepN,trials.thisTrialN,trials.thisN,thisRow.t,notes,welcome_page.started,text.started,key_resp.started,welcome_page.stopped,key_resp.keys,key_resp.rt,key_resp.duration,instructions.started,ins.started,key_resp_2.started,instructions.stopped,key_resp_2.keys,key_resp_2.rt,key_resp_2.duration,instructions_2.started,text_10.started,key_resp_10.started,instructions_2.stopped,key_resp_10.keys,key_resp_10.rt,key_resp_10.duration,objects_only_instruction.started,text_3.started,key_resp_3.started,objects_only_instruction.stopped,key_resp_3.keys,key_resp_3.rt,key_resp_3.duration,ISI.started,text_4.started,ISI.stopped,practice_block.started,image.started,text_5.started,key_resp_5.started,practice_block.stopped,practice.key_resp_5.keys,indoor_outdoor.started,text_7.started,key_resp_7.started,indoor_outdoor.stopped,practice.key_resp_7.keys,practice.key_resp_7.rt,practice.key_resp_7.duration,text_4.stopped,image.stopped,text_5.stopped,key_resp_5.stopped,practice.key_resp_5.rt,practice.key_resp_5.duration,practice_to_main.started,text_2.started,key_resp_4.started,practice_to_main.stopped,key_resp_4.keys,key_resp_4.rt,key_resp_4.duration,objects.started,image_2.started,text_9.started,key_resp_9.started,objects.stopped,trials.key_resp_9.keys,encoding_task.started,text_8.started,key_resp_8.started,encoding_task.stopped,trials.key_resp_8.keys,trials.key_resp_8.rt,trials.key_resp_8.duration,trials.key_resp_9.rt,trials.key_resp_9.duration,image_2.stopped,text_9.stopped,key_resp_9.stopped,end_experiment.started,text_6.started,key_resp_6.started,end_experiment.stopped,key_resp_6.keys,key_resp_6.rt,key_resp_6.duration,list_of_stimuli,encoding_task_accuracy,participant,session,date,expName,psychopyVersion,frameRate,expStart,
,,,,,,,,,,,,,,,,,,,,,,,,,0.0017648000000036745,0.00416870000000813,0.00416870000000813,20.57525430000001,space,20.51489450000001,None,,,,,,,,,,,,,,,,,,,,,,,,,,,,,,,,,,,,,,,,,,,,,,,,,,,,,,,,,,,,,,,,,,,,,,,,,,,,,,00027,001,2025-11-17_14h45.33.830,MST_task,2024.2.0,59.95635177590829,2025-11-17 14h45.43.624995 +0530,
,,,,,,,,,,,,,,,,,,,,,,,,,,,,,,,,20.57529500000001,20.588689799999997,20.588689799999997,38.28586519999999,space,17.682473700000003,None,,,,,,,,,,,,,,,,,,,,,,,,,,,,,,,,,,,,,,,,,,,,,,,,,,,,,,,,,,,,,,,,,,,,,,,00027,001,2025-11-17_14h45.33.830,MST_task,2024.2.0,59.95635177590829,2025-11-17 14h45.43.624995 +0530,
,,,,,,,,,,,,,,,,,,,,,,,,,,,,,,,,,,,,,,,38.285898,38.30177689999999,38.30177689999999,50.42096040000001,space,12.105010399999998,None,,,,,,,,,,,,,,,,,,,,,,,,,,,,,,,,,,,,,,,,,,,,,,,,,,,,,,,,,,,,,,,,00027,001,2025-11-17_14h45.33.830,MST_task,2024.2.0,59.95635177590829,2025-11-17 14h45.43.624995 +0530,
,,,,,,,,,,,,,,,,,,,,,,,,,,,,,,,,,,,,,,,,,,,,,,50.4210899,50.43537660000001,50.43537660000001,68.2534862,space,17.803607599999992,None,,,,,,,,,,,,,,,,,,,,,,,,,,,,,,,,,,,,,,,,,,,,,,,,,,,,,,,,,00027,001,2025-11-17_14h45.33.830,MST_task,2024.2.0,59.95635177590829,2025-11-17 14h45.43.624995 +0530,
6,practice_images/158a.jpg,0,0,1,None,j,1.9742312000000197,None,,,,,,,,,1,0,0,,,,68.2772089,,,,,,,,,,,,,,,,,,,,,,,,,,,,,,68.27463549999999,68.2772089,68.7682816,68.7824525,68.7945086,68.7945086,68.7945086,71.76873219999999,None,71.7704474,71.785041,71.785041,73.7690097,j,1.9742312000000197,None,,,,,,,,,,,,,,,,,,,,,,,,,,,,,,,,,,,,,,,,,00027,001,2025-11-17_14h45.33.830,MST_task,2024.2.0,59.95635177590829,2025-11-17 14h45.43.624995 +0530,
9,practice_images/180a.jpg,1,1,1,f,None,,,1.9931664000000069,0.10405039999997712,,,,,,,1,1,1,,,,73.7851224,,,,,,,,,,,,,,,,,,,,,,,,,,,,,,73.7691815,73.7851224,74.26843360000001,74.2793321,74.2854092,74.2854092,74.2854092,77.2688517,f,77.26890560000001,,,77.26892520000001,None,,,74.2854092,77.2850272,77.2850272,77.2850272,1.9931664000000069,0.10405039999997712,,,,,,,,,,,,,,,,,,,,,,,,,,,,,,,,,,,00027,001,2025-11-17_14h45.33.830,MST_task,2024.2.0,59.95635177590829,2025-11-17 14h45.43.624995 +0530,
8,practice_images/178a.jpg,2,2,1,None,j,0.3412277999999844,None,,,,,,,,,1,2,2,,,,77.2850272,,,,,,,,,,,,,,,,,,,,,,,,,,,,,,77.2690207,77.2850272,77.7698097,77.788478,77.7908376,77.7908376,77.7908376,80.76912809999999,None,80.76926019999999,80.78536360000001,80.78536360000001,81.1374262,j,0.3412277999999844,None,77.7908376,,,,,,,,,,,,,,,,,,,,,,,,,,,,,,,,,,,,,,,,00027,001,2025-11-17_14h45.33.830,MST_task,2024.2.0,59.95635177590829,2025-11-17 14h45.43.624995 +0530,
1,practice_images/013a.jpg,3,3,1,None,j,0.617933000000022,None,,,,,,,,,1,3,3,,,,81.1518925,,,,,,,,,,,,,,,,,,,,,,,,,,,,,,81.13767519999999,81.1518925,81.6368052,81.6535443,81.65622490000001,81.65622490000001,81.65622490000001,84.6527151,None,84.65286420000001,84.66875329999999,84.66875329999999,85.3041767,j,0.617933000000022,None,81.65622490000001,,,,,,,,,,,,,,,,,,,,,,,,,,,,,,,,,,,,,,,,00027,001,2025-11-17_14h45.33.830,MST_task,2024.2.0,59.95635177590829,2025-11-17 14h45.43.624995 +0530,
7,practice_images/166a.jpg,4,4,1,None,f,0.37126880000002416,None,,,,,,,,,1,4,4,,,,85.31857640000001,,,,,,,,,,,,,,,,,,,,,,,,,,,,,,85.3045678,85.31857640000001,85.8031119,85.819178,85.8216467,85.8216467,85.8216467,88.81956550000001,None,88.819694,88.83545470000001,88.83545470000001,89.2208048,f,0.37126880000002416,None,85.8216467,,,,,,,,,,,,,,,,,,,,,,,,,,,,,,,,,,,,,,,,00027,001,2025-11-17_14h45.33.830,MST_task,2024.2.0,59.95635177590829,2025-11-17 14h45.43.624995 +0530,
4,practice_images/002b.jpg,5,5,1,None,j,3.1350135999999793,None,,,,,,,,,1,5,5,,,,89.23543559999999,,,,,,,,,,,,,,,,,,,,,,,,,,,,,,89.2211728,89.23543559999999,89.7195155,89.7354353,89.73787999999999,89.73787999999999,89.73787999999999,92.7355322,None,92.73823100000001,92.7518057,92.7518057,95.9021975,j,3.1350135999999793,None,89.73787999999999,,,,,,,,,,,,,,,,,,,,,,,,,,,,,,,,,,,,,,,,00027,001,2025-11-17_14h45.33.830,MST_task,2024.2.0,59.95635177590829,2025-11-17 14h45.43.624995 +0530,
2,practice_images/031a.jpg,6,6,1,None,f,0.40423889999999574,None,,,,,,,,,1,6,6,,,,95.9185286,,,,,,,,,,,,,,,,,,,,,,,,,,,,,,95.90228479999999,95.9185286,96.40200619999999,96.4108669,96.41874519999999,96.41874519999999,96.41874519999999,99.4022607,None,99.4022971,99.4186067,99.4186067,99.83547820000001,f,0.40423889999999574,None,96.41874519999999,,,,,,,,,,,,,,,,,,,,,,,,,,,,,,,,,,,,,,,,00027,001,2025-11-17_14h45.33.830,MST_task,2024.2.0,59.95635177590829,2025-11-17 14h45.43.624995 +0530,
3,practice_images/037a.jpg,7,7,1,None,f,0.6306377999999881,None,,,,,,,,,1,7,7,,,,99.85176999999999,,,,,,,,,,,,,,,,,,,,,,,,,,,,,,99.8355618,99.85176999999999,100.33531930000001,100.34369040000001,100.35209220000002,100.35209220000002,100.35209220000002,103.33569840000001,None,103.33573340000001,103.35175100000001,103.35175100000001,103.98609289999999,f,0.6306377999999881,None,100.35209220000002,103.35175100000001,103.35175100000001,103.35175100000001,,,,,,,,,,,,,,,,,,,,,,,,,,,,,,,,,,,,,00027,001,2025-11-17_14h45.33.830,MST_task,2024.2.0,59.95635177590829,2025-11-17 14h45.43.624995 +0530,
5,practice_images/139a.jpg,8,8,1,j,None,,,2.8160119000000066,None,,,,,,,1,8,8,,,,104.0018015,,,,,,,,,,,,,,,,,,,,,,,,,,,,,,103.98618160000001,104.0018015,104.48526150000001,104.49318679999999,104.50234560000001,104.50234560000001,104.50234560000001,107.4857782,j,107.48581469999999,,,107.485828,None,,,104.50234560000001,107.50191989999999,107.50191989999999,107.50191989999999,2.8160119000000066,None,,,,,,,,,,,,,,,,,,,,,,,,,,,,,,,,,,,00027,001,2025-11-17_14h45.33.830,MST_task,2024.2.0,59.95635177590829,2025-11-17 14h45.43.624995 +0530,
10,practice_images/182a.jpg,9,9,1,None,f,1.7576164000000176,None,,,,,,,,,1,9,9,,,,107.50191989999999,,,,,,,,,,,,,,,,,,,,,,,,,,,,,,107.48588939999999,107.50191989999999,107.9852726,107.99677890000001,108.0021059,108.0021059,108.0021059,110.98642240000001,None,110.9865441,111.0018723,111.0018723,112.77062000000001,f,1.7576164000000176,None,108.0021059,111.0018723,111.0018723,111.0018723,,,,,,,,,,,,,,,,,,,,,,,,,,,,,,,,,,,,,00027,001,2025-11-17_14h45.33.830,MST_task,2024.2.0,59.95635177590829,2025-11-17 14h45.43.624995 +0530,
,,,,,,,,,,,,,,,,,,,,,,,,,,,,,,,,,,,,,,,,,,,,,,,,,,,,,,,,,,,,,,,,,,,,,,,,,,,112.7708963,112.7851901,112.7851901,148.2208135,space,35.4221972,None,,,,,,,,,,,,,,,,,,,,,,,,,,,,00027,001,2025-11-17_14h45.33.830,MST_task,2024.2.0,59.95635177590829,2025-11-17 14h45.43.624995 +0530,
,Objects\170a.jpg,0,0,1,,,,,,,None,j,3.9029299999999694,None,,,,,,1,0,0,148.2351662,,,,,,,,,,,,,,,,,,,,,,,,,,,,,,148.2241903,148.2351662,148.7199795,,,,,,,,,,,,,,148.7480861,,,,,,,,,,,,,148.74435530000002,148.7480861,148.7480861,148.7480861,151.73610870000002,None,151.74451839999998,151.7517834,151.7517834,155.6706098,j,3.9029299999999694,None,,,,,,,,,,,,,,,00027,001,2025-11-17_14h45.33.830,MST_task,2024.2.0,59.95635177590829,2025-11-17 14h45.43.624995 +0530,
,Objects\065a.jpg,1,0,2,,,,,,,j,None,,,1.914781000000005,0.15177940000000945,,,,2,0,1,155.6853042,,,,,,,,,,,,,,,,,,,,,,,,,,,,,,155.6710348,155.6853042,156.16945790000003,,,,,,,,,,,,,,156.1880866,,,,,,,,,,,,,156.18565800000002,156.1880866,156.1880866,156.1880866,159.18590709999998,j,159.1860811,,,159.18614290000002,None,,,1.914781000000005,0.15177940000000945,,,,,,,,,,,,,00027,001,2025-11-17_14h45.33.830,MST_task,2024.2.0,59.95635177590829,2025-11-17 14h45.43.624995 +0530,
,Objects\083a.jpg,2,0,3,,,,,,,f,None,,,1.4195070999999757,0.16011819999999943,,,,3,0,2,159.20184700000001,,,,,,,,,,,,,,,,,,,,,,,,,,,,,,159.18656819999998,159.20184700000001,159.68635880000002,,,,,,,,,,,,,,159.70731800000001,,,,,,,,,,,,,159.7047522,159.70731800000001,159.70731800000001,159.70731800000001,162.70257569999998,f,162.7027515,,,162.70282790000002,None,,,1.4195070999999757,0.16011819999999943,,,,,,,,,,,,,00027,001,2025-11-17_14h45.33.830,MST_task,2024.2.0,59.95635177590829,2025-11-17 14h45.43.624995 +0530,
,Objects\029a.jpg,3,0,4,,,,,,,f,None,,,1.8831012999999643,0.1598789000000238,,,,4,0,3,162.7185274,,,,,,,,,,,,,,,,,,,,,,,,,,,,,,162.7032427,162.7185274,163.20284590000003,,,,,,,,,,,,,,163.22033159999998,,,,,,,,,,,,,163.2176517,163.22033159999998,163.22033159999998,163.22033159999998,166.21915750000002,f,166.2193324,,,166.2193948,None,,,1.8831012999999643,0.1598789000000238,,,,,,,,,,,,,00027,001,2025-11-17_14h45.33.830,MST_task,2024.2.0,59.95635177590829,2025-11-17 14h45.43.624995 +0530,
,Objects\110a.jpg,4,0,5,,,,,,,f,None,,,1.1849296999999979,0.1436658999999736,,,,5,0,4,166.2354754,,,,,,,,,,,,,,,,,,,,,,,,,,,,,,166.21985850000002,166.2354754,166.7195824,,,,,,,,,,,,,,166.7583681,,,,,,,,,,,,,166.7556529,166.7583681,166.7583681,166.7583681,169.73572900000002,f,169.7358267,,,169.7358513,None,,,1.1849296999999979,0.1436658999999736,,,,,,,,,,,,,00027,001,2025-11-17_14h45.33.830,MST_task,2024.2.0,59.95635177590829,2025-11-17 14h45.43.624995 +0530,
,Objects\158a.jpg,5,0,6,,,,,,,f,None,,,1.4161546000000271,0.1443258999999557,,,,6,0,5,169.7520165,,,,,,,,,,,,,,,,,,,,,,,,,,,,,,169.7359875,169.7520165,170.23645510000003,,,,,,,,,,,,,,170.25450450000002,,,,,,,,,,,,,170.25185860000002,170.25450450000002,170.25450450000002,170.25450450000002,173.23610470000003,f,173.2362755,,,173.23633780000003,None,,,1.4161546000000271,0.1443258999999557,,,,,,,,,,,,,00027,001,2025-11-17_14h45.33.830,MST_task,2024.2.0,59.95635177590829,2025-11-17 14h45.43.624995 +0530,
,Objects\181a.jpg,6,0,7,,,,,,,j,None,,,1.2680258000000322,0.19150580000001582,,,,7,0,6,173.2521386,,,,,,,,,,,,,,,,,,,,,,,,,,,,,,173.2367616,173.2521386,173.73628470000003,,,,,,,,,,,,,,173.75519569999997,,,,,,,,,,,,,173.75266059999998,173.75519569999997,173.75519569999997,173.75519569999997,176.7526152,j,176.75278440000002,,,176.7528465,None,,,1.2680258000000322,0.19150580000001582,,,,,,,,,,,,,00027,001,2025-11-17_14h45.33.830,MST_task,2024.2.0,59.95635177590829,2025-11-17 14h45.43.624995 +0530,
,Scenes\051a.jpg,7,0,8,,,,,,,j,None,,,2.762646700000005,0.18338860000000068,,,,8,0,7,176.76860739999998,,,,,,,,,,,,,,,,,,,,,,,,,,,,,,176.75315559999999,176.76860739999998,177.25326270000002,,,,,,,,,,,,,,177.28484740000002,,,,,,,,,,,,,177.28153310000002,177.28484740000002,177.28484740000002,177.28484740000002,180.26931399999998,j,180.275185,,,180.27522000000002,None,,,2.762646700000005,0.18338860000000068,,,,,,,,,,,,,00027,001,2025-11-17_14h45.33.830,MST_task,2024.2.0,59.95635177590829,2025-11-17 14h45.43.624995 +0530,
,Scenes\170a.jpg,8,0,9,,,,,,,j,None,,,2.05758179999998,0.1761553000000049,,,,9,0,8,180.28518620000003,,,,,,,,,,,,,,,,,,,,,,,,,,,,,,180.2754292,180.28518620000003,180.7695174,,,,,,,,,,,,,,180.7970607,,,,,,,,,,,,,180.79381149999998,180.7970607,180.7970607,180.7970607,183.7859827,j,183.78616350000001,,,183.7862282,None,,,2.05758179999998,0.1761553000000049,,,,,,,,,,,,,00027,001,2025-11-17_14h45.33.830,MST_task,2024.2.0,59.95635177590829,2025-11-17 14h45.43.624995 +0530,
,Scenes\180a.jpg,9,0,10,,,,,,,j,None,,,1.0557971000000066,0.16741489999998294,,,,10,0,9,183.80194429999997,,,,,,,,,,,,,,,,,,,,,,,,,,,,,,183.7865432,183.80194429999997,184.28639439999998,,,,,,,,,,,,,,184.3113784,,,,,,,,,,,,,184.30819470000003,184.3113784,184.3113784,184.3113784,187.30265269999998,j,187.3028426,,,187.3029066,None,,,1.0557971000000066,0.16741489999998294,,,,,,,,,,,,,00027,001,2025-11-17_14h45.33.830,MST_task,2024.2.0,59.95635177590829,2025-11-17 14h45.43.624995 +0530,
,Scenes\105a.jpg,10,0,11,,,,,,,j,None,,,1.1998268000000394,0.16046319999998104,,,,11,0,10,187.31867730000002,,,,,,,,,,,,,,,,,,,,,,,,,,,,,,187.30321460000002,187.31867730000002,187.80300730000002,,,,,,,,,,,,,,187.83079389999997,,,,,,,,,,,,,187.8275523,187.83079389999997,187.83079389999997,187.83079389999997,190.8192175,j,190.8193659,,,190.81941609999998,None,,,1.1998268000000394,0.16046319999998104,,,,,,,,,,,,,00027,001,2025-11-17_14h45.33.830,MST_task,2024.2.0,59.95635177590829,2025-11-17 14h45.43.624995 +0530,
,Scenes\069a.jpg,11,0,12,,,,,,,j,None,,,1.3372470999999564,0.18450690000003078,,,,12,0,11,190.83525390000003,,,,,,,,,,,,,,,,,,,,,,,,,,,,,,190.8197673,190.83525390000003,191.31958899999998,,,,,,,,,,,,,,191.34133160000002,,,,,,,,,,,,,191.3381067,191.34133160000002,191.34133160000002,191.34133160000002,194.33581260000003,j,194.3359859,,,194.3360466,None,,,1.3372470999999564,0.18450690000003078,,,,,,,,,,,,,00027,001,2025-11-17_14h45.33.830,MST_task,2024.2.0,59.95635177590829,2025-11-17 14h45.43.624995 +0530,
,Scenes\023a.jpg,12,0,13,,,,,,,f,None,,,1.1289396000000238,0.18287209999999732,,,,13,0,12,194.35195639999998,,,,,,,,,,,,,,,,,,,,,,,,,,,,,,194.33647870000001,194.35195639999998,194.8355696,,,,,,,,,,,,,,194.8629154,,,,,,,,,,,,,194.85938360000003,194.8629154,194.8629154,194.8629154,197.85283719999998,f,197.85301009999998,,,197.85307279999998,None,,,1.1289396000000238,0.18287209999999732,,,,,,,,,,,,,00027,001,2025-11-17_14h45.33.830,MST_task,2024.2.0,59.95635177590829,2025-11-17 14h45.43.624995 +0530,
,Scenes\164a.jpg,13,0,14,,,,,,,j,None,,,2.9261688000000277,None,,,,14,0,13,197.86856379999998,,,,,,,,,,,,,,,,,,,,,,,,,,,,,,197.85351569999997,197.86856379999998,198.3530325,,,,,,,,,,,,,,198.37716550000002,,,,,,,,,,,,,198.3737002,198.37716550000002,198.37716550000002,198.37716550000002,201.369065,j,201.3692177,,,201.36927219999998,None,,,2.9261688000000277,None,,,,,,,,,,,,,00027,001,2025-11-17_14h45.33.830,MST_task,2024.2.0,59.95635177590829,2025-11-17 14h45.43.624995 +0530,
,Objects\054a.jpg,14,0,15,,,,,,,j,None,,,2.4012783000000013,0.19193959999995513,,,,15,0,14,201.385303,,,,,,,,,,,,,,,,,,,,,,,,,,,,,,201.3695868,201.385303,201.86873060000002,,,,,,,,,,,,,,201.9101638,,,,,,,,,,,,,201.90742050000003,201.9101638,201.9101638,201.9101638,204.88625549999998,j,204.89304009999998,,,204.893073,None,,,2.4012783000000013,0.19193959999995513,,,,,,,,,,,,,00027,001,2025-11-17_14h45.33.830,MST_task,2024.2.0,59.95635177590829,2025-11-17 14h45.43.624995 +0530,
,Objects\040a.jpg,15,0,16,,,,,,,j,None,,,2.2086213000000043,0.14412179999999353,,,,16,0,15,204.9018654,,,,,,,,,,,,,,,,,,,,,,,,,,,,,,204.8932692,204.9018654,205.38664500000002,,,,,,,,,,,,,,205.4059971,,,,,,,,,,,,,205.40324999999999,205.4059971,205.4059971,205.4059971,208.4026284,j,208.40298249999998,,,208.40305400000003,None,,,2.2086213000000043,0.14412179999999353,,,,,,,,,,,,,00027,001,2025-11-17_14h45.33.830,MST_task,2024.2.0,59.95635177590829,2025-11-17 14h45.43.624995 +0530,
,Objects\075a.jpg,16,0,17,,,,,,,f,None,,,0.9407130999999822,0.19192509999999174,,,,17,0,16,208.4187031,,,,,,,,,,,,,,,,,,,,,,,,,,,,,,208.4033479,208.4187031,208.90307099999998,,,,,,,,,,,,,,208.9226426,,,,,,,,,,,,,208.91994760000003,208.9226426,208.9226426,208.9226426,211.91929330000002,f,211.91956739999998,,,211.91970089999998,None,,,0.9407130999999822,0.19192509999999174,,,,,,,,,,,,,00027,001,2025-11-17_14h45.33.830,MST_task,2024.2.0,59.95635177590829,2025-11-17 14h45.43.624995 +0530,
,Objects\098a.jpg,17,0,18,,,,,,,f,None,,,1.1449746000000118,0.15956180000000586,,,,18,0,17,211.93541760000002,,,,,,,,,,,,,,,,,,,,,,,,,,,,,,211.9202096,211.93541760000002,212.4195859,,,,,,,,,,,,,,212.43853,,,,,,,,,,,,,212.43609940000002,212.43853,212.43853,212.43853,215.4359317,f,215.4361009,,,215.4361635,None,,,1.1449746000000118,0.15956180000000586,,,,,,,,,,,,,00027,001,2025-11-17_14h45.33.830,MST_task,2024.2.0,59.95635177590829,2025-11-17 14h45.43.624995 +0530,
,Objects\046a.jpg,18,0,19,,,,,,,j,None,,,1.6497736999999688,0.11178469999998697,,,,19,0,18,215.45204450000003,,,,,,,,,,,,,,,,,,,,,,,,,,,,,,215.4366269,215.45204450000003,215.93633029999998,,,,,,,,,,,,,,215.97302720000002,,,,,,,,,,,,,215.97024460000003,215.97302720000002,215.97302720000002,215.97302720000002,218.95241890000003,j,218.95254300000002,,,218.9525856,None,,,1.6497736999999688,0.11178469999998697,,,,,,,,,,,,,00027,001,2025-11-17_14h45.33.830,MST_task,2024.2.0,59.95635177590829,2025-11-17 14h45.43.624995 +0530,
,Objects\161a.jpg,19,0,20,,,,,,,f,None,,,1.28693770000001,0.1370337000000177,,,,20,0,19,218.9687314,,,,,,,,,,,,,,,,,,,,,,,,,,,,,,218.9528182,218.9687314,219.45320360000002,,,,,,,,,,,,,,219.4716915,,,,,,,,,,,,,219.4690204,219.4716915,219.4716915,219.4716915,222.4527798,f,222.45297689999998,,,222.45303980000003,None,,,1.28693770000001,0.1370337000000177,,,,,,,,,,,,,00027,001,2025-11-17_14h45.33.830,MST_task,2024.2.0,59.95635177590829,2025-11-17 14h45.43.624995 +0530,
,Objects\039a.jpg,20,0,21,,,,,,,j,None,,,0.9176196000000232,0.11148019999995995,,,,21,0,20,222.4686293,,,,,,,,,,,,,,,,,,,,,,,,,,,,,,222.4533534,222.4686293,222.952865,,,,,,,,,,,,,,222.9700405,,,,,,,,,,,,,222.9675187,222.9700405,222.9700405,222.9700405,225.9691278,j,225.96929939999998,,,225.96936200000002,None,,,0.9176196000000232,0.11148019999995995,,,,,,,,,,,,,00027,001,2025-11-17_14h45.33.830,MST_task,2024.2.0,59.95635177590829,2025-11-17 14h45.43.624995 +0530,
,Scenes\152a.jpg,21,0,22,,,,,,,j,None,,,1.568430400000011,0.20772220000003472,,,,22,0,21,225.9853168,,,,,,,,,,,,,,,,,,,,,,,,,,,,,,225.969818,225.9853168,226.4695331,,,,,,,,,,,,,,226.49438260000002,,,,,,,,,,,,,226.4912884,226.49438260000002,226.49438260000002,226.49438260000002,229.48583069999998,j,229.4913473,,,229.49138610000003,None,,,1.568430400000011,0.20772220000003472,,,,,,,,,,,,,00027,001,2025-11-17_14h45.33.830,MST_task,2024.2.0,59.95635177590829,2025-11-17 14h45.43.624995 +0530,
,Scenes\043a.jpg,22,0,23,,,,,,,None,j,0.06840080000000626,None,,,,,,23,0,22,229.5018613,,,,,,,,,,,,,,,,,,,,,,,,,,,,,,229.4916094,229.5018613,229.98608499999997,,,,,,,,,,,,,,230.0146253,,,,,,,,,,,,,230.01138519999998,230.0146253,230.0146253,230.0146253,233.00250350000002,None,233.0026505,233.0185125,233.0185125,233.1038462,j,0.06840080000000626,None,,,,,,,,,,,,,,,00027,001,2025-11-17_14h45.33.830,MST_task,2024.2.0,59.95635177590829,2025-11-17 14h45.43.624995 +0530,
,Scenes\109a.jpg,23,0,24,,,,,,,j,None,,,1.721814399999971,0.11175919999999451,,,,24,0,23,233.11852580000001,,,,,,,,,,,,,,,,,,,,,,,,,,,,,,233.10432260000002,233.11852580000001,233.60308569999998,,,,,,,,,,,,,,233.6295052,,,,,,,,,,,,,233.62622810000002,233.6295052,233.6295052,233.6295052,236.61930479999998,j,236.6194743,,,236.61953659999998,None,,,1.721814399999971,0.11175919999999451,,,,,,,,,,,,,00027,001,2025-11-17_14h45.33.830,MST_task,2024.2.0,59.95635177590829,2025-11-17 14h45.43.624995 +0530,
,Scenes\125a.jpg,24,0,25,,,,,,,j,None,,,1.1308634000000097,0.11187490000003208,,,,25,0,24,236.635119,,,,,,,,,,,,,,,,,,,,,,,,,,,,,,236.6198517,236.635119,237.12029220000002,,,,,,,,,,,,,,237.14824940000003,,,,,,,,,,,,,237.1449989,237.14824940000003,237.14824940000003,237.14824940000003,240.13587880000003,j,240.13630070000002,,,240.1363722,None,,,1.1308634000000097,0.11187490000003208,,,,,,,,,,,,,00027,001,2025-11-17_14h45.33.830,MST_task,2024.2.0,59.95635177590829,2025-11-17 14h45.43.624995 +0530,
,Scenes\091a.jpg,25,0,26,,,,,,,j,None,,,1.410777899999971,0.14447200000000748,,,,26,0,25,240.1519981,,,,,,,,,,,,,,,,,,,,,,,,,,,,,,240.1368426,240.1519981,240.6365276,,,,,,,,,,,,,,240.6599591,,,,,,,,,,,,,240.65686209999998,240.6599591,240.6599591,240.6599591,243.652772,j,243.6529277,,,243.6529826,None,,,1.410777899999971,0.14447200000000748,,,,,,,,,,,,,00027,001,2025-11-17_14h45.33.830,MST_task,2024.2.0,59.95635177590829,2025-11-17 14h45.43.624995 +0530,
,Scenes\189a.jpg,26,0,27,,,,,,,j,None,,,1.0195342000000096,0.1353003000000399,,,,27,0,26,243.66864790000002,,,,,,,,,,,,,,,,,,,,,,,,,,,,,,243.6533734,243.66864790000002,244.1535868,,,,,,,,,,,,,,244.17979849999998,,,,,,,,,,,,,244.17650089999998,244.17979849999998,244.17979849999998,244.17979849999998,247.16906429999997,j,247.16921720000002,,,247.169272,None,,,1.0195342000000096,0.1353003000000399,,,,,,,,,,,,,00027,001,2025-11-17_14h45.33.830,MST_task,2024.2.0,59.95635177590829,2025-11-17 14h45.43.624995 +0530,
,Scenes\110a.jpg,27,0,28,,,,,,,j,None,,,0.7991278999999736,0.15147360000003118,,,,28,0,27,247.18527930000002,,,,,,,,,,,,,,,,,,,,,,,,,,,,,,247.16955729999998,247.18527930000002,247.66950920000002,,,,,,,,,,,,,,247.6962045,,,,,,,,,,,,,247.6929431,247.6962045,247.6962045,247.6962045,250.6858384,j,250.6859744,,,250.6860202,None,,,0.7991278999999736,0.15147360000003118,,,,,,,,,,,,,00027,001,2025-11-17_14h45.33.830,MST_task,2024.2.0,59.95635177590829,2025-11-17 14h45.43.624995 +0530,
,Objects\007a.jpg,28,0,29,,,,,,,f,None,,,1.00047619999998,0.14391490000002705,,,,29,0,28,250.7019427,,,,,,,,,,,,,,,,,,,,,,,,,,,,,,250.6863544,250.7019427,251.18627289999998,,,,,,,,,,,,,,251.20658269999998,,,,,,,,,,,,,251.20331940000003,251.20658269999998,251.20658269999998,251.20658269999998,254.2026792,f,254.2097884,,,254.2098273,None,,,1.00047619999998,0.14391490000002705,,,,,,,,,,,,,00027,001,2025-11-17_14h45.33.830,MST_task,2024.2.0,59.95635177590829,2025-11-17 14h45.43.624995 +0530,
,Objects\033a.jpg,29,0,30,,,,,,,None,f,0.023990899999944304,None,,,,,,30,0,29,254.21835719999999,,,,,,,,,,,,,,,,,,,,,,,,,,,,,,254.20995960000002,254.21835719999999,254.7031112,,,,,,,,,,,,,,254.72299230000002,,,,,,,,,,,,,254.7203345,254.72299230000002,254.72299230000002,254.72299230000002,257.71905089999996,None,257.7192351,257.73529470000005,257.73529470000005,257.7704185,f,0.023990899999944304,None,,,,,,,,,,,,,,,00027,001,2025-11-17_14h45.33.830,MST_task,2024.2.0,59.95635177590829,2025-11-17 14h45.43.624995 +0530,
,Objects\162a.jpg,30,0,31,,,,,,,f,None,,,1.1831382000000303,0.10449819999996635,,,,31,0,30,257.7852841,,,,,,,,,,,,,,,,,,,,,,,,,,,,,,257.7707544,257.7852841,258.26972820000003,,,,,,,,,,,,,,258.28759790000004,,,,,,,,,,,,,258.28507060000004,258.28759790000004,258.28759790000004,258.28759790000004,261.28606809999997,f,261.28624130000003,,,261.28630480000004,None,,,1.1831382000000303,0.10449819999996635,,,,,,,,,,,,,00027,001,2025-11-17_14h45.33.830,MST_task,2024.2.0,59.95635177590829,2025-11-17 14h45.43.624995 +0530,
,Objects\036a.jpg,31,0,32,,,,,,,j,None,,,0.7564045999999962,0.20038780000004408,,,,32,0,31,261.30198040000005,,,,,,,,,,,,,,,,,,,,,,,,,,,,,,261.2866097,261.30198040000005,261.786301,,,,,,,,,,,,,,261.8103079,,,,,,,,,,,,,261.80734429999995,261.8103079,261.8103079,261.8103079,264.8026194,j,264.80284859999995,,,264.8029123,None,,,0.7564045999999962,0.20038780000004408,,,,,,,,,,,,,00027,001,2025-11-17_14h45.33.830,MST_task,2024.2.0,59.95635177590829,2025-11-17 14h45.43.624995 +0530,
,Objects\085a.jpg,32,0,33,,,,,,,j,None,,,1.4435919000000013,0.09613089999993463,,,,33,0,32,264.81858639999996,,,,,,,,,,,,,,,,,,,,,,,,,,,,,,264.80323469999996,264.81858639999996,265.30317660000003,,,,,,,,,,,,,,265.3235664,,,,,,,,,,,,,265.32085900000004,265.3235664,265.3235664,265.3235664,268.3192017,j,268.3193744,,,268.31943479999995,None,,,1.4435919000000013,0.09613089999993463,,,,,,,,,,,,,00027,001,2025-11-17_14h45.33.830,MST_task,2024.2.0,59.95635177590829,2025-11-17 14h45.43.624995 +0530,
,Objects\013a.jpg,33,0,34,,,,,,,j,None,,,0.9276177000000416,0.09650309999994988,,,,34,0,33,268.335338,,,,,,,,,,,,,,,,,,,,,,,,,,,,,,268.3198886,268.335338,268.81975209999996,,,,,,,,,,,,,,268.8395587,,,,,,,,,,,,,268.83689860000004,268.8395587,268.8395587,268.8395587,271.836094,j,271.8362578,,,271.8363174,None,,,0.9276177000000416,0.09650309999994988,,,,,,,,,,,,,00027,001,2025-11-17_14h45.33.830,MST_task,2024.2.0,59.95635177590829,2025-11-17 14h45.43.624995 +0530,
,Objects\151a.jpg,34,0,35,,,,,,,f,None,,,1.3324323999999024,0.11201930000004268,,,,35,0,34,271.8520479,,,,,,,,,,,,,,,,,,,,,,,,,,,,,,271.8366711,271.8520479,272.3366853,,,,,,,,,,,,,,272.3547995,,,,,,,,,,,,,272.35228229999996,272.3547995,272.3547995,272.3547995,275.3525154,f,275.35270579999997,,,275.3527663,None,,,1.3324323999999024,0.11201930000004268,,,,,,,,,,,,,00027,001,2025-11-17_14h45.33.830,MST_task,2024.2.0,59.95635177590829,2025-11-17 14h45.43.624995 +0530,
,Scenes\155a.jpg,35,0,36,,,,,,,j,None,,,0.7039409999999862,0.10400589999994736,,,,36,0,35,275.3685733,,,,,,,,,,,,,,,,,,,,,,,,,,,,,,275.3531239,275.3685733,275.8527094,,,,,,,,,,,,,,275.8791953,,,,,,,,,,,,,275.87591410000005,275.8791953,275.8791953,275.8791953,278.8690083,j,278.8736672,,,278.8737029,None,,,0.7039409999999862,0.10400589999994736,,,,,,,,,,,,,00027,001,2025-11-17_14h45.33.830,MST_task,2024.2.0,59.95635177590829,2025-11-17 14h45.43.624995 +0530,
,Scenes\123a.jpg,36,0,37,,,,,,,j,None,,,0.639340299999958,0.127995100000021,,,,37,0,36,278.8851432,,,,,,,,,,,,,,,,,,,,,,,,,,,,,,278.87388969999995,278.8851432,279.3696629,,,,,,,,,,,,,,279.39125779999995,,,,,,,,,,,,,279.3882373,279.39125779999995,279.39125779999995,279.39125779999995,282.38609140000005,j,282.38627640000004,,,282.38633790000006,None,,,0.639340299999958,0.127995100000021,,,,,,,,,,,,,00027,001,2025-11-17_14h45.33.830,MST_task,2024.2.0,59.95635177590829,2025-11-17 14h45.43.624995 +0530,
,Scenes\058a.jpg,37,0,38,,,,,,,f,None,,,1.4627500000000282,0.20033759999989798,,,,38,0,37,282.40202450000004,,,,,,,,,,,,,,,,,,,,,,,,,,,,,,282.38690770000005,282.40202450000004,282.88655400000005,,,,,,,,,,,,,,282.9119677,,,,,,,,,,,,,282.9086591,282.9119677,282.9119677,282.9119677,285.90281259999995,f,285.90298010000004,,,285.9030401,None,,,1.4627500000000282,0.20033759999989798,,,,,,,,,,,,,00027,001,2025-11-17_14h45.33.830,MST_task,2024.2.0,59.95635177590829,2025-11-17 14h45.43.624995 +0530,
,Scenes\038a.jpg,38,0,39,,,,,,,j,None,,,1.3049049999999625,0.13559829999996964,,,,39,0,38,285.91851440000005,,,,,,,,,,,,,,,,,,,,,,,,,,,,,,285.90346639999996,285.91851440000005,286.40330789999996,,,,,,,,,,,,,,286.4301478,,,,,,,,,,,,,286.42669820000003,286.4301478,286.4301478,286.4301478,289.41913980000004,j,289.41931280000006,,,289.4193771,None,,,1.3049049999999625,0.13559829999996964,,,,,,,,,,,,,00027,001,2025-11-17_14h45.33.830,MST_task,2024.2.0,59.95635177590829,2025-11-17 14h45.43.624995 +0530,
,Scenes\178a.jpg,39,0,40,,,,,,,j,None,,,1.75929229999997,0.14380340000002434,,,,40,0,39,289.43540889999997,,,,,,,,,,,,,,,,,,,,,,,,,,,,,,289.41984349999996,289.43540889999997,289.9199853,,,,,,,,,,,,,,289.94344120000005,,,,,,,,,,,,,289.9396603,289.94344120000005,289.94344120000005,289.94344120000005,292.93609760000004,j,292.9362036,,,292.9362393,None,,,1.75929229999997,0.14380340000002434,,,,,,,,,,,,,00027,001,2025-11-17_14h45.33.830,MST_task,2024.2.0,59.95635177590829,2025-11-17 14h45.43.624995 +0530,
,Scenes\066a.jpg,40,0,41,,,,,,,j,None,,,2.127334000000019,0.13643279999996594,,,,41,0,40,292.95189630000004,,,,,,,,,,,,,,,,,,,,,,,,,,,,,,292.93642680000005,292.95189630000004,293.43653259999996,,,,,,,,,,,,,,293.4555474,,,,,,,,,,,,,293.45252419999997,293.4555474,293.4555474,293.4555474,296.45249920000003,j,296.45266990000005,,,296.45273169999996,None,,,2.127334000000019,0.13643279999996594,,,,,,,,,,,,,00027,001,2025-11-17_14h45.33.830,MST_task,2024.2.0,59.95635177590829,2025-11-17 14h45.43.624995 +0530,
,Scenes\106a.jpg,41,0,42,,,,,,,j,None,,,1.9107528000000684,0.1361024999999927,,,,42,0,41,296.46851460000005,,,,,,,,,,,,,,,,,,,,,,,,,,,,,,296.453162,296.46851460000005,296.9526036,,,,,,,,,,,,,,296.9765522,,,,,,,,,,,,,296.973523,296.9765522,296.9765522,296.9765522,299.96895589999997,j,299.96907380000005,,,299.96911520000003,None,,,1.9107528000000684,0.1361024999999927,,,,,,,,,,,,,00027,001,2025-11-17_14h45.33.830,MST_task,2024.2.0,59.95635177590829,2025-11-17 14h45.43.624995 +0530,
,Objects\146a.jpg,42,0,43,,,,,,,j,None,,,2.7224129000001085,0.15948979999996027,,,,43,0,42,299.98531349999996,,,,,,,,,,,,,,,,,,,,,,,,,,,,,,299.9693998,299.98531349999996,300.46957,,,,,,,,,,,,,,300.49272329999997,,,,,,,,,,,,,300.48913519999996,300.49272329999997,300.49272329999997,300.49272329999997,303.48604020000005,j,303.4922824,,,303.4922996,None,,,2.7224129000001085,0.15948979999996027,,,,,,,,,,,,,00027,001,2025-11-17_14h45.33.830,MST_task,2024.2.0,59.95635177590829,2025-11-17 14h45.43.624995 +0530,
,Objects\082a.jpg,43,0,44,,,,,,,j,None,,,1.4252811000000065,0.1687487000000374,,,,44,0,43,303.50196070000004,,,,,,,,,,,,,,,,,,,,,,,,,,,,,,303.4923688,303.50196070000004,303.9867177,,,,,,,,,,,,,,304.00558739999997,,,,,,,,,,,,,304.002967,304.00558739999997,304.00558739999997,304.00558739999997,307.0026044,j,307.0027863,,,307.0028482,None,,,1.4252811000000065,0.1687487000000374,,,,,,,,,,,,,00027,001,2025-11-17_14h45.33.830,MST_task,2024.2.0,59.95635177590829,2025-11-17 14h45.43.624995 +0530,
,Objects\018a.jpg,44,0,45,,,,,,,j,None,,,1.00468120000005,0.15975730000002386,,,,45,0,44,307.0184918,,,,,,,,,,,,,,,,,,,,,,,,,,,,,,307.00328060000004,307.0184918,307.50325039999996,,,,,,,,,,,,,,307.5223826,,,,,,,,,,,,,307.51960729999996,307.5223826,307.5223826,307.5223826,310.5191744,j,310.51934960000006,,,310.5194113,None,,,1.00468120000005,0.15975730000002386,,,,,,,,,,,,,00027,001,2025-11-17_14h45.33.830,MST_task,2024.2.0,59.95635177590829,2025-11-17 14h45.43.624995 +0530,
,Objects\184a.jpg,45,0,46,,,,,,,j,None,,,0.9440015999999787,0.1448172999999997,,,,46,0,45,310.5353126,,,,,,,,,,,,,,,,,,,,,,,,,,,,,,310.51971949999995,310.5353126,311.0196948,,,,,,,,,,,,,,311.03866500000004,,,,,,,,,,,,,311.03587130000005,311.03866500000004,311.03866500000004,311.03866500000004,314.03593490000003,j,314.03612380000004,,,314.0361844,None,,,0.9440015999999787,0.1448172999999997,,,,,,,,,,,,,00027,001,2025-11-17_14h45.33.830,MST_task,2024.2.0,59.95635177590829,2025-11-17 14h45.43.624995 +0530,
,Objects\079a.jpg,46,0,47,,,,,,,j,None,,,0.9075803000000633,0.1436906999999792,,,,47,0,46,314.05201050000005,,,,,,,,,,,,,,,,,,,,,,,,,,,,,,314.03662840000004,314.05201050000005,314.53647650000005,,,,,,,,,,,,,,314.55553499999996,,,,,,,,,,,,,314.55289830000004,314.55553499999996,314.55553499999996,314.55553499999996,317.5526039,j,317.55278039999996,,,317.5528444,None,,,0.9075803000000633,0.1436906999999792,,,,,,,,,,,,,00027,001,2025-11-17_14h45.33.830,MST_task,2024.2.0,59.95635177590829,2025-11-17 14h45.43.624995 +0530,
,Objects\179a.jpg,47,0,48,,,,,,,f,None,,,1.6071185000000696,0.1042438999999149,,,,48,0,47,317.56848790000004,,,,,,,,,,,,,,,,,,,,,,,,,,,,,,317.55327209999996,317.56848790000004,318.0529136,,,,,,,,,,,,,,318.0716456,,,,,,,,,,,,,318.0690036,318.0716456,318.0716456,318.0716456,321.0690595,f,321.06923200000006,,,321.06929479999997,None,,,1.6071185000000696,0.1042438999999149,,,,,,,,,,,,,00027,001,2025-11-17_14h45.33.830,MST_task,2024.2.0,59.95635177590829,2025-11-17 14h45.43.624995 +0530,
,Objects\071a.jpg,48,0,49,,,,,,,j,None,,,1.3789171000000806,0.11262890000000425,,,,49,0,48,321.08542780000005,,,,,,,,,,,,,,,,,,,,,,,,,,,,,,321.0697212,321.08542780000005,321.56975750000004,,,,,,,,,,,,,,321.58790539999995,,,,,,,,,,,,,321.5853472,321.58790539999995,321.58790539999995,321.58790539999995,324.58610020000003,j,324.58627120000006,,,324.58633310000005,None,,,1.3789171000000806,0.11262890000000425,,,,,,,,,,,,,00027,001,2025-11-17_14h45.33.830,MST_task,2024.2.0,59.95635177590829,2025-11-17 14h45.43.624995 +0530,
,Scenes\082a.jpg,49,0,50,,,,,,,f,None,,,2.522410300000047,0.12003779999997732,,,,50,0,49,324.6021984,,,,,,,,,,,,,,,,,,,,,,,,,,,,,,324.58674269999995,324.6021984,325.08662630000003,,,,,,,,,,,,,,325.1166392,,,,,,,,,,,,,325.1132586,325.1166392,325.1166392,325.1166392,328.10265919999995,f,328.10892950000004,,,328.10897220000004,None,,,2.522410300000047,0.12003779999997732,,,,,,,,,,,,,00027,001,2025-11-17_14h45.33.830,MST_task,2024.2.0,59.95635177590829,2025-11-17 14h45.43.624995 +0530,
,Scenes\143a.jpg,50,0,51,,,,,,,j,None,,,1.1239567999999736,0.20005890000004456,,,,51,0,50,328.1185041,,,,,,,,,,,,,,,,,,,,,,,,,,,,,,328.10920150000004,328.1185041,328.6030971,,,,,,,,,,,,,,328.62712910000005,,,,,,,,,,,,,328.62361380000004,328.62712910000005,328.62712910000005,328.62712910000005,331.61934269999995,j,331.6195143,,,331.6195782,None,,,1.1239567999999736,0.20005890000004456,,,,,,,,,,,,,00027,001,2025-11-17_14h45.33.830,MST_task,2024.2.0,59.95635177590829,2025-11-17 14h45.43.624995 +0530,
,Scenes\113a.jpg,51,0,52,,,,,,,j,None,,,2.0762022000000115,0.10431570000002921,,,,52,0,51,331.63554539999996,,,,,,,,,,,,,,,,,,,,,,,,,,,,,,331.62001269999996,331.63554539999996,332.1198312,,,,,,,,,,,,,,332.13866770000004,,,,,,,,,,,,,332.135317,332.13866770000004,332.13866770000004,332.13866770000004,335.1360046,j,335.1361756,,,335.1362362,None,,,2.0762022000000115,0.10431570000002921,,,,,,,,,,,,,00027,001,2025-11-17_14h45.33.830,MST_task,2024.2.0,59.95635177590829,2025-11-17 14h45.43.624995 +0530,
,Scenes\140a.jpg,52,0,53,,,,,,,j,None,,,0.6749952999999778,0.1521876000000475,,,,53,0,52,335.15217240000004,,,,,,,,,,,,,,,,,,,,,,,,,,,,,,335.1366709,335.15217240000004,335.63668970000003,,,,,,,,,,,,,,335.6600923,,,,,,,,,,,,,335.65702680000004,335.6600923,335.6600923,335.6600923,338.6526265,j,338.6527982,,,338.65286060000005,None,,,0.6749952999999778,0.1521876000000475,,,,,,,,,,,,,00027,001,2025-11-17_14h45.33.830,MST_task,2024.2.0,59.95635177590829,2025-11-17 14h45.43.624995 +0530,
,Scenes\015a.jpg,53,0,54,,,,,,,j,None,,,1.5418455000000222,0.13652060000003985,,,,54,0,53,338.6686903,,,,,,,,,,,,,,,,,,,,,,,,,,,,,,338.6532826,338.6686903,339.15316110000003,,,,,,,,,,,,,,339.20097050000004,,,,,,,,,,,,,339.19743430000005,339.20097050000004,339.20097050000004,339.20097050000004,342.169301,j,342.16964540000004,,,342.1697256,None,,,1.5418455000000222,0.13652060000003985,,,,,,,,,,,,,00027,001,2025-11-17_14h45.33.830,MST_task,2024.2.0,59.95635177590829,2025-11-17 14h45.43.624995 +0530,
,Scenes\169a.jpg,54,0,55,,,,,,,j,None,,,0.633620800000017,0.1922581999999693,,,,55,0,54,342.1853715,,,,,,,,,,,,,,,,,,,,,,,,,,,,,,342.17017,342.1853715,342.6701583,,,,,,,,,,,,,,342.6936558,,,,,,,,,,,,,342.6903139,342.6936558,342.6936558,342.6936558,345.68604059999996,j,345.6862109,,,345.6862734,None,,,0.633620800000017,0.1922581999999693,,,,,,,,,,,,,00027,001,2025-11-17_14h45.33.830,MST_task,2024.2.0,59.95635177590829,2025-11-17 14h45.43.624995 +0530,
,Scenes\074a.jpg,55,0,56,,,,,,,j,None,,,1.7077868999999737,0.1588109000000486,,,,56,0,55,345.702096,,,,,,,,,,,,,,,,,,,,,,,,,,,,,,345.68672630000003,345.702096,346.1867449,,,,,,,,,,,,,,346.2121157,,,,,,,,,,,,,346.20877429999996,346.2121157,346.2121157,346.2121157,349.2029818,j,349.2031558,,,349.20321879999995,None,,,1.7077868999999737,0.1588109000000486,,,,,,,,,,,,,00027,001,2025-11-17_14h45.33.830,MST_task,2024.2.0,59.95635177590829,2025-11-17 14h45.43.624995 +0530,
,Objects\156a.jpg,56,0,57,,,,,,,j,None,,,1.103851299999974,0.1364675999999463,,,,57,0,56,349.21888620000004,,,,,,,,,,,,,,,,,,,,,,,,,,,,,,349.2036421,349.21888620000004,349.7033676,,,,,,,,,,,,,,349.7271501,,,,,,,,,,,,,349.72385199999997,349.7271501,349.7271501,349.7271501,352.71933379999996,j,352.7258233,,,352.72586379999996,None,,,1.103851299999974,0.1364675999999463,,,,,,,,,,,,,00027,001,2025-11-17_14h45.33.830,MST_task,2024.2.0,59.95635177590829,2025-11-17 14h45.43.624995 +0530,
,Objects\122a.jpg,57,0,58,,,,,,,None,f,1.3623374000000013,None,,,,,,58,0,57,352.7351244,,,,,,,,,,,,,,,,,,,,,,,,,,,,,,352.7260245,352.7351244,353.21978260000003,,,,,,,,,,,,,,353.23825450000004,,,,,,,,,,,,,353.23572,353.23825450000004,353.23825450000004,353.23825450000004,356.2359523,None,356.2361118,356.2521219,356.2521219,357.6209904,f,1.3623374000000013,None,,,,,,,,,,,,,,,00027,001,2025-11-17_14h45.33.830,MST_task,2024.2.0,59.95635177590829,2025-11-17 14h45.43.624995 +0530,
,Objects\047a.jpg,58,0,59,,,,,,,f,None,,,0.8348474000000579,0.09672979999993458,,,,59,0,58,357.6351356,,,,,,,,,,,,,,,,,,,,,,,,,,,,,,357.62136899999996,357.6351356,358.11987799999997,,,,,,,,,,,,,,358.139895,,,,,,,,,,,,,358.1372632,358.139895,358.139895,358.139895,361.13576450000005,f,361.1360052,,,361.136067,None,,,0.8348474000000579,0.09672979999993458,,,,,,,,,,,,,00027,001,2025-11-17_14h45.33.830,MST_task,2024.2.0,59.95635177590829,2025-11-17 14h45.43.624995 +0530,
,Objects\068a.jpg,59,0,60,,,,,,,j,None,,,1.0399609000000964,0.16006499999991775,,,,60,0,59,361.1519498,,,,,,,,,,,,,,,,,,,,,,,,,,,,,,361.1366541,361.1519498,361.63675550000005,,,,,,,,,,,,,,361.6553642,,,,,,,,,,,,,361.652829,361.6553642,361.6553642,361.6553642,364.6526676,j,364.6528476,,,364.65291260000004,None,,,1.0399609000000964,0.16006499999991775,,,,,,,,,,,,,00027,001,2025-11-17_14h45.33.830,MST_task,2024.2.0,59.95635177590829,2025-11-17 14h45.43.624995 +0530,
,Objects\078a.jpg,60,0,61,,,,,,,j,None,,,1.1209016000000247,0.09562110000001667,,,,61,0,60,364.6687577,,,,,,,,,,,,,,,,,,,,,,,,,,,,,,364.6532155,364.6687577,365.15311929999996,,,,,,,,,,,,,,365.17397059999996,,,,,,,,,,,,,365.1714425,365.17397059999996,365.17397059999996,365.17397059999996,368.1694274,j,368.16972539999995,,,368.16979660000004,None,,,1.1209016000000247,0.09562110000001667,,,,,,,,,,,,,00027,001,2025-11-17_14h45.33.830,MST_task,2024.2.0,59.95635177590829,2025-11-17 14h45.43.624995 +0530,
,Objects\069a.jpg,61,0,62,,,,,,,j,None,,,1.3294697000000042,0.19218399999999747,,,,62,0,61,368.1852311,,,,,,,,,,,,,,,,,,,,,,,,,,,,,,368.1701098,368.1852311,368.66977599999996,,,,,,,,,,,,,,368.68598929999996,,,,,,,,,,,,,368.68347570000003,368.68598929999996,368.68598929999996,368.68598929999996,371.6705823,j,371.6707375,,,371.6707867,None,,,1.3294697000000042,0.19218399999999747,371.68534150000005,371.68534150000005,371.68534150000005,,,,,,,,,,00027,001,2025-11-17_14h45.33.830,MST_task,2024.2.0,59.95635177590829,2025-11-17 14h45.43.624995 +0530,
,Objects\188a.jpg,62,0,63,,,,,,,f,None,,,0.8877838000000793,0.10401129999991099,,,,63,0,62,371.68534150000005,,,,,,,,,,,,,,,,,,,,,,,,,,,,,,371.6711421,371.68534150000005,372.1699589,,,,,,,,,,,,,,372.1914891,,,,,,,,,,,,,372.18875879999996,372.1914891,372.1914891,372.1914891,375.1856841,f,375.1858528,,,375.18591560000004,None,,,0.8877838000000793,0.10401129999991099,,,,,,,,,,,,,00027,001,2025-11-17_14h45.33.830,MST_task,2024.2.0,59.95635177590829,2025-11-17 14h45.43.624995 +0530,
,Scenes\118a.jpg,63,0,64,,,,,,,j,None,,,1.2332596999999623,0.12846600000000308,,,,64,0,63,375.2019685,,,,,,,,,,,,,,,,,,,,,,,,,,,,,,375.1863433,375.2019685,375.6863111,,,,,,,,,,,,,,375.7096716,,,,,,,,,,,,,375.7065374,375.7096716,375.7096716,375.7096716,378.7030059,j,378.70877069999995,,,378.708806,None,,,1.2332596999999623,0.12846600000000308,,,,,,,,,,,,,00027,001,2025-11-17_14h45.33.830,MST_task,2024.2.0,59.95635177590829,2025-11-17 14h45.43.624995 +0530,
,Scenes\092a.jpg,64,0,65,,,,,,,j,None,,,0.7368850000000293,0.10347649999994246,,,,65,0,64,378.718534,,,,,,,,,,,,,,,,,,,,,,,,,,,,,,378.70902880000006,378.718534,379.2031244,,,,,,,,,,,,,,379.2306351,,,,,,,,,,,,,379.2275935,379.2306351,379.2306351,379.2306351,382.21946,j,382.2196271,,,382.21968619999996,None,,,0.7368850000000293,0.10347649999994246,,,,,,,,,,,,,00027,001,2025-11-17_14h45.33.830,MST_task,2024.2.0,59.95635177590829,2025-11-17 14h45.43.624995 +0530,
,Scenes\161a.jpg,65,0,66,,,,,,,j,None,,,0.6427022000000306,0.10419179999996686,,,,66,0,65,382.23534970000003,,,,,,,,,,,,,,,,,,,,,,,,,,,,,,382.2199944,382.23534970000003,382.7199217,,,,,,,,,,,,,,382.7482539,,,,,,,,,,,,,382.7449709,382.7482539,382.7482539,382.7482539,385.73580419999996,j,385.73597159999997,,,385.7360334,None,,,0.6427022000000306,0.10419179999996686,,,,,,,,,,,,,00027,001,2025-11-17_14h45.33.830,MST_task,2024.2.0,59.95635177590829,2025-11-17 14h45.43.624995 +0530,
,Scenes\065a.jpg,66,0,67,,,,,,,j,None,,,0.5680607000000464,0.096076700000026,,,,67,0,66,385.75193509999997,,,,,,,,,,,,,,,,,,,,,,,,,,,,,,385.73660599999994,385.75193509999997,386.236446,,,,,,,,,,,,,,386.2628191,,,,,,,,,,,,,386.2596088,386.2628191,386.2628191,386.2628191,389.2529545,j,389.2531236,,,389.25318489999995,None,,,0.5680607000000464,0.096076700000026,,,,,,,,,,,,,00027,001,2025-11-17_14h45.33.830,MST_task,2024.2.0,59.95635177590829,2025-11-17 14h45.43.624995 +0530,
,Scenes\024a.jpg,67,0,68,,,,,,,j,None,,,1.3576397000000497,0.16005789999996978,,,,68,0,67,389.2686547999999,,,,,,,,,,,,,,,,,,,,,,,,,,,,,,389.2536295,389.2686547999999,389.7532387,,,,,,,,,,,,,,389.77744229999996,,,,,,,,,,,,,389.774261,389.77744229999996,389.77744229999996,389.77744229999996,392.76939619999996,j,392.76957059999995,,,392.7696337,None,,,1.3576397000000497,0.16005789999996978,,,,,,,,,,,,,00027,001,2025-11-17_14h45.33.830,MST_task,2024.2.0,59.95635177590829,2025-11-17 14h45.43.624995 +0530,
,Scenes\054a.jpg,68,0,69,,,,,,,j,None,,,1.2748368999999684,0.1287285000000793,,,,69,0,68,392.78523399999995,,,,,,,,,,,,,,,,,,,,,,,,,,,,,,392.77006099999994,392.78523399999995,393.27030419999994,,,,,,,,,,,,,,393.30062899999996,,,,,,,,,,,,,393.2973195999999,393.30062899999996,393.30062899999996,393.30062899999996,396.28563969999993,j,396.28572729999996,,,396.28575749999993,None,,,1.2748368999999684,0.1287285000000793,,,,,,,,,,,,,00027,001,2025-11-17_14h45.33.830,MST_task,2024.2.0,59.95635177590829,2025-11-17 14h45.43.624995 +0530,
,Scenes\182a.jpg,69,0,70,,,,,,,j,None,,,0.787118400000054,0.161655499999938,,,,70,0,69,396.30188339999995,,,,,,,,,,,,,,,,,,,,,,,,,,,,,,396.2859533999999,396.30188339999995,396.78629839999996,,,,,,,,,,,,,,396.81154259999994,,,,,,,,,,,,,396.80837629999996,396.81154259999994,396.81154259999994,396.81154259999994,399.8025626,j,399.8027313,,,399.8027943999999,None,,,0.787118400000054,0.161655499999938,,,,,,,,,,,,,00027,001,2025-11-17_14h45.33.830,MST_task,2024.2.0,59.95635177590829,2025-11-17 14h45.43.624995 +0530,
,Objects\140a.jpg,70,0,71,,,,,,,j,None,,,1.5415479000000687,0.17564819999995507,,,,71,0,70,399.81872669999996,,,,,,,,,,,,,,,,,,,,,,,,,,,,,,399.8031002,399.81872669999996,400.3033633,,,,,,,,,,,,,,400.32944009999994,,,,,,,,,,,,,400.32610209999996,400.32944009999994,400.32944009999994,400.32944009999994,403.3194158,j,403.3261,,,403.32613159999994,None,,,1.5415479000000687,0.17564819999995507,,,,,,,,,,,,,00027,001,2025-11-17_14h45.33.830,MST_task,2024.2.0,59.95635177590829,2025-11-17 14h45.43.624995 +0530,
,Objects\119a.jpg,71,0,72,,,,,,,j,None,,,1.032763799999998,0.14449979999994866,,,,72,0,71,403.3350574,,,,,,,,,,,,,,,,,,,,,,,,,,,,,,403.32625729999995,403.3350574,403.8197954,,,,,,,,,,,,,,403.8378973,,,,,,,,,,,,,403.8353241,403.8378973,403.8378973,403.8378973,406.83585029999995,j,406.836054,,,406.83611439999993,None,,,1.032763799999998,0.14449979999994866,,,,,,,,,,,,,00027,001,2025-11-17_14h45.33.830,MST_task,2024.2.0,59.95635177590829,2025-11-17 14h45.43.624995 +0530,
,Objects\032a.jpg,72,0,73,,,,,,,j,None,,,0.5076484999999593,0.12660800000003292,,,,73,0,72,406.852043,,,,,,,,,,,,,,,,,,,,,,,,,,,,,,406.8365655,406.852043,407.33610909999993,,,,,,,,,,,,,,407.35627999999997,,,,,,,,,,,,,407.3536249,407.35627999999997,407.35627999999997,407.35627999999997,410.35248349999995,j,410.3526486999999,,,410.352708,None,,,0.5076484999999593,0.12660800000003292,,,,,,,,,,,,,00027,001,2025-11-17_14h45.33.830,MST_task,2024.2.0,59.95635177590829,2025-11-17 14h45.43.624995 +0530,
,Objects\099a.jpg,73,0,74,,,,,,,j,None,,,1.0935051000000158,0.16846989999999096,,,,74,0,73,410.3686202,,,,,,,,,,,,,,,,,,,,,,,,,,,,,,410.3531339,410.3686202,410.8531760999999,,,,,,,,,,,,,,410.8734723,,,,,,,,,,,,,410.87074889999997,410.8734723,410.8734723,410.8734723,413.86942609999994,j,413.86968679999995,,,413.8697695999999,None,,,1.0935051000000158,0.16846989999999096,,,,,,,,,,,,,00027,001,2025-11-17_14h45.33.830,MST_task,2024.2.0,59.95635177590829,2025-11-17 14h45.43.624995 +0530,
,Objects\035a.jpg,74,0,75,,,,,,,j,None,,,0.9612415999999939,0.1758102000000008,,,,75,0,74,413.8853644999999,,,,,,,,,,,,,,,,,,,,,,,,,,,,,,413.87011459999997,413.8853644999999,414.36994089999996,,,,,,,,,,,,,,414.3896449,,,,,,,,,,,,,414.38693219999993,414.3896449,414.3896449,414.3896449,417.38587269999994,j,417.38603969999997,,,417.3861011,None,,,0.9612415999999939,0.1758102000000008,,,,,,,,,,,,,00027,001,2025-11-17_14h45.33.830,MST_task,2024.2.0,59.95635177590829,2025-11-17 14h45.43.624995 +0530,
,Objects\076a.jpg,75,0,76,,,,,,,f,None,,,1.036593899999957,0.23233300000003965,,,,76,0,75,417.40193539999996,,,,,,,,,,,,,,,,,,,,,,,,,,,,,,417.3865413,417.40193539999996,417.8866702,,,,,,,,,,,,,,417.90614229999994,,,,,,,,,,,,,417.9033954,417.90614229999994,417.90614229999994,417.90614229999994,420.90264579999996,f,420.9028352,,,420.9028938,None,,,1.036593899999957,0.23233300000003965,,,,,,,,,,,,,00027,001,2025-11-17_14h45.33.830,MST_task,2024.2.0,59.95635177590829,2025-11-17 14h45.43.624995 +0530,
,Objects\100a.jpg,76,0,77,,,,,,,f,None,,,0.9832431999999471,0.21603479999998854,,,,77,0,76,420.91873309999994,,,,,,,,,,,,,,,,,,,,,,,,,,,,,,420.90324709999993,420.91873309999994,421.40316499999994,,,,,,,,,,,,,,421.4233954,,,,,,,,,,,,,421.4207487,421.4233954,421.4233954,421.4233954,424.41925119999996,f,424.41943719999995,,,424.4194974999999,None,,,0.9832431999999471,0.21603479999998854,,,,,,,,,,,,,00027,001,2025-11-17_14h45.33.830,MST_task,2024.2.0,59.95635177590829,2025-11-17 14h45.43.624995 +0530,
,Scenes\146a.jpg,77,0,78,,,,,,,j,None,,,0.5811929000000191,0.15939189999994596,,,,78,0,77,424.43525339999997,,,,,,,,,,,,,,,,,,,,,,,,,,,,,,424.41981839999994,424.43525339999997,424.9194291,,,,,,,,,,,,,,424.9460169,,,,,,,,,,,,,424.9423861,424.9460169,424.9460169,424.9460169,427.9356054,j,427.93906459999994,,,427.93910129999995,None,,,0.5811929000000191,0.15939189999994596,,,,,,,,,,,,,00027,001,2025-11-17_14h45.33.830,MST_task,2024.2.0,59.95635177590829,2025-11-17 14h45.43.624995 +0530,
,Scenes\035a.jpg,78,0,79,,,,,,,j,None,,,2.9099837999999636,None,,,,79,0,78,427.9518628999999,,,,,,,,,,,,,,,,,,,,,,,,,,,,,,427.9393302,427.9518628999999,428.43648369999994,,,,,,,,,,,,,,428.46517889999996,,,,,,,,,,,,,428.461852,428.46517889999996,428.46517889999996,428.46517889999996,431.4526116999999,j,431.4527792,,,431.4528374,None,,,2.9099837999999636,None,,,,,,,,,,,,,00027,001,2025-11-17_14h45.33.830,MST_task,2024.2.0,59.95635177590829,2025-11-17 14h45.43.624995 +0530,
,Scenes\053a.jpg,79,0,80,,,,,,,j,None,,,1.0601460000000316,0.15123259999995753,,,,80,0,79,431.46864729999993,,,,,,,,,,,,,,,,,,,,,,,,,,,,,,431.4531483999999,431.46864729999993,431.9529066,,,,,,,,,,,,,,431.97132539999996,,,,,,,,,,,,,431.9682173,431.97132539999996,431.97132539999996,431.97132539999996,434.96963389999996,j,434.96980469999994,,,434.96986649999997,None,,,1.0601460000000316,0.15123259999995753,,,,,,,,,,,,,00027,001,2025-11-17_14h45.33.830,MST_task,2024.2.0,59.95635177590829,2025-11-17 14h45.43.624995 +0530,
,Scenes\103a.jpg,80,0,81,,,,,,,j,None,,,1.1591726000000335,0.15136870000003455,,,,81,0,80,434.98533839999993,,,,,,,,,,,,,,,,,,,,,,,,,,,,,,434.9702599,434.98533839999993,435.4698055,,,,,,,,,,,,,,435.4959349999999,,,,,,,,,,,,,435.4929490999999,435.4959349999999,435.4959349999999,435.4959349999999,438.4858604,j,438.48602659999995,,,438.4860844,None,,,1.1591726000000335,0.15136870000003455,,,,,,,,,,,,,00027,001,2025-11-17_14h45.33.830,MST_task,2024.2.0,59.95635177590829,2025-11-17 14h45.43.624995 +0530,
,Scenes\119a.jpg,81,0,82,,,,,,,j,None,,,0.4709201000000576,0.1352560000000267,,,,82,0,81,438.5021262,,,,,,,,,,,,,,,,,,,,,,,,,,,,,,438.4865115,438.5021262,438.9863113,,,,,,,,,,,,,,439.0326311,,,,,,,,,,,,,439.02918079999995,439.0326311,439.0326311,439.0326311,442.0025108,j,442.002665,,,442.0029154,None,,,0.4709201000000576,0.1352560000000267,,,,,,,,,,,,,00027,001,2025-11-17_14h45.33.830,MST_task,2024.2.0,59.95635177590829,2025-11-17 14h45.43.624995 +0530,
,Scenes\122a.jpg,82,0,83,,,,,,,j,None,,,1.4105496999999332,0.19170520000000124,,,,83,0,82,442.0188594,,,,,,,,,,,,,,,,,,,,,,,,,,,,,,442.0033459,442.0188594,442.50301879999995,,,,,,,,,,,,,,442.5321904,,,,,,,,,,,,,442.5287221,442.5321904,442.5321904,442.5321904,445.5195178,j,445.519687,,,445.5197498,None,,,1.4105496999999332,0.19170520000000124,,,,,,,,,,,,,00027,001,2025-11-17_14h45.33.830,MST_task,2024.2.0,59.95635177590829,2025-11-17 14h45.43.624995 +0530,
,Scenes\046a.jpg,83,0,84,,,,,,,j,None,,,0.7055583999999726,0.11973910000006072,,,,84,0,83,445.5354201,,,,,,,,,,,,,,,,,,,,,,,,,,,,,,445.520173,445.5354201,446.0197539999999,,,,,,,,,,,,,,446.0694070999999,,,,,,,,,,,,,446.06594169999994,446.0694070999999,446.0694070999999,446.0694070999999,449.03602809999995,j,449.03619949999995,,,449.03625999999997,None,,,0.7055583999999726,0.11973910000006072,,,,,,,,,,,,,00027,001,2025-11-17_14h45.33.830,MST_task,2024.2.0,59.95635177590829,2025-11-17 14h45.43.624995 +0530,
,Objects\073a.jpg,84,0,85,,,,,,,f,None,,,1.6636901000000535,0.200922300000002,,,,85,0,84,449.0520816999999,,,,,,,,,,,,,,,,,,,,,,,,,,,,,,449.0368334,449.0520816999999,449.5363235,,,,,,,,,,,,,,449.55939709999996,,,,,,,,,,,,,449.5561091999999,449.55939709999996,449.55939709999996,449.55939709999996,452.5528822,f,452.5597451,,,452.55977699999994,None,,,1.6636901000000535,0.200922300000002,,,,,,,,,,,,,00027,001,2025-11-17_14h45.33.830,MST_task,2024.2.0,59.95635177590829,2025-11-17 14h45.43.624995 +0530,
,Objects\115a.jpg,85,0,86,,,,,,,f,None,,,0.7119229999999561,0.1363607000000684,,,,86,0,85,452.5685267,,,,,,,,,,,,,,,,,,,,,,,,,,,,,,452.5599627,452.5685267,453.0531066,,,,,,,,,,,,,,453.0712893,,,,,,,,,,,,,453.0686261999999,453.0712893,453.0712893,453.0712893,456.06917999999996,f,456.0693208,,,456.06936529999996,None,,,0.7119229999999561,0.1363607000000684,,,,,,,,,,,,,00027,001,2025-11-17_14h45.33.830,MST_task,2024.2.0,59.95635177590829,2025-11-17 14h45.43.624995 +0530,
,Objects\048a.jpg,86,0,87,,,,,,,j,None,,,0.7231682999999975,0.1203954000000067,,,,87,0,86,456.0854121,,,,,,,,,,,,,,,,,,,,,,,,,,,,,,456.0697107,456.0854121,456.5699799,,,,,,,,,,,,,,456.5874963,,,,,,,,,,,,,456.58485759999996,456.5874963,456.5874963,456.5874963,459.5859811,j,459.5861507999999,,,459.58621129999995,None,,,0.7231682999999975,0.1203954000000067,,,,,,,,,,,,,00027,001,2025-11-17_14h45.33.830,MST_task,2024.2.0,59.95635177590829,2025-11-17 14h45.43.624995 +0530,
,Objects\129a.jpg,87,0,88,,,,,,,f,None,,,0.7969683000000032,0.2077904000000217,,,,88,0,87,459.6020591,,,,,,,,,,,,,,,,,,,,,,,,,,,,,,459.58651539999994,459.6020591,460.08638529999996,,,,,,,,,,,,,,460.10638159999996,,,,,,,,,,,,,460.10370509999996,460.10638159999996,460.10638159999996,460.10638159999996,463.10258239999996,f,463.102671,,,463.1027017,None,,,0.7969683000000032,0.2077904000000217,,,,,,,,,,,,,00027,001,2025-11-17_14h45.33.830,MST_task,2024.2.0,59.95635177590829,2025-11-17 14h45.43.624995 +0530,
,Objects\101a.jpg,88,0,89,,,,,,,j,None,,,1.378014099999973,0.14330570000004172,,,,89,0,88,463.11847009999997,,,,,,,,,,,,,,,,,,,,,,,,,,,,,,463.10291899999993,463.11847009999997,463.60339569999996,,,,,,,,,,,,,,463.62107949999995,,,,,,,,,,,,,463.6185115999999,463.62107949999995,463.62107949999995,463.62107949999995,466.61943959999996,j,466.61960750000003,,,466.61970039999994,None,,,1.378014099999973,0.14330570000004172,,,,,,,,,,,,,00027,001,2025-11-17_14h45.33.830,MST_task,2024.2.0,59.95635177590829,2025-11-17 14h45.43.624995 +0530,
,Objects\008a.jpg,89,0,90,,,,,,,f,None,,,1.987757800000054,0.17629969999995865,,,,90,0,89,466.6354516,,,,,,,,,,,,,,,,,,,,,,,,,,,,,,466.62000839999996,466.6354516,467.12022,,,,,,,,,,,,,,467.1392893,,,,,,,,,,,,,467.13673199999994,467.1392893,467.1392893,467.1392893,470.1363586,f,470.1365301999999,,,470.13659269999994,None,,,1.987757800000054,0.17629969999995865,,,,,,,,,,,,,00027,001,2025-11-17_14h45.33.830,MST_task,2024.2.0,59.95635177590829,2025-11-17 14h45.43.624995 +0530,
,Objects\185a.jpg,90,0,91,,,,,,,f,None,,,0.8789977999999792,0.1759441000000379,,,,91,0,90,470.15206939999996,,,,,,,,,,,,,,,,,,,,,,,,,,,,,,470.13721409999994,470.15206939999996,470.6367653,,,,,,,,,,,,,,470.6562397,,,,,,,,,,,,,470.65351839999994,470.6562397,470.6562397,470.6562397,473.65202609999994,f,473.6520763,,,473.6520896999999,None,,,0.8789977999999792,0.1759441000000379,,,,,,,,,,,,,00027,001,2025-11-17_14h45.33.830,MST_task,2024.2.0,59.95635177590829,2025-11-17 14h45.43.624995 +0530,
,Scenes\171a.jpg,91,0,92,,,,,,,f,None,,,1.7138603999999305,0.13562630000001263,,,,92,0,91,473.6684338,,,,,,,,,,,,,,,,,,,,,,,,,,,,,,473.6522391,473.6684338,474.1528088,,,,,,,,,,,,,,474.1816572,,,,,,,,,,,,,474.1780894,474.1816572,474.1816572,474.1816572,477.1524591,f,477.1583462,,,477.15838829999996,None,,,1.7138603999999305,0.13562630000001263,,,,,,,,,,,,,00027,001,2025-11-17_14h45.33.830,MST_task,2024.2.0,59.95635177590829,2025-11-17 14h45.43.624995 +0530,
,Scenes\157a.jpg,92,0,93,,,,,,,j,None,,,1.2943685000000187,0.1523127000000386,,,,93,0,92,477.1684864,,,,,,,,,,,,,,,,,,,,,,,,,,,,,,477.1586315999999,477.1684864,477.6531755,,,,,,,,,,,,,,477.6803672,,,,,,,,,,,,,477.6767175,477.6803672,477.6803672,477.6803672,480.6691608,j,480.6693255,,,480.6693884,None,,,1.2943685000000187,0.1523127000000386,,,,,,,,,,,,,00027,001,2025-11-17_14h45.33.830,MST_task,2024.2.0,59.95635177590829,2025-11-17 14h45.43.624995 +0530,
,Scenes\008a.jpg,93,0,94,,,,,,,j,None,,,0.629454199999941,0.1520001000000093,,,,94,0,93,480.68544999999995,,,,,,,,,,,,,,,,,,,,,,,,,,,,,,480.66981309999994,480.68544999999995,481.16985109999996,,,,,,,,,,,,,,481.19359869999994,,,,,,,,,,,,,481.19051289999993,481.19359869999994,481.19359869999994,481.19359869999994,484.18594299999995,j,484.186109,,,484.18617129999996,None,,,0.629454199999941,0.1520001000000093,,,,,,,,,,,,,00027,001,2025-11-17_14h45.33.830,MST_task,2024.2.0,59.95635177590829,2025-11-17 14h45.43.624995 +0530,
,Scenes\137a.jpg,94,0,95,,,,,,,j,None,,,0.9312832000000526,0.14363490000005186,,,,95,0,94,484.2019302,,,,,,,,,,,,,,,,,,,,,,,,,,,,,,484.1864767999999,484.2019302,484.6864722,,,,,,,,,,,,,,484.70787429999996,,,,,,,,,,,,,484.70405659999994,484.70787429999996,484.70787429999996,484.70787429999996,487.70233829999995,j,487.7025089,,,487.70257019999997,None,,,0.9312832000000526,0.14363490000005186,,,,,,,,,,,,,00027,001,2025-11-17_14h45.33.830,MST_task,2024.2.0,59.95635177590829,2025-11-17 14h45.43.624995 +0530,
,Scenes\174a.jpg,95,0,96,,,,,,,j,None,,,0.9451507999999649,0.16008610000005774,,,,96,0,95,487.718626,,,,,,,,,,,,,,,,,,,,,,,,,,,,,,487.7030017999999,487.718626,488.20196969999995,,,,,,,,,,,,,,488.2220618,,,,,,,,,,,,,488.2188857,488.2220618,488.2220618,488.2220618,491.2195263,j,491.21969939999997,,,491.21976259999997,None,,,0.9451507999999649,0.16008610000005774,,,,,,,,,,,,,00027,001,2025-11-17_14h45.33.830,MST_task,2024.2.0,59.95635177590829,2025-11-17 14h45.43.624995 +0530,
,Scenes\088a.jpg,96,0,97,,,,,,,j,None,,,0.7371667999999545,0.15077150000001893,,,,97,0,96,491.2354457,,,,,,,,,,,,,,,,,,,,,,,,,,,,,,491.2200656,491.2354457,491.71990040000003,,,,,,,,,,,,,,491.75879169999996,,,,,,,,,,,,,491.7552173,491.75879169999996,491.75879169999996,491.75879169999996,494.73582479999993,j,494.73602619999997,,,494.73608709999996,None,,,0.7371667999999545,0.15077150000001893,,,,,,,,,,,,,00027,001,2025-11-17_14h45.33.830,MST_task,2024.2.0,59.95635177590829,2025-11-17 14h45.43.624995 +0530,
,Scenes\080a.jpg,97,0,98,,,,,,,j,None,,,0.6521943999999849,0.128626899999972,,,,98,0,97,494.7517778,,,,,,,,,,,,,,,,,,,,,,,,,,,,,,494.73653279999996,494.7517778,495.23645750000003,,,,,,,,,,,,,,495.2585454,,,,,,,,,,,,,495.2553004,495.2585454,495.2585454,495.2585454,498.23647259999996,j,498.23671049999996,,,498.23681339999996,None,,,0.6521943999999849,0.128626899999972,,,,,,,,,,,,,00027,001,2025-11-17_14h45.33.830,MST_task,2024.2.0,59.95635177590829,2025-11-17 14h45.43.624995 +0530,
,Objects\152a.jpg,98,0,99,,,,,,,f,None,,,1.4979707999999619,0.15273760000002312,,,,99,0,98,498.2516699,,,,,,,,,,,,,,,,,,,,,,,,,,,,,,498.2372546,498.2516699,498.7363543,,,,,,,,,,,,,,498.7567014,,,,,,,,,,,,,498.75357669999994,498.7567014,498.7567014,498.7567014,501.7523907,f,501.7580395,,,501.7580674999999,None,,,1.4979707999999619,0.15273760000002312,,,,,,,,,,,,,00027,001,2025-11-17_14h45.33.830,MST_task,2024.2.0,59.95635177590829,2025-11-17 14h45.43.624995 +0530,
,Objects\138a.jpg,99,0,100,,,,,,,j,None,,,0.5579553999999689,0.1377929000000222,,,,100,0,99,501.76841609999997,,,,,,,,,,,,,,,,,,,,,,,,,,,,,,501.75823679999996,501.76841609999997,502.25284639999995,,,,,,,,,,,,,,502.2727543,,,,,,,,,,,,,502.2703689,502.2727543,502.2727543,502.2727543,505.2694066,j,505.26957749999997,,,505.2696409,None,,,0.5579553999999689,0.1377929000000222,,,,,,,,,,,,,00027,001,2025-11-17_14h45.33.830,MST_task,2024.2.0,59.95635177590829,2025-11-17 14h45.43.624995 +0530,
,Objects\126a.jpg,100,0,101,,,,,,,j,None,,,1.6251713999999993,0.1278444000000718,,,,101,0,100,505.28542099999993,,,,,,,,,,,,,,,,,,,,,,,,,,,,,,505.27006919999997,505.28542099999993,505.76984959999993,,,,,,,,,,,,,,505.78990539999995,,,,,,,,,,,,,505.7871658,505.78990539999995,505.78990539999995,505.78990539999995,508.7859274,j,508.78609099999994,,,508.786152,None,,,1.6251713999999993,0.1278444000000718,,,,,,,,,,,,,00027,001,2025-11-17_14h45.33.830,MST_task,2024.2.0,59.95635177590829,2025-11-17 14h45.43.624995 +0530,
,Objects\132a.jpg,101,0,102,,,,,,,f,None,,,0.9184480999999778,0.23126760000002378,,,,102,0,101,508.80175339999994,,,,,,,,,,,,,,,,,,,,,,,,,,,,,,508.7864961,508.80175339999994,509.2867782999999,,,,,,,,,,,,,,509.3054346,,,,,,,,,,,,,509.3028861,509.3054346,509.3054346,509.3054346,512.3022503999999,f,512.302406,,,512.3024621,None,,,0.9184480999999778,0.23126760000002378,,,,,,,,,,,,,00027,001,2025-11-17_14h45.33.830,MST_task,2024.2.0,59.95635177590829,2025-11-17 14h45.43.624995 +0530,
,Objects\060a.jpg,102,0,103,,,,,,,j,None,,,0.8644257000000835,0.19217639999999392,,,,103,0,102,512.3186678,,,,,,,,,,,,,,,,,,,,,,,,,,,,,,512.3028406999999,512.3186678,512.8031450999999,,,,,,,,,,,,,,512.8222217,,,,,,,,,,,,,512.8196918,512.8222217,512.8222217,512.8222217,515.8193471999999,j,515.8195393999999,,,515.8196067,None,,,0.8644257000000835,0.19217639999999392,,,,,,,,,,,,,00027,001,2025-11-17_14h45.33.830,MST_task,2024.2.0,59.95635177590829,2025-11-17 14h45.43.624995 +0530,
,Objects\049a.jpg,103,0,104,,,,,,,f,None,,,1.5032661999999846,0.1518384999999398,,,,104,0,103,515.8353308,,,,,,,,,,,,,,,,,,,,,,,,,,,,,,515.8199184,515.8353308,516.3196039,,,,,,,,,,,,,,516.3355614999999,,,,,,,,,,,,,516.3325122,516.3355614999999,516.3355614999999,516.3355614999999,519.3208743,f,519.321069,,,519.3211302999999,None,,,1.5032661999999846,0.1518384999999398,519.3353147,519.3353147,519.3353147,,,,,,,,,,00027,001,2025-11-17_14h45.33.830,MST_task,2024.2.0,59.95635177590829,2025-11-17 14h45.43.624995 +0530,
,Objects\067a.jpg,104,0,105,,,,,,,f,None,,,1.017811800000004,0.13512949999994817,,,,105,0,104,519.3353147,,,,,,,,,,,,,,,,,,,,,,,,,,,,,,519.3214564,519.3353147,519.8199217,,,,,,,,,,,,,,519.8381357,,,,,,,,,,,,,519.8356124,519.8381357,519.8381357,519.8381357,522.8358901,f,522.8360607,,,522.8361236999999,None,,,1.017811800000004,0.13512949999994817,,,,,,,,,,,,,00027,001,2025-11-17_14h45.33.830,MST_task,2024.2.0,59.95635177590829,2025-11-17 14h45.43.624995 +0530,
,Scenes\012a.jpg,105,0,106,,,,,,,j,None,,,0.5206298999999035,0.19986770000002707,,,,106,0,105,522.8519063,,,,,,,,,,,,,,,,,,,,,,,,,,,,,,522.8365666,522.8519063,523.3366331,,,,,,,,,,,,,,523.3669352,,,,,,,,,,,,,523.3636058,523.3669352,523.3669352,523.3669352,526.3524629,j,526.3585253,,,526.3585701999999,None,,,0.5206298999999035,0.19986770000002707,,,,,,,,,,,,,00027,001,2025-11-17_14h45.33.830,MST_task,2024.2.0,59.95635177590829,2025-11-17 14h45.43.624995 +0530,
,Scenes\083a.jpg,106,0,107,,,,,,,j,None,,,0.4870527000000493,0.16067999999995664,,,,107,0,106,526.3685435,,,,,,,,,,,,,,,,,,,,,,,,,,,,,,526.3588271,526.3685435,526.8531408,,,,,,,,,,,,,,526.8796393,,,,,,,,,,,,,526.8763625,526.8796393,526.8796393,526.8796393,529.869193,j,529.8693554,,,529.8694164999999,None,,,0.4870527000000493,0.16067999999995664,,,,,,,,,,,,,00027,001,2025-11-17_14h45.33.830,MST_task,2024.2.0,59.95635177590829,2025-11-17 14h45.43.624995 +0530,
,Scenes\050a.jpg,107,0,108,,,,,,,j,None,,,0.5877980999999863,0.1524921999999833,,,,108,0,107,529.8853591,,,,,,,,,,,,,,,,,,,,,,,,,,,,,,529.8698406,529.8853591,530.3699624999999,,,,,,,,,,,,,,530.3948719,,,,,,,,,,,,,530.3916264,530.3948719,530.3948719,530.3948719,533.3858263,j,533.3859894999999,,,533.3860518,None,,,0.5877980999999863,0.1524921999999833,,,,,,,,,,,,,00027,001,2025-11-17_14h45.33.830,MST_task,2024.2.0,59.95635177590829,2025-11-17 14h45.43.624995 +0530,
,Scenes\167a.jpg,108,0,109,,,,,,,j,None,,,0.7251844999999548,0.16024400000003425,,,,109,0,108,533.4018006,,,,,,,,,,,,,,,,,,,,,,,,,,,,,,533.3864755,533.4018006,533.8861631999999,,,,,,,,,,,,,,533.9133719,,,,,,,,,,,,,533.9101071,533.9133719,533.9133719,533.9133719,536.9025388,j,536.9027257,,,536.9027854,None,,,0.7251844999999548,0.16024400000003425,,,,,,,,,,,,,00027,001,2025-11-17_14h45.33.830,MST_task,2024.2.0,59.95635177590829,2025-11-17 14h45.43.624995 +0530,
,Scenes\139a.jpg,109,0,110,,,,,,,j,None,,,0.5772362999999814,0.1355965999999853,,,,110,0,109,536.9187355,,,,,,,,,,,,,,,,,,,,,,,,,,,,,,536.9032188,536.9187355,537.4031818999999,,,,,,,,,,,,,,537.4216581,,,,,,,,,,,,,537.4185092,537.4216581,537.4216581,537.4216581,540.419257,j,540.4194209999999,,,540.419484,None,,,0.5772362999999814,0.1355965999999853,,,,,,,,,,,,,00027,001,2025-11-17_14h45.33.830,MST_task,2024.2.0,59.95635177590829,2025-11-17 14h45.43.624995 +0530,
,Scenes\005a.jpg,110,0,111,,,,,,,f,None,,,1.5184203999999681,0.16070409999997537,,,,111,0,110,540.4354473,,,,,,,,,,,,,,,,,,,,,,,,,,,,,,540.4199090999999,540.4354473,540.9199224,,,,,,,,,,,,,,540.9441386999999,,,,,,,,,,,,,540.9409227,540.9441386999999,540.9441386999999,540.9441386999999,543.9355531,f,543.9356389,,,543.9356629,None,,,1.5184203999999681,0.16070409999997537,,,,,,,,,,,,,00027,001,2025-11-17_14h45.33.830,MST_task,2024.2.0,59.95635177590829,2025-11-17 14h45.43.624995 +0530,
,Scenes\179a.jpg,111,0,112,,,,,,,j,None,,,0.6434238000000505,0.15185859999996865,,,,112,0,111,543.9516768,,,,,,,,,,,,,,,,,,,,,,,,,,,,,,543.9357894,543.9516768,544.4369363999999,,,,,,,,,,,,,,544.4597373,,,,,,,,,,,,,544.4565222,544.4597373,544.4597373,544.4597373,547.4358927999999,j,547.4360947,,,547.4361574,None,,,0.6434238000000505,0.15185859999996865,,,,,,,,,,,,,00027,001,2025-11-17_14h45.33.830,MST_task,2024.2.0,59.95635177590829,2025-11-17 14h45.43.624995 +0530,
,Objects\124a.jpg,112,0,113,,,,,,,j,None,,,1.2289034000000356,0.17634429999998247,,,,113,0,112,547.4518476,,,,,,,,,,,,,,,,,,,,,,,,,,,,,,547.4364624,547.4518476,547.9359519,,,,,,,,,,,,,,547.9538063,,,,,,,,,,,,,547.9506784,547.9538063,547.9538063,547.9538063,550.9523607,j,550.9576073,,,550.9576339,None,,,1.2289034000000356,0.17634429999998247,,,,,,,,,,,,,00027,001,2025-11-17_14h45.33.830,MST_task,2024.2.0,59.95635177590829,2025-11-17 14h45.43.624995 +0530,
,Objects\153a.jpg,113,0,114,,,,,,,f,None,,,0.8957474000000047,0.216128299999923,,,,114,0,113,550.9684324,,,,,,,,,,,,,,,,,,,,,,,,,,,,,,550.9577882,550.9684324,551.453181,,,,,,,,,,,,,,551.4708691999999,,,,,,,,,,,,,551.4682085,551.4708691999999,551.4708691999999,551.4708691999999,554.4694504,f,554.469622,,,554.4696844,None,,,0.8957474000000047,0.216128299999923,,,,,,,,,,,,,00027,001,2025-11-17_14h45.33.830,MST_task,2024.2.0,59.95635177590829,2025-11-17 14h45.43.624995 +0530,
,Objects\191a.jpg,114,0,115,,,,,,,f,None,,,0.6674669000000222,0.1760761000000457,,,,115,0,114,554.4853320999999,,,,,,,,,,,,,,,,,,,,,,,,,,,,,,554.4699754,554.4853320999999,554.9698528,,,,,,,,,,,,,,554.9874699,,,,,,,,,,,,,554.9848492,554.9874699,554.9874699,554.9874699,557.9859508,f,557.9861209,,,557.9861814999999,None,,,0.6674669000000222,0.1760761000000457,,,,,,,,,,,,,00027,001,2025-11-17_14h45.33.830,MST_task,2024.2.0,59.95635177590829,2025-11-17 14h45.43.624995 +0530,
,Objects\160a.jpg,115,0,116,,,,,,,f,None,,,0.7907581999999138,0.15991170000006605,,,,116,0,115,558.0018332999999,,,,,,,,,,,,,,,,,,,,,,,,,,,,,,557.9866617,558.0018332999999,558.4866741,,,,,,,,,,,,,,558.5045301,,,,,,,,,,,,,558.5018054999999,558.5045301,558.5045301,558.5045301,561.5028211,f,561.5030145,,,561.5030704999999,None,,,0.7907581999999138,0.15991170000006605,,,,,,,,,,,,,00027,001,2025-11-17_14h45.33.830,MST_task,2024.2.0,59.95635177590829,2025-11-17 14h45.43.624995 +0530,
,Objects\127a.jpg,116,0,117,,,,,,,j,None,,,1.0695062999999436,0.17715789999999743,,,,117,0,116,561.5185971999999,,,,,,,,,,,,,,,,,,,,,,,,,,,,,,561.5033559,561.5185971999999,562.0030438,,,,,,,,,,,,,,562.0254502,,,,,,,,,,,,,562.0228122,562.0254502,562.0254502,562.0254502,565.0192804999999,j,565.0194626,,,565.0195219,None,,,1.0695062999999436,0.17715789999999743,,,,,,,,,,,,,00027,001,2025-11-17_14h45.33.830,MST_task,2024.2.0,59.95635177590829,2025-11-17 14h45.43.624995 +0530,
,Objects\163a.jpg,117,0,118,,,,,,,j,None,,,1.01521630000002,0.1921485999999959,,,,118,0,117,565.0353673999999,,,,,,,,,,,,,,,,,,,,,,,,,,,,,,565.0198766,565.0353673999999,565.5191586999999,,,,,,,,,,,,,,565.5354659,,,,,,,,,,,,,565.5320349,565.5354659,565.5354659,565.5354659,568.5203491999999,j,568.520479,,,568.5205201,None,,,1.01521630000002,0.1921485999999959,568.5353134,568.5353134,568.5353134,,,,,,,,,,00027,001,2025-11-17_14h45.33.830,MST_task,2024.2.0,59.95635177590829,2025-11-17 14h45.43.624995 +0530,
,Objects\057a.jpg,118,0,119,,,,,,,f,None,,,0.974942599999963,0.21556910000003882,,,,119,0,118,568.5353134,,,,,,,,,,,,,,,,,,,,,,,,,,,,,,568.5207508999999,568.5353134,569.0197224,,,,,,,,,,,,,,569.0404672999999,,,,,,,,,,,,,569.0377012,569.0404672999999,569.0404672999999,569.0404672999999,572.0355029,f,572.0355529,,,572.0355671,None,,,0.974942599999963,0.21556910000003882,,,,,,,,,,,,,00027,001,2025-11-17_14h45.33.830,MST_task,2024.2.0,59.95635177590829,2025-11-17 14h45.43.624995 +0530,
,Scenes\096a.jpg,119,0,120,,,,,,,j,None,,,0.906861000000049,0.23220209999999497,,,,120,0,119,572.0516139,,,,,,,,,,,,,,,,,,,,,,,,,,,,,,572.0356449999999,572.0516139,572.535383,,,,,,,,,,,,,,572.5557122,,,,,,,,,,,,,572.5525144,572.5557122,572.5557122,572.5557122,575.5524107,j,575.5542819,,,575.5543023,None,,,0.906861000000049,0.23220209999999497,,,,,,,,,,,,,00027,001,2025-11-17_14h45.33.830,MST_task,2024.2.0,59.95635177590829,2025-11-17 14h45.43.624995 +0530,
,Scenes\085a.jpg,120,0,121,,,,,,,j,None,,,1.0479545999999118,0.16786360000003242,,,,121,0,120,575.5683756999999,,,,,,,,,,,,,,,,,,,,,,,,,,,,,,575.5544216,575.5683756999999,576.0522628,,,,,,,,,,,,,,576.0791712,,,,,,,,,,,,,576.0758794999999,576.0791712,576.0791712,576.0791712,579.0687834,j,579.0688349999999,,,579.068848,None,,,1.0479545999999118,0.16786360000003242,,,,,,,,,,,,,00027,001,2025-11-17_14h45.33.830,MST_task,2024.2.0,59.95635177590829,2025-11-17 14h45.43.624995 +0530,
,Scenes\017a.jpg,121,0,122,,,,,,,f,None,,,1.4262683000000607,0.24008269999990262,,,,122,0,121,579.0850538999999,,,,,,,,,,,,,,,,,,,,,,,,,,,,,,579.0689711,579.0850538999999,579.5688219,,,,,,,,,,,,,,579.5885842,,,,,,,,,,,,,579.5851279,579.5885842,579.5885842,579.5885842,582.5855783999999,f,582.5856272999999,,,582.5856405,None,,,1.4262683000000607,0.24008269999990262,,,,,,,,,,,,,00027,001,2025-11-17_14h45.33.830,MST_task,2024.2.0,59.95635177590829,2025-11-17 14h45.43.624995 +0530,
,Scenes\029a.jpg,122,0,123,,,,,,,j,None,,,0.9884931999999935,0.19249780000006922,,,,123,0,122,582.601537,,,,,,,,,,,,,,,,,,,,,,,,,,,,,,582.5857595,582.601537,583.0855338,,,,,,,,,,,,,,583.1061854999999,,,,,,,,,,,,,583.1026962,583.1061854999999,583.1061854999999,583.1061854999999,586.1021945,j,586.1022432,,,586.1022618,None,,,0.9884931999999935,0.19249780000006922,,,,,,,,,,,,,00027,001,2025-11-17_14h45.33.830,MST_task,2024.2.0,59.95635177590829,2025-11-17 14h45.43.624995 +0530,
,Scenes\187a.jpg,123,0,124,,,,,,,j,None,,,0.6879999999999882,0.1843771999999717,,,,124,0,123,586.1183506,,,,,,,,,,,,,,,,,,,,,,,,,,,,,,586.1023743,586.1183506,586.6021853999999,,,,,,,,,,,,,,586.6229069999999,,,,,,,,,,,,,586.6195377,586.6229069999999,586.6229069999999,586.6229069999999,589.6026443,j,589.6028124,,,589.6028723,None,,,0.6879999999999882,0.1843771999999717,,,,,,,,,,,,,00027,001,2025-11-17_14h45.33.830,MST_task,2024.2.0,59.95635177590829,2025-11-17 14h45.43.624995 +0530,
,Scenes\101a.jpg,124,0,125,,,,,,,j,None,,,1.0709847000000536,0.16836099999989074,,,,125,0,124,589.6186782,,,,,,,,,,,,,,,,,,,,,,,,,,,,,,589.6031798,589.6186782,590.1032451,,,,,,,,,,,,,,590.1281322,,,,,,,,,,,,,590.1248651,590.1281322,590.1281322,590.1281322,593.1192100999999,j,593.1193835,,,593.1194431,None,,,1.0709847000000536,0.16836099999989074,,,,,,,,,,,,,00027,001,2025-11-17_14h45.33.830,MST_task,2024.2.0,59.95635177590829,2025-11-17 14h45.43.624995 +0530,
,Scenes\014a.jpg,125,0,126,,,,,,,f,None,,,1.6132450000000063,0.2562650999999505,,,,126,0,125,593.1355247,,,,,,,,,,,,,,,,,,,,,,,,,,,,,,593.1198057,593.1355247,593.6197808,,,,,,,,,,,,,,593.6413387,,,,,,,,,,,,,593.6382652,593.6413387,593.6413387,593.6413387,596.6358878,f,596.6360558,,,596.636117,None,,,1.6132450000000063,0.2562650999999505,,,,,,,,,,,,,00027,001,2025-11-17_14h45.33.830,MST_task,2024.2.0,59.95635177590829,2025-11-17 14h45.43.624995 +0530,
,Objects\034a.jpg,126,0,127,,,,,,,f,None,,,1.3823926999999685,0.2396456000000171,,,,127,0,126,596.6520037,,,,,,,,,,,,,,,,,,,,,,,,,,,,,,596.6364282999999,596.6520037,597.136338,,,,,,,,,,,,,,597.1687231,,,,,,,,,,,,,597.1656495,597.1687231,597.1687231,597.1687231,600.1520547,f,600.1552459999999,,,600.1552666,None,,,1.3823926999999685,0.2396456000000171,,,,,,,,,,,,,00027,001,2025-11-17_14h45.33.830,MST_task,2024.2.0,59.95635177590829,2025-11-17 14h45.43.624995 +0530,
,Objects\080a.jpg,127,0,128,,,,,,,f,None,,,0.7671037999999726,0.2240854000000354,,,,128,0,127,600.1684038,,,,,,,,,,,,,,,,,,,,,,,,,,,,,,600.1553835999999,600.1684038,600.6530053,,,,,,,,,,,,,,600.6713466,,,,,,,,,,,,,600.6689226999999,600.6713466,600.6713466,600.6713466,603.6692059,f,603.6693889,,,603.6694511,None,,,0.7671037999999726,0.2240854000000354,,,,,,,,,,,,,00027,001,2025-11-17_14h45.33.830,MST_task,2024.2.0,59.95635177590829,2025-11-17 14h45.43.624995 +0530,
,Objects\084a.jpg,128,0,129,,,,,,,j,None,,,1.0891004000000066,0.16791110000008302,,,,129,0,128,603.6854572999999,,,,,,,,,,,,,,,,,,,,,,,,,,,,,,603.6697952,603.6854572999999,604.1697485999999,,,,,,,,,,,,,,604.1896244999999,,,,,,,,,,,,,604.1870752,604.1896244999999,604.1896244999999,604.1896244999999,607.1860117,j,607.1863657,,,607.1864429,None,,,1.0891004000000066,0.16791110000008302,,,,,,,,,,,,,00027,001,2025-11-17_14h45.33.830,MST_task,2024.2.0,59.95635177590829,2025-11-17 14h45.43.624995 +0530,
,Objects\022a.jpg,129,0,130,,,,,,,j,None,,,0.9416701000000103,0.1997047999999495,,,,130,0,129,607.2018442,,,,,,,,,,,,,,,,,,,,,,,,,,,,,,607.1868829,607.2018442,607.6867470999999,,,,,,,,,,,,,,607.7051245,,,,,,,,,,,,,607.7026103,607.7051245,607.7051245,607.7051245,610.7024180999999,j,610.7026501,,,610.7027292,None,,,0.9416701000000103,0.1997047999999495,,,,,,,,,,,,,00027,001,2025-11-17_14h45.33.830,MST_task,2024.2.0,59.95635177590829,2025-11-17 14h45.43.624995 +0530,
,Objects\118a.jpg,130,0,131,,,,,,,f,None,,,0.7733853999999383,0.23171450000006644,,,,131,0,130,610.7187298,,,,,,,,,,,,,,,,,,,,,,,,,,,,,,610.7030208,610.7187298,611.2027975999999,,,,,,,,,,,,,,611.2259022,,,,,,,,,,,,,611.2229367,611.2259022,611.2259022,611.2259022,614.2193477999999,f,614.2195163,,,614.2195768,None,,,0.7733853999999383,0.23171450000006644,,,,,,,,,,,,,00027,001,2025-11-17_14h45.33.830,MST_task,2024.2.0,59.95635177590829,2025-11-17 14h45.43.624995 +0530,
,Objects\177a.jpg,131,0,132,,,,,,,j,None,,,0.7748474999999644,0.11149030000001403,,,,132,0,131,614.2354219,,,,,,,,,,,,,,,,,,,,,,,,,,,,,,614.2198784,614.2354219,614.7195975,,,,,,,,,,,,,,614.7364894,,,,,,,,,,,,,614.7339254999999,614.7364894,614.7364894,614.7364894,617.7208105999999,j,617.7209723999999,,,617.7210223,None,,,0.7748474999999644,0.11149030000001403,617.7352864,617.7352864,617.7352864,,,,,,,,,,00027,001,2025-11-17_14h45.33.830,MST_task,2024.2.0,59.95635177590829,2025-11-17 14h45.43.624995 +0530,
,Objects\038a.jpg,132,0,133,,,,,,,f,None,,,0.713646400000016,0.19185489999995298,,,,133,0,132,617.7352864,,,,,,,,,,,,,,,,,,,,,,,,,,,,,,617.7214461,617.7352864,618.2199954,,,,,,,,,,,,,,618.2374489,,,,,,,,,,,,,618.2348737,618.2374489,618.2374489,618.2374489,621.2362802,f,621.2364517,,,621.2365125,None,,,0.713646400000016,0.19185489999995298,,,,,,,,,,,,,00027,001,2025-11-17_14h45.33.830,MST_task,2024.2.0,59.95635177590829,2025-11-17 14h45.43.624995 +0530,
,Scenes\158a.jpg,133,0,134,,,,,,,f,None,,,2.2877068000000236,0.22419490000004316,,,,134,0,133,621.2518309999999,,,,,,,,,,,,,,,,,,,,,,,,,,,,,,621.2369205,621.2518309999999,621.7365873,,,,,,,,,,,,,,621.7669852,,,,,,,,,,,,,621.7636373,621.7669852,621.7669852,621.7669852,624.7523791,f,624.7582689,,,624.7583076,None,,,2.2877068000000236,0.22419490000004316,,,,,,,,,,,,,00027,001,2025-11-17_14h45.33.830,MST_task,2024.2.0,59.95635177590829,2025-11-17 14h45.43.624995 +0530,
,Scenes\094a.jpg,134,0,135,,,,,,,f,None,,,1.317843200000084,0.2959020999999211,,,,135,0,134,624.7685389,,,,,,,,,,,,,,,,,,,,,,,,,,,,,,624.7584881,624.7685389,625.2533532,,,,,,,,,,,,,,625.2811449999999,,,,,,,,,,,,,625.2779091,625.2811449999999,625.2811449999999,625.2811449999999,628.2693941,f,628.2695491,,,628.269603,None,,,1.317843200000084,0.2959020999999211,,,,,,,,,,,,,00027,001,2025-11-17_14h45.33.830,MST_task,2024.2.0,59.95635177590829,2025-11-17 14h45.43.624995 +0530,
,Scenes\149a.jpg,135,0,136,,,,,,,j,None,,,1.1169717000000219,0.2405434999999443,,,,136,0,135,628.2855642999999,,,,,,,,,,,,,,,,,,,,,,,,,,,,,,628.2698806999999,628.2855642999999,628.7695838999999,,,,,,,,,,,,,,628.7936121,,,,,,,,,,,,,628.7909518,628.7936121,628.7936121,628.7936121,631.786019,j,631.7861833,,,631.7862423,None,,,1.1169717000000219,0.2405434999999443,,,,,,,,,,,,,00027,001,2025-11-17_14h45.33.830,MST_task,2024.2.0,59.95635177590829,2025-11-17 14h45.43.624995 +0530,
,Scenes\181a.jpg,136,0,137,,,,,,,f,None,,,0.9714169000000084,0.2319036999999753,,,,137,0,136,631.8020491,,,,,,,,,,,,,,,,,,,,,,,,,,,,,,631.7865485,631.8020491,632.286691,,,,,,,,,,,,,,632.3153712999999,,,,,,,,,,,,,632.3120023,632.3153712999999,632.3153712999999,632.3153712999999,635.3027228,f,635.3028908,,,635.3029660999999,None,,,0.9714169000000084,0.2319036999999753,,,,,,,,,,,,,00027,001,2025-11-17_14h45.33.830,MST_task,2024.2.0,59.95635177590829,2025-11-17 14h45.43.624995 +0530,
,Scenes\031a.jpg,137,0,138,,,,,,,f,None,,,1.9775217999999768,0.23989189999997507,,,,138,0,137,635.3189142,,,,,,,,,,,,,,,,,,,,,,,,,,,,,,635.3032681999999,635.3189142,635.8034385999999,,,,,,,,,,,,,,635.8371105,,,,,,,,,,,,,635.8338193999999,635.8371105,635.8371105,635.8371105,638.8194221,f,638.8195906,,,638.8196512999999,None,,,1.9775217999999768,0.23989189999997507,,,,,,,,,,,,,00027,001,2025-11-17_14h45.33.830,MST_task,2024.2.0,59.95635177590829,2025-11-17 14h45.43.624995 +0530,
,Scenes\131a.jpg,138,0,139,,,,,,,j,None,,,0.6761467000000039,0.2239674999999579,,,,139,0,138,638.8353925,,,,,,,,,,,,,,,,,,,,,,,,,,,,,,638.8200722,638.8353925,639.3196614,,,,,,,,,,,,,,639.3468694,,,,,,,,,,,,,639.3436323,639.3468694,639.3468694,639.3468694,642.3359786999999,j,642.3361312999999,,,642.3361876,None,,,0.6761467000000039,0.2239674999999579,,,,,,,,,,,,,00027,001,2025-11-17_14h45.33.830,MST_task,2024.2.0,59.95635177590829,2025-11-17 14h45.43.624995 +0530,
,Scenes\002a.jpg,139,0,140,,,,,,,j,None,,,1.6455101999999897,0.22374779999995553,,,,140,0,139,642.3520070999999,,,,,,,,,,,,,,,,,,,,,,,,,,,,,,642.3364682,642.3520070999999,642.8363978,,,,,,,,,,,,,,642.865246,,,,,,,,,,,,,642.8618745,642.865246,642.865246,642.865246,645.8525619,j,645.8527445999999,,,645.8528056,None,,,1.6455101999999897,0.22374779999995553,,,,,,,,,,,,,00027,001,2025-11-17_14h45.33.830,MST_task,2024.2.0,59.95635177590829,2025-11-17 14h45.43.624995 +0530,
,Objects\017a.jpg,140,0,141,,,,,,,j,None,,,1.150402999999983,0.23111099999994167,,,,141,0,140,645.8687284,,,,,,,,,,,,,,,,,,,,,,,,,,,,,,645.8532497,645.8687284,646.3529611,,,,,,,,,,,,,,646.3769566,,,,,,,,,,,,,646.3735743999999,646.3769566,646.3769566,646.3769566,649.3693268,j,649.3761413999999,,,649.3761716,None,,,1.150402999999983,0.23111099999994167,,,,,,,,,,,,,00027,001,2025-11-17_14h45.33.830,MST_task,2024.2.0,59.95635177590829,2025-11-17 14h45.43.624995 +0530,
,Objects\028a.jpg,141,0,142,,,,,,,j,None,,,0.7267613999999867,0.231592800000044,,,,142,0,141,649.3850573,,,,,,,,,,,,,,,,,,,,,,,,,,,,,,649.3763425,649.3850573,649.8700144,,,,,,,,,,,,,,649.8885227,,,,,,,,,,,,,649.8858402,649.8885227,649.8885227,649.8885227,652.8858616,j,652.8860161,,,652.8860665999999,None,,,0.7267613999999867,0.231592800000044,,,,,,,,,,,,,00027,001,2025-11-17_14h45.33.830,MST_task,2024.2.0,59.95635177590829,2025-11-17 14h45.43.624995 +0530,
,Objects\135a.jpg,142,0,143,,,,,,,None,f,0.14821740000002137,None,,,,,,143,0,142,652.9018,,,,,,,,,,,,,,,,,,,,,,,,,,,,,,652.8864324,652.9018,653.3865195999999,,,,,,,,,,,,,,653.4109197,,,,,,,,,,,,,653.4082728,653.4109197,653.4109197,653.4109197,656.4025586,None,656.4027067999999,656.4186321,656.4186321,656.5708638,f,0.14821740000002137,None,,,,,,,,,,,,,,,00027,001,2025-11-17_14h45.33.830,MST_task,2024.2.0,59.95635177590829,2025-11-17 14h45.43.624995 +0530,
,Objects\001a.jpg,143,0,144,,,,,,,f,None,,,1.1503612000000203,0.23237070000004678,,,,144,0,143,656.5853304999999,,,,,,,,,,,,,,,,,,,,,,,,,,,,,,656.5713857,656.5853304999999,657.069888,,,,,,,,,,,,,,657.0883623999999,,,,,,,,,,,,,657.0858815,657.0883623999999,657.0883623999999,657.0883623999999,660.0859272,f,660.0860951,,,660.0861598,None,,,1.1503612000000203,0.23237070000004678,,,,,,,,,,,,,00027,001,2025-11-17_14h45.33.830,MST_task,2024.2.0,59.95635177590829,2025-11-17 14h45.43.624995 +0530,
,Objects\154a.jpg,144,0,145,,,,,,,j,None,,,0.9453025999999909,0.19998899999995956,,,,145,0,144,660.1018392999999,,,,,,,,,,,,,,,,,,,,,,,,,,,,,,660.086458,660.1018392999999,660.5865511,,,,,,,,,,,,,,660.6055170999999,,,,,,,,,,,,,660.6030284,660.6055170999999,660.6055170999999,660.6055170999999,663.602543,j,663.6027103,,,663.6027725,None,,,0.9453025999999909,0.19998899999995956,,,,,,,,,,,,,00027,001,2025-11-17_14h45.33.830,MST_task,2024.2.0,59.95635177590829,2025-11-17 14h45.43.624995 +0530,
,Objects\053a.jpg,145,0,146,,,,,,,f,None,,,1.788503500000047,0.19220550000000003,,,,146,0,145,663.6187463,,,,,,,,,,,,,,,,,,,,,,,,,,,,,,663.6031935,663.6187463,664.1029530999999,,,,,,,,,,,,,,664.1225886999999,,,,,,,,,,,,,664.1199991999999,664.1225886999999,664.1225886999999,664.1225886999999,667.1192424999999,f,667.1194093,,,667.1194709,None,,,1.788503500000047,0.19220550000000003,,,,,,,,,,,,,00027,001,2025-11-17_14h45.33.830,MST_task,2024.2.0,59.95635177590829,2025-11-17 14h45.43.624995 +0530,
,Objects\125a.jpg,146,0,147,,,,,,,j,None,,,0.8712302000000136,0.15234200000008968,,,,147,0,146,667.1352719,,,,,,,,,,,,,,,,,,,,,,,,,,,,,,667.1198799,667.1352719,667.6191369,,,,,,,,,,,,,,667.6398260999999,,,,,,,,,,,,,667.6369374999999,667.6398260999999,667.6398260999999,667.6398260999999,670.6359857,j,670.6361504,,,670.6362113,None,,,0.8712302000000136,0.15234200000008968,,,,,,,,,,,,,00027,001,2025-11-17_14h45.33.830,MST_task,2024.2.0,59.95635177590829,2025-11-17 14h45.43.624995 +0530,
,Scenes\063a.jpg,147,0,148,,,,,,,j,None,,,1.5053484000000026,0.17584529999999177,,,,148,0,147,670.6519175999999,,,,,,,,,,,,,,,,,,,,,,,,,,,,,,670.6366286,670.6519175999999,671.1365131,,,,,,,,,,,,,,671.1657778,,,,,,,,,,,,,671.1624475,671.1657778,671.1657778,671.1657778,674.1525944,j,674.1573893,,,674.1574253,None,,,1.5053484000000026,0.17584529999999177,,,,,,,,,,,,,00027,001,2025-11-17_14h45.33.830,MST_task,2024.2.0,59.95635177590829,2025-11-17 14h45.43.624995 +0530,
,Scenes\156a.jpg,148,0,149,,,,,,,j,None,,,0.9440576999999166,0.14402420000010352,,,,149,0,148,674.1684888,,,,,,,,,,,,,,,,,,,,,,,,,,,,,,674.1576258,674.1684888,674.6529213,,,,,,,,,,,,,,674.6948871999999,,,,,,,,,,,,,674.6915861,674.6948871999999,674.6948871999999,674.6948871999999,677.6691703,j,677.6693008999999,,,677.6693475999999,None,,,0.9440576999999166,0.14402420000010352,,,,,,,,,,,,,00027,001,2025-11-17_14h45.33.830,MST_task,2024.2.0,59.95635177590829,2025-11-17 14h45.43.624995 +0530,
,Scenes\070a.jpg,149,0,150,,,,,,,None,j,1.3247786000000588,None,,,,,,150,0,149,677.6852971999999,,,,,,,,,,,,,,,,,,,,,,,,,,,,,,677.6696835,677.6852971999999,678.1697942,,,,,,,,,,,,,,678.1957924999999,,,,,,,,,,,,,678.1931499,678.1957924999999,678.1957924999999,678.1957924999999,681.1859654,None,681.1861053,681.2018608,681.2018608,682.5375468,j,1.3247786000000588,None,,,,,,,,,,,,,,,00027,001,2025-11-17_14h45.33.830,MST_task,2024.2.0,59.95635177590829,2025-11-17 14h45.43.624995 +0530,
,Scenes\089a.jpg,150,0,151,,,,,,,j,None,,,1.3643286999999873,0.15138849999993909,,,,151,0,150,682.5520799999999,,,,,,,,,,,,,,,,,,,,,,,,,,,,,,682.5381173999999,682.5520799999999,683.0366709,,,,,,,,,,,,,,683.0908774999999,,,,,,,,,,,,,683.0873740999999,683.0908774999999,683.0908774999999,683.0908774999999,686.0524862,j,686.0527374999999,,,686.0528012999999,None,,,1.3643286999999873,0.15138849999993909,,,,,,,,,,,,,00027,001,2025-11-17_14h45.33.830,MST_task,2024.2.0,59.95635177590829,2025-11-17 14h45.43.624995 +0530,
,Scenes\120a.jpg,151,0,152,,,,,,,j,None,,,0.8188705000000027,0.09605810000005022,,,,152,0,151,686.0686506999999,,,,,,,,,,,,,,,,,,,,,,,,,,,,,,686.0530646,686.0686506999999,686.5532172,,,,,,,,,,,,,,686.5806595,,,,,,,,,,,,,686.5770456,686.5806595,686.5806595,686.5806595,689.5693619,j,689.5695327,,,689.5695932,None,,,0.8188705000000027,0.09605810000005022,,,,,,,,,,,,,00027,001,2025-11-17_14h45.33.830,MST_task,2024.2.0,59.95635177590829,2025-11-17 14h45.43.624995 +0530,
,Scenes\052a.jpg,152,0,153,,,,,,,j,None,,,1.736140999999975,0.1839042999999947,,,,153,0,152,689.5854594,,,,,,,,,,,,,,,,,,,,,,,,,,,,,,689.5700618999999,689.5854594,690.0699473999999,,,,,,,,,,,,,,690.0949016,,,,,,,,,,,,,690.0911484,690.0949016,690.0949016,690.0949016,693.0861788,j,693.0863403,,,693.0864008,None,,,1.736140999999975,0.1839042999999947,,,,,,,,,,,,,00027,001,2025-11-17_14h45.33.830,MST_task,2024.2.0,59.95635177590829,2025-11-17 14h45.43.624995 +0530,
,Scenes\039a.jpg,153,0,154,,,,,,,j,None,,,1.9085347000000183,0.17516999999998006,,,,154,0,153,693.1021,,,,,,,,,,,,,,,,,,,,,,,,,,,,,,693.0869379999999,693.1021,693.586549,,,,,,,,,,,,,,693.6109057,,,,,,,,,,,,,693.6076327999999,693.6109057,693.6109057,693.6109057,696.6027131,j,696.6028811,,,696.6029427,None,,,1.9085347000000183,0.17516999999998006,,,,,,,,,,,,,00027,001,2025-11-17_14h45.33.830,MST_task,2024.2.0,59.95635177590829,2025-11-17 14h45.43.624995 +0530,
,Objects\130a.jpg,154,0,155,,,,,,,j,None,,,2.255124099999989,0.1841729000000214,,,,155,0,154,696.61867,,,,,,,,,,,,,,,,,,,,,,,,,,,,,,696.6033685,696.61867,697.1033494999999,,,,,,,,,,,,,,697.1279019,,,,,,,,,,,,,697.1246103999999,697.1279019,697.1279019,697.1279019,700.1193132,j,700.1261334,,,700.1261512,None,,,2.255124099999989,0.1841729000000214,,,,,,,,,,,,,00027,001,2025-11-17_14h45.33.830,MST_task,2024.2.0,59.95635177590829,2025-11-17 14h45.43.624995 +0530,
,Objects\094a.jpg,155,0,156,,,,,,,f,None,,,1.0712111999999934,0.1760590000000093,,,,156,0,155,700.1352733,,,,,,,,,,,,,,,,,,,,,,,,,,,,,,700.1262214,700.1352733,700.6197086999999,,,,,,,,,,,,,,700.6396634,,,,,,,,,,,,,700.6370185,700.6396634,700.6396634,700.6396634,703.6361936,f,703.6363748,,,703.6364304,None,,,1.0712111999999934,0.1760590000000093,,,,,,,,,,,,,00027,001,2025-11-17_14h45.33.830,MST_task,2024.2.0,59.95635177590829,2025-11-17 14h45.43.624995 +0530,
,Objects\143a.jpg,156,0,157,,,,,,,j,None,,,1.04176480000001,0.22372989999996662,,,,157,0,156,703.6522371,,,,,,,,,,,,,,,,,,,,,,,,,,,,,,703.6368324,703.6522371,704.1365951,,,,,,,,,,,,,,704.157073,,,,,,,,,,,,,704.1544197,704.157073,704.157073,704.157073,707.1527936,j,707.1529621,,,707.1530227,None,,,1.04176480000001,0.22372989999996662,,,,,,,,,,,,,00027,001,2025-11-17_14h45.33.830,MST_task,2024.2.0,59.95635177590829,2025-11-17 14h45.43.624995 +0530,
,Objects\123a.jpg,157,0,158,,,,,,,j,None,,,0.911878799999954,0.2562176000000136,,,,158,0,157,707.1687031,,,,,,,,,,,,,,,,,,,,,,,,,,,,,,707.1533237,707.1687031,707.6533638999999,,,,,,,,,,,,,,707.6950810999999,,,,,,,,,,,,,707.6919813,707.6950810999999,707.6950810999999,707.6950810999999,710.6694566,j,710.6696271999999,,,710.6696879,None,,,0.911878799999954,0.2562176000000136,,,,,,,,,,,,,00027,001,2025-11-17_14h45.33.830,MST_task,2024.2.0,59.95635177590829,2025-11-17 14h45.43.624995 +0530,
,Objects\174a.jpg,158,0,159,,,,,,,j,None,,,0.7686631999999918,0.24883760000000166,,,,159,0,158,710.6854298,,,,,,,,,,,,,,,,,,,,,,,,,,,,,,710.6700169,710.6854298,711.1699447,,,,,,,,,,,,,,711.1899367999999,,,,,,,,,,,,,711.1872359,711.1899367999999,711.1899367999999,711.1899367999999,714.1857916,j,714.1859622,,,714.1860586,None,,,0.7686631999999918,0.24883760000000166,,,,,,,,,,,,,00027,001,2025-11-17_14h45.33.830,MST_task,2024.2.0,59.95635177590829,2025-11-17 14h45.43.624995 +0530,
,Objects\024a.jpg,159,0,160,,,,,,,f,None,,,0.8606849999999895,0.19184179999990647,,,,160,0,159,714.2019237999999,,,,,,,,,,,,,,,,,,,,,,,,,,,,,,714.1864713,714.2019237999999,714.6864515999999,,,,,,,,,,,,,,714.7065362,,,,,,,,,,,,,714.7037437,714.7065362,714.7065362,714.7065362,717.7025688,f,717.7027353999999,,,717.7027987,None,,,0.8606849999999895,0.19184179999990647,,,,,,,,,,,,,00027,001,2025-11-17_14h45.33.830,MST_task,2024.2.0,59.95635177590829,2025-11-17 14h45.43.624995 +0530,
,Objects\090a.jpg,160,0,161,,,,,,,j,None,,,0.7441661999999951,0.17600630000004003,,,,161,0,160,717.7185251,,,,,,,,,,,,,,,,,,,,,,,,,,,,,,717.7032277,717.7185251,718.2029471,,,,,,,,,,,,,,718.2226367,,,,,,,,,,,,,718.2200965,718.2226367,718.2226367,718.2226367,721.2191586,j,721.2193098,,,721.2193659999999,None,,,0.7441661999999951,0.17600630000004003,,,,,,,,,,,,,00027,001,2025-11-17_14h45.33.830,MST_task,2024.2.0,59.95635177590829,2025-11-17 14h45.43.624995 +0530,
,Scenes\168a.jpg,161,0,162,,,,,,,j,None,,,0.8915865999999824,0.15963399999998273,,,,162,0,161,721.2352463,,,,,,,,,,,,,,,,,,,,,,,,,,,,,,721.2196362,721.2352463,721.7195747999999,,,,,,,,,,,,,,721.7474298999999,,,,,,,,,,,,,721.7442298,721.7474298999999,721.7474298999999,721.7474298999999,724.7360082,j,724.7428173999999,,,724.7428355,None,,,0.8915865999999824,0.15963399999998273,,,,,,,,,,,,,00027,001,2025-11-17_14h45.33.830,MST_task,2024.2.0,59.95635177590829,2025-11-17 14h45.43.624995 +0530,
,Scenes\134a.jpg,162,0,163,,,,,,,j,None,,,0.8224996000000147,0.18385039999998298,,,,163,0,162,724.7520587,,,,,,,,,,,,,,,,,,,,,,,,,,,,,,724.7429063,724.7520587,725.2365976,,,,,,,,,,,,,,725.2644826,,,,,,,,,,,,,725.261121,725.2644826,725.2644826,725.2644826,728.2527183999999,j,728.2528858,,,728.2529466,None,,,0.8224996000000147,0.18385039999998298,,,,,,,,,,,,,00027,001,2025-11-17_14h45.33.830,MST_task,2024.2.0,59.95635177590829,2025-11-17 14h45.43.624995 +0530,
,Scenes\006a.jpg,163,0,164,,,,,,,j,None,,,2.533713499999976,0.1354221999999936,,,,164,0,163,728.2687053999999,,,,,,,,,,,,,,,,,,,,,,,,,,,,,,728.2533685999999,728.2687053999999,728.7532384,,,,,,,,,,,,,,728.7775147,,,,,,,,,,,,,728.7742663,728.7775147,728.7775147,728.7775147,731.7692374999999,j,731.7694305,,,731.7695117,None,,,2.533713499999976,0.1354221999999936,,,,,,,,,,,,,00027,001,2025-11-17_14h45.33.830,MST_task,2024.2.0,59.95635177590829,2025-11-17 14h45.43.624995 +0530,
,Scenes\078a.jpg,164,0,165,,,,,,,j,None,,,0.8459137999999484,0.13621460000001662,,,,165,0,164,731.7853451,,,,,,,,,,,,,,,,,,,,,,,,,,,,,,731.7698395,731.7853451,732.2697767999999,,,,,,,,,,,,,,732.2967447,,,,,,,,,,,,,732.2931467,732.2967447,732.2967447,732.2967447,735.2865772,j,735.2867218,,,735.2867729,None,,,0.8459137999999484,0.13621460000001662,,,,,,,,,,,,,00027,001,2025-11-17_14h45.33.830,MST_task,2024.2.0,59.95635177590829,2025-11-17 14h45.43.624995 +0530,
,Scenes\073a.jpg,165,0,166,,,,,,,j,None,,,0.5717781000000741,0.15179719999991903,,,,166,0,165,735.3021802,,,,,,,,,,,,,,,,,,,,,,,,,,,,,,735.2871289,735.3021802,735.7866728,,,,,,,,,,,,,,735.8114919999999,,,,,,,,,,,,,735.8082783,735.8114919999999,735.8114919999999,735.8114919999999,738.8026042,j,738.802768,,,738.8028314,None,,,0.5717781000000741,0.15179719999991903,,,,,,,,,,,,,00027,001,2025-11-17_14h45.33.830,MST_task,2024.2.0,59.95635177590829,2025-11-17 14h45.43.624995 +0530,
,Scenes\138a.jpg,166,0,167,,,,,,,j,None,,,0.5310048000000052,0.1587849999999662,,,,167,0,166,738.8186499,,,,,,,,,,,,,,,,,,,,,,,,,,,,,,738.8032512,738.8186499,739.3034306,,,,,,,,,,,,,,739.3328872,,,,,,,,,,,,,739.3302536,739.3328872,739.3328872,739.3328872,742.3189824,j,742.3191479,,,742.3192106,None,,,0.5310048000000052,0.1587849999999662,,,,,,,,,,,,,00027,001,2025-11-17_14h45.33.830,MST_task,2024.2.0,59.95635177590829,2025-11-17 14h45.43.624995 +0530,
,Scenes\097a.jpg,167,0,168,,,,,,,f,None,,,0.649301199999968,0.21586100000001807,,,,168,0,167,742.3352334,,,,,,,,,,,,,,,,,,,,,,,,,,,,,,742.3196636,742.3352334,742.8194492,,,,,,,,,,,,,,742.8376324,,,,,,,,,,,,,742.8343579,742.8376324,742.8376324,742.8376324,745.8360133,f,745.8361473,,,745.8361954,None,,,0.649301199999968,0.21586100000001807,,,,,,,,,,,,,00027,001,2025-11-17_14h45.33.830,MST_task,2024.2.0,59.95635177590829,2025-11-17 14h45.43.624995 +0530,
,Objects\061a.jpg,168,0,169,,,,,,,j,None,,,1.1273025000000416,0.15156859999990502,,,,169,0,168,745.8519883,,,,,,,,,,,,,,,,,,,,,,,,,,,,,,745.8365516,745.8519883,746.3368674999999,,,,,,,,,,,,,,746.3597267,,,,,,,,,,,,,746.3560195,746.3597267,746.3597267,746.3597267,749.3526615,j,749.3597602,,,749.3598139,None,,,1.1273025000000416,0.15156859999990502,,,,,,,,,,,,,00027,001,2025-11-17_14h45.33.830,MST_task,2024.2.0,59.95635177590829,2025-11-17 14h45.43.624995 +0530,
,Objects\041a.jpg,169,0,170,,,,,,,j,None,,,0.6051502999999911,0.17585160000010092,,,,170,0,169,749.3682115,,,,,,,,,,,,,,,,,,,,,,,,,,,,,,749.3599931,749.3682115,749.8532167999999,,,,,,,,,,,,,,749.873969,,,,,,,,,,,,,749.8712687,749.873969,749.873969,749.873969,752.8693746,j,752.8695438999999,,,752.8696072,None,,,0.6051502999999911,0.17585160000010092,,,,,,,,,,,,,00027,001,2025-11-17_14h45.33.830,MST_task,2024.2.0,59.95635177590829,2025-11-17 14h45.43.624995 +0530,
,Objects\107a.jpg,170,0,171,,,,,,,j,None,,,0.5869771000000128,0.15246330000002217,,,,171,0,170,752.8853798,,,,,,,,,,,,,,,,,,,,,,,,,,,,,,752.8700769,752.8853798,753.3694477,,,,,,,,,,,,,,753.3877298,,,,,,,,,,,,,753.3851998,753.3877298,753.3877298,753.3877298,756.3862226,j,756.3864004,,,756.3864608,None,,,0.5869771000000128,0.15246330000002217,,,,,,,,,,,,,00027,001,2025-11-17_14h45.33.830,MST_task,2024.2.0,59.95635177590829,2025-11-17 14h45.43.624995 +0530,
,Objects\056a.jpg,171,0,172,,,,,,,f,None,,,0.8528388999999379,0.22401009999998678,,,,172,0,171,756.4021038999999,,,,,,,,,,,,,,,,,,,,,,,,,,,,,,756.3869037,756.4021038999999,756.8867285,,,,,,,,,,,,,,756.9058367,,,,,,,,,,,,,756.9031175,756.9058367,756.9058367,756.9058367,759.9027768,f,759.9029555999999,,,759.9030200999999,None,,,0.8528388999999379,0.22401009999998678,,,,,,,,,,,,,00027,001,2025-11-17_14h45.33.830,MST_task,2024.2.0,59.95635177590829,2025-11-17 14h45.43.624995 +0530,
,Objects\004a.jpg,172,0,173,,,,,,,j,None,,,0.7019862000000785,0.17586069999993015,,,,173,0,172,759.9186242999999,,,,,,,,,,,,,,,,,,,,,,,,,,,,,,759.9033211,759.9186242999999,760.4033558,,,,,,,,,,,,,,760.4252841,,,,,,,,,,,,,760.4226161,760.4252841,760.4252841,760.4252841,763.4191245999999,j,763.4192971,,,763.4193597999999,None,,,0.7019862000000785,0.17586069999993015,,,,,,,,,,,,,00027,001,2025-11-17_14h45.33.830,MST_task,2024.2.0,59.95635177590829,2025-11-17 14h45.43.624995 +0530,
,Objects\117a.jpg,173,0,174,,,,,,,f,None,,,1.8037027999999964,0.16911630000004152,,,,174,0,173,763.4352357,,,,,,,,,,,,,,,,,,,,,,,,,,,,,,763.4196623,763.4352357,763.9201744,,,,,,,,,,,,,,763.9395195,,,,,,,,,,,,,763.9368031,763.9395195,763.9395195,763.9395195,766.9195483999999,f,766.9197191,,,766.9197798,None,,,1.8037027999999964,0.16911630000004152,,,,,,,,,,,,,00027,001,2025-11-17_14h45.33.830,MST_task,2024.2.0,59.95635177590829,2025-11-17 14h45.43.624995 +0530,
,Objects\148a.jpg,174,0,175,,,,,,,f,None,,,1.175514499999963,0.13492020000001048,,,,175,0,174,766.9351513,,,,,,,,,,,,,,,,,,,,,,,,,,,,,,766.920086,766.9351513,767.4198685,,,,,,,,,,,,,,767.4401396,,,,,,,,,,,,,767.437342,767.4401396,767.4401396,767.4401396,770.4360545,f,770.4362257,,,770.436289,None,,,1.175514499999963,0.13492020000001048,,,,,,,,,,,,,00027,001,2025-11-17_14h45.33.830,MST_task,2024.2.0,59.95635177590829,2025-11-17 14h45.43.624995 +0530,
,Scenes\072a.jpg,175,0,176,,,,,,,j,None,,,0.6919223999999531,0.14342250000004242,,,,176,0,175,770.4519392999999,,,,,,,,,,,,,,,,,,,,,,,,,,,,,,770.4366357,770.4519392999999,770.9359946999999,,,,,,,,,,,,,,770.9635847999999,,,,,,,,,,,,,770.9601312,770.9635847999999,770.9635847999999,770.9635847999999,773.9527340999999,j,773.9580945,,,773.9581516999999,None,,,0.6919223999999531,0.14342250000004242,,,,,,,,,,,,,00027,001,2025-11-17_14h45.33.830,MST_task,2024.2.0,59.95635177590829,2025-11-17 14h45.43.624995 +0530,
,Scenes\192a.jpg,176,0,177,,,,,,,j,None,,,1.690467099999978,0.15988930000003165,,,,177,0,176,773.9684894999999,,,,,,,,,,,,,,,,,,,,,,,,,,,,,,773.9583679,773.9684894999999,774.4529648,,,,,,,,,,,,,,774.4770303,,,,,,,,,,,,,774.4739288999999,774.4770303,774.4770303,774.4770303,777.4692209,j,777.4693836,,,777.4694442,None,,,1.690467099999978,0.15988930000003165,,,,,,,,,,,,,00027,001,2025-11-17_14h45.33.830,MST_task,2024.2.0,59.95635177590829,2025-11-17 14h45.43.624995 +0530,
,Scenes\055a.jpg,177,0,178,,,,,,,j,None,,,1.4121243000000732,0.14431089999993674,,,,178,0,177,777.4852569,,,,,,,,,,,,,,,,,,,,,,,,,,,,,,777.4697483,777.4852569,777.9697044,,,,,,,,,,,,,,778.0024887,,,,,,,,,,,,,777.9990925,778.0024887,778.0024887,778.0024887,780.9859157999999,j,780.9860861999999,,,780.9861473,None,,,1.4121243000000732,0.14431089999993674,,,,,,,,,,,,,00027,001,2025-11-17_14h45.33.830,MST_task,2024.2.0,59.95635177590829,2025-11-17 14h45.43.624995 +0530,
,Scenes\117a.jpg,178,0,179,,,,,,,j,None,,,0.737610800000084,0.13577649999990626,,,,179,0,178,781.0020668999999,,,,,,,,,,,,,,,,,,,,,,,,,,,,,,780.9864447,781.0020668999999,781.4864061999999,,,,,,,,,,,,,,781.5097178999999,,,,,,,,,,,,,781.5065169999999,781.5097178999999,781.5097178999999,781.5097178999999,784.502402,j,784.5025402,,,784.5025876999999,None,,,0.737610800000084,0.13577649999990626,,,,,,,,,,,,,00027,001,2025-11-17_14h45.33.830,MST_task,2024.2.0,59.95635177590829,2025-11-17 14h45.43.624995 +0530,
,Scenes\177a.jpg,179,0,180,,,,,,,j,None,,,2.7604849000000513,0.15190020000000004,,,,180,0,179,784.5184898,,,,,,,,,,,,,,,,,,,,,,,,,,,,,,784.5029261,784.5184898,785.0029327,,,,,,,,,,,,,,785.022606,,,,,,,,,,,,,785.0191553,785.022606,785.022606,785.022606,788.0188763,j,788.0190332,,,788.019094,None,,,2.7604849000000513,0.15190020000000004,,,,,,,,,,,,,00027,001,2025-11-17_14h45.33.830,MST_task,2024.2.0,59.95635177590829,2025-11-17 14h45.43.624995 +0530,
,Scenes\093a.jpg,180,0,181,,,,,,,f,None,,,1.0529953999999861,0.16742920000001504,,,,181,0,180,788.0351065,,,,,,,,,,,,,,,,,,,,,,,,,,,,,,788.0193885,788.0351065,788.5190656999999,,,,,,,,,,,,,,788.5386797,,,,,,,,,,,,,788.5354368,788.5386797,788.5386797,788.5386797,791.5360627,f,791.5362318,,,791.5362882,None,,,1.0529953999999861,0.16742920000001504,,,,,,,,,,,,,00027,001,2025-11-17_14h45.33.830,MST_task,2024.2.0,59.95635177590829,2025-11-17 14h45.43.624995 +0530,
,Scenes\019a.jpg,181,0,182,,,,,,,j,None,,,1.4578359999999293,0.16807970000002115,,,,182,0,181,791.5519314,,,,,,,,,,,,,,,,,,,,,,,,,,,,,,791.5367004,791.5519314,792.0367427,,,,,,,,,,,,,,792.0613271999999,,,,,,,,,,,,,792.0580434999999,792.0613271999999,792.0613271999999,792.0613271999999,795.0521977999999,j,795.0522457,,,795.0522588,None,,,1.4578359999999293,0.16807970000002115,,,,,,,,,,,,,00027,001,2025-11-17_14h45.33.830,MST_task,2024.2.0,59.95635177590829,2025-11-17 14h45.43.624995 +0530,
,Objects\182a.jpg,182,0,183,,,,,,,j,None,,,2.34991100000002,0.1833756999999423,,,,183,0,182,795.068317,,,,,,,,,,,,,,,,,,,,,,,,,,,,,,795.0523317999999,795.068317,795.5519274999999,,,,,,,,,,,,,,795.5692627,,,,,,,,,,,,,795.5638935,795.5692627,795.5692627,795.5692627,798.5525948,j,798.5602908,,,798.5603301,None,,,2.34991100000002,0.1833756999999423,,,,,,,,,,,,,00027,001,2025-11-17_14h45.33.830,MST_task,2024.2.0,59.95635177590829,2025-11-17 14h45.43.624995 +0530,
,Objects\093a.jpg,183,0,184,,,,,,,j,None,,,0.9544157999999925,0.17575769999996282,,,,184,0,183,798.5683942,,,,,,,,,,,,,,,,,,,,,,,,,,,,,,798.5604758,798.5683942,799.0520229,,,,,,,,,,,,,,799.0688147,,,,,,,,,,,,,799.0616448999999,799.0688147,799.0688147,799.0688147,802.0524176,j,802.0524619,,,802.0524736,None,,,0.9544157999999925,0.17575769999996282,802.0683708,802.0683708,802.0683708,,,,,,,,,,00027,001,2025-11-17_14h45.33.830,MST_task,2024.2.0,59.95635177590829,2025-11-17 14h45.43.624995 +0530,
,Objects\183a.jpg,184,0,185,,,,,,,j,None,,,0.85000720000005,0.12830770000005032,,,,185,0,184,802.0683708,,,,,,,,,,,,,,,,,,,,,,,,,,,,,,802.0525398,802.0683708,802.5525374,,,,,,,,,,,,,,802.5724556,,,,,,,,,,,,,802.569574,802.5724556,802.5724556,802.5724556,805.5688905999999,j,805.5689324,,,805.5689443,None,,,0.85000720000005,0.12830770000005032,,,,,,,,,,,,,00027,001,2025-11-17_14h45.33.830,MST_task,2024.2.0,59.95635177590829,2025-11-17 14h45.43.624995 +0530,
,Objects\133a.jpg,185,0,186,,,,,,,j,None,,,1.3135113999999248,0.1283162000000857,,,,186,0,185,805.5852378999999,,,,,,,,,,,,,,,,,,,,,,,,,,,,,,805.5690457,805.5852378999999,806.0687702,,,,,,,,,,,,,,806.0855354,,,,,,,,,,,,,806.0785767,806.0855354,806.0855354,806.0855354,809.0692941,j,809.0693554,,,809.0693716999999,None,,,1.3135113999999248,0.1283162000000857,809.0851923,809.0851923,809.0851923,,,,,,,,,,00027,001,2025-11-17_14h45.33.830,MST_task,2024.2.0,59.95635177590829,2025-11-17 14h45.43.624995 +0530,
,Objects\011a.jpg,186,0,187,,,,,,,f,None,,,0.9410388000000012,0.20781030000000555,,,,187,0,186,809.0851923,,,,,,,,,,,,,,,,,,,,,,,,,,,,,,809.0694619999999,809.0851923,809.5688335,,,,,,,,,,,,,,809.5855474,,,,,,,,,,,,,809.5811070999999,809.5855474,809.5855474,809.5855474,812.5704559,f,812.5706123,,,812.5706666,None,,,0.9410388000000012,0.20781030000000555,812.5853081,812.5853081,812.5853081,,,,,,,,,,00027,001,2025-11-17_14h45.33.830,MST_task,2024.2.0,59.95635177590829,2025-11-17 14h45.43.624995 +0530,
,Objects\037a.jpg,187,0,188,,,,,,,f,None,,,0.9291784999999209,0.1520520999999917,,,,188,0,187,812.5853081,,,,,,,,,,,,,,,,,,,,,,,,,,,,,,812.5709302,812.5853081,813.0686506,,,,,,,,,,,,,,813.0855505999999,,,,,,,,,,,,,813.0797407,813.0855505999999,813.0855505999999,813.0855505999999,816.0691208,f,816.0691644,,,816.0691760999999,None,,,0.9291784999999209,0.1520520999999917,816.0851477,816.0851477,816.0851477,,,,,,,,,,00027,001,2025-11-17_14h45.33.830,MST_task,2024.2.0,59.95635177590829,2025-11-17 14h45.43.624995 +0530,
