Sl_no,image_path,thisN,thisTrialN,thisRepN,key_resp_5.keys,key_resp_5.rt,key_resp_5.duration,key_resp_7.keys,key_resp_9.keys,key_resp_8.keys,key_resp_8.rt,key_resp_8.duration,key_resp_9.rt,key_resp_9.duration,practice.thisRepN,practice.thisTrialN,practice.thisN,trials.thisRepN,trials.thisTrialN,trials.thisN,thisRow.t,notes,welcome_page.started,text.started,key_resp.started,welcome_page.stopped,key_resp.keys,key_resp.rt,key_resp.duration,instructions.started,ins.started,key_resp_2.started,instructions.stopped,key_resp_2.keys,key_resp_2.rt,key_resp_2.duration,instructions_2.started,text_10.started,key_resp_10.started,instructions_2.stopped,key_resp_10.keys,key_resp_10.rt,key_resp_10.duration,objects_only_instruction.started,text_3.started,key_resp_3.started,objects_only_instruction.stopped,key_resp_3.keys,key_resp_3.rt,key_resp_3.duration,ISI.started,text_4.started,ISI.stopped,practice_block.started,image.started,text_5.started,key_resp_5.started,practice_block.stopped,practice.key_resp_5.keys,practice.key_resp_5.rt,practice.key_resp_5.duration,indoor_outdoor.started,indoor_outdoor.stopped,practice.key_resp_7.keys,text_4.stopped,image.stopped,text_5.stopped,key_resp_5.stopped,practice_to_main.started,text_2.started,key_resp_4.started,practice_to_main.stopped,key_resp_4.keys,key_resp_4.rt,key_resp_4.duration,objects.started,image_2.started,text_9.started,key_resp_9.started,objects.stopped,trials.key_resp_9.keys,encoding_task.started,text_8.started,key_resp_8.started,encoding_task.stopped,trials.key_resp_8.keys,trials.key_resp_8.rt,trials.key_resp_8.duration,trials.key_resp_9.rt,trials.key_resp_9.duration,image_2.stopped,text_9.stopped,key_resp_9.stopped,end_experiment.started,text_6.started,key_resp_6.started,end_experiment.stopped,key_resp_6.keys,key_resp_6.rt,key_resp_6.duration,list_of_stimuli,encoding_task_accuracy,participant,session,date,expName,psychopyVersion,frameRate,expStart,
,,,,,,,,,,,,,,,,,,,,,,,0.0018274000030942261,0.003922100004274398,0.003922100004274398,9.83063580000453,space,9.812851500006218,None,,,,,,,,,,,,,,,,,,,,,,,,,,,,,,,,,,,,,,,,,,,,,,,,,,,,,,,,,,,,,,,,,,,,,,,,,,00026,001,2025-11-15_16h03.48.687,MST_task,2024.2.0,100.19588294968105,2025-11-15 16h03.54.035573 +0530,
,,,,,,,,,,,,,,,,,,,,,,,,,,,,,,9.830692499999714,9.84400490000553,9.84400490000553,28.364766400001827,space,18.516675099999702,None,,,,,,,,,,,,,,,,,,,,,,,,,,,,,,,,,,,,,,,,,,,,,,,,,,,,,,,,,,,,,,,,,,,00026,001,2025-11-15_16h03.48.687,MST_task,2024.2.0,100.19588294968105,2025-11-15 16h03.54.035573 +0530,
,,,,,,,,,,,,,,,,,,,,,,,,,,,,,,,,,,,,,28.364849700003106,28.372959800006356,28.372959800006356,45.14278550000017,space,16.76365139999689,None,,,,,,,,,,,,,,,,,,,,,,,,,,,,,,,,,,,,,,,,,,,,,,,,,,,,,,,,,,,,00026,001,2025-11-15_16h03.48.687,MST_task,2024.2.0,100.19588294968105,2025-11-15 16h03.54.035573 +0530,
,,,,,,,,,,,,,,,,,,,,,,,,,,,,,,,,,,,,,,,,,,,,45.14288140000281,45.15736630000174,45.15736630000174,70.94873970000481,space,25.787897000001976,None,,,,,,,,,,,,,,,,,,,,,,,,,,,,,,,,,,,,,,,,,,,,,,,,,,,,,00026,001,2025-11-15_16h03.48.687,MST_task,2024.2.0,100.19588294968105,2025-11-15 16h03.54.035573 +0530,
6,practice_images/158a.jpg,0,0,1,j,1.506733299996995,0.16021720000571804,None,,,,,,,1,0,0,,,,70.96621790000063,,,,,,,,,,,,,,,,,,,,,,,,,,,,,,70.96367550000286,70.96621790000063,71.45788660000107,71.47505660000024,71.4862174000009,71.4862174000009,71.4862174000009,74.45767130000604,j,1.506733299996995,0.16021720000571804,74.46259750000172,74.46263130000443,None,,,,,,,,,,,,,,,,,,,,,,,,,,,,,,,,,,,,,,,00026,001,2025-11-15_16h03.48.687,MST_task,2024.2.0,100.19588294968105,2025-11-15 16h03.54.035573 +0530,
2,practice_images/031a.jpg,1,1,1,j,1.56347690000257,0.16761549999500858,None,,,,,,,1,1,1,,,,74.46690250000393,,,,,,,,,,,,,,,,,,,,,,,,,,,,,,74.46274719999928,74.46690250000393,74.95839510000224,74.97114390000206,74.97350700000243,74.97350700000243,74.97350700000243,77.95710770000005,j,1.56347690000257,0.16761549999500858,77.95716620000167,77.95718870000564,None,74.97350700000243,77.96661230000609,77.96661230000609,77.96661230000609,,,,,,,,,,,,,,,,,,,,,,,,,,,,,,,,,,,00026,001,2025-11-15_16h03.48.687,MST_task,2024.2.0,100.19588294968105,2025-11-15 16h03.54.035573 +0530,
7,practice_images/166a.jpg,2,2,1,f,1.9344917999987956,0.17614390000380808,None,,,,,,,1,2,2,,,,77.96661230000609,,,,,,,,,,,,,,,,,,,,,,,,,,,,,,77.95729620000202,77.96661230000609,78.45764580000105,78.47143689999939,78.47376170000643,78.47376170000643,78.47376170000643,81.45766880000156,f,1.9344917999987956,0.17614390000380808,81.4578113000025,81.45786780000344,None,78.47376170000643,81.46605740000086,81.46605740000086,81.46605740000086,,,,,,,,,,,,,,,,,,,,,,,,,,,,,,,,,,,00026,001,2025-11-15_16h03.48.687,MST_task,2024.2.0,100.19588294968105,2025-11-15 16h03.54.035573 +0530,
8,practice_images/178a.jpg,3,3,1,f,1.1572819000066374,0.1759027999942191,None,,,,,,,1,3,3,,,,81.46605740000086,,,,,,,,,,,,,,,,,,,,,,,,,,,,,,81.45812250000017,81.46605740000086,81.95691960000113,81.96920910000335,81.97158610000042,81.97158610000042,81.97158610000042,84.95688130000053,f,1.1572819000066374,0.1759027999942191,84.95702420000453,84.95708240000386,None,81.97158610000042,84.9657159000053,84.9657159000053,84.9657159000053,,,,,,,,,,,,,,,,,,,,,,,,,,,,,,,,,,,00026,001,2025-11-15_16h03.48.687,MST_task,2024.2.0,100.19588294968105,2025-11-15 16h03.54.035573 +0530,
5,practice_images/139a.jpg,4,4,1,j,1.3206686000048649,0.19996839999657823,None,,,,,,,1,4,4,,,,84.9657159000053,,,,,,,,,,,,,,,,,,,,,,,,,,,,,,84.95736040000338,84.9657159000053,85.45642620000581,85.46913029999996,85.4718434000024,85.4718434000024,85.4718434000024,88.45618950000062,j,1.3206686000048649,0.19996839999657823,88.45628950000537,88.45632820000174,None,85.4718434000024,88.46521240000584,88.46521240000584,88.46521240000584,,,,,,,,,,,,,,,,,,,,,,,,,,,,,,,,,,,00026,001,2025-11-15_16h03.48.687,MST_task,2024.2.0,100.19588294968105,2025-11-15 16h03.54.035573 +0530,
3,practice_images/037a.jpg,5,5,1,f,1.8958184000002802,0.2075083000017912,None,,,,,,,1,5,5,,,,88.46521240000584,,,,,,,,,,,,,,,,,,,,,,,,,,,,,,88.45652880000125,88.46521240000584,88.95610149999993,88.97452420000627,88.97686350000004,88.97686350000004,88.97686350000004,91.96528850000323,f,1.8958184000002802,0.2075083000017912,91.97147210000549,91.97149619999982,None,88.97686350000004,,,,,,,,,,,,,,,,,,,,,,,,,,,,,,,,,,,,,,00026,001,2025-11-15_16h03.48.687,MST_task,2024.2.0,100.19588294968105,2025-11-15 16h03.54.035573 +0530,
9,practice_images/180a.jpg,6,6,1,j,0.8997849000006681,0.1683372000043164,None,,,,,,,1,6,6,,,,91.97472220000054,,,,,,,,,,,,,,,,,,,,,,,,,,,,,,91.97162720000051,91.97472220000054,92.466342300002,92.48213530000066,92.48466530000587,92.48466530000587,92.48466530000587,95.47496550000506,j,0.8997849000006681,0.1683372000043164,95.4750853000005,95.47513570000592,None,92.48466530000587,,,,,,,,,,,,,,,,,,,,,,,,,,,,,,,,,,,,,,00026,001,2025-11-15_16h03.48.687,MST_task,2024.2.0,100.19588294968105,2025-11-15 16h03.54.035573 +0530,
10,practice_images/182a.jpg,7,7,1,f,1.220633100005216,0.19125959999655606,None,,,,,,,1,7,7,,,,95.48454920000222,,,,,,,,,,,,,,,,,,,,,,,,,,,,,,95.4753622000062,95.48454920000222,95.97559990000445,95.98612330000469,95.98842060000607,95.98842060000607,95.98842060000607,98.97539700000198,f,1.220633100005216,0.19125959999655606,98.97552140000334,98.97556650000479,None,95.98842060000607,98.98397520000435,98.98397520000435,98.98397520000435,,,,,,,,,,,,,,,,,,,,,,,,,,,,,,,,,,,00026,001,2025-11-15_16h03.48.687,MST_task,2024.2.0,100.19588294968105,2025-11-15 16h03.54.035573 +0530,
4,practice_images/002b.jpg,8,8,1,j,1.3184825999996974,0.167990900001314,None,,,,,,,1,8,8,,,,98.98397520000435,,,,,,,,,,,,,,,,,,,,,,,,,,,,,,98.97577880000608,98.98397520000435,99.47515870000643,99.4881383000029,99.49059250000573,99.49059250000573,99.49059250000573,102.4741897999993,j,1.3184825999996974,0.167990900001314,102.47425620000286,102.47428360000049,None,99.49059250000573,102.48347800000192,102.48347800000192,102.48347800000192,,,,,,,,,,,,,,,,,,,,,,,,,,,,,,,,,,,00026,001,2025-11-15_16h03.48.687,MST_task,2024.2.0,100.19588294968105,2025-11-15 16h03.54.035573 +0530,
1,practice_images/013a.jpg,9,9,1,j,0.948796399999992,0.18293350000021746,None,,,,,,,1,9,9,,,,102.48347800000192,,,,,,,,,,,,,,,,,,,,,,,,,,,,,,102.47442660000524,102.48347800000192,102.97436360000574,102.98708990000159,102.98938470000576,102.98938470000576,102.98938470000576,105.9743471000038,j,0.948796399999992,0.18293350000021746,105.97449110000161,105.97454090000247,None,102.98938470000576,105.98762310000166,105.98762310000166,105.98762310000166,,,,,,,,,,,,,,,,,,,,,,,,,,,,,,,,,,,00026,001,2025-11-15_16h03.48.687,MST_task,2024.2.0,100.19588294968105,2025-11-15 16h03.54.035573 +0530,
,,,,,,,,,,,,,,,,,,,,,,,,,,,,,,,,,,,,,,,,,,,,,,,,,,,,,,,,,,,,,,,,,,,,,105.9746868000002,105.98762310000166,105.98762310000166,159.13957530000334,space,53.14891129999887,None,,,,,,,,,,,,,,,,,,,,,,,,,,,,00026,001,2025-11-15_16h03.48.687,MST_task,2024.2.0,100.19588294968105,2025-11-15 16h03.54.035573 +0530,
,Scenes\080a.jpg,0,0,1,,,,,None,j,0.6012155999997049,None,,,,,,1,0,0,159.14633880000474,,,,,,,,,,,,,,,,,,,,,,,,,,,,,,159.14178750000428,159.14633880000474,159.63731490000646,,,,,,,,,,,,159.66515510000318,,,,,,,,,,,159.66135880000365,159.66515510000318,159.66515510000318,159.66515510000318,162.64628820000507,None,162.65008390000003,162.65580490000139,162.65580490000139,163.26719450000382,j,0.6012155999997049,None,,,,,,,,,,,,,,,00026,001,2025-11-15_16h03.48.687,MST_task,2024.2.0,100.19588294968105,2025-11-15 16h03.54.035573 +0530,
,Scenes\049a.jpg,1,0,2,,,,,j,None,,,1.3214707000006456,0.16893400000117254,,,,2,0,1,163.27582090000215,,,,,,,,,,,,,,,,,,,,,,,,,,,,,,163.26748810000572,163.27582090000215,163.76654699999926,,,,,,,,,,,,163.79093950000242,,,,,,,,,,,163.78779059999943,163.79093950000242,163.79093950000242,163.79093950000242,166.77599490000284,j,166.77612760000193,,,166.77617100000498,None,,,1.3214707000006456,0.16893400000117254,,,,,,,,,,,,,00026,001,2025-11-15_16h03.48.687,MST_task,2024.2.0,100.19588294968105,2025-11-15 16h03.54.035573 +0530,
,Scenes\084a.jpg,2,0,3,,,,,j,None,,,1.4034922999999253,0.17685229999915464,,,,3,0,2,166.78553260000626,,,,,,,,,,,,,,,,,,,,,,,,,,,,,,166.7765356000018,166.78553260000626,167.27670450000005,,,,,,,,,,,,167.3008289000063,,,,,,,,,,,167.2975637000054,167.3008289000063,167.3008289000063,167.3008289000063,170.28541580000456,j,170.28551770000195,,,170.28555070000584,None,,,1.4034922999999253,0.17685229999915464,,,,,,,,,,,,,00026,001,2025-11-15_16h03.48.687,MST_task,2024.2.0,100.19588294968105,2025-11-15 16h03.54.035573 +0530,
,Scenes\089a.jpg,3,0,4,,,,,j,None,,,0.9157251999931759,0.16762560000643134,,,,4,0,3,170.29491720000078,,,,,,,,,,,,,,,,,,,,,,,,,,,,,,170.28581870000198,170.29491720000078,170.7862413000039,,,,,,,,,,,,170.81281790000503,,,,,,,,,,,170.8093527000019,170.81281790000503,170.81281790000503,170.81281790000503,173.7949873000034,j,173.79510130000563,,,173.79513800000132,None,,,0.9157251999931759,0.16762560000643134,,,,,,,,,,,,,00026,001,2025-11-15_16h03.48.687,MST_task,2024.2.0,100.19588294968105,2025-11-15 16h03.54.035573 +0530,
,Scenes\068a.jpg,4,0,5,,,,,j,None,,,1.5214183999996749,0.16760429999703774,,,,5,0,4,173.80441780000547,,,,,,,,,,,,,,,,,,,,,,,,,,,,,,173.79533510000329,173.80441780000547,174.29533540000557,,,,,,,,,,,,174.3195646000022,,,,,,,,,,,174.31621790000645,174.3195646000022,174.3195646000022,174.3195646000022,177.3046381000022,j,177.3047785000017,,,177.30482340000162,None,,,1.5214183999996749,0.16760429999703774,,,,,,,,,,,,,00026,001,2025-11-15_16h03.48.687,MST_task,2024.2.0,100.19588294968105,2025-11-15 16h03.54.035573 +0530,
,Scenes\181a.jpg,5,0,6,,,,,f,None,,,1.6842624999990221,0.15189269999973476,,,,6,0,5,177.31401050000568,,,,,,,,,,,,,,,,,,,,,,,,,,,,,,177.3052067000026,177.31401050000568,177.80551689999993,,,,,,,,,,,,177.82855330000166,,,,,,,,,,,177.82512940000015,177.82855330000166,177.82855330000166,177.82855330000166,180.8141298000046,f,180.81425170000148,,,180.81428890000097,None,,,1.6842624999990221,0.15189269999973476,,,,,,,,,,,,,00026,001,2025-11-15_16h03.48.687,MST_task,2024.2.0,100.19588294968105,2025-11-15 16h03.54.035573 +0530,
,Scenes\163a.jpg,6,0,7,,,,,j,None,,,0.8106827000010526,0.18389019999449374,,,,7,0,6,180.82351170000038,,,,,,,,,,,,,,,,,,,,,,,,,,,,,,180.81449900000007,180.82351170000038,181.31487890000426,,,,,,,,,,,,181.33365170000616,,,,,,,,,,,181.33038040000247,181.33365170000616,181.33365170000616,181.33365170000616,184.32415690000198,j,184.32429319999937,,,184.32433760000276,None,,,0.8106827000010526,0.18389019999449374,,,,,,,,,,,,,00026,001,2025-11-15_16h03.48.687,MST_task,2024.2.0,100.19588294968105,2025-11-15 16h03.54.035573 +0530,
,Objects\026a.jpg,7,0,8,,,,,f,None,,,1.0641476000018883,0.18347799999901326,,,,8,0,7,184.33312580000347,,,,,,,,,,,,,,,,,,,,,,,,,,,,,,184.3246827000039,184.33312580000347,184.82395940000424,,,,,,,,,,,,184.84878780000145,,,,,,,,,,,184.84608370000205,184.84878780000145,184.84878780000145,184.84878780000145,187.83323980000569,f,187.8414552000031,,,187.84150840000075,None,,,1.0641476000018883,0.18347799999901326,,,,,,,,,,,,,00026,001,2025-11-15_16h03.48.687,MST_task,2024.2.0,100.19588294968105,2025-11-15 16h03.54.035573 +0530,
,Objects\087a.jpg,8,0,9,,,,,j,None,,,1.8204872999995132,0.21672360000229673,,,,9,0,8,187.84428430000116,,,,,,,,,,,,,,,,,,,,,,,,,,,,,,187.8418445999996,187.84428430000116,188.33327819999977,,,,,,,,,,,,188.34787950000464,,,,,,,,,,,188.34546200000477,188.34787950000464,188.34787950000464,188.34787950000464,191.3336741000021,j,191.33377250000194,,,191.3338012000022,None,,,1.8204872999995132,0.21672360000229673,191.34224320000067,191.34224320000067,191.34224320000067,,,,,,,,,,00026,001,2025-11-15_16h03.48.687,MST_task,2024.2.0,100.19588294968105,2025-11-15 16h03.54.035573 +0530,
,Objects\029a.jpg,9,0,10,,,,,f,None,,,1.1344128000055207,0.15995660000044154,,,,10,0,9,191.34224320000067,,,,,,,,,,,,,,,,,,,,,,,,,,,,,,191.33405360000324,191.34224320000067,191.833858900005,,,,,,,,,,,,191.84985779999988,,,,,,,,,,,191.8472069000054,191.84985779999988,191.84985779999988,191.84985779999988,194.8335709000021,f,194.83367759999965,,,194.83370930000092,None,,,1.1344128000055207,0.15995660000044154,194.8417069999996,194.8417069999996,194.8417069999996,,,,,,,,,,00026,001,2025-11-15_16h03.48.687,MST_task,2024.2.0,100.19588294968105,2025-11-15 16h03.54.035573 +0530,
,Objects\129a.jpg,10,0,11,,,,,f,None,,,0.9879242000024533,0.19267930000205524,,,,11,0,10,194.8417069999996,,,,,,,,,,,,,,,,,,,,,,,,,,,,,,194.8340016000002,194.8417069999996,195.33315940000466,,,,,,,,,,,,195.34853080000175,,,,,,,,,,,195.34594660000585,195.34853080000175,195.34853080000175,195.34853080000175,198.33243810000567,f,198.33248170000297,,,198.33249179999984,None,,,0.9879242000024533,0.19267930000205524,198.3412552000009,198.3412552000009,198.3412552000009,,,,,,,,,,00026,001,2025-11-15_16h03.48.687,MST_task,2024.2.0,100.19588294968105,2025-11-15 16h03.54.035573 +0530,
,Objects\024a.jpg,11,0,12,,,,,f,None,,,1.0062555999975302,0.1669259000045713,,,,12,0,11,198.3412552000009,,,,,,,,,,,,,,,,,,,,,,,,,,,,,,198.33259610000096,198.3412552000009,198.83211930000107,,,,,,,,,,,,198.85112140000274,,,,,,,,,,,198.8484621000025,198.85112140000274,198.85112140000274,198.85112140000274,201.84139770000183,f,201.84151150000253,,,201.84154839999974,None,,,1.0062555999975302,0.1669259000045713,,,,,,,,,,,,,00026,001,2025-11-15_16h03.48.687,MST_task,2024.2.0,100.19588294968105,2025-11-15 16h03.54.035573 +0530,
,Objects\057a.jpg,12,0,13,,,,,j,None,,,1.7825628999999026,0.07985360000020592,,,,13,0,12,201.85101890000078,,,,,,,,,,,,,,,,,,,,,,,,,,,,,,201.8418565000029,201.85101890000078,202.3419955999998,,,,,,,,,,,,202.3618473000024,,,,,,,,,,,202.359292000001,202.3618473000024,202.3618473000024,202.3618473000024,205.35092250000162,j,205.3510346000039,,,205.3510693999997,None,,,1.7825628999999026,0.07985360000020592,,,,,,,,,,,,,00026,001,2025-11-15_16h03.48.687,MST_task,2024.2.0,100.19588294968105,2025-11-15 16h03.54.035573 +0530,
,Objects\030a.jpg,13,0,14,,,,,f,None,,,0.916626999998698,0.1848972000007052,,,,14,0,13,205.36057140000048,,,,,,,,,,,,,,,,,,,,,,,,,,,,,,205.35126760000276,205.36057140000048,205.85137660000328,,,,,,,,,,,,205.8678108000022,,,,,,,,,,,205.8652357000028,205.8678108000022,205.8678108000022,205.8678108000022,208.85193090000394,f,208.85208480000438,,,208.85212890000548,None,,,0.916626999998698,0.1848972000007052,208.86027650000324,208.86027650000324,208.86027650000324,,,,,,,,,,00026,001,2025-11-15_16h03.48.687,MST_task,2024.2.0,100.19588294968105,2025-11-15 16h03.54.035573 +0530,
,Scenes\126a.jpg,14,0,15,,,,,j,None,,,0.9766400000007707,0.19297139999980573,,,,15,0,14,208.86027650000324,,,,,,,,,,,,,,,,,,,,,,,,,,,,,,208.85262760000478,208.86027650000324,209.3513238000014,,,,,,,,,,,,209.37571800000296,,,,,,,,,,,209.37250580000546,209.37571800000296,209.37571800000296,209.37571800000296,212.3601626000018,j,212.36604540000553,,,212.36610450000444,None,,,0.9766400000007707,0.19297139999980573,,,,,,,,,,,,,00026,001,2025-11-15_16h03.48.687,MST_task,2024.2.0,100.19588294968105,2025-11-15 16h03.54.035573 +0530,
,Scenes\182a.jpg,15,0,16,,,,,j,None,,,1.87700870000117,0.20870999999897322,,,,16,0,15,212.3697128000058,,,,,,,,,,,,,,,,,,,,,,,,,,,,,,212.3664235000033,212.3697128000058,212.86080539999966,,,,,,,,,,,,212.88336680000066,,,,,,,,,,,212.88006750000204,212.88336680000066,212.88336680000066,212.88336680000066,215.869646500003,j,215.86975600000005,,,215.86979150000116,None,,,1.87700870000117,0.20870999999897322,,,,,,,,,,,,,00026,001,2025-11-15_16h03.48.687,MST_task,2024.2.0,100.19588294968105,2025-11-15 16h03.54.035573 +0530,
,Scenes\159a.jpg,16,0,17,,,,,j,None,,,1.5560350000014296,0.20769339999969816,,,,17,0,16,215.8791532000032,,,,,,,,,,,,,,,,,,,,,,,,,,,,,,215.86998860000313,215.8791532000032,216.3700409000012,,,,,,,,,,,,216.39706330000627,,,,,,,,,,,216.39350040000136,216.39706330000627,216.39706330000627,216.39706330000627,219.3792512,j,219.3793558000034,,,219.37938930000382,None,,,1.5560350000014296,0.20769339999969816,,,,,,,,,,,,,00026,001,2025-11-15_16h03.48.687,MST_task,2024.2.0,100.19588294968105,2025-11-15 16h03.54.035573 +0530,
,Scenes\025a.jpg,17,0,18,,,,,j,None,,,1.0576906999995117,0.1673603000017465,,,,18,0,17,219.38871450000443,,,,,,,,,,,,,,,,,,,,,,,,,,,,,,219.37966730000335,219.38871450000443,219.87949890000164,,,,,,,,,,,,219.91116100000363,,,,,,,,,,,219.90782880000188,219.91116100000363,219.91116100000363,219.91116100000363,222.88873630000307,j,222.8888536000013,,,222.8888905000058,None,,,1.0576906999995117,0.1673603000017465,,,,,,,,,,,,,00026,001,2025-11-15_16h03.48.687,MST_task,2024.2.0,100.19588294968105,2025-11-15 16h03.54.035573 +0530,
,Scenes\023a.jpg,18,0,19,,,,,f,None,,,1.2215652000013506,0.1835475999978371,,,,19,0,18,222.8981922000021,,,,,,,,,,,,,,,,,,,,,,,,,,,,,,222.88910770000075,222.8981922000021,223.38930300000357,,,,,,,,,,,,223.4197209000049,,,,,,,,,,,223.4163031000062,223.4197209000049,223.4197209000049,223.4197209000049,226.39830000000075,f,226.39841870000237,,,226.39845700000296,None,,,1.2215652000013506,0.1835475999978371,,,,,,,,,,,,,00026,001,2025-11-15_16h03.48.687,MST_task,2024.2.0,100.19588294968105,2025-11-15 16h03.54.035573 +0530,
,Scenes\185a.jpg,19,0,20,,,,,j,None,,,0.9519300999963889,0.17556530000001658,,,,20,0,19,226.4078260000024,,,,,,,,,,,,,,,,,,,,,,,,,,,,,,226.39878460000182,226.4078260000024,226.89885940000386,,,,,,,,,,,,226.9208937000003,,,,,,,,,,,226.91725170000427,226.9208937000003,226.9208937000003,226.9208937000003,229.90789249999943,j,229.90802390000317,,,229.90806420000445,None,,,0.9519300999963889,0.17556530000001658,,,,,,,,,,,,,00026,001,2025-11-15_16h03.48.687,MST_task,2024.2.0,100.19588294968105,2025-11-15 16h03.54.035573 +0530,
,Scenes\190a.jpg,20,0,21,,,,,j,None,,,1.5831060000055004,0.20819379999738885,,,,21,0,20,229.91741410000395,,,,,,,,,,,,,,,,,,,,,,,,,,,,,,229.9082952000026,229.91741410000395,230.40847290000238,,,,,,,,,,,,230.4338160000043,,,,,,,,,,,230.43041140000423,230.4338160000043,230.4338160000043,230.4338160000043,233.41745910000463,j,233.41758280000067,,,233.41762060000474,None,,,1.5831060000055004,0.20819379999738885,,,,,,,,,,,,,00026,001,2025-11-15_16h03.48.687,MST_task,2024.2.0,100.19588294968105,2025-11-15 16h03.54.035573 +0530,
,Objects\123a.jpg,21,0,22,,,,,j,None,,,2.9424238999999943,None,,,,22,0,21,233.42697960000078,,,,,,,,,,,,,,,,,,,,,,,,,,,,,,233.41783340000256,233.42697960000078,233.91792630000418,,,,,,,,,,,,233.93835560000298,,,,,,,,,,,233.935161100002,233.93835560000298,233.93835560000298,233.93835560000298,236.92699580000044,j,236.93130180000298,,,236.93132329999935,None,,,2.9424238999999943,None,,,,,,,,,,,,,00026,001,2025-11-15_16h03.48.687,MST_task,2024.2.0,100.19588294968105,2025-11-15 16h03.54.035573 +0530,
,Objects\173a.jpg,22,0,23,,,,,f,None,,,1.3395990999997593,0.16001609999511857,,,,23,0,22,236.9364218000046,,,,,,,,,,,,,,,,,,,,,,,,,,,,,,236.9314158000052,236.9364218000046,237.42745560000185,,,,,,,,,,,,237.4448384999996,,,,,,,,,,,237.4421113999997,237.4448384999996,237.4448384999996,237.4448384999996,240.4366427000059,f,240.43687430000136,,,240.43693450000137,None,,,1.3395990999997593,0.16001609999511857,,,,,,,,,,,,,00026,001,2025-11-15_16h03.48.687,MST_task,2024.2.0,100.19588294968105,2025-11-15 16h03.54.035573 +0530,
,Objects\150a.jpg,23,0,24,,,,,j,None,,,1.934849800003576,0.17639609999605455,,,,24,0,23,240.44618480000645,,,,,,,,,,,,,,,,,,,,,,,,,,,,,,240.43727030000446,240.44618480000645,240.93716800000402,,,,,,,,,,,,240.95377790000202,,,,,,,,,,,240.9511352000045,240.95377790000202,240.95377790000202,240.95377790000202,243.94615300000441,j,243.9462818000029,,,243.94632310000452,None,,,1.934849800003576,0.17639609999605455,,,,,,,,,,,,,00026,001,2025-11-15_16h03.48.687,MST_task,2024.2.0,100.19588294968105,2025-11-15 16h03.54.035573 +0530,
,Objects\130a.jpg,24,0,25,,,,,j,None,,,1.4714878000013414,0.1360692999951425,,,,25,0,24,243.9556456000064,,,,,,,,,,,,,,,,,,,,,,,,,,,,,,243.94655420000345,243.9556456000064,244.4465030000065,,,,,,,,,,,,244.4650118999998,,,,,,,,,,,244.46219230000133,244.4650118999998,244.4650118999998,244.4650118999998,247.45596650000516,j,247.45613620000222,,,247.45618430000468,None,,,1.4714878000013414,0.1360692999951425,,,,,,,,,,,,,00026,001,2025-11-15_16h03.48.687,MST_task,2024.2.0,100.19588294968105,2025-11-15 16h03.54.035573 +0530,
,Objects\027a.jpg,25,0,26,,,,,f,None,,,1.6999125000002095,0.17594480000116164,,,,26,0,25,247.46529360000568,,,,,,,,,,,,,,,,,,,,,,,,,,,,,,247.45640520000597,247.46529360000568,247.95640310000454,,,,,,,,,,,,247.9724839000046,,,,,,,,,,,247.96989650000614,247.9724839000046,247.9724839000046,247.9724839000046,250.95661320000363,f,250.9567479000034,,,250.9567864000055,None,,,1.6999125000002095,0.17594480000116164,250.96476780000376,250.96476780000376,250.96476780000376,,,,,,,,,,00026,001,2025-11-15_16h03.48.687,MST_task,2024.2.0,100.19588294968105,2025-11-15 16h03.54.035573 +0530,
,Objects\065a.jpg,26,0,27,,,,,j,None,,,2.1131330999996862,0.16895890000159852,,,,27,0,26,250.96476780000376,,,,,,,,,,,,,,,,,,,,,,,,,,,,,,250.95699109999987,250.96476780000376,251.45582660000218,,,,,,,,,,,,251.47136239999963,,,,,,,,,,,251.4687644000005,251.47136239999963,251.47136239999963,251.47136239999963,254.45604200000525,j,254.45619290000468,,,254.4562617000047,None,,,2.1131330999996862,0.16895890000159852,254.46426530000463,254.46426530000463,254.46426530000463,,,,,,,,,,00026,001,2025-11-15_16h03.48.687,MST_task,2024.2.0,100.19588294968105,2025-11-15 16h03.54.035573 +0530,
,Objects\045a.jpg,27,0,28,,,,,j,None,,,0.8346556999968016,0.14400190000014845,,,,28,0,27,254.46426530000463,,,,,,,,,,,,,,,,,,,,,,,,,,,,,,254.45656450000388,254.46426530000463,254.95558140000503,,,,,,,,,,,,254.97380080000585,,,,,,,,,,,254.9711438000013,254.97380080000585,254.97380080000585,254.97380080000585,257.9643974999999,j,257.9645288000029,,,257.9645712000056,None,,,0.8346556999968016,0.14400190000014845,,,,,,,,,,,,,00026,001,2025-11-15_16h03.48.687,MST_task,2024.2.0,100.19588294968105,2025-11-15 16h03.54.035573 +0530,
,Scenes\140a.jpg,28,0,29,,,,,j,None,,,1.0486489000031725,0.1681211999966763,,,,29,0,28,257.9738367000027,,,,,,,,,,,,,,,,,,,,,,,,,,,,,,257.964902300002,257.9738367000027,258.4649755000064,,,,,,,,,,,,258.4880697000044,,,,,,,,,,,258.48483359999955,258.4880697000044,258.4880697000044,258.4880697000044,261.4738572999995,j,261.4769582000008,,,261.4769904999994,None,,,1.0486489000031725,0.1681211999966763,,,,,,,,,,,,,00026,001,2025-11-15_16h03.48.687,MST_task,2024.2.0,100.19588294968105,2025-11-15 16h03.54.035573 +0530,
,Scenes\075a.jpg,29,0,30,,,,,j,None,,,1.2450412999969558,0.16066639999917243,,,,30,0,29,261.48331110000436,,,,,,,,,,,,,,,,,,,,,,,,,,,,,,261.47717980000016,261.48331110000436,261.9746712000051,,,,,,,,,,,,261.9954116000008,,,,,,,,,,,261.9920401000054,261.9954116000008,261.9954116000008,261.9954116000008,264.983702000005,j,264.98384680000163,,,264.98389560000214,None,,,1.2450412999969558,0.16066639999917243,,,,,,,,,,,,,00026,001,2025-11-15_16h03.48.687,MST_task,2024.2.0,100.19588294968105,2025-11-15 16h03.54.035573 +0530,
,Scenes\040a.jpg,30,0,31,,,,,f,None,,,1.148504700002377,0.17603059999964898,,,,31,0,30,264.99300820000644,,,,,,,,,,,,,,,,,,,,,,,,,,,,,,264.984266200001,264.99300820000644,265.48446170000534,,,,,,,,,,,,265.50860520000424,,,,,,,,,,,265.5053385000065,265.50860520000424,265.50860520000424,265.50860520000424,268.4931957000008,f,268.4933216000063,,,268.4933627999999,None,,,1.148504700002377,0.17603059999964898,,,,,,,,,,,,,00026,001,2025-11-15_16h03.48.687,MST_task,2024.2.0,100.19588294968105,2025-11-15 16h03.54.035573 +0530,
,Scenes\105a.jpg,31,0,32,,,,,j,None,,,0.8455622999972547,0.22431820000201697,,,,32,0,31,268.5024790000025,,,,,,,,,,,,,,,,,,,,,,,,,,,,,,268.49367340000026,268.5024790000025,268.99369810000644,,,,,,,,,,,,269.01898820000497,,,,,,,,,,,269.01568780000525,269.01898820000497,269.01898820000497,269.01898820000497,272.0026719000016,j,272.00278270000126,,,272.00281710000127,None,,,0.8455622999972547,0.22431820000201697,,,,,,,,,,,,,00026,001,2025-11-15_16h03.48.687,MST_task,2024.2.0,100.19588294968105,2025-11-15 16h03.54.035573 +0530,
,Scenes\081a.jpg,32,0,33,,,,,j,None,,,0.8234109000040917,0.1911091000001761,,,,33,0,32,272.01208300000144,,,,,,,,,,,,,,,,,,,,,,,,,,,,,,272.0030992000029,272.01208300000144,272.5033825999999,,,,,,,,,,,,272.5297317000004,,,,,,,,,,,272.52632150000136,272.5297317000004,272.5297317000004,272.5297317000004,275.51242090000596,j,275.5125632000054,,,275.51260600000387,None,,,0.8234109000040917,0.1911091000001761,,,,,,,,,,,,,00026,001,2025-11-15_16h03.48.687,MST_task,2024.2.0,100.19588294968105,2025-11-15 16h03.54.035573 +0530,
,Scenes\116a.jpg,33,0,34,,,,,j,None,,,0.7354897999975947,0.16770450000331039,,,,34,0,33,275.5216897000064,,,,,,,,,,,,,,,,,,,,,,,,,,,,,,275.5129470000029,275.5216897000064,276.01323660000344,,,,,,,,,,,,276.03338420000364,,,,,,,,,,,276.0300376000014,276.03338420000364,276.03338420000364,276.03338420000364,279.02195650000067,j,279.02209060000314,,,279.02213190000475,None,,,0.7354897999975947,0.16770450000331039,,,,,,,,,,,,,00026,001,2025-11-15_16h03.48.687,MST_task,2024.2.0,100.19588294968105,2025-11-15 16h03.54.035573 +0530,
,Scenes\051a.jpg,34,0,35,,,,,j,None,,,1.3954289000030258,0.1999338000023272,,,,35,0,34,279.03139610000653,,,,,,,,,,,,,,,,,,,,,,,,,,,,,,279.0224432000032,279.03139610000653,279.5224645000053,,,,,,,,,,,,279.5409624000022,,,,,,,,,,,279.5376852000045,279.5409624000022,279.5409624000022,279.5409624000022,282.5314180999994,j,282.5315410000039,,,282.53157640000427,None,,,1.3954289000030258,0.1999338000023272,,,,,,,,,,,,,00026,001,2025-11-15_16h03.48.687,MST_task,2024.2.0,100.19588294968105,2025-11-15 16h03.54.035573 +0530,
,Objects\061a.jpg,35,0,36,,,,,j,None,,,2.4217742000037106,0.1682414000024437,,,,36,0,35,282.5409354000003,,,,,,,,,,,,,,,,,,,,,,,,,,,,,,282.5318475000022,282.5409354000003,283.0322282000052,,,,,,,,,,,,283.05111270000634,,,,,,,,,,,283.04777040000045,283.05111270000634,283.05111270000634,283.05111270000634,286.0412342000054,j,286.0466125000021,,,286.0466388999994,None,,,2.4217742000037106,0.1682414000024437,,,,,,,,,,,,,00026,001,2025-11-15_16h03.48.687,MST_task,2024.2.0,100.19588294968105,2025-11-15 16h03.54.035573 +0530,
,Objects\143a.jpg,36,0,37,,,,,f,None,,,1.538569299998926,0.2000352000031853,,,,37,0,36,286.050364900002,,,,,,,,,,,,,,,,,,,,,,,,,,,,,,286.0468064000015,286.050364900002,286.5419583000039,,,,,,,,,,,,286.5577257000041,,,,,,,,,,,286.5550505000065,286.5577257000041,286.5577257000041,286.5577257000041,289.5421006000033,f,289.542254400003,,,289.5422982000018,None,,,1.538569299998926,0.2000352000031853,289.5500625000059,289.5500625000059,289.5500625000059,,,,,,,,,,00026,001,2025-11-15_16h03.48.687,MST_task,2024.2.0,100.19588294968105,2025-11-15 16h03.54.035573 +0530,
,Objects\161a.jpg,37,0,38,,,,,f,None,,,1.3353369000033126,0.183856099996774,,,,38,0,37,289.5500625000059,,,,,,,,,,,,,,,,,,,,,,,,,,,,,,289.5425192000039,289.5500625000059,290.0411078000034,,,,,,,,,,,,290.05710830000316,,,,,,,,,,,290.05458380000346,290.05710830000316,290.05710830000316,290.05710830000316,293.04186610000033,f,293.0420133000007,,,293.0420565000022,None,,,1.3353369000033126,0.183856099996774,293.049671700006,293.049671700006,293.049671700006,,,,,,,,,,00026,001,2025-11-15_16h03.48.687,MST_task,2024.2.0,100.19588294968105,2025-11-15 16h03.54.035573 +0530,
,Objects\179a.jpg,38,0,39,,,,,f,None,,,1.011717100001988,0.18318149999686284,,,,39,0,38,293.049671700006,,,,,,,,,,,,,,,,,,,,,,,,,,,,,,293.04229750000377,293.049671700006,293.5406518000018,,,,,,,,,,,,293.5574082000021,,,,,,,,,,,293.5547708000013,293.5574082000021,293.5574082000021,293.5574082000021,296.5493822000062,f,296.5494391000029,,,296.54945510000107,None,,,1.011717100001988,0.18318149999686284,,,,,,,,,,,,,00026,001,2025-11-15_16h03.48.687,MST_task,2024.2.0,100.19588294968105,2025-11-15 16h03.54.035573 +0530,
,Objects\107a.jpg,39,0,40,,,,,j,None,,,1.6689559999940684,0.15997179999976652,,,,40,0,39,296.55902400000195,,,,,,,,,,,,,,,,,,,,,,,,,,,,,,296.5496411999993,296.55902400000195,297.0504362000065,,,,,,,,,,,,297.06775840000046,,,,,,,,,,,297.06505130000005,297.06775840000046,297.06775840000046,297.06775840000046,300.0594878000047,j,300.05965180000203,,,300.0597026000032,None,,,1.6689559999940684,0.15997179999976652,,,,,,,,,,,,,00026,001,2025-11-15_16h03.48.687,MST_task,2024.2.0,100.19588294968105,2025-11-15 16h03.54.035573 +0530,
,Objects\177a.jpg,40,0,41,,,,,j,None,,,0.9298932000019704,0.18412790000002133,,,,41,0,40,300.0687825000059,,,,,,,,,,,,,,,,,,,,,,,,,,,,,,300.06022289999964,300.0687825000059,300.5601852000036,,,,,,,,,,,,300.574999000004,,,,,,,,,,,300.5724523000026,300.574999000004,300.574999000004,300.574999000004,303.56045430000086,j,303.5605740000028,,,303.5606071000002,None,,,0.9298932000019704,0.18412790000002133,303.568305700006,303.568305700006,303.568305700006,,,,,,,,,,00026,001,2025-11-15_16h03.48.687,MST_task,2024.2.0,100.19588294968105,2025-11-15 16h03.54.035573 +0530,
,Objects\014a.jpg,41,0,42,,,,,f,None,,,1.3644721000018762,0.1600036999952863,,,,42,0,41,303.568305700006,,,,,,,,,,,,,,,,,,,,,,,,,,,,,,303.56089520000387,303.568305700006,304.05957650000346,,,,,,,,,,,,304.0759008000023,,,,,,,,,,,304.0732413000005,304.0759008000023,304.0759008000023,304.0759008000023,307.06823660000373,f,307.0683696000051,,,307.06840970000485,None,,,1.3644721000018762,0.1600036999952863,,,,,,,,,,,,,00026,001,2025-11-15_16h03.48.687,MST_task,2024.2.0,100.19588294968105,2025-11-15 16h03.54.035573 +0530,
,Scenes\160a.jpg,42,0,43,,,,,j,None,,,1.4708141000010073,0.16909060000034515,,,,43,0,42,307.0777362000008,,,,,,,,,,,,,,,,,,,,,,,,,,,,,,307.06871669999964,307.0777362000008,307.56909409999935,,,,,,,,,,,,307.5937336999996,,,,,,,,,,,307.59044390000054,307.5937336999996,307.5937336999996,307.5937336999996,310.5779610000027,j,310.5829941000047,,,310.5830333000049,None,,,1.4708141000010073,0.16909060000034515,,,,,,,,,,,,,00026,001,2025-11-15_16h03.48.687,MST_task,2024.2.0,100.19588294968105,2025-11-15 16h03.54.035573 +0530,
,Scenes\174a.jpg,43,0,44,,,,,j,None,,,0.8512947999988683,0.19220360000326764,,,,44,0,43,310.58724140000413,,,,,,,,,,,,,,,,,,,,,,,,,,,,,,310.5832209,310.58724140000413,311.0779607000004,,,,,,,,,,,,311.10094570000365,,,,,,,,,,,311.09769110000343,311.10094570000365,311.10094570000365,311.10094570000365,314.08726130000287,j,314.08736789999966,,,314.08740200000466,None,,,0.8512947999988683,0.19220360000326764,,,,,,,,,,,,,00026,001,2025-11-15_16h03.48.687,MST_task,2024.2.0,100.19588294968105,2025-11-15 16h03.54.035573 +0530,
,Scenes\085a.jpg,44,0,45,,,,,j,None,,,1.3816082999983337,0.21601850000297418,,,,45,0,44,314.09684960000595,,,,,,,,,,,,,,,,,,,,,,,,,,,,,,314.08758600000147,314.09684960000595,314.58789550000074,,,,,,,,,,,,314.6108907000016,,,,,,,,,,,314.60827920000156,314.6108907000016,314.6108907000016,314.6108907000016,317.5968056000056,j,317.59688980000647,,,317.59691540000495,None,,,1.3816082999983337,0.21601850000297418,,,,,,,,,,,,,00026,001,2025-11-15_16h03.48.687,MST_task,2024.2.0,100.19588294968105,2025-11-15 16h03.54.035573 +0530,
,Scenes\153a.jpg,45,0,46,,,,,j,None,,,0.8474064999973052,0.17606589999923017,,,,46,0,45,317.6063686000052,,,,,,,,,,,,,,,,,,,,,,,,,,,,,,317.59712910000235,317.6063686000052,318.0973529000039,,,,,,,,,,,,318.12087220000103,,,,,,,,,,,318.1176492000013,318.12087220000103,318.12087220000103,318.12087220000103,321.10636330000125,j,321.10644120000507,,,321.10646380000253,None,,,0.8474064999973052,0.17606589999923017,,,,,,,,,,,,,00026,001,2025-11-15_16h03.48.687,MST_task,2024.2.0,100.19588294968105,2025-11-15 16h03.54.035573 +0530,
,Scenes\087a.jpg,46,0,47,,,,,j,None,,,2.2072409999964293,0.19182790000195382,,,,47,0,46,321.11589749999985,,,,,,,,,,,,,,,,,,,,,,,,,,,,,,321.10665910000534,321.11589749999985,321.6067586999998,,,,,,,,,,,,321.62538029999996,,,,,,,,,,,321.6221225000045,321.62538029999996,321.62538029999996,321.62538029999996,324.6159944000028,j,324.61611529999936,,,324.61615390000225,None,,,2.2072409999964293,0.19182790000195382,,,,,,,,,,,,,00026,001,2025-11-15_16h03.48.687,MST_task,2024.2.0,100.19588294968105,2025-11-15 16h03.54.035573 +0530,
,Scenes\063a.jpg,47,0,48,,,,,j,None,,,0.6929040999966674,0.19203710000147112,,,,48,0,47,324.62541860000056,,,,,,,,,,,,,,,,,,,,,,,,,,,,,,324.6163688000015,324.62541860000056,325.11673140000494,,,,,,,,,,,,325.1394302000044,,,,,,,,,,,325.1360268999997,325.1394302000044,325.1394302000044,325.1394302000044,328.1256971000039,j,328.12584980000247,,,328.12589890000527,None,,,0.6929040999966674,0.19203710000147112,,,,,,,,,,,,,00026,001,2025-11-15_16h03.48.687,MST_task,2024.2.0,100.19588294968105,2025-11-15 16h03.54.035573 +0530,
,Scenes\110a.jpg,48,0,49,,,,,j,None,,,1.0834211999972467,0.17577439999877242,,,,49,0,48,328.13516110000637,,,,,,,,,,,,,,,,,,,,,,,,,,,,,,328.1262507000065,328.13516110000637,328.6265179000038,,,,,,,,,,,,328.6530885000029,,,,,,,,,,,328.64985430000525,328.6530885000029,328.6530885000029,328.6530885000029,331.6349584000054,j,331.63507050000044,,,331.635105500005,None,,,1.0834211999972467,0.17577439999877242,,,,,,,,,,,,,00026,001,2025-11-15_16h03.48.687,MST_task,2024.2.0,100.19588294968105,2025-11-15 16h03.54.035573 +0530,
,Objects\028a.jpg,49,0,50,,,,,j,None,,,1.6404687999965972,0.1840111000055913,,,,50,0,49,331.6445292999997,,,,,,,,,,,,,,,,,,,,,,,,,,,,,,331.6353858000002,331.6445292999997,332.135789800006,,,,,,,,,,,,332.1597718000048,,,,,,,,,,,332.1561232000022,332.1597718000048,332.1597718000048,332.1597718000048,335.14478059999965,j,335.15217540000594,,,335.1522283000013,None,,,1.6404687999965972,0.1840111000055913,,,,,,,,,,,,,00026,001,2025-11-15_16h03.48.687,MST_task,2024.2.0,100.19588294968105,2025-11-15 16h03.54.035573 +0530,
,Objects\168a.jpg,50,0,51,,,,,f,None,,,1.8040486999962013,0.15162710000004154,,,,51,0,50,335.15414630000305,,,,,,,,,,,,,,,,,,,,,,,,,,,,,,335.1525066000031,335.15414630000305,335.64527200000157,,,,,,,,,,,,335.6610138000033,,,,,,,,,,,335.6583668000021,335.6610138000033,335.6610138000033,335.6610138000033,338.6452078000002,f,338.64532840000174,,,338.645362400006,None,,,1.8040486999962013,0.15162710000004154,338.6537674000065,338.6537674000065,338.6537674000065,,,,,,,,,,00026,001,2025-11-15_16h03.48.687,MST_task,2024.2.0,100.19588294968105,2025-11-15 16h03.54.035573 +0530,
,Objects\109a.jpg,51,0,52,,,,,j,None,,,0.8890153999964241,0.167001200003142,,,,52,0,51,338.6537674000065,,,,,,,,,,,,,,,,,,,,,,,,,,,,,,338.6456552000018,338.6537674000065,339.14469680000184,,,,,,,,,,,,339.1604959000033,,,,,,,,,,,339.1578030000019,339.1604959000033,339.1604959000033,339.1604959000033,342.144475400004,j,342.14455029999954,,,342.14457240000047,None,,,0.8890153999964241,0.167001200003142,342.1531979000065,342.1531979000065,342.1531979000065,,,,,,,,,,00026,001,2025-11-15_16h03.48.687,MST_task,2024.2.0,100.19588294968105,2025-11-15 16h03.54.035573 +0530,
,Objects\105a.jpg,52,0,53,,,,,f,None,,,1.9761380999989342,0.16070650000619935,,,,53,0,52,342.1531979000065,,,,,,,,,,,,,,,,,,,,,,,,,,,,,,342.1447535000043,342.1531979000065,342.6444918000052,,,,,,,,,,,,342.664277200005,,,,,,,,,,,342.6611575000061,342.664277200005,342.664277200005,342.664277200005,345.6534606999994,f,345.65359349999926,,,345.65364680000494,None,,,1.9761380999989342,0.16070650000619935,,,,,,,,,,,,,00026,001,2025-11-15_16h03.48.687,MST_task,2024.2.0,100.19588294968105,2025-11-15 16h03.54.035573 +0530,
,Objects\153a.jpg,53,0,54,,,,,j,None,,,1.1907398999974248,0.2400463000012678,,,,54,0,53,345.6629494000008,,,,,,,,,,,,,,,,,,,,,,,,,,,,,,345.6538776000016,345.6629494000008,346.15372140000545,,,,,,,,,,,,346.1696712000048,,,,,,,,,,,346.166985200005,346.1696712000048,346.1696712000048,346.1696712000048,349.153696500005,j,349.15380460000597,,,349.1538386000029,None,,,1.1907398999974248,0.2400463000012678,349.16238030000386,349.16238030000386,349.16238030000386,,,,,,,,,,00026,001,2025-11-15_16h03.48.687,MST_task,2024.2.0,100.19588294968105,2025-11-15 16h03.54.035573 +0530,
,Objects\170a.jpg,54,0,55,,,,,f,None,,,1.3358941999977105,0.16062890000466723,,,,55,0,54,349.16238030000386,,,,,,,,,,,,,,,,,,,,,,,,,,,,,,349.1540194000045,349.16238030000386,349.6536464000019,,,,,,,,,,,,349.6724658000021,,,,,,,,,,,349.66965999999957,349.6724658000021,349.6724658000021,349.6724658000021,352.66248660000565,f,352.6626019000032,,,352.6626374000043,None,,,1.3358941999977105,0.16062890000466723,,,,,,,,,,,,,00026,001,2025-11-15_16h03.48.687,MST_task,2024.2.0,100.19588294968105,2025-11-15 16h03.54.035573 +0530,
,Objects\144a.jpg,55,0,56,,,,,j,None,,,1.2053989000050933,0.19236379999347264,,,,56,0,55,352.67198590000044,,,,,,,,,,,,,,,,,,,,,,,,,,,,,,352.66286870000476,352.67198590000044,353.1631766000064,,,,,,,,,,,,353.17967740000313,,,,,,,,,,,353.1771174000023,353.17967740000313,353.17967740000313,353.17967740000313,356.17215679999936,j,356.1722823000018,,,356.1723196000021,None,,,1.2053989000050933,0.19236379999347264,,,,,,,,,,,,,00026,001,2025-11-15_16h03.48.687,MST_task,2024.2.0,100.19588294968105,2025-11-15 16h03.54.035573 +0530,
,Scenes\053a.jpg,56,0,57,,,,,j,None,,,1.0463822000019718,0.20093899999483256,,,,57,0,56,356.1813928000047,,,,,,,,,,,,,,,,,,,,,,,,,,,,,,356.1726114000048,356.1813928000047,356.6723892000009,,,,,,,,,,,,356.6901485000053,,,,,,,,,,,356.6871794000035,356.6901485000053,356.6901485000053,356.6901485000053,359.6815612999999,j,359.6846385000026,,,359.6846619000062,None,,,1.0463822000019718,0.20093899999483256,,,,,,,,,,,,,00026,001,2025-11-15_16h03.48.687,MST_task,2024.2.0,100.19588294968105,2025-11-15 16h03.54.035573 +0530,
,Scenes\072a.jpg,57,0,58,,,,,j,None,,,1.31402099999832,0.22434050000447314,,,,58,0,57,359.69081610000285,,,,,,,,,,,,,,,,,,,,,,,,,,,,,,359.6848009000023,359.69081610000285,360.1821823000064,,,,,,,,,,,,360.20678990000306,,,,,,,,,,,360.20386549999967,360.20678990000306,360.20678990000306,360.20678990000306,363.19115660000534,j,363.1912819000063,,,363.1913152000052,None,,,1.31402099999832,0.22434050000447314,,,,,,,,,,,,,00026,001,2025-11-15_16h03.48.687,MST_task,2024.2.0,100.19588294968105,2025-11-15 16h03.54.035573 +0530,
,Scenes\180a.jpg,58,0,59,,,,,j,None,,,0.9168804000000819,0.1922125999990385,,,,59,0,58,363.20048510000197,,,,,,,,,,,,,,,,,,,,,,,,,,,,,,363.1915590999997,363.20048510000197,363.6919407000023,,,,,,,,,,,,363.7159982000012,,,,,,,,,,,363.7127307000046,363.7159982000012,363.7159982000012,363.7159982000012,366.70073630000115,j,366.70087290000083,,,366.7009182000038,None,,,0.9168804000000819,0.1922125999990385,,,,,,,,,,,,,00026,001,2025-11-15_16h03.48.687,MST_task,2024.2.0,100.19588294968105,2025-11-15 16h03.54.035573 +0530,
,Scenes\131a.jpg,59,0,60,,,,,j,None,,,0.6138330999965547,0.20058589999825926,,,,60,0,59,366.710241700006,,,,,,,,,,,,,,,,,,,,,,,,,,,,,,366.7011755000058,366.710241700006,367.20075120000547,,,,,,,,,,,,367.22646879999957,,,,,,,,,,,367.2231577000057,367.22646879999957,367.22646879999957,367.22646879999957,370.2104055000018,j,370.2105456000063,,,370.2105903000047,None,,,0.6138330999965547,0.20058589999825926,,,,,,,,,,,,,00026,001,2025-11-15_16h03.48.687,MST_task,2024.2.0,100.19588294968105,2025-11-15 16h03.54.035573 +0530,
,Scenes\003a.jpg,60,0,61,,,,,f,None,,,1.3288672999988194,0.19175930000346852,,,,61,0,60,370.2198467000053,,,,,,,,,,,,,,,,,,,,,,,,,,,,,,370.21083660000295,370.2198467000053,370.71066450000217,,,,,,,,,,,,370.7357487000045,,,,,,,,,,,370.732236200005,370.7357487000045,370.7357487000045,370.7357487000045,373.7198298000003,f,373.71996340000624,,,373.72000560000015,None,,,1.3288672999988194,0.19175930000346852,,,,,,,,,,,,,00026,001,2025-11-15_16h03.48.687,MST_task,2024.2.0,100.19588294968105,2025-11-15 16h03.54.035573 +0530,
,Scenes\054a.jpg,61,0,62,,,,,j,None,,,0.7469073999964166,0.24016370000026654,,,,62,0,61,373.7292257000008,,,,,,,,,,,,,,,,,,,,,,,,,,,,,,373.720338900006,373.7292257000008,374.2203509000028,,,,,,,,,,,,374.2455564000047,,,,,,,,,,,374.24180909999995,374.2455564000047,374.2455564000047,374.2455564000047,377.2293057000061,j,377.2294366999995,,,377.2294742000013,None,,,0.7469073999964166,0.24016370000026654,,,,,,,,,,,,,00026,001,2025-11-15_16h03.48.687,MST_task,2024.2.0,100.19588294968105,2025-11-15 16h03.54.035573 +0530,
,Scenes\100a.jpg,62,0,63,,,,,f,None,,,1.1106660000004922,0.2470175999987987,,,,63,0,62,377.23887720000494,,,,,,,,,,,,,,,,,,,,,,,,,,,,,,377.22978449999937,377.23887720000494,377.7296126000001,,,,,,,,,,,,377.75464230000216,,,,,,,,,,,377.75132220000523,377.75464230000216,377.75464230000216,377.75464230000216,380.7388618000041,f,380.7389803000042,,,380.7390174000029,None,,,1.1106660000004922,0.2470175999987987,,,,,,,,,,,,,00026,001,2025-11-15_16h03.48.687,MST_task,2024.2.0,100.19588294968105,2025-11-15 16h03.54.035573 +0530,
,Objects\046a.jpg,63,0,64,,,,,f,None,,,2.151317099996959,0.17661300000327174,,,,64,0,63,380.7483329000024,,,,,,,,,,,,,,,,,,,,,,,,,,,,,,380.73934980000195,380.7483329000024,381.23925760000566,,,,,,,,,,,,381.25732229999994,,,,,,,,,,,381.2541082000025,381.25732229999994,381.25732229999994,381.25732229999994,384.2484220000042,f,384.2526891000016,,,384.25272609999956,None,,,2.151317099996959,0.17661300000327174,,,,,,,,,,,,,00026,001,2025-11-15_16h03.48.687,MST_task,2024.2.0,100.19588294968105,2025-11-15 16h03.54.035573 +0530,
,Objects\038a.jpg,64,0,65,,,,,f,None,,,1.2259619000033126,0.1198891999956686,,,,65,0,64,384.2578147000022,,,,,,,,,,,,,,,,,,,,,,,,,,,,,,384.2528678000017,384.2578147000022,384.74962080000114,,,,,,,,,,,,384.76687640000455,,,,,,,,,,,384.7641829999993,384.76687640000455,384.76687640000455,384.76687640000455,387.75835960000404,f,387.7584837000031,,,387.75852220000525,None,,,1.2259619000033126,0.1198891999956686,,,,,,,,,,,,,00026,001,2025-11-15_16h03.48.687,MST_task,2024.2.0,100.19588294968105,2025-11-15 16h03.54.035573 +0530,
,Objects\018a.jpg,65,0,66,,,,,f,None,,,1.43509769999946,0.24798770000052173,,,,66,0,65,387.7676331000039,,,,,,,,,,,,,,,,,,,,,,,,,,,,,,387.75882390000334,387.7676331000039,388.2586958000029,,,,,,,,,,,,388.2772239000042,,,,,,,,,,,388.2743738999998,388.2772239000042,388.2772239000042,388.2772239000042,391.2675875999994,f,391.2677127000061,,,391.2677820000026,None,,,1.43509769999946,0.24798770000052173,,,,,,,,,,,,,00026,001,2025-11-15_16h03.48.687,MST_task,2024.2.0,100.19588294968105,2025-11-15 16h03.54.035573 +0530,
,Objects\128a.jpg,66,0,67,,,,,f,None,,,1.9373311000017566,0.1678600999948685,,,,67,0,66,391.27703830000246,,,,,,,,,,,,,,,,,,,,,,,,,,,,,,391.2680137000061,391.27703830000246,391.76815790000546,,,,,,,,,,,,391.7836079000044,,,,,,,,,,,391.78112300000066,391.7836079000044,391.7836079000044,391.7836079000044,394.7685954000044,f,394.76873519999936,,,394.7687753000064,None,,,1.9373311000017566,0.1678600999948685,394.7767903999993,394.7767903999993,394.7767903999993,,,,,,,,,,00026,001,2025-11-15_16h03.48.687,MST_task,2024.2.0,100.19588294968105,2025-11-15 16h03.54.035573 +0530,
,Objects\185a.jpg,67,0,68,,,,,f,None,,,1.7799166999975569,0.17598290000023553,,,,68,0,67,394.7767903999993,,,,,,,,,,,,,,,,,,,,,,,,,,,,,,394.7689997000052,394.7767903999993,395.2680193000051,,,,,,,,,,,,395.28455770000437,,,,,,,,,,,395.28192160000617,395.28455770000437,395.28455770000437,395.28455770000437,398.27699080000457,f,398.2771309000018,,,398.2771778000024,None,,,1.7799166999975569,0.17598290000023553,,,,,,,,,,,,,00026,001,2025-11-15_16h03.48.687,MST_task,2024.2.0,100.19588294968105,2025-11-15 16h03.54.035573 +0530,
,Objects\167a.jpg,68,0,69,,,,,f,None,,,2.114462300000014,0.18364029999793274,,,,69,0,68,398.2865155000036,,,,,,,,,,,,,,,,,,,,,,,,,,,,,,398.27748930000234,398.2865155000036,398.77726120000443,,,,,,,,,,,,398.7905377999996,,,,,,,,,,,398.78772500000196,398.7905377999996,398.7905377999996,398.7905377999996,401.7776678000009,f,401.77781400000094,,,401.777857400004,None,,,2.114462300000014,0.18364029999793274,401.7860373000003,401.7860373000003,401.7860373000003,,,,,,,,,,00026,001,2025-11-15_16h03.48.687,MST_task,2024.2.0,100.19588294968105,2025-11-15 16h03.54.035573 +0530,
,Objects\140a.jpg,69,0,70,,,,,j,None,,,2.4259597999989637,0.24827619999996386,,,,70,0,69,401.7860373000003,,,,,,,,,,,,,,,,,,,,,,,,,,,,,,401.7780969000014,401.7860373000003,402.27711900000577,,,,,,,,,,,,402.29453180000564,,,,,,,,,,,402.2917701000042,402.29453180000564,402.29453180000564,402.29453180000564,405.28611740000633,j,405.2862669000024,,,405.2863149000041,None,,,2.4259597999989637,0.24827619999996386,,,,,,,,,,,,,00026,001,2025-11-15_16h03.48.687,MST_task,2024.2.0,100.19588294968105,2025-11-15 16h03.54.035573 +0530,
,Scenes\192a.jpg,70,0,71,,,,,j,None,,,2.614231399995333,0.20819050000136485,,,,71,0,70,405.29567490000045,,,,,,,,,,,,,,,,,,,,,,,,,,,,,,405.2865635000053,405.29567490000045,405.7867159000016,,,,,,,,,,,,405.8100245000023,,,,,,,,,,,405.80646420000267,405.8100245000023,405.8100245000023,405.8100245000023,408.7958509000018,j,408.80071950000274,,,408.8007474000042,None,,,2.614231399995333,0.20819050000136485,,,,,,,,,,,,,00026,001,2025-11-15_16h03.48.687,MST_task,2024.2.0,100.19588294968105,2025-11-15 16h03.54.035573 +0530,
,Scenes\067a.jpg,71,0,72,,,,,f,None,,,1.0956482000037795,0.199912600000971,,,,72,0,71,408.80492349999986,,,,,,,,,,,,,,,,,,,,,,,,,,,,,,408.80085820000386,408.80492349999986,409.29623050000373,,,,,,,,,,,,409.3212607000023,,,,,,,,,,,409.31779060000554,409.3212607000023,409.3212607000023,409.3212607000023,412.305240200003,f,412.3053863000023,,,412.3054325000048,None,,,1.0956482000037795,0.199912600000971,,,,,,,,,,,,,00026,001,2025-11-15_16h03.48.687,MST_task,2024.2.0,100.19588294968105,2025-11-15 16h03.54.035573 +0530,
,Scenes\073a.jpg,72,0,73,,,,,j,None,,,1.6050959000058356,0.24827969999751076,,,,73,0,72,412.31475400000636,,,,,,,,,,,,,,,,,,,,,,,,,,,,,,412.30580040000496,412.31475400000636,412.8058603000027,,,,,,,,,,,,412.82722400000057,,,,,,,,,,,412.8243516000002,412.82722400000057,412.82722400000057,412.82722400000057,415.81473130000086,j,415.81485729999986,,,415.81490979999944,None,,,1.6050959000058356,0.24827969999751076,,,,,,,,,,,,,00026,001,2025-11-15_16h03.48.687,MST_task,2024.2.0,100.19588294968105,2025-11-15 16h03.54.035573 +0530,
,Scenes\124a.jpg,73,0,74,,,,,f,None,,,1.5507533999989391,0.1923811999949976,,,,74,0,73,415.8241601000045,,,,,,,,,,,,,,,,,,,,,,,,,,,,,,415.81524720000016,415.8241601000045,416.3152925000031,,,,,,,,,,,,416.33782990000327,,,,,,,,,,,416.33508090000396,416.33782990000327,416.33782990000327,416.33782990000327,419.32419780000055,f,419.3243055000057,,,419.32433909999963,None,,,1.5507533999989391,0.1923811999949976,,,,,,,,,,,,,00026,001,2025-11-15_16h03.48.687,MST_task,2024.2.0,100.19588294968105,2025-11-15 16h03.54.035573 +0530,
,Scenes\005a.jpg,74,0,75,,,,,f,None,,,1.193699800001923,0.19241150000016205,,,,75,0,74,419.3337251000048,,,,,,,,,,,,,,,,,,,,,,,,,,,,,,419.324615000005,419.3337251000048,419.8247741000014,,,,,,,,,,,,419.84668010000314,,,,,,,,,,,419.843477500006,419.84668010000314,419.84668010000314,419.84668010000314,422.83394450000196,f,422.8340729000047,,,422.834113900004,None,,,1.193699800001923,0.19241150000016205,,,,,,,,,,,,,00026,001,2025-11-15_16h03.48.687,MST_task,2024.2.0,100.19588294968105,2025-11-15 16h03.54.035573 +0530,
,Scenes\095a.jpg,75,0,76,,,,,f,None,,,1.2440895999970962,0.17619579999882262,,,,76,0,75,422.8435094000015,,,,,,,,,,,,,,,,,,,,,,,,,,,,,,422.8343779000061,422.8435094000015,423.33443629999965,,,,,,,,,,,,423.3567592000036,,,,,,,,,,,423.3534699000011,423.3567592000036,423.3567592000036,423.3567592000036,426.34329940000316,f,426.34342910000123,,,426.34347040000284,None,,,1.2440895999970962,0.17619579999882262,,,,,,,,,,,,,00026,001,2025-11-15_16h03.48.687,MST_task,2024.2.0,100.19588294968105,2025-11-15 16h03.54.035573 +0530,
,Scenes\092a.jpg,76,0,77,,,,,f,None,,,0.7985817000007955,0.17621890000009444,,,,77,0,76,426.35282440000447,,,,,,,,,,,,,,,,,,,,,,,,,,,,,,426.34377980000136,426.35282440000447,426.8436475000053,,,,,,,,,,,,426.8658158000035,,,,,,,,,,,426.8624737000064,426.8658158000035,426.8658158000035,426.8658158000035,429.85271009999997,f,429.85283170000184,,,429.8528707000005,None,,,0.7985817000007955,0.17621890000009444,,,,,,,,,,,,,00026,001,2025-11-15_16h03.48.687,MST_task,2024.2.0,100.19588294968105,2025-11-15 16h03.54.035573 +0530,
,Objects\016a.jpg,77,0,78,,,,,f,None,,,1.2532557000013185,0.16853830000036396,,,,78,0,77,429.8623286000002,,,,,,,,,,,,,,,,,,,,,,,,,,,,,,429.853085200004,429.8623286000002,430.3532186000011,,,,,,,,,,,,430.37104000000545,,,,,,,,,,,430.36787360000017,430.37104000000545,430.37104000000545,430.37104000000545,433.36240050000197,f,433.37004120000347,,,433.3700584000035,None,,,1.2532557000013185,0.16853830000036396,,,,,,,,,,,,,00026,001,2025-11-15_16h03.48.687,MST_task,2024.2.0,100.19588294968105,2025-11-15 16h03.54.035573 +0530,
,Objects\117a.jpg,78,0,79,,,,,f,None,,,1.4950985000032233,0.20029079999949317,,,,79,0,78,433.3721403000018,,,,,,,,,,,,,,,,,,,,,,,,,,,,,,433.3701624000023,433.3721403000018,433.86263200000394,,,,,,,,,,,,433.88122520000616,,,,,,,,,,,433.8786590000018,433.88122520000616,433.88122520000616,433.88122520000616,436.8717184000052,f,436.8718145000021,,,436.87184450000495,None,,,1.4950985000032233,0.20029079999949317,,,,,,,,,,,,,00026,001,2025-11-15_16h03.48.687,MST_task,2024.2.0,100.19588294968105,2025-11-15 16h03.54.035573 +0530,
,Objects\032a.jpg,79,0,80,,,,,j,None,,,0.9223463000016636,0.25691619999997783,,,,80,0,79,436.8815010000035,,,,,,,,,,,,,,,,,,,,,,,,,,,,,,436.87224220000644,436.8815010000035,437.3725654000009,,,,,,,,,,,,437.38988520000566,,,,,,,,,,,437.3872210000045,437.38988520000566,437.38988520000566,437.38988520000566,440.381386400004,j,440.38151630000357,,,440.3815579000002,None,,,0.9223463000016636,0.25691619999997783,,,,,,,,,,,,,00026,001,2025-11-15_16h03.48.687,MST_task,2024.2.0,100.19588294968105,2025-11-15 16h03.54.035573 +0530,
,Objects\166a.jpg,80,0,81,,,,,f,None,,,1.9156711000032374,0.1914896000016597,,,,81,0,80,440.39099949999945,,,,,,,,,,,,,,,,,,,,,,,,,,,,,,440.381908000003,440.39099949999945,440.881961900006,,,,,,,,,,,,440.90143670000543,,,,,,,,,,,440.89886440000555,440.90143670000543,440.90143670000543,440.90143670000543,443.8909041000006,f,443.89102220000495,,,443.8910615999994,None,,,1.9156711000032374,0.1914896000016597,,,,,,,,,,,,,00026,001,2025-11-15_16h03.48.687,MST_task,2024.2.0,100.19588294968105,2025-11-15 16h03.54.035573 +0530,
,Objects\138a.jpg,81,0,82,,,,,j,None,,,1.2408214999959455,0.23907860000326764,,,,82,0,81,443.9004163999998,,,,,,,,,,,,,,,,,,,,,,,,,,,,,,443.89135100000567,443.9004163999998,444.391271600005,,,,,,,,,,,,444.4083866000001,,,,,,,,,,,444.405891800001,444.4083866000001,444.4083866000001,444.4083866000001,447.4005520999999,j,447.4006895000057,,,447.4007350000029,None,,,1.2408214999959455,0.23907860000326764,,,,,,,,,,,,,00026,001,2025-11-15_16h03.48.687,MST_task,2024.2.0,100.19588294968105,2025-11-15 16h03.54.035573 +0530,
,Objects\092a.jpg,82,0,83,,,,,f,None,,,1.4023744000005536,0.17491770000196993,,,,83,0,82,447.4101127000031,,,,,,,,,,,,,,,,,,,,,,,,,,,,,,447.40109360000497,447.4101127000031,447.9008580000009,,,,,,,,,,,,447.9195997000061,,,,,,,,,,,447.91699760000483,447.9195997000061,447.9195997000061,447.9195997000061,450.91003670000646,f,450.91017270000157,,,450.9102167000019,None,,,1.4023744000005536,0.17491770000196993,,,,,,,,,,,,,00026,001,2025-11-15_16h03.48.687,MST_task,2024.2.0,100.19588294968105,2025-11-15 16h03.54.035573 +0530,
,Objects\133a.jpg,83,0,84,,,,,f,None,,,1.38186489999498,0.20063369999843417,,,,84,0,83,450.91971550000017,,,,,,,,,,,,,,,,,,,,,,,,,,,,,,450.9105797000011,450.91971550000017,451.4106638000012,,,,,,,,,,,,451.4265213000035,,,,,,,,,,,451.4239013000042,451.4265213000035,451.4265213000035,451.4265213000035,454.4106707000028,f,454.4107892000029,,,454.41082350000215,None,,,1.38186489999498,0.20063369999843417,454.41925150000316,454.41925150000316,454.41925150000316,,,,,,,,,,00026,001,2025-11-15_16h03.48.687,MST_task,2024.2.0,100.19588294968105,2025-11-15 16h03.54.035573 +0530,
,Scenes\009a.jpg,84,0,85,,,,,f,None,,,1.31098270000075,0.17589179999777116,,,,85,0,84,454.41925150000316,,,,,,,,,,,,,,,,,,,,,,,,,,,,,,454.4110196000038,454.41925150000316,454.9104499000023,,,,,,,,,,,,454.93792530000064,,,,,,,,,,,454.9346732000049,454.93792530000064,454.93792530000064,454.93792530000064,457.91927070000384,f,457.92291720000503,,,457.92294940000284,None,,,1.31098270000075,0.17589179999777116,,,,,,,,,,,,,00026,001,2025-11-15_16h03.48.687,MST_task,2024.2.0,100.19588294968105,2025-11-15 16h03.54.035573 +0530,
,Scenes\001a.jpg,85,0,86,,,,,f,None,,,1.0129440000018803,0.19229289999930188,,,,86,0,85,457.92859420000605,,,,,,,,,,,,,,,,,,,,,,,,,,,,,,457.9230581000011,457.92859420000605,458.419613500002,,,,,,,,,,,,458.4434693000003,,,,,,,,,,,458.44059160000324,458.4434693000003,458.4434693000003,458.4434693000003,461.42899279999983,f,461.429143500005,,,461.4291912000044,None,,,1.0129440000018803,0.19229289999930188,,,,,,,,,,,,,00026,001,2025-11-15_16h03.48.687,MST_task,2024.2.0,100.19588294968105,2025-11-15 16h03.54.035573 +0530,
,Scenes\004a.jpg,86,0,87,,,,,j,None,,,0.7268829999957234,0.2002171999993152,,,,87,0,86,461.43834130000323,,,,,,,,,,,,,,,,,,,,,,,,,,,,,,461.4295622999998,461.43834130000323,461.9294407000052,,,,,,,,,,,,461.95387080000364,,,,,,,,,,,461.9505070000014,461.95387080000364,461.95387080000364,461.95387080000364,464.93838400000095,j,464.9385323000024,,,464.93859879999945,None,,,0.7268829999957234,0.2002171999993152,,,,,,,,,,,,,00026,001,2025-11-15_16h03.48.687,MST_task,2024.2.0,100.19588294968105,2025-11-15 16h03.54.035573 +0530,
,Scenes\158a.jpg,87,0,88,,,,,j,None,,,1.759720699999889,0.25610259999666596,,,,88,0,87,464.94787650000217,,,,,,,,,,,,,,,,,,,,,,,,,,,,,,464.9389739000035,464.94787650000217,465.43898590000026,,,,,,,,,,,,465.46484550000605,,,,,,,,,,,465.46141720000014,465.46484550000605,465.46484550000605,465.46484550000605,468.4479666000043,j,468.44808390000253,,,468.4481216999993,None,,,1.759720699999889,0.25610259999666596,,,,,,,,,,,,,00026,001,2025-11-15_16h03.48.687,MST_task,2024.2.0,100.19588294968105,2025-11-15 16h03.54.035573 +0530,
,Scenes\144a.jpg,88,0,89,,,,,j,None,,,2.2475685000026715,0.22372550000000047,,,,89,0,88,468.45748760000424,,,,,,,,,,,,,,,,,,,,,,,,,,,,,,468.4483337000056,468.45748760000424,468.948221000006,,,,,,,,,,,,468.96968170000036,,,,,,,,,,,468.9663763999997,468.96968170000036,468.96968170000036,468.96968170000036,471.9575799000013,j,471.9577180000051,,,471.9577630999993,None,,,2.2475685000026715,0.22372550000000047,,,,,,,,,,,,,00026,001,2025-11-15_16h03.48.687,MST_task,2024.2.0,100.19588294968105,2025-11-15 16h03.54.035573 +0530,
,Scenes\137a.jpg,89,0,90,,,,,j,None,,,1.1455063999965205,0.21595630000228994,,,,90,0,89,471.9670410000035,,,,,,,,,,,,,,,,,,,,,,,,,,,,,,471.9580907000054,471.9670410000035,472.4580824000004,,,,,,,,,,,,472.4793556000004,,,,,,,,,,,472.47590070000297,472.4793556000004,472.4793556000004,472.4793556000004,475.46697549999953,j,475.4670593000046,,,475.46708639999997,None,,,1.1455063999965205,0.21595630000228994,,,,,,,,,,,,,00026,001,2025-11-15_16h03.48.687,MST_task,2024.2.0,100.19588294968105,2025-11-15 16h03.54.035573 +0530,
,Scenes\189a.jpg,90,0,91,,,,,j,None,,,1.1652289000048768,0.22401340000214987,,,,91,0,90,475.4763751000064,,,,,,,,,,,,,,,,,,,,,,,,,,,,,,475.4672862000007,475.4763751000064,475.967507500005,,,,,,,,,,,,475.9952656000023,,,,,,,,,,,475.9915980000005,475.9952656000023,475.9952656000023,475.9952656000023,478.9764832000001,j,478.97661110000627,,,478.9766818000062,None,,,1.1652289000048768,0.22401340000214987,,,,,,,,,,,,,00026,001,2025-11-15_16h03.48.687,MST_task,2024.2.0,100.19588294968105,2025-11-15 16h03.54.035573 +0530,
,Objects\058a.jpg,91,0,92,,,,,f,None,,,1.1118662000008044,0.18397069999628002,,,,92,0,91,478.9860340000014,,,,,,,,,,,,,,,,,,,,,,,,,,,,,,478.9769140999997,478.9860340000014,479.47677020000265,,,,,,,,,,,,479.4969022000005,,,,,,,,,,,479.49371860000247,479.4969022000005,479.4969022000005,479.4969022000005,482.48619580000377,f,482.49187090000487,,,482.49191090000386,None,,,1.1118662000008044,0.18397069999628002,,,,,,,,,,,,,00026,001,2025-11-15_16h03.48.687,MST_task,2024.2.0,100.19588294968105,2025-11-15 16h03.54.035573 +0530,
,Objects\115a.jpg,92,0,93,,,,,f,None,,,1.204292299997178,0.22410949999903096,,,,93,0,92,482.4955926000039,,,,,,,,,,,,,,,,,,,,,,,,,,,,,,482.4920790000033,482.4955926000039,482.9865910000008,,,,,,,,,,,,483.004016400002,,,,,,,,,,,483.00150250000297,483.004016400002,483.004016400002,483.004016400002,485.9954501000029,f,485.9955270999999,,,485.9955506000042,None,,,1.204292299997178,0.22410949999903096,,,,,,,,,,,,,00026,001,2025-11-15_16h03.48.687,MST_task,2024.2.0,100.19588294968105,2025-11-15 16h03.54.035573 +0530,
,Objects\025a.jpg,93,0,94,,,,,j,None,,,1.2088762999992468,0.2953191000051447,,,,94,0,93,486.0051892000047,,,,,,,,,,,,,,,,,,,,,,,,,,,,,,485.99574589999975,486.0051892000047,486.49648929999967,,,,,,,,,,,,486.51213980000466,,,,,,,,,,,486.5095908000003,486.51213980000466,486.51213980000466,486.51213980000466,489.4963803000064,j,489.4964944000021,,,489.49652820000483,None,,,1.2088762999992468,0.2953191000051447,489.50465729999996,489.50465729999996,489.50465729999996,,,,,,,,,,00026,001,2025-11-15_16h03.48.687,MST_task,2024.2.0,100.19588294968105,2025-11-15 16h03.54.035573 +0530,
,Objects\112a.jpg,94,0,95,,,,,f,None,,,1.0768061999988277,0.22330660000443459,,,,95,0,94,489.50465729999996,,,,,,,,,,,,,,,,,,,,,,,,,,,,,,489.4968283000053,489.50465729999996,489.996000500003,,,,,,,,,,,,490.01237400000537,,,,,,,,,,,490.009713200001,490.01237400000537,490.01237400000537,490.01237400000537,493.00480710000556,f,493.004918000006,,,493.0049533000056,None,,,1.0768061999988277,0.22330660000443459,,,,,,,,,,,,,00026,001,2025-11-15_16h03.48.687,MST_task,2024.2.0,100.19588294968105,2025-11-15 16h03.54.035573 +0530,
,Objects\086a.jpg,95,0,96,,,,,j,None,,,1.455913199999486,0.2560811000003014,,,,96,0,95,493.01421480000135,,,,,,,,,,,,,,,,,,,,,,,,,,,,,,493.00516990000324,493.01421480000135,493.50516510000307,,,,,,,,,,,,493.52039550000336,,,,,,,,,,,493.5177126000053,493.52039550000336,493.52039550000336,493.52039550000336,496.50573710000026,j,496.50585530000535,,,496.5058901000011,None,,,1.455913199999486,0.2560811000003014,496.5138783000002,496.5138783000002,496.5138783000002,,,,,,,,,,00026,001,2025-11-15_16h03.48.687,MST_task,2024.2.0,100.19588294968105,2025-11-15 16h03.54.035573 +0530,
,Objects\151a.jpg,96,0,97,,,,,f,None,,,1.1770707000032417,0.19206709999707527,,,,97,0,96,496.5138783000002,,,,,,,,,,,,,,,,,,,,,,,,,,,,,,496.50616090000403,496.5138783000002,497.0038693000024,,,,,,,,,,,,497.01555190000363,,,,,,,,,,,497.0130588000029,497.01555190000363,497.01555190000363,497.01555190000363,500.0049588000038,f,500.00510080000095,,,500.0051334000018,None,,,1.1770707000032417,0.19206709999707527,500.0134087000042,500.0134087000042,500.0134087000042,,,,,,,,,,00026,001,2025-11-15_16h03.48.687,MST_task,2024.2.0,100.19588294968105,2025-11-15 16h03.54.035573 +0530,
,Objects\190a.jpg,97,0,98,,,,,f,None,,,1.0081161999987671,0.18399170000338927,,,,98,0,97,500.0134087000042,,,,,,,,,,,,,,,,,,,,,,,,,,,,,,500.0053179000024,500.0134087000042,500.5042930000054,,,,,,,,,,,,500.520995400002,,,,,,,,,,,500.5184217999995,500.520995400002,500.520995400002,500.520995400002,503.5046419000064,f,503.5047487000047,,,503.5047787000003,None,,,1.0081161999987671,0.18399170000338927,503.51298260000476,503.51298260000476,503.51298260000476,,,,,,,,,,00026,001,2025-11-15_16h03.48.687,MST_task,2024.2.0,100.19588294968105,2025-11-15 16h03.54.035573 +0530,
,Scenes\016a.jpg,98,0,99,,,,,j,None,,,1.0807848000040394,0.2797437999979593,,,,99,0,98,503.51298260000476,,,,,,,,,,,,,,,,,,,,,,,,,,,,,,503.50495010000304,503.51298260000476,504.0043827000045,,,,,,,,,,,,504.0239333000063,,,,,,,,,,,504.0208733000036,504.0239333000063,504.0239333000063,504.0239333000063,507.01296569999977,j,507.0147638000053,,,507.01478320000024,None,,,1.0807848000040394,0.2797437999979593,,,,,,,,,,,,,00026,001,2025-11-15_16h03.48.687,MST_task,2024.2.0,100.19588294968105,2025-11-15 16h03.54.035573 +0530,
,Scenes\119a.jpg,99,0,100,,,,,j,None,,,0.7187972999963677,0.21595689999958267,,,,100,0,99,507.0226641000045,,,,,,,,,,,,,,,,,,,,,,,,,,,,,,507.0148928000053,507.0226641000045,507.51382240000385,,,,,,,,,,,,507.5377446000057,,,,,,,,,,,507.5346117000008,507.5377446000057,507.5377446000057,507.5377446000057,510.5229615000062,j,510.5230856000053,,,510.52312520000123,None,,,0.7187972999963677,0.21595689999958267,,,,,,,,,,,,,00026,001,2025-11-15_16h03.48.687,MST_task,2024.2.0,100.19588294968105,2025-11-15 16h03.54.035573 +0530,
,Scenes\024a.jpg,100,0,101,,,,,j,None,,,1.1986108999990392,0.22339259999716887,,,,101,0,100,510.532200200003,,,,,,,,,,,,,,,,,,,,,,,,,,,,,,510.5234156000006,510.532200200003,511.02338990000135,,,,,,,,,,,,511.0425099999993,,,,,,,,,,,511.03894080000464,511.0425099999993,511.0425099999993,511.0425099999993,514.0323824000006,j,514.0325067000012,,,514.0325440000015,None,,,1.1986108999990392,0.22339259999716887,,,,,,,,,,,,,00026,001,2025-11-15_16h03.48.687,MST_task,2024.2.0,100.19588294968105,2025-11-15 16h03.54.035573 +0530,
,Scenes\171a.jpg,101,0,102,,,,,f,None,,,0.7491536999950767,0.2242377000002307,,,,102,0,101,514.0417655000056,,,,,,,,,,,,,,,,,,,,,,,,,,,,,,514.0328347000031,514.0417655000056,514.533136900005,,,,,,,,,,,,514.5634141000046,,,,,,,,,,,514.5600024000014,514.5634141000046,514.5634141000046,514.5634141000046,517.5418129000027,f,517.541924600002,,,517.5419574000043,None,,,0.7491536999950767,0.2242377000002307,,,,,,,,,,,,,00026,001,2025-11-15_16h03.48.687,MST_task,2024.2.0,100.19588294968105,2025-11-15 16h03.54.035573 +0530,
,Scenes\142a.jpg,102,0,103,,,,,j,None,,,1.5412971999976435,0.21636730000318494,,,,103,0,102,517.5512187999993,,,,,,,,,,,,,,,,,,,,,,,,,,,,,,517.5422498000044,517.5512187999993,518.0424239999993,,,,,,,,,,,,518.0673564000026,,,,,,,,,,,518.0637612000064,518.0673564000026,518.0673564000026,518.0673564000026,521.0514847000013,j,521.0516201000064,,,521.0516644000018,None,,,1.5412971999976435,0.21636730000318494,,,,,,,,,,,,,00026,001,2025-11-15_16h03.48.687,MST_task,2024.2.0,100.19588294968105,2025-11-15 16h03.54.035573 +0530,
,Scenes\122a.jpg,103,0,104,,,,,f,None,,,0.896912500000326,0.23220589999982622,,,,104,0,103,521.0608978000018,,,,,,,,,,,,,,,,,,,,,,,,,,,,,,521.0520159000007,521.0608978000018,521.5517248000033,,,,,,,,,,,,521.5755075000052,,,,,,,,,,,521.5720748000022,521.5755075000052,521.5755075000052,521.5755075000052,524.5609029000043,f,524.5610109000045,,,524.5610457000002,None,,,0.896912500000326,0.23220589999982622,,,,,,,,,,,,,00026,001,2025-11-15_16h03.48.687,MST_task,2024.2.0,100.19588294968105,2025-11-15 16h03.54.035573 +0530,
,Scenes\120a.jpg,104,0,105,,,,,j,None,,,0.8756714999981341,0.2638909000015701,,,,105,0,104,524.5704086000042,,,,,,,,,,,,,,,,,,,,,,,,,,,,,,524.5613335000016,524.5704086000042,525.0617639000047,,,,,,,,,,,,525.0847355000005,,,,,,,,,,,525.0812755000006,525.0847355000005,525.0847355000005,525.0847355000005,528.0710657000018,j,528.0711863000033,,,528.0712249000062,None,,,0.8756714999981341,0.2638909000015701,,,,,,,,,,,,,00026,001,2025-11-15_16h03.48.687,MST_task,2024.2.0,100.19588294968105,2025-11-15 16h03.54.035573 +0530,
,Objects\077a.jpg,105,0,106,,,,,j,None,,,2.6031772999995155,0.27963659999659285,,,,106,0,105,528.0799632000053,,,,,,,,,,,,,,,,,,,,,,,,,,,,,,528.0715455000027,528.0799632000053,528.5708397000053,,,,,,,,,,,,528.589575900005,,,,,,,,,,,528.5861487000002,528.589575900005,528.589575900005,528.589575900005,531.5799448000034,j,531.5864284000054,,,531.5864577000029,None,,,2.6031772999995155,0.27963659999659285,,,,,,,,,,,,,00026,001,2025-11-15_16h03.48.687,MST_task,2024.2.0,100.19588294968105,2025-11-15 16h03.54.035573 +0530,
,Objects\003a.jpg,106,0,107,,,,,j,None,,,1.274877199997718,0.2965364000046975,,,,107,0,106,531.5892998000054,,,,,,,,,,,,,,,,,,,,,,,,,,,,,,531.5866209000014,531.5892998000054,532.0798691000018,,,,,,,,,,,,532.0934412999995,,,,,,,,,,,532.0909021000043,532.0934412999995,532.0934412999995,532.0934412999995,535.0802451000054,j,535.0803491000042,,,535.0803777000037,None,,,1.274877199997718,0.2965364000046975,535.0889563000019,535.0889563000019,535.0889563000019,,,,,,,,,,00026,001,2025-11-15_16h03.48.687,MST_task,2024.2.0,100.19588294968105,2025-11-15 16h03.54.035573 +0530,
,Objects\023a.jpg,107,0,108,,,,,f,None,,,1.968710099994496,0.23156500000186497,,,,108,0,107,535.0889563000019,,,,,,,,,,,,,,,,,,,,,,,,,,,,,,535.0805663000065,535.0889563000019,535.5798225000035,,,,,,,,,,,,535.5922583000065,,,,,,,,,,,535.5895538000041,535.5922583000065,535.5922583000065,535.5922583000065,538.5802121000015,f,538.580326000003,,,538.5803588000053,None,,,1.968710099994496,0.23156500000186497,538.5884877000062,538.5884877000062,538.5884877000062,,,,,,,,,,00026,001,2025-11-15_16h03.48.687,MST_task,2024.2.0,100.19588294968105,2025-11-15 16h03.54.035573 +0530,
,Objects\191a.jpg,108,0,109,,,,,f,None,,,0.9981164999990142,0.26394799999980023,,,,109,0,108,538.5884877000062,,,,,,,,,,,,,,,,,,,,,,,,,,,,,,538.5805529999998,538.5884877000062,539.0795319000026,,,,,,,,,,,,539.0982117000021,,,,,,,,,,,539.0952725000025,539.0982117000021,539.0982117000021,539.0982117000021,542.0886299000049,f,542.0887669000003,,,542.088811600006,None,,,0.9981164999990142,0.26394799999980023,,,,,,,,,,,,,00026,001,2025-11-15_16h03.48.687,MST_task,2024.2.0,100.19588294968105,2025-11-15 16h03.54.035573 +0530,
,Objects\076a.jpg,109,0,110,,,,,f,None,,,1.691531099997519,0.22415270000055898,,,,110,0,109,542.0980670000063,,,,,,,,,,,,,,,,,,,,,,,,,,,,,,542.0891537000061,542.0980670000063,542.5895477000013,,,,,,,,,,,,542.605327600002,,,,,,,,,,,542.6026132000043,542.605327600002,542.605327600002,542.605327600002,545.5888451000064,f,545.5889440000028,,,545.5889699000036,None,,,1.691531099997519,0.22415270000055898,545.597611600002,545.597611600002,545.597611600002,,,,,,,,,,00026,001,2025-11-15_16h03.48.687,MST_task,2024.2.0,100.19588294968105,2025-11-15 16h03.54.035573 +0530,
,Objects\125a.jpg,110,0,111,,,,,j,None,,,0.8595569999961299,0.30406200000288663,,,,111,0,110,545.597611600002,,,,,,,,,,,,,,,,,,,,,,,,,,,,,,545.5892168999999,545.597611600002,546.0879187000028,,,,,,,,,,,,546.1011031000016,,,,,,,,,,,546.0986252000002,546.1011031000016,546.1011031000016,546.1011031000016,549.0886453000057,j,549.088994100006,,,549.089035500001,None,,,0.8595569999961299,0.30406200000288663,549.0972063000008,549.0972063000008,549.0972063000008,,,,,,,,,,00026,001,2025-11-15_16h03.48.687,MST_task,2024.2.0,100.19588294968105,2025-11-15 16h03.54.035573 +0530,
,Objects\149a.jpg,111,0,112,,,,,j,None,,,1.4286662000013166,0.28757999999652384,,,,112,0,111,549.0972063000008,,,,,,,,,,,,,,,,,,,,,,,,,,,,,,549.0895141000001,549.0972063000008,549.588630600003,,,,,,,,,,,,549.6040512000036,,,,,,,,,,,549.6014759000027,549.6040512000036,549.6040512000036,549.6040512000036,552.588570800006,j,552.5887039000008,,,552.5887392000004,None,,,1.4286662000013166,0.28757999999652384,552.5966872000063,552.5966872000063,552.5966872000063,,,,,,,,,,00026,001,2025-11-15_16h03.48.687,MST_task,2024.2.0,100.19588294968105,2025-11-15 16h03.54.035573 +0530,
,Scenes\086a.jpg,112,0,113,,,,,j,None,,,1.077145000002929,0.271496000001207,,,,113,0,112,552.5966872000063,,,,,,,,,,,,,,,,,,,,,,,,,,,,,,552.5890667000058,552.5966872000063,553.0882054000031,,,,,,,,,,,,553.1159246000025,,,,,,,,,,,553.1125673999995,553.1159246000025,553.1159246000025,553.1159246000025,556.0967812000017,j,556.1008359000043,,,556.1008646000046,None,,,1.077145000002929,0.271496000001207,,,,,,,,,,,,,00026,001,2025-11-15_16h03.48.687,MST_task,2024.2.0,100.19588294968105,2025-11-15 16h03.54.035573 +0530,
,Scenes\026a.jpg,113,0,114,,,,,j,None,,,1.097600400004012,0.24754240000038408,,,,114,0,113,556.106205300006,,,,,,,,,,,,,,,,,,,,,,,,,,,,,,556.1009723000025,556.106205300006,556.5970952999996,,,,,,,,,,,,556.6233127000014,,,,,,,,,,,556.6200204000052,556.6233127000014,556.6233127000014,556.6233127000014,559.6065316000022,j,559.6066518000007,,,559.6067307000048,None,,,1.097600400004012,0.24754240000038408,,,,,,,,,,,,,00026,001,2025-11-15_16h03.48.687,MST_task,2024.2.0,100.19588294968105,2025-11-15 16h03.54.035573 +0530,
,Scenes\130a.jpg,114,0,115,,,,,f,None,,,1.5659863999972004,0.22511110000050394,,,,115,0,114,559.6159699000054,,,,,,,,,,,,,,,,,,,,,,,,,,,,,,559.6069573000059,559.6159699000054,560.1060266999993,,,,,,,,,,,,560.1304509000038,,,,,,,,,,,560.1265903000021,560.1304509000038,560.1304509000038,560.1304509000038,563.1158399000051,f,563.1159464000011,,,563.115979000002,None,,,1.5659863999972004,0.22511110000050394,,,,,,,,,,,,,00026,001,2025-11-15_16h03.48.687,MST_task,2024.2.0,100.19588294968105,2025-11-15 16h03.54.035573 +0530,
,Scenes\011a.jpg,115,0,116,,,,,j,None,,,0.9649763999987044,0.33606410000356846,,,,116,0,115,563.1254487000042,,,,,,,,,,,,,,,,,,,,,,,,,,,,,,563.116162600003,563.1254487000042,563.616415000004,,,,,,,,,,,,563.6435266000044,,,,,,,,,,,563.6396894000063,563.6435266000044,563.6435266000044,563.6435266000044,566.6254404000065,j,566.6255531999996,,,566.6255900000033,None,,,0.9649763999987044,0.33606410000356846,,,,,,,,,,,,,00026,001,2025-11-15_16h03.48.687,MST_task,2024.2.0,100.19588294968105,2025-11-15 16h03.54.035573 +0530,
,Scenes\045a.jpg,116,0,117,,,,,f,None,,,1.9447551999983261,0.22389079999993555,,,,117,0,116,566.635031100006,,,,,,,,,,,,,,,,,,,,,,,,,,,,,,566.6259315000061,566.635031100006,567.1257175999999,,,,,,,,,,,,567.1521347000016,,,,,,,,,,,567.1487729,567.1521347000016,567.1521347000016,567.1521347000016,570.1350162000017,f,570.1351244000034,,,570.1351580000046,None,,,1.9447551999983261,0.22389079999993555,,,,,,,,,,,,,00026,001,2025-11-15_16h03.48.687,MST_task,2024.2.0,100.19588294968105,2025-11-15 16h03.54.035573 +0530,
,Scenes\149a.jpg,117,0,118,,,,,f,None,,,1.4099197999967146,0.2956821000043419,,,,118,0,117,570.1446584000005,,,,,,,,,,,,,,,,,,,,,,,,,,,,,,570.1353583000018,570.1446584000005,570.6353692000048,,,,,,,,,,,,570.6633647000053,,,,,,,,,,,570.6598554000011,570.6633647000053,570.6633647000053,570.6633647000053,573.6445251000041,f,573.6446622000003,,,573.6447015000012,None,,,1.4099197999967146,0.2956821000043419,,,,,,,,,,,,,00026,001,2025-11-15_16h03.48.687,MST_task,2024.2.0,100.19588294968105,2025-11-15 16h03.54.035573 +0530,
,Scenes\055a.jpg,118,0,119,,,,,j,None,,,1.040644799999427,0.3280979999981355,,,,119,0,118,573.6541092000043,,,,,,,,,,,,,,,,,,,,,,,,,,,,,,573.6448951000057,573.6541092000043,574.1454900000026,,,,,,,,,,,,574.1683058000053,,,,,,,,,,,574.1655242000052,574.1683058000053,574.1683058000053,574.1683058000053,577.1541959000024,j,577.1543390000006,,,577.1543873000046,None,,,1.040644799999427,0.3280979999981355,,,,,,,,,,,,,00026,001,2025-11-15_16h03.48.687,MST_task,2024.2.0,100.19588294968105,2025-11-15 16h03.54.035573 +0530,
,Objects\174a.jpg,119,0,120,,,,,j,None,,,1.998396099996171,0.2882086000026902,,,,120,0,119,577.1637206000014,,,,,,,,,,,,,,,,,,,,,,,,,,,,,,577.154649600001,577.1637206000014,577.6548597000001,,,,,,,,,,,,577.6742291000046,,,,,,,,,,,577.6708578000034,577.6742291000046,577.6742291000046,577.6742291000046,580.6636120000039,j,580.6682083000051,,,580.6682319000029,None,,,1.998396099996171,0.2882086000026902,,,,,,,,,,,,,00026,001,2025-11-15_16h03.48.687,MST_task,2024.2.0,100.19588294968105,2025-11-15 16h03.54.035573 +0530,
,Objects\175a.jpg,120,0,121,,,,,f,None,,,2.8126997999934247,0.14428430000407388,,,,121,0,120,580.673060400004,,,,,,,,,,,,,,,,,,,,,,,,,,,,,,580.6683666000026,580.673060400004,581.1643852000052,,,,,,,,,,,,581.1797896000062,,,,,,,,,,,581.1771630000003,581.1797896000062,581.1797896000062,581.1797896000062,584.164374800006,f,584.1644874000049,,,584.1645210999995,None,,,2.8126997999934247,0.14428430000407388,584.1727662000048,584.1727662000048,584.1727662000048,,,,,,,,,,00026,001,2025-11-15_16h03.48.687,MST_task,2024.2.0,100.19588294968105,2025-11-15 16h03.54.035573 +0530,
,Objects\093a.jpg,121,0,122,,,,,j,None,,,1.7487458999967203,0.21621980000054464,,,,122,0,121,584.1727662000048,,,,,,,,,,,,,,,,,,,,,,,,,,,,,,584.164743500005,584.1727662000048,584.6639227000051,,,,,,,,,,,,584.6846053000045,,,,,,,,,,,584.681868300002,584.6846053000045,584.6846053000045,584.6846053000045,587.6728260000018,j,587.6729460999995,,,587.6729838000028,None,,,1.7487458999967203,0.21621980000054464,,,,,,,,,,,,,00026,001,2025-11-15_16h03.48.687,MST_task,2024.2.0,100.19588294968105,2025-11-15 16h03.54.035573 +0530,
,Objects\155a.jpg,122,0,123,,,,,f,None,,,1.5459035000021686,0.31245929999568034,,,,123,0,122,587.6824227000034,,,,,,,,,,,,,,,,,,,,,,,,,,,,,,587.6731946,587.6824227000034,588.1731954999996,,,,,,,,,,,,588.1903735000014,,,,,,,,,,,588.187636900002,588.1903735000014,588.1903735000014,588.1903735000014,591.1823427000054,f,591.182456100003,,,591.182489800005,None,,,1.5459035000021686,0.31245929999568034,,,,,,,,,,,,,00026,001,2025-11-15_16h03.48.687,MST_task,2024.2.0,100.19588294968105,2025-11-15 16h03.54.035573 +0530,
,Objects\171a.jpg,123,0,124,,,,,j,None,,,1.0694962000052328,0.2886704999982612,,,,124,0,123,591.1918351000058,,,,,,,,,,,,,,,,,,,,,,,,,,,,,,591.1827857000026,591.1918351000058,591.6830800000025,,,,,,,,,,,,591.698730600001,,,,,,,,,,,591.695962400001,591.698730600001,591.698730600001,591.698730600001,594.6835368000029,j,594.6836618000016,,,594.6837003000037,None,,,1.0694962000052328,0.2886704999982612,594.691682100005,594.691682100005,594.691682100005,,,,,,,,,,00026,001,2025-11-15_16h03.48.687,MST_task,2024.2.0,100.19588294968105,2025-11-15 16h03.54.035573 +0530,
,Objects\094a.jpg,124,0,125,,,,,f,None,,,1.6702251000024262,0.25668129999394296,,,,125,0,124,594.691682100005,,,,,,,,,,,,,,,,,,,,,,,,,,,,,,594.6840082000053,594.691682100005,595.1826113999996,,,,,,,,,,,,595.2022078000009,,,,,,,,,,,595.1991361000037,595.2022078000009,595.2022078000009,595.2022078000009,598.1915535000007,f,598.1917686000015,,,598.191811100005,None,,,1.6702251000024262,0.25668129999394296,,,,,,,,,,,,,00026,001,2025-11-15_16h03.48.687,MST_task,2024.2.0,100.19588294968105,2025-11-15 16h03.54.035573 +0530,
,Objects\132a.jpg,125,0,126,,,,,f,None,,,0.8919169000000693,0.33541349999723025,,,,126,0,125,598.2009870000038,,,,,,,,,,,,,,,,,,,,,,,,,,,,,,598.1921225000042,598.2009870000038,598.6921214000031,,,,,,,,,,,,598.7090016000002,,,,,,,,,,,598.7056735000006,598.7090016000002,598.7090016000002,598.7090016000002,601.7012831000029,f,601.7014192000061,,,601.7014579000024,None,,,0.8919169000000693,0.33541349999723025,,,,,,,,,,,,,00026,001,2025-11-15_16h03.48.687,MST_task,2024.2.0,100.19588294968105,2025-11-15 16h03.54.035573 +0530,
,Scenes\083a.jpg,126,0,127,,,,,j,None,,,0.9593489999970188,0.32696389999910025,,,,127,0,126,601.7106367000015,,,,,,,,,,,,,,,,,,,,,,,,,,,,,,601.7017780000024,601.7106367000015,602.2016495999997,,,,,,,,,,,,602.226082000001,,,,,,,,,,,602.2226228,602.226082000001,602.226082000001,602.226082000001,605.2106009000054,j,605.2147734000027,,,605.2148019000015,None,,,0.9593489999970188,0.32696389999910025,,,,,,,,,,,,,00026,001,2025-11-15_16h03.48.687,MST_task,2024.2.0,100.19588294968105,2025-11-15 16h03.54.035573 +0530,
,Scenes\088a.jpg,127,0,128,,,,,j,None,,,0.6065041999972891,0.3595958000005339,,,,128,0,127,605.220000500005,,,,,,,,,,,,,,,,,,,,,,,,,,,,,,605.2149802000058,605.220000500005,605.7111531000046,,,,,,,,,,,,605.7389008000027,,,,,,,,,,,605.7352857000005,605.7389008000027,605.7389008000027,605.7389008000027,608.7202116000044,j,608.7203708000015,,,608.7204234000019,None,,,0.6065041999972891,0.3595958000005339,,,,,,,,,,,,,00026,001,2025-11-15_16h03.48.687,MST_task,2024.2.0,100.19588294968105,2025-11-15 16h03.54.035573 +0530,
,Scenes\020a.jpg,128,0,129,,,,,f,None,,,0.8408682000008412,0.35204330000124173,,,,129,0,128,608.7296900000001,,,,,,,,,,,,,,,,,,,,,,,,,,,,,,608.7208180000016,608.7296900000001,609.220957000005,,,,,,,,,,,,609.2478604999997,,,,,,,,,,,609.2443248000054,609.2478604999997,609.2478604999997,609.2478604999997,612.2296420000057,f,612.2297405000063,,,612.229770900005,None,,,0.8408682000008412,0.35204330000124173,,,,,,,,,,,,,00026,001,2025-11-15_16h03.48.687,MST_task,2024.2.0,100.19588294968105,2025-11-15 16h03.54.035573 +0530,
,Scenes\094a.jpg,129,0,130,,,,,j,None,,,2.100993100000778,0.5281658000021707,,,,130,0,129,612.2392720000062,,,,,,,,,,,,,,,,,,,,,,,,,,,,,,612.2300261000055,612.2392720000062,612.7304270000022,,,,,,,,,,,,612.7554364000025,,,,,,,,,,,612.7519947000037,612.7554364000025,612.7554364000025,612.7554364000025,615.7393830000001,j,615.7395152000026,,,615.739551000006,None,,,2.100993100000778,0.5281658000021707,,,,,,,,,,,,,00026,001,2025-11-15_16h03.48.687,MST_task,2024.2.0,100.19588294968105,2025-11-15 16h03.54.035573 +0530,
,Scenes\183a.jpg,130,0,131,,,,,f,None,,,1.1944557999959216,0.36021169999730773,,,,131,0,130,615.7490298000048,,,,,,,,,,,,,,,,,,,,,,,,,,,,,,615.739765600003,615.7490298000048,616.240102900003,,,,,,,,,,,,616.262046900003,,,,,,,,,,,616.2594090000057,616.262046900003,616.262046900003,616.262046900003,619.2490112000014,f,619.2491396000041,,,619.2491796000031,None,,,1.1944557999959216,0.36021169999730773,,,,,,,,,,,,,00026,001,2025-11-15_16h03.48.687,MST_task,2024.2.0,100.19588294968105,2025-11-15 16h03.54.035573 +0530,
,Scenes\165a.jpg,131,0,132,,,,,f,None,,,1.1564589999979944,0.3444547999970382,,,,132,0,131,619.258345400005,,,,,,,,,,,,,,,,,,,,,,,,,,,,,,619.2494965000005,619.258345400005,619.7494409999999,,,,,,,,,,,,619.7723803000044,,,,,,,,,,,619.7696001000004,619.7723803000044,619.7723803000044,619.7723803000044,622.7584666000039,f,622.7585763000025,,,622.7586117000028,None,,,1.1564589999979944,0.3444547999970382,,,,,,,,,,,,,00026,001,2025-11-15_16h03.48.687,MST_task,2024.2.0,100.19588294968105,2025-11-15 16h03.54.035573 +0530,
,Scenes\162a.jpg,132,0,133,,,,,j,None,,,1.1551381000026595,0.3047184999959427,,,,133,0,132,622.7678151,,,,,,,,,,,,,,,,,,,,,,,,,,,,,,622.7588096000036,622.7678151,623.2586166000037,,,,,,,,,,,,623.2773176000046,,,,,,,,,,,623.274060900003,623.2773176000046,623.2773176000046,623.2773176000046,626.2681599999996,j,626.2683096000037,,,626.2683552000017,None,,,1.1551381000026595,0.3047184999959427,,,,,,,,,,,,,00026,001,2025-11-15_16h03.48.687,MST_task,2024.2.0,100.19588294968105,2025-11-15 16h03.54.035573 +0530,
,Objects\056a.jpg,133,0,134,,,,,f,None,,,1.3326240000023972,0.3038148999985424,,,,134,0,133,626.2776355000024,,,,,,,,,,,,,,,,,,,,,,,,,,,,,,626.2687055999995,626.2776355000024,626.7687933000052,,,,,,,,,,,,626.7879665,,,,,,,,,,,626.7846922000026,626.7879665,626.7879665,626.7879665,629.7777537000002,f,629.7831403000018,,,629.7831674000045,None,,,1.3326240000023972,0.3038148999985424,,,,,,,,,,,,,00026,001,2025-11-15_16h03.48.687,MST_task,2024.2.0,100.19588294968105,2025-11-15 16h03.54.035573 +0530,
,Objects\053a.jpg,134,0,135,,,,,f,None,,,1.5453234000015073,0.3362753999972483,,,,135,0,134,629.7869283000036,,,,,,,,,,,,,,,,,,,,,,,,,,,,,,629.7832693000018,629.7869283000036,630.278235400001,,,,,,,,,,,,630.2954183000038,,,,,,,,,,,630.2927536999996,630.2954183000038,630.2954183000038,630.2954183000038,633.2872054000036,f,633.2873226000011,,,633.2873602000036,None,,,1.5453234000015073,0.3362753999972483,,,,,,,,,,,,,00026,001,2025-11-15_16h03.48.687,MST_task,2024.2.0,100.19588294968105,2025-11-15 16h03.54.035573 +0530,
,Objects\073a.jpg,135,0,136,,,,,f,None,,,1.2380325999984052,0.3441748000041116,,,,136,0,135,633.2967267999993,,,,,,,,,,,,,,,,,,,,,,,,,,,,,,633.2876752000011,633.2967267999993,633.787624800003,,,,,,,,,,,,633.8030908000001,,,,,,,,,,,633.8005591000037,633.8030908000001,633.8030908000001,633.8030908000001,636.7881865000018,f,636.7883156000025,,,636.7883532000051,None,,,1.2380325999984052,0.3441748000041116,636.7964079000012,636.7964079000012,636.7964079000012,,,,,,,,,,00026,001,2025-11-15_16h03.48.687,MST_task,2024.2.0,100.19588294968105,2025-11-15 16h03.54.035573 +0530,
,Objects\004a.jpg,136,0,137,,,,,j,None,,,2.8324040999941644,None,,,,137,0,136,636.7964079000012,,,,,,,,,,,,,,,,,,,,,,,,,,,,,,636.7886597000033,636.7964079000012,637.2876453000063,,,,,,,,,,,,637.3041857000062,,,,,,,,,,,637.3014875000008,637.3041857000062,637.3041857000062,637.3041857000062,640.2967092000035,j,640.2968798000002,,,640.2969353000008,None,,,2.8324040999941644,None,,,,,,,,,,,,,00026,001,2025-11-15_16h03.48.687,MST_task,2024.2.0,100.19588294968105,2025-11-15 16h03.54.035573 +0530,
,Objects\136a.jpg,137,0,138,,,,,f,None,,,0.8916014999995241,0.2636687000049278,,,,138,0,137,640.3060499000057,,,,,,,,,,,,,,,,,,,,,,,,,,,,,,640.2972252000036,640.3060499000057,640.7971864000065,,,,,,,,,,,,640.8131939000014,,,,,,,,,,,640.8105409000054,640.8131939000014,640.8131939000014,640.8131939000014,643.7964658000055,f,643.796551200001,,,643.7965735000034,None,,,0.8916014999995241,0.2636687000049278,643.8055096000026,643.8055096000026,643.8055096000026,,,,,,,,,,00026,001,2025-11-15_16h03.48.687,MST_task,2024.2.0,100.19588294968105,2025-11-15 16h03.54.035573 +0530,
,Objects\147a.jpg,138,0,139,,,,,j,None,,,2.3987317999999505,0.26411479999660514,,,,139,0,138,643.8055096000026,,,,,,,,,,,,,,,,,,,,,,,,,,,,,,643.7967743000045,643.8055096000026,644.2966345000023,,,,,,,,,,,,644.313642000001,,,,,,,,,,,644.311054400001,644.313642000001,644.313642000001,644.313642000001,647.3056636000038,j,647.3057908000046,,,647.3058296000017,None,,,2.3987317999999505,0.26411479999660514,,,,,,,,,,,,,00026,001,2025-11-15_16h03.48.687,MST_task,2024.2.0,100.19588294968105,2025-11-15 16h03.54.035573 +0530,
,Objects\090a.jpg,139,0,140,,,,,j,None,,,2.16066430000501,0.2801627999942866,,,,140,0,139,647.3150244999997,,,,,,,,,,,,,,,,,,,,,,,,,,,,,,647.3060421000046,647.3150244999997,647.8059438000055,,,,,,,,,,,,647.8239485000013,,,,,,,,,,,647.8213010000036,647.8239485000013,647.8239485000013,647.8239485000013,650.8152792000037,j,650.8154047000062,,,650.8154448999994,None,,,2.16066430000501,0.2801627999942866,,,,,,,,,,,,,00026,001,2025-11-15_16h03.48.687,MST_task,2024.2.0,100.19588294968105,2025-11-15 16h03.54.035573 +0530,
,Scenes\071a.jpg,140,0,141,,,,,None,f,0.4423921999987215,None,,,,,,141,0,140,650.8246354000003,,,,,,,,,,,,,,,,,,,,,,,,,,,,,,650.8156584000026,650.8246354000003,651.3157912000024,,,,,,,,,,,,651.3431950000013,,,,,,,,,,,651.3393865000035,651.3431950000013,651.3431950000013,651.3431950000013,654.3248015000063,None,654.3304011,654.3340089000048,654.3340089000048,654.7859991000005,f,0.4423921999987215,None,,,,,,,,,,,,,,,00026,001,2025-11-15_16h03.48.687,MST_task,2024.2.0,100.19588294968105,2025-11-15 16h03.54.035573 +0530,
,Scenes\069a.jpg,141,0,142,,,,,j,None,,,1.8387344000002486,0.27129129999957513,,,,142,0,141,654.7941210000063,,,,,,,,,,,,,,,,,,,,,,,,,,,,,,654.786357200006,654.7941210000063,655.2852826000017,,,,,,,,,,,,655.3063471999994,,,,,,,,,,,655.3029829000006,655.3063471999994,655.3063471999994,655.3063471999994,658.2942532000015,j,658.2943735000008,,,658.2944132000048,None,,,1.8387344000002486,0.27129129999957513,,,,,,,,,,,,,00026,001,2025-11-15_16h03.48.687,MST_task,2024.2.0,100.19588294968105,2025-11-15 16h03.54.035573 +0530,
,Scenes\115a.jpg,142,0,143,,,,,j,None,,,1.8946962999980315,0.3282641000041622,,,,143,0,142,658.3037022999997,,,,,,,,,,,,,,,,,,,,,,,,,,,,,,658.2947244000025,658.3037022999997,658.7947958000004,,,,,,,,,,,,658.8176582000015,,,,,,,,,,,658.814343500002,658.8176582000015,658.8176582000015,658.8176582000015,661.8038428,j,661.8039898000061,,,661.8040379000013,None,,,1.8946962999980315,0.3282641000041622,,,,,,,,,,,,,00026,001,2025-11-15_16h03.48.687,MST_task,2024.2.0,100.19588294968105,2025-11-15 16h03.54.035573 +0530,
,Scenes\179a.jpg,143,0,144,,,,,j,None,,,0.7320982000019285,0.29675579999457113,,,,144,0,143,661.8132546000052,,,,,,,,,,,,,,,,,,,,,,,,,,,,,,661.8043022000056,661.8132546000052,662.3044001000017,,,,,,,,,,,,662.3241647000032,,,,,,,,,,,662.3208671000029,662.3241647000032,662.3241647000032,662.3241647000032,665.3134970000028,j,665.3136375000031,,,665.3136822000015,None,,,0.7320982000019285,0.29675579999457113,,,,,,,,,,,,,00026,001,2025-11-15_16h03.48.687,MST_task,2024.2.0,100.19588294968105,2025-11-15 16h03.54.035573 +0530,
,Scenes\112a.jpg,144,0,145,,,,,j,None,,,0.7489475999973365,0.31963189999805763,,,,145,0,144,665.322791700004,,,,,,,,,,,,,,,,,,,,,,,,,,,,,,665.3139303000062,665.322791700004,665.8139034000051,,,,,,,,,,,,665.8358411000008,,,,,,,,,,,665.8324773999993,665.8358411000008,665.8358411000008,665.8358411000008,668.8232141000044,j,668.8233688000037,,,668.8234193000026,None,,,0.7489475999973365,0.31963189999805763,,,,,,,,,,,,,00026,001,2025-11-15_16h03.48.687,MST_task,2024.2.0,100.19588294968105,2025-11-15 16h03.54.035573 +0530,
,Scenes\032a.jpg,145,0,146,,,,,j,None,,,0.8832141000020783,0.2800132999982452,,,,146,0,145,668.8323474000063,,,,,,,,,,,,,,,,,,,,,,,,,,,,,,668.8236717000036,668.8323474000063,669.3234035999994,,,,,,,,,,,,669.3496372000009,,,,,,,,,,,669.3460966000057,669.3496372000009,669.3496372000009,669.3496372000009,672.3325493000011,j,672.3326919000028,,,672.3327392000065,None,,,0.8832141000020783,0.2800132999982452,,,,,,,,,,,,,00026,001,2025-11-15_16h03.48.687,MST_task,2024.2.0,100.19588294968105,2025-11-15 16h03.54.035573 +0530,
,Scenes\101a.jpg,146,0,147,,,,,None,j,0.46964740000112215,None,,,,,,147,0,146,672.3417451000059,,,,,,,,,,,,,,,,,,,,,,,,,,,,,,672.3329700000031,672.3417451000059,672.8329111000057,,,,,,,,,,,,672.8545135000022,,,,,,,,,,,672.8511482000031,672.8545135000022,672.8545135000022,672.8545135000022,675.8421080000044,None,675.8422516999999,675.8514538000018,675.8514538000018,676.3232331000036,j,0.46964740000112215,None,,,,,,,,,,,,,,,00026,001,2025-11-15_16h03.48.687,MST_task,2024.2.0,100.19588294968105,2025-11-15 16h03.54.035573 +0530,
,Objects\071a.jpg,147,0,148,,,,,f,None,,,2.149856100004399,0.2724184999970021,,,,148,0,147,676.3311695000011,,,,,,,,,,,,,,,,,,,,,,,,,,,,,,676.3235264000032,676.3311695000011,676.8221493000019,,,,,,,,,,,,676.8425470000002,,,,,,,,,,,676.8393570000044,676.8425470000002,676.8425470000002,676.8425470000002,679.8312650000007,f,679.8361150000055,,,679.8361427000054,None,,,2.149856100004399,0.2724184999970021,,,,,,,,,,,,,00026,001,2025-11-15_16h03.48.687,MST_task,2024.2.0,100.19588294968105,2025-11-15 16h03.54.035573 +0530,
,Objects\049a.jpg,148,0,149,,,,,f,None,,,0.9642479999965872,0.26420230000076117,,,,149,0,148,679.8406214000061,,,,,,,,,,,,,,,,,,,,,,,,,,,,,,679.8363092,679.8406214000061,680.3315954000063,,,,,,,,,,,,680.3482973999999,,,,,,,,,,,680.3457151000039,680.3482973999999,680.3482973999999,680.3482973999999,683.3411103000035,f,683.3412607000064,,,683.3413094999996,None,,,0.9642479999965872,0.26420230000076117,,,,,,,,,,,,,00026,001,2025-11-15_16h03.48.687,MST_task,2024.2.0,100.19588294968105,2025-11-15 16h03.54.035573 +0530,
,Objects\116a.jpg,149,0,150,,,,,f,None,,,1.079997100001492,0.28699130000313744,,,,150,0,149,683.3503893000016,,,,,,,,,,,,,,,,,,,,,,,,,,,,,,683.3415604000038,683.3503893000016,683.8411345999994,,,,,,,,,,,,683.8572480000003,,,,,,,,,,,683.8545662000033,683.8572480000003,683.8572480000003,683.8572480000003,686.8415533000007,f,686.8416705000054,,,686.841705800005,None,,,1.079997100001492,0.28699130000313744,686.8499666999996,686.8499666999996,686.8499666999996,,,,,,,,,,00026,001,2025-11-15_16h03.48.687,MST_task,2024.2.0,100.19588294968105,2025-11-15 16h03.54.035573 +0530,
,Objects\039a.jpg,150,0,151,,,,,j,None,,,2.3558594999994966,0.19310779999796068,,,,151,0,150,686.8499666999996,,,,,,,,,,,,,,,,,,,,,,,,,,,,,,686.841997800002,686.8499666999996,687.341736800001,,,,,,,,,,,,687.3566191999998,,,,,,,,,,,687.3536458000017,687.3566191999998,687.3566191999998,687.3566191999998,690.3415531000064,j,690.341726000006,,,690.3417717000048,None,,,2.3558594999994966,0.19310779999796068,690.3495165000058,690.3495165000058,690.3495165000058,,,,,,,,,,00026,001,2025-11-15_16h03.48.687,MST_task,2024.2.0,100.19588294968105,2025-11-15 16h03.54.035573 +0530,
,Objects\002a.jpg,151,0,152,,,,,f,None,,,1.195497599997907,0.2311788000006345,,,,152,0,151,690.3495165000058,,,,,,,,,,,,,,,,,,,,,,,,,,,,,,690.3421180000005,690.3495165000058,690.8408969000011,,,,,,,,,,,,690.8617674000052,,,,,,,,,,,690.858739700001,690.8617674000052,690.8617674000052,690.8617674000052,693.8494427000041,f,693.8495595000059,,,693.8497121000037,None,,,1.195497599997907,0.2311788000006345,,,,,,,,,,,,,00026,001,2025-11-15_16h03.48.687,MST_task,2024.2.0,100.19588294968105,2025-11-15 16h03.54.035573 +0530,
,Objects\169a.jpg,152,0,153,,,,,j,None,,,1.5462853999997606,0.3036484999975073,,,,153,0,152,693.8589492000028,,,,,,,,,,,,,,,,,,,,,,,,,,,,,,693.8500500000009,693.8589492000028,694.3501204000058,,,,,,,,,,,,694.3665985000043,,,,,,,,,,,694.3639586000063,694.3665985000043,694.3665985000043,694.3665985000043,697.3590764000037,j,697.3592170000047,,,697.3592581000048,None,,,1.5462853999997606,0.3036484999975073,,,,,,,,,,,,,00026,001,2025-11-15_16h03.48.687,MST_task,2024.2.0,100.19588294968105,2025-11-15 16h03.54.035573 +0530,
,Objects\178a.jpg,153,0,154,,,,,j,None,,,1.6592006999999285,0.29669550000107847,,,,154,0,153,697.3684509000013,,,,,,,,,,,,,,,,,,,,,,,,,,,,,,697.3594946000012,697.3684509000013,697.8594129000048,,,,,,,,,,,,697.8774851000053,,,,,,,,,,,697.8748798000015,697.8774851000053,697.8774851000053,697.8774851000053,700.8687074000045,j,700.8688389000017,,,700.8688815999994,None,,,1.6592006999999285,0.29669550000107847,,,,,,,,,,,,,00026,001,2025-11-15_16h03.48.687,MST_task,2024.2.0,100.19588294968105,2025-11-15 16h03.54.035573 +0530,
,Scenes\022a.jpg,154,0,155,,,,,j,None,,,2.48492239999905,0.2402996000018902,,,,155,0,154,700.8780295000033,,,,,,,,,,,,,,,,,,,,,,,,,,,,,,700.869114400004,700.8780295000033,701.3693003000008,,,,,,,,,,,,701.3882462000038,,,,,,,,,,,701.3851246000049,701.3882462000038,701.3882462000038,701.3882462000038,704.3780837000013,j,704.381796600006,,,704.3818211000034,None,,,2.48492239999905,0.2402996000018902,,,,,,,,,,,,,00026,001,2025-11-15_16h03.48.687,MST_task,2024.2.0,100.19588294968105,2025-11-15 16h03.54.035573 +0530,
,Scenes\079a.jpg,155,0,156,,,,,j,None,,,0.8293550000016694,0.27246049999666866,,,,156,0,155,704.3874868000057,,,,,,,,,,,,,,,,,,,,,,,,,,,,,,704.3819720000029,704.3874868000057,704.8783978000065,,,,,,,,,,,,704.8993174000061,,,,,,,,,,,704.895525800006,704.8993174000061,704.8993174000061,704.8993174000061,707.8876816000047,j,707.887805600003,,,707.8878469000047,None,,,0.8293550000016694,0.27246049999666866,,,,,,,,,,,,,00026,001,2025-11-15_16h03.48.687,MST_task,2024.2.0,100.19588294968105,2025-11-15 16h03.54.035573 +0530,
,Scenes\076a.jpg,156,0,157,,,,,j,None,,,0.7038915000011912,0.2731117000002996,,,,157,0,156,707.8970749,,,,,,,,,,,,,,,,,,,,,,,,,,,,,,707.8881777999995,707.8970749,708.3882178999993,,,,,,,,,,,,708.4166036000024,,,,,,,,,,,708.4130914000052,708.4166036000024,708.4166036000024,708.4166036000024,711.3973859000034,j,711.3975105999998,,,711.3975513000041,None,,,0.7038915000011912,0.2731117000002996,,,,,,,,,,,,,00026,001,2025-11-15_16h03.48.687,MST_task,2024.2.0,100.19588294968105,2025-11-15 16h03.54.035573 +0530,
,Scenes\167a.jpg,157,0,158,,,,,f,None,,,1.7097102999978233,0.1913529000012204,,,,158,0,157,711.4068877000027,,,,,,,,,,,,,,,,,,,,,,,,,,,,,,711.3978572000051,711.4068877000027,711.8978697000057,,,,,,,,,,,,711.9233212000036,,,,,,,,,,,711.9196720000036,711.9233212000036,711.9233212000036,711.9233212000036,714.9070320000028,f,714.907272000004,,,714.9073164000001,None,,,1.7097102999978233,0.1913529000012204,,,,,,,,,,,,,00026,001,2025-11-15_16h03.48.687,MST_task,2024.2.0,100.19588294968105,2025-11-15 16h03.54.035573 +0530,
,Scenes\035a.jpg,158,0,159,,,,,f,None,,,1.3202017999938107,0.28828470000007655,,,,159,0,158,714.9164777000042,,,,,,,,,,,,,,,,,,,,,,,,,,,,,,714.9076981000035,714.9164777000042,715.4073840000055,,,,,,,,,,,,715.432641600004,,,,,,,,,,,715.4291716000007,715.432641600004,715.432641600004,715.432641600004,718.4166611000037,f,718.4168296999997,,,718.4169204999998,None,,,1.3202017999938107,0.28828470000007655,,,,,,,,,,,,,00026,001,2025-11-15_16h03.48.687,MST_task,2024.2.0,100.19588294968105,2025-11-15 16h03.54.035573 +0530,
,Scenes\176a.jpg,159,0,160,,,,,j,None,,,0.8916177999999491,0.2724422999963281,,,,160,0,159,718.426025700006,,,,,,,,,,,,,,,,,,,,,,,,,,,,,,718.4172294000018,718.426025700006,718.9167069000032,,,,,,,,,,,,718.9408746000045,,,,,,,,,,,718.9380934000001,718.9408746000045,718.9408746000045,718.9408746000045,721.9259263999993,j,721.9260152000061,,,721.9260423000014,None,,,0.8916177999999491,0.2724422999963281,,,,,,,,,,,,,00026,001,2025-11-15_16h03.48.687,MST_task,2024.2.0,100.19588294968105,2025-11-15 16h03.54.035573 +0530,
,Scenes\154a.jpg,160,0,161,,,,,j,None,,,1.6812552999981563,0.23164079999696696,,,,161,0,160,721.9353561000025,,,,,,,,,,,,,,,,,,,,,,,,,,,,,,721.9262025999997,721.9353561000025,722.4266736000063,,,,,,,,,,,,722.4476361000052,,,,,,,,,,,722.4443572000018,722.4476361000052,722.4476361000052,722.4476361000052,725.4355326000004,j,725.435661800002,,,725.4357047000012,None,,,1.6812552999981563,0.23164079999696696,,,,,,,,,,,,,00026,001,2025-11-15_16h03.48.687,MST_task,2024.2.0,100.19588294968105,2025-11-15 16h03.54.035573 +0530,
,Objects\148a.jpg,161,0,162,,,,,f,None,,,2.1644599999999627,0.192003800002567,,,,162,0,161,725.4451222000062,,,,,,,,,,,,,,,,,,,,,,,,,,,,,,725.4360318000035,725.4451222000062,725.9363636000053,,,,,,,,,,,,725.9563703000022,,,,,,,,,,,725.9531435000026,725.9563703000022,725.9563703000022,725.9563703000022,728.9452579999997,f,728.9507178000058,,,728.9507450000019,None,,,2.1644599999999627,0.192003800002567,,,,,,,,,,,,,00026,001,2025-11-15_16h03.48.687,MST_task,2024.2.0,100.19588294968105,2025-11-15 16h03.54.035573 +0530,
,Objects\050a.jpg,162,0,163,,,,,f,None,,,0.8417852999991737,0.24063470000692178,,,,163,0,162,728.9544196999996,,,,,,,,,,,,,,,,,,,,,,,,,,,,,,728.9508507000064,728.9544196999996,729.445916100005,,,,,,,,,,,,729.4626452000011,,,,,,,,,,,729.4600828000039,729.4626452000011,729.4626452000011,729.4626452000011,732.4545804000009,f,732.454705300006,,,732.4547406000056,None,,,0.8417852999991737,0.24063470000692178,,,,,,,,,,,,,00026,001,2025-11-15_16h03.48.687,MST_task,2024.2.0,100.19588294968105,2025-11-15 16h03.54.035573 +0530,
,Objects\146a.jpg,163,0,164,,,,,f,None,,,1.1623326000044472,0.24802949999866541,,,,164,0,163,732.4640648000059,,,,,,,,,,,,,,,,,,,,,,,,,,,,,,732.4549183000054,732.4640648000059,732.9551842000001,,,,,,,,,,,,732.9740345000027,,,,,,,,,,,732.9711859000017,732.9740345000027,732.9740345000027,732.9740345000027,735.9643499000013,f,735.9644920000064,,,735.9645743000001,None,,,1.1623326000044472,0.24802949999866541,,,,,,,,,,,,,00026,001,2025-11-15_16h03.48.687,MST_task,2024.2.0,100.19588294968105,2025-11-15 16h03.54.035573 +0530,
,Objects\122a.jpg,164,0,165,,,,,f,None,,,1.6941036999996868,0.16046279999864055,,,,165,0,164,735.9738165000017,,,,,,,,,,,,,,,,,,,,,,,,,,,,,,735.9648050000033,735.9738165000017,736.4646366000015,,,,,,,,,,,,736.4822199000046,,,,,,,,,,,736.4794929000054,736.4822199000046,736.4822199000046,736.4822199000046,739.4736714000028,f,739.4737867000003,,,739.4738238000064,None,,,1.6941036999996868,0.16046279999864055,,,,,,,,,,,,,00026,001,2025-11-15_16h03.48.687,MST_task,2024.2.0,100.19588294968105,2025-11-15 16h03.54.035573 +0530,
,Objects\180a.jpg,165,0,166,,,,,f,None,,,2.7863902999961283,0.16802720000123372,,,,166,0,165,739.4831975000052,,,,,,,,,,,,,,,,,,,,,,,,,,,,,,739.4740525000016,739.4831975000052,739.9744563999993,,,,,,,,,,,,739.9905333000061,,,,,,,,,,,739.9878989999997,739.9905333000061,739.9905333000061,739.9905333000061,742.9740773000012,f,742.9741825000019,,,742.9742140000017,None,,,2.7863902999961283,0.16802720000123372,742.9827714000057,742.9827714000057,742.9827714000057,,,,,,,,,,00026,001,2025-11-15_16h03.48.687,MST_task,2024.2.0,100.19588294968105,2025-11-15 16h03.54.035573 +0530,
,Objects\035a.jpg,166,0,167,,,,,f,None,,,0.7831631999943056,0.23908900000242284,,,,167,0,166,742.9827714000057,,,,,,,,,,,,,,,,,,,,,,,,,,,,,,742.9743931000048,742.9827714000057,743.4738152999998,,,,,,,,,,,,743.490234900004,,,,,,,,,,,743.4875804000039,743.490234900004,743.490234900004,743.490234900004,746.4736057000046,f,746.4737067000024,,,746.4737358000057,None,,,0.7831631999943056,0.23908900000242284,746.4822829000041,746.4822829000041,746.4822829000041,,,,,,,,,,00026,001,2025-11-15_16h03.48.687,MST_task,2024.2.0,100.19588294968105,2025-11-15 16h03.54.035573 +0530,
,Objects\059a.jpg,167,0,168,,,,,j,None,,,1.3376027999984217,0.2726172000038787,,,,168,0,167,746.4822829000041,,,,,,,,,,,,,,,,,,,,,,,,,,,,,,746.4739057000043,746.4822829000041,746.9732447999995,,,,,,,,,,,,746.9907955000017,,,,,,,,,,,746.9882275000055,746.9907955000017,746.9907955000017,746.9907955000017,749.9823981000009,j,749.9824571999998,,,749.982473600001,None,,,1.3376027999984217,0.2726172000038787,,,,,,,,,,,,,00026,001,2025-11-15_16h03.48.687,MST_task,2024.2.0,100.19588294968105,2025-11-15 16h03.54.035573 +0530,
,Scenes\041a.jpg,168,0,169,,,,,j,None,,,0.9304467999972985,0.1920931999993627,,,,169,0,168,749.991786000006,,,,,,,,,,,,,,,,,,,,,,,,,,,,,,749.9826188000006,749.991786000006,750.482719700005,,,,,,,,,,,,750.5103903000054,,,,,,,,,,,750.5070193000065,750.5103903000054,750.5103903000054,750.5103903000054,753.4919131000061,j,753.4959125000023,,,753.4959420000014,None,,,0.9304467999972985,0.1920931999993627,,,,,,,,,,,,,00026,001,2025-11-15_16h03.48.687,MST_task,2024.2.0,100.19588294968105,2025-11-15 16h03.54.035573 +0530,
,Scenes\050a.jpg,169,0,170,,,,,j,None,,,0.6111246000000392,0.2089616999946884,,,,170,0,169,753.5013433999993,,,,,,,,,,,,,,,,,,,,,,,,,,,,,,753.4960501000023,753.5013433999993,753.9926025000022,,,,,,,,,,,,754.0134268000038,,,,,,,,,,,754.0101160000049,754.0134268000038,754.0134268000038,754.0134268000038,757.0019635000062,j,757.0020880000011,,,757.0021272000013,None,,,0.6111246000000392,0.2089616999946884,,,,,,,,,,,,,00026,001,2025-11-15_16h03.48.687,MST_task,2024.2.0,100.19588294968105,2025-11-15 16h03.54.035573 +0530,
