thisN,thisTrialN,thisRepN,key_resp_3.keys,key_resp_3.rt,key_resp_3.duration,trials.thisRepN,trials.thisTrialN,trials.thisN,trials.thisIndex,thisRow.t,notes,intro_page.started,text.started,key_resp.started,intro_page.stopped,key_resp.keys,key_resp.rt,key_resp.duration,instructions.started,text_2.started,key_resp_2.started,instructions.stopped,key_resp_2.keys,key_resp_2.rt,key_resp_2.duration,demo1.started,image_1.started,image_2.started,text_7.started,key_resp_6.started,text_9.started,demo1.stopped,key_resp_6.keys,key_resp_6.rt,key_resp_6.duration,demo2.started,image_5.started,image_6.started,text_11.started,text_12.started,key_resp_8.started,demo2.stopped,key_resp_8.keys,key_resp_8.rt,key_resp_8.duration,demo_conclusion.started,text_13.started,key_resp_9.started,demo_conclusion.stopped,key_resp_9.keys,key_resp_9.rt,key_resp_9.duration,start_test.started,text_6.started,key_resp_5.started,start_test.stopped,key_resp_5.keys,key_resp_5.rt,key_resp_5.duration,ISI.started,text_4.started,text_4.stopped,ISI.stopped,routine_1.started,image.started,text_3.started,key_resp_3.started,routine_1.stopped,image_path,position_of_stimuli,trials.key_resp_3.keys,trials.key_resp_3.rt,trials.key_resp_3.duration,End_page.started,text_5.started,key_resp_4.started,End_page.stopped,key_resp_4.keys,key_resp_4.rt,key_resp_4.duration,participant,session,date,expName,psychopyVersion,frameRate,expStart,
,,,,,,,,,,,,0.013519599999199272,0.02991479999946023,0.02991479999946023,3.163177999999789,space,3.090414000000237,None,,,,,,,,,,,,,,,,,,,,,,,,,,,,,,,,,,,,,,,,,,,,,,,,,,,,,,,,,,,,,,,00024,001,2025-11-14_18h50.28.414,MST_test,2024.2.2,60.003912254853574,2025-11-14 18h50.34.029388 +0530,
,,,,,,,,,,,,,,,,,,,3.16321649999918,3.179816299999402,3.179816299999402,10.679957599999398,space,7.485586599999806,None,,,,,,,,,,,,,,,,,,,,,,,,,,,,,,,,,,,,,,,,,,,,,,,,,,,,,,,,00024,001,2025-11-14_18h50.28.414,MST_test,2024.2.2,60.003912254853574,2025-11-14 18h50.34.029388 +0530,
,,,,,,,,,,,,,,,,,,,,,,,,,,10.679978499999379,10.696340799999234,10.696340799999234,10.696340799999234,10.696340799999234,10.696340799999234,16.663153199999215,space,5.959011800000553,None,,,,,,,,,,,,,,,,,,,,,,,,,,,,,,,,,,,,,,,,,,,,,,00024,001,2025-11-14_18h50.28.414,MST_test,2024.2.2,60.003912254853574,2025-11-14 18h50.34.029388 +0530,
,,,,,,,,,,,,,,,,,,,,,,,,,,,,,,,,,,,,16.663178299999345,16.679550599999857,16.679550599999857,16.679550599999857,16.679550599999857,16.679550599999857,20.313134099999843,space,3.6297444000001633,None,,,,,,,,,,,,,,,,,,,,,,,,,,,,,,,,,,,,00024,001,2025-11-14_18h50.28.414,MST_test,2024.2.2,60.003912254853574,2025-11-14 18h50.34.029388 +0530,
,,,,,,,,,,,,,,,,,,,,,,,,,,,,,,,,,,,,,,,,,,,,,,20.313161999999465,20.32949589999953,20.32949589999953,200.69264979999934,space,180.34914639999988,None,,,,,,,,,,,,,,,,,,,,,,,,,,,,,00024,001,2025-11-14_18h50.28.414,MST_test,2024.2.2,60.003912254853574,2025-11-14 18h50.34.029388 +0530,
,,,,,,,,,,,,,,,,,,,,,,,,,,,,,,,,,,,,,,,,,,,,,,,,,,,,,200.69268419999935,200.70890999999938,200.70890999999938,214.12565749999976,space,13.410960500000328,None,,,,,,,,,,,,,,,,,,,,,,00024,001,2025-11-14_18h50.28.414,MST_test,2024.2.2,60.003912254853574,2025-11-14 18h50.34.029388 +0530,
0,0,0,o,3.0369643000003634,None,0,0,0,0,214.14196619999984,,,,,,,,,,,,,,,,,,,,,,,,,,,,,,,,,,,,,,,,,,,,,,,,,,214.12874379999994,214.14196619999984,214.65885499999968,214.62545839999984,214.6412711999992,214.65885499999968,214.65885499999968,214.65885499999968,217.70898719999968,Objects\007a.jpg,post,o,3.0369643000003634,None,,,,,,,,00024,001,2025-11-14_18h50.28.414,MST_test,2024.2.2,60.003912254853574,2025-11-14 18h50.34.029388 +0530,
1,0,1,o,3.0736732999994274,None,1,0,1,0,217.72520799999984,,,,,,,,,,,,,,,,,,,,,,,,,,,,,,,,,,,,,,,,,,,,,,,,,,217.70906849999938,217.72520799999984,218.24187879999954,218.20879100000002,218.22788109999965,218.24187879999954,218.24187879999954,218.24187879999954,221.32547499999964,Objects\083b.jpg,pre,o,3.0736732999994274,None,,,,,,,,00024,001,2025-11-14_18h50.28.414,MST_test,2024.2.2,60.003912254853574,2025-11-14 18h50.34.029388 +0530,
2,0,2,s,3.977537400000074,None,2,0,2,0,221.34180259999994,,,,,,,,,,,,,,,,,,,,,,,,,,,,,,,,,,,,,,,,,,,,,,,,,,221.3255666999994,221.34180259999994,221.85870459999933,221.82535539999935,221.8471671999996,221.85870459999933,221.85870459999933,221.85870459999933,225.84201099999973,Foils\scenes13.jpg,none,s,3.977537400000074,None,,,,,,,,00024,001,2025-11-14_18h50.28.414,MST_test,2024.2.2,60.003912254853574,2025-11-14 18h50.34.029388 +0530,
3,0,3,o,1.201288199999908,None,3,0,3,0,225.85833279999952,,,,,,,,,,,,,,,,,,,,,,,,,,,,,,,,,,,,,,,,,,,,,,,,,,225.8420956,225.85833279999952,226.35853849999967,226.34197359999962,226.35298369999964,226.35853849999967,226.35853849999967,226.35853849999967,227.57537669999965,Objects\072a.jpg,mid,o,1.201288199999908,None,,,,,,,,00024,001,2025-11-14_18h50.28.414,MST_test,2024.2.2,60.003912254853574,2025-11-14 18h50.34.029388 +0530,
4,0,4,o,0.8967969000004814,None,4,0,4,0,227.5916701999995,,,,,,,,,,,,,,,,,,,,,,,,,,,,,,,,,,,,,,,,,,,,,,,,,,227.57545149999987,227.5916701999995,228.12521879999986,228.07525649999934,228.1078394999995,228.12521879999986,228.12521879999986,228.12521879999986,229.0253684999998,Scenes\021b.jpg,pre,o,0.8967969000004814,None,,,,,,,,00024,001,2025-11-14_18h50.28.414,MST_test,2024.2.2,60.003912254853574,2025-11-14 18h50.34.029388 +0530,
5,0,5,o,0.8099012000002404,None,5,0,5,0,229.0416366999998,,,,,,,,,,,,,,,,,,,,,,,,,,,,,,,,,,,,,,,,,,,,,,,,,,229.02544279999984,229.0416366999998,229.55829599999925,229.52517909999915,229.5426112999994,229.55829599999925,229.55829599999925,229.55829599999925,230.3752187,Scenes\005a.jpg,mid,o,0.8099012000002404,None,,,,,,,,00024,001,2025-11-14_18h50.28.414,MST_test,2024.2.2,60.003912254853574,2025-11-14 18h50.34.029388 +0530,
6,0,6,o,0.9431024999994406,None,6,0,6,0,230.39160829999946,,,,,,,,,,,,,,,,,,,,,,,,,,,,,,,,,,,,,,,,,,,,,,,,,,230.37530219999917,230.39160829999946,230.90849489999982,230.8751569999995,230.8920810999998,230.90849489999982,230.90849489999982,230.90849489999982,231.8586009999999,Scenes\095a.jpg,mid,o,0.9431024999994406,None,,,,,,,,00024,001,2025-11-14_18h50.28.414,MST_test,2024.2.2,60.003912254853574,2025-11-14 18h50.34.029388 +0530,
7,0,7,o,0.7887055000001055,None,7,0,7,0,231.87487509999937,,,,,,,,,,,,,,,,,,,,,,,,,,,,,,,,,,,,,,,,,,,,,,,,,,231.85868039999968,231.87487509999937,232.3916978999996,232.35845589999917,232.37493689999974,232.3916978999996,232.3916978999996,232.3916978999996,233.1919169999992,Scenes\016a.jpg,mid,o,0.7887055000001055,None,,,,,,,,00024,001,2025-11-14_18h50.28.414,MST_test,2024.2.2,60.003912254853574,2025-11-14 18h50.34.029388 +0530,
8,0,8,s,3.385607600000185,None,8,0,8,0,233.2082118999997,,,,,,,,,,,,,,,,,,,,,,,,,,,,,,,,,,,,,,,,,,,,,,,,,,233.19199639999988,233.2082118999997,233.75846319999982,233.6918141999995,233.73946909999995,233.75846319999982,233.75846319999982,233.75846319999982,237.1585101999999,Objects\021b.jpg,pre,s,3.385607600000185,None,,,,,,,,00024,001,2025-11-14_18h50.28.414,MST_test,2024.2.2,60.003912254853574,2025-11-14 18h50.34.029388 +0530,
9,0,9,s,3.1865342999999484,None,9,0,9,0,237.17475529999956,,,,,,,,,,,,,,,,,,,,,,,,,,,,,,,,,,,,,,,,,,,,,,,,,,237.15859799999998,237.17475529999956,237.69141219999983,237.65838229999918,237.6753261999993,237.69141219999983,237.69141219999983,237.69141219999983,240.89173599999958,Scenes\131a.jpg,post,s,3.1865342999999484,None,,,,,,,,00024,001,2025-11-14_18h50.28.414,MST_test,2024.2.2,60.003912254853574,2025-11-14 18h50.34.029388 +0530,
10,0,10,o,1.1494772999994893,None,10,0,10,0,240.90807069999937,,,,,,,,,,,,,,,,,,,,,,,,,,,,,,,,,,,,,,,,,,,,,,,,,,240.89182059999985,240.90807069999937,241.40803899999992,241.39164359999995,241.40121719999934,241.40803899999992,241.40803899999992,241.40803899999992,242.55849379999927,Objects\067a.jpg,mid,o,1.1494772999994893,None,,,,,,,,00024,001,2025-11-14_18h50.28.414,MST_test,2024.2.2,60.003912254853574,2025-11-14 18h50.34.029388 +0530,
11,0,11,o,0.664943000000676,None,11,0,11,0,242.5746810999999,,,,,,,,,,,,,,,,,,,,,,,,,,,,,,,,,,,,,,,,,,,,,,,,,,242.55857549999928,242.5746810999999,243.07462659999965,243.05821919999926,243.0681928999993,243.07462659999965,243.07462659999965,243.07462659999965,243.7417575999998,Objects\115a.jpg,pre,o,0.664943000000676,None,,,,,,,,00024,001,2025-11-14_18h50.28.414,MST_test,2024.2.2,60.003912254853574,2025-11-14 18h50.34.029388 +0530,
12,0,12,s,4.312740599999415,None,12,0,12,0,243.7579898999993,,,,,,,,,,,,,,,,,,,,,,,,,,,,,,,,,,,,,,,,,,,,,,,,,,243.7418289999996,243.7579898999993,244.34161779999977,244.2414934999997,244.3151825999994,244.34161779999977,244.34161779999977,244.34161779999977,248.65829249999933,Foils\scenes15.jpg,none,s,4.312740599999415,None,,,,,,,,00024,001,2025-11-14_18h50.28.414,MST_test,2024.2.2,60.003912254853574,2025-11-14 18h50.34.029388 +0530,
13,0,13,o,4.930160300000352,None,13,0,13,0,248.67455509999945,,,,,,,,,,,,,,,,,,,,,,,,,,,,,,,,,,,,,,,,,,,,,,,,,,248.65837939999983,248.67455509999945,249.20811779999985,249.1581254999992,249.1946356999997,249.20811779999985,249.20811779999985,249.20811779999985,254.14142659999925,Scenes\025a.jpg,mid,o,4.930160300000352,None,,,,,,,,00024,001,2025-11-14_18h50.28.414,MST_test,2024.2.2,60.003912254853574,2025-11-14 18h50.34.029388 +0530,
14,0,14,o,0.8951741000000766,None,14,0,14,0,254.15776199999982,,,,,,,,,,,,,,,,,,,,,,,,,,,,,,,,,,,,,,,,,,,,,,,,,,254.14150449999943,254.15776199999982,254.67472419999922,254.64134469999954,254.66553049999948,254.67472419999922,254.67472419999922,254.67472419999922,255.57470739999917,Scenes\065a.jpg,pre,o,0.8951741000000766,None,,,,,,,,00024,001,2025-11-14_18h50.28.414,MST_test,2024.2.2,60.003912254853574,2025-11-14 18h50.34.029388 +0530,
15,0,15,o,0.8503555999996024,None,15,0,15,0,255.5910697999998,,,,,,,,,,,,,,,,,,,,,,,,,,,,,,,,,,,,,,,,,,,,,,,,,,255.57478229999924,255.5910697999998,256.10794049999913,256.0746554999996,256.09896839999965,256.10794049999913,256.10794049999913,256.10794049999913,256.9747164999999,Objects\185b.jpg,post,o,0.8503555999996024,None,,,,,,,,00024,001,2025-11-14_18h50.28.414,MST_test,2024.2.2,60.003912254853574,2025-11-14 18h50.34.029388 +0530,
16,0,16,o,1.5044895000000906,None,16,0,16,0,256.99103709999963,,,,,,,,,,,,,,,,,,,,,,,,,,,,,,,,,,,,,,,,,,,,,,,,,,256.9747932,256.99103709999963,257.5076509999999,257.47456339999917,257.4988098999993,257.5076509999999,257.5076509999999,257.5076509999999,259.02471439999954,Objects\013b.jpg,mid,o,1.5044895000000906,None,,,,,,,,00024,001,2025-11-14_18h50.28.414,MST_test,2024.2.2,60.003912254853574,2025-11-14 18h50.34.029388 +0530,
17,0,17,o,0.7584814000001643,None,17,0,17,0,259.04099789999964,,,,,,,,,,,,,,,,,,,,,,,,,,,,,,,,,,,,,,,,,,,,,,,,,,259.02478769999925,259.04099789999964,259.5576287999993,259.5245140999996,259.5400589999999,259.5576287999993,259.5576287999993,259.5576287999993,260.32473239999945,Objects\101a.jpg,pre,o,0.7584814000001643,None,,,,,,,,00024,001,2025-11-14_18h50.28.414,MST_test,2024.2.2,60.003912254853574,2025-11-14 18h50.34.029388 +0530,
18,0,18,o,0.6460235999993529,None,18,0,18,0,260.3410039999999,,,,,,,,,,,,,,,,,,,,,,,,,,,,,,,,,,,,,,,,,,,,,,,,,,260.3248188999996,260.3410039999999,260.85760429999937,260.82450979999976,260.8400002999997,260.85760429999937,260.85760429999937,260.85760429999937,261.5080137999994,Objects\099a.jpg,mid,o,0.6460235999993529,None,,,,,,,,00024,001,2025-11-14_18h50.28.414,MST_test,2024.2.2,60.003912254853574,2025-11-14 18h50.34.029388 +0530,
19,0,19,n,3.681643400000212,None,19,0,19,0,261.52423499999986,,,,,,,,,,,,,,,,,,,,,,,,,,,,,,,,,,,,,,,,,,,,,,,,,,261.50808809999944,261.52423499999986,262.0408826999992,262.00792229999934,262.03676279999945,262.0408826999992,262.0408826999992,262.0408826999992,265.7245047999995,Foils\106a.jpg,none,n,3.681643400000212,None,,,,,,,,00024,001,2025-11-14_18h50.28.414,MST_test,2024.2.2,60.003912254853574,2025-11-14 18h50.34.029388 +0530,
20,0,20,o,1.2662485000000743,None,20,0,20,0,265.7408502999997,,,,,,,,,,,,,,,,,,,,,,,,,,,,,,,,,,,,,,,,,,,,,,,,,,265.7245957999994,265.7408502999997,266.25773519999984,266.2242890999996,266.24506719999954,266.25773519999984,266.25773519999984,266.25773519999984,267.52457309999954,Scenes\177a.jpg,post,o,1.2662485000000743,None,,,,,,,,00024,001,2025-11-14_18h50.28.414,MST_test,2024.2.2,60.003912254853574,2025-11-14 18h50.34.029388 +0530,
21,0,21,o,0.8271102000007886,None,21,0,21,0,267.5408136999995,,,,,,,,,,,,,,,,,,,,,,,,,,,,,,,,,,,,,,,,,,,,,,,,,,267.5246453999998,267.5408136999995,268.0574364999993,268.0243455,268.0410112999998,268.0574364999993,268.0574364999993,268.0574364999993,268.89129349999985,Objects\036a.jpg,pre,o,0.8271102000007886,None,,,,,,,,00024,001,2025-11-14_18h50.28.414,MST_test,2024.2.2,60.003912254853574,2025-11-14 18h50.34.029388 +0530,
22,0,22,o,0.6907611999995424,None,22,0,22,0,268.9074891999999,,,,,,,,,,,,,,,,,,,,,,,,,,,,,,,,,,,,,,,,,,,,,,,,,,268.89138849999927,268.9074891999999,269.4407320999999,269.3909924999998,269.42081009999947,269.4407320999999,269.4407320999999,269.4407320999999,270.14110489999985,Objects\135b.jpg,pre,o,0.6907611999995424,None,,,,,,,,00024,001,2025-11-14_18h50.28.414,MST_test,2024.2.2,60.003912254853574,2025-11-14 18h50.34.029388 +0530,
23,0,23,o,0.8536354999996547,None,23,0,23,0,270.1574187999995,,,,,,,,,,,,,,,,,,,,,,,,,,,,,,,,,,,,,,,,,,,,,,,,,,270.14117889999943,270.1574187999995,270.69070439999996,270.64095109999926,270.6832291999999,270.69070439999996,270.69070439999996,270.69070439999996,271.5577854999992,Scenes\089b.jpg,pre,o,0.8536354999996547,None,,,,,,,,00024,001,2025-11-14_18h50.28.414,MST_test,2024.2.2,60.003912254853574,2025-11-14 18h50.34.029388 +0530,
24,0,24,o,0.7290192999998908,None,24,0,24,0,271.57404359999964,,,,,,,,,,,,,,,,,,,,,,,,,,,,,,,,,,,,,,,,,,,,,,,,,,271.5578644999996,271.57404359999964,272.09068019999995,272.05748929999936,272.07873559999916,272.09068019999995,272.09068019999995,272.09068019999995,272.8243526999995,Scenes\097b.jpg,mid,o,0.7290192999998908,None,,,,,,,,00024,001,2025-11-14_18h50.28.414,MST_test,2024.2.2,60.003912254853574,2025-11-14 18h50.34.029388 +0530,
25,0,25,o,0.6248783000000913,None,25,0,25,0,272.8406486999993,,,,,,,,,,,,,,,,,,,,,,,,,,,,,,,,,,,,,,,,,,,,,,,,,,272.824423,272.8406486999993,273.3573082999992,273.32414379999955,273.3388452999998,273.3573082999992,273.3573082999992,273.3573082999992,273.99093319999974,Objects\100a.jpg,mid,o,0.6248783000000913,None,,,,,,,,00024,001,2025-11-14_18h50.28.414,MST_test,2024.2.2,60.003912254853574,2025-11-14 18h50.34.029388 +0530,
26,0,26,o,0.6832647999999608,None,26,0,26,0,274.0073419999999,,,,,,,,,,,,,,,,,,,,,,,,,,,,,,,,,,,,,,,,,,,,,,,,,,273.9910018999999,274.0073419999999,274.54068859999916,274.49086739999984,274.5298488999997,274.54068859999916,274.54068859999916,274.54068859999916,275.2243161999995,Scenes\050b.jpg,post,o,0.6832647999999608,None,,,,,,,,00024,001,2025-11-14_18h50.28.414,MST_test,2024.2.2,60.003912254853574,2025-11-14 18h50.34.029388 +0530,
27,0,27,o,0.6761484999997265,None,27,0,27,0,275.2406040999995,,,,,,,,,,,,,,,,,,,,,,,,,,,,,,,,,,,,,,,,,,,,,,,,,,275.2243968999992,275.2406040999995,275.7572605999994,275.7241243999997,275.7415841999991,275.7572605999994,275.7572605999994,275.7572605999994,276.4408558999994,Objects\094a.jpg,pre,o,0.6761484999997265,None,,,,,,,,00024,001,2025-11-14_18h50.28.414,MST_test,2024.2.2,60.003912254853574,2025-11-14 18h50.34.029388 +0530,
28,0,28,o,0.6315131000001202,None,28,0,28,0,276.4572859,,,,,,,,,,,,,,,,,,,,,,,,,,,,,,,,,,,,,,,,,,,,,,,,,,276.44093299999986,276.4572859,276.9743248999994,276.9408552999994,276.95788019999964,276.9743248999994,276.9743248999994,276.9743248999994,277.6075351999998,Scenes\140a.jpg,post,o,0.6315131000001202,None,,,,,,,,00024,001,2025-11-14_18h50.28.414,MST_test,2024.2.2,60.003912254853574,2025-11-14 18h50.34.029388 +0530,
29,0,29,n,4.649083299999802,None,29,0,29,0,277.6239311999998,,,,,,,,,,,,,,,,,,,,,,,,,,,,,,,,,,,,,,,,,,,,,,,,,,277.6076054999994,277.6239311999998,278.14054769999984,278.1073959999994,278.1301561,278.14054769999984,278.14054769999984,278.14054769999984,282.7909383999995,Foils\002a.jpg,none,n,4.649083299999802,None,,,,,,,,00024,001,2025-11-14_18h50.28.414,MST_test,2024.2.2,60.003912254853574,2025-11-14 18h50.34.029388 +0530,
30,0,30,s,2.3664545000001453,None,30,0,30,0,282.80716609999945,,,,,,,,,,,,,,,,,,,,,,,,,,,,,,,,,,,,,,,,,,,,,,,,,,282.7910216999999,282.80716609999945,283.3573530999993,283.29060929999923,283.33984129999953,283.3573530999993,283.3573530999993,283.3573530999993,285.7243288999998,Scenes\034b.jpg,pre,s,2.3664545000001453,None,,,,,,,,00024,001,2025-11-14_18h50.28.414,MST_test,2024.2.2,60.003912254853574,2025-11-14 18h50.34.029388 +0530,
31,0,31,o,1.5332342000001518,None,31,0,31,0,285.7404219,,,,,,,,,,,,,,,,,,,,,,,,,,,,,,,,,,,,,,,,,,,,,,,,,,285.7244136999998,285.7404219,286.25703799999974,286.22404409999945,286.2410592999995,286.25703799999974,286.25703799999974,286.25703799999974,287.79075439999997,Objects\066a.jpg,mid,o,1.5332342000001518,None,,,,,,,,00024,001,2025-11-14_18h50.28.414,MST_test,2024.2.2,60.003912254853574,2025-11-14 18h50.34.029388 +0530,
32,0,32,s,2.9900069000004805,None,32,0,32,0,287.8070380999998,,,,,,,,,,,,,,,,,,,,,,,,,,,,,,,,,,,,,,,,,,,,,,,,,,287.79083699999956,287.8070380999998,288.3236558999997,288.29060749999917,288.3174363999997,288.3236558999997,288.3236558999997,288.3236558999997,291.3238953,Objects\068b.jpg,post,s,2.9900069000004805,None,,,,,,,,00024,001,2025-11-14_18h50.28.414,MST_test,2024.2.2,60.003912254853574,2025-11-14 18h50.34.029388 +0530,
33,0,33,s,2.058201000000736,None,33,0,33,0,291.34030079999957,,,,,,,,,,,,,,,,,,,,,,,,,,,,,,,,,,,,,,,,,,,,,,,,,,291.3239739999999,291.34030079999957,291.85695699999997,291.82376549999935,291.84305929999937,291.85695699999997,291.85695699999997,291.85695699999997,293.9238542999992,Objects\092b.jpg,mid,s,2.058201000000736,None,,,,,,,,00024,001,2025-11-14_18h50.28.414,MST_test,2024.2.2,60.003912254853574,2025-11-14 18h50.34.029388 +0530,
34,0,34,o,1.4411104000000705,None,34,0,34,0,293.9402416999992,,,,,,,,,,,,,,,,,,,,,,,,,,,,,,,,,,,,,,,,,,,,,,,,,,293.92393019999963,293.9402416999992,294.4739019999997,294.4237074999992,294.4661037999995,294.4739019999997,294.4739019999997,294.4739019999997,295.92378589999953,Scenes\170b.jpg,mid,o,1.4411104000000705,None,,,,,,,,00024,001,2025-11-14_18h50.28.414,MST_test,2024.2.2,60.003912254853574,2025-11-14 18h50.34.029388 +0530,
35,0,35,o,0.8151920999998765,None,35,0,35,0,295.9401963999999,,,,,,,,,,,,,,,,,,,,,,,,,,,,,,,,,,,,,,,,,,,,,,,,,,295.92386689999967,295.9401963999999,296.45684789999996,296.42377749999923,296.4396337999997,296.45684789999996,296.45684789999996,296.45684789999996,297.2737516999996,Objects\148a.jpg,post,o,0.8151920999998765,None,,,,,,,,00024,001,2025-11-14_18h50.28.414,MST_test,2024.2.2,60.003912254853574,2025-11-14 18h50.34.029388 +0530,
36,0,36,s,2.8719363000000158,None,36,0,36,0,297.29016579999916,,,,,,,,,,,,,,,,,,,,,,,,,,,,,,,,,,,,,,,,,,,,,,,,,,297.2738258999998,297.29016579999916,297.8237500999994,297.77375889999985,297.8146356999996,297.8237500999994,297.8237500999994,297.8237500999994,300.7070083999997,Scenes\035b.jpg,post,s,2.8719363000000158,None,,,,,,,,00024,001,2025-11-14_18h50.28.414,MST_test,2024.2.2,60.003912254853574,2025-11-14 18h50.34.029388 +0530,
37,0,37,s,0.9528644000001805,None,37,0,37,0,300.7234871999999,,,,,,,,,,,,,,,,,,,,,,,,,,,,,,,,,,,,,,,,,,,,,,,,,,300.7071025999994,300.7234871999999,301.25700379999944,301.2069079999992,301.24158179999995,301.25700379999944,301.25700379999944,301.25700379999944,302.2236865999994,Scenes\037b.jpg,pre,s,0.9528644000001805,None,,,,,,,,00024,001,2025-11-14_18h50.28.414,MST_test,2024.2.2,60.003912254853574,2025-11-14 18h50.34.029388 +0530,
38,0,38,o,0.9569033999996464,None,38,0,38,0,302.2400594999999,,,,,,,,,,,,,,,,,,,,,,,,,,,,,,,,,,,,,,,,,,,,,,,,,,302.22376799999984,302.2400594999999,302.75698809999994,302.7235290999997,302.7395766999998,302.75698809999994,302.75698809999994,302.75698809999994,303.7236230999997,Objects\037a.jpg,post,o,0.9569033999996464,None,,,,,,,,00024,001,2025-11-14_18h50.28.414,MST_test,2024.2.2,60.003912254853574,2025-11-14 18h50.34.029388 +0530,
39,0,39,o,1.1527839000000313,None,39,0,39,0,303.7400605999992,,,,,,,,,,,,,,,,,,,,,,,,,,,,,,,,,,,,,,,,,,,,,,,,,,303.7237020999992,303.7400605999992,304.27335569999923,304.2234850999994,304.25699129999975,304.27335569999923,304.27335569999923,304.27335569999923,305.44024699999954,Scenes\006b.jpg,post,o,1.1527839000000313,None,,,,,,,,00024,001,2025-11-14_18h50.28.414,MST_test,2024.2.2,60.003912254853574,2025-11-14 18h50.34.029388 +0530,
40,0,40,n,6.018511500000386,None,40,0,40,0,305.4566492999993,,,,,,,,,,,,,,,,,,,,,,,,,,,,,,,,,,,,,,,,,,,,,,,,,,305.4403235,305.4566492999993,305.9735250999993,305.94013429999995,305.961464,305.9735250999993,305.9735250999993,305.9735250999993,312.0067758999994,Foils\scenes5.jpg,none,n,6.018511500000386,None,,,,,,,,00024,001,2025-11-14_18h50.28.414,MST_test,2024.2.2,60.003912254853574,2025-11-14 18h50.34.029388 +0530,
41,0,41,n,1.6916157000005114,None,41,0,41,0,312.0232066999997,,,,,,,,,,,,,,,,,,,,,,,,,,,,,,,,,,,,,,,,,,,,,,,,,,312.0068653999997,312.0232066999997,312.5398083,312.50666939999974,312.5212045999997,312.5398083,312.5398083,312.5398083,314.24007319999964,Foils\scenes19.jpg,none,n,1.6916157000005114,None,,,,,,,,00024,001,2025-11-14_18h50.28.414,MST_test,2024.2.2,60.003912254853574,2025-11-14 18h50.34.029388 +0530,
42,0,42,s,3.8726575999999113,None,42,0,42,0,314.25647799999933,,,,,,,,,,,,,,,,,,,,,,,,,,,,,,,,,,,,,,,,,,,,,,,,,,314.24016309999934,314.25647799999933,314.77308019999964,314.73995639999976,314.7677062999992,314.77308019999964,314.77308019999964,314.77308019999964,318.65676489999987,Scenes\166b.jpg,mid,s,3.8726575999999113,None,,,,,,,,00024,001,2025-11-14_18h50.28.414,MST_test,2024.2.2,60.003912254853574,2025-11-14 18h50.34.029388 +0530,
43,0,43,s,0.6863737000003312,None,43,0,43,0,318.6730356999997,,,,,,,,,,,,,,,,,,,,,,,,,,,,,,,,,,,,,,,,,,,,,,,,,,318.65684969999984,318.6730356999997,319.17321809999976,319.15654279999944,319.1664788999997,319.17321809999976,319.17321809999976,319.17321809999976,319.8732814999994,Objects\090a.jpg,mid,s,0.6863737000003312,None,,,,,,,,00024,001,2025-11-14_18h50.28.414,MST_test,2024.2.2,60.003912254853574,2025-11-14 18h50.34.029388 +0530,
44,0,44,o,1.3168581999998423,None,44,0,44,0,319.8897305999999,,,,,,,,,,,,,,,,,,,,,,,,,,,,,,,,,,,,,,,,,,,,,,,,,,319.8733558999993,319.8897305999999,320.4230611999992,320.37315259999923,320.40611179999996,320.4230611999992,320.4230611999992,320.4230611999992,321.75653519999923,Objects\151b.jpg,post,o,1.3168581999998423,None,,,,,,,,00024,001,2025-11-14_18h50.28.414,MST_test,2024.2.2,60.003912254853574,2025-11-14 18h50.34.029388 +0530,
45,0,45,n,1.6036939999994502,None,45,0,45,0,321.7729784999992,,,,,,,,,,,,,,,,,,,,,,,,,,,,,,,,,,,,,,,,,,,,,,,,,,321.7566167999994,321.7729784999992,322.3067070999996,322.2564548999999,322.2884322,322.3067070999996,322.3067070999996,322.3067070999996,323.9231573999996,Foils\scenes4.jpg,none,n,1.6036939999994502,None,,,,,,,,00024,001,2025-11-14_18h50.28.414,MST_test,2024.2.2,60.003912254853574,2025-11-14 18h50.34.029388 +0530,
46,0,46,o,1.107793899999706,None,46,0,46,0,323.93958849999945,,,,,,,,,,,,,,,,,,,,,,,,,,,,,,,,,,,,,,,,,,,,,,,,,,323.9232473999991,323.93958849999945,324.4564563999993,324.4230723999999,324.44426569999996,324.4564563999993,324.4564563999993,324.4564563999993,325.5733178999999,Scenes\044a.jpg,pre,o,1.107793899999706,None,,,,,,,,00024,001,2025-11-14_18h50.28.414,MST_test,2024.2.2,60.003912254853574,2025-11-14 18h50.34.029388 +0530,
47,0,47,o,1.2741593999999168,None,47,0,47,0,325.5895610999996,,,,,,,,,,,,,,,,,,,,,,,,,,,,,,,,,,,,,,,,,,,,,,,,,,325.5733995999999,325.5895610999996,326.0895069999997,326.07301089999964,326.0825234999993,326.0895069999997,326.0895069999997,326.0895069999997,327.37316809999993,Objects\050a.jpg,post,o,1.2741593999999168,None,,,,,,,,00024,001,2025-11-14_18h50.28.414,MST_test,2024.2.2,60.003912254853574,2025-11-14 18h50.34.029388 +0530,
48,0,48,o,0.7512378999999783,None,48,0,48,0,327.3895106,,,,,,,,,,,,,,,,,,,,,,,,,,,,,,,,,,,,,,,,,,,,,,,,,,327.37325299999975,327.3895106,327.8894593999994,327.87311109999973,327.88298939999913,327.8894593999994,327.8894593999994,327.8894593999994,328.65643889999956,Objects\108a.jpg,post,o,0.7512378999999783,None,,,,,,,,00024,001,2025-11-14_18h50.28.414,MST_test,2024.2.2,60.003912254853574,2025-11-14 18h50.34.029388 +0530,
49,0,49,n,1.2155503000003591,None,49,0,49,0,328.67282839999916,,,,,,,,,,,,,,,,,,,,,,,,,,,,,,,,,,,,,,,,,,,,,,,,,,328.65651979999984,328.67282839999916,329.2896630999994,329.1562974999997,329.27116169999954,329.2896630999994,329.2896630999994,329.2896630999994,330.50640289999956,Foils\scenes25.jpg,none,n,1.2155503000003591,None,,,,,,,,00024,001,2025-11-14_18h50.28.414,MST_test,2024.2.2,60.003912254853574,2025-11-14 18h50.34.029388 +0530,
50,0,50,o,2.982242799999767,None,50,0,50,0,330.5227421999998,,,,,,,,,,,,,,,,,,,,,,,,,,,,,,,,,,,,,,,,,,,,,,,,,,330.50648939999974,330.5227421999998,331.03940649999913,331.0062623999993,331.03310369999963,331.03940649999913,331.03940649999913,331.03940649999913,334.02296619999925,Objects\028b.jpg,post,o,2.982242799999767,None,,,,,,,,00024,001,2025-11-14_18h50.28.414,MST_test,2024.2.2,60.003912254853574,2025-11-14 18h50.34.029388 +0530,
51,0,51,o,0.6135732000002463,None,51,0,51,0,334.03937789999964,,,,,,,,,,,,,,,,,,,,,,,,,,,,,,,,,,,,,,,,,,,,,,,,,,334.02304599999934,334.03937789999964,334.5559880999999,334.5228035,334.55198559999917,334.5559880999999,334.5559880999999,334.5559880999999,335.1730125999993,Objects\040b.jpg,mid,o,0.6135732000002463,None,,,,,,,,00024,001,2025-11-14_18h50.28.414,MST_test,2024.2.2,60.003912254853574,2025-11-14 18h50.34.029388 +0530,
52,0,52,o,1.1659980999993422,None,52,0,52,0,335.1893517999997,,,,,,,,,,,,,,,,,,,,,,,,,,,,,,,,,,,,,,,,,,,,,,,,,,335.17309659999955,335.1893517999997,335.70628919999945,335.672826,335.69167409999955,335.70628919999945,335.70628919999945,335.70628919999945,336.87295169999925,Scenes\101a.jpg,pre,o,1.1659980999993422,None,,,,,,,,00024,001,2025-11-14_18h50.28.414,MST_test,2024.2.2,60.003912254853574,2025-11-14 18h50.34.029388 +0530,
53,0,53,n,2.015719399999398,None,53,0,53,0,336.8893137999994,,,,,,,,,,,,,,,,,,,,,,,,,,,,,,,,,,,,,,,,,,,,,,,,,,336.87303319999955,336.8893137999994,337.40611179999996,337.37278979999974,337.4012518999998,337.40611179999996,337.40611179999996,337.40611179999996,339.42288709999957,Scenes\157b.jpg,mid,n,2.015719399999398,None,,,,,,,,00024,001,2025-11-14_18h50.28.414,MST_test,2024.2.2,60.003912254853574,2025-11-14 18h50.34.029388 +0530,
54,0,54,s,1.969753500000479,None,54,0,54,0,339.4392218999992,,,,,,,,,,,,,,,,,,,,,,,,,,,,,,,,,,,,,,,,,,,,,,,,,,339.4229680999997,339.4392218999992,339.97282599999926,339.9227254999996,339.95419049999964,339.97282599999926,339.97282599999926,339.97282599999926,341.95638879999933,Foils\scenes30.jpg,none,s,1.969753500000479,None,,,,,,,,00024,001,2025-11-14_18h50.28.414,MST_test,2024.2.2,60.003912254853574,2025-11-14 18h50.34.029388 +0530,
55,0,55,s,3.3383951000005254,None,55,0,55,0,341.97267289999945,,,,,,,,,,,,,,,,,,,,,,,,,,,,,,,,,,,,,,,,,,,,,,,,,,341.95646829999987,341.97267289999945,342.4895543999992,342.45601709999937,342.4831086999993,342.4895543999992,342.4895543999992,342.4895543999992,345.8393983999995,Objects\011b.jpg,mid,s,3.3383951000005254,None,,,,,,,,00024,001,2025-11-14_18h50.28.414,MST_test,2024.2.2,60.003912254853574,2025-11-14 18h50.34.029388 +0530,
56,0,56,n,4.111607300000287,None,56,0,56,0,345.8557461999999,,,,,,,,,,,,,,,,,,,,,,,,,,,,,,,,,,,,,,,,,,,,,,,,,,345.8394783999993,345.8557461999999,346.4061839999995,346.3392116999994,346.395305,346.4061839999995,346.4061839999995,346.4061839999995,350.52260599999954,Foils\scenes23.jpg,none,n,4.111607300000287,None,,,,,,,,00024,001,2025-11-14_18h50.28.414,MST_test,2024.2.2,60.003912254853574,2025-11-14 18h50.34.029388 +0530,
57,0,57,n,1.3169295999996393,None,57,0,57,0,350.5390170999999,,,,,,,,,,,,,,,,,,,,,,,,,,,,,,,,,,,,,,,,,,,,,,,,,,350.52269309999974,350.5390170999999,351.05590419999953,351.0224798999998,351.04377009999916,351.05590419999953,351.05590419999953,351.05590419999953,352.38928549999946,Foils\scenes20.jpg,none,n,1.3169295999996393,None,,,,,,,,00024,001,2025-11-14_18h50.28.414,MST_test,2024.2.2,60.003912254853574,2025-11-14 18h50.34.029388 +0530,
58,0,58,s,1.9020486999997956,None,58,0,58,0,352.40567439999995,,,,,,,,,,,,,,,,,,,,,,,,,,,,,,,,,,,,,,,,,,,,,,,,,,352.38936449999983,352.40567439999995,352.92231229999925,352.88917019999917,352.90868749999936,352.92231229999925,352.92231229999925,352.92231229999925,354.8393036999996,Foils\scenes6.jpg,none,s,1.9020486999997956,None,,,,,,,,00024,001,2025-11-14_18h50.28.414,MST_test,2024.2.2,60.003912254853574,2025-11-14 18h50.34.029388 +0530,
59,0,59,o,1.4150052999993932,None,59,0,59,0,354.85558669999955,,,,,,,,,,,,,,,,,,,,,,,,,,,,,,,,,,,,,,,,,,,,,,,,,,354.8393819999992,354.85558669999955,355.3891457,355.3392109999995,355.37619559999985,355.3891457,355.3891457,355.3891457,356.80585859999974,Scenes\060b.jpg,post,o,1.4150052999993932,None,,,,,,,,00024,001,2025-11-14_18h50.28.414,MST_test,2024.2.2,60.003912254853574,2025-11-14 18h50.34.029388 +0530,
60,0,60,n,1.788661300000058,None,60,0,60,0,356.82223389999945,,,,,,,,,,,,,,,,,,,,,,,,,,,,,,,,,,,,,,,,,,,,,,,,,,356.80593299999964,356.82223389999945,357.33916019999924,357.3056783999991,357.3279640999999,357.33916019999924,357.33916019999924,357.33916019999924,359.13907949999975,Foils\065a.jpg,none,n,1.788661300000058,None,,,,,,,,00024,001,2025-11-14_18h50.28.414,MST_test,2024.2.2,60.003912254853574,2025-11-14 18h50.34.029388 +0530,
61,0,61,n,1.678709499999968,None,61,0,61,0,359.1555019999996,,,,,,,,,,,,,,,,,,,,,,,,,,,,,,,,,,,,,,,,,,,,,,,,,,359.13916509999945,359.1555019999996,359.6888764999994,359.6389717999991,359.67640949999986,359.6888764999994,359.6888764999994,359.6888764999994,361.3724782999998,Foils\049a.jpg,none,n,1.678709499999968,None,,,,,,,,00024,001,2025-11-14_18h50.28.414,MST_test,2024.2.2,60.003912254853574,2025-11-14 18h50.34.029388 +0530,
62,0,62,n,2.1560655000002953,None,62,0,62,0,361.3888302999994,,,,,,,,,,,,,,,,,,,,,,,,,,,,,,,,,,,,,,,,,,,,,,,,,,361.3725683999992,361.3888302999994,361.90540729999975,361.8723801999995,361.89501799999925,361.90540729999975,361.90540729999975,361.90540729999975,364.07235429999946,Scenes\152b.jpg,pre,n,2.1560655000002953,None,,,,,,,,00024,001,2025-11-14_18h50.28.414,MST_test,2024.2.2,60.003912254853574,2025-11-14 18h50.34.029388 +0530,
63,0,63,o,1.6790529999998398,None,63,0,63,0,364.08868989999974,,,,,,,,,,,,,,,,,,,,,,,,,,,,,,,,,,,,,,,,,,,,,,,,,,364.07244829999945,364.08868989999974,364.60540879999917,364.5722756999994,364.5949858999993,364.60540879999917,364.60540879999917,364.60540879999917,366.2890435999998,Scenes\126a.jpg,mid,o,1.6790529999998398,None,,,,,,,,00024,001,2025-11-14_18h50.28.414,MST_test,2024.2.2,60.003912254853574,2025-11-14 18h50.34.029388 +0530,
64,0,64,o,1.285883399999875,None,64,0,64,0,366.3053253999997,,,,,,,,,,,,,,,,,,,,,,,,,,,,,,,,,,,,,,,,,,,,,,,,,,366.2891299999992,366.3053253999997,366.82196339999973,366.7888977999992,366.80472719999943,366.82196339999973,366.82196339999973,366.82196339999973,368.1223966999996,Objects\065a.jpg,pre,o,1.285883399999875,None,,,,,,,,00024,001,2025-11-14_18h50.28.414,MST_test,2024.2.2,60.003912254853574,2025-11-14 18h50.34.029388 +0530,
65,0,65,o,0.7256071000001612,None,65,0,65,0,368.1386331999993,,,,,,,,,,,,,,,,,,,,,,,,,,,,,,,,,,,,,,,,,,,,,,,,,,368.12247579999985,368.1386331999993,368.63858589999927,368.6221550999999,368.6321270999997,368.63858589999927,368.63858589999927,368.63858589999927,369.37221859999954,Objects\008a.jpg,post,o,0.7256071000001612,None,,,,,,,,00024,001,2025-11-14_18h50.28.414,MST_test,2024.2.2,60.003912254853574,2025-11-14 18h50.34.029388 +0530,
66,0,66,n,4.088328300000285,None,66,0,66,0,369.3886075999999,,,,,,,,,,,,,,,,,,,,,,,,,,,,,,,,,,,,,,,,,,,,,,,,,,369.3722997999994,369.3886075999999,369.9055151999992,369.87213689999953,369.8903815999993,369.9055151999992,369.9055151999992,369.9055151999992,374.00551149999956,Foils\scenes16.jpg,none,n,4.088328300000285,None,,,,,,,,00024,001,2025-11-14_18h50.28.414,MST_test,2024.2.2,60.003912254853574,2025-11-14 18h50.34.029388 +0530,
67,0,67,o,1.1080201000004308,None,67,0,67,0,374.02183029999924,,,,,,,,,,,,,,,,,,,,,,,,,,,,,,,,,,,,,,,,,,,,,,,,,,374.0055963999994,374.02183029999924,374.52185289999943,374.50531369999953,374.51540679999925,374.52185289999943,374.52185289999943,374.52185289999943,375.6387941999992,Objects\016a.jpg,post,o,1.1080201000004308,None,,,,,,,,00024,001,2025-11-14_18h50.28.414,MST_test,2024.2.2,60.003912254853574,2025-11-14 18h50.34.029388 +0530,
68,0,68,n,1.6704907000003004,None,68,0,68,0,375.6551288999999,,,,,,,,,,,,,,,,,,,,,,,,,,,,,,,,,,,,,,,,,,,,,,,,,,375.63886979999916,375.6551288999999,376.17178909999984,376.13865149999947,376.1640729999999,376.17178909999984,376.17178909999984,376.17178909999984,377.85545719999936,Foils\034a.jpg,none,n,1.6704907000003004,None,,,,,,,,00024,001,2025-11-14_18h50.28.414,MST_test,2024.2.2,60.003912254853574,2025-11-14 18h50.34.029388 +0530,
69,0,69,o,1.0668498999993972,None,69,0,69,0,377.87178289999974,,,,,,,,,,,,,,,,,,,,,,,,,,,,,,,,,,,,,,,,,,,,,,,,,,377.8555428999998,377.87178289999974,378.37170679999963,378.3554373999996,378.36552609999944,378.37170679999963,378.37170679999963,378.37170679999963,379.4388422999991,Objects\153a.jpg,pre,o,1.0668498999993972,None,,,,,,,,00024,001,2025-11-14_18h50.28.414,MST_test,2024.2.2,60.003912254853574,2025-11-14 18h50.34.029388 +0530,
70,0,70,o,1.525428599999941,None,70,0,70,0,379.45509779999975,,,,,,,,,,,,,,,,,,,,,,,,,,,,,,,,,,,,,,,,,,,,,,,,,,379.4389180999997,379.45509779999975,379.9888099,379.9386144,379.96974729999965,379.9888099,379.9888099,379.9888099,381.5219419999994,Scenes\076b.jpg,post,o,1.525428599999941,None,,,,,,,,00024,001,2025-11-14_18h50.28.414,MST_test,2024.2.2,60.003912254853574,2025-11-14 18h50.34.029388 +0530,
71,0,71,s,3.581259300000056,None,71,0,71,0,381.5383764999997,,,,,,,,,,,,,,,,,,,,,,,,,,,,,,,,,,,,,,,,,,,,,,,,,,381.52201869999953,381.5383764999997,382.05496819999917,382.0218634999992,382.0468744,382.05496819999917,382.05496819999917,382.05496819999917,385.63869929999964,Foils\050a.jpg,none,s,3.581259300000056,None,,,,,,,,00024,001,2025-11-14_18h50.28.414,MST_test,2024.2.2,60.003912254853574,2025-11-14 18h50.34.029388 +0530,
72,0,72,o,1.1797833999999057,None,72,0,72,0,385.65493069999957,,,,,,,,,,,,,,,,,,,,,,,,,,,,,,,,,,,,,,,,,,,,,,,,,,385.6387903999994,385.65493069999957,386.1882100999992,386.1384978999995,386.1803465999992,386.1882100999992,386.1882100999992,386.1882100999992,387.37195019999945,Scenes\012b.jpg,post,o,1.1797833999999057,None,,,,,,,,00024,001,2025-11-14_18h50.28.414,MST_test,2024.2.2,60.003912254853574,2025-11-14 18h50.34.029388 +0530,
73,0,73,s,4.983437500000036,None,73,0,73,0,387.38821259999986,,,,,,,,,,,,,,,,,,,,,,,,,,,,,,,,,,,,,,,,,,,,,,,,,,387.3720283999992,387.38821259999986,387.9047858999993,387.8717637999998,387.90104879999944,387.9047858999993,387.9047858999993,387.9047858999993,392.90499459999955,Foils\086a.jpg,none,s,4.983437500000036,None,,,,,,,,00024,001,2025-11-14_18h50.28.414,MST_test,2024.2.2,60.003912254853574,2025-11-14 18h50.34.029388 +0530,
74,0,74,o,1.1824328999991849,None,74,0,74,0,392.9214028999995,,,,,,,,,,,,,,,,,,,,,,,,,,,,,,,,,,,,,,,,,,,,,,,,,,392.90507289999914,392.9214028999995,393.4547215999992,393.4050178999996,393.4417294999994,393.4547215999992,393.4547215999992,393.4547215999992,394.6385199999995,Scenes\052b.jpg,post,o,1.1824328999991849,None,,,,,,,,00024,001,2025-11-14_18h50.28.414,MST_test,2024.2.2,60.003912254853574,2025-11-14 18h50.34.029388 +0530,
75,0,75,n,2.820719399999689,None,75,0,75,0,394.65473759999986,,,,,,,,,,,,,,,,,,,,,,,,,,,,,,,,,,,,,,,,,,,,,,,,,,394.63860359999944,394.65473759999986,395.17136759999994,395.13834359999964,395.16190149999966,395.17136759999994,395.17136759999994,395.17136759999994,398.00495259999934,Foils\101b.jpg,none,n,2.820719399999689,None,,,,,,,,00024,001,2025-11-14_18h50.28.414,MST_test,2024.2.2,60.003912254853574,2025-11-14 18h50.34.029388 +0530,
76,0,76,n,0.9535793999993984,None,76,0,76,0,398.0213389999999,,,,,,,,,,,,,,,,,,,,,,,,,,,,,,,,,,,,,,,,,,,,,,,,,,398.00503089999984,398.0213389999999,398.5546108999997,398.5048229999993,398.5348783999998,398.5546108999997,398.5546108999997,398.5546108999997,399.5216303999996,Foils\026a.jpg,none,n,0.9535793999993984,None,,,,,,,,00024,001,2025-11-14_18h50.28.414,MST_test,2024.2.2,60.003912254853574,2025-11-14 18h50.34.029388 +0530,
77,0,77,o,1.0010505000000194,None,77,0,77,0,399.53792499999963,,,,,,,,,,,,,,,,,,,,,,,,,,,,,,,,,,,,,,,,,,,,,,,,,,399.5217015999997,399.53792499999963,400.0546136999992,400.02144659999976,400.0466355999997,400.0546136999992,400.0546136999992,400.0546136999992,401.0715199999995,Objects\190b.jpg,mid,o,1.0010505000000194,None,,,,,,,,00024,001,2025-11-14_18h50.28.414,MST_test,2024.2.2,60.003912254853574,2025-11-14 18h50.34.029388 +0530,
78,0,78,s,4.9303333000007115,None,78,0,78,0,401.0879451999999,,,,,,,,,,,,,,,,,,,,,,,,,,,,,,,,,,,,,,,,,,,,,,,,,,401.0715965999998,401.0879451999999,401.62121489999936,401.5715118999997,401.61222239999915,401.62121489999936,401.62121489999936,401.62121489999936,406.55484909999996,Scenes\184b.jpg,mid,s,4.9303333000007115,None,,,,,,,,00024,001,2025-11-14_18h50.28.414,MST_test,2024.2.2,60.003912254853574,2025-11-14 18h50.34.029388 +0530,
79,0,79,o,3.2597703999999794,None,79,0,79,0,406.5711406999999,,,,,,,,,,,,,,,,,,,,,,,,,,,,,,,,,,,,,,,,,,,,,,,,,,406.5549295999999,406.5711406999999,407.0877578999998,407.0546325999994,407.0802028999997,407.0877578999998,407.0877578999998,407.0877578999998,410.35478629999943,Objects\026b.jpg,mid,o,3.2597703999999794,None,,,,,,,,00024,001,2025-11-14_18h50.28.414,MST_test,2024.2.2,60.003912254853574,2025-11-14 18h50.34.029388 +0530,
80,0,80,o,0.8624439000004713,None,80,0,80,0,410.3711910999991,,,,,,,,,,,,,,,,,,,,,,,,,,,,,,,,,,,,,,,,,,,,,,,,,,410.35486839999976,410.3711910999991,410.8873058999998,410.8545043999993,410.8842513999998,410.8873058999998,410.8873058999998,410.8873058999998,411.7546145999995,Objects\121b.jpg,pre,o,0.8624439000004713,None,,,,,,,,00024,001,2025-11-14_18h50.28.414,MST_test,2024.2.2,60.003912254853574,2025-11-14 18h50.34.029388 +0530,
81,0,81,o,3.885446999999658,None,81,0,81,0,411.77104019999933,,,,,,,,,,,,,,,,,,,,,,,,,,,,,,,,,,,,,,,,,,,,,,,,,,411.75469769999927,411.77104019999933,412.28764779999983,412.2544662999999,412.27045519999956,412.28764779999983,412.28764779999983,412.28764779999983,416.1879192999995,Scenes\162a.jpg,post,o,3.885446999999658,None,,,,,,,,00024,001,2025-11-14_18h50.28.414,MST_test,2024.2.2,60.003912254853574,2025-11-14 18h50.34.029388 +0530,
82,0,82,o,1.062920800000029,None,82,0,82,0,416.20425689999956,,,,,,,,,,,,,,,,,,,,,,,,,,,,,,,,,,,,,,,,,,,,,,,,,,416.1879977999997,416.20425689999956,416.7209235999999,416.68775919999916,416.7034174999999,416.7209235999999,416.7209235999999,416.7209235999999,417.78797959999974,Objects\018a.jpg,pre,o,1.062920800000029,None,,,,,,,,00024,001,2025-11-14_18h50.28.414,MST_test,2024.2.2,60.003912254853574,2025-11-14 18h50.34.029388 +0530,
83,0,83,o,2.2470490000005157,None,83,0,83,0,417.80423679999967,,,,,,,,,,,,,,,,,,,,,,,,,,,,,,,,,,,,,,,,,,,,,,,,,,417.7880706999995,417.80423679999967,418.3211044999998,418.28768709999986,418.30873099999917,418.3211044999998,418.3211044999998,418.3211044999998,420.5706,Scenes\013a.jpg,pre,o,2.2470490000005157,None,,,,,,,,00024,001,2025-11-14_18h50.28.414,MST_test,2024.2.2,60.003912254853574,2025-11-14 18h50.34.029388 +0530,
84,0,84,o,0.8387250000005224,None,84,0,84,0,420.58696919999966,,,,,,,,,,,,,,,,,,,,,,,,,,,,,,,,,,,,,,,,,,,,,,,,,,420.5706887999995,420.58696919999966,421.0869845999996,421.0704874999992,421.07783629999994,421.0869845999996,421.0869845999996,421.0869845999996,421.9374115999999,Objects\005a.jpg,pre,o,0.8387250000005224,None,,,,,,,,00024,001,2025-11-14_18h50.28.414,MST_test,2024.2.2,60.003912254853574,2025-11-14 18h50.34.029388 +0530,
85,0,85,o,0.8714604000006148,None,85,0,85,0,421.95361069999944,,,,,,,,,,,,,,,,,,,,,,,,,,,,,,,,,,,,,,,,,,,,,,,,,,421.93750179999915,421.95361069999944,422.47064019999925,422.4371922999999,422.46232579999923,422.47064019999925,422.47064019999925,422.47064019999925,423.3541387999994,Scenes\167a.jpg,mid,o,0.8714604000006148,None,,,,,,,,00024,001,2025-11-14_18h50.28.414,MST_test,2024.2.2,60.003912254853574,2025-11-14 18h50.34.029388 +0530,
86,0,86,o,0.7462537999999768,None,86,0,86,0,423.3704650999998,,,,,,,,,,,,,,,,,,,,,,,,,,,,,,,,,,,,,,,,,,,,,,,,,,423.3542205999993,423.3704650999998,423.88746999999967,423.85387339999943,423.8746341999995,423.88746999999967,423.88746999999967,423.88746999999967,424.63769609999963,Scenes\156a.jpg,pre,o,0.7462537999999768,None,,,,,,,,00024,001,2025-11-14_18h50.28.414,MST_test,2024.2.2,60.003912254853574,2025-11-14 18h50.34.029388 +0530,
87,0,87,o,0.6332340999997541,None,87,0,87,0,424.6540422999997,,,,,,,,,,,,,,,,,,,,,,,,,,,,,,,,,,,,,,,,,,,,,,,,,,424.6377758999997,424.6540422999997,425.15431609999996,425.1376131999996,425.14727389999916,425.15431609999996,425.15431609999996,425.15431609999996,425.7878381999999,Objects\105a.jpg,pre,o,0.6332340999997541,None,,,,,,,,00024,001,2025-11-14_18h50.28.414,MST_test,2024.2.2,60.003912254853574,2025-11-14 18h50.34.029388 +0530,
88,0,88,s,2.048655799999324,None,88,0,88,0,425.8041518,,,,,,,,,,,,,,,,,,,,,,,,,,,,,,,,,,,,,,,,,,,,,,,,,,425.7879254999998,425.8041518,426.33744079999997,426.28763059999983,426.3307152999996,426.33744079999997,426.33744079999997,426.33744079999997,428.38770769999974,Scenes\122b.jpg,mid,s,2.048655799999324,None,,,,,,,,00024,001,2025-11-14_18h50.28.414,MST_test,2024.2.2,60.003912254853574,2025-11-14 18h50.34.029388 +0530,
89,0,89,n,1.6870848000007754,None,89,0,89,0,428.40408819999993,,,,,,,,,,,,,,,,,,,,,,,,,,,,,,,,,,,,,,,,,,,,,,,,,,428.38779239999985,428.40408819999993,428.9206476999998,428.8876298999994,428.9121880999992,428.9206476999998,428.9206476999998,428.9206476999998,430.62161389999983,Foils\097a.jpg,none,n,1.6870848000007754,None,,,,,,,,00024,001,2025-11-14_18h50.28.414,MST_test,2024.2.2,60.003912254853574,2025-11-14 18h50.34.029388 +0530,
90,0,90,o,0.9241925000005722,None,90,0,90,0,430.63737629999923,,,,,,,,,,,,,,,,,,,,,,,,,,,,,,,,,,,,,,,,,,,,,,,,,,430.6216902999995,430.63737629999923,431.1540288999995,431.1208412999995,431.1396515999995,431.1540288999995,431.1540288999995,431.1540288999995,432.0877636999994,Scenes\141a.jpg,mid,o,0.9241925000005722,None,,,,,,,,00024,001,2025-11-14_18h50.28.414,MST_test,2024.2.2,60.003912254853574,2025-11-14 18h50.34.029388 +0530,
91,0,91,s,2.763131799999428,None,91,0,91,0,432.1040604,,,,,,,,,,,,,,,,,,,,,,,,,,,,,,,,,,,,,,,,,,,,,,,,,,432.0878452999996,432.1040604,432.62064309999914,432.58743739999954,432.6090921999994,432.62064309999914,432.62064309999914,432.62064309999914,435.3875217999994,Scenes\118a.jpg,mid,s,2.763131799999428,None,,,,,,,,00024,001,2025-11-14_18h50.28.414,MST_test,2024.2.2,60.003912254853574,2025-11-14 18h50.34.029388 +0530,
92,0,92,o,1.4778233999995791,None,92,0,92,0,435.40393549999953,,,,,,,,,,,,,,,,,,,,,,,,,,,,,,,,,,,,,,,,,,,,,,,,,,435.38760159999947,435.40393549999953,435.9206807999999,435.8874603999993,435.9101858999993,435.9206807999999,435.9206807999999,435.9206807999999,437.4041606999999,Scenes\077a.jpg,post,o,1.4778233999995791,None,,,,,,,,00024,001,2025-11-14_18h50.28.414,MST_test,2024.2.2,60.003912254853574,2025-11-14 18h50.34.029388 +0530,
93,0,93,o,1.0130533000001378,None,93,0,93,0,437.4205942999997,,,,,,,,,,,,,,,,,,,,,,,,,,,,,,,,,,,,,,,,,,,,,,,,,,437.40424229999917,437.4205942999997,437.93719059999967,437.90405999999984,437.9250899999997,437.93719059999967,437.93719059999967,437.93719059999967,438.95421539999916,Scenes\189a.jpg,mid,o,1.0130533000001378,None,,,,,,,,00024,001,2025-11-14_18h50.28.414,MST_test,2024.2.2,60.003912254853574,2025-11-14 18h50.34.029388 +0530,
94,0,94,o,0.7139236000002711,None,94,0,94,0,438.9705291999999,,,,,,,,,,,,,,,,,,,,,,,,,,,,,,,,,,,,,,,,,,,,,,,,,,438.95429479999984,438.9705291999999,439.4704845999995,439.4540395999993,439.4635757999995,439.4704845999995,439.4704845999995,439.4704845999995,440.1875027999995,Objects\164a.jpg,mid,o,0.7139236000002711,None,,,,,,,,00024,001,2025-11-14_18h50.28.414,MST_test,2024.2.2,60.003912254853574,2025-11-14 18h50.34.029388 +0530,
95,0,95,s,9.267935199999556,None,95,0,95,0,440.2038008999998,,,,,,,,,,,,,,,,,,,,,,,,,,,,,,,,,,,,,,,,,,,,,,,,,,440.1875852999992,440.2038008999998,440.75405409999985,440.68728629999987,440.74135209999986,440.75405409999985,440.75405409999985,440.75405409999985,450.03726969999934,Foils\scenes28.jpg,none,s,9.267935199999556,None,,,,,,,,00024,001,2025-11-14_18h50.28.414,MST_test,2024.2.2,60.003912254853574,2025-11-14 18h50.34.029388 +0530,
96,0,96,n,1.5018280999993294,None,96,0,96,0,450.0537203999993,,,,,,,,,,,,,,,,,,,,,,,,,,,,,,,,,,,,,,,,,,,,,,,,,,450.0373581999993,450.0537203999993,450.57048699999996,450.53707509999913,450.5627182999997,450.57048699999996,450.57048699999996,450.57048699999996,452.0871610999993,Foils\scenes29.jpg,none,n,1.5018280999993294,None,,,,,,,,00024,001,2025-11-14_18h50.28.414,MST_test,2024.2.2,60.003912254853574,2025-11-14 18h50.34.029388 +0530,
97,0,97,o,1.0860387000002447,None,97,0,97,0,452.1036160999993,,,,,,,,,,,,,,,,,,,,,,,,,,,,,,,,,,,,,,,,,,,,,,,,,,452.08723459999965,452.1036160999993,452.62044889999925,452.5870712999995,452.60309679999955,452.62044889999925,452.62044889999925,452.62044889999925,453.72054969999954,Objects\114a.jpg,post,o,1.0860387000002447,None,,,,,,,,00024,001,2025-11-14_18h50.28.414,MST_test,2024.2.2,60.003912254853574,2025-11-14 18h50.34.029388 +0530,
98,0,98,n,7.832351000000017,None,98,0,98,0,453.73691169999984,,,,,,,,,,,,,,,,,,,,,,,,,,,,,,,,,,,,,,,,,,,,,,,,,,453.7206226999997,453.73691169999984,454.30383749999964,454.2202940999996,454.2870017999994,454.30383749999964,454.30383749999964,454.30383749999964,462.1369444999991,Foils\scenes22.jpg,none,n,7.832351000000017,None,,,,,,,,00024,001,2025-11-14_18h50.28.414,MST_test,2024.2.2,60.003912254853574,2025-11-14 18h50.34.029388 +0530,
99,0,99,n,3.023653899999772,None,99,0,99,0,462.1533944999992,,,,,,,,,,,,,,,,,,,,,,,,,,,,,,,,,,,,,,,,,,,,,,,,,,462.13703599999917,462.1533944999992,462.68665919999967,462.6367892999997,462.67019939999955,462.68665919999967,462.68665919999967,462.68665919999967,465.7202679999991,Foils\058a.jpg,none,n,3.023653899999772,None,,,,,,,,00024,001,2025-11-14_18h50.28.414,MST_test,2024.2.2,60.003912254853574,2025-11-14 18h50.34.029388 +0530,
100,0,100,o,1.1210198999997374,None,100,0,100,0,465.73659249999946,,,,,,,,,,,,,,,,,,,,,,,,,,,,,,,,,,,,,,,,,,,,,,,,,,465.72035959999994,465.73659249999946,466.23657749999984,466.2201699999996,466.2319388999995,466.23657749999984,466.23657749999984,466.23657749999984,467.3702625999995,Objects\104a.jpg,post,o,1.1210198999997374,None,,,,,,,,00024,001,2025-11-14_18h50.28.414,MST_test,2024.2.2,60.003912254853574,2025-11-14 18h50.34.029388 +0530,
101,0,101,o,1.1480382999998255,None,101,0,101,0,467.3866001999995,,,,,,,,,,,,,,,,,,,,,,,,,,,,,,,,,,,,,,,,,,,,,,,,,,467.3703433999999,467.3866001999995,467.9201816999994,467.8701906999995,467.9068142999995,467.9201816999994,467.9201816999994,467.9201816999994,469.0702864999994,Scenes\137b.jpg,pre,o,1.1480382999998255,None,,,,,,,,00024,001,2025-11-14_18h50.28.414,MST_test,2024.2.2,60.003912254853574,2025-11-14 18h50.34.029388 +0530,
102,0,102,s,1.3753118000004179,None,102,0,102,0,469.08653999999933,,,,,,,,,,,,,,,,,,,,,,,,,,,,,,,,,,,,,,,,,,,,,,,,,,469.07037409999975,469.08653999999933,469.6031200999996,469.5699998,469.59831289999966,469.6031200999996,469.6031200999996,469.6031200999996,470.9868895999998,Scenes\113b.jpg,pre,s,1.3753118000004179,None,,,,,,,,00024,001,2025-11-14_18h50.28.414,MST_test,2024.2.2,60.003912254853574,2025-11-14 18h50.34.029388 +0530,
103,0,103,s,1.8879569999999148,None,103,0,103,0,471.00317089999953,,,,,,,,,,,,,,,,,,,,,,,,,,,,,,,,,,,,,,,,,,,,,,,,,,470.98696219999965,471.00317089999953,471.53647659999933,471.4867158999996,471.5302404999993,471.53647659999933,471.53647659999933,471.53647659999933,473.4368507999998,Scenes\165b.jpg,post,s,1.8879569999999148,None,,,,,,,,00024,001,2025-11-14_18h50.28.414,MST_test,2024.2.2,60.003912254853574,2025-11-14 18h50.34.029388 +0530,
104,0,104,o,1.7716383000006317,None,104,0,104,0,473.45309889999953,,,,,,,,,,,,,,,,,,,,,,,,,,,,,,,,,,,,,,,,,,,,,,,,,,473.43692269999974,473.45309889999953,473.9530804999995,473.93668249999973,473.9469670999997,473.9530804999995,473.9530804999995,473.9530804999995,475.7366829999992,Objects\162a.jpg,post,o,1.7716383000006317,None,,,,,,,,00024,001,2025-11-14_18h50.28.414,MST_test,2024.2.2,60.003912254853574,2025-11-14 18h50.34.029388 +0530,
105,0,105,o,2.1173001999995904,None,105,0,105,0,475.75305619999926,,,,,,,,,,,,,,,,,,,,,,,,,,,,,,,,,,,,,,,,,,,,,,,,,,475.7367646999992,475.75305619999926,476.2865998999996,476.2365261999994,476.28107889999956,476.2865998999996,476.2865998999996,476.2865998999996,478.4200157999994,Scenes\001b.jpg,post,o,2.1173001999995904,None,,,,,,,,00024,001,2025-11-14_18h50.28.414,MST_test,2024.2.2,60.003912254853574,2025-11-14 18h50.34.029388 +0530,
106,0,106,n,1.4522354999999152,None,106,0,106,0,478.4363418999992,,,,,,,,,,,,,,,,,,,,,,,,,,,,,,,,,,,,,,,,,,,,,,,,,,478.4200916,478.4363418999992,478.9696449999992,478.9198925999999,478.9509036999998,478.9696449999992,478.9696449999992,478.9696449999992,480.43663639999977,Foils\057a.jpg,none,n,1.4522354999999152,None,,,,,,,,00024,001,2025-11-14_18h50.28.414,MST_test,2024.2.2,60.003912254853574,2025-11-14 18h50.34.029388 +0530,
107,0,107,n,1.6179369999999835,None,107,0,107,0,480.4529944999995,,,,,,,,,,,,,,,,,,,,,,,,,,,,,,,,,,,,,,,,,,,,,,,,,,480.43671729999915,480.4529944999995,480.98652369999945,480.9365180999994,480.9742505999993,480.98652369999945,480.98652369999945,480.98652369999945,482.61986349999916,Scenes\080b.jpg,post,n,1.6179369999999835,None,,,,,,,,00024,001,2025-11-14_18h50.28.414,MST_test,2024.2.2,60.003912254853574,2025-11-14 18h50.34.029388 +0530,
108,0,108,o,0.9809141999994608,None,108,0,108,0,482.6361662999998,,,,,,,,,,,,,,,,,,,,,,,,,,,,,,,,,,,,,,,,,,,,,,,,,,482.61994419999974,482.6361662999998,483.15284619999966,483.11969059999956,483.1354457999996,483.15284619999966,483.15284619999966,483.15284619999966,484.1365019999994,Objects\058a.jpg,pre,o,0.9809141999994608,None,,,,,,,,00024,001,2025-11-14_18h50.28.414,MST_test,2024.2.2,60.003912254853574,2025-11-14 18h50.34.029388 +0530,
109,0,109,o,1.075027100000625,None,109,0,109,0,484.1527953999994,,,,,,,,,,,,,,,,,,,,,,,,,,,,,,,,,,,,,,,,,,,,,,,,,,484.1365737999995,484.1527953999994,484.6527845999999,484.6363532999994,484.64718209999955,484.6527845999999,484.6527845999999,484.6527845999999,485.7363917999992,Objects\126a.jpg,mid,o,1.075027100000625,None,,,,,,,,00024,001,2025-11-14_18h50.28.414,MST_test,2024.2.2,60.003912254853574,2025-11-14 18h50.34.029388 +0530,
110,0,110,o,0.7364668000000165,None,110,0,110,0,485.7527722999994,,,,,,,,,,,,,,,,,,,,,,,,,,,,,,,,,,,,,,,,,,,,,,,,,,485.73646929999995,485.7527722999994,486.26938879999943,486.2362246999992,486.2649858999994,486.26938879999943,486.26938879999943,486.26938879999943,487.01978829999916,Objects\059b.jpg,pre,o,0.7364668000000165,None,,,,,,,,00024,001,2025-11-14_18h50.28.414,MST_test,2024.2.2,60.003912254853574,2025-11-14 18h50.34.029388 +0530,
111,0,111,o,0.646873400000004,None,111,0,111,0,487.0360691999995,,,,,,,,,,,,,,,,,,,,,,,,,,,,,,,,,,,,,,,,,,,,,,,,,,487.0198606999993,487.0360691999995,487.5693696999997,487.5196038999993,487.5507626999997,487.5693696999997,487.5693696999997,487.5693696999997,488.2196879999992,Objects\129b.jpg,post,o,0.646873400000004,None,,,,,,,,00024,001,2025-11-14_18h50.28.414,MST_test,2024.2.2,60.003912254853574,2025-11-14 18h50.34.029388 +0530,
112,0,112,o,0.758980600000541,None,112,0,112,0,488.23604709999927,,,,,,,,,,,,,,,,,,,,,,,,,,,,,,,,,,,,,,,,,,,,,,,,,,488.2197626999996,488.23604709999927,488.7359957999997,488.7195662999993,488.7292063999994,488.7359957999997,488.7359957999997,488.7359957999997,489.5031033999994,Objects\089a.jpg,post,o,0.758980600000541,None,,,,,,,,00024,001,2025-11-14_18h50.28.414,MST_test,2024.2.2,60.003912254853574,2025-11-14 18h50.34.029388 +0530,
113,0,113,o,0.8369295000002239,None,113,0,113,0,489.51934659999915,,,,,,,,,,,,,,,,,,,,,,,,,,,,,,,,,,,,,,,,,,,,,,,,,,489.5031812999996,489.51934659999915,490.0528341999998,490.0028012999992,490.04584149999937,490.0528341999998,490.0528341999998,490.0528341999998,490.9029574999995,Scenes\038b.jpg,mid,o,0.8369295000002239,None,,,,,,,,00024,001,2025-11-14_18h50.28.414,MST_test,2024.2.2,60.003912254853574,2025-11-14 18h50.34.029388 +0530,
114,0,114,s,2.030076000000008,None,114,0,114,0,490.9193306999996,,,,,,,,,,,,,,,,,,,,,,,,,,,,,,,,,,,,,,,,,,,,,,,,,,490.9030297999998,490.9193306999996,491.4528333999997,491.40281459999915,491.4422904999992,491.4528333999997,491.4528333999997,491.4528333999997,493.48614649999945,Scenes\142b.jpg,mid,s,2.030076000000008,None,,,,,,,,00024,001,2025-11-14_18h50.28.414,MST_test,2024.2.2,60.003912254853574,2025-11-14 18h50.34.029388 +0530,
115,0,115,s,0.7383831999995891,None,115,0,115,0,493.5026064999993,,,,,,,,,,,,,,,,,,,,,,,,,,,,,,,,,,,,,,,,,,,,,,,,,,493.48622909999995,493.5026064999993,494.0194808999995,493.98619549999967,493.9995837999995,494.0194808999995,494.0194808999995,494.0194808999995,494.7695028999997,Scenes\096a.jpg,pre,s,0.7383831999995891,None,,,,,,,,00024,001,2025-11-14_18h50.28.414,MST_test,2024.2.2,60.003912254853574,2025-11-14 18h50.34.029388 +0530,
116,0,116,o,1.8515550000001895,None,116,0,116,0,494.78586599999926,,,,,,,,,,,,,,,,,,,,,,,,,,,,,,,,,,,,,,,,,,,,,,,,,,494.7695709999998,494.78586599999926,495.30252499999915,495.2694492999999,495.28565139999955,495.30252499999915,495.30252499999915,495.30252499999915,497.1696545999994,Objects\087a.jpg,post,o,1.8515550000001895,None,,,,,,,,00024,001,2025-11-14_18h50.28.414,MST_test,2024.2.2,60.003912254853574,2025-11-14 18h50.34.029388 +0530,
117,0,117,n,2.2437338999998246,None,117,0,117,0,497.1858180999998,,,,,,,,,,,,,,,,,,,,,,,,,,,,,,,,,,,,,,,,,,,,,,,,,,497.16973789999975,497.1858180999998,497.70251649999955,497.66942329999983,497.69227019999926,497.70251649999955,497.70251649999955,497.70251649999955,499.9527210999995,Foils\010a.jpg,none,n,2.2437338999998246,None,,,,,,,,00024,001,2025-11-14_18h50.28.414,MST_test,2024.2.2,60.003912254853574,2025-11-14 18h50.34.029388 +0530,
118,0,118,s,1.3452733999993143,None,118,0,118,0,499.96913029999996,,,,,,,,,,,,,,,,,,,,,,,,,,,,,,,,,,,,,,,,,,,,,,,,,,499.95280229999935,499.96913029999996,500.50260569999955,500.45269779999944,500.4876697999998,500.50260569999955,500.50260569999955,500.50260569999955,501.8529420999994,Scenes\110b.jpg,post,s,1.3452733999993143,None,,,,,,,,00024,001,2025-11-14_18h50.28.414,MST_test,2024.2.2,60.003912254853574,2025-11-14 18h50.34.029388 +0530,
119,0,119,s,1.2014534999998432,None,119,0,119,0,501.8690891999995,,,,,,,,,,,,,,,,,,,,,,,,,,,,,,,,,,,,,,,,,,,,,,,,,,501.853024,501.8690891999995,502.40261739999914,502.3526603,502.3907511999996,502.40261739999914,502.40261739999914,502.40261739999914,503.6194538,Scenes\109b.jpg,pre,s,1.2014534999998432,None,,,,,,,,00024,001,2025-11-14_18h50.28.414,MST_test,2024.2.2,60.003912254853574,2025-11-14 18h50.34.029388 +0530,
120,0,120,s,1.3456390000001193,None,120,0,120,0,503.6357226,,,,,,,,,,,,,,,,,,,,,,,,,,,,,,,,,,,,,,,,,,,,,,,,,,503.6195318,503.6357226,504.1525017999993,504.11917429999994,504.1449180999998,504.1525017999993,504.1525017999993,504.1525017999993,505.5027086,Scenes\088a.jpg,pre,s,1.3456390000001193,None,,,,,,,,00024,001,2025-11-14_18h50.28.414,MST_test,2024.2.2,60.003912254853574,2025-11-14 18h50.34.029388 +0530,
121,0,121,s,2.029465800000253,None,121,0,121,0,505.5190128999993,,,,,,,,,,,,,,,,,,,,,,,,,,,,,,,,,,,,,,,,,,,,,,,,,,505.5027857999994,505.5190128999993,506.05232499999966,506.0025206999999,506.04252129999986,506.05232499999966,506.05232499999966,506.05232499999966,508.0860933999993,Scenes\086b.jpg,post,s,2.029465800000253,None,,,,,,,,00024,001,2025-11-14_18h50.28.414,MST_test,2024.2.2,60.003912254853574,2025-11-14 18h50.34.029388 +0530,
122,0,122,o,2.488760899999761,None,122,0,122,0,508.1022547999992,,,,,,,,,,,,,,,,,,,,,,,,,,,,,,,,,,,,,,,,,,,,,,,,,,508.08617779999986,508.1022547999992,508.6189596999993,508.5858773,508.60743569999977,508.6189596999993,508.6189596999993,508.6189596999993,511.11923359999946,Scenes\054a.jpg,mid,o,2.488760899999761,None,,,,,,,,00024,001,2025-11-14_18h50.28.414,MST_test,2024.2.2,60.003912254853574,2025-11-14 18h50.34.029388 +0530,
123,0,123,o,1.1576634000002741,None,123,0,123,0,511.13556639999933,,,,,,,,,,,,,,,,,,,,,,,,,,,,,,,,,,,,,,,,,,,,,,,,,,511.1193126999997,511.13556639999933,511.6357847999998,511.6190085999997,511.6290356999998,511.6357847999998,511.6357847999998,511.6357847999998,512.8024353999999,Objects\047a.jpg,pre,o,1.1576634000002741,None,,,,,,,,00024,001,2025-11-14_18h50.28.414,MST_test,2024.2.2,60.003912254853574,2025-11-14 18h50.34.029388 +0530,
124,0,124,n,1.23468849999972,None,124,0,124,0,512.8188173999997,,,,,,,,,,,,,,,,,,,,,,,,,,,,,,,,,,,,,,,,,,,,,,,,,,512.8025074999996,512.8188173999997,513.3355223999997,513.3023336999995,513.3280263999995,513.3355223999997,513.3355223999997,513.3355223999997,514.5857803999997,Foils\098a.jpg,none,n,1.23468849999972,None,,,,,,,,00024,001,2025-11-14_18h50.28.414,MST_test,2024.2.2,60.003912254853574,2025-11-14 18h50.34.029388 +0530,
125,0,125,o,2.3738811000002897,None,125,0,125,0,514.6021489999994,,,,,,,,,,,,,,,,,,,,,,,,,,,,,,,,,,,,,,,,,,,,,,,,,,514.5858640999995,514.6021489999994,515.13562,515.0856409999997,515.1223821999993,515.13562,515.13562,515.13562,517.5189820999994,Scenes\017b.jpg,mid,o,2.3738811000002897,None,,,,,,,,00024,001,2025-11-14_18h50.28.414,MST_test,2024.2.2,60.003912254853574,2025-11-14 18h50.34.029388 +0530,
126,0,126,s,1.5898638999997274,None,126,0,126,0,517.5354871,,,,,,,,,,,,,,,,,,,,,,,,,,,,,,,,,,,,,,,,,,,,,,,,,,517.5190569999995,517.5354871,518.0520754999998,518.0189315999996,518.0461271999993,518.0520754999998,518.0520754999998,518.0520754999998,519.6522997999991,Objects\169b.jpg,mid,s,1.5898638999997274,None,,,,,,,,00024,001,2025-11-14_18h50.28.414,MST_test,2024.2.2,60.003912254853574,2025-11-14 18h50.34.029388 +0530,
127,0,127,s,4.524790800000119,None,127,0,127,0,519.6687108999995,,,,,,,,,,,,,,,,,,,,,,,,,,,,,,,,,,,,,,,,,,,,,,,,,,519.6523777999992,519.6687108999995,520.1853218999995,520.1522787999993,520.1720487999992,520.1853218999995,520.1853218999995,520.1853218999995,524.7188505999993,Objects\132b.jpg,pre,s,4.524790800000119,None,,,,,,,,00024,001,2025-11-14_18h50.28.414,MST_test,2024.2.2,60.003912254853574,2025-11-14 18h50.34.029388 +0530,
128,0,128,o,1.3305480999997599,None,128,0,128,0,524.7352549999996,,,,,,,,,,,,,,,,,,,,,,,,,,,,,,,,,,,,,,,,,,,,,,,,,,524.7189304999993,524.7352549999996,525.2352124999998,525.2187291,525.2284932999992,525.2352124999998,525.2352124999998,525.2352124999998,526.5688081999997,Objects\046a.jpg,post,o,1.3305480999997599,None,,,,,,,,00024,001,2025-11-14_18h50.28.414,MST_test,2024.2.2,60.003912254853574,2025-11-14 18h50.34.029388 +0530,
129,0,129,s,2.341443899999831,None,129,0,129,0,526.5852061999994,,,,,,,,,,,,,,,,,,,,,,,,,,,,,,,,,,,,,,,,,,,,,,,,,,526.5688784999993,526.5852061999994,527.1187379999992,527.0686762999994,527.1112696999999,527.1187379999992,527.1187379999992,527.1187379999992,529.4689530999995,Scenes\041b.jpg,post,s,2.341443899999831,None,,,,,,,,00024,001,2025-11-14_18h50.28.414,MST_test,2024.2.2,60.003912254853574,2025-11-14 18h50.34.029388 +0530,
130,0,130,o,1.6379596000006131,None,130,0,130,0,529.4851682999997,,,,,,,,,,,,,,,,,,,,,,,,,,,,,,,,,,,,,,,,,,,,,,,,,,529.4690484999992,529.4851682999997,530.0017837999994,529.9686384999995,529.9948969999996,530.0017837999994,530.0017837999994,530.0017837999994,531.6520745999997,Scenes\055b.jpg,pre,o,1.6379596000006131,None,,,,,,,,00024,001,2025-11-14_18h50.28.414,MST_test,2024.2.2,60.003912254853574,2025-11-14 18h50.34.029388 +0530,
131,0,131,o,3.6570433999995657,None,131,0,131,0,531.6684497999995,,,,,,,,,,,,,,,,,,,,,,,,,,,,,,,,,,,,,,,,,,,,,,,,,,531.6521633999992,531.6684497999995,532.1850633999993,532.1519343,532.1748013999995,532.1850633999993,532.1850633999993,532.1850633999993,535.8519391,Scenes\138b.jpg,pre,o,3.6570433999995657,None,,,,,,,,00024,001,2025-11-14_18h50.28.414,MST_test,2024.2.2,60.003912254853574,2025-11-14 18h50.34.029388 +0530,
132,0,132,s,2.1313411999999516,None,132,0,132,0,535.8684122999994,,,,,,,,,,,,,,,,,,,,,,,,,,,,,,,,,,,,,,,,,,,,,,,,,,535.8520182999991,535.8684122999994,536.3849775999997,536.3517874999998,536.3675286999996,536.3849775999997,536.3849775999997,536.3849775999997,538.5185904,Objects\082a.jpg,post,s,2.1313411999999516,None,,,,,,,,00024,001,2025-11-14_18h50.28.414,MST_test,2024.2.2,60.003912254853574,2025-11-14 18h50.34.029388 +0530,
133,0,133,o,1.6302634000003309,None,133,0,133,0,538.5349815,,,,,,,,,,,,,,,,,,,,,,,,,,,,,,,,,,,,,,,,,,,,,,,,,,538.5186674999995,538.5349815,539.0516281999999,539.0184898999996,539.0399899999993,539.0516281999999,539.0516281999999,539.0516281999999,540.6852832999994,Objects\155b.jpg,mid,o,1.6302634000003309,None,,,,,,,,00024,001,2025-11-14_18h50.28.414,MST_test,2024.2.2,60.003912254853574,2025-11-14 18h50.34.029388 +0530,
134,0,134,o,1.3035916999997426,None,134,0,134,0,540.7016082,,,,,,,,,,,,,,,,,,,,,,,,,,,,,,,,,,,,,,,,,,,,,,,,,,540.6853649999994,540.7016082,541.2181998999995,541.1850649999997,541.2119518,541.2181998999995,541.2181998999995,541.2181998999995,542.5351850999996,Objects\184b.jpg,pre,o,1.3035916999997426,None,,,,,,,,00024,001,2025-11-14_18h50.28.414,MST_test,2024.2.2,60.003912254853574,2025-11-14 18h50.34.029388 +0530,
135,0,135,n,1.196464399999968,None,135,0,135,0,542.5515422999997,,,,,,,,,,,,,,,,,,,,,,,,,,,,,,,,,,,,,,,,,,,,,,,,,,542.5352555999998,542.5515422999997,543.0849171,543.0350153999998,543.0658513999997,543.0849171,543.0849171,543.0849171,544.2851567999996,Foils\020b.jpg,none,n,1.196464399999968,None,,,,,,,,00024,001,2025-11-14_18h50.28.414,MST_test,2024.2.2,60.003912254853574,2025-11-14 18h50.34.029388 +0530,
136,0,136,s,1.3955448999995497,None,136,0,136,0,544.3015361999996,,,,,,,,,,,,,,,,,,,,,,,,,,,,,,,,,,,,,,,,,,,,,,,,,,544.2852372999996,544.3015361999996,544.8181264999994,544.7849942999992,544.8130783999995,544.8181264999994,544.8181264999994,544.8181264999994,546.2183988999996,Objects\044b.jpg,pre,s,1.3955448999995497,None,,,,,,,,00024,001,2025-11-14_18h50.28.414,MST_test,2024.2.2,60.003912254853574,2025-11-14 18h50.34.029388 +0530,
137,0,137,o,3.186772399999427,None,137,0,137,0,546.2347989999998,,,,,,,,,,,,,,,,,,,,,,,,,,,,,,,,,,,,,,,,,,,,,,,,,,546.2184751999994,546.2347989999998,546.7851027999995,546.7183599999998,546.7683175999991,546.7851027999995,546.7851027999995,546.7851027999995,549.9851609999996,Scenes\066b.jpg,pre,o,3.186772399999427,None,,,,,,,,00024,001,2025-11-14_18h50.28.414,MST_test,2024.2.2,60.003912254853574,2025-11-14 18h50.34.029388 +0530,
138,0,138,s,1.2333353000003626,None,138,0,138,0,550.0013882999992,,,,,,,,,,,,,,,,,,,,,,,,,,,,,,,,,,,,,,,,,,,,,,,,,,549.9852464999994,550.0013882999992,550.5180156999995,550.4849885999993,550.5097341999999,550.5180156999995,550.5180156999995,550.5180156999995,551.7517640999995,Objects\063b.jpg,post,s,1.2333353000003626,None,,,,,,,,00024,001,2025-11-14_18h50.28.414,MST_test,2024.2.2,60.003912254853574,2025-11-14 18h50.34.029388 +0530,
139,0,139,s,1.7738884000000326,None,139,0,139,0,551.7679844999993,,,,,,,,,,,,,,,,,,,,,,,,,,,,,,,,,,,,,,,,,,,,,,,,,,551.7518473999999,551.7679844999993,552.2846307,552.2516016999998,552.2782560999995,552.2846307,552.2846307,552.2846307,554.0682269999998,Foils\105a.jpg,none,s,1.7738884000000326,None,,,,,,,,00024,001,2025-11-14_18h50.28.414,MST_test,2024.2.2,60.003912254853574,2025-11-14 18h50.34.029388 +0530,
140,0,140,o,1.6079487000006338,None,140,0,140,0,554.0846583999992,,,,,,,,,,,,,,,,,,,,,,,,,,,,,,,,,,,,,,,,,,,,,,,,,,554.0683022999992,554.0846583999992,554.6015212999991,554.5681953999992,554.5890095999994,554.6015212999991,554.6015212999991,554.6015212999991,556.2181934999999,Scenes\183a.jpg,mid,o,1.6079487000006338,None,,,,,,,,00024,001,2025-11-14_18h50.28.414,MST_test,2024.2.2,60.003912254853574,2025-11-14 18h50.34.029388 +0530,
141,0,141,n,2.2645517999999356,None,141,0,141,0,556.2345808,,,,,,,,,,,,,,,,,,,,,,,,,,,,,,,,,,,,,,,,,,,,,,,,,,556.2182786999992,556.2345808,556.7678659999992,556.7180755999998,556.7578718999994,556.7678659999992,556.7678659999992,556.7678659999992,559.0348575999997,Scenes\159b.jpg,post,n,2.2645517999999356,None,,,,,,,,00024,001,2025-11-14_18h50.28.414,MST_test,2024.2.2,60.003912254853574,2025-11-14 18h50.34.029388 +0530,
142,0,142,s,2.587723100000403,None,142,0,142,0,559.0511892999994,,,,,,,,,,,,,,,,,,,,,,,,,,,,,,,,,,,,,,,,,,,,,,,,,,559.0349355999997,559.0511892999994,559.5678042,559.5346619999991,559.5557601999999,559.5678042,559.5678042,559.5678042,562.1680585999993,Objects\127b.jpg,mid,s,2.587723100000403,None,,,,,,,,00024,001,2025-11-14_18h50.28.414,MST_test,2024.2.2,60.003912254853574,2025-11-14 18h50.34.029388 +0530,
143,0,143,s,0.8466721000004327,None,143,0,143,0,562.1845352999999,,,,,,,,,,,,,,,,,,,,,,,,,,,,,,,,,,,,,,,,,,,,,,,,,,562.1681424999997,562.1845352999999,562.7011423999993,562.6680440999999,562.6845433999997,562.7011423999993,562.7011423999993,562.7011423999993,563.5514151999996,Objects\004a.jpg,pre,s,0.8466721000004327,None,,,,,,,,00024,001,2025-11-14_18h50.28.414,MST_test,2024.2.2,60.003912254853574,2025-11-14 18h50.34.029388 +0530,
144,0,144,s,2.114583199999288,None,144,0,144,0,563.5677588999997,,,,,,,,,,,,,,,,,,,,,,,,,,,,,,,,,,,,,,,,,,,,,,,,,,563.5514925999996,563.5677588999997,564.0844159999997,564.0512377999994,564.0723768999997,564.0844159999997,564.0844159999997,564.0844159999997,566.2013892999994,Scenes\128a.jpg,pre,s,2.114583199999288,None,,,,,,,,00024,001,2025-11-14_18h50.28.414,MST_test,2024.2.2,60.003912254853574,2025-11-14 18h50.34.029388 +0530,
145,0,145,n,3.9135550000000876,None,145,0,145,0,566.2176962999993,,,,,,,,,,,,,,,,,,,,,,,,,,,,,,,,,,,,,,,,,,,,,,,,,,566.2014798,566.2176962999993,566.7509873999998,566.7012085999995,566.7356662999991,566.7509873999998,566.7509873999998,566.7509873999998,570.6679740999998,Scenes\028b.jpg,pre,n,3.9135550000000876,None,,,,,,,,00024,001,2025-11-14_18h50.28.414,MST_test,2024.2.2,60.003912254853574,2025-11-14 18h50.34.029388 +0530,
146,0,146,o,1.416605200000049,None,146,0,146,0,570.6842723999998,,,,,,,,,,,,,,,,,,,,,,,,,,,,,,,,,,,,,,,,,,,,,,,,,,570.6680587999999,570.6842723999998,571.2008888999999,571.1677661999993,571.1967212999998,571.2008888999999,571.2008888999999,571.2008888999999,572.6179207999994,Objects\023b.jpg,mid,o,1.416605200000049,None,,,,,,,,00024,001,2025-11-14_18h50.28.414,MST_test,2024.2.2,60.003912254853574,2025-11-14 18h50.34.029388 +0530,
147,0,147,o,0.6854161000001113,None,147,0,147,0,572.6342200999998,,,,,,,,,,,,,,,,,,,,,,,,,,,,,,,,,,,,,,,,,,,,,,,,,,572.6180018999994,572.6342200999998,573.1508786999993,573.1177208999998,573.1335165999999,573.1508786999993,573.1508786999993,573.1508786999993,573.8512498,Objects\188a.jpg,mid,o,0.6854161000001113,None,,,,,,,,00024,001,2025-11-14_18h50.28.414,MST_test,2024.2.2,60.003912254853574,2025-11-14 18h50.34.029388 +0530,
148,0,148,s,2.8695063000004666,None,148,0,148,0,573.8675423999994,,,,,,,,,,,,,,,,,,,,,,,,,,,,,,,,,,,,,,,,,,,,,,,,,,573.8513260999998,573.8675423999994,574.3841548999999,574.3510053,574.3769024999992,574.3841548999999,574.3841548999999,574.3841548999999,577.2677057999999,Objects\054b.jpg,mid,s,2.8695063000004666,None,,,,,,,,00024,001,2025-11-14_18h50.28.414,MST_test,2024.2.2,60.003912254853574,2025-11-14 18h50.34.029388 +0530,
149,0,149,o,1.1496639000006326,None,149,0,149,0,577.2841312999999,,,,,,,,,,,,,,,,,,,,,,,,,,,,,,,,,,,,,,,,,,,,,,,,,,577.2677936,577.2841312999999,577.8007841999997,577.7676065999995,577.7870702,577.8007841999997,577.8007841999997,577.8007841999997,578.9510342999993,Scenes\173a.jpg,post,o,1.1496639000006326,None,,,,,,,,00024,001,2025-11-14_18h50.28.414,MST_test,2024.2.2,60.003912254853574,2025-11-14 18h50.34.029388 +0530,
,,,,,,,,,,,,,,,,,,,,,,,,,,,,,,,,,,,,,,,,,,,,,,,,,,,,,,,,,,,,,,,,,,,,,,,,,,578.9510935999997,578.9674548999992,578.9674548999992,580.4177867999997,space,1.4380672000006598,None,00024,001,2025-11-14_18h50.28.414,MST_test,2024.2.2,60.003912254853574,2025-11-14 18h50.34.029388 +0530,
