Sl_no,image_path,thisN,thisTrialN,thisRepN,key_resp_5.keys,key_resp_7.keys,key_resp_7.rt,key_resp_7.duration,key_resp_5.rt,key_resp_5.duration,key_resp_9.keys,key_resp_9.rt,key_resp_9.duration,key_resp_8.keys,key_resp_8.rt,key_resp_8.duration,practice.thisRepN,practice.thisTrialN,practice.thisN,trials.thisRepN,trials.thisTrialN,trials.thisN,thisRow.t,notes,welcome_page.started,text.started,key_resp.started,welcome_page.stopped,key_resp.keys,key_resp.rt,key_resp.duration,instructions.started,ins.started,key_resp_2.started,instructions.stopped,key_resp_2.keys,key_resp_2.rt,key_resp_2.duration,instructions_2.started,text_10.started,key_resp_10.started,instructions_2.stopped,key_resp_10.keys,key_resp_10.rt,key_resp_10.duration,objects_only_instruction.started,text_3.started,key_resp_3.started,objects_only_instruction.stopped,key_resp_3.keys,key_resp_3.rt,key_resp_3.duration,ISI.started,text_4.started,ISI.stopped,practice_block.started,image.started,text_5.started,key_resp_5.started,practice_block.stopped,practice.key_resp_5.keys,indoor_outdoor.started,text_7.started,key_resp_7.started,indoor_outdoor.stopped,practice.key_resp_7.keys,practice.key_resp_7.rt,practice.key_resp_7.duration,text_4.stopped,image.stopped,text_5.stopped,key_resp_5.stopped,practice.key_resp_5.rt,practice.key_resp_5.duration,practice_to_main.started,text_2.started,key_resp_4.started,practice_to_main.stopped,key_resp_4.keys,key_resp_4.rt,key_resp_4.duration,objects.started,image_2.started,text_9.started,key_resp_9.started,objects.stopped,trials.key_resp_9.keys,trials.key_resp_9.rt,trials.key_resp_9.duration,encoding_task.started,encoding_task.stopped,trials.key_resp_8.keys,image_2.stopped,text_9.stopped,key_resp_9.stopped,text_8.started,key_resp_8.started,trials.key_resp_8.rt,trials.key_resp_8.duration,end_experiment.started,text_6.started,key_resp_6.started,end_experiment.stopped,key_resp_6.keys,key_resp_6.rt,key_resp_6.duration,list_of_stimuli,encoding_task_accuracy,participant,session,date,expName,psychopyVersion,frameRate,expStart,
,,,,,,,,,,,,,,,,,,,,,,,,,0.0017068999986804556,0.003780699997150805,0.003780699997150805,46.3674632000002,space,46.34670790000018,None,,,,,,,,,,,,,,,,,,,,,,,,,,,,,,,,,,,,,,,,,,,,,,,,,,,,,,,,,,,,,,,,,,,,,,,,,,,,,,00029,001,2025-11-17_19h57.21.052,MST_task,2024.2.0,59.709905396295326,2025-11-17 19h57.29.112233 +0530,
,,,,,,,,,,,,,,,,,,,,,,,,,,,,,,,,46.36753419999877,46.38162639999791,46.38162639999791,70.47959429999901,space,24.08073250000234,None,,,,,,,,,,,,,,,,,,,,,,,,,,,,,,,,,,,,,,,,,,,,,,,,,,,,,,,,,,,,,,,,,,,,,,,00029,001,2025-11-17_19h57.21.052,MST_task,2024.2.0,59.709905396295326,2025-11-17 19h57.29.112233 +0530,
,,,,,,,,,,,,,,,,,,,,,,,,,,,,,,,,,,,,,,,70.47969739999826,70.49448130000019,70.49448130000019,110.44640269999945,space,39.93618179999976,None,,,,,,,,,,,,,,,,,,,,,,,,,,,,,,,,,,,,,,,,,,,,,,,,,,,,,,,,,,,,,,,,00029,001,2025-11-17_19h57.21.052,MST_task,2024.2.0,59.709905396295326,2025-11-17 19h57.29.112233 +0530,
,,,,,,,,,,,,,,,,,,,,,,,,,,,,,,,,,,,,,,,,,,,,,,110.44657839999854,110.46192379999775,110.46192379999775,125.5464796999986,space,15.072694899998169,None,,,,,,,,,,,,,,,,,,,,,,,,,,,,,,,,,,,,,,,,,,,,,,,,,,,,,,,,,00029,001,2025-11-17_19h57.21.052,MST_task,2024.2.0,59.709905396295326,2025-11-17 19h57.29.112233 +0530,
3,practice_images/037a.jpg,0,0,1,None,f,4.649474300000293,None,,,,,,,,,1,0,0,,,,125.5692887999976,,,,,,,,,,,,,,,,,,,,,,,,,,,,,,125.5665173999987,125.5692887999976,126.06139579999945,126.07846439999776,126.08968329999698,126.08968329999698,126.08968329999698,129.06160439999803,None,129.0671653999998,129.07734349999737,129.07734349999737,133.72966689999885,f,4.649474300000293,None,,,,,,,,,,,,,,,,,,,,,,,,,,,,,,,,,,,,,,,,,00029,001,2025-11-17_19h57.21.052,MST_task,2024.2.0,59.709905396295326,2025-11-17 19h57.29.112233 +0530,
2,practice_images/031a.jpg,1,1,1,None,f,1.1061584999988554,None,,,,,,,,,1,1,1,,,,133.7442450999988,,,,,,,,,,,,,,,,,,,,,,,,,,,,,,133.72998769999685,133.7442450999988,134.22852059999786,134.24226819999967,134.2447745999998,134.2447745999998,134.2447745999998,137.22902279999835,None,137.22915689999718,137.24442309999722,137.24442309999722,138.36322169999767,f,1.1061584999988554,None,134.2447745999998,137.24442309999722,137.24442309999722,137.24442309999722,,,,,,,,,,,,,,,,,,,,,,,,,,,,,,,,,,,,,00029,001,2025-11-17_19h57.21.052,MST_task,2024.2.0,59.709905396295326,2025-11-17 19h57.29.112233 +0530,
8,practice_images/178a.jpg,2,2,1,j,None,,,1.240010199999233,0.15199760000177776,,,,,,,1,2,2,,,,138.37773369999923,,,,,,,,,,,,,,,,,,,,,,,,,,,,,,138.36359230000016,138.37773369999923,138.862234799999,138.8755945999983,138.87812859999758,138.87812859999758,138.87812859999758,141.86286180000025,j,141.86303019999832,,,141.86309419999816,None,,,138.87812859999758,141.87773919999745,141.87773919999745,141.87773919999745,1.240010199999233,0.15199760000177776,,,,,,,,,,,,,,,,,,,,,,,,,,,,,,,,,,,00029,001,2025-11-17_19h57.21.052,MST_task,2024.2.0,59.709905396295326,2025-11-17 19h57.29.112233 +0530,
6,practice_images/158a.jpg,3,3,1,j,None,,,1.9006009999975504,0.11913389999972424,,,,,,,1,3,3,,,,141.87773919999745,,,,,,,,,,,,,,,,,,,,,,,,,,,,,,141.86343699999998,141.87773919999745,142.36257869999827,142.3766289999985,142.37904189999972,142.37904189999972,142.37904189999972,145.3625508999976,j,145.3627149999993,,,145.36278049999964,None,,,142.37904189999972,145.37771399999838,145.37771399999838,145.37771399999838,1.9006009999975504,0.11913389999972424,,,,,,,,,,,,,,,,,,,,,,,,,,,,,,,,,,,00029,001,2025-11-17_19h57.21.052,MST_task,2024.2.0,59.709905396295326,2025-11-17 19h57.29.112233 +0530,
4,practice_images/002b.jpg,4,4,1,f,None,,,2.3108484000003955,0.18461509999906411,,,,,,,1,4,4,,,,145.37771399999838,,,,,,,,,,,,,,,,,,,,,,,,,,,,,,145.3630646999991,145.37771399999838,145.8623697999974,145.8768358999987,145.87929719999738,145.87929719999738,145.87929719999738,148.87823619999836,f,148.87840399999914,,,148.878471,None,,,145.87929719999738,,,,2.3108484000003955,0.18461509999906411,,,,,,,,,,,,,,,,,,,,,,,,,,,,,,,,,,,00029,001,2025-11-17_19h57.21.052,MST_task,2024.2.0,59.709905396295326,2025-11-17 19h57.29.112233 +0530,
10,practice_images/182a.jpg,5,5,1,None,f,0.3882408999998006,None,,,,,,,,,1,5,5,,,,148.8942919000001,,,,,,,,,,,,,,,,,,,,,,,,,,,,,,148.8788115999996,148.8942919000001,149.3788225999997,149.3941926999978,149.39659709999978,149.39659709999978,149.39659709999978,152.39496149999832,None,152.40228609999758,152.41085269999894,152.41085269999894,152.81343419999757,f,0.3882408999998006,None,149.39659709999978,,,,,,,,,,,,,,,,,,,,,,,,,,,,,,,,,,,,,,,,00029,001,2025-11-17_19h57.21.052,MST_task,2024.2.0,59.709905396295326,2025-11-17 19h57.29.112233 +0530,
9,practice_images/180a.jpg,6,6,1,j,None,,,2.1178337999990617,0.15986039999916102,,,,,,,1,6,6,,,,152.8275216999973,,,,,,,,,,,,,,,,,,,,,,,,,,,,,,152.8137919999972,152.8275216999973,153.31246709999687,153.3264049999998,153.3288689999972,153.3288689999972,153.3288689999972,156.3126298999996,j,156.31276569999682,,,156.31281879999733,None,,,153.3288689999972,156.32762290000028,156.32762290000028,156.32762290000028,2.1178337999990617,0.15986039999916102,,,,,,,,,,,,,,,,,,,,,,,,,,,,,,,,,,,00029,001,2025-11-17_19h57.21.052,MST_task,2024.2.0,59.709905396295326,2025-11-17 19h57.29.112233 +0530,
5,practice_images/139a.jpg,7,7,1,None,j,2.193872600000759,None,,,,,,,,,1,7,7,,,,156.32762290000028,,,,,,,,,,,,,,,,,,,,,,,,,,,,,,156.31310119999762,156.32762290000028,156.8122074999992,156.82832849999977,156.8309838999994,156.8309838999994,156.8309838999994,159.82818769999722,None,159.82832140000028,159.84442849999687,159.84442849999687,162.04685260000042,j,2.193872600000759,None,156.8309838999994,,,,,,,,,,,,,,,,,,,,,,,,,,,,,,,,,,,,,,,,00029,001,2025-11-17_19h57.21.052,MST_task,2024.2.0,59.709905396295326,2025-11-17 19h57.29.112233 +0530,
7,practice_images/166a.jpg,8,8,1,j,None,,,1.947288399998797,0.12019750000035856,,,,,,,1,8,8,,,,162.06094609999855,,,,,,,,,,,,,,,,,,,,,,,,,,,,,,162.04713309999715,162.06094609999855,162.54540590000033,162.5609568999971,162.56323799999882,162.56323799999882,162.56323799999882,165.56159769999795,j,165.56174519999695,,,165.56180680000034,None,,,162.56323799999882,,,,1.947288399998797,0.12019750000035856,,,,,,,,,,,,,,,,,,,,,,,,,,,,,,,,,,,00029,001,2025-11-17_19h57.21.052,MST_task,2024.2.0,59.709905396295326,2025-11-17 19h57.29.112233 +0530,
1,practice_images/013a.jpg,9,9,1,j,None,,,1.4803991000007954,0.1602856999998039,,,,,,,1,9,9,,,,165.57763359999808,,,,,,,,,,,,,,,,,,,,,,,,,,,,,,165.56210089999877,165.57763359999808,166.06211149999945,166.07579479999913,166.07818899999984,166.07818899999984,166.07818899999984,169.06237939999846,j,169.06252920000043,,,169.06258319999688,None,,,166.07818899999984,169.07739020000008,169.07739020000008,169.07739020000008,1.4803991000007954,0.1602856999998039,,,,,,,,,,,,,,,,,,,,,,,,,,,,,,,,,,,00029,001,2025-11-17_19h57.21.052,MST_task,2024.2.0,59.709905396295326,2025-11-17 19h57.29.112233 +0530,
,,,,,,,,,,,,,,,,,,,,,,,,,,,,,,,,,,,,,,,,,,,,,,,,,,,,,,,,,,,,,,,,,,,,,,,,,,,169.06275370000003,169.07739020000008,169.07739020000008,253.4799404999976,space,84.40077200000087,None,,,,,,,,,,,,,,,,,,,,,,,,,,,,00029,001,2025-11-17_19h57.21.052,MST_task,2024.2.0,59.709905396295326,2025-11-17 19h57.29.112233 +0530,
,Objects\181a.jpg,0,0,1,,,,,,,j,2.3704061999997066,0.11171079999985523,None,,,,,,1,0,0,253.49415379999846,,,,,,,,,,,,,,,,,,,,,,,,,,,,,,253.4830383999979,253.49415379999846,253.97857440000007,,,,,,,,,,,,,,254.00438450000001,,,,,,,,,,,,,254.0006332999983,254.00438450000001,254.00438450000001,254.00438450000001,256.9951009999968,j,2.3704061999997066,0.11171079999985523,257.0047319999976,257.0047517999992,None,,,,,,,,,,,,,,,,,00029,001,2025-11-17_19h57.21.052,MST_task,2024.2.0,59.709905396295326,2025-11-17 19h57.29.112233 +0530,
,Objects\174a.jpg,1,0,2,,,,,,,f,2.5034416999988025,0.11207650000142166,None,,,,,,2,0,1,257.0108164999983,,,,,,,,,,,,,,,,,,,,,,,,,,,,,,257.00482249999914,257.0108164999983,257.4954953999986,,,,,,,,,,,,,,257.51121409999905,,,,,,,,,,,,,257.508572499999,257.51121409999905,257.51121409999905,257.51121409999905,260.49620539999887,f,2.5034416999988025,0.11207650000142166,260.49635769999804,260.49644499999704,None,260.5109749000003,260.5109749000003,260.5109749000003,,,,,,,,,,,,,,00029,001,2025-11-17_19h57.21.052,MST_task,2024.2.0,59.709905396295326,2025-11-17 19h57.29.112233 +0530,
,Objects\105a.jpg,2,0,3,,,,,,,f,1.2253876000031596,0.128225399999792,None,,,,,,3,0,2,260.5109749000003,,,,,,,,,,,,,,,,,,,,,,,,,,,,,,260.49678669999776,260.5109749000003,260.99523919999774,,,,,,,,,,,,,,261.0130857000004,,,,,,,,,,,,,261.0105765999979,261.0130857000004,261.0130857000004,261.0130857000004,264.01145469999756,f,1.2253876000031596,0.128225399999792,264.01162249999834,264.0116767999971,None,,,,,,,,,,,,,,,,,00029,001,2025-11-17_19h57.21.052,MST_task,2024.2.0,59.709905396295326,2025-11-17 19h57.29.112233 +0530,
,Objects\113a.jpg,3,0,4,,,,,,,f,2.4167751999993925,0.12817010000071605,None,,,,,,4,0,3,264.02753219999795,,,,,,,,,,,,,,,,,,,,,,,,,,,,,,264.0119309999973,264.02753219999795,264.51222049999706,,,,,,,,,,,,,,264.5338714999998,,,,,,,,,,,,,264.53124949999983,264.5338714999998,264.5338714999998,264.5338714999998,267.52808869999717,f,2.4167751999993925,0.12817010000071605,267.52828640000007,267.528354099999,None,,,,,,,,,,,,,,,,,00029,001,2025-11-17_19h57.21.052,MST_task,2024.2.0,59.709905396295326,2025-11-17 19h57.29.112233 +0530,
,Objects\162a.jpg,4,0,5,,,,,,,f,2.191827499998908,0.1761759000000893,None,,,,,,5,0,4,267.5445536999978,,,,,,,,,,,,,,,,,,,,,,,,,,,,,,267.5286524999974,267.5445536999978,268.0288639999999,,,,,,,,,,,,,,268.0465250999987,,,,,,,,,,,,,268.043927499999,268.0465250999987,268.0465250999987,268.0465250999987,271.04506489999767,f,2.191827499998908,0.1761759000000893,271.045252099997,271.04530650000015,None,,,,,,,,,,,,,,,,,00029,001,2025-11-17_19h57.21.052,MST_task,2024.2.0,59.709905396295326,2025-11-17 19h57.29.112233 +0530,
,Objects\111a.jpg,5,0,6,,,,,,,j,1.612904300000082,0.11237899999832734,None,,,,,,6,0,5,271.06099059999906,,,,,,,,,,,,,,,,,,,,,,,,,,,,,,271.0455817000002,271.06099059999906,271.5455888999968,,,,,,,,,,,,,,271.5612153000002,,,,,,,,,,,,,271.55774819999715,271.5612153000002,271.5612153000002,271.5612153000002,274.5463090999983,j,1.612904300000082,0.11237899999832734,274.5464837999971,274.5465425000002,None,274.5609689999983,274.5609689999983,274.5609689999983,,,,,,,,,,,,,,00029,001,2025-11-17_19h57.21.052,MST_task,2024.2.0,59.709905396295326,2025-11-17 19h57.29.112233 +0530,
,Objects\172a.jpg,6,0,7,,,,,,,j,2.0539269000000786,0.14310939999995753,None,,,,,,7,0,6,274.5609689999983,,,,,,,,,,,,,,,,,,,,,,,,,,,,,,274.5469689999991,274.5609689999983,275.04547749999983,,,,,,,,,,,,,,275.06531489999907,,,,,,,,,,,,,275.06225789999735,275.06531489999907,275.06531489999907,275.06531489999907,278.0618489999979,j,2.0539269000000786,0.14310939999995753,278.06201879999935,278.06207709999944,None,,,,,,,,,,,,,,,,,00029,001,2025-11-17_19h57.21.052,MST_task,2024.2.0,59.709905396295326,2025-11-17 19h57.29.112233 +0530,
,Scenes\124a.jpg,7,0,8,,,,,,,j,2.39365270000053,0.136659799998597,None,,,,,,8,0,7,278.0775117999983,,,,,,,,,,,,,,,,,,,,,,,,,,,,,,278.0625349000002,278.0775117999983,278.5621159000002,,,,,,,,,,,,,,278.58859719999964,,,,,,,,,,,,,278.58533869999883,278.58859719999964,278.58859719999964,278.58859719999964,281.57805929999813,j,2.39365270000053,0.136659799998597,281.58363029999964,281.5836688999989,None,,,,,,,,,,,,,,,,,00029,001,2025-11-17_19h57.21.052,MST_task,2024.2.0,59.709905396295326,2025-11-17 19h57.29.112233 +0530,
,Scenes\021a.jpg,8,0,9,,,,,,,j,2.127822799997375,0.13605470000038622,None,,,,,,9,0,8,281.5941513999969,,,,,,,,,,,,,,,,,,,,,,,,,,,,,,281.5838729999996,281.5941513999969,282.07864029999837,,,,,,,,,,,,,,282.1029983999979,,,,,,,,,,,,,282.099624399998,282.1029983999979,282.1029983999979,282.1029983999979,285.0951677999983,j,2.127822799997375,0.13605470000038622,285.09533999999985,285.09539740000037,None,,,,,,,,,,,,,,,,,00029,001,2025-11-17_19h57.21.052,MST_task,2024.2.0,59.709905396295326,2025-11-17 19h57.29.112233 +0530,
,Scenes\116a.jpg,9,0,10,,,,,,,j,1.2920102999996743,0.11081329999797163,None,,,,,,10,0,9,285.1112684999971,,,,,,,,,,,,,,,,,,,,,,,,,,,,,,285.09570339999846,285.1112684999971,285.5954858999976,,,,,,,,,,,,,,285.6116925999995,,,,,,,,,,,,,285.606992099998,285.6116925999995,285.6116925999995,285.6116925999995,288.5964219999987,j,1.2920102999996743,0.11081329999797163,288.59658579999814,288.596635599999,None,288.61098889999994,288.61098889999994,288.61098889999994,,,,,,,,,,,,,,00029,001,2025-11-17_19h57.21.052,MST_task,2024.2.0,59.709905396295326,2025-11-17 19h57.29.112233 +0530,
,Scenes\188a.jpg,10,0,11,,,,,,,j,2.1458726999990176,0.13589470000079018,None,,,,,,11,0,10,288.61098889999994,,,,,,,,,,,,,,,,,,,,,,,,,,,,,,288.5970650999989,288.61098889999994,289.0952756999977,,,,,,,,,,,,,,289.11691399999836,,,,,,,,,,,,,289.11378219999824,289.11691399999836,289.11691399999836,289.11691399999836,292.1118540999996,j,2.1458726999990176,0.13589470000079018,292.11202389999744,292.1120833999994,None,,,,,,,,,,,,,,,,,00029,001,2025-11-17_19h57.21.052,MST_task,2024.2.0,59.709905396295326,2025-11-17 19h57.29.112233 +0530,
,Scenes\117a.jpg,11,0,12,,,,,,,j,1.6607599999988452,0.09560979999878327,None,,,,,,12,0,11,292.12776329999906,,,,,,,,,,,,,,,,,,,,,,,,,,,,,,292.11239939999723,292.12776329999906,292.61217620000025,,,,,,,,,,,,,,292.6343528999969,,,,,,,,,,,,,292.6308809000002,292.6343528999969,292.6343528999969,292.6343528999969,295.62799259999883,j,1.6607599999988452,0.09560979999878327,295.62813879999885,295.6281889999991,None,,,,,,,,,,,,,,,,,00029,001,2025-11-17_19h57.21.052,MST_task,2024.2.0,59.709905396295326,2025-11-17 19h57.29.112233 +0530,
,Scenes\126a.jpg,12,0,13,,,,,,,j,1.8544425999971281,0.14399210000192397,None,,,,,,13,0,12,295.64436889999706,,,,,,,,,,,,,,,,,,,,,,,,,,,,,,295.6285785999971,295.64436889999706,296.1289672999992,,,,,,,,,,,,,,296.1525280999995,,,,,,,,,,,,,296.1490328999971,296.1525280999995,296.1525280999995,296.1525280999995,299.1451653000004,j,1.8544425999971281,0.14399210000192397,299.14533069999743,299.1453889000004,None,,,,,,,,,,,,,,,,,00029,001,2025-11-17_19h57.21.052,MST_task,2024.2.0,59.709905396295326,2025-11-17 19h57.29.112233 +0530,
,Scenes\031a.jpg,13,0,14,,,,,,,f,2.231289999999717,0.16012400000181515,None,,,,,,14,0,13,299.1611142999973,,,,,,,,,,,,,,,,,,,,,,,,,,,,,,299.1458132999978,299.1611142999973,299.6457143999978,,,,,,,,,,,,,,299.67136559999926,,,,,,,,,,,,,299.6682366999994,299.67136559999926,299.67136559999926,299.67136559999926,302.6617557999998,f,2.231289999999717,0.16012400000181515,302.66192169999704,302.66198129999975,None,,,,,,,,,,,,,,,,,00029,001,2025-11-17_19h57.21.052,MST_task,2024.2.0,59.709905396295326,2025-11-17 19h57.29.112233 +0530,
,Objects\173a.jpg,14,0,15,,,,,,,f,1.5829453000005742,0.15188579999812646,None,,,,,,15,0,14,302.6776235999969,,,,,,,,,,,,,,,,,,,,,,,,,,,,,,302.66243909999685,302.6776235999969,303.1623937000004,,,,,,,,,,,,,,303.1833530999975,,,,,,,,,,,,,303.18068709999716,303.1833530999975,303.1833530999975,303.1833530999975,306.17806740000015,f,1.5829453000005742,0.15188579999812646,306.18384589999914,306.18387729999813,None,,,,,,,,,,,,,,,,,00029,001,2025-11-17_19h57.21.052,MST_task,2024.2.0,59.709905396295326,2025-11-17 19h57.29.112233 +0530,
,Objects\008a.jpg,15,0,16,,,,,,,f,2.9566032999973686,None,None,,,,,,16,0,15,306.1940923000002,,,,,,,,,,,,,,,,,,,,,,,,,,,,,,306.18404290000035,306.1940923000002,306.67877899999803,,,,,,,,,,,,,,306.697788999998,,,,,,,,,,,,,306.69481109999833,306.697788999998,306.697788999998,306.697788999998,309.6949421999998,f,2.9566032999973686,None,309.6951661999992,309.69532999999865,None,,,,,,,,,,,,,,,,,00029,001,2025-11-17_19h57.21.052,MST_task,2024.2.0,59.709905396295326,2025-11-17 19h57.29.112233 +0530,
,Objects\066a.jpg,16,0,17,,,,,,,f,1.6006894999991346,0.03200240000296617,None,,,,,,17,0,16,309.7109939999973,,,,,,,,,,,,,,,,,,,,,,,,,,,,,,309.69579279999743,309.7109939999973,310.1957602000002,,,,,,,,,,,,,,310.21358619999955,,,,,,,,,,,,,310.21102020000035,310.21358619999955,310.21358619999955,310.21358619999955,313.21164489999865,f,1.6006894999991346,0.03200240000296617,313.2118131999996,313.2118711999974,None,,,,,,,,,,,,,,,,,00029,001,2025-11-17_19h57.21.052,MST_task,2024.2.0,59.709905396295326,2025-11-17 19h57.29.112233 +0530,
,Objects\102a.jpg,17,0,18,,,,,,,f,2.0845750000007683,0.12716049999653478,None,,,,,,18,0,17,313.22751349999817,,,,,,,,,,,,,,,,,,,,,,,,,,,,,,313.2121789999983,313.22751349999817,313.7121389999993,,,,,,,,,,,,,,313.73029159999714,,,,,,,,,,,,,313.72767979999844,313.73029159999714,313.73029159999714,313.73029159999714,316.72819759999766,f,2.0845750000007683,0.12716049999653478,316.7283740999992,316.7284316999976,None,,,,,,,,,,,,,,,,,00029,001,2025-11-17_19h57.21.052,MST_task,2024.2.0,59.709905396295326,2025-11-17 19h57.29.112233 +0530,
,Objects\056a.jpg,18,0,19,,,,,,,f,2.865042999997968,None,None,,,,,,19,0,18,316.74446890000036,,,,,,,,,,,,,,,,,,,,,,,,,,,,,,316.7287397,316.74446890000036,317.2287060999988,,,,,,,,,,,,,,317.24526779999724,,,,,,,,,,,,,317.2427878999988,317.24526779999724,317.24526779999724,317.24526779999724,320.22973069999716,f,2.865042999997968,None,320.22991529999854,320.22997289999694,None,320.2443182999996,320.2443182999996,320.2443182999996,,,,,,,,,,,,,,00029,001,2025-11-17_19h57.21.052,MST_task,2024.2.0,59.709905396295326,2025-11-17 19h57.29.112233 +0530,
,Objects\091a.jpg,19,0,20,,,,,,,j,1.1985404999977618,0.14334860000235494,None,,,,,,20,0,19,320.2443182999996,,,,,,,,,,,,,,,,,,,,,,,,,,,,,,320.23026919999757,320.2443182999996,320.7284035999983,,,,,,,,,,,,,,320.74454459999833,,,,,,,,,,,,,320.74157269999705,320.74454459999833,320.74454459999833,320.74454459999833,323.72958879999715,j,1.1985404999977618,0.14334860000235494,323.72976389999894,323.7298180999969,None,323.7444292,323.7444292,323.7444292,,,,,,,,,,,,,,00029,001,2025-11-17_19h57.21.052,MST_task,2024.2.0,59.709905396295326,2025-11-17 19h57.29.112233 +0530,
,Objects\013a.jpg,20,0,21,,,,,,,j,2.0401162000016484,0.1273698000004515,None,,,,,,21,0,20,323.7444292,,,,,,,,,,,,,,,,,,,,,,,,,,,,,,323.7302359999994,323.7444292,324.22869419999915,,,,,,,,,,,,,,324.2466210999992,,,,,,,,,,,,,324.2439792999976,324.2466210999992,324.2466210999992,324.2466210999992,327.2450370999977,j,2.0401162000016484,0.1273698000004515,327.24520459999985,327.2452641999989,None,,,,,,,,,,,,,,,,,00029,001,2025-11-17_19h57.21.052,MST_task,2024.2.0,59.709905396295326,2025-11-17 19h57.29.112233 +0530,
,Scenes\016a.jpg,21,0,22,,,,,,,j,1.20067840000047,0.12719339999966905,None,,,,,,22,0,21,327.2609668999976,,,,,,,,,,,,,,,,,,,,,,,,,,,,,,327.245565899997,327.2609668999976,327.74549449999904,,,,,,,,,,,,,,327.76621729999897,,,,,,,,,,,,,327.76317819999895,327.76621729999897,327.76621729999897,327.76621729999897,330.76158329999816,j,1.20067840000047,0.12719339999966905,330.76703429999907,330.76707629999873,None,,,,,,,,,,,,,,,,,00029,001,2025-11-17_19h57.21.052,MST_task,2024.2.0,59.709905396295326,2025-11-17 19h57.29.112233 +0530,
,Scenes\046a.jpg,22,0,23,,,,,,,j,1.2929103000024043,0.13602170000012848,None,,,,,,23,0,22,330.7774189999982,,,,,,,,,,,,,,,,,,,,,,,,,,,,,,330.76730250000037,330.7774189999982,331.26226289999977,,,,,,,,,,,,,,331.2895236999975,,,,,,,,,,,,,331.2863856999975,331.2895236999975,331.2895236999975,331.2895236999975,334.27813609999794,j,1.2929103000024043,0.13602170000012848,334.27830379999796,334.2783606999983,None,,,,,,,,,,,,,,,,,00029,001,2025-11-17_19h57.21.052,MST_task,2024.2.0,59.709905396295326,2025-11-17 19h57.29.112233 +0530,
,Scenes\174a.jpg,23,0,24,,,,,,,j,1.003329400002258,0.14401820000057342,None,,,,,,24,0,23,334.2943715000001,,,,,,,,,,,,,,,,,,,,,,,,,,,,,,334.2787822999999,334.2943715000001,334.7787234999996,,,,,,,,,,,,,,334.803361899998,,,,,,,,,,,,,334.80012050000005,334.803361899998,334.803361899998,334.803361899998,337.7950776999969,j,1.003329400002258,0.14401820000057342,337.7952446999989,337.7953024999988,None,,,,,,,,,,,,,,,,,00029,001,2025-11-17_19h57.21.052,MST_task,2024.2.0,59.709905396295326,2025-11-17 19h57.29.112233 +0530,
,Scenes\039a.jpg,24,0,25,,,,,,,j,1.2976655999991635,0.16799449999962235,None,,,,,,25,0,24,337.8111183999972,,,,,,,,,,,,,,,,,,,,,,,,,,,,,,337.7956094000001,337.8111183999972,338.295686999998,,,,,,,,,,,,,,338.3165767999999,,,,,,,,,,,,,338.3132326999985,338.3165767999999,338.3165767999999,338.3165767999999,341.31175789999907,j,1.2976655999991635,0.16799449999962235,341.31192720000035,341.31198559999757,None,,,,,,,,,,,,,,,,,00029,001,2025-11-17_19h57.21.052,MST_task,2024.2.0,59.709905396295326,2025-11-17 19h57.29.112233 +0530,
,Scenes\004a.jpg,25,0,26,,,,,,,j,1.2475487000010617,0.15935869999884744,None,,,,,,26,0,25,341.3277425999986,,,,,,,,,,,,,,,,,,,,,,,,,,,,,,341.31242029999703,341.3277425999986,341.81274499999927,,,,,,,,,,,,,,341.8394929999995,,,,,,,,,,,,,341.836076399999,341.8394929999995,341.8394929999995,341.8394929999995,344.8283835999973,j,1.2475487000010617,0.15935869999884744,344.82854999999836,344.82860900000014,None,,,,,,,,,,,,,,,,,00029,001,2025-11-17_19h57.21.052,MST_task,2024.2.0,59.709905396295326,2025-11-17 19h57.29.112233 +0530,
,Scenes\072a.jpg,26,0,27,,,,,,,j,1.2366658999999345,0.16773680000187596,None,,,,,,27,0,26,344.8445295999991,,,,,,,,,,,,,,,,,,,,,,,,,,,,,,344.8290382999985,344.8445295999991,345.32913389999885,,,,,,,,,,,,,,345.35368409999865,,,,,,,,,,,,,345.3504264000003,345.35368409999865,345.35368409999865,345.35368409999865,348.34510880000016,j,1.2366658999999345,0.16773680000187596,348.3452866999978,348.34534449999774,None,,,,,,,,,,,,,,,,,00029,001,2025-11-17_19h57.21.052,MST_task,2024.2.0,59.709905396295326,2025-11-17 19h57.29.112233 +0530,
,Scenes\079a.jpg,27,0,28,,,,,,,j,1.515579799997795,0.1281730000009702,None,,,,,,28,0,27,348.3611584999999,,,,,,,,,,,,,,,,,,,,,,,,,,,,,,348.34577290000016,348.3611584999999,348.84576729999753,,,,,,,,,,,,,,348.8668356999988,,,,,,,,,,,,,348.86349619999964,348.8668356999988,348.8668356999988,348.8668356999988,351.8617963999968,j,1.515579799997795,0.1281730000009702,351.86196369999743,351.8620235999988,None,,,,,,,,,,,,,,,,,00029,001,2025-11-17_19h57.21.052,MST_task,2024.2.0,59.709905396295326,2025-11-17 19h57.29.112233 +0530,
,Objects\001a.jpg,28,0,29,,,,,,,f,2.319751899998664,0.16006149999884656,None,,,,,,29,0,28,351.87768460000007,,,,,,,,,,,,,,,,,,,,,,,,,,,,,,351.86245209999834,351.87768460000007,352.3623050999995,,,,,,,,,,,,,,352.38282479999907,,,,,,,,,,,,,352.3793515999969,352.38282479999907,352.38282479999907,352.38282479999907,355.37832960000014,f,2.319751899998664,0.16006149999884656,355.38501319999705,355.38504479999756,None,,,,,,,,,,,,,,,,,00029,001,2025-11-17_19h57.21.052,MST_task,2024.2.0,59.709905396295326,2025-11-17 19h57.29.112233 +0530,
,Objects\071a.jpg,29,0,30,,,,,,,j,1.3984708999996656,0.14393750000090222,None,,,,,,30,0,29,355.39424059999874,,,,,,,,,,,,,,,,,,,,,,,,,,,,,,355.385171599999,355.39424059999874,355.8790783999975,,,,,,,,,,,,,,355.8959582999996,,,,,,,,,,,,,355.8931033999979,355.8959582999996,355.8959582999996,355.8959582999996,358.8950165999995,j,1.3984708999996656,0.14393750000090222,358.89516119999826,358.895208599999,None,,,,,,,,,,,,,,,,,00029,001,2025-11-17_19h57.21.052,MST_task,2024.2.0,59.709905396295326,2025-11-17 19h57.29.112233 +0530,
,Objects\024a.jpg,30,0,31,,,,,,,f,1.3017825000024459,0.20846639999945182,None,,,,,,31,0,30,358.9111277999982,,,,,,,,,,,,,,,,,,,,,,,,,,,,,,358.89556549999907,358.9111277999982,359.3956087999977,,,,,,,,,,,,,,359.4163735999973,,,,,,,,,,,,,359.41353949999757,359.4163735999973,359.4163735999973,359.4163735999973,362.4118536999995,f,1.3017825000024459,0.20846639999945182,362.4120691999997,362.41212859999723,None,,,,,,,,,,,,,,,,,00029,001,2025-11-17_19h57.21.052,MST_task,2024.2.0,59.709905396295326,2025-11-17 19h57.29.112233 +0530,
,Objects\068a.jpg,31,0,32,,,,,,,f,2.94869970000218,None,None,,,,,,32,0,31,362.42777939999723,,,,,,,,,,,,,,,,,,,,,,,,,,,,,,362.41255850000016,362.42777939999723,362.91231029999835,,,,,,,,,,,,,,362.9298409999974,,,,,,,,,,,,,362.92726029999903,362.9298409999974,362.9298409999974,362.9298409999974,365.9283723999979,f,2.94869970000218,None,365.9285450999996,365.92860289999953,None,,,,,,,,,,,,,,,,,00029,001,2025-11-17_19h57.21.052,MST_task,2024.2.0,59.709905396295326,2025-11-17 19h57.29.112233 +0530,
,Objects\125a.jpg,32,0,33,,,,,,,j,2.008249900001829,0.1682556999985536,None,,,,,,33,0,32,365.9444872999993,,,,,,,,,,,,,,,,,,,,,,,,,,,,,,365.92891529999906,365.9444872999993,366.42887699999847,,,,,,,,,,,,,,366.4463423999987,,,,,,,,,,,,,366.44354380000004,366.4463423999987,366.4463423999987,366.4463423999987,369.4452820999977,j,2.008249900001829,0.1682556999985536,369.4454662999997,369.445525799998,None,,,,,,,,,,,,,,,,,00029,001,2025-11-17_19h57.21.052,MST_task,2024.2.0,59.709905396295326,2025-11-17 19h57.29.112233 +0530,
,Objects\030a.jpg,33,0,34,,,,,,,f,1.9233929000001808,0.16814310000336263,None,,,,,,34,0,33,369.46092379999754,,,,,,,,,,,,,,,,,,,,,,,,,,,,,,369.44596829999864,369.46092379999754,369.945343899999,,,,,,,,,,,,,,369.9629113999981,,,,,,,,,,,,,369.96026699999857,369.9629113999981,369.9629113999981,369.9629113999981,372.96167429999696,f,1.9233929000001808,0.16814310000336263,372.96184189999985,372.9618996999998,None,,,,,,,,,,,,,,,,,00029,001,2025-11-17_19h57.21.052,MST_task,2024.2.0,59.709905396295326,2025-11-17 19h57.29.112233 +0530,
,Objects\011a.jpg,34,0,35,,,,,,,f,2.192398300001514,0.17605389999880572,None,,,,,,35,0,34,372.9774992999992,,,,,,,,,,,,,,,,,,,,,,,,,,,,,,372.9623260999979,372.9774992999992,373.4619332000002,,,,,,,,,,,,,,373.4776873999981,,,,,,,,,,,,,373.4693315000004,373.4776873999981,373.4776873999981,373.4776873999981,376.4631279999994,f,2.192398300001514,0.17605389999880572,376.4633004999996,376.4633560000002,None,376.47773159999997,376.47773159999997,376.47773159999997,,,,,,,,,,,,,,00029,001,2025-11-17_19h57.21.052,MST_task,2024.2.0,59.709905396295326,2025-11-17 19h57.29.112233 +0530,
,Scenes\026a.jpg,35,0,36,,,,,,,j,2.0967774000018835,0.14322549999997136,None,,,,,,36,0,35,376.47773159999997,,,,,,,,,,,,,,,,,,,,,,,,,,,,,,376.4636501999994,376.47773159999997,376.9619649999986,,,,,,,,,,,,,,376.99056559999735,,,,,,,,,,,,,376.9872875999972,376.99056559999735,376.99056559999735,376.99056559999735,379.97817609999765,j,2.0967774000018835,0.14322549999997136,379.9839452999986,379.98398369999995,None,,,,,,,,,,,,,,,,,00029,001,2025-11-17_19h57.21.052,MST_task,2024.2.0,59.709905396295326,2025-11-17 19h57.29.112233 +0530,
,Scenes\091a.jpg,36,0,37,,,,,,,j,1.0469037000002572,0.1362622000015108,None,,,,,,37,0,36,379.99445959999866,,,,,,,,,,,,,,,,,,,,,,,,,,,,,,379.984140499997,379.99445959999866,380.4788523999996,,,,,,,,,,,,,,380.4952689999991,,,,,,,,,,,,,380.4910392999991,380.4952689999991,380.4952689999991,380.4952689999991,383.4797643999991,j,1.0469037000002572,0.1362622000015108,383.4799488999997,383.4800056999993,None,383.4946377999986,383.4946377999986,383.4946377999986,,,,,,,,,,,,,,00029,001,2025-11-17_19h57.21.052,MST_task,2024.2.0,59.709905396295326,2025-11-17 19h57.29.112233 +0530,
,Scenes\153a.jpg,37,0,38,,,,,,,j,1.4728551000007428,0.14385029999903054,None,,,,,,38,0,37,383.4946377999986,,,,,,,,,,,,,,,,,,,,,,,,,,,,,,383.48043379999945,383.4946377999986,383.9788013999969,,,,,,,,,,,,,,383.9977112999986,,,,,,,,,,,,,383.99441789999764,383.9977112999986,383.9977112999986,383.9977112999986,386.994965599999,j,1.4728551000007428,0.14385029999903054,386.9951325000002,386.9951893999969,None,,,,,,,,,,,,,,,,,00029,001,2025-11-17_19h57.21.052,MST_task,2024.2.0,59.709905396295326,2025-11-17 19h57.29.112233 +0530,
,Scenes\027a.jpg,38,0,39,,,,,,,f,1.829926800000976,0.19160269999701995,None,,,,,,39,0,38,387.01126889999796,,,,,,,,,,,,,,,,,,,,,,,,,,,,,,386.9956123999982,387.01126889999796,387.49556089999896,,,,,,,,,,,,,,387.5206913999973,,,,,,,,,,,,,387.5175214999981,387.5206913999973,387.5206913999973,387.5206913999973,390.511807699997,f,1.829926800000976,0.19160269999701995,390.5119777,390.5120387999996,None,,,,,,,,,,,,,,,,,00029,001,2025-11-17_19h57.21.052,MST_task,2024.2.0,59.709905396295326,2025-11-17 19h57.29.112233 +0530,
,Scenes\150a.jpg,39,0,40,,,,,,,j,1.9219007000028796,0.14424159999907715,None,,,,,,40,0,39,390.5277328999982,,,,,,,,,,,,,,,,,,,,,,,,,,,,,,390.51234639999893,390.5277328999982,391.01212179999857,,,,,,,,,,,,,,391.0289350999992,,,,,,,,,,,,,391.0257311999994,391.0289350999992,391.0289350999992,391.0289350999992,394.01328139999896,j,1.9219007000028796,0.14424159999907715,394.0134644999998,394.01352359999873,None,394.0277339999993,394.0277339999993,394.0277339999993,,,,,,,,,,,,,,00029,001,2025-11-17_19h57.21.052,MST_task,2024.2.0,59.709905396295326,2025-11-17 19h57.29.112233 +0530,
,Scenes\183a.jpg,40,0,41,,,,,,,f,1.1711570999977994,0.21682720000171685,None,,,,,,41,0,40,394.0277339999993,,,,,,,,,,,,,,,,,,,,,,,,,,,,,,394.01396569999997,394.0277339999993,394.51229199999943,,,,,,,,,,,,,,394.5390245999988,,,,,,,,,,,,,394.53570369999943,394.5390245999988,394.5390245999988,394.5390245999988,397.52838879999763,f,1.1711570999977994,0.21682720000171685,397.52855629999976,397.5286156000002,None,,,,,,,,,,,,,,,,,00029,001,2025-11-17_19h57.21.052,MST_task,2024.2.0,59.709905396295326,2025-11-17 19h57.29.112233 +0530,
,Scenes\054a.jpg,41,0,42,,,,,,,j,1.6088506000014604,0.11215679999804706,None,,,,,,42,0,41,397.54453099999955,,,,,,,,,,,,,,,,,,,,,,,,,,,,,,397.52906919999805,397.54453099999955,398.02847009999823,,,,,,,,,,,,,,398.05336779999925,,,,,,,,,,,,,398.05060169999706,398.05336779999925,398.05336779999925,398.05336779999925,401.0448765000001,j,1.6088506000014604,0.11215679999804706,401.0450079999973,401.04505209999843,None,,,,,,,,,,,,,,,,,00029,001,2025-11-17_19h57.21.052,MST_task,2024.2.0,59.709905396295326,2025-11-17 19h57.29.112233 +0530,
,Objects\123a.jpg,42,0,43,,,,,,,j,2.4730796000003465,0.12717909999992116,None,,,,,,43,0,42,401.06095639999694,,,,,,,,,,,,,,,,,,,,,,,,,,,,,,401.04539060000025,401.06095639999694,401.5453500000003,,,,,,,,,,,,,,401.56585939999786,,,,,,,,,,,,,401.5626020999989,401.56585939999786,401.56585939999786,401.56585939999786,404.56124459999774,j,2.4730796000003465,0.12717909999992116,404.5644123999991,404.56444199999896,None,,,,,,,,,,,,,,,,,00029,001,2025-11-17_19h57.21.052,MST_task,2024.2.0,59.709905396295326,2025-11-17 19h57.29.112233 +0530,
,Objects\002a.jpg,43,0,44,,,,,,,f,1.5560589999986405,0.14386020000165445,None,,,,,,44,0,43,404.577449299999,,,,,,,,,,,,,,,,,,,,,,,,,,,,,,404.5645616999973,404.577449299999,405.06217019999895,,,,,,,,,,,,,,405.0822649999973,,,,,,,,,,,,,405.0792427999986,405.0822649999973,405.0822649999973,405.0822649999973,408.07818909999696,f,1.5560589999986405,0.14386020000165445,408.07851089999895,408.0786148999978,None,,,,,,,,,,,,,,,,,00029,001,2025-11-17_19h57.21.052,MST_task,2024.2.0,59.709905396295326,2025-11-17 19h57.29.112233 +0530,
,Objects\022a.jpg,44,0,45,,,,,,,f,1.258980700000393,0.16730819999793312,None,,,,,,45,0,44,408.0943264999987,,,,,,,,,,,,,,,,,,,,,,,,,,,,,,408.07906509999884,408.0943264999987,408.57876159999796,,,,,,,,,,,,,,408.5960051000002,,,,,,,,,,,,,408.59330190000037,408.5960051000002,408.5960051000002,408.5960051000002,411.59496189999845,f,1.258980700000393,0.16730819999793312,411.59514769999805,411.5952096000001,None,,,,,,,,,,,,,,,,,00029,001,2025-11-17_19h57.21.052,MST_task,2024.2.0,59.709905396295326,2025-11-17 19h57.29.112233 +0530,
,Objects\157a.jpg,45,0,46,,,,,,,f,1.036569599997165,0.1921122000021569,None,,,,,,46,0,45,411.610929399998,,,,,,,,,,,,,,,,,,,,,,,,,,,,,,411.5955197000003,411.610929399998,412.09552110000004,,,,,,,,,,,,,,412.1141819000004,,,,,,,,,,,,,412.1115866,412.1141819000004,412.1141819000004,412.1141819000004,415.11198519999743,f,1.036569599997165,0.1921122000021569,415.11215829999855,415.11221769999975,None,,,,,,,,,,,,,,,,,00029,001,2025-11-17_19h57.21.052,MST_task,2024.2.0,59.709905396295326,2025-11-17 19h57.29.112233 +0530,
,Objects\118a.jpg,46,0,47,,,,,,,f,1.00702309999906,0.21615279999969061,None,,,,,,47,0,46,415.12771529999736,,,,,,,,,,,,,,,,,,,,,,,,,,,,,,415.1126422999987,415.12771529999736,415.61228689999916,,,,,,,,,,,,,,415.63120549999803,,,,,,,,,,,,,415.62859339999704,415.63120549999803,415.63120549999803,415.63120549999803,418.6282570000003,f,1.00702309999906,0.21615279999969061,418.6284887999973,418.6285502999999,None,,,,,,,,,,,,,,,,,00029,001,2025-11-17_19h57.21.052,MST_task,2024.2.0,59.709905396295326,2025-11-17 19h57.29.112233 +0530,
,Objects\183a.jpg,47,0,48,,,,,,,j,0.8598654000015813,0.13587679999909597,None,,,,,,48,0,47,418.6443143999968,,,,,,,,,,,,,,,,,,,,,,,,,,,,,,418.6288604000001,418.6443143999968,419.1286033999968,,,,,,,,,,,,,,419.1468712999995,,,,,,,,,,,,,419.1441774999985,419.1468712999995,419.1468712999995,419.1468712999995,422.1451223999975,j,0.8598654000015813,0.13587679999909597,422.1452903999998,422.14534829999684,None,,,,,,,,,,,,,,,,,00029,001,2025-11-17_19h57.21.052,MST_task,2024.2.0,59.709905396295326,2025-11-17 19h57.29.112233 +0530,
,Objects\152a.jpg,48,0,49,,,,,,,f,1.4543433999970148,0.1761681000025419,None,,,,,,49,0,48,422.16100169999845,,,,,,,,,,,,,,,,,,,,,,,,,,,,,,422.1458189999976,422.16100169999845,422.6458720999981,,,,,,,,,,,,,,422.66407029999755,,,,,,,,,,,,,422.66139589999875,422.66407029999755,422.66407029999755,422.66407029999755,425.6616744999992,f,1.4543433999970148,0.1761681000025419,425.66184449999855,425.66190279999864,None,,,,,,,,,,,,,,,,,00029,001,2025-11-17_19h57.21.052,MST_task,2024.2.0,59.709905396295326,2025-11-17 19h57.29.112233 +0530,
,Scenes\070a.jpg,49,0,50,,,,,,,j,2.0084482000020216,0.1523300000008021,None,,,,,,50,0,49,425.6774958999995,,,,,,,,,,,,,,,,,,,,,,,,,,,,,,425.66233069999726,425.6774958999995,426.1622522999969,,,,,,,,,,,,,,426.1897934999979,,,,,,,,,,,,,426.18658279999727,426.1897934999979,426.1897934999979,426.1897934999979,429.1781405999973,j,2.0084482000020216,0.1523300000008021,429.1839480999988,429.1839919999984,None,,,,,,,,,,,,,,,,,00029,001,2025-11-17_19h57.21.052,MST_task,2024.2.0,59.709905396295326,2025-11-17 19h57.29.112233 +0530,
,Scenes\025a.jpg,50,0,51,,,,,,,j,2.101708199999848,0.14376569999876665,None,,,,,,51,0,50,429.19423839999945,,,,,,,,,,,,,,,,,,,,,,,,,,,,,,429.184225099998,429.19423839999945,429.6786495999986,,,,,,,,,,,,,,429.7051326999972,,,,,,,,,,,,,429.7018086999997,429.7051326999972,429.7051326999972,429.7051326999972,432.6949457999981,j,2.101708199999848,0.14376569999876665,432.69511489999786,432.6951736999981,None,,,,,,,,,,,,,,,,,00029,001,2025-11-17_19h57.21.052,MST_task,2024.2.0,59.709905396295326,2025-11-17 19h57.29.112233 +0530,
,Scenes\115a.jpg,51,0,52,,,,,,,j,1.8204211999982363,0.14335149999897112,None,,,,,,52,0,51,432.7110995000003,,,,,,,,,,,,,,,,,,,,,,,,,,,,,,432.6954835999968,432.7110995000003,433.1957306999975,,,,,,,,,,,,,,433.2186318999993,,,,,,,,,,,,,433.2152371999982,433.2186318999993,433.2186318999993,433.2186318999993,436.2115945999976,j,1.8204211999982363,0.14335149999897112,436.21176419999756,436.2118223999969,None,,,,,,,,,,,,,,,,,00029,001,2025-11-17_19h57.21.052,MST_task,2024.2.0,59.709905396295326,2025-11-17 19h57.29.112233 +0530,
,Scenes\018a.jpg,52,0,53,,,,,,,j,2.9130164999987755,None,None,,,,,,53,0,52,436.2274761999979,,,,,,,,,,,,,,,,,,,,,,,,,,,,,,436.2121275999998,436.2274761999979,436.7122434999983,,,,,,,,,,,,,,436.73367009999856,,,,,,,,,,,,,436.7303783999996,436.73367009999856,436.73367009999856,436.73367009999856,439.7281604999989,j,2.9130164999987755,None,439.7283279999974,439.728384799997,None,,,,,,,,,,,,,,,,,00029,001,2025-11-17_19h57.21.052,MST_task,2024.2.0,59.709905396295326,2025-11-17 19h57.29.112233 +0530,
,Scenes\142a.jpg,53,0,54,,,,,,,j,2.6718096999975387,0.13601240000207326,None,,,,,,54,0,53,439.7443174999971,,,,,,,,,,,,,,,,,,,,,,,,,,,,,,439.72868529999687,439.7443174999971,440.2287028999999,,,,,,,,,,,,,,440.25471839999955,,,,,,,,,,,,,440.25152439999874,440.25471839999955,440.25471839999955,440.25471839999955,443.2449314999976,j,2.6718096999975387,0.13601240000207326,443.2451059999985,443.2451626000002,None,,,,,,,,,,,,,,,,,00029,001,2025-11-17_19h57.21.052,MST_task,2024.2.0,59.709905396295326,2025-11-17 19h57.29.112233 +0530,
,Scenes\106a.jpg,54,0,55,,,,,,,j,1.5171950000003562,0.15908940000008442,None,,,,,,55,0,54,443.2610695000003,,,,,,,,,,,,,,,,,,,,,,,,,,,,,,443.2455902999973,443.2610695000003,443.7456495999977,,,,,,,,,,,,,,443.76976589999686,,,,,,,,,,,,,443.7670045999985,443.76976589999686,443.76976589999686,443.76976589999686,446.76168959999995,j,1.5171950000003562,0.15908940000008442,446.7618614999992,446.761919499997,None,,,,,,,,,,,,,,,,,00029,001,2025-11-17_19h57.21.052,MST_task,2024.2.0,59.709905396295326,2025-11-17 19h57.29.112233 +0530,
,Scenes\176a.jpg,55,0,56,,,,,,,j,2.0251851999964856,0.13538330000301357,None,,,,,,56,0,55,446.7774673999993,,,,,,,,,,,,,,,,,,,,,,,,,,,,,,446.7623550999997,446.7774673999993,447.2623266999981,,,,,,,,,,,,,,447.28549419999763,,,,,,,,,,,,,447.2827679000002,447.28549419999763,447.28549419999763,447.28549419999763,450.2781568999999,j,2.0251851999964856,0.13538330000301357,450.27830019999965,450.27834749999965,None,,,,,,,,,,,,,,,,,00029,001,2025-11-17_19h57.21.052,MST_task,2024.2.0,59.709905396295326,2025-11-17 19h57.29.112233 +0530,
,Objects\130a.jpg,56,0,57,,,,,,,j,2.5837204000017664,0.13539609999861568,None,,,,,,57,0,56,450.294321399997,,,,,,,,,,,,,,,,,,,,,,,,,,,,,,450.27860019999935,450.294321399997,450.77845089999755,,,,,,,,,,,,,,450.79901299999983,,,,,,,,,,,,,450.79576669999733,450.79901299999983,450.79901299999983,450.79901299999983,453.79514519999793,j,2.5837204000017664,0.13539609999861568,453.80190949999815,453.8019271999983,None,,,,,,,,,,,,,,,,,00029,001,2025-11-17_19h57.21.052,MST_task,2024.2.0,59.709905396295326,2025-11-17 19h57.29.112233 +0530,
,Objects\070a.jpg,57,0,58,,,,,,,f,1.0553891000017757,0.2001784999993106,None,,,,,,58,0,57,453.8110357999976,,,,,,,,,,,,,,,,,,,,,,,,,,,,,,453.8019983999984,453.8110357999976,454.2952274999989,,,,,,,,,,,,,,454.3111871999972,,,,,,,,,,,,,454.3037199999999,454.3111871999972,454.3111871999972,454.3111871999972,457.2963834000002,f,1.0553891000017757,0.2001784999993106,457.2965546999985,457.296610399997,None,457.31113019999975,457.31113019999975,457.31113019999975,,,,,,,,,,,,,,00029,001,2025-11-17_19h57.21.052,MST_task,2024.2.0,59.709905396295326,2025-11-17 19h57.29.112233 +0530,
,Objects\109a.jpg,58,0,59,,,,,,,j,1.2014870000020892,0.12753959999827202,None,,,,,,59,0,58,457.31113019999975,,,,,,,,,,,,,,,,,,,,,,,,,,,,,,457.29694709999967,457.31113019999975,457.79561139999714,,,,,,,,,,,,,,457.8134656999973,,,,,,,,,,,,,457.8107328999977,457.8134656999973,457.8134656999973,457.8134656999973,460.81158979999964,j,1.2014870000020892,0.12753959999827202,460.8117768999982,460.8118360999979,None,,,,,,,,,,,,,,,,,00029,001,2025-11-17_19h57.21.052,MST_task,2024.2.0,59.709905396295326,2025-11-17 19h57.29.112233 +0530,
,Objects\132a.jpg,59,0,60,,,,,,,f,1.438548099999025,0.1923008999983722,None,,,,,,60,0,59,460.827737399999,,,,,,,,,,,,,,,,,,,,,,,,,,,,,,460.81225819999963,460.827737399999,461.31210139999894,,,,,,,,,,,,,,461.32790289999684,,,,,,,,,,,,,461.3211749999973,461.32790289999684,461.32790289999684,461.32790289999684,464.31318610000017,f,1.438548099999025,0.1923008999983722,464.31335469999976,464.3134082999968,None,464.32773819999784,464.32773819999784,464.32773819999784,,,,,,,,,,,,,,00029,001,2025-11-17_19h57.21.052,MST_task,2024.2.0,59.709905396295326,2025-11-17 19h57.29.112233 +0530,
,Objects\142a.jpg,60,0,61,,,,,,,f,1.1379616000012902,0.1670936000009533,None,,,,,,61,0,60,464.32773819999784,,,,,,,,,,,,,,,,,,,,,,,,,,,,,,464.31395829999747,464.32773819999784,464.81231249999837,,,,,,,,,,,,,,464.829101299998,,,,,,,,,,,,,464.8263748999998,464.829101299998,464.829101299998,464.829101299998,467.82797149999897,f,1.1379616000012902,0.1670936000009533,467.82803090000016,467.82804359999864,None,,,,,,,,,,,,,,,,,00029,001,2025-11-17_19h57.21.052,MST_task,2024.2.0,59.709905396295326,2025-11-17 19h57.29.112233 +0530,
,Objects\004a.jpg,61,0,62,,,,,,,f,2.01350789999924,0.13730690000011236,None,,,,,,62,0,61,467.84419499999785,,,,,,,,,,,,,,,,,,,,,,,,,,,,,,467.82815929999924,467.84419499999785,468.3288257999993,,,,,,,,,,,,,,468.34460639999816,,,,,,,,,,,,,468.3371041999999,468.34460639999816,468.34460639999816,468.34460639999816,471.3282908999972,f,2.01350789999924,0.13730690000011236,471.3287597999988,471.32883479999873,None,,,,,,,,,,,,,,,,,00029,001,2025-11-17_19h57.21.052,MST_task,2024.2.0,59.709905396295326,2025-11-17 19h57.29.112233 +0530,
,Objects\104a.jpg,62,0,63,,,,,,,f,0.7112993999980972,0.16084260000206996,None,,,,,,63,0,62,471.34449649999806,,,,,,,,,,,,,,,,,,,,,,,,,,,,,,471.3291618999974,471.34449649999806,471.8286421999983,,,,,,,,,,,,,,471.8467406999989,,,,,,,,,,,,,471.8439808999974,471.8467406999989,471.8467406999989,471.8467406999989,474.8451529999984,f,0.7112993999980972,0.16084260000206996,474.8453195000002,474.8453773000001,None,,,,,,,,,,,,,,,,,00029,001,2025-11-17_19h57.21.052,MST_task,2024.2.0,59.709905396295326,2025-11-17 19h57.29.112233 +0530,
,Scenes\105a.jpg,63,0,64,,,,,,,j,2.0639536999988195,0.13556140000218875,None,,,,,,64,0,63,474.86125759999777,,,,,,,,,,,,,,,,,,,,,,,,,,,,,,474.8458025,474.86125759999777,475.34560280000005,,,,,,,,,,,,,,475.3750093999988,,,,,,,,,,,,,475.37166499999876,475.3750093999988,475.3750093999988,475.3750093999988,478.36200409999947,j,2.0639536999988195,0.13556140000218875,478.3684675000004,478.36848479999753,None,,,,,,,,,,,,,,,,,00029,001,2025-11-17_19h57.21.052,MST_task,2024.2.0,59.709905396295326,2025-11-17 19h57.29.112233 +0530,
,Scenes\076a.jpg,64,0,65,,,,,,,j,1.6656015000007756,0.16012259999843081,None,,,,,,65,0,64,478.3777482999976,,,,,,,,,,,,,,,,,,,,,,,,,,,,,,478.3685912999972,478.3777482999976,478.8622230999972,,,,,,,,,,,,,,478.88469669999904,,,,,,,,,,,,,478.88125859999855,478.88469669999904,478.88469669999904,478.88469669999904,481.8783822999976,j,1.6656015000007756,0.16012259999843081,481.87854569999763,481.8786031999989,None,,,,,,,,,,,,,,,,,00029,001,2025-11-17_19h57.21.052,MST_task,2024.2.0,59.709905396295326,2025-11-17 19h57.29.112233 +0530,
,Scenes\037a.jpg,65,0,66,,,,,,,j,2.407111900000018,0.14412240000092424,None,,,,,,66,0,65,481.89475879999736,,,,,,,,,,,,,,,,,,,,,,,,,,,,,,481.8790310999975,481.89475879999736,482.37907769999947,,,,,,,,,,,,,,482.3993401999978,,,,,,,,,,,,,482.3958731999992,482.3993401999978,482.3993401999978,482.3993401999978,485.395258499997,j,2.407111900000018,0.14412240000092424,485.39542549999896,485.39548379999906,None,,,,,,,,,,,,,,,,,00029,001,2025-11-17_19h57.21.052,MST_task,2024.2.0,59.709905396295326,2025-11-17 19h57.29.112233 +0530,
,Scenes\104a.jpg,66,0,67,,,,,,,j,2.1342272000001685,0.15991260000009788,None,,,,,,67,0,66,485.41111029999956,,,,,,,,,,,,,,,,,,,,,,,,,,,,,,485.39578579999943,485.41111029999956,485.895618999999,,,,,,,,,,,,,,485.91193289999865,,,,,,,,,,,,,485.90852769999765,485.91193289999865,485.91193289999865,485.91193289999865,488.8968523000003,j,2.1342272000001685,0.15991260000009788,488.8970535999979,488.8971036999974,None,488.91115869999703,488.91115869999703,488.91115869999703,,,,,,,,,,,,,,00029,001,2025-11-17_19h57.21.052,MST_task,2024.2.0,59.709905396295326,2025-11-17 19h57.29.112233 +0530,
,Scenes\059a.jpg,67,0,68,,,,,,,j,1.2328344999987166,0.16830470000058995,None,,,,,,68,0,67,488.91115869999703,,,,,,,,,,,,,,,,,,,,,,,,,,,,,,488.8973750999976,488.91115869999703,489.39569949999714,,,,,,,,,,,,,,489.4217005999999,,,,,,,,,,,,,489.41830709999704,489.4217005999999,489.4217005999999,489.4217005999999,492.4118097999999,j,1.2328344999987166,0.16830470000058995,492.4119813999969,492.412042699998,None,,,,,,,,,,,,,,,,,00029,001,2025-11-17_19h57.21.052,MST_task,2024.2.0,59.709905396295326,2025-11-17 19h57.29.112233 +0530,
,Scenes\084a.jpg,68,0,69,,,,,,,j,0.9975378999988607,0.16036049999820534,None,,,,,,69,0,68,492.4277316999978,,,,,,,,,,,,,,,,,,,,,,,,,,,,,,492.41247779999685,492.4277316999978,492.9124946999982,,,,,,,,,,,,,,492.9369141999996,,,,,,,,,,,,,492.93352589999995,492.9369141999996,492.9369141999996,492.9369141999996,495.92825079999966,j,0.9975378999988607,0.16036049999820534,495.9284287999981,495.92848949999825,None,,,,,,,,,,,,,,,,,00029,001,2025-11-17_19h57.21.052,MST_task,2024.2.0,59.709905396295326,2025-11-17 19h57.29.112233 +0530,
,Scenes\175a.jpg,69,0,70,,,,,,,j,1.9295249999995576,0.13596980000147596,None,,,,,,70,0,69,495.94431359999726,,,,,,,,,,,,,,,,,,,,,,,,,,,,,,495.92891119999695,495.94431359999726,496.42854090000037,,,,,,,,,,,,,,496.4451337999999,,,,,,,,,,,,,496.43974949999756,496.4451337999999,496.4451337999999,496.4451337999999,499.42942199999743,j,1.9295249999995576,0.13596980000147596,499.4295585999971,499.4296007999983,None,499.4444098999993,499.4444098999993,499.4444098999993,,,,,,,,,,,,,,00029,001,2025-11-17_19h57.21.052,MST_task,2024.2.0,59.709905396295326,2025-11-17 19h57.29.112233 +0530,
,Objects\156a.jpg,70,0,71,,,,,,,f,1.8330127999979595,0.14418250000016997,None,,,,,,71,0,70,499.4444098999993,,,,,,,,,,,,,,,,,,,,,,,,,,,,,,499.4298244999991,499.4444098999993,499.9285173999997,,,,,,,,,,,,,,499.9491875999993,,,,,,,,,,,,,499.945913399999,499.9491875999993,499.9491875999993,499.9491875999993,502.94479499999943,f,1.8330127999979595,0.14418250000016997,502.9499203999985,502.9499450999974,None,,,,,,,,,,,,,,,,,00029,001,2025-11-17_19h57.21.052,MST_task,2024.2.0,59.709905396295326,2025-11-17 19h57.29.112233 +0530,
,Objects\083a.jpg,71,0,72,,,,,,,f,1.493388300001243,0.14466189999802737,None,,,,,,72,0,71,502.96069329999955,,,,,,,,,,,,,,,,,,,,,,,,,,,,,,502.9500415000002,502.96069329999955,503.4455156999975,,,,,,,,,,,,,,503.4652841999996,,,,,,,,,,,,,503.4626471999982,503.4652841999996,503.4652841999996,503.4652841999996,506.4614961999978,f,1.493388300001243,0.14466189999802737,506.46165109999856,506.4616991999974,None,,,,,,,,,,,,,,,,,00029,001,2025-11-17_19h57.21.052,MST_task,2024.2.0,59.709905396295326,2025-11-17 19h57.29.112233 +0530,
,Objects\006a.jpg,72,0,73,,,,,,,f,0.8826986999993096,0.18351400000028661,None,,,,,,73,0,72,506.47758279999834,,,,,,,,,,,,,,,,,,,,,,,,,,,,,,506.4619513999969,506.47758279999834,506.96190360000037,,,,,,,,,,,,,,506.98008969999864,,,,,,,,,,,,,506.9773963999978,506.98008969999864,506.98008969999864,506.98008969999864,509.97833679999894,f,0.8826986999993096,0.18351400000028661,509.9785063999989,509.9785654999978,None,,,,,,,,,,,,,,,,,00029,001,2025-11-17_19h57.21.052,MST_task,2024.2.0,59.709905396295326,2025-11-17 19h57.29.112233 +0530,
,Objects\133a.jpg,73,0,74,,,,,,,f,1.7035256999988633,0.16002050000315649,None,,,,,,74,0,73,509.9943106999999,,,,,,,,,,,,,,,,,,,,,,,,,,,,,,509.97887099999934,509.9943106999999,510.47844319999786,,,,,,,,,,,,,,510.4947052999996,,,,,,,,,,,,,510.4868628999975,510.4947052999996,510.4947052999996,510.4947052999996,513.4800107999981,f,1.7035256999988633,0.16002050000315649,513.4801713999987,513.4802213000003,None,513.4943381999983,513.4943381999983,513.4943381999983,,,,,,,,,,,,,,00029,001,2025-11-17_19h57.21.052,MST_task,2024.2.0,59.709905396295326,2025-11-17 19h57.29.112233 +0530,
,Objects\131a.jpg,74,0,75,,,,,,,f,2.2334544000004826,0.1512652999990678,None,,,,,,75,0,74,513.4943381999983,,,,,,,,,,,,,,,,,,,,,,,,,,,,,,513.4804946000004,513.4943381999983,513.9786535999992,,,,,,,,,,,,,,513.9973694999971,,,,,,,,,,,,,513.9946425999988,513.9973694999971,513.9973694999971,513.9973694999971,516.9949753000001,f,2.2334544000004826,0.1512652999990678,516.9951466999992,516.9952042999976,None,,,,,,,,,,,,,,,,,00029,001,2025-11-17_19h57.21.052,MST_task,2024.2.0,59.709905396295326,2025-11-17 19h57.29.112233 +0530,
,Objects\121a.jpg,75,0,76,,,,,,,f,1.0531910999998217,0.1917976999975508,None,,,,,,76,0,75,517.0111061999996,,,,,,,,,,,,,,,,,,,,,,,,,,,,,,516.995509299999,517.0111061999996,517.4954800999985,,,,,,,,,,,,,,517.5134875999975,,,,,,,,,,,,,517.5108469999977,517.5134875999975,517.5134875999975,517.5134875999975,520.5118017999994,f,1.0531910999998217,0.1917976999975508,520.5119837999991,520.5120430999996,None,,,,,,,,,,,,,,,,,00029,001,2025-11-17_19h57.21.052,MST_task,2024.2.0,59.709905396295326,2025-11-17 19h57.29.112233 +0530,
,Objects\061a.jpg,76,0,77,,,,,,,j,1.032437599998957,0.13592639999842504,None,,,,,,77,0,76,520.5276454999985,,,,,,,,,,,,,,,,,,,,,,,,,,,,,,520.5123420999989,520.5276454999985,521.0126290999979,,,,,,,,,,,,,,521.0301373999973,,,,,,,,,,,,,521.0275132999996,521.0301373999973,521.0301373999973,521.0301373999973,524.0280664999991,j,1.032437599998957,0.13592639999842504,524.0282383999984,524.0282966999985,None,,,,,,,,,,,,,,,,,00029,001,2025-11-17_19h57.21.052,MST_task,2024.2.0,59.709905396295326,2025-11-17 19h57.29.112233 +0530,
,Scenes\167a.jpg,77,0,78,,,,,,,f,2.312200299998949,0.17604279999795835,None,,,,,,78,0,77,524.0444596999987,,,,,,,,,,,,,,,,,,,,,,,,,,,,,,524.0287234999996,524.0444596999987,524.5286973999973,,,,,,,,,,,,,,524.5503052999993,,,,,,,,,,,,,524.5470939999977,524.5503052999993,524.5503052999993,524.5503052999993,527.5449634999968,f,2.312200299998949,0.17604279999795835,527.5508329999975,527.5508742999991,None,,,,,,,,,,,,,,,,,00029,001,2025-11-17_19h57.21.052,MST_task,2024.2.0,59.709905396295326,2025-11-17 19h57.29.112233 +0530,
,Scenes\111a.jpg,78,0,79,,,,,,,j,2.024630799998704,0.16153069999927538,None,,,,,,79,0,78,527.5609191999974,,,,,,,,,,,,,,,,,,,,,,,,,,,,,,527.5511208999997,527.5609191999974,528.0454073000001,,,,,,,,,,,,,,528.0696910999977,,,,,,,,,,,,,528.0663645999994,528.0696910999977,528.0696910999977,528.0696910999977,531.0617270000002,j,2.024630799998704,0.16153069999927538,531.0619211999983,531.0619716000001,None,,,,,,,,,,,,,,,,,00029,001,2025-11-17_19h57.21.052,MST_task,2024.2.0,59.709905396295326,2025-11-17 19h57.29.112233 +0530,
,Scenes\157a.jpg,79,0,80,,,,,,,j,1.2057633000003989,0.12051149999751942,None,,,,,,80,0,79,531.0775256999987,,,,,,,,,,,,,,,,,,,,,,,,,,,,,,531.062228499999,531.0775256999987,531.5621277999999,,,,,,,,,,,,,,531.5843358999991,,,,,,,,,,,,,531.5812933999987,531.5843358999991,531.5843358999991,531.5843358999991,534.5784808999997,j,1.2057633000003989,0.12051149999751942,534.5786483999982,534.5787069999969,None,,,,,,,,,,,,,,,,,00029,001,2025-11-17_19h57.21.052,MST_task,2024.2.0,59.709905396295326,2025-11-17 19h57.29.112233 +0530,
,Scenes\146a.jpg,80,0,81,,,,,,,j,0.7581129999998666,0.17553440000119735,None,,,,,,81,0,80,534.5944677999978,,,,,,,,,,,,,,,,,,,,,,,,,,,,,,534.5791419999987,534.5944677999978,535.0789359999981,,,,,,,,,,,,,,535.1047193999984,,,,,,,,,,,,,535.1015350999987,535.1047193999984,535.1047193999984,535.1047193999984,538.0949512999978,j,0.7581129999998666,0.17553440000119735,538.0951174999973,538.0951754999987,None,,,,,,,,,,,,,,,,,00029,001,2025-11-17_19h57.21.052,MST_task,2024.2.0,59.709905396295326,2025-11-17 19h57.29.112233 +0530,
,Scenes\127a.jpg,81,0,82,,,,,,,j,1.201372800001991,0.143613500000356,None,,,,,,82,0,81,538.1109566999985,,,,,,,,,,,,,,,,,,,,,,,,,,,,,,538.0956275999997,538.1109566999985,538.5956068999985,,,,,,,,,,,,,,538.6137186999986,,,,,,,,,,,,,538.6107499999998,538.6137186999986,538.6137186999986,538.6137186999986,541.611592899997,j,1.201372800001991,0.143613500000356,541.6117653000001,541.611821399998,None,,,,,,,,,,,,,,,,,00029,001,2025-11-17_19h57.21.052,MST_task,2024.2.0,59.709905396295326,2025-11-17 19h57.29.112233 +0530,
,Scenes\023a.jpg,82,0,83,,,,,,,f,2.0895290000007662,0.16005519999816897,None,,,,,,83,0,82,541.6275004999989,,,,,,,,,,,,,,,,,,,,,,,,,,,,,,541.6122639999994,541.6275004999989,542.1121124999991,,,,,,,,,,,,,,542.1410610999992,,,,,,,,,,,,,542.137388799998,542.1410610999992,542.1410610999992,542.1410610999992,545.1281896,f,2.0895290000007662,0.16005519999816897,545.1283613999985,545.1284202999996,None,,,,,,,,,,,,,,,,,00029,001,2025-11-17_19h57.21.052,MST_task,2024.2.0,59.709905396295326,2025-11-17 19h57.29.112233 +0530,
,Scenes\087a.jpg,83,0,84,,,,,,,j,0.781569099999615,0.20789959999819985,None,,,,,,84,0,83,545.1442819999975,,,,,,,,,,,,,,,,,,,,,,,,,,,,,,545.128851999998,545.1442819999975,545.6288835999985,,,,,,,,,,,,,,545.6491461999976,,,,,,,,,,,,,545.645654699998,545.6491461999976,545.6491461999976,545.6491461999976,548.6451490999971,j,0.781569099999615,0.20789959999819985,548.6453231999985,548.6453784999976,None,,,,,,,,,,,,,,,,,00029,001,2025-11-17_19h57.21.052,MST_task,2024.2.0,59.709905396295326,2025-11-17 19h57.29.112233 +0530,
,Objects\096a.jpg,84,0,85,,,,,,,f,2.688144200001261,0.1278701999981422,None,,,,,,85,0,84,548.6609814000003,,,,,,,,,,,,,,,,,,,,,,,,,,,,,,548.6456628999986,548.6609814000003,549.1456357999996,,,,,,,,,,,,,,549.1664064999968,,,,,,,,,,,,,549.1631794999994,549.1664064999968,549.1664064999968,549.1664064999968,552.1616004999996,f,2.688144200001261,0.1278701999981422,552.1686325999981,552.1686709999994,None,,,,,,,,,,,,,,,,,00029,001,2025-11-17_19h57.21.052,MST_task,2024.2.0,59.709905396295326,2025-11-17 19h57.29.112233 +0530,
,Objects\045a.jpg,85,0,86,,,,,,,j,0.9437189000018407,0.1446228999993764,None,,,,,,86,0,85,552.1773805999983,,,,,,,,,,,,,,,,,,,,,,,,,,,,,,552.1688149000001,552.1773805999983,552.662277899999,,,,,,,,,,,,,,552.6784453,,,,,,,,,,,,,552.6757881999984,552.6784453,552.6784453,552.6784453,555.6632014999996,j,0.9437189000018407,0.1446228999993764,555.6633468,555.6633934999991,None,555.6775729000001,555.6775729000001,555.6775729000001,,,,,,,,,,,,,,00029,001,2025-11-17_19h57.21.052,MST_task,2024.2.0,59.709905396295326,2025-11-17 19h57.29.112233 +0530,
,Objects\166a.jpg,86,0,87,,,,,,,f,1.3461668000018108,0.15262539999821456,None,,,,,,87,0,86,555.6775729000001,,,,,,,,,,,,,,,,,,,,,,,,,,,,,,555.663753599998,555.6775729000001,556.1621620999977,,,,,,,,,,,,,,556.1802085999989,,,,,,,,,,,,,556.177637599998,556.1802085999989,556.1802085999989,556.1802085999989,559.1782294999975,f,1.3461668000018108,0.15262539999821456,559.1784641999984,559.1785225999993,None,,,,,,,,,,,,,,,,,00029,001,2025-11-17_19h57.21.052,MST_task,2024.2.0,59.709905396295326,2025-11-17 19h57.29.112233 +0530,
,Objects\033a.jpg,87,0,88,,,,,,,f,2.6537573999994493,0.13663699999960954,None,,,,,,88,0,87,559.1945382999984,,,,,,,,,,,,,,,,,,,,,,,,,,,,,,559.1789818999969,559.1945382999984,559.6787631999978,,,,,,,,,,,,,,559.6962757999972,,,,,,,,,,,,,559.6936583999995,559.6962757999972,559.6962757999972,559.6962757999972,562.6950785999979,f,2.6537573999994493,0.13663699999960954,562.6952306999992,562.695281999997,None,,,,,,,,,,,,,,,,,00029,001,2025-11-17_19h57.21.052,MST_task,2024.2.0,59.709905396295326,2025-11-17 19h57.29.112233 +0530,
,Objects\159a.jpg,88,0,89,,,,,,,f,0.9305209000012837,0.20820110000204295,None,,,,,,89,0,88,562.7108502999981,,,,,,,,,,,,,,,,,,,,,,,,,,,,,,562.6955596999978,562.7108502999981,563.1957868999998,,,,,,,,,,,,,,563.2119892999981,,,,,,,,,,,,,563.2090388999968,563.2119892999981,563.2119892999981,563.2119892999981,566.1966636999969,f,0.9305209000012837,0.20820110000204295,566.1968342,566.1968854999977,None,566.2110648999987,566.2110648999987,566.2110648999987,,,,,,,,,,,,,,00029,001,2025-11-17_19h57.21.052,MST_task,2024.2.0,59.709905396295326,2025-11-17 19h57.29.112233 +0530,
,Objects\076a.jpg,89,0,90,,,,,,,f,1.110935699998663,0.1753729000010935,None,,,,,,90,0,89,566.2110648999987,,,,,,,,,,,,,,,,,,,,,,,,,,,,,,566.1972919,566.2110648999987,566.6956730999991,,,,,,,,,,,,,,566.7119829000003,,,,,,,,,,,,,566.7094426000003,566.7119829000003,566.7119829000003,566.7119829000003,569.6962719999974,f,1.110935699998663,0.1753729000010935,569.6964778000001,569.6965323999975,None,569.7109821999984,569.7109821999984,569.7109821999984,,,,,,,,,,,,,,00029,001,2025-11-17_19h57.21.052,MST_task,2024.2.0,59.709905396295326,2025-11-17 19h57.29.112233 +0530,
,Objects\009a.jpg,90,0,91,,,,,,,j,2.5548009000012826,0.15259549999973387,None,,,,,,91,0,90,569.7109821999984,,,,,,,,,,,,,,,,,,,,,,,,,,,,,,569.6969384000004,569.7109821999984,570.1956241999978,,,,,,,,,,,,,,570.2117676999987,,,,,,,,,,,,,570.2091192999978,570.2117676999987,570.2117676999987,570.2117676999987,573.1969602999998,j,2.5548009000012826,0.15259549999973387,573.1971338000003,573.1971903999984,None,573.2111270999994,573.2111270999994,573.2111270999994,,,,,,,,,,,,,,00029,001,2025-11-17_19h57.21.052,MST_task,2024.2.0,59.709905396295326,2025-11-17 19h57.29.112233 +0530,
,Scenes\160a.jpg,91,0,92,,,,,,,j,0.9504053999989992,0.13513420000163023,None,,,,,,92,0,91,573.2111270999994,,,,,,,,,,,,,,,,,,,,,,,,,,,,,,573.1974928999989,573.2111270999994,573.6957117999991,,,,,,,,,,,,,,573.7205990999973,,,,,,,,,,,,,573.7172471999984,573.7205990999973,573.7205990999973,573.7205990999973,576.7116446999971,j,0.9504053999989992,0.13513420000163023,576.7166580999983,576.716690899997,None,,,,,,,,,,,,,,,,,00029,001,2025-11-17_19h57.21.052,MST_task,2024.2.0,59.709905396295326,2025-11-17 19h57.29.112233 +0530,
,Scenes\020a.jpg,92,0,93,,,,,,,f,2.2413621000014246,0.1441634000002523,None,,,,,,93,0,92,576.7275410000002,,,,,,,,,,,,,,,,,,,,,,,,,,,,,,576.7169071999997,576.7275410000002,577.2121625999971,,,,,,,,,,,,,,577.2451299999993,,,,,,,,,,,,,577.2416865999985,577.2451299999993,577.2451299999993,577.2451299999993,580.2283317000001,f,2.2413621000014246,0.1441634000002523,580.2284975999974,580.2285553999973,None,,,,,,,,,,,,,,,,,00029,001,2025-11-17_19h57.21.052,MST_task,2024.2.0,59.709905396295326,2025-11-17 19h57.29.112233 +0530,
,Scenes\101a.jpg,93,0,94,,,,,,,j,1.9917836999993597,0.16742580000209273,None,,,,,,94,0,93,580.2443471999977,,,,,,,,,,,,,,,,,,,,,,,,,,,,,,580.2289923999997,580.2443471999977,580.7288580999993,,,,,,,,,,,,,,580.7510481999998,,,,,,,,,,,,,580.7477126999984,580.7510481999998,580.7510481999998,580.7510481999998,583.7452634999972,j,1.9917836999993597,0.16742580000209273,583.7454302999977,583.7454904999977,None,,,,,,,,,,,,,,,,,00029,001,2025-11-17_19h57.21.052,MST_task,2024.2.0,59.709905396295326,2025-11-17 19h57.29.112233 +0530,
,Scenes\097a.jpg,94,0,95,,,,,,,f,1.181161799999245,0.15272010000262526,None,,,,,,95,0,94,583.7609280999968,,,,,,,,,,,,,,,,,,,,,,,,,,,,,,583.7458034999981,583.7609280999968,584.2458084999998,,,,,,,,,,,,,,584.2648147999971,,,,,,,,,,,,,584.2616827999991,584.2648147999971,584.2648147999971,584.2648147999971,587.2617627999971,f,1.181161799999245,0.15272010000262526,587.261926799998,587.2619864999979,None,,,,,,,,,,,,,,,,,00029,001,2025-11-17_19h57.21.052,MST_task,2024.2.0,59.709905396295326,2025-11-17 19h57.29.112233 +0530,
,Scenes\010a.jpg,95,0,96,,,,,,,j,2.1549235000020417,0.15192250000109198,None,,,,,,96,0,95,587.2776751999991,,,,,,,,,,,,,,,,,,,,,,,,,,,,,,587.2624027999991,587.2776751999991,587.7623915999975,,,,,,,,,,,,,,587.7872793999995,,,,,,,,,,,,,587.7842095999986,587.7872793999995,587.7872793999995,587.7872793999995,590.7782611999974,j,2.1549235000020417,0.15192250000109198,590.7784253999998,590.7784842000001,None,,,,,,,,,,,,,,,,,00029,001,2025-11-17_19h57.21.052,MST_task,2024.2.0,59.709905396295326,2025-11-17 19h57.29.112233 +0530,
,Scenes\015a.jpg,96,0,97,,,,,,,j,1.1883152999980666,0.1430437000017264,None,,,,,,97,0,96,590.7943374999995,,,,,,,,,,,,,,,,,,,,,,,,,,,,,,590.7789459999985,590.7943374999995,591.2787517999968,,,,,,,,,,,,,,591.3067168999987,,,,,,,,,,,,,591.3033252999994,591.3067168999987,591.3067168999987,591.3067168999987,594.2951940999992,j,1.1883152999980666,0.1430437000017264,594.2953624000002,594.2954212999975,None,,,,,,,,,,,,,,,,,00029,001,2025-11-17_19h57.21.052,MST_task,2024.2.0,59.709905396295326,2025-11-17 19h57.29.112233 +0530,
,Scenes\007a.jpg,97,0,98,,,,,,,f,1.8814662999975553,0.15187380000134,None,,,,,,98,0,97,594.3109750000003,,,,,,,,,,,,,,,,,,,,,,,,,,,,,,594.295859599999,594.3109750000003,594.7953402999992,,,,,,,,,,,,,,594.8210311000003,,,,,,,,,,,,,594.8177795999982,594.8210311000003,594.8210311000003,594.8210311000003,597.8115663999997,f,1.8814662999975553,0.15187380000134,597.8118901999987,597.8119553999968,None,,,,,,,,,,,,,,,,,00029,001,2025-11-17_19h57.21.052,MST_task,2024.2.0,59.709905396295326,2025-11-17 19h57.29.112233 +0530,
,Objects\063a.jpg,98,0,99,,,,,,,f,1.8037894000008237,0.16798809999818332,None,,,,,,99,0,98,597.8277267999983,,,,,,,,,,,,,,,,,,,,,,,,,,,,,,597.8122435999976,597.8277267999983,598.3120861999996,,,,,,,,,,,,,,598.3307819000001,,,,,,,,,,,,,598.3272365999983,598.3307819000001,598.3307819000001,598.3307819000001,601.3283199999969,f,1.8037894000008237,0.16798809999818332,601.3357571999986,601.335773499999,None,,,,,,,,,,,,,,,,,00029,001,2025-11-17_19h57.21.052,MST_task,2024.2.0,59.709905396295326,2025-11-17 19h57.29.112233 +0530,
,Objects\020a.jpg,99,0,100,,,,,,,f,1.2974532000007457,0.17629300000044168,None,,,,,,100,0,99,601.3443743999997,,,,,,,,,,,,,,,,,,,,,,,,,,,,,,601.3358942999985,601.3443743999997,601.828916399998,,,,,,,,,,,,,,601.8452044999976,,,,,,,,,,,,,601.8425260999975,601.8452044999976,601.8452044999976,601.8452044999976,604.8294115999997,f,1.2974532000007457,0.17629300000044168,604.8295469999975,604.8295896999989,None,604.8442701999993,604.8442701999993,604.8442701999993,,,,,,,,,,,,,,00029,001,2025-11-17_19h57.21.052,MST_task,2024.2.0,59.709905396295326,2025-11-17 19h57.29.112233 +0530,
,Objects\035a.jpg,100,0,101,,,,,,,j,1.4769402000019909,0.15932409999732045,None,,,,,,101,0,100,604.8442701999993,,,,,,,,,,,,,,,,,,,,,,,,,,,,,,604.8299339999976,604.8442701999993,605.3286943999992,,,,,,,,,,,,,,605.3462223999995,,,,,,,,,,,,,605.3435112999978,605.3462223999995,605.3462223999995,605.3462223999995,608.3451200999989,j,1.4769402000019909,0.15932409999732045,608.3452846,608.3453429000001,None,,,,,,,,,,,,,,,,,00029,001,2025-11-17_19h57.21.052,MST_task,2024.2.0,59.709905396295326,2025-11-17 19h57.29.112233 +0530,
,Objects\054a.jpg,101,0,102,,,,,,,j,2.647026200000255,0.10411399999793503,None,,,,,,102,0,101,608.3609603999976,,,,,,,,,,,,,,,,,,,,,,,,,,,,,,608.3456439999973,608.3609603999976,608.8455824999983,,,,,,,,,,,,,,608.863281599999,,,,,,,,,,,,,608.8606755000001,608.863281599999,608.863281599999,608.863281599999,611.8617868999972,j,2.647026200000255,0.10411399999793503,611.8619504999988,611.8620107999996,None,,,,,,,,,,,,,,,,,00029,001,2025-11-17_19h57.21.052,MST_task,2024.2.0,59.709905396295326,2025-11-17 19h57.29.112233 +0530,
,Objects\099a.jpg,102,0,103,,,,,,,j,2.16959610000049,0.11237470000196481,None,,,,,,103,0,102,611.8775521999996,,,,,,,,,,,,,,,,,,,,,,,,,,,,,,611.8624211999995,611.8775521999996,612.3623458000002,,,,,,,,,,,,,,612.3803644999971,,,,,,,,,,,,,612.3777110999981,612.3803644999971,612.3803644999971,612.3803644999971,615.3780723999989,j,2.16959610000049,0.11237470000196481,615.3782341999977,615.3782939999983,None,,,,,,,,,,,,,,,,,00029,001,2025-11-17_19h57.21.052,MST_task,2024.2.0,59.709905396295326,2025-11-17 19h57.29.112233 +0530,
,Objects\167a.jpg,103,0,104,,,,,,,f,1.5442320999973163,0.21574189999955706,None,,,,,,104,0,103,615.3944644000003,,,,,,,,,,,,,,,,,,,,,,,,,,,,,,615.3786331999981,615.3944644000003,615.8789292999973,,,,,,,,,,,,,,615.894700599998,,,,,,,,,,,,,615.8873811999983,615.894700599998,615.894700599998,615.894700599998,618.8794630999982,f,1.5442320999973163,0.21574189999955706,618.8795986999976,618.8796398999984,None,618.8943641999977,618.8943641999977,618.8943641999977,,,,,,,,,,,,,,00029,001,2025-11-17_19h57.21.052,MST_task,2024.2.0,59.709905396295326,2025-11-17 19h57.29.112233 +0530,
,Objects\088a.jpg,104,0,105,,,,,,,j,1.267932300001121,0.16009029999986524,None,,,,,,105,0,104,618.8943641999977,,,,,,,,,,,,,,,,,,,,,,,,,,,,,,618.8798604999974,618.8943641999977,619.3788137999982,,,,,,,,,,,,,,619.3945361999977,,,,,,,,,,,,,619.3876070999977,619.3945361999977,619.3945361999977,619.3945361999977,622.3800464999986,j,1.267932300001121,0.16009029999986524,622.3801922999992,622.3802379999979,None,622.3943491999999,622.3943491999999,622.3943491999999,,,,,,,,,,,,,,00029,001,2025-11-17_19h57.21.052,MST_task,2024.2.0,59.709905396295326,2025-11-17 19h57.29.112233 +0530,
,Scenes\180a.jpg,105,0,106,,,,,,,j,1.2222424000028695,0.16019070000038482,None,,,,,,106,0,105,622.3943491999999,,,,,,,,,,,,,,,,,,,,,,,,,,,,,,622.3806969999969,622.3943491999999,622.8786096000003,,,,,,,,,,,,,,622.9041120000002,,,,,,,,,,,,,622.9009812000004,622.9041120000002,622.9041120000002,622.9041120000002,625.8950700999994,j,1.2222424000028695,0.16019070000038482,625.9014900000002,625.9015082999977,None,,,,,,,,,,,,,,,,,00029,001,2025-11-17_19h57.21.052,MST_task,2024.2.0,59.709905396295326,2025-11-17 19h57.29.112233 +0530,
,Scenes\019a.jpg,106,0,107,,,,,,,f,2.4341983999984222,0.13644100000237813,None,,,,,,107,0,106,625.910889499999,,,,,,,,,,,,,,,,,,,,,,,,,,,,,,625.9015815999992,625.910889499999,626.3955595999978,,,,,,,,,,,,,,626.4199195999972,,,,,,,,,,,,,626.4166363999975,626.4199195999972,626.4199195999972,626.4199195999972,629.4116445,f,2.4341983999984222,0.13644100000237813,629.4118127999973,629.4118716999983,None,,,,,,,,,,,,,,,,,00029,001,2025-11-17_19h57.21.052,MST_task,2024.2.0,59.709905396295326,2025-11-17 19h57.29.112233 +0530,
,Scenes\179a.jpg,107,0,108,,,,,,,j,1.1501415999991877,0.13602159999936703,None,,,,,,108,0,107,629.4276915999981,,,,,,,,,,,,,,,,,,,,,,,,,,,,,,629.412180299998,629.4276915999981,629.9123913000003,,,,,,,,,,,,,,629.9282499000001,,,,,,,,,,,,,629.9215661999988,629.9282499000001,629.9282499000001,629.9282499000001,632.9131758999974,j,1.1501415999991877,0.13602159999936703,632.9133234000001,632.9133693999975,None,632.9275046000002,632.9275046000002,632.9275046000002,,,,,,,,,,,,,,00029,001,2025-11-17_19h57.21.052,MST_task,2024.2.0,59.709905396295326,2025-11-17 19h57.29.112233 +0530,
,Scenes\166a.jpg,108,0,109,,,,,,,j,1.4530889999987266,0.14428720000069006,None,,,,,,109,0,108,632.9275046000002,,,,,,,,,,,,,,,,,,,,,,,,,,,,,,632.9136150999984,632.9275046000002,633.4122444999994,,,,,,,,,,,,,,633.4335417999973,,,,,,,,,,,,,633.4301787000004,633.4335417999973,633.4335417999973,633.4335417999973,636.4281357,j,1.4530889999987266,0.14428720000069006,636.4283015000001,636.4283603999975,None,,,,,,,,,,,,,,,,,00029,001,2025-11-17_19h57.21.052,MST_task,2024.2.0,59.709905396295326,2025-11-17 19h57.29.112233 +0530,
,Scenes\065a.jpg,109,0,110,,,,,,,j,1.270667600001616,0.16828130000067176,None,,,,,,110,0,109,636.4443391999994,,,,,,,,,,,,,,,,,,,,,,,,,,,,,,636.4286780000002,636.4443391999994,636.9289288,,,,,,,,,,,,,,636.9517484999997,,,,,,,,,,,,,636.9483648999994,636.9517484999997,636.9517484999997,636.9517484999997,639.9449910999974,j,1.270667600001616,0.16828130000067176,639.9452917999988,639.945375299998,None,,,,,,,,,,,,,,,,,00029,001,2025-11-17_19h57.21.052,MST_task,2024.2.0,59.709905396295326,2025-11-17 19h57.29.112233 +0530,
,Scenes\067a.jpg,110,0,111,,,,,,,f,0.9443537000006472,0.17627029999857768,None,,,,,,111,0,110,639.9611071999971,,,,,,,,,,,,,,,,,,,,,,,,,,,,,,639.9458268999988,639.9611071999971,640.4456441000002,,,,,,,,,,,,,,640.4701862000002,,,,,,,,,,,,,640.4668301999991,640.4701862000002,640.4701862000002,640.4701862000002,643.4618040999994,f,0.9443537000006472,0.17627029999857768,643.4619647,643.4620217999982,None,,,,,,,,,,,,,,,,,00029,001,2025-11-17_19h57.21.052,MST_task,2024.2.0,59.709905396295326,2025-11-17 19h57.29.112233 +0530,
,Scenes\121a.jpg,111,0,112,,,,,,,j,1.0202351000007184,0.1357828000000154,None,,,,,,112,0,111,643.4777347999989,,,,,,,,,,,,,,,,,,,,,,,,,,,,,,643.4624477999969,643.4777347999989,643.9622151999974,,,,,,,,,,,,,,643.9862149,,,,,,,,,,,,,643.982880399999,643.9862149,643.9862149,643.9862149,646.9784532999984,j,1.0202351000007184,0.1357828000000154,646.9786270999975,646.9786867000003,None,,,,,,,,,,,,,,,,,00029,001,2025-11-17_19h57.21.052,MST_task,2024.2.0,59.709905396295326,2025-11-17 19h57.29.112233 +0530,
,Objects\108a.jpg,112,0,113,,,,,,,j,2.3837268999996013,0.15970949999973527,None,,,,,,113,0,112,646.9945649999972,,,,,,,,,,,,,,,,,,,,,,,,,,,,,,646.9791704999989,646.9945649999972,647.4786349999995,,,,,,,,,,,,,,647.4950460999971,,,,,,,,,,,,,647.4885991999981,647.4950460999971,647.4950460999971,647.4950460999971,650.4799194999978,j,2.3837268999996013,0.15970949999973527,650.4854638999968,650.485487599999,None,650.4941062999969,650.4941062999969,650.4941062999969,,,,,,,,,,,,,,00029,001,2025-11-17_19h57.21.052,MST_task,2024.2.0,59.709905396295326,2025-11-17 19h57.29.112233 +0530,
,Objects\128a.jpg,113,0,114,,,,,,,f,1.539679999998043,0.16780350000044564,None,,,,,,114,0,113,650.4941062999969,,,,,,,,,,,,,,,,,,,,,,,,,,,,,,650.485641299998,650.4941062999969,650.9788659999977,,,,,,,,,,,,,,650.9953289999976,,,,,,,,,,,,,650.9924667999985,650.9953289999976,650.9953289999976,650.9953289999976,653.9794112999989,f,1.539679999998043,0.16780350000044564,653.979553899997,653.9795975999987,None,653.9943050999973,653.9943050999973,653.9943050999973,,,,,,,,,,,,,,00029,001,2025-11-17_19h57.21.052,MST_task,2024.2.0,59.709905396295326,2025-11-17 19h57.29.112233 +0530,
,Objects\057a.jpg,114,0,115,,,,,,,f,2.723597399999562,0.12854929999957676,None,,,,,,115,0,114,653.9943050999973,,,,,,,,,,,,,,,,,,,,,,,,,,,,,,653.9798310999977,653.9943050999973,654.4790312999976,,,,,,,,,,,,,,654.4984761999985,,,,,,,,,,,,,654.4958396999973,654.4984761999985,654.4984761999985,654.4984761999985,657.495132,f,2.723597399999562,0.12854929999957676,657.4952976999994,657.4953556999972,None,,,,,,,,,,,,,,,,,00029,001,2025-11-17_19h57.21.052,MST_task,2024.2.0,59.709905396295326,2025-11-17 19h57.29.112233 +0530,
,Objects\067a.jpg,115,0,116,,,,,,,f,1.99132009999812,0.1591489000020374,None,,,,,,116,0,115,657.5112286000003,,,,,,,,,,,,,,,,,,,,,,,,,,,,,,657.4956576999975,657.5112286000003,657.9955926999974,,,,,,,,,,,,,,658.015639899997,,,,,,,,,,,,,658.0128342999997,658.015639899997,658.015639899997,658.015639899997,661.0116357999977,f,1.99132009999812,0.1591489000020374,661.0119529999974,661.0120423999979,None,,,,,,,,,,,,,,,,,00029,001,2025-11-17_19h57.21.052,MST_task,2024.2.0,59.709905396295326,2025-11-17 19h57.29.112233 +0530,
,Objects\021a.jpg,116,0,117,,,,,,,None,,,f,0.07867859999896609,None,,,,117,0,116,661.0277083000001,,,,,,,,,,,,,,,,,,,,,,,,,,,,,,661.0123782999981,661.0277083000001,661.5121685999984,,,,,,,,,,,,,,661.5286465999998,,,,,,,,,,,,,661.5260371999975,661.5286465999998,661.5286465999998,661.5286465999998,664.5131901999994,None,,,664.5133417999969,664.6128723999973,f,664.5275975999975,664.5275975999975,664.5275975999975,664.5275975999975,664.5275975999975,0.07867859999896609,None,,,,,,,,,,00029,001,2025-11-17_19h57.21.052,MST_task,2024.2.0,59.709905396295326,2025-11-17 19h57.29.112233 +0530,
,Objects\185a.jpg,117,0,118,,,,,,,f,1.6200855999995838,0.19946340000024065,None,,,,,,118,0,117,664.6275072999997,,,,,,,,,,,,,,,,,,,,,,,,,,,,,,664.6132304999992,664.6275072999997,665.1124397999993,,,,,,,,,,,,,,665.1303602999978,,,,,,,,,,,,,665.1275957999969,665.1303602999978,665.1303602999978,665.1303602999978,668.128220999999,f,1.6200855999995838,0.19946340000024065,668.1283866999984,668.1284457999973,None,,,,,,,,,,,,,,,,,00029,001,2025-11-17_19h57.21.052,MST_task,2024.2.0,59.709905396295326,2025-11-17 19h57.29.112233 +0530,
,Objects\090a.jpg,118,0,119,,,,,,,f,1.232259200001863,0.15972010000041337,None,,,,,,119,0,118,668.1442925999982,,,,,,,,,,,,,,,,,,,,,,,,,,,,,,668.1289414999992,668.1442925999982,668.6285054999971,,,,,,,,,,,,,,668.6468255999971,,,,,,,,,,,,,668.6442401999993,668.6468255999971,668.6468255999971,668.6468255999971,671.6448453999983,f,1.232259200001863,0.15972010000041337,671.6449853999984,671.6450336999987,None,,,,,,,,,,,,,,,,,00029,001,2025-11-17_19h57.21.052,MST_task,2024.2.0,59.709905396295326,2025-11-17 19h57.29.112233 +0530,
,Scenes\141a.jpg,119,0,120,,,,,,,j,2.346831900002144,0.12818909999987227,None,,,,,,120,0,119,671.6610223999996,,,,,,,,,,,,,,,,,,,,,,,,,,,,,,671.6452926999991,671.6610223999996,672.1457370999997,,,,,,,,,,,,,,672.171401399999,,,,,,,,,,,,,672.1681473999997,672.171401399999,672.171401399999,672.171401399999,675.161585599999,j,2.346831900002144,0.12818909999987227,675.1672772999991,675.1673173999989,None,,,,,,,,,,,,,,,,,00029,001,2025-11-17_19h57.21.052,MST_task,2024.2.0,59.709905396295326,2025-11-17 19h57.29.112233 +0530,
,Scenes\134a.jpg,120,0,121,,,,,,,j,0.9505224999993516,0.17552710000018124,None,,,,,,121,0,120,675.1773689999973,,,,,,,,,,,,,,,,,,,,,,,,,,,,,,675.1675598000002,675.1773689999973,675.6621065999971,,,,,,,,,,,,,,675.6884298999976,,,,,,,,,,,,,675.685231899999,675.6884298999976,675.6884298999976,675.6884298999976,678.6781474999989,j,0.9505224999993516,0.17552710000018124,678.6783147999995,678.6783740999999,None,,,,,,,,,,,,,,,,,00029,001,2025-11-17_19h57.21.052,MST_task,2024.2.0,59.709905396295326,2025-11-17 19h57.29.112233 +0530,
,Scenes\089a.jpg,121,0,122,,,,,,,j,1.2323682000023837,0.1360075999982655,None,,,,,,122,0,121,678.694370199999,,,,,,,,,,,,,,,,,,,,,,,,,,,,,,678.678800499998,678.694370199999,679.1789405999989,,,,,,,,,,,,,,679.2061143999999,,,,,,,,,,,,,679.2024894999995,679.2061143999999,679.2061143999999,679.2061143999999,682.1950032999994,j,1.2323682000023837,0.1360075999982655,682.1951638999999,682.1952220999992,None,,,,,,,,,,,,,,,,,00029,001,2025-11-17_19h57.21.052,MST_task,2024.2.0,59.709905396295326,2025-11-17 19h57.29.112233 +0530,
,Scenes\109a.jpg,122,0,123,,,,,,,j,2.0727531000011368,0.10440870000093128,None,,,,,,123,0,122,682.2109764999987,,,,,,,,,,,,,,,,,,,,,,,,,,,,,,682.1955285000004,682.2109764999987,682.695393799997,,,,,,,,,,,,,,682.717600699998,,,,,,,,,,,,,682.7143636000001,682.717600699998,682.717600699998,682.717600699998,685.711629399997,j,2.0727531000011368,0.10440870000093128,685.7118179999998,685.7118744999971,None,,,,,,,,,,,,,,,,,00029,001,2025-11-17_19h57.21.052,MST_task,2024.2.0,59.709905396295326,2025-11-17 19h57.29.112233 +0530,
,Scenes\008a.jpg,123,0,124,,,,,,,f,1.4131563999981154,0.19198700000197277,None,,,,,,124,0,123,685.7274776999984,,,,,,,,,,,,,,,,,,,,,,,,,,,,,,685.7121804999988,685.7274776999984,686.2120967999981,,,,,,,,,,,,,,686.2336805999985,,,,,,,,,,,,,686.2304595999994,686.2336805999985,686.2336805999985,686.2336805999985,689.228195599997,f,1.4131563999981154,0.19198700000197277,689.2283604999975,689.228416599999,None,,,,,,,,,,,,,,,,,00029,001,2025-11-17_19h57.21.052,MST_task,2024.2.0,59.709905396295326,2025-11-17 19h57.29.112233 +0530,
,Scenes\113a.jpg,124,0,125,,,,,,,j,1.1097676000026695,0.12786379999670316,None,,,,,,125,0,124,689.2444018999995,,,,,,,,,,,,,,,,,,,,,,,,,,,,,,689.2287163999972,689.2444018999995,689.7290242999989,,,,,,,,,,,,,,689.7449030999996,,,,,,,,,,,,,689.7387492999987,689.7449030999996,689.7449030999996,689.7449030999996,692.7283152999989,j,1.1097676000026695,0.12786379999670316,692.7283605999983,692.7283714999976,None,692.7441022999992,692.7441022999992,692.7441022999992,,,,,,,,,,,,,,00029,001,2025-11-17_19h57.21.052,MST_task,2024.2.0,59.709905396295326,2025-11-17 19h57.29.112233 +0530,
,Scenes\058a.jpg,125,0,126,,,,,,,f,1.5066630000001169,0.1912795999996888,None,,,,,,126,0,125,692.7441022999992,,,,,,,,,,,,,,,,,,,,,,,,,,,,,,692.7284779999973,692.7441022999992,693.2287527999979,,,,,,,,,,,,,,693.2522572999987,,,,,,,,,,,,,693.2492133999986,693.2522572999987,693.2522572999987,693.2522572999987,696.245046699998,f,1.5066630000001169,0.1912795999996888,696.2452240999992,696.2452825999972,None,,,,,,,,,,,,,,,,,00029,001,2025-11-17_19h57.21.052,MST_task,2024.2.0,59.709905396295326,2025-11-17 19h57.29.112233 +0530,
,Objects\052a.jpg,126,0,127,,,,,,,f,2.297491199999058,0.19213079999826732,None,,,,,,127,0,126,696.2610416999996,,,,,,,,,,,,,,,,,,,,,,,,,,,,,,696.2457157999997,696.2610416999996,696.7455138999976,,,,,,,,,,,,,,696.7652476000003,,,,,,,,,,,,,696.762068,696.7652476000003,696.7652476000003,696.7652476000003,699.7617614999981,f,2.297491199999058,0.19213079999826732,699.7683942999975,699.7684250999991,None,,,,,,,,,,,,,,,,,00029,001,2025-11-17_19h57.21.052,MST_task,2024.2.0,59.709905396295326,2025-11-17 19h57.29.112233 +0530,
,Objects\140a.jpg,127,0,128,,,,,,,j,1.8520222999977705,0.13671370000156458,None,,,,,,128,0,127,699.777510099997,,,,,,,,,,,,,,,,,,,,,,,,,,,,,,699.7685529999981,699.777510099997,700.2625098999997,,,,,,,,,,,,,,700.2820345999971,,,,,,,,,,,,,700.2793964999983,700.2820345999971,700.2820345999971,700.2820345999971,703.278507199997,j,1.8520222999977705,0.13671370000156458,703.278719599999,703.2787775999968,None,,,,,,,,,,,,,,,,,00029,001,2025-11-17_19h57.21.052,MST_task,2024.2.0,59.709905396295326,2025-11-17 19h57.29.112233 +0530,
,Objects\081a.jpg,128,0,129,,,,,,,j,1.6736874000016542,0.16005890000087675,None,,,,,,129,0,128,703.2944780999969,,,,,,,,,,,,,,,,,,,,,,,,,,,,,,703.2790831999991,703.2944780999969,703.7791188999981,,,,,,,,,,,,,,703.7970494999972,,,,,,,,,,,,,703.7943139999988,703.7970494999972,703.7970494999972,703.7970494999972,706.7952196999977,j,1.6736874000016542,0.16005890000087675,706.7953930000003,706.7954495999984,None,,,,,,,,,,,,,,,,,00029,001,2025-11-17_19h57.21.052,MST_task,2024.2.0,59.709905396295326,2025-11-17 19h57.29.112233 +0530,
,Objects\085a.jpg,129,0,130,,,,,,,None,,,j,1.894715599999472,None,,,,130,0,129,706.8111200999992,,,,,,,,,,,,,,,,,,,,,,,,,,,,,,706.7957572999985,706.8111200999992,707.2956018999976,,,,,,,,,,,,,,707.3129855999978,,,,,,,,,,,,,707.3104367999986,707.3129855999978,707.3129855999978,707.3129855999978,710.3117165999975,None,,,710.3118647999981,712.2301604999993,j,,,,710.3277017999972,710.3277017999972,1.894715599999472,None,,,,,,,,,,00029,001,2025-11-17_19h57.21.052,MST_task,2024.2.0,59.709905396295326,2025-11-17 19h57.29.112233 +0530,
,Objects\005a.jpg,130,0,131,,,,,,,f,2.372409100000368,0.15997300000162795,None,,,,,,131,0,130,712.2444909999977,,,,,,,,,,,,,,,,,,,,,,,,,,,,,,712.2306718,712.2444909999977,712.7289528000001,,,,,,,,,,,,,,712.7462543999973,,,,,,,,,,,,,712.7435522999986,712.7462543999973,712.7462543999973,712.7462543999973,715.7452998999979,f,2.372409100000368,0.15997300000162795,715.7454723999981,715.7455334999977,None,,,,,,,,,,,,,,,,,00029,001,2025-11-17_19h57.21.052,MST_task,2024.2.0,59.709905396295326,2025-11-17 19h57.29.112233 +0530,
,Objects\180a.jpg,131,0,132,,,,,,,f,2.41484280000077,0.1761478000007628,None,,,,,,132,0,131,715.7612066000002,,,,,,,,,,,,,,,,,,,,,,,,,,,,,,715.7460140000003,715.7612066000002,716.245941899997,,,,,,,,,,,,,,716.2636889999994,,,,,,,,,,,,,716.2609011999994,716.2636889999994,716.2636889999994,716.2636889999994,719.2619861999992,f,2.41484280000077,0.1761478000007628,719.2621548999996,719.2622131999997,None,,,,,,,,,,,,,,,,,00029,001,2025-11-17_19h57.21.052,MST_task,2024.2.0,59.709905396295326,2025-11-17 19h57.29.112233 +0530,
,Objects\037a.jpg,132,0,133,,,,,,,f,0.9518532000001869,0.17539770000075805,None,,,,,,133,0,132,719.2777002999974,,,,,,,,,,,,,,,,,,,,,,,,,,,,,,719.2625203999996,719.2777002999974,719.7623394999973,,,,,,,,,,,,,,719.7828929999996,,,,,,,,,,,,,719.7801728999984,719.7828929999996,719.7828929999996,719.7828929999996,722.7784506999997,f,0.9518532000001869,0.17539770000075805,722.7786058999991,722.7786586999973,None,,,,,,,,,,,,,,,,,00029,001,2025-11-17_19h57.21.052,MST_task,2024.2.0,59.709905396295326,2025-11-17 19h57.29.112233 +0530,
,Scenes\053a.jpg,133,0,134,,,,,,,j,1.7241896999985329,0.1681626999998116,None,,,,,,134,0,133,722.7944906999983,,,,,,,,,,,,,,,,,,,,,,,,,,,,,,722.7790862000002,722.7944906999983,723.2789425999981,,,,,,,,,,,,,,723.298424499997,,,,,,,,,,,,,723.2954167999997,723.298424499997,723.298424499997,723.298424499997,726.2951761000004,j,1.7241896999985329,0.1681626999998116,726.3008673999975,726.3009074999973,None,,,,,,,,,,,,,,,,,00029,001,2025-11-17_19h57.21.052,MST_task,2024.2.0,59.709905396295326,2025-11-17 19h57.29.112233 +0530,
,Scenes\168a.jpg,134,0,135,,,,,,,j,0.8265700999982073,0.1599917000021378,None,,,,,,135,0,134,726.3109052999971,,,,,,,,,,,,,,,,,,,,,,,,,,,,,,726.3011495999999,726.3109052999971,726.7948255999981,,,,,,,,,,,,,,726.8116336999992,,,,,,,,,,,,,726.8002248999983,726.8116336999992,726.8116336999992,726.8116336999992,729.7964140000004,j,0.8265700999982073,0.1599917000021378,729.7965901999996,729.7966481999974,None,729.8109124999974,729.8109124999974,729.8109124999974,,,,,,,,,,,,,,00029,001,2025-11-17_19h57.21.052,MST_task,2024.2.0,59.709905396295326,2025-11-17 19h57.29.112233 +0530,
,Scenes\088a.jpg,135,0,136,,,,,,,j,1.5175721999985399,0.12717370000245865,None,,,,,,136,0,135,729.8109124999974,,,,,,,,,,,,,,,,,,,,,,,,,,,,,,729.7969429999976,729.8109124999974,730.2958720999995,,,,,,,,,,,,,,730.3211765999986,,,,,,,,,,,,,730.3176813999999,730.3211765999986,730.3211765999986,730.3211765999986,733.3117788999989,j,1.5175721999985399,0.12717370000245865,733.3119426999983,733.3119993999971,None,,,,,,,,,,,,,,,,,00029,001,2025-11-17_19h57.21.052,MST_task,2024.2.0,59.709905396295326,2025-11-17 19h57.29.112233 +0530,
,Scenes\158a.jpg,136,0,137,,,,,,,f,1.4798754999974335,0.15171580000242102,None,,,,,,137,0,136,733.3277226999999,,,,,,,,,,,,,,,,,,,,,,,,,,,,,,733.3124303000004,733.3277226999999,733.812398099999,,,,,,,,,,,,,,733.839133999998,,,,,,,,,,,,,733.835610099999,733.839133999998,733.839133999998,733.839133999998,736.8285398999978,f,1.4798754999974335,0.15171580000242102,736.8287074999971,736.8287657000001,None,,,,,,,,,,,,,,,,,00029,001,2025-11-17_19h57.21.052,MST_task,2024.2.0,59.709905396295326,2025-11-17 19h57.29.112233 +0530,
,Scenes\130a.jpg,137,0,138,,,,,,,j,1.7312750999990385,0.15921479999815347,None,,,,,,138,0,137,736.8445630999995,,,,,,,,,,,,,,,,,,,,,,,,,,,,,,736.8290746999992,736.8445630999995,737.3288407,,,,,,,,,,,,,,737.3555885999995,,,,,,,,,,,,,737.3520807999994,737.3555885999995,737.3555885999995,737.3555885999995,740.3451738999975,j,1.7312750999990385,0.15921479999815347,740.3453416999982,740.3453986999994,None,,,,,,,,,,,,,,,,,00029,001,2025-11-17_19h57.21.052,MST_task,2024.2.0,59.709905396295326,2025-11-17 19h57.29.112233 +0530,
,Scenes\001a.jpg,138,0,139,,,,,,,f,2.8149893000008888,0.15207490000102553,None,,,,,,139,0,138,740.361234,,,,,,,,,,,,,,,,,,,,,,,,,,,,,,740.3457111999996,740.361234,740.8454451999969,,,,,,,,,,,,,,740.8717734999991,,,,,,,,,,,,,740.8683667999976,740.8717734999991,740.8717734999991,740.8717734999991,743.8615828999973,f,2.8149893000008888,0.15207490000102553,743.861947399997,743.8620249999985,None,,,,,,,,,,,,,,,,,00029,001,2025-11-17_19h57.21.052,MST_task,2024.2.0,59.709905396295326,2025-11-17 19h57.29.112233 +0530,
,Scenes\187a.jpg,139,0,140,,,,,,,j,0.778538300000946,0.13593659999969532,None,,,,,,140,0,139,743.8775088999973,,,,,,,,,,,,,,,,,,,,,,,,,,,,,,743.8624638999972,743.8775088999973,744.3621535999991,,,,,,,,,,,,,,744.3876386999982,,,,,,,,,,,,,744.3842052999971,744.3876386999982,744.3876386999982,744.3876386999982,747.3782816999992,j,0.778538300000946,0.13593659999969532,747.3784487999983,747.3785069999976,None,,,,,,,,,,,,,,,,,00029,001,2025-11-17_19h57.21.052,MST_task,2024.2.0,59.709905396295326,2025-11-17 19h57.29.112233 +0530,
,Objects\171a.jpg,140,0,141,,,,,,,j,1.8141584999975748,0.16006779999952414,None,,,,,,141,0,140,747.3944145999994,,,,,,,,,,,,,,,,,,,,,,,,,,,,,,747.3788108999979,747.3944145999994,747.8784869999981,,,,,,,,,,,,,,747.8965191999996,,,,,,,,,,,,,747.8931883999976,747.8965191999996,747.8965191999996,747.8965191999996,750.8948863999976,j,1.8141584999975748,0.16006779999952414,750.9008689000002,750.9008979999999,None,,,,,,,,,,,,,,,,,00029,001,2025-11-17_19h57.21.052,MST_task,2024.2.0,59.709905396295326,2025-11-17 19h57.29.112233 +0530,
,Objects\059a.jpg,141,0,142,,,,,,,j,2.642907900000864,0.09585449999940465,None,,,,,,142,0,141,750.9109285999984,,,,,,,,,,,,,,,,,,,,,,,,,,,,,,750.9010610999976,750.9109285999984,751.3954477999978,,,,,,,,,,,,,,751.4112499000003,,,,,,,,,,,,,751.4029998999977,751.4112499000003,751.4112499000003,751.4112499000003,754.3966308999989,j,2.642907900000864,0.09585449999940465,754.3968096999997,754.3968656999969,None,754.4109677999986,754.4109677999986,754.4109677999986,,,,,,,,,,,,,,00029,001,2025-11-17_19h57.21.052,MST_task,2024.2.0,59.709905396295326,2025-11-17 19h57.29.112233 +0530,
,Objects\053a.jpg,142,0,143,,,,,,,f,0.9646904999972321,0.19151620000047842,None,,,,,,143,0,142,754.4109677999986,,,,,,,,,,,,,,,,,,,,,,,,,,,,,,754.3972929999982,754.4109677999986,754.8954441999995,,,,,,,,,,,,,,754.9138965999991,,,,,,,,,,,,,754.9112701999984,754.9138965999991,754.9138965999991,754.9138965999991,757.9116385999987,f,0.9646904999972321,0.19151620000047842,757.9118277999987,757.9118933999998,None,,,,,,,,,,,,,,,,,00029,001,2025-11-17_19h57.21.052,MST_task,2024.2.0,59.709905396295326,2025-11-17 19h57.29.112233 +0530,
,Objects\127a.jpg,143,0,144,,,,,,,f,0.8976860000002489,0.17464140000083717,None,,,,,,144,0,143,757.9275137999975,,,,,,,,,,,,,,,,,,,,,,,,,,,,,,757.9123275999991,757.9275137999975,758.4124491999974,,,,,,,,,,,,,,758.4299092000001,,,,,,,,,,,,,758.4271676999997,758.4299092000001,758.4299092000001,758.4299092000001,761.4282475999971,f,0.8976860000002489,0.17464140000083717,761.428409199998,761.4284685999992,None,,,,,,,,,,,,,,,,,00029,001,2025-11-17_19h57.21.052,MST_task,2024.2.0,59.709905396295326,2025-11-17 19h57.29.112233 +0530,
,Objects\145a.jpg,144,0,145,,,,,,,f,0.9881719000004523,0.15988709999874118,None,,,,,,145,0,144,761.4445796999971,,,,,,,,,,,,,,,,,,,,,,,,,,,,,,761.4288331999996,761.4445796999971,761.9288473999986,,,,,,,,,,,,,,761.9466140000004,,,,,,,,,,,,,761.9439251000003,761.9466140000004,761.9466140000004,761.9466140000004,764.9451152999973,f,0.9881719000004523,0.15988709999874118,764.9453440999969,764.9454045999992,None,,,,,,,,,,,,,,,,,00029,001,2025-11-17_19h57.21.052,MST_task,2024.2.0,59.709905396295326,2025-11-17 19h57.29.112233 +0530,
,Objects\026a.jpg,145,0,146,,,,,,,f,1.5297643000012613,0.1838047999990522,None,,,,,,146,0,145,764.9610699999976,,,,,,,,,,,,,,,,,,,,,,,,,,,,,,764.9458328000001,764.9610699999976,765.4457670999982,,,,,,,,,,,,,,765.4610939999984,,,,,,,,,,,,,765.4566884999986,765.4610939999984,765.4610939999984,765.4610939999984,768.4466027999988,f,1.5297643000012613,0.1838047999990522,768.4467960000002,768.4468517999994,None,768.4610375999982,768.4610375999982,768.4610375999982,,,,,,,,,,,,,,00029,001,2025-11-17_19h57.21.052,MST_task,2024.2.0,59.709905396295326,2025-11-17 19h57.29.112233 +0530,
,Objects\092a.jpg,146,0,147,,,,,,,f,1.6084209000000556,0.14417319999847678,None,,,,,,147,0,146,768.4610375999982,,,,,,,,,,,,,,,,,,,,,,,,,,,,,,768.4472934999976,768.4610375999982,768.9455252999978,,,,,,,,,,,,,,768.9660778999969,,,,,,,,,,,,,768.9634504999995,768.9660778999969,768.9660778999969,768.9660778999969,771.9617734999993,f,1.6084209000000556,0.14417319999847678,771.9619449999991,771.9620077999971,None,,,,,,,,,,,,,,,,,00029,001,2025-11-17_19h57.21.052,MST_task,2024.2.0,59.709905396295326,2025-11-17 19h57.29.112233 +0530,
,Scenes\002a.jpg,147,0,148,,,,,,,j,2.1635197999967204,0.14315020000140066,None,,,,,,148,0,147,771.9775192999987,,,,,,,,,,,,,,,,,,,,,,,,,,,,,,771.9626275999981,771.9775192999987,772.4622834999973,,,,,,,,,,,,,,772.4915016999985,,,,,,,,,,,,,772.4880389999998,772.4915016999985,772.4915016999985,772.4915016999985,775.4782863,j,2.1635197999967204,0.14315020000140066,775.4833183999981,775.4833507000003,None,,,,,,,,,,,,,,,,,00029,001,2025-11-17_19h57.21.052,MST_task,2024.2.0,59.709905396295326,2025-11-17 19h57.29.112233 +0530,
,Scenes\128a.jpg,148,0,149,,,,,,,j,2.186981700000615,0.1440848999991431,None,,,,,,149,0,148,775.4941512999976,,,,,,,,,,,,,,,,,,,,,,,,,,,,,,775.483558099997,775.4941512999976,775.9789068999999,,,,,,,,,,,,,,776.0039682999995,,,,,,,,,,,,,776.000673399998,776.0039682999995,776.0039682999995,776.0039682999995,778.9949349999988,j,2.186981700000615,0.1440848999991431,778.9950553999988,778.9950966999968,None,,,,,,,,,,,,,,,,,00029,001,2025-11-17_19h57.21.052,MST_task,2024.2.0,59.709905396295326,2025-11-17 19h57.29.112233 +0530,
,Scenes\041a.jpg,149,0,150,,,,,,,j,0.7463604000004125,0.160026999998081,None,,,,,,150,0,149,779.0109335999987,,,,,,,,,,,,,,,,,,,,,,,,,,,,,,778.9954408999984,779.0109335999987,779.495479199999,,,,,,,,,,,,,,779.523939499999,,,,,,,,,,,,,779.5206237999992,779.523939499999,779.523939499999,779.523939499999,782.5116316999993,j,0.7463604000004125,0.160026999998081,782.5117795999977,782.5118317999986,None,,,,,,,,,,,,,,,,,00029,001,2025-11-17_19h57.21.052,MST_task,2024.2.0,59.709905396295326,2025-11-17 19h57.29.112233 +0530,
,Scenes\078a.jpg,150,0,151,,,,,,,j,1.7844013999965682,0.14429470000322908,None,,,,,,151,0,150,782.5275846999975,,,,,,,,,,,,,,,,,,,,,,,,,,,,,,782.5121005000001,782.5275846999975,783.0123587999988,,,,,,,,,,,,,,783.037755399997,,,,,,,,,,,,,783.0344668999969,783.037755399997,783.037755399997,783.037755399997,786.0281813999973,j,1.7844013999965682,0.14429470000322908,786.0283477999983,786.028405099998,None,,,,,,,,,,,,,,,,,00029,001,2025-11-17_19h57.21.052,MST_task,2024.2.0,59.709905396295326,2025-11-17 19h57.29.112233 +0530,
,Scenes\085a.jpg,151,0,152,,,,,,,j,1.380833100000018,0.13615110000318964,None,,,,,,152,0,151,786.0443051000002,,,,,,,,,,,,,,,,,,,,,,,,,,,,,,786.0288344999972,786.0443051000002,786.5285750000003,,,,,,,,,,,,,,786.5534488999983,,,,,,,,,,,,,786.5502006999996,786.5534488999983,786.5534488999983,786.5534488999983,789.5449738999996,j,1.380833100000018,0.13615110000318964,789.5451393000003,789.5451952999974,None,,,,,,,,,,,,,,,,,00029,001,2025-11-17_19h57.21.052,MST_task,2024.2.0,59.709905396295326,2025-11-17 19h57.29.112233 +0530,
,Scenes\017a.jpg,152,0,153,,,,,,,f,1.0646628000031342,0.16834759999983362,None,,,,,,153,0,152,789.5609597000002,,,,,,,,,,,,,,,,,,,,,,,,,,,,,,789.5456083999998,789.5609597000002,790.0456118000002,,,,,,,,,,,,,,790.0701762999997,,,,,,,,,,,,,790.066863,790.0701762999997,790.0701762999997,790.0701762999997,793.0616999999984,f,1.0646628000031342,0.16834759999983362,793.0618667999988,793.0619262999971,None,,,,,,,,,,,,,,,,,00029,001,2025-11-17_19h57.21.052,MST_task,2024.2.0,59.709905396295326,2025-11-17 19h57.29.112233 +0530,
,Scenes\107a.jpg,153,0,154,,,,,,,j,1.8112762999990082,0.1517469999998866,None,,,,,,154,0,153,793.0774547999972,,,,,,,,,,,,,,,,,,,,,,,,,,,,,,793.0624008999985,793.0774547999972,793.561868599998,,,,,,,,,,,,,,793.5870561999982,,,,,,,,,,,,,793.5837474,793.5870561999982,793.5870561999982,793.5870561999982,796.5784195999986,j,1.8112762999990082,0.1517469999998866,796.5785907999998,796.5786480999996,None,,,,,,,,,,,,,,,,,00029,001,2025-11-17_19h57.21.052,MST_task,2024.2.0,59.709905396295326,2025-11-17 19h57.29.112233 +0530,
,Objects\112a.jpg,154,0,155,,,,,,,f,2.5242565000007744,0.1762072999990778,None,,,,,,155,0,154,796.5945973999987,,,,,,,,,,,,,,,,,,,,,,,,,,,,,,796.5789503999986,796.5945973999987,797.0782874999968,,,,,,,,,,,,,,797.0983011999997,,,,,,,,,,,,,797.0951442999976,797.0983011999997,797.0983011999997,797.0983011999997,800.0951477999988,f,2.5242565000007744,0.1762072999990778,800.1017446999977,800.1017620999992,None,,,,,,,,,,,,,,,,,00029,001,2025-11-17_19h57.21.052,MST_task,2024.2.0,59.709905396295326,2025-11-17 19h57.29.112233 +0530,
,Objects\073a.jpg,155,0,156,,,,,,,f,0.78550499999983,0.21706719999929192,None,,,,,,156,0,155,800.1109641999974,,,,,,,,,,,,,,,,,,,,,,,,,,,,,,800.1018344999975,800.1109641999974,800.5956136999994,,,,,,,,,,,,,,800.6129758999996,,,,,,,,,,,,,800.6101713999997,800.6129758999996,800.6129758999996,800.6129758999996,803.6117748999968,f,0.78550499999983,0.21706719999929192,803.6119424999997,803.6120013,None,,,,,,,,,,,,,,,,,00029,001,2025-11-17_19h57.21.052,MST_task,2024.2.0,59.709905396295326,2025-11-17 19h57.29.112233 +0530,
,Objects\023a.jpg,156,0,157,,,,,,,f,1.100770699998975,0.16730380000080913,None,,,,,,157,0,156,803.6276335000002,,,,,,,,,,,,,,,,,,,,,,,,,,,,,,803.6124249999993,803.6276335000002,804.1119273000004,,,,,,,,,,,,,,804.1299551999982,,,,,,,,,,,,,804.127351799998,804.1299551999982,804.1299551999982,804.1299551999982,807.1282355999974,f,1.100770699998975,0.16730380000080913,807.1284311999989,807.1284904999993,None,,,,,,,,,,,,,,,,,00029,001,2025-11-17_19h57.21.052,MST_task,2024.2.0,59.709905396295326,2025-11-17 19h57.29.112233 +0530,
,Objects\036a.jpg,157,0,158,,,,,,,f,2.0500687999992806,0.17694530000153463,None,,,,,,158,0,157,807.1443002999986,,,,,,,,,,,,,,,,,,,,,,,,,,,,,,807.1287975999985,807.1443002999986,807.6286058999976,,,,,,,,,,,,,,807.6445210999991,,,,,,,,,,,,,807.6359957999994,807.6445210999991,807.6445210999991,807.6445210999991,810.6294785999999,f,2.0500687999992806,0.17694530000153463,810.6296487,810.6297035999996,None,810.6444187999987,810.6444187999987,810.6444187999987,,,,,,,,,,,,,,00029,001,2025-11-17_19h57.21.052,MST_task,2024.2.0,59.709905396295326,2025-11-17 19h57.29.112233 +0530,
,Objects\087a.jpg,158,0,159,,,,,,,j,1.0677778999997827,0.17520089999743504,None,,,,,,159,0,158,810.6444187999987,,,,,,,,,,,,,,,,,,,,,,,,,,,,,,810.630002599999,810.6444187999987,811.1289574999973,,,,,,,,,,,,,,811.1469856999975,,,,,,,,,,,,,811.1443884,811.1469856999975,811.1469856999975,811.1469856999975,814.144929799997,j,1.0677778999997827,0.17520089999743504,814.1450928999984,814.1451507999991,None,,,,,,,,,,,,,,,,,00029,001,2025-11-17_19h57.21.052,MST_task,2024.2.0,59.709905396295326,2025-11-17 19h57.29.112233 +0530,
,Objects\028a.jpg,159,0,160,,,,,,,j,1.8871026000015263,0.12837020000006305,None,,,,,,160,0,159,814.1612061999986,,,,,,,,,,,,,,,,,,,,,,,,,,,,,,814.1455800999975,814.1612061999986,814.6455480000004,,,,,,,,,,,,,,814.6630514999997,,,,,,,,,,,,,814.6603063999974,814.6630514999997,814.6630514999997,814.6630514999997,817.6618340999994,j,1.8871026000015263,0.12837020000006305,817.6620016999987,817.6620586999998,None,,,,,,,,,,,,,,,,,00029,001,2025-11-17_19h57.21.052,MST_task,2024.2.0,59.709905396295326,2025-11-17 19h57.29.112233 +0530,
,Objects\075a.jpg,160,0,161,,,,,,,f,1.3553294999983336,0.1753850000022794,None,,,,,,161,0,160,817.6777135999982,,,,,,,,,,,,,,,,,,,,,,,,,,,,,,817.6625711999986,817.6777135999982,818.1623067999972,,,,,,,,,,,,,,818.1793559999969,,,,,,,,,,,,,818.1766449999996,818.1793559999969,818.1793559999969,818.1793559999969,821.178426399998,f,1.3553294999983336,0.1753850000022794,821.1785879999989,821.1786460000003,None,,,,,,,,,,,,,,,,,00029,001,2025-11-17_19h57.21.052,MST_task,2024.2.0,59.709905396295326,2025-11-17 19h57.29.112233 +0530,
,Scenes\050a.jpg,161,0,162,,,,,,,j,1.5510465000006661,0.04789879999952973,None,,,,,,162,0,161,821.1946256999981,,,,,,,,,,,,,,,,,,,,,,,,,,,,,,821.1790671999988,821.1946256999981,821.6789599999975,,,,,,,,,,,,,,821.7030947999992,,,,,,,,,,,,,821.6996660999976,821.7030947999992,821.7030947999992,821.7030947999992,824.6953519999988,j,1.5510465000006661,0.04789879999952973,824.7023308999997,824.7023459999982,None,,,,,,,,,,,,,,,,,00029,001,2025-11-17_19h57.21.052,MST_task,2024.2.0,59.709905396295326,2025-11-17 19h57.29.112233 +0530,
,Scenes\066a.jpg,162,0,163,,,,,,,j,1.0030411999978242,0.17531719999897177,None,,,,,,163,0,162,824.7111624999998,,,,,,,,,,,,,,,,,,,,,,,,,,,,,,824.7024538999976,824.7111624999998,825.1949451999972,,,,,,,,,,,,,,825.211710399999,,,,,,,,,,,,,825.2000697000003,825.211710399999,825.211710399999,825.211710399999,828.1967339000003,j,1.0030411999978242,0.17531719999897177,828.1969087999969,828.1969661000003,None,828.2111587999971,828.2111587999971,828.2111587999971,,,,,,,,,,,,,,00029,001,2025-11-17_19h57.21.052,MST_task,2024.2.0,59.709905396295326,2025-11-17 19h57.29.112233 +0530,
,Scenes\055a.jpg,163,0,164,,,,,,,j,1.5426324000000022,0.11848610000015469,None,,,,,,164,0,163,828.2111587999971,,,,,,,,,,,,,,,,,,,,,,,,,,,,,,828.1974100999978,828.2111587999971,828.6957273999978,,,,,,,,,,,,,,828.7209896999993,,,,,,,,,,,,,828.7178912999989,828.7209896999993,828.7209896999993,828.7209896999993,831.7118088999996,j,1.5426324000000022,0.11848610000015469,831.7119715999979,831.7120279999981,None,,,,,,,,,,,,,,,,,00029,001,2025-11-17_19h57.21.052,MST_task,2024.2.0,59.709905396295326,2025-11-17 19h57.29.112233 +0530,
,Scenes\009a.jpg,164,0,165,,,,,,,f,2.5538802000010037,0.12838869999905,None,,,,,,165,0,164,831.7277584000003,,,,,,,,,,,,,,,,,,,,,,,,,,,,,,831.7123320999999,831.7277584000003,832.2124428999996,,,,,,,,,,,,,,832.2443803999995,,,,,,,,,,,,,832.2409357999968,832.2443803999995,832.2443803999995,832.2443803999995,835.2284349000001,f,2.5538802000010037,0.12838869999905,835.2286022999979,835.228660599998,None,,,,,,,,,,,,,,,,,00029,001,2025-11-17_19h57.21.052,MST_task,2024.2.0,59.709905396295326,2025-11-17 19h57.29.112233 +0530,
,Scenes\164a.jpg,165,0,166,,,,,,,j,1.8951840000008815,0.19189170000026934,None,,,,,,166,0,165,835.2445759000002,,,,,,,,,,,,,,,,,,,,,,,,,,,,,,835.2289638000002,835.2445759000002,835.7290111000002,,,,,,,,,,,,,,835.7510277000001,,,,,,,,,,,,,835.747582699998,835.7510277000001,835.7510277000001,835.7510277000001,838.7452626999984,j,1.8951840000008815,0.19189170000026934,838.7454407999976,838.7455028000004,None,,,,,,,,,,,,,,,,,00029,001,2025-11-17_19h57.21.052,MST_task,2024.2.0,59.709905396295326,2025-11-17 19h57.29.112233 +0530,
,Scenes\073a.jpg,166,0,167,,,,,,,j,0.8574208999998518,0.11899580000317656,None,,,,,,167,0,166,838.7611894000001,,,,,,,,,,,,,,,,,,,,,,,,,,,,,,838.7458514999998,838.7611894000001,839.2455821000003,,,,,,,,,,,,,,839.2618932999976,,,,,,,,,,,,,839.2554156999977,839.2618932999976,839.2618932999976,839.2618932999976,842.246484299998,j,0.8574208999998518,0.11899580000317656,842.2466538999979,842.2467097999979,None,842.2611077999973,842.2611077999973,842.2611077999973,,,,,,,,,,,,,,00029,001,2025-11-17_19h57.21.052,MST_task,2024.2.0,59.709905396295326,2025-11-17 19h57.29.112233 +0530,
,Scenes\045a.jpg,167,0,168,,,,,,,f,2.0146415999988676,0.151933299999655,None,,,,,,168,0,167,842.2611077999973,,,,,,,,,,,,,,,,,,,,,,,,,,,,,,842.247147799997,842.2611077999973,842.7454508999981,,,,,,,,,,,,,,842.7755968999991,,,,,,,,,,,,,842.7722803999968,842.7755968999991,842.7755968999991,842.7755968999991,845.761894299998,f,2.0146415999988676,0.151933299999655,845.7620605999982,845.7621193999985,None,,,,,,,,,,,,,,,,,00029,001,2025-11-17_19h57.21.052,MST_task,2024.2.0,59.709905396295326,2025-11-17 19h57.29.112233 +0530,
,Objects\188a.jpg,168,0,169,,,,,,,f,2.3308762999986357,0.19226029999845196,None,,,,,,169,0,168,845.7777440999998,,,,,,,,,,,,,,,,,,,,,,,,,,,,,,845.7624250999979,845.7777440999998,846.2623463999989,,,,,,,,,,,,,,846.2832849999977,,,,,,,,,,,,,846.279775199997,846.2832849999977,846.2832849999977,846.2832849999977,849.2781880999974,f,2.3308762999986357,0.19226029999845196,849.2851921999973,849.2852222999973,None,,,,,,,,,,,,,,,,,00029,001,2025-11-17_19h57.21.052,MST_task,2024.2.0,59.709905396295326,2025-11-17 19h57.29.112233 +0530,
