Sl_no,image_path,thisN,thisTrialN,thisRepN,key_resp_5.keys,key_resp_7.keys,key_resp_7.rt,key_resp_7.duration,key_resp_5.rt,key_resp_5.duration,key_resp_9.keys,key_resp_9.rt,key_resp_9.duration,key_resp_8.keys,key_resp_8.rt,key_resp_8.duration,practice.thisRepN,practice.thisTrialN,practice.thisN,trials.thisRepN,trials.thisTrialN,trials.thisN,thisRow.t,notes,welcome_page.started,text.started,key_resp.started,welcome_page.stopped,key_resp.keys,key_resp.rt,key_resp.duration,instructions.started,ins.started,key_resp_2.started,instructions.stopped,key_resp_2.keys,key_resp_2.rt,key_resp_2.duration,instructions_2.started,text_10.started,key_resp_10.started,instructions_2.stopped,key_resp_10.keys,key_resp_10.rt,key_resp_10.duration,objects_only_instruction.started,text_3.started,key_resp_3.started,objects_only_instruction.stopped,key_resp_3.keys,key_resp_3.rt,key_resp_3.duration,ISI.started,text_4.started,ISI.stopped,practice_block.started,image.started,text_5.started,key_resp_5.started,practice_block.stopped,practice.key_resp_5.keys,indoor_outdoor.started,text_7.started,key_resp_7.started,indoor_outdoor.stopped,practice.key_resp_7.keys,practice.key_resp_7.rt,practice.key_resp_7.duration,text_4.stopped,practice.key_resp_5.rt,practice.key_resp_5.duration,image.stopped,text_5.stopped,key_resp_5.stopped,practice_to_main.started,text_2.started,key_resp_4.started,practice_to_main.stopped,key_resp_4.keys,key_resp_4.rt,key_resp_4.duration,objects.started,image_2.started,text_9.started,key_resp_9.started,objects.stopped,trials.key_resp_9.keys,trials.key_resp_9.rt,trials.key_resp_9.duration,encoding_task.started,encoding_task.stopped,trials.key_resp_8.keys,text_8.started,key_resp_8.started,trials.key_resp_8.rt,trials.key_resp_8.duration,image_2.stopped,text_9.stopped,key_resp_9.stopped,end_experiment.started,text_6.started,key_resp_6.started,end_experiment.stopped,key_resp_6.keys,key_resp_6.rt,key_resp_6.duration,list_of_stimuli,encoding_task_accuracy,participant,session,date,expName,psychopyVersion,frameRate,expStart,
,,,,,,,,,,,,,,,,,,,,,,,,,0.001782100007403642,0.0038232000079005957,0.0038232000079005957,1070.4932282000082,space,1070.43342820002,None,,,,,,,,,,,,,,,,,,,,,,,,,,,,,,,,,,,,,,,,,,,,,,,,,,,,,,,,,,,,,,,,,,,,,,,,,,,,,,00031,001,2025-11-21_15h47.15.320,MST_task,2024.2.0,59.9244113440032,2025-11-21 15h47.23.591839 +0530,
,,,,,,,,,,,,,,,,,,,,,,,,,,,,,,,,1070.4932769999723,1070.506258599984,1070.506258599984,1090.075950199971,space,19.56272520002676,None,,,,,,,,,,,,,,,,,,,,,,,,,,,,,,,,,,,,,,,,,,,,,,,,,,,,,,,,,,,,,,,,,,,,,,,00031,001,2025-11-21_15h47.15.320,MST_task,2024.2.0,59.9244113440032,2025-11-21 15h47.23.591839 +0530,
,,,,,,,,,,,,,,,,,,,,,,,,,,,,,,,,,,,,,,,1090.076029799995,1090.090492999996,1090.090492999996,1105.8262318999623,space,15.729976699978579,None,,,,,,,,,,,,,,,,,,,,,,,,,,,,,,,,,,,,,,,,,,,,,,,,,,,,,,,,,,,,,,,,00031,001,2025-11-21_15h47.15.320,MST_task,2024.2.0,59.9244113440032,2025-11-21 15h47.23.591839 +0530,
,,,,,,,,,,,,,,,,,,,,,,,,,,,,,,,,,,,,,,,,,,,,,,1105.8263486999786,1105.8408507999848,1105.8408507999848,1122.7259885999956,space,16.87619340000674,None,,,,,,,,,,,,,,,,,,,,,,,,,,,,,,,,,,,,,,,,,,,,,,,,,,,,,,,,,00031,001,2025-11-21_15h47.15.320,MST_task,2024.2.0,59.9244113440032,2025-11-21 15h47.23.591839 +0530,
6,practice_images/158a.jpg,0,0,1,None,j,0.29206329997396097,None,,,,,,,,,1,0,0,,,,1122.751262500009,,,,,,,,,,,,,,,,,,,,,,,,,,,,,,1122.748575799982,1122.751262500009,1123.2408058000146,1123.2614914999576,1123.2737830000115,1123.2737830000115,1123.2737830000115,1126.2408081999747,None,1126.2444619999733,1126.2568373999675,1126.2568373999675,1126.559515699977,j,0.29206329997396097,None,,,,,,,,,,,,,,,,,,,,,,,,,,,,,,,,,,,,,,,,,00031,001,2025-11-21_15h47.15.320,MST_task,2024.2.0,59.9244113440032,2025-11-21 15h47.23.591839 +0530,
1,practice_images/013a.jpg,1,1,1,f,None,,,2.2087341000442393,0.17599889996927232,,,,,,,1,1,1,,,,1126.5737949999748,,,,,,,,,,,,,,,,,,,,,,,,,,,,,,1126.5598893999704,1126.5737949999748,1127.0583216999657,1127.0733753999812,1127.0758475000039,1127.0758475000039,1127.0758475000039,1130.0743726000073,f,1130.0745199999656,,,1130.0745813999674,None,,,1127.0758475000039,2.2087341000442393,0.17599889996927232,,,,,,,,,,,,,,,,,,,,,,,,,,,,,,,,,,,,,,00031,001,2025-11-21_15h47.15.320,MST_task,2024.2.0,59.9244113440032,2025-11-21 15h47.23.591839 +0530,
10,practice_images/182a.jpg,2,2,1,f,None,,,1.4458392999949865,0.19144470000173897,,,,,,,1,2,2,,,,1130.0906857000082,,,,,,,,,,,,,,,,,,,,,,,,,,,,,,1130.0748835999984,1130.0906857000082,1130.5749142999994,1130.588481999992,1130.591377499979,1130.591377499979,1130.591377499979,1133.5751288000029,f,1133.5752262999886,,,1133.575265499996,None,,,1130.591377499979,1.4458392999949865,0.19144470000173897,1133.5904994999873,1133.5904994999873,1133.5904994999873,,,,,,,,,,,,,,,,,,,,,,,,,,,,,,,,,,,00031,001,2025-11-21_15h47.15.320,MST_task,2024.2.0,59.9244113440032,2025-11-21 15h47.23.591839 +0530,
8,practice_images/178a.jpg,3,3,1,f,None,,,1.1601009999867529,0.17563190002692863,,,,,,,1,3,3,,,,1133.5904994999873,,,,,,,,,,,,,,,,,,,,,,,,,,,,,,1133.5754432000103,1133.5904994999873,1134.0749976999941,1134.090651299979,1134.092938899994,1134.092938899994,1134.092938899994,1137.0910366000026,f,1137.091166099999,,,1137.0912165999762,None,,,1134.092938899994,1.1601009999867529,0.17563190002692863,,,,,,,,,,,,,,,,,,,,,,,,,,,,,,,,,,,,,,00031,001,2025-11-21_15h47.15.320,MST_task,2024.2.0,59.9244113440032,2025-11-21 15h47.23.591839 +0530,
3,practice_images/037a.jpg,4,4,1,f,None,,,1.411703099962324,0.17595620005158707,,,,,,,1,4,4,,,,1137.107097900007,,,,,,,,,,,,,,,,,,,,,,,,,,,,,,1137.091498099966,1137.107097900007,1137.5919420999708,1137.607036500005,1137.6095169999753,1137.6095169999753,1137.6095169999753,1140.607958699984,f,1140.6081084999605,,,1140.6081702999654,None,,,1137.6095169999753,1.411703099962324,0.17595620005158707,,,,,,,,,,,,,,,,,,,,,,,,,,,,,,,,,,,,,,00031,001,2025-11-21_15h47.15.320,MST_task,2024.2.0,59.9244113440032,2025-11-21 15h47.23.591839 +0530,
5,practice_images/139a.jpg,5,5,1,j,None,,,2.299732400046196,0.1847884999588132,,,,,,,1,5,5,,,,1140.6238502999768,,,,,,,,,,,,,,,,,,,,,,,,,,,,,,1140.6084553999826,1140.6238502999768,1141.1082116999896,1141.1505784000037,1141.1527982999687,1141.1527982999687,1141.1527982999687,1144.1245190000045,j,1144.1321726999595,,,1144.1321912999847,None,,,1141.1527982999687,2.299732400046196,0.1847884999588132,,,,,,,,,,,,,,,,,,,,,,,,,,,,,,,,,,,,,,00031,001,2025-11-21_15h47.15.320,MST_task,2024.2.0,59.9244113440032,2025-11-21 15h47.23.591839 +0530,
9,practice_images/180a.jpg,6,6,1,j,None,,,2.1320816000225022,0.24019169999519363,,,,,,,1,6,6,,,,1144.1403653000016,,,,,,,,,,,,,,,,,,,,,,,,,,,,,,1144.1322553000064,1144.1403653000016,1144.6249690999975,1144.637839699979,1144.640599699982,1144.640599699982,1144.640599699982,1147.6256182999932,j,1147.6257633999921,,,1147.6258220999734,None,,,1144.640599699982,2.1320816000225022,0.24019169999519363,1147.6405447999714,1147.6405447999714,1147.6405447999714,,,,,,,,,,,,,,,,,,,,,,,,,,,,,,,,,,,00031,001,2025-11-21_15h47.15.320,MST_task,2024.2.0,59.9244113440032,2025-11-21 15h47.23.591839 +0530,
2,practice_images/031a.jpg,7,7,1,j,None,,,2.014170999987982,0.19226899999193847,,,,,,,1,7,7,,,,1147.6405447999714,,,,,,,,,,,,,,,,,,,,,,,,,,,,,,1147.626080099959,1147.6405447999714,1148.1250230000005,1148.1402299999609,1148.142620700004,1148.142620700004,1148.142620700004,1151.141196499986,j,1151.141376100015,,,1151.1414384999662,None,,,1148.142620700004,2.014170999987982,0.19226899999193847,,,,,,,,,,,,,,,,,,,,,,,,,,,,,,,,,,,,,,00031,001,2025-11-21_15h47.15.320,MST_task,2024.2.0,59.9244113440032,2025-11-21 15h47.23.591839 +0530,
4,practice_images/002b.jpg,8,8,1,j,None,,,1.754864600021392,0.20731759996851906,,,,,,,1,8,8,,,,1151.1570437999908,,,,,,,,,,,,,,,,,,,,,,,,,,,,,,1151.1417229999788,1151.1570437999908,1151.641862599994,1151.6558316000155,1151.6582213999936,1151.6582213999936,1151.6582213999936,1154.6420781000052,j,1154.642221599992,,,1154.6422735999804,None,,,1151.6582213999936,1.754864600021392,0.20731759996851906,1154.657048199966,1154.657048199966,1154.657048199966,,,,,,,,,,,,,,,,,,,,,,,,,,,,,,,,,,,00031,001,2025-11-21_15h47.15.320,MST_task,2024.2.0,59.9244113440032,2025-11-21 15h47.23.591839 +0530,
7,practice_images/166a.jpg,9,9,1,j,None,,,2.069219700002577,0.17646539997076616,,,,,,,1,9,9,,,,1154.657048199966,,,,,,,,,,,,,,,,,,,,,,,,,,,,,,1154.6425432999968,1154.657048199966,1155.1417632999946,1155.1566940000048,1155.1590605999809,1155.1590605999809,1155.1590605999809,1158.1576726000058,j,1158.1578249000013,,,1158.1578882999602,None,,,1155.1590605999809,2.069219700002577,0.17646539997076616,,,,,,,,,,,,,,,,,,,,,,,,,,,,,,,,,,,,,,00031,001,2025-11-21_15h47.15.320,MST_task,2024.2.0,59.9244113440032,2025-11-21 15h47.23.591839 +0530,
,,,,,,,,,,,,,,,,,,,,,,,,,,,,,,,,,,,,,,,,,,,,,,,,,,,,,,,,,,,,,,,,,,,,,,,,,,,1158.1580790000153,1158.1736608999781,1158.1736608999781,1185.1747034,space,26.990855299984105,None,,,,,,,,,,,,,,,,,,,,,,,,,,,,00031,001,2025-11-21_15h47.15.320,MST_task,2024.2.0,59.9244113440032,2025-11-21 15h47.23.591839 +0530,
,Objects\178a.jpg,0,0,1,,,,,,,f,1.8564449999830686,0.20014590001665056,None,,,,,,1,0,0,1185.1904159999685,,,,,,,,,,,,,,,,,,,,,,,,,,,,,,1185.1754750999971,1185.1904159999685,1185.6750599999796,,,,,,,,,,,,,,1185.7083328000153,,,,,,,,,,,,,1185.7046012000064,1185.7083328000153,1185.7083328000153,1185.7083328000153,1188.6914172999677,f,1.8564449999830686,0.20014590001665056,1188.6986689000041,1188.6986890999833,None,,,,,,,,,,,,,,,,,00031,001,2025-11-21_15h47.15.320,MST_task,2024.2.0,59.9244113440032,2025-11-21 15h47.23.591839 +0530,
,Objects\071a.jpg,1,0,2,,,,,,,j,1.223051100037992,0.18399599997792393,None,,,,,,2,0,1,1188.7069998999941,,,,,,,,,,,,,,,,,,,,,,,,,,,,,,1188.698757999984,1188.7069998999941,1189.192103999958,,,,,,,,,,,,,,1189.2134041999816,,,,,,,,,,,,,1189.2105462999898,1189.2134041999816,1189.2134041999816,1189.2134041999816,1192.2078629999887,j,1.223051100037992,0.18399599997792393,1192.208193700004,1192.2082670999807,None,,,,,,,,,,,,,,,,,00031,001,2025-11-21_15h47.15.320,MST_task,2024.2.0,59.9244113440032,2025-11-21 15h47.23.591839 +0530,
,Objects\128a.jpg,2,0,3,,,,,,,f,2.068858699989505,0.16852210002252832,None,,,,,,3,0,2,1192.224036199972,,,,,,,,,,,,,,,,,,,,,,,,,,,,,,1192.208695599984,1192.224036199972,1192.7082432999741,,,,,,,,,,,,,,1192.727516999992,,,,,,,,,,,,,1192.7248991999659,1192.727516999992,1192.727516999992,1192.727516999992,1195.7244665999897,f,2.068858699989505,0.16852210002252832,1195.7246320999693,1195.7246910000104,None,,,,,,,,,,,,,,,,,00031,001,2025-11-21_15h47.15.320,MST_task,2024.2.0,59.9244113440032,2025-11-21 15h47.23.591839 +0530,
,Objects\009a.jpg,3,0,4,,,,,,,f,1.632003300008364,0.15876070002559572,None,,,,,,4,0,3,1195.7406471999711,,,,,,,,,,,,,,,,,,,,,,,,,,,,,,1195.7249912999687,1195.7406471999711,1196.2252389999921,,,,,,,,,,,,,,1196.2460161999916,,,,,,,,,,,,,1196.2433862999897,1196.2460161999916,1196.2460161999916,1196.2460161999916,1199.2413595999824,f,1.632003300008364,0.15876070002559572,1199.2415319000138,1199.241585300013,None,,,,,,,,,,,,,,,,,00031,001,2025-11-21_15h47.15.320,MST_task,2024.2.0,59.9244113440032,2025-11-21 15h47.23.591839 +0530,
,Objects\072a.jpg,4,0,5,,,,,,,f,1.6672643999918364,0.24785560002783313,None,,,,,,5,0,4,1199.2572299999883,,,,,,,,,,,,,,,,,,,,,,,,,,,,,,1199.2418546999688,1199.2572299999883,1199.7418822000036,,,,,,,,,,,,,,1199.761859799968,,,,,,,,,,,,,1199.759054199967,1199.761859799968,1199.761859799968,1199.761859799968,1202.7577136000036,f,1.6672643999918364,0.24785560002783313,1202.7578560999827,1202.7579331999877,None,,,,,,,,,,,,,,,,,00031,001,2025-11-21_15h47.15.320,MST_task,2024.2.0,59.9244113440032,2025-11-21 15h47.23.591839 +0530,
,Objects\154a.jpg,5,0,6,,,,,,,j,1.1357087000505999,0.208522200002335,None,,,,,,6,0,5,1202.7738629999803,,,,,,,,,,,,,,,,,,,,,,,,,,,,,,1202.7581822999637,1202.7738629999803,1203.258212799963,,,,,,,,,,,,,,1203.2771841000067,,,,,,,,,,,,,1203.2745575999725,1203.2771841000067,1203.2771841000067,1203.2771841000067,1206.2745649999706,j,1.1357087000505999,0.208522200002335,1206.2747331999708,1206.2747934999643,None,,,,,,,,,,,,,,,,,00031,001,2025-11-21_15h47.15.320,MST_task,2024.2.0,59.9244113440032,2025-11-21 15h47.23.591839 +0530,
,Objects\153a.jpg,6,0,7,,,,,,,f,1.0976247999933548,0.19979520002380013,None,,,,,,7,0,6,1206.2905539000058,,,,,,,,,,,,,,,,,,,,,,,,,,,,,,1206.2752337999991,1206.2905539000058,1206.7749277999974,,,,,,,,,,,,,,1206.7949437999632,,,,,,,,,,,,,1206.792343500012,1206.7949437999632,1206.7949437999632,1206.7949437999632,1209.7911729000043,f,1.0976247999933548,0.19979520002380013,1209.7913455999806,1209.7914047999657,None,,,,,,,,,,,,,,,,,00031,001,2025-11-21_15h47.15.320,MST_task,2024.2.0,59.9244113440032,2025-11-21 15h47.23.591839 +0530,
,Scenes\149a.jpg,7,0,8,,,,,,,f,2.7762527000159025,None,None,,,,,,8,0,7,1209.8071443999652,,,,,,,,,,,,,,,,,,,,,,,,,,,,,,1209.791702699964,1209.8071443999652,1210.2918100999668,,,,,,,,,,,,,,1210.3245175000047,,,,,,,,,,,,,1210.321134799975,1210.3245175000047,1210.3245175000047,1210.3245175000047,1213.3077751999954,f,2.7762527000159025,None,1213.313424299995,1213.3134610999841,None,,,,,,,,,,,,,,,,,00031,001,2025-11-21_15h47.15.320,MST_task,2024.2.0,59.9244113440032,2025-11-21 15h47.23.591839 +0530,
,Scenes\120a.jpg,8,0,9,,,,,,,j,0.9932200000039302,0.2396051000105217,None,,,,,,9,0,8,1213.323690099991,,,,,,,,,,,,,,,,,,,,,,,,,,,,,,1213.3136030999594,1213.323690099991,1213.8071024999954,,,,,,,,,,,,,,1213.8277528999606,,,,,,,,,,,,,1213.82446969999,1213.8277528999606,1213.8277528999606,1213.8277528999606,1216.824559999979,j,0.9932200000039302,0.2396051000105217,1216.8247305999976,1216.8247897999827,None,,,,,,,,,,,,,,,,,00031,001,2025-11-21_15h47.15.320,MST_task,2024.2.0,59.9244113440032,2025-11-21 15h47.23.591839 +0530,
,Scenes\035a.jpg,9,0,10,,,,,,,j,2.063504899968393,0.23965800000587478,None,,,,,,10,0,9,1216.8406515999814,,,,,,,,,,,,,,,,,,,,,,,,,,,,,,1216.8252030999865,1216.8406515999814,1217.3250860999688,,,,,,,,,,,,,,1217.3494422999793,,,,,,,,,,,,,1217.3459106999799,1217.3494422999793,1217.3494422999793,1217.3494422999793,1220.3410311999614,j,2.063504899968393,0.23965800000587478,1220.3411736999988,1220.3412231999682,None,,,,,,,,,,,,,,,,,00031,001,2025-11-21_15h47.15.320,MST_task,2024.2.0,59.9244113440032,2025-11-21 15h47.23.591839 +0530,
,Scenes\147a.jpg,10,0,11,,,,,,,j,1.5503880000323988,0.21499119995860383,None,,,,,,11,0,10,1220.3572471999796,,,,,,,,,,,,,,,,,,,,,,,,,,,,,,1220.3414609999745,1220.3572471999796,1220.8416935999994,,,,,,,,,,,,,,1220.8633744000108,,,,,,,,,,,,,1220.8601272999658,1220.8633744000108,1220.8633744000108,1220.8633744000108,1223.8577886999701,j,1.5503880000323988,0.21499119995860383,1223.8579595999909,1223.8580172999646,None,,,,,,,,,,,,,,,,,00031,001,2025-11-21_15h47.15.320,MST_task,2024.2.0,59.9244113440032,2025-11-21 15h47.23.591839 +0530,
,Scenes\187a.jpg,11,0,12,,,,,,,j,1.2202847999869846,0.2327068000449799,None,,,,,,12,0,11,1223.87386339996,,,,,,,,,,,,,,,,,,,,,,,,,,,,,,1223.8584531999659,1223.87386339996,1224.358431199973,,,,,,,,,,,,,,1224.3841573999962,,,,,,,,,,,,,1224.3809060999774,1224.3841573999962,1224.3841573999962,1224.3841573999962,1227.3744769999757,j,1.2202847999869846,0.2327068000449799,1227.3748823999777,1227.3749728999683,None,,,,,,,,,,,,,,,,,00031,001,2025-11-21_15h47.15.320,MST_task,2024.2.0,59.9244113440032,2025-11-21 15h47.23.591839 +0530,
,Scenes\134a.jpg,12,0,13,,,,,,,j,1.4057801000308245,0.20829469995805994,None,,,,,,13,0,12,1227.390549200005,,,,,,,,,,,,,,,,,,,,,,,,,,,,,,1227.3753148000105,1227.390549200005,1227.875186499965,,,,,,,,,,,,,,1227.9027251999942,,,,,,,,,,,,,1227.8992624999955,1227.9027251999942,1227.9027251999942,1227.9027251999942,1230.8912562999758,j,1.4057801000308245,0.20829469995805994,1230.8914144000155,1230.8914630999789,None,,,,,,,,,,,,,,,,,00031,001,2025-11-21_15h47.15.320,MST_task,2024.2.0,59.9244113440032,2025-11-21 15h47.23.591839 +0530,
,Scenes\167a.jpg,13,0,14,,,,,,,f,1.3056354000000283,0.24114879994885996,None,,,,,,14,0,13,1230.9071051999927,,,,,,,,,,,,,,,,,,,,,,,,,,,,,,1230.8918489000062,1230.9071051999927,1231.3916050000116,,,,,,,,,,,,,,1231.4187701999908,,,,,,,,,,,,,1231.4154491999652,1231.4187701999908,1231.4187701999908,1231.4187701999908,1234.407957999967,f,1.3056354000000283,0.24114879994885996,1234.4081226999988,1234.4081841000007,None,,,,,,,,,,,,,,,,,00031,001,2025-11-21_15h47.15.320,MST_task,2024.2.0,59.9244113440032,2025-11-21 15h47.23.591839 +0530,
,Objects\010a.jpg,14,0,15,,,,,,,f,1.3616267999750562,0.2479944999795407,None,,,,,,15,0,14,1234.4240634999587,,,,,,,,,,,,,,,,,,,,,,,,,,,,,,1234.408607099962,1234.4240634999587,1234.9084377000108,,,,,,,,,,,,,,1234.9312672999804,,,,,,,,,,,,,1234.928512100014,1234.9312672999804,1234.9312672999804,1234.9312672999804,1237.924646599975,f,1.3616267999750562,0.2479944999795407,1237.9304543999606,1237.93048489996,None,,,,,,,,,,,,,,,,,00031,001,2025-11-21_15h47.15.320,MST_task,2024.2.0,59.9244113440032,2025-11-21 15h47.23.591839 +0530,
,Objects\183a.jpg,15,0,16,,,,,,,j,0.9660987000097521,0.23187929997220635,None,,,,,,16,0,15,1237.9404769999674,,,,,,,,,,,,,,,,,,,,,,,,,,,,,,1237.9306051000021,1237.9404769999674,1238.425138599996,,,,,,,,,,,,,,1238.4547642999678,,,,,,,,,,,,,1238.4514548999723,1238.4547642999678,1238.4547642999678,1238.4547642999678,1241.4411828999873,j,0.9660987000097521,0.23187929997220635,1241.4413735999842,1241.441433799977,None,,,,,,,,,,,,,,,,,00031,001,2025-11-21_15h47.15.320,MST_task,2024.2.0,59.9244113440032,2025-11-21 15h47.23.591839 +0530,
,Objects\177a.jpg,16,0,17,,,,,,,j,1.16404160001548,0.2563776999595575,None,,,,,,17,0,16,1241.4572570999735,,,,,,,,,,,,,,,,,,,,,,,,,,,,,,1241.4419097999926,1241.4572570999735,1241.9418788999901,,,,,,,,,,,,,,1241.9603654000093,,,,,,,,,,,,,1241.9577615999733,1241.9603654000093,1241.9603654000093,1241.9603654000093,1244.9579081999836,j,1.16404160001548,0.2563776999595575,1244.95807589998,1244.9581361999735,None,,,,,,,,,,,,,,,,,00031,001,2025-11-21_15h47.15.320,MST_task,2024.2.0,59.9244113440032,2025-11-21 15h47.23.591839 +0530,
,Objects\037a.jpg,17,0,18,,,,,,,f,1.2282662999932654,0.23964729998260736,None,,,,,,18,0,17,1244.9740356999682,,,,,,,,,,,,,,,,,,,,,,,,,,,,,,1244.9585607000045,1244.9740356999682,1245.4584288999904,,,,,,,,,,,,,,1245.4805191999767,,,,,,,,,,,,,1245.4778052999754,1245.4805191999767,1245.4805191999767,1245.4805191999767,1248.4747174999793,f,1.2282662999932654,0.23964729998260736,1248.4748899000115,1248.4749491999974,None,,,,,,,,,,,,,,,,,00031,001,2025-11-21_15h47.15.320,MST_task,2024.2.0,59.9244113440032,2025-11-21 15h47.23.591839 +0530,
,Objects\112a.jpg,18,0,19,,,,,,,f,0.9854180000256747,0.25528869999106973,None,,,,,,19,0,18,1248.4907182999887,,,,,,,,,,,,,,,,,,,,,,,,,,,,,,1248.4753566000145,1248.4907182999887,1248.975556899968,,,,,,,,,,,,,,1248.995781000005,,,,,,,,,,,,,1248.9931024999823,1248.995781000005,1248.995781000005,1248.995781000005,1251.9914647999685,f,0.9854180000256747,0.25528869999106973,1251.991634999984,1251.991696299985,None,,,,,,,,,,,,,,,,,00031,001,2025-11-21_15h47.15.320,MST_task,2024.2.0,59.9244113440032,2025-11-21 15h47.23.591839 +0530,
,Objects\166a.jpg,19,0,20,,,,,,,f,0.8611493000062183,0.2716033000033349,None,,,,,,20,0,19,1252.0073126999778,,,,,,,,,,,,,,,,,,,,,,,,,,,,,,1251.992003899999,1252.0073126999778,1252.4917544999626,,,,,,,,,,,,,,1252.5119350999594,,,,,,,,,,,,,1252.5092730000033,1252.5119350999594,1252.5119350999594,1252.5119350999594,1255.5080089999828,f,0.8611493000062183,0.2716033000033349,1255.5081798000028,1255.5082390999887,None,,,,,,,,,,,,,,,,,00031,001,2025-11-21_15h47.15.320,MST_task,2024.2.0,59.9244113440032,2025-11-21 15h47.23.591839 +0530,
,Objects\147a.jpg,20,0,21,,,,,,,j,1.3446988000068814,0.2557395999901928,None,,,,,,21,0,20,1255.5240485999966,,,,,,,,,,,,,,,,,,,,,,,,,,,,,,1255.5086616000044,1255.5240485999966,1256.0086607999983,,,,,,,,,,,,,,1256.0281230999972,,,,,,,,,,,,,1256.0253135999665,1256.0281230999972,1256.0281230999972,1256.0281230999972,1259.0246898999903,j,1.3446988000068814,0.2557395999901928,1259.0248583999928,1259.0249193999916,None,,,,,,,,,,,,,,,,,00031,001,2025-11-21_15h47.15.320,MST_task,2024.2.0,59.9244113440032,2025-11-21 15h47.23.591839 +0530,
,Scenes\111a.jpg,21,0,22,,,,,,,j,2.391362999973353,0.2477235000114888,None,,,,,,22,0,21,1259.0407921999577,,,,,,,,,,,,,,,,,,,,,,,,,,,,,,1259.0252292999648,1259.0407921999577,1259.5252791999956,,,,,,,,,,,,,,1259.5497434000135,,,,,,,,,,,,,1259.5464846999967,1259.5497434000135,1259.5497434000135,1259.5497434000135,1262.5414449999807,j,2.391362999973353,0.2477235000114888,1262.5467556999647,1262.5467942999676,None,,,,,,,,,,,,,,,,,00031,001,2025-11-21_15h47.15.320,MST_task,2024.2.0,59.9244113440032,2025-11-21 15h47.23.591839 +0530,
,Scenes\174a.jpg,22,0,23,,,,,,,j,1.9529634999926202,0.2234774000244215,None,,,,,,23,0,22,1262.5570774999796,,,,,,,,,,,,,,,,,,,,,,,,,,,,,,1262.5470106999855,1262.5570774999796,1263.0415804999648,,,,,,,,,,,,,,1263.0681584000122,,,,,,,,,,,,,1263.064888199966,1263.0681584000122,1263.0681584000122,1263.0681584000122,1266.0577183999703,j,1.9529634999926202,0.2234774000244215,1266.057884000009,1266.0579420999857,None,,,,,,,,,,,,,,,,,00031,001,2025-11-21_15h47.15.320,MST_task,2024.2.0,59.9244113440032,2025-11-21 15h47.23.591839 +0530,
,Scenes\128a.jpg,23,0,24,,,,,,,j,1.3077414000290446,0.2407801999943331,None,,,,,,24,0,23,1266.0740641999873,,,,,,,,,,,,,,,,,,,,,,,,,,,,,,1266.0582413999946,1266.0740641999873,1266.5580596000073,,,,,,,,,,,,,,1266.5847224000026,,,,,,,,,,,,,1266.5815470999805,1266.5847224000026,1266.5847224000026,1266.5847224000026,1269.5744840999832,j,1.3077414000290446,0.2407801999943331,1269.5746091000037,1269.5746725999634,None,,,,,,,,,,,,,,,,,00031,001,2025-11-21_15h47.15.320,MST_task,2024.2.0,59.9244113440032,2025-11-21 15h47.23.591839 +0530,
,Scenes\124a.jpg,24,0,25,,,,,,,f,2.0911629000329413,0.27170250000199303,None,,,,,,25,0,24,1269.5905331000104,,,,,,,,,,,,,,,,,,,,,,,,,,,,,,1269.5749569999753,1269.5905331000104,1270.0749281999888,,,,,,,,,,,,,,1270.0975381999742,,,,,,,,,,,,,1270.0943073999952,1270.0975381999742,1270.0975381999742,1270.0975381999742,1273.0910827000043,f,2.0911629000329413,0.27170250000199303,1273.0912946999888,1273.0913505000062,None,,,,,,,,,,,,,,,,,00031,001,2025-11-21_15h47.15.320,MST_task,2024.2.0,59.9244113440032,2025-11-21 15h47.23.591839 +0530,
,Scenes\076a.jpg,25,0,26,,,,,,,j,1.2585686999955215,0.2476592999882996,None,,,,,,26,0,25,1273.1071484999848,,,,,,,,,,,,,,,,,,,,,,,,,,,,,,1273.0917060999782,1273.1071484999848,1273.5913574000006,,,,,,,,,,,,,,1273.6184691999806,,,,,,,,,,,,,1273.6150491000153,1273.6184691999806,1273.6184691999806,1273.6184691999806,1276.6078160000034,j,1.2585686999955215,0.2476592999882996,1276.6079707999597,1276.6080223000026,None,,,,,,,,,,,,,,,,,00031,001,2025-11-21_15h47.15.320,MST_task,2024.2.0,59.9244113440032,2025-11-21 15h47.23.591839 +0530,
,Scenes\084a.jpg,26,0,27,,,,,,,j,1.3012114000157453,0.2327435999759473,None,,,,,,27,0,26,1276.6240729999845,,,,,,,,,,,,,,,,,,,,,,,,,,,,,,1276.6084067999618,1276.6240729999845,1277.1081459000125,,,,,,,,,,,,,,1277.1352468999685,,,,,,,,,,,,,1277.1318555999896,1277.1352468999685,1277.1352468999685,1277.1352468999685,1280.1244427000056,j,1.3012114000157453,0.2327435999759473,1280.1246121999575,1280.1246706999955,None,,,,,,,,,,,,,,,,,00031,001,2025-11-21_15h47.15.320,MST_task,2024.2.0,59.9244113440032,2025-11-21 15h47.23.591839 +0530,
,Scenes\002a.jpg,27,0,28,,,,,,,j,1.032335800002329,0.24870150000788271,None,,,,,,28,0,27,1280.1405722000054,,,,,,,,,,,,,,,,,,,,,,,,,,,,,,1280.1250763999997,1280.1405722000054,1280.6251958999783,,,,,,,,,,,,,,1280.65220089996,,,,,,,,,,,,,1280.6488800999941,1280.65220089996,1280.65220089996,1280.65220089996,1283.641304699995,j,1.032335800002329,0.24870150000788271,1283.6414736000006,1283.641533099988,None,,,,,,,,,,,,,,,,,00031,001,2025-11-21_15h47.15.320,MST_task,2024.2.0,59.9244113440032,2025-11-21 15h47.23.591839 +0530,
,Objects\152a.jpg,28,0,29,,,,,,,f,1.2867633000132628,0.2804304999881424,None,,,,,,29,0,28,1283.6570881999796,,,,,,,,,,,,,,,,,,,,,,,,,,,,,,1283.6419562000083,1283.6570881999796,1284.141887900012,,,,,,,,,,,,,,1284.1655960999778,,,,,,,,,,,,,1284.162212299998,1284.1655960999778,1284.1655960999778,1284.1655960999778,1287.157776499982,f,1.2867633000132628,0.2804304999881424,1287.1644034999772,1287.1644341999781,None,,,,,,,,,,,,,,,,,00031,001,2025-11-21_15h47.15.320,MST_task,2024.2.0,59.9244113440032,2025-11-21 15h47.23.591839 +0530,
,Objects\001a.jpg,29,0,30,,,,,,,f,1.6868624000344425,0.2959837999660522,None,,,,,,30,0,29,1287.1737225999823,,,,,,,,,,,,,,,,,,,,,,,,,,,,,,1287.1646110999864,1287.1737225999823,1287.658167799993,,,,,,,,,,,,,,1287.6776940000127,,,,,,,,,,,,,1287.6750418000156,1287.6776940000127,1287.6776940000127,1287.6776940000127,1290.6746971000102,f,1.6868624000344425,0.2959837999660522,1290.674864600005,1290.6749228999834,None,,,,,,,,,,,,,,,,,00031,001,2025-11-21_15h47.15.320,MST_task,2024.2.0,59.9244113440032,2025-11-21 15h47.23.591839 +0530,
,Objects\123a.jpg,30,0,31,,,,,,,j,1.302760099992156,0.2725571999908425,None,,,,,,31,0,30,1290.6905881999992,,,,,,,,,,,,,,,,,,,,,,,,,,,,,,1290.675224000006,1290.6905881999992,1291.175278300012,,,,,,,,,,,,,,1291.1978159999708,,,,,,,,,,,,,1291.1950926000136,1291.1978159999708,1291.1978159999708,1291.1978159999708,1294.191331500013,j,1.302760099992156,0.2725571999908425,1294.1915131999995,1294.1915740999975,None,,,,,,,,,,,,,,,,,00031,001,2025-11-21_15h47.15.320,MST_task,2024.2.0,59.9244113440032,2025-11-21 15h47.23.591839 +0530,
,Objects\080a.jpg,31,0,32,,,,,,,f,1.6660612000268884,0.27218819997506216,None,,,,,,32,0,31,1294.2070959999692,,,,,,,,,,,,,,,,,,,,,,,,,,,,,,1294.1918805000023,1294.2070959999692,1294.691913699964,,,,,,,,,,,,,,1294.7145159000065,,,,,,,,,,,,,1294.711861399992,1294.7145159000065,1294.7145159000065,1294.7145159000065,1297.7076914999634,f,1.6660612000268884,0.27218819997506216,1297.7078569000005,1297.7079151999787,None,,,,,,,,,,,,,,,,,00031,001,2025-11-21_15h47.15.320,MST_task,2024.2.0,59.9244113440032,2025-11-21 15h47.23.591839 +0530,
,Objects\085a.jpg,32,0,33,,,,,,,j,1.4808417999884114,0.21590529999230057,None,,,,,,33,0,32,1297.7239380999818,,,,,,,,,,,,,,,,,,,,,,,,,,,,,,1297.7082145999884,1297.7239380999818,1298.2084287999896,,,,,,,,,,,,,,1298.227729599981,,,,,,,,,,,,,1298.2249049000093,1298.227729599981,1298.227729599981,1298.227729599981,1301.224413799995,j,1.4808417999884114,0.21590529999230057,1301.2245852999622,1301.2246427999926,None,,,,,,,,,,,,,,,,,00031,001,2025-11-21_15h47.15.320,MST_task,2024.2.0,59.9244113440032,2025-11-21 15h47.23.591839 +0530,
,Objects\043a.jpg,33,0,34,,,,,,,j,2.660523399943486,0.24721510004019365,None,,,,,,34,0,33,1301.2405641999794,,,,,,,,,,,,,,,,,,,,,,,,,,,,,,1301.225065800012,1301.2405641999794,1301.7251930999919,,,,,,,,,,,,,,1301.7447181000025,,,,,,,,,,,,,1301.7421296999673,1301.7447181000025,1301.7447181000025,1301.7447181000025,1304.7414384000003,j,2.660523399943486,0.24721510004019365,1304.7416071000043,1304.7416674999986,None,,,,,,,,,,,,,,,,,00031,001,2025-11-21_15h47.15.320,MST_task,2024.2.0,59.9244113440032,2025-11-21 15h47.23.591839 +0530,
,Objects\092a.jpg,34,0,35,,,,,,,f,1.097100400016643,0.27216749999206513,None,,,,,,35,0,34,1304.7570890999632,,,,,,,,,,,,,,,,,,,,,,,,,,,,,,1304.7422539999825,1304.7570890999632,1305.2419676000136,,,,,,,,,,,,,,1305.2596950999578,,,,,,,,,,,,,1305.2568975999602,1305.2596950999578,1305.2596950999578,1305.2596950999578,1308.2576751000015,f,1.097100400016643,0.27216749999206513,1308.257847699977,1308.2579070999636,None,,,,,,,,,,,,,,,,,00031,001,2025-11-21_15h47.15.320,MST_task,2024.2.0,59.9244113440032,2025-11-21 15h47.23.591839 +0530,
,Scenes\188a.jpg,35,0,36,,,,,,,j,2.2870980000006966,0.21592829999281093,None,,,,,,36,0,35,1308.2738646999933,,,,,,,,,,,,,,,,,,,,,,,,,,,,,,1308.2583214999759,1308.2738646999933,1308.7581410999992,,,,,,,,,,,,,,1308.7817293999833,,,,,,,,,,,,,1308.7786370000103,1308.7817293999833,1308.7817293999833,1308.7817293999833,1311.7746803999762,j,2.2870980000006966,0.21592829999281093,1311.781271499989,1311.7812896000105,None,,,,,,,,,,,,,,,,,00031,001,2025-11-21_15h47.15.320,MST_task,2024.2.0,59.9244113440032,2025-11-21 15h47.23.591839 +0530,
,Scenes\005a.jpg,36,0,37,,,,,,,f,1.3713100000168197,0.23238499998115003,None,,,,,,37,0,36,1311.7906629999634,,,,,,,,,,,,,,,,,,,,,,,,,,,,,,1311.7813598999637,1311.7906629999634,1312.2755087999976,,,,,,,,,,,,,,1312.2972452999675,,,,,,,,,,,,,1312.293922699988,1312.2972452999675,1312.2972452999675,1312.2972452999675,1315.2911810000078,f,1.3713100000168197,0.23238499998115003,1315.2913368999725,1315.2913903999724,None,,,,,,,,,,,,,,,,,00031,001,2025-11-21_15h47.15.320,MST_task,2024.2.0,59.9244113440032,2025-11-21 15h47.23.591839 +0530,
,Scenes\156a.jpg,37,0,38,,,,,,,f,2.042899100051727,0.26420239999424666,None,,,,,,38,0,37,1315.3072548999917,,,,,,,,,,,,,,,,,,,,,,,,,,,,,,1315.291667099984,1315.3072548999917,1315.7918973999913,,,,,,,,,,,,,,1315.8177631999715,,,,,,,,,,,,,1315.814275200013,1315.8177631999715,1315.8177631999715,1315.8177631999715,1318.8076336999657,f,2.042899100051727,0.26420239999424666,1318.8078228000086,1318.807881899993,None,,,,,,,,,,,,,,,,,00031,001,2025-11-21_15h47.15.320,MST_task,2024.2.0,59.9244113440032,2025-11-21 15h47.23.591839 +0530,
,Scenes\067a.jpg,38,0,39,,,,,,,f,1.199458200018853,0.24803020001854748,None,,,,,,39,0,38,1318.8238995000138,,,,,,,,,,,,,,,,,,,,,,,,,,,,,,1318.808338599978,1318.8238995000138,1319.3083791999961,,,,,,,,,,,,,,1319.3331128999707,,,,,,,,,,,,,1319.3299981000018,1319.3331128999707,1319.3331128999707,1319.3331128999707,1322.324307999981,f,1.199458200018853,0.24803020001854748,1322.324387200002,1322.3244111000095,None,,,,,,,,,,,,,,,,,00031,001,2025-11-21_15h47.15.320,MST_task,2024.2.0,59.9244113440032,2025-11-21 15h47.23.591839 +0530,
,Scenes\117a.jpg,39,0,40,,,,,,,j,1.0246803000336513,0.2158326999633573,None,,,,,,40,0,39,1322.3405800999608,,,,,,,,,,,,,,,,,,,,,,,,,,,,,,1322.3245912999846,1322.3405800999608,1322.8252372000134,,,,,,,,,,,,,,1322.868057499989,,,,,,,,,,,,,1322.8647155999788,1322.868057499989,1322.868057499989,1322.868057499989,1325.8247880999697,j,1.0246803000336513,0.2158326999633573,1325.8249550999608,1325.8250129999942,None,,,,,,,,,,,,,,,,,00031,001,2025-11-21_15h47.15.320,MST_task,2024.2.0,59.9244113440032,2025-11-21 15h47.23.591839 +0530,
,Scenes\095a.jpg,40,0,41,,,,,,,f,1.2895696999621578,0.2556752000236884,None,,,,,,41,0,40,1325.8407306000008,,,,,,,,,,,,,,,,,,,,,,,,,,,,,,1325.8254328999901,1325.8407306000008,1326.3253205000074,,,,,,,,,,,,,,1326.3477622999926,,,,,,,,,,,,,1326.3444656999782,1326.3477622999926,1326.3477622999926,1326.3477622999926,1329.3413910999661,f,1.2895696999621578,0.2556752000236884,1329.341560299974,1329.3416178000043,None,,,,,,,,,,,,,,,,,00031,001,2025-11-21_15h47.15.320,MST_task,2024.2.0,59.9244113440032,2025-11-21 15h47.23.591839 +0530,
,Scenes\131a.jpg,41,0,42,,,,,,,j,1.5340011999942362,0.24809309997363016,None,,,,,,42,0,41,1329.3572594000143,,,,,,,,,,,,,,,,,,,,,,,,,,,,,,1329.342046500009,1329.3572594000143,1329.8419477000134,,,,,,,,,,,,,,1329.862872699974,,,,,,,,,,,,,1329.8594067000085,1329.862872699974,1329.862872699974,1329.862872699974,1332.857721999986,j,1.5340011999942362,0.24809309997363016,1332.8579536000034,1332.8580124999862,None,,,,,,,,,,,,,,,,,00031,001,2025-11-21_15h47.15.320,MST_task,2024.2.0,59.9244113440032,2025-11-21 15h47.23.591839 +0530,
,Objects\095a.jpg,42,0,43,,,,,,,f,1.3826187000377104,0.26263419998576865,None,,,,,,43,0,42,1332.8739108999725,,,,,,,,,,,,,,,,,,,,,,,,,,,,,,1332.858335500001,1332.8739108999725,1333.3582484999788,,,,,,,,,,,,,,1333.3831604999723,,,,,,,,,,,,,1333.3799104999634,1333.3831604999723,1333.3831604999723,1333.3831604999723,1336.3748052999726,f,1.3826187000377104,0.26263419998576865,1336.3819970999612,1336.3820154999848,None,,,,,,,,,,,,,,,,,00031,001,2025-11-21_15h47.15.320,MST_task,2024.2.0,59.9244113440032,2025-11-21 15h47.23.591839 +0530,
,Objects\084a.jpg,43,0,44,,,,,,,j,1.6317797000519931,0.279889999947045,None,,,,,,44,0,43,1336.390719399962,,,,,,,,,,,,,,,,,,,,,,,,,,,,,,1336.3821246000007,1336.390719399962,1336.875228799996,,,,,,,,,,,,,,1336.892960499972,,,,,,,,,,,,,1336.8900672000018,1336.892960499972,1336.892960499972,1336.892960499972,1339.89126579999,j,1.6317797000519931,0.279889999947045,1339.8914355000015,1339.8914947999874,None,,,,,,,,,,,,,,,,,00031,001,2025-11-21_15h47.15.320,MST_task,2024.2.0,59.9244113440032,2025-11-21 15h47.23.591839 +0530,
,Objects\179a.jpg,44,0,45,,,,,,,j,2.0511908000335097,0.23944659996777773,None,,,,,,45,0,44,1339.9071769000147,,,,,,,,,,,,,,,,,,,,,,,,,,,,,,1339.8919181000092,1339.9071769000147,1340.3919468999957,,,,,,,,,,,,,,1340.4101122000138,,,,,,,,,,,,,1340.40752529999,1340.4101122000138,1340.4101122000138,1340.4101122000138,1343.407912399969,j,2.0511908000335097,0.23944659996777773,1343.4080942000146,1343.4081522999913,None,,,,,,,,,,,,,,,,,00031,001,2025-11-21_15h47.15.320,MST_task,2024.2.0,59.9244113440032,2025-11-21 15h47.23.591839 +0530,
,Objects\104a.jpg,45,0,46,,,,,,,f,2.3165738999960013,0.27178180002374575,None,,,,,,46,0,45,1343.4239069999894,,,,,,,,,,,,,,,,,,,,,,,,,,,,,,1343.408571899985,1343.4239069999894,1343.9083502999856,,,,,,,,,,,,,,1343.9286353999632,,,,,,,,,,,,,1343.9261961999582,1343.9286353999632,1343.9286353999632,1343.9286353999632,1346.9245953999925,f,2.3165738999960013,0.27178180002374575,1346.9247624999844,1346.9248208999634,None,,,,,,,,,,,,,,,,,00031,001,2025-11-21_15h47.15.320,MST_task,2024.2.0,59.9244113440032,2025-11-21 15h47.23.591839 +0530,
,Objects\108a.jpg,46,0,47,,,,,,,j,2.8462305000284687,None,None,,,,,,47,0,46,1346.940652499965,,,,,,,,,,,,,,,,,,,,,,,,,,,,,,1346.9252368999878,1346.940652499965,1347.4252347999718,,,,,,,,,,,,,,1347.4471339999582,,,,,,,,,,,,,1347.4444456999772,1347.4471339999582,1347.4471339999582,1347.4471339999582,1350.4410725999624,j,2.8462305000284687,None,1350.4412378999987,1350.4412958999746,None,,,,,,,,,,,,,,,,,00031,001,2025-11-21_15h47.15.320,MST_task,2024.2.0,59.9244113440032,2025-11-21 15h47.23.591839 +0530,
,Objects\169a.jpg,47,0,48,,,,,,,j,1.7791178000043146,0.24829800002044067,None,,,,,,48,0,47,1350.4572463000077,,,,,,,,,,,,,,,,,,,,,,,,,,,,,,1350.441714000015,1350.4572463000077,1350.9418809000053,,,,,,,,,,,,,,1350.9615461999783,,,,,,,,,,,,,1350.9580313999904,1350.9615461999783,1350.9615461999783,1350.9615461999783,1353.9581164999981,j,1.7791178000043146,0.24829800002044067,1353.958304299973,1353.9583621000056,None,,,,,,,,,,,,,,,,,00031,001,2025-11-21_15h47.15.320,MST_task,2024.2.0,59.9244113440032,2025-11-21 15h47.23.591839 +0530,
,Objects\100a.jpg,48,0,49,,,,,,,f,0.8455255000153556,0.26405749999685213,None,,,,,,49,0,48,1353.9741843999946,,,,,,,,,,,,,,,,,,,,,,,,,,,,,,1353.958665699989,1353.9741843999946,1354.4584864999633,,,,,,,,,,,,,,1354.4793456000043,,,,,,,,,,,,,1354.4767022999586,1354.4793456000043,1354.4793456000043,1354.4793456000043,1357.474785999977,f,0.8455255000153556,0.26405749999685213,1357.4749572,1357.47501439997,None,,,,,,,,,,,,,,,,,00031,001,2025-11-21_15h47.15.320,MST_task,2024.2.0,59.9244113440032,2025-11-21 15h47.23.591839 +0530,
,Scenes\078a.jpg,49,0,50,,,,,,,j,1.9384606000385247,0.21652209997409955,None,,,,,,50,0,49,1357.490846199973,,,,,,,,,,,,,,,,,,,,,,,,,,,,,,1357.4753136999789,1357.490846199973,1357.9752208999707,,,,,,,,,,,,,,1358.002583900001,,,,,,,,,,,,,1357.9991218000068,1358.002583900001,1358.002583900001,1358.002583900001,1360.991255300003,j,1.9384606000385247,0.21652209997409955,1360.9975305999978,1360.9975763999973,None,,,,,,,,,,,,,,,,,00031,001,2025-11-21_15h47.15.320,MST_task,2024.2.0,59.9244113440032,2025-11-21 15h47.23.591839 +0530,
,Scenes\059a.jpg,50,0,51,,,,,,,j,1.1260560000082478,0.20801659999415278,None,,,,,,51,0,50,1361.007187500014,,,,,,,,,,,,,,,,,,,,,,,,,,,,,,1360.9978271999862,1361.007187500014,1361.4918568999856,,,,,,,,,,,,,,1361.5188838999602,,,,,,,,,,,,,1361.5153467999771,1361.5188838999602,1361.5188838999602,1361.5188838999602,1364.5078973000054,j,1.1260560000082478,0.20801659999415278,1364.5081361999619,1364.5081943999976,None,,,,,,,,,,,,,,,,,00031,001,2025-11-21_15h47.15.320,MST_task,2024.2.0,59.9244113440032,2025-11-21 15h47.23.591839 +0530,
,Scenes\047a.jpg,51,0,52,,,,,,,j,2.5945684000034817,0.20833709998987615,None,,,,,,52,0,51,1364.5240745999618,,,,,,,,,,,,,,,,,,,,,,,,,,,,,,1364.5086147999973,1364.5240745999618,1365.0083548999974,,,,,,,,,,,,,,1365.0337755999644,,,,,,,,,,,,,1365.0304621999967,1365.0337755999644,1365.0337755999644,1365.0337755999644,1368.0246549000149,j,2.5945684000034817,0.20833709998987615,1368.0248203999945,1368.024878999975,None,,,,,,,,,,,,,,,,,00031,001,2025-11-21_15h47.15.320,MST_task,2024.2.0,59.9244113440032,2025-11-21 15h47.23.591839 +0530,
,Scenes\141a.jpg,52,0,53,,,,,,,j,1.459461199992802,0.20698279998032376,None,,,,,,53,0,52,1368.0407789999736,,,,,,,,,,,,,,,,,,,,,,,,,,,,,,1368.0253890999593,1368.0407789999736,1368.5254422000144,,,,,,,,,,,,,,1368.5462682999787,,,,,,,,,,,,,1368.5428033999633,1368.5462682999787,1368.5462682999787,1368.5462682999787,1371.5413306999835,j,1.459461199992802,0.20698279998032376,1371.541497499973,1371.541556799959,None,,,,,,,,,,,,,,,,,00031,001,2025-11-21_15h47.15.320,MST_task,2024.2.0,59.9244113440032,2025-11-21 15h47.23.591839 +0530,
,Scenes\122a.jpg,53,0,54,,,,,,,f,1.636116800014861,0.27245200000470504,None,,,,,,54,0,53,1371.557283799979,,,,,,,,,,,,,,,,,,,,,,,,,,,,,,1371.542017699976,1371.557283799979,1372.0418483999674,,,,,,,,,,,,,,1372.07231269998,,,,,,,,,,,,,1372.0691259999876,1372.07231269998,1372.07231269998,1372.07231269998,1375.0578481999692,f,1.636116800014861,0.27245200000470504,1375.058051400003,1375.0581127000041,None,,,,,,,,,,,,,,,,,00031,001,2025-11-21_15h47.15.320,MST_task,2024.2.0,59.9244113440032,2025-11-21 15h47.23.591839 +0530,
,Scenes\146a.jpg,54,0,55,,,,,,,j,1.8619767000200227,0.24798499996541068,None,,,,,,55,0,54,1375.0740585000021,,,,,,,,,,,,,,,,,,,,,,,,,,,,,,1375.058539199992,1375.0740585000021,1375.5585744999698,,,,,,,,,,,,,,1375.5824848999619,,,,,,,,,,,,,1375.5790257999906,1375.5824848999619,1375.5824848999619,1375.5824848999619,1378.5746593999793,j,1.8619767000200227,0.24798499996541068,1378.575086399971,1378.5751448000083,None,,,,,,,,,,,,,,,,,00031,001,2025-11-21_15h47.15.320,MST_task,2024.2.0,59.9244113440032,2025-11-21 15h47.23.591839 +0530,
,Scenes\086a.jpg,55,0,56,,,,,,,None,,,f,0.21804459998384118,None,,,,56,0,55,1378.5910554999718,,,,,,,,,,,,,,,,,,,,,,,,,,,,,,1378.5755097999936,1378.5910554999718,1379.0751884999918,,,,,,,,,,,,,,1379.1014323999989,,,,,,,,,,,,,1379.0979660999728,1379.1014323999989,1379.1014323999989,1379.1014323999989,1382.091547899996,None,,,1382.0917075999896,1382.3426591999596,f,1382.1071731999982,1382.1071731999982,0.21804459998384118,None,,,,,,,,,,,,,00031,001,2025-11-21_15h47.15.320,MST_task,2024.2.0,59.9244113440032,2025-11-21 15h47.23.591839 +0530,
,Objects\181a.jpg,56,0,57,,,,,,,j,1.3648278000182472,0.23239339998690411,None,,,,,,57,0,56,1382.357034399989,,,,,,,,,,,,,,,,,,,,,,,,,,,,,,1382.3429705000017,1382.357034399989,1382.8415753999725,,,,,,,,,,,,,,1382.8638558000093,,,,,,,,,,,,,1382.8605925000156,1382.8638558000093,1382.8638558000093,1382.8638558000093,1385.8578565999633,j,1.3648278000182472,0.23239339998690411,1385.8637357999687,1385.8637659999658,None,,,,,,,,,,,,,,,,,00031,001,2025-11-21_15h47.15.320,MST_task,2024.2.0,59.9244113440032,2025-11-21 15h47.23.591839 +0530,
,Objects\028a.jpg,57,0,58,,,,,,,j,1.8110314999939874,0.21653810003772378,None,,,,,,58,0,57,1385.8737122999737,,,,,,,,,,,,,,,,,,,,,,,,,,,,,,1385.8638771999977,1385.8737122999737,1386.3584316999768,,,,,,,,,,,,,,1386.3775393000105,,,,,,,,,,,,,1386.37489799998,1386.3775393000105,1386.3775393000105,1386.3775393000105,1389.3746440999676,j,1.8110314999939874,0.21653810003772378,1389.3748133999761,1389.3748696999974,None,,,,,,,,,,,,,,,,,00031,001,2025-11-21_15h47.15.320,MST_task,2024.2.0,59.9244113440032,2025-11-21 15h47.23.591839 +0530,
,Objects\067a.jpg,58,0,59,,,,,,,f,1.639173200004734,0.256237699999474,None,,,,,,59,0,58,1389.390754699998,,,,,,,,,,,,,,,,,,,,,,,,,,,,,,1389.3752952999785,1389.390754699998,1389.8749396000057,,,,,,,,,,,,,,1389.8936143000028,,,,,,,,,,,,,1389.8911669999943,1389.8936143000028,1389.8936143000028,1389.8936143000028,1392.8915314999758,f,1.639173200004734,0.256237699999474,1392.8917019999935,1392.8917611999786,None,,,,,,,,,,,,,,,,,00031,001,2025-11-21_15h47.15.320,MST_task,2024.2.0,59.9244113440032,2025-11-21 15h47.23.591839 +0530,
,Objects\180a.jpg,59,0,60,,,,,,,f,1.6881688999710605,0.26448170002549887,None,,,,,,60,0,59,1392.9073315999703,,,,,,,,,,,,,,,,,,,,,,,,,,,,,,1392.8920593999792,1392.9073315999703,1393.3918418000103,,,,,,,,,,,,,,1393.4125968999579,,,,,,,,,,,,,1393.4099288000143,1393.4125968999579,1393.4125968999579,1393.4125968999579,1396.4079138999805,f,1.6881688999710605,0.26448170002549887,1396.4080820999807,1396.408136699989,None,,,,,,,,,,,,,,,,,00031,001,2025-11-21_15h47.15.320,MST_task,2024.2.0,59.9244113440032,2025-11-21 15h47.23.591839 +0530,
,Objects\089a.jpg,60,0,61,,,,,,,j,1.1413988000131212,0.24800979997962713,None,,,,,,61,0,60,1396.4241105999681,,,,,,,,,,,,,,,,,,,,,,,,,,,,,,1396.4084320999682,1396.4241105999681,1396.9084913000115,,,,,,,,,,,,,,1396.927639600006,,,,,,,,,,,,,1396.9249378999812,1396.927639600006,1396.927639600006,1396.927639600006,1399.9244334999821,j,1.1413988000131212,0.24800979997962713,1399.924601799983,1399.9246602999629,None,,,,,,,,,,,,,,,,,00031,001,2025-11-21_15h47.15.320,MST_task,2024.2.0,59.9244113440032,2025-11-21 15h47.23.591839 +0530,
,Objects\170a.jpg,61,0,62,,,,,,,f,1.0472064999630675,0.28083430003607646,None,,,,,,62,0,61,1399.9407702999888,,,,,,,,,,,,,,,,,,,,,,,,,,,,,,1399.9250874000136,1399.9407702999888,1400.4249915999826,,,,,,,,,,,,,,1400.4452522000065,,,,,,,,,,,,,1400.4421544999932,1400.4452522000065,1400.4452522000065,1400.4452522000065,1403.4414779999643,f,1.0472064999630675,0.28083430003607646,1403.441643099999,1403.441702399985,None,,,,,,,,,,,,,,,,,00031,001,2025-11-21_15h47.15.320,MST_task,2024.2.0,59.9244113440032,2025-11-21 15h47.23.591839 +0530,
,Objects\190a.jpg,62,0,63,,,,,,,f,2.138742999988608,0.23996999999508262,None,,,,,,63,0,62,1403.4571833999944,,,,,,,,,,,,,,,,,,,,,,,,,,,,,,1403.4420537999831,1403.4571833999944,1403.9418532999698,,,,,,,,,,,,,,1403.9617914999835,,,,,,,,,,,,,1403.9590387999779,1403.9617914999835,1403.9617914999835,1403.9617914999835,1406.9579078999814,f,2.138742999988608,0.23996999999508262,1406.958080500015,1406.9581397000002,None,,,,,,,,,,,,,,,,,00031,001,2025-11-21_15h47.15.320,MST_task,2024.2.0,59.9244113440032,2025-11-21 15h47.23.591839 +0530,
,Scenes\053a.jpg,63,0,64,,,,,,,j,2.2633086999994703,0.24713760003214702,None,,,,,,64,0,63,1406.9741125999717,,,,,,,,,,,,,,,,,,,,,,,,,,,,,,1406.958436899993,1406.9741125999717,1407.4584639999666,,,,,,,,,,,,,,1407.47799330001,,,,,,,,,,,,,1407.4750612999778,1407.47799330001,1407.47799330001,1407.47799330001,1410.4743600999936,j,2.2633086999994703,0.24713760003214702,1410.4784149999614,1410.4784448000137,None,,,,,,,,,,,,,,,,,00031,001,2025-11-21_15h47.15.320,MST_task,2024.2.0,59.9244113440032,2025-11-21 15h47.23.591839 +0530,
,Scenes\130a.jpg,64,0,65,,,,,,,f,2.752772299980279,None,None,,,,,,65,0,64,1410.4903840000043,,,,,,,,,,,,,,,,,,,,,,,,,,,,,,1410.4786373999668,1410.4903840000043,1410.9750042000087,,,,,,,,,,,,,,1411.00363739999,,,,,,,,,,,,,1411.0005128000048,1411.00363739999,1411.00363739999,1411.00363739999,1413.991362300003,f,2.752772299980279,None,1413.991556599969,1413.9916178999702,None,,,,,,,,,,,,,,,,,00031,001,2025-11-21_15h47.15.320,MST_task,2024.2.0,59.9244113440032,2025-11-21 15h47.23.591839 +0530,
,Scenes\106a.jpg,65,0,66,,,,,,,j,1.4609381000045687,0.23957299999892712,None,,,,,,66,0,65,1414.0072879999643,,,,,,,,,,,,,,,,,,,,,,,,,,,,,,1413.9919878999935,1414.0072879999643,1414.4918108999846,,,,,,,,,,,,,,1414.520375699969,,,,,,,,,,,,,1414.5168261000072,1414.520375699969,1414.520375699969,1414.520375699969,1417.5078025999828,j,1.4609381000045687,0.23957299999892712,1417.507976599969,1417.5080365999602,None,,,,,,,,,,,,,,,,,00031,001,2025-11-21_15h47.15.320,MST_task,2024.2.0,59.9244113440032,2025-11-21 15h47.23.591839 +0530,
,Scenes\061a.jpg,66,0,67,,,,,,,j,1.0613394000101835,0.19294430001173168,None,,,,,,67,0,66,1417.5240067999694,,,,,,,,,,,,,,,,,,,,,,,,,,,,,,1417.5085110999644,1417.5240067999694,1418.0083003999898,,,,,,,,,,,,,,1418.0310488999821,,,,,,,,,,,,,1418.0275147999637,1418.0310488999821,1418.0310488999821,1418.0310488999821,1421.0245556000154,j,1.0613394000101835,0.19294430001173168,1421.0247147000046,1421.0247687000083,None,,,,,,,,,,,,,,,,,00031,001,2025-11-21_15h47.15.320,MST_task,2024.2.0,59.9244113440032,2025-11-21 15h47.23.591839 +0530,
,Scenes\083a.jpg,67,0,68,,,,,,,j,0.9746985000092536,0.168065799982287,None,,,,,,68,0,67,1421.0407859999686,,,,,,,,,,,,,,,,,,,,,,,,,,,,,,1421.0251908999635,1421.0407859999686,1421.5251564999926,,,,,,,,,,,,,,1421.5498274000129,,,,,,,,,,,,,1421.5463432999677,1421.5498274000129,1421.5498274000129,1421.5498274000129,1424.5414479000028,j,0.9746985000092536,0.168065799982287,1424.5416175000137,1424.5416786000133,None,,,,,,,,,,,,,,,,,00031,001,2025-11-21_15h47.15.320,MST_task,2024.2.0,59.9244113440032,2025-11-21 15h47.23.591839 +0530,
,Scenes\175a.jpg,68,0,69,,,,,,,j,0.8132536000339314,0.2164539999794215,None,,,,,,69,0,68,1424.5571774999844,,,,,,,,,,,,,,,,,,,,,,,,,,,,,,1424.5420950999833,1424.5571774999844,1425.0418935999623,,,,,,,,,,,,,,1425.0631967000081,,,,,,,,,,,,,1425.0599951999611,1425.0631967000081,1425.0631967000081,1425.0631967000081,1428.057770000014,j,0.8132536000339314,0.2164539999794215,1428.0579364000005,1428.0579919000156,None,,,,,,,,,,,,,,,,,00031,001,2025-11-21_15h47.15.320,MST_task,2024.2.0,59.9244113440032,2025-11-21 15h47.23.591839 +0530,
,Scenes\066a.jpg,69,0,70,,,,,,,j,0.9870072999619879,0.2001717000384815,None,,,,,,70,0,69,1428.0740583000006,,,,,,,,,,,,,,,,,,,,,,,,,,,,,,1428.0583542999811,1428.0740583000006,1428.5583993999753,,,,,,,,,,,,,,1428.5783455999917,,,,,,,,,,,,,1428.5749695000122,1428.5783455999917,1428.5783455999917,1428.5783455999917,1431.5745723000146,j,0.9870072999619879,0.2001717000384815,1431.5747239000048,1431.5748010000098,None,,,,,,,,,,,,,,,,,00031,001,2025-11-21_15h47.15.320,MST_task,2024.2.0,59.9244113440032,2025-11-21 15h47.23.591839 +0530,
,Objects\056a.jpg,70,0,71,,,,,,,f,2.4498820999870077,0.23155820003012195,None,,,,,,71,0,70,1431.590777400008,,,,,,,,,,,,,,,,,,,,,,,,,,,,,,1431.5751491999836,1431.590777400008,1432.075268799963,,,,,,,,,,,,,,1432.099210299959,,,,,,,,,,,,,1432.0961294000153,1432.099210299959,1432.099210299959,1432.099210299959,1435.0913429000066,f,2.4498820999870077,0.23155820003012195,1435.0980391000048,1435.0980702000088,None,,,,,,,,,,,,,,,,,00031,001,2025-11-21_15h47.15.320,MST_task,2024.2.0,59.9244113440032,2025-11-21 15h47.23.591839 +0530,
,Objects\073a.jpg,71,0,72,,,,,,,f,1.073687699972652,0.22399550001136959,None,,,,,,72,0,71,1435.1070320999715,,,,,,,,,,,,,,,,,,,,,,,,,,,,,,1435.0981963999802,1435.1070320999715,1435.591915500001,,,,,,,,,,,,,,1435.610877399973,,,,,,,,,,,,,1435.6082104999805,1435.610877399973,1435.610877399973,1435.610877399973,1438.607859199983,f,1.073687699972652,0.22399550001136959,1438.6080252999673,1438.6080819999916,None,,,,,,,,,,,,,,,,,00031,001,2025-11-21_15h47.15.320,MST_task,2024.2.0,59.9244113440032,2025-11-21 15h47.23.591839 +0530,
,Objects\078a.jpg,72,0,73,,,,,,,j,1.3793927999795415,0.20774000004166737,None,,,,,,73,0,72,1438.6240879999823,,,,,,,,,,,,,,,,,,,,,,,,,,,,,,1438.608496700006,1438.6240879999823,1439.1083078999654,,,,,,,,,,,,,,1439.1459353999817,,,,,,,,,,,,,1439.142974599963,1439.1459353999817,1439.1459353999817,1439.1459353999817,1442.124660099973,j,1.3793927999795415,0.20774000004166737,1442.1248224999872,1442.1248802999617,None,,,,,,,,,,,,,,,,,00031,001,2025-11-21_15h47.15.320,MST_task,2024.2.0,59.9244113440032,2025-11-21 15h47.23.591839 +0530,
,Objects\083a.jpg,73,0,74,,,,,,,f,1.498148599988781,0.24818740005139261,None,,,,,,74,0,73,1442.140791199985,,,,,,,,,,,,,,,,,,,,,,,,,,,,,,1442.1251837000018,1442.140791199985,1442.6253042999888,,,,,,,,,,,,,,1442.6667412999668,,,,,,,,,,,,,1442.6638674999704,1442.6667412999668,1442.6667412999668,1442.6667412999668,1445.6412637999747,f,1.498148599988781,0.24818740005139261,1445.641460200015,1445.641513999959,None,,,,,,,,,,,,,,,,,00031,001,2025-11-21_15h47.15.320,MST_task,2024.2.0,59.9244113440032,2025-11-21 15h47.23.591839 +0530,
,Objects\044a.jpg,74,0,75,,,,,,,f,1.5465947999618948,0.25578950002091005,None,,,,,,75,0,74,1445.6571280999924,,,,,,,,,,,,,,,,,,,,,,,,,,,,,,1445.6417946000001,1445.6571280999924,1446.1418778999941,,,,,,,,,,,,,,1446.1624834999675,,,,,,,,,,,,,1446.1598545999732,1446.1624834999675,1446.1624834999675,1446.1624834999675,1449.158011099964,f,1.5465947999618948,0.25578950002091005,1449.1581800999702,1449.1582401999622,None,,,,,,,,,,,,,,,,,00031,001,2025-11-21_15h47.15.320,MST_task,2024.2.0,59.9244113440032,2025-11-21 15h47.23.591839 +0530,
,Objects\130a.jpg,75,0,76,,,,,,,j,1.182684400002472,0.19954220001818612,None,,,,,,76,0,75,1449.1741212999914,,,,,,,,,,,,,,,,,,,,,,,,,,,,,,1449.1585422999924,1449.1741212999914,1449.6582777000149,,,,,,,,,,,,,,1449.6785265000071,,,,,,,,,,,,,1449.6760821999633,1449.6785265000071,1449.6785265000071,1449.6785265000071,1452.6747043000069,j,1.182684400002472,0.19954220001818612,1452.6748696999857,1452.6749248999986,None,,,,,,,,,,,,,,,,,00031,001,2025-11-21_15h47.15.320,MST_task,2024.2.0,59.9244113440032,2025-11-21 15h47.23.591839 +0530,
,Objects\174a.jpg,76,0,77,,,,,,,f,1.7152690999791957,0.24003049999009818,None,,,,,,77,0,76,1452.690775599971,,,,,,,,,,,,,,,,,,,,,,,,,,,,,,1452.6752406999585,1452.690775599971,1453.175102600013,,,,,,,,,,,,,,1453.193355299998,,,,,,,,,,,,,1453.1908184000058,1453.193355299998,1453.193355299998,1453.193355299998,1456.1914108999772,f,1.7152690999791957,0.24003049999009818,1456.1915968999965,1456.19165589998,None,,,,,,,,,,,,,,,,,00031,001,2025-11-21_15h47.15.320,MST_task,2024.2.0,59.9244113440032,2025-11-21 15h47.23.591839 +0530,
,Scenes\096a.jpg,77,0,78,,,,,,,j,1.211726900015492,0.2552237000199966,None,,,,,,78,0,77,1456.207340999972,,,,,,,,,,,,,,,,,,,,,,,,,,,,,,1456.1920837999787,1456.207340999972,1456.6920292999712,,,,,,,,,,,,,,1456.7135694999597,,,,,,,,,,,,,1456.7103539999807,1456.7135694999597,1456.7135694999597,1456.7135694999597,1459.7076128000044,j,1.211726900015492,0.2552237000199966,1459.7130788000068,1459.713123499998,None,,,,,,,,,,,,,,,,,00031,001,2025-11-21_15h47.15.320,MST_task,2024.2.0,59.9244113440032,2025-11-21 15h47.23.591839 +0530,
,Scenes\094a.jpg,78,0,79,,,,,,,j,2.6577802000101656,0.21603519999189302,None,,,,,,79,0,78,1459.7238128999597,,,,,,,,,,,,,,,,,,,,,,,,,,,,,,1459.7133844000055,1459.7238128999597,1460.2085122999852,,,,,,,,,,,,,,1460.2347675999627,,,,,,,,,,,,,1460.2316410999629,1460.2347675999627,1460.2347675999627,1460.2347675999627,1463.2246739999973,j,2.6577802000101656,0.21603519999189302,1463.2248496999964,1463.224907899974,None,,,,,,,,,,,,,,,,,00031,001,2025-11-21_15h47.15.320,MST_task,2024.2.0,59.9244113440032,2025-11-21 15h47.23.591839 +0530,
,Scenes\010a.jpg,79,0,80,,,,,,,None,,,j,1.807687399967108,None,,,,80,0,79,1463.2406634999788,,,,,,,,,,,,,,,,,,,,,,,,,,,,,,1463.2251791000017,1463.2406634999788,1463.7252650000155,,,,,,,,,,,,,,1463.7544980999664,,,,,,,,,,,,,1463.7517377999611,1463.7544980999664,1463.7544980999664,1463.7544980999664,1466.7409502000082,None,,,1466.74103559996,1468.5758901999798,j,1466.7571280999691,1466.7571280999691,1.807687399967108,None,,,,,,,,,,,,,00031,001,2025-11-21_15h47.15.320,MST_task,2024.2.0,59.9244113440032,2025-11-21 15h47.23.591839 +0530,
,Scenes\182a.jpg,80,0,81,,,,,,,j,1.7632923999917693,0.16833100002259016,None,,,,,,81,0,80,1468.590585900005,,,,,,,,,,,,,,,,,,,,,,,,,,,,,,1468.5762957999832,1468.590585900005,1469.0752768999664,,,,,,,,,,,,,,1469.097478599986,,,,,,,,,,,,,1469.0941153999884,1469.097478599986,1469.097478599986,1469.097478599986,1472.0913606999675,j,1.7632923999917693,0.16833100002259016,1472.0917737999698,1472.0918496999657,None,,,,,,,,,,,,,,,,,00031,001,2025-11-21_15h47.15.320,MST_task,2024.2.0,59.9244113440032,2025-11-21 15h47.23.591839 +0530,
,Scenes\145a.jpg,81,0,82,,,,,,,j,0.804007200000342,0.17574070004047826,None,,,,,,82,0,81,1472.1075336000067,,,,,,,,,,,,,,,,,,,,,,,,,,,,,,1472.0921594999963,1472.1075336000067,1472.5916206999682,,,,,,,,,,,,,,1472.6165626000147,,,,,,,,,,,,,1472.6132707999786,1472.6165626000147,1472.6165626000147,1472.6165626000147,1475.6079618000076,j,0.804007200000342,0.17574070004047826,1475.6081438999972,1475.608202399977,None,,,,,,,,,,,,,,,,,00031,001,2025-11-21_15h47.15.320,MST_task,2024.2.0,59.9244113440032,2025-11-21 15h47.23.591839 +0530,
,Scenes\044a.jpg,82,0,83,,,,,,,j,1.4365012999624014,0.23935920000076294,None,,,,,,83,0,82,1475.623900000006,,,,,,,,,,,,,,,,,,,,,,,,,,,,,,1475.6086384999799,1475.623900000006,1476.1086338000023,,,,,,,,,,,,,,1476.137292200001,,,,,,,,,,,,,1476.1339509999962,1476.137292200001,1476.137292200001,1476.137292200001,1479.1245887000114,j,1.4365012999624014,0.23935920000076294,1479.1247557000024,1479.1248445999809,None,,,,,,,,,,,,,,,,,00031,001,2025-11-21_15h47.15.320,MST_task,2024.2.0,59.9244113440032,2025-11-21 15h47.23.591839 +0530,
,Scenes\164a.jpg,83,0,84,,,,,,,j,1.3382398000103422,0.2083365999860689,None,,,,,,84,0,83,1479.1405940999975,,,,,,,,,,,,,,,,,,,,,,,,,,,,,,1479.1251519999932,1479.1405940999975,1479.6252414999763,,,,,,,,,,,,,,1479.6505389999948,,,,,,,,,,,,,1479.647167899995,1479.6505389999948,1479.6505389999948,1479.6505389999948,1482.6413746000035,j,1.3382398000103422,0.2083365999860689,1482.6415472999797,1482.6415991999675,None,,,,,,,,,,,,,,,,,00031,001,2025-11-21_15h47.15.320,MST_task,2024.2.0,59.9244113440032,2025-11-21 15h47.23.591839 +0530,
,Objects\045a.jpg,84,0,85,,,,,,,j,1.3914236000273377,0.24747459997888654,None,,,,,,85,0,84,1482.6573829000117,,,,,,,,,,,,,,,,,,,,,,,,,,,,,,1482.6418729000143,1482.6573829000117,1483.1415741000092,,,,,,,,,,,,,,1483.1655313000083,,,,,,,,,,,,,1483.1623444000143,1483.1655313000083,1483.1655313000083,1483.1655313000083,1486.157945599989,j,1.3914236000273377,0.24747459997888654,1486.1646317999694,1486.1646495999885,None,,,,,,,,,,,,,,,,,00031,001,2025-11-21_15h47.15.320,MST_task,2024.2.0,59.9244113440032,2025-11-21 15h47.23.591839 +0530,
,Objects\160a.jpg,85,0,86,,,,,,,f,1.3169157999800518,0.23220690002199262,None,,,,,,86,0,85,1486.174021999992,,,,,,,,,,,,,,,,,,,,,,,,,,,,,,1486.1647574999952,1486.174021999992,1486.6585379999597,,,,,,,,,,,,,,1486.6798761999817,,,,,,,,,,,,,1486.6769023999805,1486.6798761999817,1486.6798761999817,1486.6798761999817,1489.6746509000077,f,1.3169157999800518,0.23220690002199262,1489.6748155999812,1489.6748758999747,None,,,,,,,,,,,,,,,,,00031,001,2025-11-21_15h47.15.320,MST_task,2024.2.0,59.9244113440032,2025-11-21 15h47.23.591839 +0530,
,Objects\002a.jpg,86,0,87,,,,,,,f,1.0342321999487467,0.27256740001030266,None,,,,,,87,0,86,1489.690627200005,,,,,,,,,,,,,,,,,,,,,,,,,,,,,,1489.675177600002,1489.690627200005,1490.1751027000137,,,,,,,,,,,,,,1490.1943685999722,,,,,,,,,,,,,1490.1914396999637,1490.1943685999722,1490.1943685999722,1490.1943685999722,1493.1917113999953,f,1.0342321999487467,0.27256740001030266,1493.191914099967,1493.1919744999614,None,,,,,,,,,,,,,,,,,00031,001,2025-11-21_15h47.15.320,MST_task,2024.2.0,59.9244113440032,2025-11-21 15h47.23.591839 +0530,
,Objects\182a.jpg,87,0,88,,,,,,,f,1.2365130999824032,0.2644115000148304,None,,,,,,88,0,87,1493.2072004000074,,,,,,,,,,,,,,,,,,,,,,,,,,,,,,1493.1924074999988,1493.2072004000074,1493.6915791999782,,,,,,,,,,,,,,1493.712052399991,,,,,,,,,,,,,1493.709557199967,1493.712052399991,1493.712052399991,1493.712052399991,1496.7078249999904,f,1.2365130999824032,0.2644115000148304,1496.707986399997,1496.7080438999692,None,,,,,,,,,,,,,,,,,00031,001,2025-11-21_15h47.15.320,MST_task,2024.2.0,59.9244113440032,2025-11-21 15h47.23.591839 +0530,
,Objects\039a.jpg,88,0,89,,,,,,,None,,,j,0.09236970002530143,None,,,,89,0,88,1496.7239921999862,,,,,,,,,,,,,,,,,,,,,,,,,,,,,,1496.7083534999983,1496.7239921999862,1497.2084994000033,,,,,,,,,,,,,,1497.245101700013,,,,,,,,,,,,,1497.2424398000003,1497.245101700013,1497.245101700013,1497.245101700013,1500.2244638999691,None,,,1500.2246336999815,1500.3428995999857,j,1500.2407227999647,1500.2407227999647,0.09236970002530143,None,,,,,,,,,,,,,00031,001,2025-11-21_15h47.15.320,MST_task,2024.2.0,59.9244113440032,2025-11-21 15h47.23.591839 +0530,
,Objects\090a.jpg,89,0,90,,,,,,,f,2.351902899972629,0.271826800017152,None,,,,,,90,0,89,1500.357129000011,,,,,,,,,,,,,,,,,,,,,,,,,,,,,,1500.3433829999994,1500.357129000011,1500.84152789996,,,,,,,,,,,,,,1500.8609529999667,,,,,,,,,,,,,1500.8583318999736,1500.8609529999667,1500.8609529999667,1500.8609529999667,1503.85792390001,f,2.351902899972629,0.271826800017152,1503.8580925000133,1503.8581536000129,None,,,,,,,,,,,,,,,,,00031,001,2025-11-21_15h47.15.320,MST_task,2024.2.0,59.9244113440032,2025-11-21 15h47.23.591839 +0530,
,Objects\099a.jpg,90,0,91,,,,,,,f,0.9548567999736406,0.24865990004036576,None,,,,,,91,0,90,1503.8742581999977,,,,,,,,,,,,,,,,,,,,,,,,,,,,,,1503.8584525999613,1503.8742581999977,1504.358457299997,,,,,,,,,,,,,,1504.3776415999746,,,,,,,,,,,,,1504.3750296999933,1504.3776415999746,1504.3776415999746,1504.3776415999746,1507.3746357999626,f,0.9548567999736406,0.24865990004036576,1507.3748539999942,1507.3749069999903,None,,,,,,,,,,,,,,,,,00031,001,2025-11-21_15h47.15.320,MST_task,2024.2.0,59.9244113440032,2025-11-21 15h47.23.591839 +0530,
,Scenes\112a.jpg,91,0,92,,,,,,,j,0.975211099954322,0.2316658000345342,None,,,,,,92,0,91,1507.3906342000118,,,,,,,,,,,,,,,,,,,,,,,,,,,,,,1507.3751811999828,1507.3906342000118,1507.875210499973,,,,,,,,,,,,,,1507.9017601999803,,,,,,,,,,,,,1507.8984629999613,1507.9017601999803,1507.9017601999803,1507.9017601999803,1510.891360700014,j,0.975211099954322,0.2316658000345342,1510.8972400999628,1510.897274499992,None,,,,,,,,,,,,,,,,,00031,001,2025-11-21_15h47.15.320,MST_task,2024.2.0,59.9244113440032,2025-11-21 15h47.23.591839 +0530,
,Scenes\039a.jpg,92,0,93,,,,,,,j,1.3733761999756098,0.20822580001549795,None,,,,,,93,0,92,1510.9070812999853,,,,,,,,,,,,,,,,,,,,,,,,,,,,,,1510.8974105999805,1510.9070812999853,1511.3915875999955,,,,,,,,,,,,,,1511.4154174000141,,,,,,,,,,,,,1511.4122699999716,1511.4154174000141,1511.4154174000141,1511.4154174000141,1514.4083470999612,j,1.3733761999756098,0.20822580001549795,1514.408537500014,1514.4085975000053,None,,,,,,,,,,,,,,,,,00031,001,2025-11-21_15h47.15.320,MST_task,2024.2.0,59.9244113440032,2025-11-21 15h47.23.591839 +0530,
,Scenes\070a.jpg,93,0,94,,,,,,,f,1.4391491999849677,0.2790324999950826,None,,,,,,94,0,93,1514.4239625000046,,,,,,,,,,,,,,,,,,,,,,,,,,,,,,1514.409047699999,1514.4239625000046,1514.9084270999883,,,,,,,,,,,,,,1514.9341932999669,,,,,,,,,,,,,1514.9308242999832,1514.9341932999669,1514.9341932999669,1514.9341932999669,1517.9246115999995,f,1.4391491999849677,0.2790324999950826,1517.9247755999677,1517.924831899989,None,,,,,,,,,,,,,,,,,00031,001,2025-11-21_15h47.15.320,MST_task,2024.2.0,59.9244113440032,2025-11-21 15h47.23.591839 +0530,
,Scenes\171a.jpg,94,0,95,,,,,,,f,1.0354976000380702,0.24003739998443052,None,,,,,,95,0,94,1517.9406535999733,,,,,,,,,,,,,,,,,,,,,,,,,,,,,,1517.9252609999967,1517.9406535999733,1518.425062800001,,,,,,,,,,,,,,1518.4495679999818,,,,,,,,,,,,,1518.4461588999839,1518.4495679999818,1518.4495679999818,1518.4495679999818,1521.4414799999795,f,1.0354976000380702,0.24003739998443052,1521.4416436000029,1521.441700699972,None,,,,,,,,,,,,,,,,,00031,001,2025-11-21_15h47.15.320,MST_task,2024.2.0,59.9244113440032,2025-11-21 15h47.23.591839 +0530,
,Scenes\178a.jpg,95,0,96,,,,,,,j,1.1852014999603853,0.2073872000328265,None,,,,,,96,0,95,1521.4572165000136,,,,,,,,,,,,,,,,,,,,,,,,,,,,,,1521.4421282999683,1521.4572165000136,1521.941667600011,,,,,,,,,,,,,,1521.9640282999608,,,,,,,,,,,,,1521.9606805999647,1521.9640282999608,1521.9640282999608,1521.9640282999608,1524.9578358000144,j,1.1852014999603853,0.2073872000328265,1524.9580342000118,1524.9580919999862,None,,,,,,,,,,,,,,,,,00031,001,2025-11-21_15h47.15.320,MST_task,2024.2.0,59.9244113440032,2025-11-21 15h47.23.591839 +0530,
,Scenes\051a.jpg,96,0,97,,,,,,,j,2.292014399950858,0.19158740004058927,None,,,,,,97,0,96,1524.9739281999646,,,,,,,,,,,,,,,,,,,,,,,,,,,,,,1524.9583710999577,1524.9739281999646,1525.4585495999781,,,,,,,,,,,,,,1525.480887099984,,,,,,,,,,,,,1525.4776915999828,1525.480887099984,1525.480887099984,1525.480887099984,1528.4746374000097,j,2.292014399950858,0.19158740004058927,1528.4747892000014,1528.4748699999764,None,,,,,,,,,,,,,,,,,00031,001,2025-11-21_15h47.15.320,MST_task,2024.2.0,59.9244113440032,2025-11-21 15h47.23.591839 +0530,
,Scenes\073a.jpg,97,0,98,,,,,,,j,0.8401258000521921,0.19206749997101724,None,,,,,,98,0,97,1528.49063939997,,,,,,,,,,,,,,,,,,,,,,,,,,,,,,1528.4752257000073,1528.49063939997,1528.9748225999647,,,,,,,,,,,,,,1528.9963847000035,,,,,,,,,,,,,1528.9932921999716,1528.9963847000035,1528.9963847000035,1528.9963847000035,1531.991455600015,j,0.8401258000521921,0.19206749997101724,1531.9917275999906,1531.9918067000108,None,,,,,,,,,,,,,,,,,00031,001,2025-11-21_15h47.15.320,MST_task,2024.2.0,59.9244113440032,2025-11-21 15h47.23.591839 +0530,
,Objects\124a.jpg,98,0,99,,,,,,,f,1.089796699990984,0.2320620000245981,None,,,,,,99,0,98,1532.007360699994,,,,,,,,,,,,,,,,,,,,,,,,,,,,,,1531.9922499000095,1532.007360699994,1532.4916859999648,,,,,,,,,,,,,,1532.5149340999778,,,,,,,,,,,,,1532.5117846999783,1532.5149340999778,1532.5149340999778,1532.5149340999778,1535.5079142999602,f,1.089796699990984,0.2320620000245981,1535.5140238999738,1535.5140528999618,None,,,,,,,,,,,,,,,,,00031,001,2025-11-21_15h47.15.320,MST_task,2024.2.0,59.9244113440032,2025-11-21 15h47.23.591839 +0530,
,Objects\057a.jpg,99,0,100,,,,,,,f,1.3296590000391006,0.24788989999797195,None,,,,,,100,0,99,1535.5237737999996,,,,,,,,,,,,,,,,,,,,,,,,,,,,,,1535.5142115000053,1535.5237737999996,1536.0081364999642,,,,,,,,,,,,,,1536.0274538999656,,,,,,,,,,,,,1536.02466559998,1536.0274538999656,1536.0274538999656,1536.0274538999656,1539.0242051999667,f,1.3296590000391006,0.24788989999797195,1539.0242470999947,1539.0242588999681,None,,,,,,,,,,,,,,,,,00031,001,2025-11-21_15h47.15.320,MST_task,2024.2.0,59.9244113440032,2025-11-21 15h47.23.591839 +0530,
,Objects\111a.jpg,100,0,101,,,,,,,f,2.1159692999790423,0.27235849999124184,None,,,,,,101,0,100,1539.0405504999799,,,,,,,,,,,,,,,,,,,,,,,,,,,,,,1539.0243304999894,1539.0405504999799,1539.5244013000047,,,,,,,,,,,,,,,,,,,,,,,,,,,1539.5424129999592,1539.5450513999676,1539.5450513999676,1539.5450513999676,1542.5247477999656,f,2.1159692999790423,0.27235849999124184,1542.5249201999977,1542.5249787999783,None,,,,,,,,,,,,,,,,,00031,001,2025-11-21_15h47.15.320,MST_task,2024.2.0,59.9244113440032,2025-11-21 15h47.23.591839 +0530,
,Objects\029a.jpg,101,0,102,,,,,,,f,0.9799789999960922,0.24816600000485778,None,,,,,,102,0,101,1542.540880399989,,,,,,,,,,,,,,,,,,,,,,,,,,,,,,1542.5253778999904,1542.540880399989,1543.024283799983,,,,,,,,,,,,,,1543.041039099975,,,,,,,,,,,,,1543.0374761999701,1543.041039099975,1543.041039099975,1543.041039099975,1546.025949599978,f,0.9799789999960922,0.24816600000485778,1546.0261005999637,1546.0261492999853,None,,,,,1546.0409356000018,1546.0409356000018,1546.0409356000018,,,,,,,,,,00031,001,2025-11-21_15h47.15.320,MST_task,2024.2.0,59.9244113440032,2025-11-21 15h47.23.591839 +0530,
,Objects\052a.jpg,102,0,103,,,,,,,f,1.173990799987223,0.30342960002599284,None,,,,,,103,0,102,1546.0409356000018,,,,,,,,,,,,,,,,,,,,,,,,,,,,,,1546.0265637999983,1546.0409356000018,1546.5250491999905,,,,,,,,,,,,,,1546.5434329999844,,,,,,,,,,,,,1546.540947499976,1546.5434329999844,1546.5434329999844,1546.5434329999844,1549.541509600007,f,1.173990799987223,0.30342960002599284,1549.5416942000156,1549.5417538000038,None,,,,,,,,,,,,,,,,,00031,001,2025-11-21_15h47.15.320,MST_task,2024.2.0,59.9244113440032,2025-11-21 15h47.23.591839 +0530,
,Objects\119a.jpg,103,0,104,,,,,,,f,1.1837371999863535,0.25585110002430156,None,,,,,,104,0,103,1549.5572047999594,,,,,,,,,,,,,,,,,,,,,,,,,,,,,,1549.5420643999823,1549.5572047999594,1550.0421843999648,,,,,,,,,,,,,,1550.0614934999612,,,,,,,,,,,,,1550.0587291999836,1550.0614934999612,1550.0614934999612,1550.0614934999612,1553.057999200013,f,1.1837371999863535,0.25585110002430156,1553.0581629999797,1553.0582195000025,None,,,,,,,,,,,,,,,,,00031,001,2025-11-21_15h47.15.320,MST_task,2024.2.0,59.9244113440032,2025-11-21 15h47.23.591839 +0530,
,Objects\007a.jpg,104,0,105,,,,,,,j,1.8980225999839604,0.21633839997230098,None,,,,,,105,0,104,1553.0742819000152,,,,,,,,,,,,,,,,,,,,,,,,,,,,,,1553.0586432999698,1553.0742819000152,1553.5584055999643,,,,,,,,,,,,,,1553.5784736999776,,,,,,,,,,,,,1553.5756105000037,1553.5784736999776,1553.5784736999776,1553.5784736999776,1556.574540200003,j,1.8980225999839604,0.21633839997230098,1556.5746966999723,1556.5747401000117,None,,,,,,,,,,,,,,,,,00031,001,2025-11-21_15h47.15.320,MST_task,2024.2.0,59.9244113440032,2025-11-21 15h47.23.591839 +0530,
,Scenes\003a.jpg,105,0,106,,,,,,,j,1.813786100014113,0.20838899997761473,None,,,,,,106,0,105,1556.590885499958,,,,,,,,,,,,,,,,,,,,,,,,,,,,,,1556.5749195999815,1556.590885499958,1557.0750868999748,,,,,,,,,,,,,,1557.102868499991,,,,,,,,,,,,,1557.0995438999962,1557.102868499991,1557.102868499991,1557.102868499991,1560.0915373999742,j,1.813786100014113,0.20838899997761473,1560.0970399999642,1560.0970768000116,None,,,,,,,,,,,,,,,,,00031,001,2025-11-21_15h47.15.320,MST_task,2024.2.0,59.9244113440032,2025-11-21 15h47.23.591839 +0530,
,Scenes\109a.jpg,106,0,107,,,,,,,f,2.8128444000030868,None,None,,,,,,107,0,106,1560.1070204999996,,,,,,,,,,,,,,,,,,,,,,,,,,,,,,1560.0972588000004,1560.1070204999996,1560.5918823999818,,,,,,,,,,,,,,1560.6157163999742,,,,,,,,,,,,,1560.6124009999912,1560.6157163999742,1560.6157163999742,1560.6157163999742,1563.6077313999995,f,2.8128444000030868,None,1563.6080196999828,1563.6081038999837,None,,,,,,,,,,,,,,,,,00031,001,2025-11-21_15h47.15.320,MST_task,2024.2.0,59.9244113440032,2025-11-21 15h47.23.591839 +0530,
,Scenes\069a.jpg,107,0,108,,,,,,,j,1.3621006000321358,0.21592960000270978,None,,,,,,108,0,107,1563.624076100008,,,,,,,,,,,,,,,,,,,,,,,,,,,,,,1563.6084105999907,1563.624076100008,1564.1081829000032,,,,,,,,,,,,,,1564.1308341000113,,,,,,,,,,,,,1564.1274531999952,1564.1308341000113,1564.1308341000113,1564.1308341000113,1567.1246237999876,j,1.3621006000321358,0.21592960000270978,1567.1247803999577,1567.1248341999599,None,,,,,,,,,,,,,,,,,00031,001,2025-11-21_15h47.15.320,MST_task,2024.2.0,59.9244113440032,2025-11-21 15h47.23.591839 +0530,
,Scenes\165a.jpg,108,0,109,,,,,,,f,1.1504002999863587,0.24703510000836104,None,,,,,,109,0,108,1567.140666399966,,,,,,,,,,,,,,,,,,,,,,,,,,,,,,1567.1251967999851,1567.140666399966,1567.6243141999585,,,,,,,,,,,,,,1567.6469221999869,,,,,,,,,,,,,1567.643659399997,1567.6469221999869,1567.6469221999869,1567.6469221999869,1570.6413201999967,f,1.1504002999863587,0.24703510000836104,1570.6414599000127,1570.641507399967,None,,,,,,,,,,,,,,,,,00031,001,2025-11-21_15h47.15.320,MST_task,2024.2.0,59.9244113440032,2025-11-21 15h47.23.591839 +0530,
,Scenes\136a.jpg,109,0,110,,,,,,,f,1.027014599996619,0.20727010001428425,None,,,,,,110,0,109,1570.6572301000124,,,,,,,,,,,,,,,,,,,,,,,,,,,,,,1570.6419916999876,1570.6572301000124,1571.141935099964,,,,,,,,,,,,,,1571.162334099994,,,,,,,,,,,,,1571.1591409000102,1571.162334099994,1571.162334099994,1571.162334099994,1574.1579325000057,f,1.027014599996619,0.20727010001428425,1574.1581039999728,1574.158163199958,None,,,,,,,,,,,,,,,,,00031,001,2025-11-21_15h47.15.320,MST_task,2024.2.0,59.9244113440032,2025-11-21 15h47.23.591839 +0530,
,Scenes\072a.jpg,110,0,111,,,,,,,None,,,j,0.2186265999916941,None,,,,111,0,110,1574.1739813999739,,,,,,,,,,,,,,,,,,,,,,,,,,,,,,1574.1586017999798,1574.1739813999739,1574.6585541999666,,,,,,,,,,,,,,1574.6829294000054,,,,,,,,,,,,,1574.6796971999574,1574.6829294000054,1574.6829294000054,1574.6829294000054,1577.6746366000152,None,,,1577.6747697999817,1577.9262891999679,j,1577.6908121999586,1577.6908121999586,0.2186265999916941,None,,,,,,,,,,,,,00031,001,2025-11-21_15h47.15.320,MST_task,2024.2.0,59.9244113440032,2025-11-21 15h47.23.591839 +0530,
,Scenes\058a.jpg,111,0,112,,,,,,,None,,,f,0.5714956000447273,None,,,,112,0,111,1577.9407721000025,,,,,,,,,,,,,,,,,,,,,,,,,,,,,,1577.92674049997,1577.9407721000025,1578.4252597999875,,,,,,,,,,,,,,1578.4490554999793,,,,,,,,,,,,,1578.4457337000058,1578.4490554999793,1578.4490554999793,1578.4490554999793,1581.4412433999823,None,,,1581.441386499966,1582.0423892000108,f,1581.457201000012,1581.457201000012,0.5714956000447273,None,,,,,,,,,,,,,00031,001,2025-11-21_15h47.15.320,MST_task,2024.2.0,59.9244113440032,2025-11-21 15h47.23.591839 +0530,
,Objects\042a.jpg,112,0,113,,,,,,,j,2.279030999983661,0.24032829998759553,None,,,,,,113,0,112,1582.0571907999692,,,,,,,,,,,,,,,,,,,,,,,,,,,,,,1582.0428487999598,1582.0571907999692,1582.5419134999975,,,,,,,,,,,,,,1582.5656924999785,,,,,,,,,,,,,1582.5624057999812,1582.5656924999785,1582.5656924999785,1582.5656924999785,1585.5577734999824,j,2.279030999983661,0.24032829998759553,1585.561931299977,1585.5619542999775,None,,,,,,,,,,,,,,,,,00031,001,2025-11-21_15h47.15.320,MST_task,2024.2.0,59.9244113440032,2025-11-21 15h47.23.591839 +0530,
,Objects\081a.jpg,113,0,114,,,,,,,f,1.571027799975127,0.2316193000297062,None,,,,,,114,0,113,1585.5737721999758,,,,,,,,,,,,,,,,,,,,,,,,,,,,,,1585.5620441999636,1585.5737721999758,1586.0573879999574,,,,,,,,,,,,,,1586.0742590000154,,,,,,,,,,,,,1586.0676421999815,1586.0742590000154,1586.0742590000154,1586.0742590000154,1589.0592840999598,f,1.571027799975127,0.2316193000297062,1589.0594312999747,1589.0594781999825,None,,,,,1589.0739965999965,1589.0739965999965,1589.0739965999965,,,,,,,,,,00031,001,2025-11-21_15h47.15.320,MST_task,2024.2.0,59.9244113440032,2025-11-21 15h47.23.591839 +0530,
,Objects\140a.jpg,114,0,115,,,,,,,None,,,f,1.493802000011783,None,,,,115,0,114,1589.0739965999965,,,,,,,,,,,,,,,,,,,,,,,,,,,,,,1589.0597504999605,1589.0739965999965,1589.558554999996,,,,,,,,,,,,,,1589.5764389999676,,,,,,,,,,,,,1589.5739811999956,1589.5764389999676,1589.5764389999676,1589.5764389999676,1592.5746145999874,None,,,1592.574715499999,1594.0928506999626,f,1592.5908950999728,1592.5908950999728,1.493802000011783,None,,,,,,,,,,,,,00031,001,2025-11-21_15h47.15.320,MST_task,2024.2.0,59.9244113440032,2025-11-21 15h47.23.591839 +0530,
,Objects\133a.jpg,115,0,116,,,,,,,j,2.4499780000187457,0.2402431999798864,None,,,,,,116,0,115,1594.1073677999666,,,,,,,,,,,,,,,,,,,,,,,,,,,,,,1594.093190399988,1594.1073677999666,1594.5921958999825,,,,,,,,,,,,,,1594.610595599981,,,,,,,,,,,,,1594.6079224999994,1594.610595599981,1594.610595599981,1594.610595599981,1597.6081357999938,j,2.4499780000187457,0.2402431999798864,1597.6083068999578,1597.6083676000126,None,,,,,,,,,,,,,,,,,00031,001,2025-11-21_15h47.15.320,MST_task,2024.2.0,59.9244113440032,2025-11-21 15h47.23.591839 +0530,
,Objects\136a.jpg,116,0,117,,,,,,,f,0.9479518000152893,0.2962339000077918,None,,,,,,117,0,116,1597.6240752000012,,,,,,,,,,,,,,,,,,,,,,,,,,,,,,1597.6086671999656,1597.6240752000012,1598.1084756999626,,,,,,,,,,,,,,1598.1289957999834,,,,,,,,,,,,,1598.1261999999988,1598.1289957999834,1598.1289957999834,1598.1289957999834,1601.1248750999803,f,0.9479518000152893,0.2962339000077918,1601.1250446999911,1601.1251036999747,None,,,,,,,,,,,,,,,,,00031,001,2025-11-21_15h47.15.320,MST_task,2024.2.0,59.9244113440032,2025-11-21 15h47.23.591839 +0530,
,Objects\018a.jpg,117,0,118,,,,,,,j,1.2917283999850042,0.25584140000864863,None,,,,,,118,0,117,1601.140810300014,,,,,,,,,,,,,,,,,,,,,,,,,,,,,,1601.1255319999764,1601.140810300014,1601.6240423999843,,,,,,,,,,,,,,1601.640930499998,,,,,,,,,,,,,1601.6350089999614,1601.640930499998,1601.640930499998,1601.640930499998,1604.626654099964,j,1.2917283999850042,0.25584140000864863,1604.6268334999913,1604.6268869999913,None,,,,,1604.6408664999763,1604.6408664999763,1604.6408664999763,,,,,,,,,,00031,001,2025-11-21_15h47.15.320,MST_task,2024.2.0,59.9244113440032,2025-11-21 15h47.23.591839 +0530,
,Objects\129a.jpg,118,0,119,,,,,,,f,1.0510421000071801,0.28004159999545664,None,,,,,,119,0,118,1604.6408664999763,,,,,,,,,,,,,,,,,,,,,,,,,,,,,,1604.6271669999696,1604.6408664999763,1605.1255609999644,,,,,,,,,,,,,,1605.1459357999847,,,,,,,,,,,,,1605.1432183000143,1605.1459357999847,1605.1459357999847,1605.1459357999847,1608.1414786999812,f,1.0510421000071801,0.28004159999545664,1608.1416581000085,1608.1417155999807,None,,,,,,,,,,,,,,,,,00031,001,2025-11-21_15h47.15.320,MST_task,2024.2.0,59.9244113440032,2025-11-21 15h47.23.591839 +0530,
,Scenes\118a.jpg,119,0,120,,,,,,,j,2.28314740001224,0.22486499999649823,None,,,,,,120,0,119,1608.1573747000075,,,,,,,,,,,,,,,,,,,,,,,,,,,,,,1608.1421736999764,1608.1573747000075,1608.6420518999803,,,,,,,,,,,,,,1608.665330399992,,,,,,,,,,,,,1608.6620209999965,1608.665330399992,1608.665330399992,1608.665330399992,1611.6580475000083,j,2.28314740001224,0.22486499999649823,1611.6639663999667,1611.6640110999579,None,,,,,,,,,,,,,,,,,00031,001,2025-11-21_15h47.15.320,MST_task,2024.2.0,59.9244113440032,2025-11-21 15h47.23.591839 +0530,
,Scenes\062a.jpg,120,0,121,,,,,,,j,1.4675781999831088,0.19898869999451563,None,,,,,,121,0,120,1611.6739267999656,,,,,,,,,,,,,,,,,,,,,,,,,,,,,,1611.6642245000112,1611.6739267999656,1612.1585743000032,,,,,,,,,,,,,,1612.1860526999808,,,,,,,,,,,,,1612.1827774000121,1612.1860526999808,1612.1860526999808,1612.1860526999808,1615.174890299968,j,1.4675781999831088,0.19898869999451563,1615.175057299959,1615.1751160999993,None,,,,,,,,,,,,,,,,,00031,001,2025-11-21_15h47.15.320,MST_task,2024.2.0,59.9244113440032,2025-11-21 15h47.23.591839 +0530,
,Scenes\054a.jpg,121,0,122,,,,,,,j,1.0957979999948293,0.2481555999838747,None,,,,,,122,0,121,1615.1908274999587,,,,,,,,,,,,,,,,,,,,,,,,,,,,,,1615.175562599965,1615.1908274999587,1615.6753562999656,,,,,,,,,,,,,,1615.7008115999633,,,,,,,,,,,,,1615.69812799996,1615.7008115999633,1615.7008115999633,1615.7008115999633,1618.6914760000072,j,1.0957979999948293,0.2481555999838747,1618.691629000008,1618.6916773999692,None,,,,,,,,,,,,,,,,,00031,001,2025-11-21_15h47.15.320,MST_task,2024.2.0,59.9244113440032,2025-11-21 15h47.23.591839 +0530,
,Scenes\025a.jpg,122,0,123,,,,,,,j,2.1882768000359647,0.27143510000314564,None,,,,,,123,0,122,1618.7074061000021,,,,,,,,,,,,,,,,,,,,,,,,,,,,,,1618.692060499976,1618.7074061000021,1619.1919980999664,,,,,,,,,,,,,,1619.224963799992,,,,,,,,,,,,,1619.2214645000058,1619.224963799992,1619.224963799992,1619.224963799992,1622.2076742000063,j,2.1882768000359647,0.27143510000314564,1622.207813499961,1622.2078597999644,None,,,,,,,,,,,,,,,,,00031,001,2025-11-21_15h47.15.320,MST_task,2024.2.0,59.9244113440032,2025-11-21 15h47.23.591839 +0530,
,Scenes\103a.jpg,123,0,124,,,,,,,j,2.780657400027849,None,None,,,,,,124,0,123,1622.2240359999705,,,,,,,,,,,,,,,,,,,,,,,,,,,,,,1622.2081435999717,1622.2240359999705,1622.7083799999673,,,,,,,,,,,,,,1622.736655799963,,,,,,,,,,,,,1622.7333042999962,1622.736655799963,1622.736655799963,1622.736655799963,1625.7247479999787,j,2.780657400027849,None,1625.7249122000067,1625.7249679999659,None,,,,,,,,,,,,,,,,,00031,001,2025-11-21_15h47.15.320,MST_task,2024.2.0,59.9244113440032,2025-11-21 15h47.23.591839 +0530,
,Scenes\081a.jpg,124,0,125,,,,,,,j,0.7787792999879457,0.20861329999752343,None,,,,,,125,0,124,1625.7408165999805,,,,,,,,,,,,,,,,,,,,,,,,,,,,,,1625.7253860000055,1625.7408165999805,1626.225520499982,,,,,,,,,,,,,,1626.249747199996,,,,,,,,,,,,,1626.2469693999738,1626.249747199996,1626.249747199996,1626.249747199996,1629.2415461000055,j,0.7787792999879457,0.20861329999752343,1629.2417069000076,1629.2417624999653,None,,,,,,,,,,,,,,,,,00031,001,2025-11-21_15h47.15.320,MST_task,2024.2.0,59.9244113440032,2025-11-21 15h47.23.591839 +0530,
,Scenes\006a.jpg,125,0,126,,,,,,,None,,,f,0.06267999997362494,None,,,,126,0,125,1629.2572426999686,,,,,,,,,,,,,,,,,,,,,,,,,,,,,,1629.2421850999817,1629.2572426999686,1629.741995999997,,,,,,,,,,,,,,1629.7640990999644,,,,,,,,,,,,,1629.7608011999982,1629.7640990999644,1629.7640990999644,1629.7640990999644,1632.7582186000072,None,,,1632.758366999973,1632.842774699966,f,1632.7742792000063,1632.7742792000063,0.06267999997362494,None,,,,,,,,,,,,,00031,001,2025-11-21_15h47.15.320,MST_task,2024.2.0,59.9244113440032,2025-11-21 15h47.23.591839 +0530,
,Objects\014a.jpg,126,0,127,,,,,,,f,1.0969043000368401,0.20673959999112412,None,,,,,,127,0,126,1632.8571676000138,,,,,,,,,,,,,,,,,,,,,,,,,,,,,,1632.8431586999795,1632.8571676000138,1633.3418985999888,,,,,,,,,,,,,,1633.3650559000089,,,,,,,,,,,,,1633.361904999998,1633.3650559000089,1633.3650559000089,1633.3650559000089,1636.358072299976,f,1.0969043000368401,0.20673959999112412,1636.36410289997,1636.3641350999824,None,,,,,,,,,,,,,,,,,00031,001,2025-11-21_15h47.15.320,MST_task,2024.2.0,59.9244113440032,2025-11-21 15h47.23.591839 +0530,
,Objects\142a.jpg,127,0,128,,,,,,,f,1.262805100006517,0.20088159997249022,None,,,,,,128,0,127,1636.373916200013,,,,,,,,,,,,,,,,,,,,,,,,,,,,,,1636.3643240999663,1636.373916200013,1636.8582741999999,,,,,,,,,,,,,,1636.8782337000011,,,,,,,,,,,,,1636.8753258999786,1636.8782337000011,1636.8782337000011,1636.8782337000011,1639.8747574000154,f,1.262805100006517,0.20088159997249022,1639.874920399976,1639.8749792999588,None,,,,,,,,,,,,,,,,,00031,001,2025-11-21_15h47.15.320,MST_task,2024.2.0,59.9244113440032,2025-11-21 15h47.23.591839 +0530,
,Objects\054a.jpg,128,0,129,,,,,,,j,1.4967178999795578,0.19184690003748983,None,,,,,,129,0,128,1639.8907980999793,,,,,,,,,,,,,,,,,,,,,,,,,,,,,,1639.8754014999722,1639.8907980999793,1640.375249499979,,,,,,,,,,,,,,1640.3965694999788,,,,,,,,,,,,,1640.393837200012,1640.3965694999788,1640.3965694999788,1640.3965694999788,1643.3912921999581,j,1.4967178999795578,0.19184690003748983,1643.3914326999802,1643.3914801999927,None,,,,,,,,,,,,,,,,,00031,001,2025-11-21_15h47.15.320,MST_task,2024.2.0,59.9244113440032,2025-11-21 15h47.23.591839 +0530,
,Objects\144a.jpg,129,0,130,,,,,,,j,1.9893193999887444,0.20732960000168532,None,,,,,,130,0,129,1643.4073075999622,,,,,,,,,,,,,,,,,,,,,,,,,,,,,,1643.3918370999745,1643.4073075999622,1643.8920030000154,,,,,,,,,,,,,,1643.9118057999876,,,,,,,,,,,,,1643.9091184000135,1643.9118057999876,1643.9118057999876,1643.9118057999876,1646.9079878999619,j,1.9893193999887444,0.20732960000168532,1646.908128399984,1646.9081776000094,None,,,,,,,,,,,,,,,,,00031,001,2025-11-21_15h47.15.320,MST_task,2024.2.0,59.9244113440032,2025-11-21 15h47.23.591839 +0530,
,Objects\189a.jpg,130,0,131,,,,,,,j,2.649254000047222,0.20028049999382347,None,,,,,,131,0,130,1646.9239845999982,,,,,,,,,,,,,,,,,,,,,,,,,,,,,,1646.9085169999744,1646.9239845999982,1647.4094046999817,,,,,,,,,,,,,,1647.4273305999814,,,,,,,,,,,,,1647.4244159999653,1647.4273305999814,1647.4273305999814,1647.4273305999814,1650.424803700007,j,2.649254000047222,0.20028049999382347,1650.4249652000144,1650.4250213999767,None,,,,,,,,,,,,,,,,,00031,001,2025-11-21_15h47.15.320,MST_task,2024.2.0,59.9244113440032,2025-11-21 15h47.23.591839 +0530,
,Objects\157a.jpg,131,0,132,,,,,,,f,1.9287808999652043,0.23952980001922697,None,,,,,,132,0,131,1650.4406799999997,,,,,,,,,,,,,,,,,,,,,,,,,,,,,,1650.4254443999962,1650.4406799999997,1650.9252699000062,,,,,,,,,,,,,,1650.9482301999815,,,,,,,,,,,,,1650.9455052000121,1650.9482301999815,1650.9482301999815,1650.9482301999815,1653.941511699988,f,1.9287808999652043,0.23952980001922697,1653.9416754000122,1653.941733899992,None,,,,,,,,,,,,,,,,,00031,001,2025-11-21_15h47.15.320,MST_task,2024.2.0,59.9244113440032,2025-11-21 15h47.23.591839 +0530,
,Objects\176a.jpg,132,0,133,,,,,,,j,0.8937767000170425,0.2397097999928519,None,,,,,,133,0,132,1653.9574003999587,,,,,,,,,,,,,,,,,,,,,,,,,,,,,,1653.9421596999746,1653.9574003999587,1654.442146299989,,,,,,,,,,,,,,1654.4637394999736,,,,,,,,,,,,,1654.4611507999944,1654.4637394999736,1654.4637394999736,1654.4637394999736,1657.4422699999996,j,0.8937767000170425,0.2397097999928519,1657.4424579999759,1657.442510199966,None,,,,,,,,,,,,,,,,,00031,001,2025-11-21_15h47.15.320,MST_task,2024.2.0,59.9244113440032,2025-11-21 15h47.23.591839 +0530,
,Scenes\172a.jpg,133,0,134,,,,,,,j,2.062329599983059,0.20808710000710562,None,,,,,,134,0,133,1657.4573967999895,,,,,,,,,,,,,,,,,,,,,,,,,,,,,,1657.4428950999863,1657.4573967999895,1657.9415911000106,,,,,,,,,,,,,,1657.9671263999771,,,,,,,,,,,,,1657.9638502000016,1657.9671263999771,1657.9671263999771,1657.9671263999771,1660.9579833999742,j,2.062329599983059,0.20808710000710562,1660.9628298999742,1660.9628599999705,None,,,,,,,,,,,,,,,,,00031,001,2025-11-21_15h47.15.320,MST_task,2024.2.0,59.9244113440032,2025-11-21 15h47.23.591839 +0530,
,Scenes\090a.jpg,134,0,135,,,,,,,j,2.542539599991869,0.20868500001961365,None,,,,,,135,0,134,1660.9738497000071,,,,,,,,,,,,,,,,,,,,,,,,,,,,,,1660.9629878000123,1660.9738497000071,1661.4587102999794,,,,,,,,,,,,,,1661.4861955000088,,,,,,,,,,,,,1661.4829274999793,1661.4861955000088,1661.4861955000088,1661.4861955000088,1664.4748096999829,j,2.542539599991869,0.20868500001961365,1664.4749776999815,1664.4750365999644,None,,,,,,,,,,,,,,,,,00031,001,2025-11-21_15h47.15.320,MST_task,2024.2.0,59.9244113440032,2025-11-21 15h47.23.591839 +0530,
,Scenes\162a.jpg,135,0,136,,,,,,,j,1.4712984000216238,0.19200019998243079,None,,,,,,136,0,135,1664.490677099966,,,,,,,,,,,,,,,,,,,,,,,,,,,,,,1664.4754772000015,1664.490677099966,1664.9753554000054,,,,,,,,,,,,,,1664.9974983999855,,,,,,,,,,,,,1664.9941493999795,1664.9974983999855,1664.9974983999855,1664.9974983999855,1667.9915299999993,j,1.4712984000216238,0.19200019998243079,1667.9918047999963,1667.9918783999747,None,,,,,,,,,,,,,,,,,00031,001,2025-11-21_15h47.15.320,MST_task,2024.2.0,59.9244113440032,2025-11-21 15h47.23.591839 +0530,
,Scenes\185a.jpg,136,0,137,,,,,,,j,1.992947600025218,0.20029869995778427,None,,,,,,137,0,136,1668.0073609999963,,,,,,,,,,,,,,,,,,,,,,,,,,,,,,1667.9923654999584,1668.0073609999963,1668.4915345999761,,,,,,,,,,,,,,1668.5159932000097,,,,,,,,,,,,,1668.5127478999784,1668.5159932000097,1668.5159932000097,1668.5159932000097,1671.5079669000115,j,1.992947600025218,0.20029869995778427,1671.5081917999778,1671.5082479999983,None,,,,,,,,,,,,,,,,,00031,001,2025-11-21_15h47.15.320,MST_task,2024.2.0,59.9244113440032,2025-11-21 15h47.23.591839 +0530,
,Scenes\180a.jpg,137,0,138,,,,,,,j,2.67645910003921,0.22436469997046515,None,,,,,,138,0,137,1671.5240347000072,,,,,,,,,,,,,,,,,,,,,,,,,,,,,,1671.508548200014,1671.5240347000072,1672.0084735999699,,,,,,,,,,,,,,1672.032214100007,,,,,,,,,,,,,1672.0289406999946,1672.032214100007,1672.032214100007,1672.032214100007,1675.0247862999677,j,2.67645910003921,0.22436469997046515,1675.0249729999923,1675.0250305999652,None,,,,,,,,,,,,,,,,,00031,001,2025-11-21_15h47.15.320,MST_task,2024.2.0,59.9244113440032,2025-11-21 15h47.23.591839 +0530,
,Scenes\127a.jpg,138,0,139,,,,,,,j,1.8630207999958657,0.20760010002413765,None,,,,,,139,0,138,1675.0407546999631,,,,,,,,,,,,,,,,,,,,,,,,,,,,,,1675.0253251999966,1675.0407546999631,1675.5253139999695,,,,,,,,,,,,,,1675.5501690999954,,,,,,,,,,,,,1675.54701390001,1675.5501690999954,1675.5501690999954,1675.5501690999954,1678.5413518999703,j,1.8630207999958657,0.20760010002413765,1678.541532400006,1678.5415817999747,None,,,,,,,,,,,,,,,,,00031,001,2025-11-21_15h47.15.320,MST_task,2024.2.0,59.9244113440032,2025-11-21 15h47.23.591839 +0530,
,Scenes\089a.jpg,139,0,140,,,,,,,j,2.4797657000017352,0.20756959996651858,None,,,,,,140,0,139,1678.55722279998,,,,,,,,,,,,,,,,,,,,,,,,,,,,,,1678.5419113999815,1678.55722279998,1679.0421845999663,,,,,,,,,,,,,,1679.0694731000112,,,,,,,,,,,,,1679.0661533999955,1679.0694731000112,1679.0694731000112,1679.0694731000112,1682.0574676999822,j,2.4797657000017352,0.20756959996651858,1682.0575471000047,1682.057572199963,None,,,,,,,,,,,,,,,,,00031,001,2025-11-21_15h47.15.320,MST_task,2024.2.0,59.9244113440032,2025-11-21 15h47.23.591839 +0530,
,Objects\192a.jpg,140,0,141,,,,,,,f,2.087868799979333,0.22423320001689717,None,,,,,,141,0,140,1682.073803999985,,,,,,,,,,,,,,,,,,,,,,,,,,,,,,1682.0577344999765,1682.073803999985,1682.5585408000043,,,,,,,,,,,,,,1682.5809084000066,,,,,,,,,,,,,1682.577624699974,1682.5809084000066,1682.5809084000066,1682.5809084000066,1685.557888499985,f,2.087868799979333,0.22423320001689717,1685.5637299999944,1685.5637611999991,None,,,,,,,,,,,,,,,,,00031,001,2025-11-21_15h47.15.320,MST_task,2024.2.0,59.9244113440032,2025-11-21 15h47.23.591839 +0530,
,Objects\008a.jpg,141,0,142,,,,,,,f,1.2736960999900475,0.22312819998478517,None,,,,,,142,0,141,1685.5738629999687,,,,,,,,,,,,,,,,,,,,,,,,,,,,,,1685.563886399963,1685.5738629999687,1686.0583002999774,,,,,,,,,,,,,,1686.0837620999664,,,,,,,,,,,,,1686.0798649999779,1686.0837620999664,1686.0837620999664,1686.0837620999664,1689.0747870999621,f,1.2736960999900475,0.22312819998478517,1689.0749541000114,1689.0750120999874,None,,,,,,,,,,,,,,,,,00031,001,2025-11-21_15h47.15.320,MST_task,2024.2.0,59.9244113440032,2025-11-21 15h47.23.591839 +0530,
,Objects\005a.jpg,142,0,143,,,,,,,f,0.6774079999886453,0.21551930002169684,None,,,,,,143,0,142,1689.0908538000076,,,,,,,,,,,,,,,,,,,,,,,,,,,,,,1689.0754387999768,1689.0908538000076,1689.5749796999735,,,,,,,,,,,,,,1689.5919880999718,,,,,,,,,,,,,1689.5894392000046,1689.5919880999718,1689.5919880999718,1689.5919880999718,1692.5758174000075,f,0.6774079999886453,0.21551930002169684,1692.575935299974,1692.5759686999954,None,,,,,1692.5906581999734,1692.5906581999734,1692.5906581999734,,,,,,,,,,00031,001,2025-11-21_15h47.15.320,MST_task,2024.2.0,59.9244113440032,2025-11-21 15h47.23.591839 +0530,
,Objects\096a.jpg,143,0,144,,,,,,,f,2.9490991000202484,None,None,,,,,,144,0,143,1692.5906581999734,,,,,,,,,,,,,,,,,,,,,,,,,,,,,,1692.5762621999602,1692.5906581999734,1693.0752113999915,,,,,,,,,,,,,,1693.095375099976,,,,,,,,,,,,,1693.0928164999932,1693.095375099976,1693.095375099976,1693.095375099976,1696.091507199977,f,2.9490991000202484,None,1696.0916728999582,1696.091731099994,None,,,,,,,,,,,,,,,,,00031,001,2025-11-21_15h47.15.320,MST_task,2024.2.0,59.9244113440032,2025-11-21 15h47.23.591839 +0530,
,Objects\162a.jpg,144,0,145,,,,,,,f,2.19436309998855,0.24867350002750754,None,,,,,,145,0,144,1696.107256999996,,,,,,,,,,,,,,,,,,,,,,,,,,,,,,1696.092031200009,1696.107256999996,1696.5918427999713,,,,,,,,,,,,,,1696.6101421999629,,,,,,,,,,,,,1696.607487500005,1696.6101421999629,1696.6101421999629,1696.6101421999629,1699.6081185999792,f,2.19436309998855,0.24867350002750754,1699.608312700002,1699.6083758999594,None,,,,,,,,,,,,,,,,,00031,001,2025-11-21_15h47.15.320,MST_task,2024.2.0,59.9244113440032,2025-11-21 15h47.23.591839 +0530,
,Objects\082a.jpg,145,0,146,,,,,,,j,1.1743205999955535,0.19826189999002963,None,,,,,,146,0,145,1699.6243074999657,,,,,,,,,,,,,,,,,,,,,,,,,,,,,,1699.608676599979,1699.6243074999657,1700.1084676999599,,,,,,,,,,,,,,1700.1279627999756,,,,,,,,,,,,,1700.12526359997,1700.1279627999756,1700.1279627999756,1700.1279627999756,1703.1248410000117,j,1.1743205999955535,0.19826189999002963,1703.1250085000065,1703.125066299981,None,,,,,,,,,,,,,,,,,00031,001,2025-11-21_15h47.15.320,MST_task,2024.2.0,59.9244113440032,2025-11-21 15h47.23.591839 +0530,
,Objects\159a.jpg,146,0,147,,,,,,,f,1.6071126000024378,0.31230449996655807,None,,,,,,147,0,146,1703.1408391000004,,,,,,,,,,,,,,,,,,,,,,,,,,,,,,1703.125482500007,1703.1408391000004,1703.6250256999629,,,,,,,,,,,,,,1703.6455197999603,,,,,,,,,,,,,1703.6430089999922,1703.6455197999603,1703.6455197999603,1703.6455197999603,1706.6413873999845,f,1.6071126000024378,0.31230449996655807,1706.6415691999719,1706.641627200006,None,,,,,,,,,,,,,,,,,00031,001,2025-11-21_15h47.15.320,MST_task,2024.2.0,59.9244113440032,2025-11-21 15h47.23.591839 +0530,
,Scenes\126a.jpg,147,0,148,,,,,,,j,2.207572599989362,0.191624499973841,None,,,,,,148,0,147,1706.6572455000132,,,,,,,,,,,,,,,,,,,,,,,,,,,,,,1706.642049499962,1706.6572455000132,1707.1419221999822,,,,,,,,,,,,,,1707.1654706000118,,,,,,,,,,,,,1707.162394199986,1707.1654706000118,1707.1654706000118,1707.1654706000118,1710.1577368999715,j,2.207572599989362,0.191624499973841,1710.163367400004,1710.1634020999772,None,,,,,,,,,,,,,,,,,00031,001,2025-11-21_15h47.15.320,MST_task,2024.2.0,59.9244113440032,2025-11-21 15h47.23.591839 +0530,
,Scenes\077a.jpg,148,0,149,,,,,,,j,2.4075339999981225,0.22381190001033247,None,,,,,,149,0,148,1710.1738523999811,,,,,,,,,,,,,,,,,,,,,,,,,,,,,,1710.1635933999787,1710.1738523999811,1710.6578450999805,,,,,,,,,,,,,,1710.6775232999935,,,,,,,,,,,,,1710.6741456000018,1710.6775232999935,1710.6775232999935,1710.6775232999935,1713.6748005999834,j,2.4075339999981225,0.22381190001033247,1713.6749670999707,1713.6750234999927,None,,,,,,,,,,,,,,,,,00031,001,2025-11-21_15h47.15.320,MST_task,2024.2.0,59.9244113440032,2025-11-21 15h47.23.591839 +0530,
,Scenes\031a.jpg,149,0,150,,,,,,,j,2.6432284000329673,0.20822410000255331,None,,,,,,150,0,149,1713.690927699965,,,,,,,,,,,,,,,,,,,,,,,,,,,,,,1713.6753228000016,1713.690927699965,1714.175648799981,,,,,,,,,,,,,,1714.201719100005,,,,,,,,,,,,,1714.1984545000014,1714.201719100005,1714.201719100005,1714.201719100005,1717.191461600014,j,2.6432284000329673,0.20822410000255331,1717.1916762999608,1717.1917340999935,None,,,,,,,,,,,,,,,,,00031,001,2025-11-21_15h47.15.320,MST_task,2024.2.0,59.9244113440032,2025-11-21 15h47.23.591839 +0530,
,Scenes\181a.jpg,150,0,151,,,,,,,f,1.1675755000323988,0.3291004999773577,None,,,,,,151,0,150,1717.2074109999812,,,,,,,,,,,,,,,,,,,,,,,,,,,,,,1717.1921518999734,1717.2074109999812,1717.6919080999796,,,,,,,,,,,,,,1717.7170784999616,,,,,,,,,,,,,1717.7135393999633,1717.7170784999616,1717.7170784999616,1717.7170784999616,1720.7080952000106,f,1.1675755000323988,0.3291004999773577,1720.7082585999742,1720.708318799967,None,,,,,,,,,,,,,,,,,00031,001,2025-11-21_15h47.15.320,MST_task,2024.2.0,59.9244113440032,2025-11-21 15h47.23.591839 +0530,
,Scenes\034a.jpg,151,0,152,,,,,,,j,1.6798537999857217,0.21618869999656454,None,,,,,,152,0,151,1720.7242945999606,,,,,,,,,,,,,,,,,,,,,,,,,,,,,,1720.708616399963,1720.7242945999606,1721.2084552999586,,,,,,,,,,,,,,1721.2370165999746,,,,,,,,,,,,,1721.2335369999637,1721.2370165999746,1721.2370165999746,1721.2370165999746,1724.224844100012,j,1.6798537999857217,0.21618869999656454,1724.225023499981,1724.2250804000068,None,,,,,,,,,,,,,,,,,00031,001,2025-11-21_15h47.15.320,MST_task,2024.2.0,59.9244113440032,2025-11-21 15h47.23.591839 +0530,
,Scenes\063a.jpg,152,0,153,,,,,,,f,2.062798600003589,0.31965299998410046,None,,,,,,153,0,152,1724.2409501000075,,,,,,,,,,,,,,,,,,,,,,,,,,,,,,1724.2255126999808,1724.2409501000075,1724.7250640999991,,,,,,,,,,,,,,1724.7503828000044,,,,,,,,,,,,,1724.7469014999806,1724.7503828000044,1724.7503828000044,1724.7503828000044,1727.7415282999864,f,2.062798600003589,0.31965299998410046,1727.741691800009,1727.7417489999789,None,,,,,,,,,,,,,,,,,00031,001,2025-11-21_15h47.15.320,MST_task,2024.2.0,59.9244113440032,2025-11-21 15h47.23.591839 +0530,
,Scenes\009a.jpg,153,0,154,,,,,,,f,1.811723200022243,0.3832803000113927,None,,,,,,154,0,153,1727.7576274999883,,,,,,,,,,,,,,,,,,,,,,,,,,,,,,1727.7421724000014,1727.7576274999883,1728.2420866999892,,,,,,,,,,,,,,1728.2735662999912,,,,,,,,,,,,,1728.2698817999917,1728.2735662999912,1728.2735662999912,1728.2735662999912,1731.258118400001,f,1.811723200022243,0.3832803000113927,1731.258282099967,1731.2583394999965,None,,,,,,,,,,,,,,,,,00031,001,2025-11-21_15h47.15.320,MST_task,2024.2.0,59.9244113440032,2025-11-21 15h47.23.591839 +0530,
,Objects\036a.jpg,154,0,155,,,,,,,f,2.3161679999902844,0.36814760003471747,None,,,,,,155,0,154,1731.2742795000086,,,,,,,,,,,,,,,,,,,,,,,,,,,,,,1731.2586366999894,1731.2742795000086,1731.7585840999964,,,,,,,,,,,,,,1731.7845610000077,,,,,,,,,,,,,1731.7811314999708,1731.7845610000077,1731.7845610000077,1731.7845610000077,1734.7748707999708,f,2.3161679999902844,0.36814760003471747,1734.7818300999934,1734.7818692,None,,,,,,,,,,,,,,,,,00031,001,2025-11-21_15h47.15.320,MST_task,2024.2.0,59.9244113440032,2025-11-21 15h47.23.591839 +0530,
,Objects\093a.jpg,155,0,156,,,,,,,j,2.438488800020423,0.3601847999962047,None,,,,,,156,0,155,1734.7906475999625,,,,,,,,,,,,,,,,,,,,,,,,,,,,,,1734.7819924000069,1734.7906475999625,1735.275228399958,,,,,,,,,,,,,,1735.2943930999609,,,,,,,,,,,,,1735.2917387000052,1735.2943930999609,1735.2943930999609,1735.2943930999609,1738.2914649999584,j,2.438488800020423,0.3601847999962047,1738.2916078999988,1738.2916535999975,None,,,,,,,,,,,,,,,,,00031,001,2025-11-21_15h47.15.320,MST_task,2024.2.0,59.9244113440032,2025-11-21 15h47.23.591839 +0530,
,Objects\127a.jpg,156,0,157,,,,,,,f,1.1616933000041172,0.28077750001102686,None,,,,,,157,0,156,1738.3075512999785,,,,,,,,,,,,,,,,,,,,,,,,,,,,,,1738.2918884999817,1738.3075512999785,1738.7920625999686,,,,,,,,,,,,,,1738.811263600015,,,,,,,,,,,,,1738.8085701999953,1738.811263600015,1738.811263600015,1738.811263600015,1741.8078361999942,f,1.1616933000041172,0.28077750001102686,1741.8080042999936,1741.8080592000042,None,,,,,,,,,,,,,,,,,00031,001,2025-11-21_15h47.15.320,MST_task,2024.2.0,59.9244113440032,2025-11-21 15h47.23.591839 +0530,
,Objects\034a.jpg,157,0,158,,,,,,,f,1.9079445999814197,0.27165020001120865,None,,,,,,158,0,157,1741.8242797999992,,,,,,,,,,,,,,,,,,,,,,,,,,,,,,1741.8083561999956,1741.8242797999992,1742.3088432999793,,,,,,,,,,,,,,1742.3292251999956,,,,,,,,,,,,,1742.3265599000151,1742.3292251999956,1742.3292251999956,1742.3292251999956,1745.325058699993,f,1.9079445999814197,0.27165020001120865,1745.325231899973,1745.325289600005,None,,,,,,,,,,,,,,,,,00031,001,2025-11-21_15h47.15.320,MST_task,2024.2.0,59.9244113440032,2025-11-21 15h47.23.591839 +0530,
,Objects\131a.jpg,158,0,159,,,,,,,f,2.5842277000192553,0.26366900000721216,None,,,,,,159,0,158,1745.340866899991,,,,,,,,,,,,,,,,,,,,,,,,,,,,,,1745.3257336000097,1745.340866899991,1745.8254172999877,,,,,,,,,,,,,,1745.8447968999972,,,,,,,,,,,,,1745.8421199999866,1745.8447968999972,1745.8447968999972,1745.8447968999972,1748.841259400011,f,2.5842277000192553,0.26366900000721216,1748.8414207999595,1748.8415015999926,None,,,,,,,,,,,,,,,,,00031,001,2025-11-21_15h47.15.320,MST_task,2024.2.0,59.9244113440032,2025-11-21 15h47.23.591839 +0530,
,Objects\151a.jpg,159,0,160,,,,,,,j,2.736302400007844,0.19999559997813776,None,,,,,,160,0,159,1748.857229999965,,,,,,,,,,,,,,,,,,,,,,,,,,,,,,1748.8417578999652,1748.857229999965,1749.3416533999844,,,,,,,,,,,,,,1749.3642119999859,,,,,,,,,,,,,1749.3617431999883,1749.3642119999859,1749.3642119999859,1749.3642119999859,1752.357949999976,j,2.736302400007844,0.19999559997813776,1752.358124499966,1752.3581826000009,None,,,,,,,,,,,,,,,,,00031,001,2025-11-21_15h47.15.320,MST_task,2024.2.0,59.9244113440032,2025-11-21 15h47.23.591839 +0530,
,Objects\058a.jpg,160,0,161,,,,,,,None,,,f,1.6499927999684587,None,,,,161,0,160,1752.3740788999712,,,,,,,,,,,,,,,,,,,,,,,,,,,,,,1752.3584842999699,1752.3740788999712,1752.858713899972,,,,,,,,,,,,,,1752.8787817999837,,,,,,,,,,,,,1752.876100900001,1752.8787817999837,1752.8787817999837,1752.8787817999837,1755.8747372999787,None,,,1755.8749019000097,1757.5428036999656,f,1755.8907882999629,1755.8907882999629,1.6499927999684587,None,,,,,,,,,,,,,00031,001,2025-11-21_15h47.15.320,MST_task,2024.2.0,59.9244113440032,2025-11-21 15h47.23.591839 +0530,
,Scenes\158a.jpg,161,0,162,,,,,,,j,1.9669360000407323,0.24730889999773353,None,,,,,,162,0,161,1757.557256900007,,,,,,,,,,,,,,,,,,,,,,,,,,,,,,1757.5431810999871,1757.557256900007,1758.041888799984,,,,,,,,,,,,,,1758.0702527000103,,,,,,,,,,,,,1758.066906299966,1758.0702527000103,1758.0702527000103,1758.0702527000103,1761.0582505000057,j,1.9669360000407323,0.24730889999773353,1761.064465000003,1761.0644868999952,None,,,,,,,,,,,,,,,,,00031,001,2025-11-21_15h47.15.320,MST_task,2024.2.0,59.9244113440032,2025-11-21 15h47.23.591839 +0530,
,Scenes\074a.jpg,162,0,163,,,,,,,None,,,j,0.470318200008478,None,,,,163,0,162,1761.074048599985,,,,,,,,,,,,,,,,,,,,,,,,,,,,,,1761.0645555999945,1761.074048599985,1761.55832859996,,,,,,,,,,,,,,1761.5830142999766,,,,,,,,,,,,,1761.5796206999803,1761.5830142999766,1761.5830142999766,1761.5830142999766,1764.574788399972,None,,,1764.5749015999609,1765.0760679999948,j,1764.5906343999668,1764.5906343999668,0.470318200008478,None,,,,,,,,,,,,,00031,001,2025-11-21_15h47.15.320,MST_task,2024.2.0,59.9244113440032,2025-11-21 15h47.23.591839 +0530,
,Scenes\097a.jpg,163,0,164,,,,,,,f,1.925326699973084,0.2800093000405468,None,,,,,,164,0,163,1765.0906929000048,,,,,,,,,,,,,,,,,,,,,,,,,,,,,,1765.0769224999822,1765.0906929000048,1765.574609000003,,,,,,,,,,,,,,1765.591557000007,,,,,,,,,,,,,1765.5870335999643,1765.591557000007,1765.591557000007,1765.591557000007,1768.5759641999612,f,1.925326699973084,0.2800093000405468,1768.5760703000124,1768.5761033999734,None,,,,,1768.5907168000122,1768.5907168000122,1768.5907168000122,,,,,,,,,,00031,001,2025-11-21_15h47.15.320,MST_task,2024.2.0,59.9244113440032,2025-11-21 15h47.23.591839 +0530,
,Scenes\026a.jpg,164,0,165,,,,,,,j,2.895797700039111,None,None,,,,,,165,0,164,1768.5907168000122,,,,,,,,,,,,,,,,,,,,,,,,,,,,,,1768.5763776999665,1768.5907168000122,1769.0752577999956,,,,,,,,,,,,,,1769.1011322999839,,,,,,,,,,,,,1769.0980063999887,1769.1011322999839,1769.1011322999839,1769.1011322999839,1772.0912525999593,j,2.895797700039111,None,1772.0914182999986,1772.0914750999655,None,,,,,,,,,,,,,,,,,00031,001,2025-11-21_15h47.15.320,MST_task,2024.2.0,59.9244113440032,2025-11-21 15h47.23.591839 +0530,
,Scenes\007a.jpg,165,0,166,,,,,,,f,2.3204836000222713,0.11217520001810044,None,,,,,,166,0,165,1772.1073287999607,,,,,,,,,,,,,,,,,,,,,,,,,,,,,,1772.0917731999652,1772.1073287999607,1772.591782399977,,,,,,,,,,,,,,1772.6123621999868,,,,,,,,,,,,,1772.608699399978,1772.6123621999868,1772.6123621999868,1772.6123621999868,1775.6080157000106,f,2.3204836000222713,0.11217520001810044,1775.6081827000016,1775.608240499976,None,,,,,,,,,,,,,,,,,00031,001,2025-11-21_15h47.15.320,MST_task,2024.2.0,59.9244113440032,2025-11-21 15h47.23.591839 +0530,
,Scenes\189a.jpg,166,0,167,,,,,,,j,1.2435761999804527,0.20022150001022965,None,,,,,,167,0,166,1775.6241061000037,,,,,,,,,,,,,,,,,,,,,,,,,,,,,,1775.6085337999975,1775.6241061000037,1776.1080636999686,,,,,,,,,,,,,,1776.1296201999648,,,,,,,,,,,,,1776.1260918999906,1776.1296201999648,1776.1296201999648,1776.1296201999648,1779.1252041999833,j,1.2435761999804527,0.20022150001022965,1779.1253294000053,1779.1253699999652,None,,,,,,,,,,,,,,,,,00031,001,2025-11-21_15h47.15.320,MST_task,2024.2.0,59.9244113440032,2025-11-21 15h47.23.591839 +0530,
,Scenes\092a.jpg,167,0,168,,,,,,,j,1.2774349999963306,0.18458299996564165,None,,,,,,168,0,167,1779.1406914999825,,,,,,,,,,,,,,,,,,,,,,,,,,,,,,1779.125582400011,1779.1406914999825,1779.6252955999807,,,,,,,,,,,,,,1779.6474547999678,,,,,,,,,,,,,1779.6441443999647,1779.6474547999678,1779.6474547999678,1779.6474547999678,1782.6414798999904,j,1.2774349999963306,0.18458299996564165,1782.641626800003,1782.6416753999656,None,,,,,,,,,,,,,,,,,00031,001,2025-11-21_15h47.15.320,MST_task,2024.2.0,59.9244113440032,2025-11-21 15h47.23.591839 +0530,
,Objects\143a.jpg,168,0,169,,,,,,,j,2.2695238000014797,0.23194579995470122,None,,,,,,169,0,168,1782.6573877999908,,,,,,,,,,,,,,,,,,,,,,,,,,,,,,1782.6419635000057,1782.6573877999908,1783.142226499971,,,,,,,,,,,,,,1783.1674703999888,,,,,,,,,,,,,1783.1643186999718,1783.1674703999888,1783.1674703999888,1783.1674703999888,1786.1580013000057,j,2.2695238000014797,0.23194579995470122,1786.1640589999733,1786.1640913999872,None,,,,,,,,,,,,,,,,,00031,001,2025-11-21_15h47.15.320,MST_task,2024.2.0,59.9244113440032,2025-11-21 15h47.23.591839 +0530,
