thisN,thisTrialN,thisRepN,key_resp_3.keys,key_resp_3.rt,key_resp_3.duration,trials.thisRepN,trials.thisTrialN,trials.thisN,thisRow.t,notes,intro_page.started,text.started,key_resp.started,intro_page.stopped,key_resp.keys,key_resp.rt,key_resp.duration,instructions.started,text_2.started,key_resp_2.started,instructions.stopped,key_resp_2.keys,key_resp_2.rt,key_resp_2.duration,demo1.started,image_1.started,image_2.started,text_7.started,key_resp_6.started,text_9.started,demo1.stopped,key_resp_6.keys,key_resp_6.rt,key_resp_6.duration,demo2.started,image_5.started,image_6.started,text_11.started,text_12.started,key_resp_8.started,demo2.stopped,key_resp_8.keys,key_resp_8.rt,key_resp_8.duration,demo_conclusion.started,text_13.started,key_resp_9.started,demo_conclusion.stopped,key_resp_9.keys,key_resp_9.rt,key_resp_9.duration,start_test.started,text_6.started,key_resp_5.started,start_test.stopped,key_resp_5.keys,key_resp_5.rt,key_resp_5.duration,ISI.started,text_4.started,text_4.stopped,ISI.stopped,routine_1.started,image.started,text_3.started,key_resp_3.started,routine_1.stopped,image_path,position_of_stimuli,trials.key_resp_3.keys,trials.key_resp_3.rt,trials.key_resp_3.duration,End_page.started,text_5.started,key_resp_4.started,End_page.stopped,key_resp_4.keys,key_resp_4.rt,key_resp_4.duration,participant,session,date,expName,psychopyVersion,frameRate,expStart,
,,,,,,,,,,,0.0018921999999292893,0.004518399999142275,0.004518399999142275,2.6091945999996824,space,2.585829099998591,None,,,,,,,,,,,,,,,,,,,,,,,,,,,,,,,,,,,,,,,,,,,,,,,,,,,,,,,,,,,,,,,00033,001,2026-01-16_12h51.02.580,MST_test,2024.2.0,59.83906880789855,2026-01-16 12h51.28.662803 +0530,
,,,,,,,,,,,,,,,,,,2.609277399998973,2.6312902999998187,2.6312902999998187,15.086304500000551,space,12.439277999999831,None,,,,,,,,,,,,,,,,,,,,,,,,,,,,,,,,,,,,,,,,,,,,,,,,,,,,,,,,00033,001,2026-01-16_12h51.02.580,MST_test,2024.2.0,59.83906880789855,2026-01-16 12h51.28.662803 +0530,
,,,,,,,,,,,,,,,,,,,,,,,,,15.086377999999968,15.12418119999893,15.12418119999893,15.12418119999893,15.12418119999893,15.12418119999893,19.254094399999303,space,4.122634800000014,None,,,,,,,,,,,,,,,,,,,,,,,,,,,,,,,,,,,,,,,,,,,,,,00033,001,2026-01-16_12h51.02.580,MST_test,2024.2.0,59.83906880789855,2026-01-16 12h51.28.662803 +0530,
,,,,,,,,,,,,,,,,,,,,,,,,,,,,,,,,,,,19.254218500000206,19.26877880000029,19.26877880000029,19.26877880000029,19.26877880000029,19.26877880000029,21.10347229999934,space,1.8175709999995888,None,,,,,,,,,,,,,,,,,,,,,,,,,,,,,,,,,,,,00033,001,2026-01-16_12h51.02.580,MST_test,2024.2.0,59.83906880789855,2026-01-16 12h51.28.662803 +0530,
,,,,,,,,,,,,,,,,,,,,,,,,,,,,,,,,,,,,,,,,,,,,,21.10359310000058,21.117998899999293,21.117998899999293,52.553065199999764,space,31.424220400000195,None,,,,,,,,,,,,,,,,,,,,,,,,,,,,,00033,001,2026-01-16_12h51.02.580,MST_test,2024.2.0,59.83906880789855,2026-01-16 12h51.28.662803 +0530,
,,,,,,,,,,,,,,,,,,,,,,,,,,,,,,,,,,,,,,,,,,,,,,,,,,,,52.55318199999965,52.567961700000524,52.567961700000524,102.01991459999954,space,49.43846389999999,None,,,,,,,,,,,,,,,,,,,,,,00033,001,2026-01-16_12h51.02.580,MST_test,2024.2.0,59.83906880789855,2026-01-16 12h51.28.662803 +0530,
0,0,1,n,2.9595238999991125,None,1,0,0,102.03441349999957,,,,,,,,,,,,,,,,,,,,,,,,,,,,,,,,,,,,,,,,,,,,,,,,,,102.02655740000046,102.03441349999957,102.6706465999996,102.5190504000002,102.66791150000063,102.6706465999996,102.6706465999996,102.6706465999996,105.63689929999964,Objects\080b.jpg,pre,n,2.9595238999991125,None,,,,,,,,00033,001,2026-01-16_12h51.02.580,MST_test,2024.2.0,59.83906880789855,2026-01-16 12h51.28.662803 +0530,
1,0,2,s,4.332771800000046,None,2,0,1,105.65120989999923,,,,,,,,,,,,,,,,,,,,,,,,,,,,,,,,,,,,,,,,,,,,,,,,,,105.63721319999968,105.65120989999923,106.26467740000044,106.13586149999901,106.26147649999984,106.26467740000044,106.26467740000044,106.26467740000044,110.60329989999991,Foils\057a.jpg,none,s,4.332771800000046,None,,,,,,,,00033,001,2026-01-16_12h51.02.580,MST_test,2024.2.0,59.83906880789855,2026-01-16 12h51.28.662803 +0530,
2,0,3,o,3.546577299999626,None,3,0,2,110.61794749999899,,,,,,,,,,,,,,,,,,,,,,,,,,,,,,,,,,,,,,,,,,,,,,,,,,110.6035609999999,110.61794749999899,111.12345959999948,111.10223659999974,111.12079350000022,111.12345959999948,111.12345959999948,111.12345959999948,114.68669670000054,Scenes\001a.jpg,pre,o,3.546577299999626,None,,,,,,,,00033,001,2026-01-16_12h51.02.580,MST_test,2024.2.0,59.83906880789855,2026-01-16 12h51.28.662803 +0530,
3,0,4,s,4.007714499999565,None,4,0,3,114.70135459999983,,,,,,,,,,,,,,,,,,,,,,,,,,,,,,,,,,,,,,,,,,,,,,,,,,114.68714550000004,114.70135459999983,115.32554770000024,115.18563559999893,115.3225280000006,115.32554770000024,115.32554770000024,115.32554770000024,119.33669220000047,Scenes\159b.jpg,post,s,4.007714499999565,None,,,,,,,,00033,001,2026-01-16_12h51.02.580,MST_test,2024.2.0,59.83906880789855,2026-01-16 12h51.28.662803 +0530,
4,0,5,o,4.845847800001138,None,5,0,4,119.35128649999933,,,,,,,,,,,,,,,,,,,,,,,,,,,,,,,,,,,,,,,,,,,,,,,,,,119.33707099999992,119.35128649999933,119.90486450000026,119.83575270000074,119.90211810000073,119.90486450000026,119.90486450000026,119.90486450000026,124.75362789999963,Objects\039b.jpg,post,o,4.845847800001138,None,,,,,,,,00033,001,2026-01-16_12h51.02.580,MST_test,2024.2.0,59.83906880789855,2026-01-16 12h51.28.662803 +0530,
5,0,6,o,3.990907800000059,None,6,0,5,124.76792000000023,,,,,,,,,,,,,,,,,,,,,,,,,,,,,,,,,,,,,,,,,,,,,,,,,,124.75399819999984,124.76792000000023,125.66324890000033,125.2523471000004,125.66028080000069,125.66324890000033,125.66324890000033,125.66324890000033,129.67039569999906,Scenes\070b.jpg,pre,o,3.990907800000059,None,,,,,,,,00033,001,2026-01-16_12h51.02.580,MST_test,2024.2.0,59.83906880789855,2026-01-16 12h51.28.662803 +0530,
6,0,7,o,3.276053600000523,None,7,0,6,129.68439349999971,,,,,,,,,,,,,,,,,,,,,,,,,,,,,,,,,,,,,,,,,,,,,,,,,,129.67069749999973,129.68439349999971,130.18535530000008,130.16905099999894,130.17504929999996,130.18535530000008,130.18535530000008,130.18535530000008,133.47019679999903,Objects\072a.jpg,post,o,3.276053600000523,None,,,,,,,,00033,001,2026-01-16_12h51.02.580,MST_test,2024.2.0,59.83906880789855,2026-01-16 12h51.28.662803 +0530,
7,0,8,o,1.5827324999991106,None,8,0,7,133.4845218999999,,,,,,,,,,,,,,,,,,,,,,,,,,,,,,,,,,,,,,,,,,,,,,,,,,133.4705868000001,133.4845218999999,134.1749433999994,133.96912370000064,134.17245379999986,134.1749433999994,134.1749433999994,134.1749433999994,135.76975569999922,Objects\046b.jpg,mid,o,1.5827324999991106,None,,,,,,,,00033,001,2026-01-16_12h51.02.580,MST_test,2024.2.0,59.83906880789855,2026-01-16 12h51.28.662803 +0530,
8,0,9,o,1.04860650000046,None,9,0,8,135.78457080000044,,,,,,,,,,,,,,,,,,,,,,,,,,,,,,,,,,,,,,,,,,,,,,,,,,135.77009569999973,135.78457080000044,136.28488019999895,136.2691192000002,136.27744750000056,136.28488019999895,136.28488019999895,136.28488019999895,137.33686390000003,Objects\093a.jpg,pre,o,1.04860650000046,None,,,,,,,,00033,001,2026-01-16_12h51.02.580,MST_test,2024.2.0,59.83906880789855,2026-01-16 12h51.28.662803 +0530,
9,0,10,n,2.031786800000191,None,10,0,9,137.35126479999963,,,,,,,,,,,,,,,,,,,,,,,,,,,,,,,,,,,,,,,,,,,,,,,,,,137.33731950000038,137.35126479999963,138.01476290000028,137.83565699999963,138.0119235000002,138.01476290000028,138.01476290000028,138.01476290000028,140.0539033999994,Foils\002a.jpg,none,n,2.031786800000191,None,,,,,,,,00033,001,2026-01-16_12h51.02.580,MST_test,2024.2.0,59.83906880789855,2026-01-16 12h51.28.662803 +0530,
10,0,11,s,2.2371765000007144,None,11,0,10,140.06796009999925,,,,,,,,,,,,,,,,,,,,,,,,,,,,,,,,,,,,,,,,,,,,,,,,,,140.05428140000004,140.06796009999925,140.56819689999975,140.55226989999937,140.56072759999915,140.56819689999975,140.56819689999975,140.56819689999975,142.81983129999935,Objects\031a.jpg,pre,s,2.2371765000007144,None,,,,,,,,00033,001,2026-01-16_12h51.02.580,MST_test,2024.2.0,59.83906880789855,2026-01-16 12h51.28.662803 +0530,
11,0,12,s,3.070566600001257,None,12,0,11,142.83437149999918,,,,,,,,,,,,,,,,,,,,,,,,,,,,,,,,,,,,,,,,,,,,,,,,,,142.82010099999934,142.83437149999918,143.33492730000034,143.3191124999994,143.32816029999958,143.33492730000034,143.33492730000034,143.33492730000034,146.41975559999992,Objects\090a.jpg,pre,s,3.070566600001257,None,,,,,,,,00033,001,2026-01-16_12h51.02.580,MST_test,2024.2.0,59.83906880789855,2026-01-16 12h51.28.662803 +0530,
12,0,13,o,1.4694447999991098,None,13,0,12,146.43451549999918,,,,,,,,,,,,,,,,,,,,,,,,,,,,,,,,,,,,,,,,,,,,,,,,,,146.42000109999935,146.43451549999918,147.28899479999927,146.91909769999984,147.28573080000024,147.28899479999927,147.28899479999927,147.28899479999927,148.76956489999975,Objects\008b.jpg,pre,o,1.4694447999991098,None,,,,,,,,00033,001,2026-01-16_12h51.02.580,MST_test,2024.2.0,59.83906880789855,2026-01-16 12h51.28.662803 +0530,
13,0,14,o,2.4407640999997966,None,14,0,13,148.7845696000004,,,,,,,,,,,,,,,,,,,,,,,,,,,,,,,,,,,,,,,,,,,,,,,,,,148.76997870000014,148.7845696000004,149.29308719999972,149.26884140000038,149.29019039999912,149.29308719999972,149.29308719999972,149.29308719999972,151.73604999999952,Scenes\049a.jpg,pre,o,2.4407640999997966,None,,,,,,,,00033,001,2026-01-16_12h51.02.580,MST_test,2024.2.0,59.83906880789855,2026-01-16 12h51.28.662803 +0530,
14,0,15,s,3.705364900000859,None,15,0,14,151.75141149999945,,,,,,,,,,,,,,,,,,,,,,,,,,,,,,,,,,,,,,,,,,,,,,,,,,151.73625270000048,151.75141149999945,153.04451870000048,152.23568669999986,153.04192519999924,153.04451870000048,153.04451870000048,153.04451870000048,156.75210969999898,Scenes\029b.jpg,mid,s,3.705364900000859,None,,,,,,,,00033,001,2026-01-16_12h51.02.580,MST_test,2024.2.0,59.83906880789855,2026-01-16 12h51.28.662803 +0530,
15,0,16,s,1.6935482999997475,None,16,0,15,156.76887419999912,,,,,,,,,,,,,,,,,,,,,,,,,,,,,,,,,,,,,,,,,,,,,,,,,,156.7522231999992,156.76887419999912,,157.26820249999946,157.33384509999996,157.3367388000006,157.3367388000006,157.3367388000006,159.03649459999906,Foils\074a.jpg,none,s,1.6935482999997475,None,,,,,,,,00033,001,2026-01-16_12h51.02.580,MST_test,2024.2.0,59.83906880789855,2026-01-16 12h51.28.662803 +0530,
16,0,17,o,1.8143122000001313,None,17,0,16,159.05123429999912,,,,,,,,,,,,,,,,,,,,,,,,,,,,,,,,,,,,,,,,,,,,,,,,,,159.03681189999952,159.05123429999912,159.5514132999997,159.53497869999956,159.5383724000003,159.5514132999997,159.5514132999997,159.5514132999997,161.3697030000003,Objects\049a.jpg,post,o,1.8143122000001313,None,,,,,,,,00033,001,2026-01-16_12h51.02.580,MST_test,2024.2.0,59.83906880789855,2026-01-16 12h51.28.662803 +0530,
17,0,18,s,2.3234766999994463,None,18,0,17,161.38453040000059,,,,,,,,,,,,,,,,,,,,,,,,,,,,,,,,,,,,,,,,,,,,,,,,,,161.3700728999993,161.38453040000059,162.05764760000056,161.86860419999903,162.0550674999995,162.05764760000056,162.05764760000056,162.05764760000056,164.38580770000044,Foils\086a.jpg,none,s,2.3234766999994463,None,,,,,,,,00033,001,2026-01-16_12h51.02.580,MST_test,2024.2.0,59.83906880789855,2026-01-16 12h51.28.662803 +0530,
18,0,19,s,2.4651500999989366,None,19,0,18,164.40105849999964,,,,,,,,,,,,,,,,,,,,,,,,,,,,,,,,,,,,,,,,,,,,,,,,,,164.38593489999948,164.40105849999964,164.94940459999998,164.8855050000002,164.9467956999997,164.94940459999998,164.94940459999998,164.94940459999998,167.42003280000063,Scenes\166b.jpg,post,s,2.4651500999989366,None,,,,,,,,00033,001,2026-01-16_12h51.02.580,MST_test,2024.2.0,59.83906880789855,2026-01-16 12h51.28.662803 +0530,
19,0,20,o,1.5347239000002446,None,20,0,19,167.43457259999923,,,,,,,,,,,,,,,,,,,,,,,,,,,,,,,,,,,,,,,,,,,,,,,,,,167.42043620000004,167.43457259999923,167.99132099999952,167.91913790000035,167.9887644999999,167.99132099999952,167.99132099999952,167.99132099999952,169.53625490000013,Scenes\042b.jpg,post,o,1.5347239000002446,None,,,,,,,,00033,001,2026-01-16_12h51.02.580,MST_test,2024.2.0,59.83906880789855,2026-01-16 12h51.28.662803 +0530,
20,0,21,o,1.4723143000010168,None,21,0,20,169.55141209999965,,,,,,,,,,,,,,,,,,,,,,,,,,,,,,,,,,,,,,,,,,,,,,,,,,169.5365382,169.55141209999965,170.0526958999999,170.03558109999904,170.04952559999947,170.0526958999999,170.0526958999999,170.0526958999999,171.53521940000064,Scenes\152a.jpg,pre,o,1.4723143000010168,None,,,,,,,,00033,001,2026-01-16_12h51.02.580,MST_test,2024.2.0,59.83906880789855,2026-01-16 12h51.28.662803 +0530,
21,0,22,s,1.6685211999993044,None,22,0,21,171.5510493999991,,,,,,,,,,,,,,,,,,,,,,,,,,,,,,,,,,,,,,,,,,,,,,,,,,171.53536949999943,171.5510493999991,172.16128209999988,172.03507179999906,172.15856200000053,172.16128209999988,172.16128209999988,172.16128209999988,173.8355823999991,Scenes\180b.jpg,post,s,1.6685211999993044,None,,,,,,,,00033,001,2026-01-16_12h51.02.580,MST_test,2024.2.0,59.83906880789855,2026-01-16 12h51.28.662803 +0530,
22,0,23,n,2.9214233999991848,None,23,0,22,173.85076049999952,,,,,,,,,,,,,,,,,,,,,,,,,,,,,,,,,,,,,,,,,,,,,,,,,,173.83570080000027,173.85076049999952,174.3649494000001,174.33578639999905,174.36237430000074,174.3649494000001,174.3649494000001,174.3649494000001,177.30199259999972,Scenes\026a.jpg,post,n,2.9214233999991848,None,,,,,,,,00033,001,2026-01-16_12h51.02.580,MST_test,2024.2.0,59.83906880789855,2026-01-16 12h51.28.662803 +0530,
23,0,24,o,1.7144719999996596,None,24,0,23,177.31750219999958,,,,,,,,,,,,,,,,,,,,,,,,,,,,,,,,,,,,,,,,,,,,,,,,,,177.30212439999923,177.31750219999958,177.81878139999935,177.80215809999936,177.81583169999976,177.81878139999935,177.81878139999935,177.81878139999935,179.53566759999921,Scenes\073a.jpg,post,o,1.7144719999996596,None,,,,,,,,00033,001,2026-01-16_12h51.02.580,MST_test,2024.2.0,59.83906880789855,2026-01-16 12h51.28.662803 +0530,
24,0,25,s,1.9654599999994389,None,25,0,24,179.55083869999908,,,,,,,,,,,,,,,,,,,,,,,,,,,,,,,,,,,,,,,,,,,,,,,,,,179.53582040000038,179.55083869999908,180.0638557000002,180.03463050000028,180.0613343999994,180.0638557000002,180.0638557000002,180.0638557000002,182.0366185999992,Objects\085b.jpg,pre,s,1.9654599999994389,None,,,,,,,,00033,001,2026-01-16_12h51.02.580,MST_test,2024.2.0,59.83906880789855,2026-01-16 12h51.28.662803 +0530,
25,0,26,s,2.5688884999999573,None,26,0,25,182.05101060000015,,,,,,,,,,,,,,,,,,,,,,,,,,,,,,,,,,,,,,,,,,,,,,,,,,182.03704040000048,182.05101060000015,182.6280852,182.53563889999896,182.6256233999993,182.6280852,182.6280852,182.6280852,185.20151110000006,Objects\047b.jpg,post,s,2.5688884999999573,None,,,,,,,,00033,001,2026-01-16_12h51.02.580,MST_test,2024.2.0,59.83906880789855,2026-01-16 12h51.28.662803 +0530,
26,0,27,n,3.4923481000005268,None,27,0,26,185.21765029999915,,,,,,,,,,,,,,,,,,,,,,,,,,,,,,,,,,,,,,,,,,,,,,,,,,185.20162840000012,185.21765029999915,185.90512970000054,185.7014507999993,185.90076480000062,185.90512970000054,185.90512970000054,185.90512970000054,189.4033944999992,Foils\scenes25.jpg,none,n,3.4923481000005268,None,,,,,,,,00033,001,2026-01-16_12h51.02.580,MST_test,2024.2.0,59.83906880789855,2026-01-16 12h51.28.662803 +0530,
27,0,28,s,1.9331975999994029,None,28,0,27,189.41784949999965,,,,,,,,,,,,,,,,,,,,,,,,,,,,,,,,,,,,,,,,,,,,,,,,,,189.40381689999958,189.41784949999965,190.08009390000007,189.90251949999947,190.07748320000064,190.08009390000007,190.08009390000007,190.08009390000007,192.02042869999968,Scenes\190b.jpg,mid,s,1.9331975999994029,None,,,,,,,,00033,001,2026-01-16_12h51.02.580,MST_test,2024.2.0,59.83906880789855,2026-01-16 12h51.28.662803 +0530,
28,0,29,n,6.591076599999724,None,29,0,28,192.03466819999994,,,,,,,,,,,,,,,,,,,,,,,,,,,,,,,,,,,,,,,,,,,,,,,,,,192.0208230999997,192.03466819999994,192.6066461999999,192.51908279999952,192.60303360000034,192.6066461999999,192.6066461999999,192.6066461999999,199.20314970000072,Foils\scenes22.jpg,none,n,6.591076599999724,None,,,,,,,,00033,001,2026-01-16_12h51.02.580,MST_test,2024.2.0,59.83906880789855,2026-01-16 12h51.28.662803 +0530,
29,0,30,o,1.3506231000010303,None,30,0,29,199.21795439999914,,,,,,,,,,,,,,,,,,,,,,,,,,,,,,,,,,,,,,,,,,,,,,,,,,199.20356209999954,199.21795439999914,199.71873369999958,199.7021134000006,199.71322469999905,199.71873369999958,199.71873369999958,199.71873369999958,201.08535269999993,Objects\176a.jpg,mid,o,1.3506231000010303,None,,,,,,,,00033,001,2026-01-16_12h51.02.580,MST_test,2024.2.0,59.83906880789855,2026-01-16 12h51.28.662803 +0530,
30,0,31,o,0.9959912000012991,None,31,0,30,201.10086369999954,,,,,,,,,,,,,,,,,,,,,,,,,,,,,,,,,,,,,,,,,,,,,,,,,,201.08546869999918,201.10086369999954,201.60141809999914,201.5856232999995,201.59165620000022,201.60141809999914,201.60141809999914,201.60141809999914,202.60405770000034,Objects\017a.jpg,post,o,0.9959912000012991,None,,,,,,,,00033,001,2026-01-16_12h51.02.580,MST_test,2024.2.0,59.83906880789855,2026-01-16 12h51.28.662803 +0530,
31,0,32,o,1.292028100000607,None,32,0,31,202.61793039999975,,,,,,,,,,,,,,,,,,,,,,,,,,,,,,,,,,,,,,,,,,,,,,,,,,202.60458929999913,202.61793039999975,203.153209099999,203.10122740000043,203.150264599999,203.153209099999,203.153209099999,203.153209099999,204.45194900000024,Scenes\134b.jpg,pre,o,1.292028100000607,None,,,,,,,,00033,001,2026-01-16_12h51.02.580,MST_test,2024.2.0,59.83906880789855,2026-01-16 12h51.28.662803 +0530,
32,0,33,o,1.4209394000008615,None,33,0,32,204.4676698000003,,,,,,,,,,,,,,,,,,,,,,,,,,,,,,,,,,,,,,,,,,,,,,,,,,204.45205650000025,204.4676698000003,204.9685468000007,204.95126229999914,204.95447819999936,204.9685468000007,204.9685468000007,204.9685468000007,206.4033502000002,Objects\029a.jpg,post,o,1.4209394000008615,None,,,,,,,,00033,001,2026-01-16_12h51.02.580,MST_test,2024.2.0,59.83906880789855,2026-01-16 12h51.28.662803 +0530,
33,0,34,o,1.4706798999995954,None,34,0,33,206.4179107,,,,,,,,,,,,,,,,,,,,,,,,,,,,,,,,,,,,,,,,,,,,,,,,,,206.4036269999997,206.4179107,206.9186178,206.90242899999976,206.9121135000005,206.9186178,206.9186178,206.9186178,208.40332689999923,Scenes\087a.jpg,pre,o,1.4706798999995954,None,,,,,,,,00033,001,2026-01-16_12h51.02.580,MST_test,2024.2.0,59.83906880789855,2026-01-16 12h51.28.662803 +0530,
34,0,35,o,1.767328500000076,None,35,0,34,208.41793490000055,,,,,,,,,,,,,,,,,,,,,,,,,,,,,,,,,,,,,,,,,,,,,,,,,,208.4037253000006,208.41793490000055,208.9184427,208.90242170000056,208.91053959999954,208.9184427,208.9184427,208.9184427,210.7032651999998,Objects\166a.jpg,pre,o,1.767328500000076,None,,,,,,,,00033,001,2026-01-16_12h51.02.580,MST_test,2024.2.0,59.83906880789855,2026-01-16 12h51.28.662803 +0530,
35,0,36,o,2.68017300000065,None,36,0,35,210.71777230000043,,,,,,,,,,,,,,,,,,,,,,,,,,,,,,,,,,,,,,,,,,,,,,,,,,210.70354609999958,210.71777230000043,211.2209982000004,211.20242580000013,211.21800239999902,211.2209982000004,211.2209982000004,211.2209982000004,213.90224800000033,Scenes\009a.jpg,mid,o,2.68017300000065,None,,,,,,,,00033,001,2026-01-16_12h51.02.580,MST_test,2024.2.0,59.83906880789855,2026-01-16 12h51.28.662803 +0530,
36,0,37,n,1.7663295000002108,None,37,0,36,213.91753719999906,,,,,,,,,,,,,,,,,,,,,,,,,,,,,,,,,,,,,,,,,,,,,,,,,,213.90236510000068,213.91753719999906,214.44806280000012,214.40152449999914,214.4452824,214.44806280000012,214.44806280000012,214.44806280000012,216.2203728000004,Objects\025b.jpg,post,n,1.7663295000002108,None,,,,,,,,00033,001,2026-01-16_12h51.02.580,MST_test,2024.2.0,59.83906880789855,2026-01-16 12h51.28.662803 +0530,
37,0,38,n,1.3727159999998548,None,38,0,37,216.23465639999995,,,,,,,,,,,,,,,,,,,,,,,,,,,,,,,,,,,,,,,,,,,,,,,,,,216.2207488999993,216.23465639999995,217.11315319999994,216.71881980000035,217.11032630000045,217.11315319999994,217.11315319999994,217.11315319999994,218.5029895000007,Foils\scenes20.jpg,none,n,1.3727159999998548,None,,,,,,,,00033,001,2026-01-16_12h51.02.580,MST_test,2024.2.0,59.83906880789855,2026-01-16 12h51.28.662803 +0530,
38,0,39,s,1.1155982999989646,None,39,0,38,218.5179107999993,,,,,,,,,,,,,,,,,,,,,,,,,,,,,,,,,,,,,,,,,,,,,,,,,,218.5038043000004,218.5179107999993,219.0578774000005,219.00252980000005,219.05535430000054,219.0578774000005,219.0578774000005,219.0578774000005,220.1859901000007,Foils\058a.jpg,none,s,1.1155982999989646,None,,,,,,,,00033,001,2026-01-16_12h51.02.580,MST_test,2024.2.0,59.83906880789855,2026-01-16 12h51.28.662803 +0530,
39,0,40,s,1.9161746999998286,None,40,0,39,220.20118150000053,,,,,,,,,,,,,,,,,,,,,,,,,,,,,,,,,,,,,,,,,,,,,,,,,,220.18622660000074,220.20118150000053,220.77835330000016,220.6853360999994,220.77548279999974,220.77835330000016,220.77835330000016,220.77835330000016,222.70282159999988,Scenes\156b.jpg,mid,s,1.9161746999998286,None,,,,,,,,00033,001,2026-01-16_12h51.02.580,MST_test,2024.2.0,59.83906880789855,2026-01-16 12h51.28.662803 +0530,
40,0,41,o,1.3229676999999356,None,41,0,40,222.71790929999952,,,,,,,,,,,,,,,,,,,,,,,,,,,,,,,,,,,,,,,,,,,,,,,,,,222.70304100000067,222.71790929999952,223.2185496000002,223.20239100000072,223.2130070000003,223.2185496000002,223.2185496000002,223.2185496000002,224.55333659999997,Scenes\188a.jpg,pre,o,1.3229676999999356,None,,,,,,,,00033,001,2026-01-16_12h51.02.580,MST_test,2024.2.0,59.83906880789855,2026-01-16 12h51.28.662803 +0530,
41,0,42,s,1.5364029000011215,None,42,0,41,224.56785929999933,,,,,,,,,,,,,,,,,,,,,,,,,,,,,,,,,,,,,,,,,,,,,,,,,,224.55376409999917,224.56785929999933,225.0686736000007,225.0521802000003,225.0561302999995,225.0686736000007,225.0686736000007,225.0686736000007,226.61937639999996,Objects\151a.jpg,pre,s,1.5364029000011215,None,,,,,,,,00033,001,2026-01-16_12h51.02.580,MST_test,2024.2.0,59.83906880789855,2026-01-16 12h51.28.662803 +0530,
42,0,43,s,3.6841282000004867,None,43,0,42,226.63455690000046,,,,,,,,,,,,,,,,,,,,,,,,,,,,,,,,,,,,,,,,,,,,,,,,,,226.6196001999997,226.63455690000046,227.38515480000024,227.11903139999959,227.3815728999998,227.38515480000024,227.38515480000024,227.38515480000024,231.08652289999918,Scenes\069b.jpg,post,s,3.6841282000004867,None,,,,,,,,00033,001,2026-01-16_12h51.02.580,MST_test,2024.2.0,59.83906880789855,2026-01-16 12h51.28.662803 +0530,
43,0,44,o,2.019919200000004,None,44,0,43,231.1013796999996,,,,,,,,,,,,,,,,,,,,,,,,,,,,,,,,,,,,,,,,,,,,,,,,,,231.08689129999948,231.1013796999996,231.60210039999947,231.5847274000007,231.5979339000005,231.60210039999947,231.60210039999947,231.60210039999947,233.6367551000003,Scenes\174a.jpg,post,o,2.019919200000004,None,,,,,,,,00033,001,2026-01-16_12h51.02.580,MST_test,2024.2.0,59.83906880789855,2026-01-16 12h51.28.662803 +0530,
44,0,45,o,1.1256008999989717,None,45,0,44,233.65128469999945,,,,,,,,,,,,,,,,,,,,,,,,,,,,,,,,,,,,,,,,,,,,,,,,,,233.63707330000034,233.65128469999945,234.15178019999985,234.13545069999964,234.14218269999947,234.15178019999985,234.15178019999985,234.15178019999985,235.28658899999937,Objects\003a.jpg,mid,o,1.1256008999989717,None,,,,,,,,00033,001,2026-01-16_12h51.02.580,MST_test,2024.2.0,59.83906880789855,2026-01-16 12h51.28.662803 +0530,
45,0,46,n,1.1320384000009653,None,46,0,45,235.30123859999912,,,,,,,,,,,,,,,,,,,,,,,,,,,,,,,,,,,,,,,,,,,,,,,,,,235.28680200000053,235.30123859999912,236.03391620000002,235.7856881000007,236.03109140000015,236.03391620000002,236.03391620000002,236.03391620000002,237.1695192999996,Foils\121a.jpg,none,n,1.1320384000009653,None,,,,,,,,00033,001,2026-01-16_12h51.02.580,MST_test,2024.2.0,59.83906880789855,2026-01-16 12h51.28.662803 +0530,
46,0,47,s,1.3901535000004515,None,47,0,46,237.1845713999992,,,,,,,,,,,,,,,,,,,,,,,,,,,,,,,,,,,,,,,,,,,,,,,,,,237.16996599999948,237.1845713999992,237.960613199999,237.6693567000002,237.95743530000072,237.960613199999,237.960613199999,237.960613199999,239.3537527999997,Objects\056b.jpg,post,s,1.3901535000004515,None,,,,,,,,00033,001,2026-01-16_12h51.02.580,MST_test,2024.2.0,59.83906880789855,2026-01-16 12h51.28.662803 +0530,
47,0,48,s,1.2175907000000734,None,48,0,47,239.36793399999988,,,,,,,,,,,,,,,,,,,,,,,,,,,,,,,,,,,,,,,,,,,,,,,,,,239.35411530000056,239.36793399999988,239.88408750000053,239.85235739999916,239.88155929999994,239.88408750000053,239.88408750000053,239.88408750000053,241.1036136999992,Objects\103b.jpg,mid,s,1.2175907000000734,None,,,,,,,,00033,001,2026-01-16_12h51.02.580,MST_test,2024.2.0,59.83906880789855,2026-01-16 12h51.28.662803 +0530,
48,0,49,s,1.0991749999993772,None,49,0,48,241.1178373999992,,,,,,,,,,,,,,,,,,,,,,,,,,,,,,,,,,,,,,,,,,,,,,,,,,241.10398870000063,241.1178373999992,241.61803250000048,241.60232309999992,241.60907299999963,241.61803250000048,241.61803250000048,241.61803250000048,242.71869759999936,Objects\157a.jpg,pre,s,1.0991749999993772,None,,,,,,,,00033,001,2026-01-16_12h51.02.580,MST_test,2024.2.0,59.83906880789855,2026-01-16 12h51.28.662803 +0530,
49,0,50,s,1.3301408000006631,None,50,0,49,242.7344336999995,,,,,,,,,,,,,,,,,,,,,,,,,,,,,,,,,,,,,,,,,,,,,,,,,,242.71881539999958,242.7344336999995,243.2599295,243.21868949999953,243.25655449999977,243.2599295,243.2599295,243.2599295,244.60236330000043,Objects\051b.jpg,mid,s,1.3301408000006631,None,,,,,,,,00033,001,2026-01-16_12h51.02.580,MST_test,2024.2.0,59.83906880789855,2026-01-16 12h51.28.662803 +0530,
50,0,51,n,1.260540100000071,None,51,0,50,244.61761449999904,,,,,,,,,,,,,,,,,,,,,,,,,,,,,,,,,,,,,,,,,,,,,,,,,,244.60247489999892,244.61761449999904,245.17678349999915,245.1027398999995,245.17403869999907,245.17678349999915,245.17678349999915,245.17678349999915,246.45314159999907,Foils\093b.jpg,none,n,1.260540100000071,None,,,,,,,,00033,001,2026-01-16_12h51.02.580,MST_test,2024.2.0,59.83906880789855,2026-01-16 12h51.28.662803 +0530,
51,0,52,n,1.3936862000009569,None,52,0,51,246.4678428999996,,,,,,,,,,,,,,,,,,,,,,,,,,,,,,,,,,,,,,,,,,,,,,,,,,246.45340729999953,246.4678428999996,246.98060020000048,246.95230570000058,246.9781554000001,246.98060020000048,246.98060020000048,246.98060020000048,248.38664210000024,Objects\048b.jpg,mid,n,1.3936862000009569,None,,,,,,,,00033,001,2026-01-16_12h51.02.580,MST_test,2024.2.0,59.83906880789855,2026-01-16 12h51.28.662803 +0530,
52,0,53,s,1.8138961999993626,None,53,0,52,248.40125099999932,,,,,,,,,,,,,,,,,,,,,,,,,,,,,,,,,,,,,,,,,,,,,,,,,,248.38687550000031,248.40125099999932,249.00819059999958,248.88563799999974,249.00521339999977,249.00819059999958,249.00819059999958,249.00819059999958,250.83663589999924,Objects\110b.jpg,pre,s,1.8138961999993626,None,,,,,,,,00033,001,2026-01-16_12h51.02.580,MST_test,2024.2.0,59.83906880789855,2026-01-16 12h51.28.662803 +0530,
53,0,54,s,1.2929715999998734,None,54,0,53,250.85114669999894,,,,,,,,,,,,,,,,,,,,,,,,,,,,,,,,,,,,,,,,,,,,,,,,,,250.83696409999902,250.85114669999894,251.4083453000003,251.33563959999992,251.40530910000052,251.4083453000003,251.4083453000003,251.4083453000003,252.70334189999994,Objects\054b.jpg,pre,s,1.2929715999998734,None,,,,,,,,00033,001,2026-01-16_12h51.02.580,MST_test,2024.2.0,59.83906880789855,2026-01-16 12h51.28.662803 +0530,
54,0,55,s,1.0871141999996325,None,55,0,54,252.71805689999928,,,,,,,,,,,,,,,,,,,,,,,,,,,,,,,,,,,,,,,,,,,,,,,,,,252.70368659999986,252.71805689999928,253.51119319999998,253.20166869999957,253.50857729999916,253.51119319999998,253.51119319999998,253.51119319999998,254.6031769000001,Objects\152b.jpg,mid,s,1.0871141999996325,None,,,,,,,,00033,001,2026-01-16_12h51.02.580,MST_test,2024.2.0,59.83906880789855,2026-01-16 12h51.28.662803 +0530,
55,0,56,s,1.4579579999990528,None,56,0,55,254.61795899999925,,,,,,,,,,,,,,,,,,,,,,,,,,,,,,,,,,,,,,,,,,,,,,,,,,254.60344729999997,254.61795899999925,255.65132979999908,255.10206019999896,255.64807130000008,255.65132979999908,255.65132979999908,255.65132979999908,257.11891920000016,Foils\scenes16.jpg,none,s,1.4579579999990528,None,,,,,,,,00033,001,2026-01-16_12h51.02.580,MST_test,2024.2.0,59.83906880789855,2026-01-16 12h51.28.662803 +0530,
56,0,57,s,0.8508072000004177,None,57,0,56,257.1343474000005,,,,,,,,,,,,,,,,,,,,,,,,,,,,,,,,,,,,,,,,,,,,,,,,,,257.1190814999991,257.1343474000005,257.6349539999992,257.6188643000005,257.62985130000015,257.6349539999992,257.6349539999992,257.6349539999992,258.48720649999996,Objects\027a.jpg,pre,s,0.8508072000004177,None,,,,,,,,00033,001,2026-01-16_12h51.02.580,MST_test,2024.2.0,59.83906880789855,2026-01-16 12h51.28.662803 +0530,
57,0,58,s,1.3749898999994912,None,58,0,57,258.5015925000007,,,,,,,,,,,,,,,,,,,,,,,,,,,,,,,,,,,,,,,,,,,,,,,,,,258.4874165000001,258.5015925000007,259.01394319999963,258.9852472999992,259.01104470000064,259.01394319999963,259.01394319999963,259.01394319999963,260.40208619999976,Scenes\091a.jpg,pre,s,1.3749898999994912,None,,,,,,,,00033,001,2026-01-16_12h51.02.580,MST_test,2024.2.0,59.83906880789855,2026-01-16 12h51.28.662803 +0530,
58,0,59,n,1.2920830999992177,None,59,0,58,260.41753570000037,,,,,,,,,,,,,,,,,,,,,,,,,,,,,,,,,,,,,,,,,,,,,,,,,,260.4022024999995,260.41753570000037,260.96097109999937,260.90240189999895,260.95771409999907,260.96097109999937,260.96097109999937,260.96097109999937,262.2699235,Foils\106a.jpg,none,n,1.2920830999992177,None,,,,,,,,00033,001,2026-01-16_12h51.02.580,MST_test,2024.2.0,59.83906880789855,2026-01-16 12h51.28.662803 +0530,
59,0,60,n,3.532778299999336,None,60,0,59,262.2844752000001,,,,,,,,,,,,,,,,,,,,,,,,,,,,,,,,,,,,,,,,,,,,,,,,,,262.27032039999904,262.2844752000001,262.78525049999917,262.76826190000065,262.7771498000002,262.78525049999917,262.78525049999917,262.78525049999917,266.3206475999996,Scenes\113a.jpg,post,n,3.532778299999336,None,,,,,,,,00033,001,2026-01-16_12h51.02.580,MST_test,2024.2.0,59.83906880789855,2026-01-16 12h51.28.662803 +0530,
60,0,61,n,1.6349370999996609,None,61,0,60,266.3344639000006,,,,,,,,,,,,,,,,,,,,,,,,,,,,,,,,,,,,,,,,,,,,,,,,,,266.32101820000025,266.3344639000006,266.83485759999894,266.8181435000006,266.82474379999985,266.83485759999894,266.83485759999894,266.83485759999894,268.4864646999995,Scenes\118a.jpg,post,n,1.6349370999996609,None,,,,,,,,00033,001,2026-01-16_12h51.02.580,MST_test,2024.2.0,59.83906880789855,2026-01-16 12h51.28.662803 +0530,
61,0,62,n,1.1840819000008196,None,62,0,61,268.5011324999996,,,,,,,,,,,,,,,,,,,,,,,,,,,,,,,,,,,,,,,,,,,,,,,,,,268.48661619999984,268.5011324999996,269.3253170000007,268.9849226999995,269.32172609999907,269.3253170000007,269.3253170000007,269.3253170000007,270.5198311999993,Foils\090a.jpg,none,n,1.1840819000008196,None,,,,,,,,00033,001,2026-01-16_12h51.02.580,MST_test,2024.2.0,59.83906880789855,2026-01-16 12h51.28.662803 +0530,
62,0,63,s,1.366144900001018,None,63,0,62,270.53439849999995,,,,,,,,,,,,,,,,,,,,,,,,,,,,,,,,,,,,,,,,,,,,,,,,,,270.5201880000004,270.53439849999995,271.35205379999934,271.01937460000045,271.3480829,271.35205379999934,271.35205379999934,271.35205379999934,272.71973549999893,Foils\scenes13.jpg,none,s,1.366144900001018,None,,,,,,,,00033,001,2026-01-16_12h51.02.580,MST_test,2024.2.0,59.83906880789855,2026-01-16 12h51.28.662803 +0530,
63,0,64,o,1.2182560000001104,None,64,0,63,272.734488099999,,,,,,,,,,,,,,,,,,,,,,,,,,,,,,,,,,,,,,,,,,,,,,,,,,272.7198547000007,272.734488099999,273.23502949999965,273.2184968999991,273.22560299999896,273.23502949999965,273.23502949999965,273.23502949999965,274.4707077999992,Scenes\037a.jpg,mid,o,1.2182560000001104,None,,,,,,,,00033,001,2026-01-16_12h51.02.580,MST_test,2024.2.0,59.83906880789855,2026-01-16 12h51.28.662803 +0530,
64,0,65,o,0.860935700000482,None,65,0,64,274.4843531000006,,,,,,,,,,,,,,,,,,,,,,,,,,,,,,,,,,,,,,,,,,,,,,,,,,274.4710792999995,274.4843531000006,275.03211530000044,274.9682427000007,275.02913549999903,275.03211530000044,275.03211530000044,275.03211530000044,275.90247869999985,Objects\099b.jpg,pre,o,0.860935700000482,None,,,,,,,,00033,001,2026-01-16_12h51.02.580,MST_test,2024.2.0,59.83906880789855,2026-01-16 12h51.28.662803 +0530,
65,0,66,o,0.7877243000002636,None,66,0,65,275.91771619999963,,,,,,,,,,,,,,,,,,,,,,,,,,,,,,,,,,,,,,,,,,,,,,,,,,275.90278769999895,275.91771619999963,276.4179258000004,276.4017509000005,276.40593850000005,276.4179258000004,276.4179258000004,276.4179258000004,277.2195482999996,Objects\082a.jpg,post,o,0.7877243000002636,None,,,,,,,,00033,001,2026-01-16_12h51.02.580,MST_test,2024.2.0,59.83906880789855,2026-01-16 12h51.28.662803 +0530,
66,0,67,o,0.7749065999996674,None,67,0,66,277.23447979999946,,,,,,,,,,,,,,,,,,,,,,,,,,,,,,,,,,,,,,,,,,,,,,,,,,277.2199337000002,277.23447979999946,277.7347934999998,277.7186989999991,277.72558559999925,277.7347934999998,277.7347934999998,277.7347934999998,278.5186902000005,Objects\045a.jpg,mid,o,0.7749065999996674,None,,,,,,,,00033,001,2026-01-16_12h51.02.580,MST_test,2024.2.0,59.83906880789855,2026-01-16 12h51.28.662803 +0530,
67,0,68,o,1.0422721000013553,None,68,0,67,278.5344667999998,,,,,,,,,,,,,,,,,,,,,,,,,,,,,,,,,,,,,,,,,,,,,,,,,,278.51882979999937,278.5344667999998,279.16283359999943,279.0185098999991,279.1601976000002,279.16283359999943,279.16283359999943,279.16283359999943,280.2185664999997,Objects\077b.jpg,pre,o,1.0422721000013553,None,,,,,,,,00033,001,2026-01-16_12h51.02.580,MST_test,2024.2.0,59.83906880789855,2026-01-16 12h51.28.662803 +0530,
68,0,69,s,2.2864652999996906,None,69,0,68,280.23434129999987,,,,,,,,,,,,,,,,,,,,,,,,,,,,,,,,,,,,,,,,,,,,,,,,,,280.2186922000001,280.23434129999987,280.83179349999955,280.7184780000007,280.8291936000005,280.83179349999955,280.83179349999955,280.83179349999955,283.1203026000003,Objects\109b.jpg,pre,s,2.2864652999996906,None,,,,,,,,00033,001,2026-01-16_12h51.02.580,MST_test,2024.2.0,59.83906880789855,2026-01-16 12h51.28.662803 +0530,
69,0,70,s,1.4604286999983742,None,70,0,69,283.1346436999993,,,,,,,,,,,,,,,,,,,,,,,,,,,,,,,,,,,,,,,,,,,,,,,,,,283.120637,283.1346436999993,283.7453177999996,283.6187958999999,283.7425502999995,283.7453177999996,283.7453177999996,283.7453177999996,285.2199918999995,Objects\135b.jpg,mid,s,1.4604286999983742,None,,,,,,,,00033,001,2026-01-16_12h51.02.580,MST_test,2024.2.0,59.83906880789855,2026-01-16 12h51.28.662803 +0530,
70,0,71,s,1.5038455000012618,None,71,0,70,285.2344656000005,,,,,,,,,,,,,,,,,,,,,,,,,,,,,,,,,,,,,,,,,,,,,,,,,,285.220346099999,285.2344656000005,285.781595299999,285.71892149999985,285.7783825000006,285.781595299999,285.781595299999,285.781595299999,287.3025601999998,Scenes\125b.jpg,pre,s,1.5038455000012618,None,,,,,,,,00033,001,2026-01-16_12h51.02.580,MST_test,2024.2.0,59.83906880789855,2026-01-16 12h51.28.662803 +0530,
71,0,72,s,1.1715042999985599,None,72,0,71,287.31754849999925,,,,,,,,,,,,,,,,,,,,,,,,,,,,,,,,,,,,,,,,,,,,,,,,,,287.30268009999963,287.31754849999925,287.81854659999954,287.8015985000002,287.8078604000002,287.81854659999954,287.81854659999954,287.81854659999954,289.00353189999987,Objects\146a.jpg,pre,s,1.1715042999985599,None,,,,,,,,00033,001,2026-01-16_12h51.02.580,MST_test,2024.2.0,59.83906880789855,2026-01-16 12h51.28.662803 +0530,
72,0,73,s,1.0870629000000918,None,73,0,72,289.01786560000073,,,,,,,,,,,,,,,,,,,,,,,,,,,,,,,,,,,,,,,,,,,,,,,,,,289.00388439999915,289.01786560000073,289.51830320000045,289.50220679999984,289.51165670000046,289.51830320000045,289.51830320000045,289.51830320000045,290.619525099999,Scenes\066a.jpg,mid,s,1.0870629000000918,None,,,,,,,,00033,001,2026-01-16_12h51.02.580,MST_test,2024.2.0,59.83906880789855,2026-01-16 12h51.28.662803 +0530,
73,0,74,s,1.6398141000008764,None,74,0,73,290.63455369999974,,,,,,,,,,,,,,,,,,,,,,,,,,,,,,,,,,,,,,,,,,,,,,,,,,290.61978380000073,290.63455369999974,291.14149200000065,291.1188882000006,291.1387235000002,291.14149200000065,291.14149200000065,291.14149200000065,292.7858761999996,Scenes\004a.jpg,pre,s,1.6398141000008764,None,,,,,,,,00033,001,2026-01-16_12h51.02.580,MST_test,2024.2.0,59.83906880789855,2026-01-16 12h51.28.662803 +0530,
74,0,75,n,1.65716810000049,None,75,0,74,292.80123280000043,,,,,,,,,,,,,,,,,,,,,,,,,,,,,,,,,,,,,,,,,,,,,,,,,,292.7860208000002,292.80123280000043,293.44455670000025,293.28538819999994,293.4414524999993,293.44455670000025,293.44455670000025,293.44455670000025,295.1034237999993,Scenes\163b.jpg,post,n,1.65716810000049,None,,,,,,,,00033,001,2026-01-16_12h51.02.580,MST_test,2024.2.0,59.83906880789855,2026-01-16 12h51.28.662803 +0530,
75,0,76,s,1.0107112000005145,None,76,0,75,295.11771939999926,,,,,,,,,,,,,,,,,,,,,,,,,,,,,,,,,,,,,,,,,,,,,,,,,,295.1036540999994,295.11771939999926,295.61892830000033,295.60219659999893,295.61092869999993,295.61892830000033,295.61892830000033,295.61892830000033,296.6365719000005,Scenes\016a.jpg,mid,s,1.0107112000005145,None,,,,,,,,00033,001,2026-01-16_12h51.02.580,MST_test,2024.2.0,59.83906880789855,2026-01-16 12h51.28.662803 +0530,
76,0,77,s,0.9353123000000778,None,77,0,76,296.6513140999996,,,,,,,,,,,,,,,,,,,,,,,,,,,,,,,,,,,,,,,,,,,,,,,,,,296.6369228000003,296.6513140999996,297.1578857000004,297.1356902000007,297.15471810000054,297.1578857000004,297.1578857000004,297.1578857000004,298.1026105000001,Scenes\088a.jpg,post,s,0.9353123000000778,None,,,,,,,,00033,001,2026-01-16_12h51.02.580,MST_test,2024.2.0,59.83906880789855,2026-01-16 12h51.28.662803 +0530,
77,0,78,s,1.621203599999717,None,78,0,77,298.1178870999993,,,,,,,,,,,,,,,,,,,,,,,,,,,,,,,,,,,,,,,,,,,,,,,,,,298.10279900000023,298.1178870999993,298.9289138000004,298.6015688000007,298.92579490000026,298.9289138000004,298.9289138000004,298.9289138000004,300.5536372000006,Scenes\181b.jpg,pre,s,1.621203599999717,None,,,,,,,,00033,001,2026-01-16_12h51.02.580,MST_test,2024.2.0,59.83906880789855,2026-01-16 12h51.28.662803 +0530,
78,0,79,o,0.8170617000014317,None,79,0,78,300.56780140000046,,,,,,,,,,,,,,,,,,,,,,,,,,,,,,,,,,,,,,,,,,,,,,,,,,300.55400929999996,300.56780140000046,301.0683704000003,301.05237529999977,301.0592080999995,301.0683704000003,301.0683704000003,301.0683704000003,301.88744980000047,Objects\016a.jpg,mid,o,0.8170617000014317,None,,,,,,,,00033,001,2026-01-16_12h51.02.580,MST_test,2024.2.0,59.83906880789855,2026-01-16 12h51.28.662803 +0530,
79,0,80,s,1.2039330000006885,None,80,0,79,301.90132280000034,,,,,,,,,,,,,,,,,,,,,,,,,,,,,,,,,,,,,,,,,,,,,,,,,,301.88782159999937,301.90132280000034,302.75327370000014,302.3856094999992,302.7507177000007,302.75327370000014,302.75327370000014,302.75327370000014,303.9691062999991,Foils\scenes8.jpg,none,s,1.2039330000006885,None,,,,,,,,00033,001,2026-01-16_12h51.02.580,MST_test,2024.2.0,59.83906880789855,2026-01-16 12h51.28.662803 +0530,
80,0,81,s,1.4369492000005266,None,81,0,80,303.984479499999,,,,,,,,,,,,,,,,,,,,,,,,,,,,,,,,,,,,,,,,,,,,,,,,,,303.9693281999989,303.984479499999,304.48817880000024,304.46866090000003,304.48553209999955,304.48817880000024,304.48817880000024,304.48817880000024,305.9362220999992,Scenes\025a.jpg,pre,s,1.4369492000005266,None,,,,,,,,00033,001,2026-01-16_12h51.02.580,MST_test,2024.2.0,59.83906880789855,2026-01-16 12h51.28.662803 +0530,
81,0,82,o,1.2658062000009522,None,82,0,81,305.95108810000056,,,,,,,,,,,,,,,,,,,,,,,,,,,,,,,,,,,,,,,,,,,,,,,,,,305.9364028,305.95108810000056,306.4520601000004,306.43556050000007,306.4413664999993,306.4520601000004,306.4520601000004,306.4520601000004,307.72052020000046,Objects\036a.jpg,mid,o,1.2658062000009522,None,,,,,,,,00033,001,2026-01-16_12h51.02.580,MST_test,2024.2.0,59.83906880789855,2026-01-16 12h51.28.662803 +0530,
82,0,83,s,1.225209599999289,None,83,0,82,307.7346194999991,,,,,,,,,,,,,,,,,,,,,,,,,,,,,,,,,,,,,,,,,,,,,,,,,,307.7209402999997,307.7346194999991,308.34090149999975,308.218296699999,308.3384103999997,308.34090149999975,308.34090149999975,308.34090149999975,309.56950979999965,Objects\024b.jpg,post,s,1.225209599999289,None,,,,,,,,00033,001,2026-01-16_12h51.02.580,MST_test,2024.2.0,59.83906880789855,2026-01-16 12h51.28.662803 +0530,
83,0,84,s,3.2930718999996316,None,84,0,83,309.584405399999,,,,,,,,,,,,,,,,,,,,,,,,,,,,,,,,,,,,,,,,,,,,,,,,,,309.56976029999896,309.584405399999,310.33659590000025,310.0681987000007,310.33431120000023,310.33659590000025,310.33659590000025,310.33659590000025,313.6368259999999,Objects\191b.jpg,mid,s,3.2930718999996316,None,,,,,,,,00033,001,2026-01-16_12h51.02.580,MST_test,2024.2.0,59.83906880789855,2026-01-16 12h51.28.662803 +0530,
84,0,85,s,2.2369550000003073,None,85,0,84,313.65126319999945,,,,,,,,,,,,,,,,,,,,,,,,,,,,,,,,,,,,,,,,,,,,,,,,,,313.63708380000025,313.65126319999945,314.29595100000006,314.1353521000001,314.2934191000004,314.29595100000006,314.29595100000006,314.29595100000006,316.53550969999924,Scenes\067b.jpg,mid,s,2.2369550000003073,None,,,,,,,,00033,001,2026-01-16_12h51.02.580,MST_test,2024.2.0,59.83906880789855,2026-01-16 12h51.28.662803 +0530,
85,0,86,n,1.0193452999992587,None,86,0,85,316.55104759999995,,,,,,,,,,,,,,,,,,,,,,,,,,,,,,,,,,,,,,,,,,,,,,,,,,316.53564039999947,316.55104759999995,317.3303964000006,317.03564200000073,317.3270068999991,317.3303964000006,317.3303964000006,317.3303964000006,318.3527498000003,Foils\scenes6.jpg,none,n,1.0193452999992587,None,,,,,,,,00033,001,2026-01-16_12h51.02.580,MST_test,2024.2.0,59.83906880789855,2026-01-16 12h51.28.662803 +0530,
86,0,87,s,3.4005099999994854,None,87,0,86,318.3677109,,,,,,,,,,,,,,,,,,,,,,,,,,,,,,,,,,,,,,,,,,,,,,,,,,318.3530205999996,318.3677109,318.8686551999999,318.852100099999,318.86297840000043,318.8686551999999,318.8686551999999,318.8686551999999,322.28617809999923,Scenes\185a.jpg,mid,s,3.4005099999994854,None,,,,,,,,00033,001,2026-01-16_12h51.02.580,MST_test,2024.2.0,59.83906880789855,2026-01-16 12h51.28.662803 +0530,
87,0,88,s,1.6396381000013207,None,88,0,87,322.30156480000005,,,,,,,,,,,,,,,,,,,,,,,,,,,,,,,,,,,,,,,,,,,,,,,,,,322.2864250999992,322.30156480000005,323.14194619999944,322.7856093999999,323.13856699999997,323.14194619999944,323.14194619999944,323.14194619999944,324.78707679999934,Scenes\109b.jpg,pre,s,1.6396381000013207,None,,,,,,,,00033,001,2026-01-16_12h51.02.580,MST_test,2024.2.0,59.83906880789855,2026-01-16 12h51.28.662803 +0530,
88,0,89,o,1.392109899999923,None,89,0,88,324.8010582000006,,,,,,,,,,,,,,,,,,,,,,,,,,,,,,,,,,,,,,,,,,,,,,,,,,324.78732780000064,324.8010582000006,325.302204399999,325.28560019999895,325.2945173999997,325.302204399999,325.302204399999,325.302204399999,326.7028614999999,Objects\063a.jpg,post,o,1.392109899999923,None,,,,,,,,00033,001,2026-01-16_12h51.02.580,MST_test,2024.2.0,59.83906880789855,2026-01-16 12h51.28.662803 +0530,
89,0,90,n,1.6375277000006463,None,90,0,89,326.71783589999905,,,,,,,,,,,,,,,,,,,,,,,,,,,,,,,,,,,,,,,,,,,,,,,,,,326.7032417999999,326.71783589999905,327.2561679999999,327.20234789999995,327.2532547999999,327.2561679999999,327.2561679999999,327.2561679999999,328.9027922000005,Objects\066b.jpg,pre,n,1.6375277000006463,None,,,,,,,,00033,001,2026-01-16_12h51.02.580,MST_test,2024.2.0,59.83906880789855,2026-01-16 12h51.28.662803 +0530,
90,0,91,s,1.3741534999990108,None,91,0,90,328.9176814000002,,,,,,,,,,,,,,,,,,,,,,,,,,,,,,,,,,,,,,,,,,,,,,,,,,328.9029267999995,328.9176814000002,329.68738269999994,329.40221799999927,329.68475410000065,329.68738269999994,329.68738269999994,329.68738269999994,331.06974049999917,Objects\158b.jpg,post,s,1.3741534999990108,None,,,,,,,,00033,001,2026-01-16_12h51.02.580,MST_test,2024.2.0,59.83906880789855,2026-01-16 12h51.28.662803 +0530,
91,0,92,s,1.7502853000005416,None,92,0,91,331.084517199999,,,,,,,,,,,,,,,,,,,,,,,,,,,,,,,,,,,,,,,,,,,,,,,,,,331.0701152999991,331.084517199999,331.75206889999936,331.5692178999998,331.7492364999998,331.75206889999936,331.75206889999936,331.75206889999936,333.5197750999996,Objects\129b.jpg,mid,s,1.7502853000005416,None,,,,,,,,00033,001,2026-01-16_12h51.02.580,MST_test,2024.2.0,59.83906880789855,2026-01-16 12h51.28.662803 +0530,
92,0,93,o,1.4825135999999475,None,93,0,92,333.5345058999992,,,,,,,,,,,,,,,,,,,,,,,,,,,,,,,,,,,,,,,,,,,,,,,,,,333.5201749000007,333.5345058999992,334.0351666000006,334.01827349999985,334.03057629999967,334.0351666000006,334.0351666000006,334.0351666000006,335.51969389999977,Scenes\150a.jpg,mid,o,1.4825135999999475,None,,,,,,,,00033,001,2026-01-16_12h51.02.580,MST_test,2024.2.0,59.83906880789855,2026-01-16 12h51.28.662803 +0530,
93,0,94,s,1.7863720000004832,None,94,0,93,335.53442299999915,,,,,,,,,,,,,,,,,,,,,,,,,,,,,,,,,,,,,,,,,,,,,,,,,,335.5200464999998,335.53442299999915,336.0352738999991,336.018711499999,336.025209899999,336.0352738999991,336.0352738999991,336.0352738999991,337.83658130000003,Objects\020a.jpg,post,s,1.7863720000004832,None,,,,,,,,00033,001,2026-01-16_12h51.02.580,MST_test,2024.2.0,59.83906880789855,2026-01-16 12h51.28.662803 +0530,
94,0,95,s,2.3186111000013625,None,95,0,94,337.8511409999992,,,,,,,,,,,,,,,,,,,,,,,,,,,,,,,,,,,,,,,,,,,,,,,,,,337.8369232999994,337.8511409999992,338.4789825000007,338.3356297999999,338.47620239999924,338.4789825000007,338.4789825000007,338.4789825000007,340.8036685999996,Objects\081b.jpg,mid,s,2.3186111000013625,None,,,,,,,,00033,001,2026-01-16_12h51.02.580,MST_test,2024.2.0,59.83906880789855,2026-01-16 12h51.28.662803 +0530,
95,0,96,s,1.5993680999999924,None,96,0,95,340.8177770000002,,,,,,,,,,,,,,,,,,,,,,,,,,,,,,,,,,,,,,,,,,,,,,,,,,340.8040791000003,340.8177770000002,341.3181757000002,341.30235790000006,341.3105840999997,341.3181757000002,341.3181757000002,341.3181757000002,342.920247,Objects\113a.jpg,mid,s,1.5993680999999924,None,,,,,,,,00033,001,2026-01-16_12h51.02.580,MST_test,2024.2.0,59.83906880789855,2026-01-16 12h51.28.662803 +0530,
96,0,97,s,3.282990100000461,None,97,0,96,342.9348184999999,,,,,,,,,,,,,,,,,,,,,,,,,,,,,,,,,,,,,,,,,,,,,,,,,,342.92057849999946,342.9348184999999,343.5153038999997,343.4183051,343.5116453999999,343.5153038999997,343.5153038999997,343.5153038999997,346.80310929999905,Scenes\183b.jpg,post,s,3.282990100000461,None,,,,,,,,00033,001,2026-01-16_12h51.02.580,MST_test,2024.2.0,59.83906880789855,2026-01-16 12h51.28.662803 +0530,
97,0,98,n,1.3196232999998756,None,98,0,97,346.81805630000053,,,,,,,,,,,,,,,,,,,,,,,,,,,,,,,,,,,,,,,,,,,,,,,,,,346.8034270999997,346.81805630000053,347.7182243999996,347.30292720000034,347.71514319999915,347.7182243999996,347.7182243999996,347.7182243999996,349.0538333000004,Scenes\119b.jpg,pre,n,1.3196232999998756,None,,,,,,,,00033,001,2026-01-16_12h51.02.580,MST_test,2024.2.0,59.83906880789855,2026-01-16 12h51.28.662803 +0530,
98,0,99,n,1.1561651000010897,None,99,0,98,349.0680118,,,,,,,,,,,,,,,,,,,,,,,,,,,,,,,,,,,,,,,,,,,,,,,,,,349.0541011000005,349.0680118,349.6579820999996,349.55209710000054,349.6544572999992,349.6579820999996,349.6579820999996,349.6579820999996,350.8198075,Foils\scenes12.jpg,none,n,1.1561651000010897,None,,,,,,,,00033,001,2026-01-16_12h51.02.580,MST_test,2024.2.0,59.83906880789855,2026-01-16 12h51.28.662803 +0530,
99,0,100,o,2.750153400000272,None,100,0,99,350.83457760000056,,,,,,,,,,,,,,,,,,,,,,,,,,,,,,,,,,,,,,,,,,,,,,,,,,350.82004959999904,350.83457760000056,351.3593474999998,351.3185985,351.35556069999984,351.3593474999998,351.3593474999998,351.3593474999998,354.11970590000055,Objects\068b.jpg,pre,o,2.750153400000272,None,,,,,,,,00033,001,2026-01-16_12h51.02.580,MST_test,2024.2.0,59.83906880789855,2026-01-16 12h51.28.662803 +0530,
100,0,101,s,1.678703300000052,None,101,0,100,354.1343820000002,,,,,,,,,,,,,,,,,,,,,,,,,,,,,,,,,,,,,,,,,,,,,,,,,,354.1200494000004,354.1343820000002,354.9504218999991,354.6186705,354.94702119999965,354.9504218999991,354.9504218999991,354.9504218999991,356.6367845999994,Scenes\164b.jpg,mid,s,1.678703300000052,None,,,,,,,,00033,001,2026-01-16_12h51.02.580,MST_test,2024.2.0,59.83906880789855,2026-01-16 12h51.28.662803 +0530,
101,0,102,o,1.3458379000003333,None,102,0,101,356.6513297999991,,,,,,,,,,,,,,,,,,,,,,,,,,,,,,,,,,,,,,,,,,,,,,,,,,356.6370143999993,356.6513297999991,357.15558710000005,357.13550190000024,357.15240730000005,357.15558710000005,357.15558710000005,357.15558710000005,358.5036495000004,Scenes\003a.jpg,mid,o,1.3458379000003333,None,,,,,,,,00033,001,2026-01-16_12h51.02.580,MST_test,2024.2.0,59.83906880789855,2026-01-16 12h51.28.662803 +0530,
102,0,103,s,1.659141099999033,None,103,0,102,358.51778919999924,,,,,,,,,,,,,,,,,,,,,,,,,,,,,,,,,,,,,,,,,,,,,,,,,,358.5039935999994,358.51778919999924,359.0184181000004,359.0024570000005,359.0140004999994,359.0184181000004,359.0184181000004,359.0184181000004,360.6864311999998,Objects\018a.jpg,pre,s,1.659141099999033,None,,,,,,,,00033,001,2026-01-16_12h51.02.580,MST_test,2024.2.0,59.83906880789855,2026-01-16 12h51.28.662803 +0530,
103,0,104,o,1.4921792000004643,None,104,0,103,360.70119859999977,,,,,,,,,,,,,,,,,,,,,,,,,,,,,,,,,,,,,,,,,,,,,,,,,,360.6866826000005,360.70119859999977,361.20153650000066,361.1854471000006,361.1894849,361.20153650000066,361.20153650000066,361.20153650000066,362.7033484000003,Objects\011a.jpg,mid,o,1.4921792000004643,None,,,,,,,,00033,001,2026-01-16_12h51.02.580,MST_test,2024.2.0,59.83906880789855,2026-01-16 12h51.28.662803 +0530,
104,0,105,o,1.0671617000007245,None,105,0,104,362.7176519000004,,,,,,,,,,,,,,,,,,,,,,,,,,,,,,,,,,,,,,,,,,,,,,,,,,362.7037178999999,362.7176519000004,363.2184433000002,363.20209649999924,363.20753159999913,363.2184433000002,363.2184433000002,363.2184433000002,364.3028895999996,Objects\092a.jpg,mid,o,1.0671617000007245,None,,,,,,,,00033,001,2026-01-16_12h51.02.580,MST_test,2024.2.0,59.83906880789855,2026-01-16 12h51.28.662803 +0530,
105,0,106,n,1.3522826000007626,None,106,0,105,364.31781779999983,,,,,,,,,,,,,,,,,,,,,,,,,,,,,,,,,,,,,,,,,,,,,,,,,,364.30303490000006,364.31781779999983,364.84546969999974,364.80188219999945,364.8424085000006,364.84546969999974,364.84546969999974,364.84546969999974,366.2021186999991,Foils\033a.jpg,none,n,1.3522826000007626,None,,,,,,,,00033,001,2026-01-16_12h51.02.580,MST_test,2024.2.0,59.83906880789855,2026-01-16 12h51.28.662803 +0530,
106,0,107,o,1.2464082999995298,None,107,0,106,366.2174995999994,,,,,,,,,,,,,,,,,,,,,,,,,,,,,,,,,,,,,,,,,,,,,,,,,,366.2022453999998,366.2174995999994,366.7186364999998,366.7016253999991,366.7083022000006,366.7186364999998,366.7186364999998,366.7186364999998,367.9683153999995,Scenes\136a.jpg,pre,o,1.2464082999995298,None,,,,,,,,00033,001,2026-01-16_12h51.02.580,MST_test,2024.2.0,59.83906880789855,2026-01-16 12h51.28.662803 +0530,
107,0,108,n,1.9203429999997752,None,108,0,107,367.98413679999976,,,,,,,,,,,,,,,,,,,,,,,,,,,,,,,,,,,,,,,,,,,,,,,,,,367.9684269999998,367.98413679999976,369.2053237,368.4682427000007,369.2025245999994,369.2053237,369.2053237,369.2053237,371.13627069999893,Foils\scenes1.jpg,none,n,1.9203429999997752,None,,,,,,,,00033,001,2026-01-16_12h51.02.580,MST_test,2024.2.0,59.83906880789855,2026-01-16 12h51.28.662803 +0530,
108,0,109,s,6.828642700000273,None,109,0,108,371.15125780000017,,,,,,,,,,,,,,,,,,,,,,,,,,,,,,,,,,,,,,,,,,,,,,,,,,371.13639859999967,371.15125780000017,371.7370319999991,371.6356145999998,371.7342000999997,371.7370319999991,371.7370319999991,371.7370319999991,378.5696745000005,Scenes\013b.jpg,mid,s,6.828642700000273,None,,,,,,,,00033,001,2026-01-16_12h51.02.580,MST_test,2024.2.0,59.83906880789855,2026-01-16 12h51.28.662803 +0530,
109,0,110,s,1.6740405000000464,None,110,0,109,378.58429009999963,,,,,,,,,,,,,,,,,,,,,,,,,,,,,,,,,,,,,,,,,,,,,,,,,,378.56995689999894,378.58429009999963,379.14820990000044,379.0685407000001,379.1448311000004,379.14820990000044,379.14820990000044,379.14820990000044,380.83532790000027,Scenes\131b.jpg,mid,s,1.6740405000000464,None,,,,,,,,00033,001,2026-01-16_12h51.02.580,MST_test,2024.2.0,59.83906880789855,2026-01-16 12h51.28.662803 +0530,
110,0,111,o,1.2456576999993558,None,111,0,110,380.8511462999995,,,,,,,,,,,,,,,,,,,,,,,,,,,,,,,,,,,,,,,,,,,,,,,,,,380.8354450000006,380.8511462999995,381.35187099999894,381.33542169999964,381.33988750000026,381.35187099999894,381.35187099999894,381.35187099999894,382.6030305000004,Objects\188a.jpg,post,o,1.2456576999993558,None,,,,,,,,00033,001,2026-01-16_12h51.02.580,MST_test,2024.2.0,59.83906880789855,2026-01-16 12h51.28.662803 +0530,
111,0,112,o,1.4177089999993768,None,112,0,111,382.61772439999913,,,,,,,,,,,,,,,,,,,,,,,,,,,,,,,,,,,,,,,,,,,,,,,,,,382.60332050000034,382.61772439999913,383.1233179999999,383.1024250999999,383.1202856,383.1233179999999,383.1233179999999,383.1233179999999,384.55375920000006,Scenes\123a.jpg,post,o,1.4177089999993768,None,,,,,,,,00033,001,2026-01-16_12h51.02.580,MST_test,2024.2.0,59.83906880789855,2026-01-16 12h51.28.662803 +0530,
112,0,113,o,1.328576100000646,None,113,0,112,384.5675535999999,,,,,,,,,,,,,,,,,,,,,,,,,,,,,,,,,,,,,,,,,,,,,,,,,,384.5540562999995,384.5675535999999,385.06842659999893,385.051620799999,385.0559914000005,385.06842659999893,385.06842659999893,385.06842659999893,386.4020254999996,Objects\084a.jpg,post,o,1.328576100000646,None,,,,,,,,00033,001,2026-01-16_12h51.02.580,MST_test,2024.2.0,59.83906880789855,2026-01-16 12h51.28.662803 +0530,
113,0,114,s,3.495611199999985,None,114,0,113,386.4175027000001,,,,,,,,,,,,,,,,,,,,,,,,,,,,,,,,,,,,,,,,,,,,,,,,,,386.40213760000006,386.4175027000001,387.29355939999914,386.90201119999983,387.2905716000005,387.29355939999914,387.29355939999914,387.29355939999914,390.8025959000006,Scenes\018b.jpg,pre,s,3.495611199999985,None,,,,,,,,00033,001,2026-01-16_12h51.02.580,MST_test,2024.2.0,59.83906880789855,2026-01-16 12h51.28.662803 +0530,
114,0,115,n,1.561962300000232,None,115,0,114,390.81753729999946,,,,,,,,,,,,,,,,,,,,,,,,,,,,,,,,,,,,,,,,,,,,,,,,,,390.8028852999996,390.81753729999946,391.3549246999992,391.3017043,391.3518774000004,391.3549246999992,391.3549246999992,391.3549246999992,392.91922909999994,Foils\081a.jpg,none,n,1.561962300000232,None,,,,,,,,00033,001,2026-01-16_12h51.02.580,MST_test,2024.2.0,59.83906880789855,2026-01-16 12h51.28.662803 +0530,
115,0,116,o,1.2054528999997274,None,116,0,115,392.93412890000036,,,,,,,,,,,,,,,,,,,,,,,,,,,,,,,,,,,,,,,,,,,,,,,,,,392.91949810000006,392.93412890000036,393.43951489999927,393.41848650000065,393.4364043000005,393.43951489999927,393.43951489999927,393.43951489999927,394.65275719999954,Scenes\114a.jpg,mid,o,1.2054528999997274,None,,,,,,,,00033,001,2026-01-16_12h51.02.580,MST_test,2024.2.0,59.83906880789855,2026-01-16 12h51.28.662803 +0530,
116,0,117,o,1.1644031000014365,None,117,0,116,394.66755209999974,,,,,,,,,,,,,,,,,,,,,,,,,,,,,,,,,,,,,,,,,,,,,,,,,,394.6530261000007,394.66755209999974,395.1685080999996,395.1516322000007,395.15990280000005,395.1685080999996,395.1685080999996,395.1685080999996,396.3352955999999,Objects\145a.jpg,post,o,1.1644031000014365,None,,,,,,,,00033,001,2026-01-16_12h51.02.580,MST_test,2024.2.0,59.83906880789855,2026-01-16 12h51.28.662803 +0530,
117,0,118,o,1.1243450000001758,None,118,0,117,396.351118999999,,,,,,,,,,,,,,,,,,,,,,,,,,,,,,,,,,,,,,,,,,,,,,,,,,396.33546659999956,396.351118999999,397.09732520000034,396.83511069999986,397.0940680999993,397.09732520000034,397.09732520000034,397.09732520000034,398.2367744999992,Scenes\097b.jpg,mid,o,1.1243450000001758,None,,,,,,,,00033,001,2026-01-16_12h51.02.580,MST_test,2024.2.0,59.83906880789855,2026-01-16 12h51.28.662803 +0530,
118,0,119,s,3.1382833999996365,None,119,0,118,398.25116700000035,,,,,,,,,,,,,,,,,,,,,,,,,,,,,,,,,,,,,,,,,,,,,,,,,,398.2372013000004,398.25116700000035,399.26680639999904,398.7350430000006,399.26389840000047,399.26680639999904,399.26680639999904,399.26680639999904,402.41852649999964,Foils\scenes29.jpg,none,s,3.1382833999996365,None,,,,,,,,00033,001,2026-01-16_12h51.02.580,MST_test,2024.2.0,59.83906880789855,2026-01-16 12h51.28.662803 +0530,
119,0,120,o,1.746707799999058,None,120,0,119,402.43422999999893,,,,,,,,,,,,,,,,,,,,,,,,,,,,,,,,,,,,,,,,,,,,,,,,,,402.41867830000047,402.43422999999893,402.9860179999996,402.918243099999,402.98277430000053,402.9860179999996,402.9860179999996,402.9860179999996,404.7350977999995,Scenes\111b.jpg,post,o,1.746707799999058,None,,,,,,,,00033,001,2026-01-16_12h51.02.580,MST_test,2024.2.0,59.83906880789855,2026-01-16 12h51.28.662803 +0530,
120,0,121,o,1.1941858999998658,None,121,0,120,404.75085089999993,,,,,,,,,,,,,,,,,,,,,,,,,,,,,,,,,,,,,,,,,,,,,,,,,,404.7352093999998,404.75085089999993,,405.2355071999991,406.30394179999894,406.3073067000005,406.3073067000005,406.3073067000005,407.5035487999994,Scenes\046b.jpg,post,o,1.1941858999998658,None,,,,,,,,00033,001,2026-01-16_12h51.02.580,MST_test,2024.2.0,59.83906880789855,2026-01-16 12h51.28.662803 +0530,
121,0,122,s,1.8286504999996396,None,122,0,121,407.5177655999996,,,,,,,,,,,,,,,,,,,,,,,,,,,,,,,,,,,,,,,,,,,,,,,,,,407.5038996000003,407.5177655999996,408.4801932999999,408.0023270999991,408.4760702000003,408.4801932999999,408.4801932999999,408.4801932999999,410.31907709999905,Objects\040b.jpg,post,s,1.8286504999996396,None,,,,,,,,00033,001,2026-01-16_12h51.02.580,MST_test,2024.2.0,59.83906880789855,2026-01-16 12h51.28.662803 +0530,
122,0,123,n,1.407176000000618,None,123,0,122,410.33444339999915,,,,,,,,,,,,,,,,,,,,,,,,,,,,,,,,,,,,,,,,,,,,,,,,,,410.31935899999917,410.33444339999915,410.8776959000006,410.8182686,410.87345389999973,410.8776959000006,410.8776959000006,410.8776959000006,412.286899499999,Scenes\173b.jpg,pre,n,1.407176000000618,None,,,,,,,,00033,001,2026-01-16_12h51.02.580,MST_test,2024.2.0,59.83906880789855,2026-01-16 12h51.28.662803 +0530,
123,0,124,s,1.924340999999913,None,124,0,123,412.30121399999916,,,,,,,,,,,,,,,,,,,,,,,,,,,,,,,,,,,,,,,,,,,,,,,,,,412.2872986000002,412.30121399999916,412.8018506999997,412.7850140999999,412.7883359000007,412.8018506999997,412.8018506999997,412.8018506999997,414.7369560999996,Objects\136a.jpg,mid,s,1.924340999999913,None,,,,,,,,00033,001,2026-01-16_12h51.02.580,MST_test,2024.2.0,59.83906880789855,2026-01-16 12h51.28.662803 +0530,
124,0,125,o,1.201291500001389,None,125,0,124,414.75119500000073,,,,,,,,,,,,,,,,,,,,,,,,,,,,,,,,,,,,,,,,,,,,,,,,,,414.73721579999983,414.75119500000073,415.25197839999964,415.23571400000037,415.24937580000005,415.25197839999964,415.25197839999964,415.25197839999964,416.4692467999994,Scenes\149a.jpg,post,o,1.201291500001389,None,,,,,,,,00033,001,2026-01-16_12h51.02.580,MST_test,2024.2.0,59.83906880789855,2026-01-16 12h51.28.662803 +0530,
125,0,126,s,1.7800955000002432,None,126,0,125,416.48462110000037,,,,,,,,,,,,,,,,,,,,,,,,,,,,,,,,,,,,,,,,,,,,,,,,,,416.46938539999974,416.48462110000037,416.984891099999,416.96817179999925,416.9770234000007,416.984891099999,416.984891099999,416.984891099999,418.7701140999998,Objects\079a.jpg,post,s,1.7800955000002432,None,,,,,,,,00033,001,2026-01-16_12h51.02.580,MST_test,2024.2.0,59.83906880789855,2026-01-16 12h51.28.662803 +0530,
126,0,127,o,1.2245686000005662,None,127,0,126,418.7845108999991,,,,,,,,,,,,,,,,,,,,,,,,,,,,,,,,,,,,,,,,,,,,,,,,,,418.77048879999893,418.7845108999991,419.2848501999997,419.26888599999984,419.274630599999,419.2848501999997,419.2848501999997,419.2848501999997,420.5198562000005,Objects\182a.jpg,pre,o,1.2245686000005662,None,,,,,,,,00033,001,2026-01-16_12h51.02.580,MST_test,2024.2.0,59.83906880789855,2026-01-16 12h51.28.662803 +0530,
127,0,128,o,1.1065557000001718,None,128,0,127,420.53448500000013,,,,,,,,,,,,,,,,,,,,,,,,,,,,,,,,,,,,,,,,,,,,,,,,,,420.52011499999935,420.53448500000013,421.0348025000003,421.01914360000046,421.02657480000016,421.0348025000003,421.0348025000003,421.0348025000003,422.1524208999999,Objects\133a.jpg,mid,o,1.1065557000001718,None,,,,,,,,00033,001,2026-01-16_12h51.02.580,MST_test,2024.2.0,59.83906880789855,2026-01-16 12h51.28.662803 +0530,
128,0,129,n,1.3264536000006046,None,129,0,128,422.1680493999993,,,,,,,,,,,,,,,,,,,,,,,,,,,,,,,,,,,,,,,,,,,,,,,,,,422.15269160000025,422.1680493999993,422.7116038999993,422.6517294000005,422.70868229999905,422.7116038999993,422.7116038999993,422.7116038999993,424.05219360000046,Scenes\171b.jpg,post,n,1.3264536000006046,None,,,,,,,,00033,001,2026-01-16_12h51.02.580,MST_test,2024.2.0,59.83906880789855,2026-01-16 12h51.28.662803 +0530,
129,0,130,n,0.9912304000008589,None,130,0,129,424.0678494999993,,,,,,,,,,,,,,,,,,,,,,,,,,,,,,,,,,,,,,,,,,,,,,,,,,424.0523173999991,424.0678494999993,425.0147916999995,424.5524683000003,425.0118843,425.0147916999995,425.0147916999995,425.0147916999995,426.01914749999924,Objects\058b.jpg,post,n,0.9912304000008589,None,,,,,,,,00033,001,2026-01-16_12h51.02.580,MST_test,2024.2.0,59.83906880789855,2026-01-16 12h51.28.662803 +0530,
130,0,131,n,3.179208800000197,None,131,0,130,426.03440950000004,,,,,,,,,,,,,,,,,,,,,,,,,,,,,,,,,,,,,,,,,,,,,,,,,,426.0192600999999,426.03440950000004,427.05744810000033,426.51905590000024,427.05430589999924,427.05744810000033,427.05744810000033,427.05744810000033,430.2519436999992,Foils\098a.jpg,none,n,3.179208800000197,None,,,,,,,,00033,001,2026-01-16_12h51.02.580,MST_test,2024.2.0,59.83906880789855,2026-01-16 12h51.28.662803 +0530,
131,0,132,s,1.8874594999997498,None,132,0,131,430.2678228999994,,,,,,,,,,,,,,,,,,,,,,,,,,,,,,,,,,,,,,,,,,,,,,,,,,430.25206230000003,430.2678228999994,430.94171579999966,430.7514919999994,430.93876739999905,430.94171579999966,430.94171579999966,430.94171579999966,432.8360666999997,Foils\scenes7.jpg,none,s,1.8874594999997498,None,,,,,,,,00033,001,2026-01-16_12h51.02.580,MST_test,2024.2.0,59.83906880789855,2026-01-16 12h51.28.662803 +0530,
132,0,133,o,1.5285639000012452,None,133,0,132,432.8510007999994,,,,,,,,,,,,,,,,,,,,,,,,,,,,,,,,,,,,,,,,,,,,,,,,,,432.83617629999935,432.8510007999994,433.6925816999992,433.33557929999915,433.6898308,433.6925816999992,433.6925816999992,433.6925816999992,435.23616649999894,Scenes\010b.jpg,mid,o,1.5285639000012452,None,,,,,,,,00033,001,2026-01-16_12h51.02.580,MST_test,2024.2.0,59.83906880789855,2026-01-16 12h51.28.662803 +0530,
133,0,134,o,1.3358673000002455,None,134,0,133,435.2510791000004,,,,,,,,,,,,,,,,,,,,,,,,,,,,,,,,,,,,,,,,,,,,,,,,,,435.23633419999896,435.2510791000004,436.8857929000005,435.7355652999995,436.88259429999925,436.8857929000005,436.8857929000005,436.8857929000005,438.23668270000053,Scenes\031b.jpg,pre,o,1.3358673000002455,None,,,,,,,,00033,001,2026-01-16_12h51.02.580,MST_test,2024.2.0,59.83906880789855,2026-01-16 12h51.28.662803 +0530,
134,0,135,s,1.5011247000002186,None,135,0,134,438.2511398000006,,,,,,,,,,,,,,,,,,,,,,,,,,,,,,,,,,,,,,,,,,,,,,,,,,438.2369808000003,438.2511398000006,439.2003244000007,438.73550669999895,439.1971169999997,439.2003244000007,439.2003244000007,439.2003244000007,440.7032775000007,Scenes\139b.jpg,post,s,1.5011247000002186,None,,,,,,,,00033,001,2026-01-16_12h51.02.580,MST_test,2024.2.0,59.83906880789855,2026-01-16 12h51.28.662803 +0530,
135,0,136,s,1.414737500001138,None,136,0,135,440.71781480000027,,,,,,,,,,,,,,,,,,,,,,,,,,,,,,,,,,,,,,,,,,,,,,,,,,440.7035137999992,440.71781480000027,441.91853020000053,441.2023929999996,441.8715752999997,441.91853020000053,441.91853020000053,441.91853020000053,443.33645930000057,Foils\scenes3.jpg,none,s,1.414737500001138,None,,,,,,,,00033,001,2026-01-16_12h51.02.580,MST_test,2024.2.0,59.83906880789855,2026-01-16 12h51.28.662803 +0530,
136,0,137,s,2.8567363000001933,None,137,0,136,443.35113490000003,,,,,,,,,,,,,,,,,,,,,,,,,,,,,,,,,,,,,,,,,,,,,,,,,,443.33669890000056,443.35113490000003,444.028843099999,443.8351487,444.0258147000004,444.028843099999,444.028843099999,444.028843099999,446.90325610000036,Scenes\014b.jpg,post,s,2.8567363000001933,None,,,,,,,,00033,001,2026-01-16_12h51.02.580,MST_test,2024.2.0,59.83906880789855,2026-01-16 12h51.28.662803 +0530,
137,0,138,s,1.4070079000011901,None,138,0,137,446.91784460000054,,,,,,,,,,,,,,,,,,,,,,,,,,,,,,,,,,,,,,,,,,,,,,,,,,446.9035803000006,446.91784460000054,447.42277040000045,447.4023477999999,447.41985059999934,447.42277040000045,447.42277040000045,447.42277040000045,448.83606209999925,Scenes\115a.jpg,pre,s,1.4070079000011901,None,,,,,,,,00033,001,2026-01-16_12h51.02.580,MST_test,2024.2.0,59.83906880789855,2026-01-16 12h51.28.662803 +0530,
138,0,139,n,2.8095028000007005,None,139,0,138,448.85075680000045,,,,,,,,,,,,,,,,,,,,,,,,,,,,,,,,,,,,,,,,,,,,,,,,,,448.8363921,448.85075680000045,449.42017470000064,449.33487839999907,449.41646109999965,449.42017470000064,449.42017470000064,449.42017470000064,452.2363805999994,Foils\101b.jpg,none,n,2.8095028000007005,None,,,,,,,,00033,001,2026-01-16_12h51.02.580,MST_test,2024.2.0,59.83906880789855,2026-01-16 12h51.28.662803 +0530,
139,0,140,n,1.0411330999995698,None,140,0,139,452.2507736000007,,,,,,,,,,,,,,,,,,,,,,,,,,,,,,,,,,,,,,,,,,,,,,,,,,452.2366796999995,452.2507736000007,453.28446500000064,452.7358211999999,453.28189139999995,453.28446500000064,453.28446500000064,453.28446500000064,454.33630789999916,Foils\scenes17.jpg,none,n,1.0411330999995698,None,,,,,,,,00033,001,2026-01-16_12h51.02.580,MST_test,2024.2.0,59.83906880789855,2026-01-16 12h51.28.662803 +0530,
140,0,141,n,2.474500000000262,None,141,0,140,454.3510836000005,,,,,,,,,,,,,,,,,,,,,,,,,,,,,,,,,,,,,,,,,,,,,,,,,,454.33644900000036,454.3510836000005,454.8514890000006,454.8346373000004,454.8431581999994,454.8514890000006,454.8514890000006,454.8514890000006,457.3364194000005,Scenes\116a.jpg,mid,n,2.474500000000262,None,,,,,,,,00033,001,2026-01-16_12h51.02.580,MST_test,2024.2.0,59.83906880789855,2026-01-16 12h51.28.662803 +0530,
141,0,142,s,1.7297207999999955,None,142,0,141,457.3511887000004,,,,,,,,,,,,,,,,,,,,,,,,,,,,,,,,,,,,,,,,,,,,,,,,,,457.3367999000002,457.3511887000004,457.8518091999995,457.8354589999999,457.84251980000045,457.8518091999995,457.8518091999995,457.8518091999995,459.58517949999987,Objects\140a.jpg,post,s,1.7297207999999955,None,,,,,,,,00033,001,2026-01-16_12h51.02.580,MST_test,2024.2.0,59.83906880789855,2026-01-16 12h51.28.662803 +0530,
142,0,143,s,6.111372100000153,None,143,0,142,459.60077269999965,,,,,,,,,,,,,,,,,,,,,,,,,,,,,,,,,,,,,,,,,,,,,,,,,,459.58529850000014,459.60077269999965,460.1419002999992,460.0851108000006,460.13879090000046,460.1419002999992,460.1419002999992,460.1419002999992,466.2688459000001,Foils\scenes18.jpg,none,s,6.111372100000153,None,,,,,,,,00033,001,2026-01-16_12h51.02.580,MST_test,2024.2.0,59.83906880789855,2026-01-16 12h51.28.662803 +0530,
143,0,144,s,2.75573280000026,None,144,0,143,466.28404109999974,,,,,,,,,,,,,,,,,,,,,,,,,,,,,,,,,,,,,,,,,,,,,,,,,,466.2691254000001,466.28404109999974,466.8256113000007,466.7683892999994,466.8224458000004,466.8256113000007,466.8256113000007,466.8256113000007,469.5849223999994,Scenes\074b.jpg,pre,s,2.75573280000026,None,,,,,,,,00033,001,2026-01-16_12h51.02.580,MST_test,2024.2.0,59.83906880789855,2026-01-16 12h51.28.662803 +0530,
144,0,145,o,1.4452096999993955,None,145,0,144,469.60064240000065,,,,,,,,,,,,,,,,,,,,,,,,,,,,,,,,,,,,,,,,,,,,,,,,,,469.58505270000023,469.60064240000065,470.10479040000064,470.0856201000006,470.10095309999997,470.10479040000064,470.10479040000064,470.10479040000064,471.55360010000004,Scenes\177a.jpg,mid,o,1.4452096999993955,None,,,,,,,,00033,001,2026-01-16_12h51.02.580,MST_test,2024.2.0,59.83906880789855,2026-01-16 12h51.28.662803 +0530,
145,0,146,s,1.5277463000002172,None,146,0,145,471.56788360000064,,,,,,,,,,,,,,,,,,,,,,,,,,,,,,,,,,,,,,,,,,,,,,,,,,471.5540094000007,471.56788360000064,472.1012955999995,472.05226330000005,472.09814220000044,472.1012955999995,472.1012955999995,472.1012955999995,473.63636099999894,Foils\020b.jpg,none,s,1.5277463000002172,None,,,,,,,,00033,001,2026-01-16_12h51.02.580,MST_test,2024.2.0,59.83906880789855,2026-01-16 12h51.28.662803 +0530,
146,0,147,n,2.498836200000369,None,147,0,146,473.65119009999944,,,,,,,,,,,,,,,,,,,,,,,,,,,,,,,,,,,,,,,,,,,,,,,,,,473.63672140000017,473.65119009999944,474.23526409999977,474.1345624000005,474.2327631999997,474.23526409999977,474.23526409999977,474.23526409999977,476.7362073000004,Foils\097a.jpg,none,n,2.498836200000369,None,,,,,,,,00033,001,2026-01-16_12h51.02.580,MST_test,2024.2.0,59.83906880789855,2026-01-16 12h51.28.662803 +0530,
147,0,148,o,1.0495243999994273,None,148,0,147,476.7509859999991,,,,,,,,,,,,,,,,,,,,,,,,,,,,,,,,,,,,,,,,,,,,,,,,,,476.73646989999907,476.7509859999991,477.3394021999993,477.2356660000005,477.3358781000006,477.3394021999993,477.3394021999993,477.3394021999993,478.4030258999992,Scenes\015b.jpg,mid,o,1.0495243999994273,None,,,,,,,,00033,001,2026-01-16_12h51.02.580,MST_test,2024.2.0,59.83906880789855,2026-01-16 12h51.28.662803 +0530,
148,0,149,s,4.50423310000042,None,149,0,148,478.41783079999914,,,,,,,,,,,,,,,,,,,,,,,,,,,,,,,,,,,,,,,,,,,,,,,,,,478.4034245999992,478.41783079999914,479.0613785000005,478.90212470000006,479.0581526999995,479.0613785000005,479.0613785000005,479.0613785000005,483.56962009999916,Foils\034a.jpg,none,s,4.50423310000042,None,,,,,,,,00033,001,2026-01-16_12h51.02.580,MST_test,2024.2.0,59.83906880789855,2026-01-16 12h51.28.662803 +0530,
149,0,150,s,1.6118263999996998,None,150,0,149,483.5844519000002,,,,,,,,,,,,,,,,,,,,,,,,,,,,,,,,,,,,,,,,,,,,,,,,,,483.56999580000047,483.5844519000002,484.12188790000073,484.06880459999957,484.11901360000047,484.12188790000073,484.12188790000073,484.12188790000073,485.73623790000056,Objects\106b.jpg,mid,s,1.6118263999996998,None,,,,,,,,00033,001,2026-01-16_12h51.02.580,MST_test,2024.2.0,59.83906880789855,2026-01-16 12h51.28.662803 +0530,
,,,,,,,,,,,,,,,,,,,,,,,,,,,,,,,,,,,,,,,,,,,,,,,,,,,,,,,,,,,,,,,,,,,,,,,,,485.73644310000054,485.75108139999975,485.75108139999975,488.66903549999915,space,2.9099237000009452,None,00033,001,2026-01-16_12h51.02.580,MST_test,2024.2.0,59.83906880789855,2026-01-16 12h51.28.662803 +0530,
