thisN,thisTrialN,thisRepN,key_resp_3.keys,key_resp_3.rt,key_resp_3.duration,trials.thisRepN,trials.thisTrialN,trials.thisN,thisRow.t,notes,intro_page.started,text.started,key_resp.started,intro_page.stopped,key_resp.keys,key_resp.rt,key_resp.duration,instructions.started,text_2.started,key_resp_2.started,instructions.stopped,key_resp_2.keys,key_resp_2.rt,key_resp_2.duration,demo1.started,image_1.started,image_2.started,text_7.started,key_resp_6.started,text_9.started,demo1.stopped,key_resp_6.keys,key_resp_6.rt,key_resp_6.duration,demo2.started,image_5.started,image_6.started,text_11.started,text_12.started,key_resp_8.started,demo2.stopped,key_resp_8.keys,key_resp_8.rt,key_resp_8.duration,demo_conclusion.started,text_13.started,key_resp_9.started,demo_conclusion.stopped,key_resp_9.keys,key_resp_9.rt,key_resp_9.duration,start_test.started,text_6.started,key_resp_5.started,start_test.stopped,key_resp_5.keys,key_resp_5.rt,key_resp_5.duration,ISI.started,text_4.started,text_4.stopped,ISI.stopped,routine_1.started,image.started,text_3.started,key_resp_3.started,routine_1.stopped,image_path,position_of_stimuli,trials.key_resp_3.keys,trials.key_resp_3.rt,trials.key_resp_3.duration,End_page.started,text_5.started,key_resp_4.started,End_page.stopped,key_resp_4.keys,key_resp_4.rt,key_resp_4.duration,participant,session,date,expName,psychopyVersion,frameRate,expStart,
,,,,,,,,,,,0.0011719999893102795,0.002706300001591444,0.002706300001591444,3.291905499994755,space,3.2743077999912202,None,,,,,,,,,,,,,,,,,,,,,,,,,,,,,,,,,,,,,,,,,,,,,,,,,,,,,,,,,,,,,,,00032,001,2026-01-16_11h00.42.172,MST_test,2024.2.0,59.98918994597077,2026-01-16 11h00.50.921987 +0530,
,,,,,,,,,,,,,,,,,,3.291935699991882,3.3062156999949366,3.3062156999949366,13.123515500003123,space,9.803195600004983,None,,,,,,,,,,,,,,,,,,,,,,,,,,,,,,,,,,,,,,,,,,,,,,,,,,,,,,,,00032,001,2026-01-16_11h00.42.172,MST_test,2024.2.0,59.98918994597077,2026-01-16 11h00.50.921987 +0530,
,,,,,,,,,,,,,,,,,,,,,,,,,13.123543399997288,13.140099600001122,13.140099600001122,13.140099600001122,13.140099600001122,13.140099600001122,19.423517799994443,space,6.272440299988375,None,,,,,,,,,,,,,,,,,,,,,,,,,,,,,,,,,,,,,,,,,,,,,,00032,001,2026-01-16_11h00.42.172,MST_test,2024.2.0,59.98918994597077,2026-01-16 11h00.50.921987 +0530,
,,,,,,,,,,,,,,,,,,,,,,,,,,,,,,,,,,,19.42354730000079,19.43990309999208,19.43990309999208,19.43990309999208,19.43990309999208,19.43990309999208,62.84030640000128,space,43.389368399992236,None,,,,,,,,,,,,,,,,,,,,,,,,,,,,,,,,,,,,00032,001,2026-01-16_11h00.42.172,MST_test,2024.2.0,59.98918994597077,2026-01-16 11h00.50.921987 +0530,
,,,,,,,,,,,,,,,,,,,,,,,,,,,,,,,,,,,,,,,,,,,,,62.840339399990626,62.85645959999238,62.85645959999238,85.70673389999138,space,22.836915699997917,None,,,,,,,,,,,,,,,,,,,,,,,,,,,,,00032,001,2026-01-16_11h00.42.172,MST_test,2024.2.0,59.98918994597077,2026-01-16 11h00.50.921987 +0530,
,,,,,,,,,,,,,,,,,,,,,,,,,,,,,,,,,,,,,,,,,,,,,,,,,,,,85.70676169999933,85.72299769999518,85.72299769999518,99.44014369999059,space,13.713878900001873,None,,,,,,,,,,,,,,,,,,,,,,00032,001,2026-01-16_11h00.42.172,MST_test,2024.2.0,59.98918994597077,2026-01-16 11h00.50.921987 +0530,
0,0,1,n,5.870901400005096,None,1,0,0,99.45630779999192,,,,,,,,,,,,,,,,,,,,,,,,,,,,,,,,,,,,,,,,,,,,,,,,,,99.44472749999841,99.45630779999192,99.9655414000008,99.9399631999986,99.9632702999952,99.9655414000008,99.9655414000008,99.9655414000008,105.84034789999714,Scenes\191b.jpg,pre,n,5.870901400005096,None,,,,,,,,00032,001,2026-01-16_11h00.42.172,MST_test,2024.2.0,59.98918994597077,2026-01-16 11h00.50.921987 +0530,
1,0,2,n,7.016579299990553,None,2,0,1,105.85634499999287,,,,,,,,,,,,,,,,,,,,,,,,,,,,,,,,,,,,,,,,,,,,,,,,,,105.84044509999512,105.85634499999287,106.35647369999788,106.33989659999497,106.35161030000017,106.35647369999788,106.35647369999788,106.35647369999788,113.37362689999281,Objects\066b.jpg,post,n,7.016579299990553,None,,,,,,,,00032,001,2026-01-16_11h00.42.172,MST_test,2024.2.0,59.98918994597077,2026-01-16 11h00.50.921987 +0530,
2,0,3,s,7.266950500008534,None,3,0,2,113.38957279999158,,,,,,,,,,,,,,,,,,,,,,,,,,,,,,,,,,,,,,,,,,,,,,,,,,113.37371770000027,113.38957279999158,113.8900888999924,113.87305039999774,113.88195579999592,113.8900888999924,113.8900888999924,113.8900888999924,121.17342769999232,Scenes\058a.jpg,pre,s,7.266950500008534,None,,,,,,,,00032,001,2026-01-16_11h00.42.172,MST_test,2024.2.0,59.98918994597077,2026-01-16 11h00.50.921987 +0530,
3,0,4,o,1.7465393000020413,None,4,0,3,121.18956739999703,,,,,,,,,,,,,,,,,,,,,,,,,,,,,,,,,,,,,,,,,,,,,,,,,,121.17352329999267,121.18956739999703,121.6900486999948,121.67316299999948,121.68423159999656,121.6900486999948,121.6900486999948,121.6900486999948,123.4401835000026,Objects\063b.jpg,post,o,1.7465393000020413,None,,,,,,,,00032,001,2026-01-16_11h00.42.172,MST_test,2024.2.0,59.98918994597077,2026-01-16 11h00.50.921987 +0530,
4,0,5,s,2.3370862000010675,None,5,0,4,123.45620970000164,,,,,,,,,,,,,,,,,,,,,,,,,,,,,,,,,,,,,,,,,,,,,,,,,,123.44027269999788,123.45620970000164,123.95697349999682,123.94044459999714,123.9509521,123.95697349999682,123.95697349999682,123.95697349999682,126.3067757999961,Objects\039b.jpg,pre,s,2.3370862000010675,None,,,,,,,,00032,001,2026-01-16_11h00.42.172,MST_test,2024.2.0,59.98918994597077,2026-01-16 11h00.50.921987 +0530,
5,0,6,s,4.621668499996304,None,6,0,5,126.32283879999886,,,,,,,,,,,,,,,,,,,,,,,,,,,,,,,,,,,,,,,,,,,,,,,,,,126.30687220000254,126.32283879999886,126.82340110000223,126.80677919999289,126.81832849999773,126.82340110000223,126.82340110000223,126.82340110000223,131.45674319998943,Foils\scenes12.jpg,none,s,4.621668499996304,None,,,,,,,,00032,001,2026-01-16_11h00.42.172,MST_test,2024.2.0,59.98918994597077,2026-01-16 11h00.50.921987 +0530,
6,0,7,n,5.21529290000035,None,7,0,6,131.4728052999999,,,,,,,,,,,,,,,,,,,,,,,,,,,,,,,,,,,,,,,,,,,,,,,,,,131.4568336999946,131.4728052999999,131.97318629999063,131.95648690000235,131.9675009999919,131.97318629999063,131.97318629999063,131.97318629999063,137.19008509999549,Foils\065a.jpg,none,n,5.21529290000035,None,,,,,,,,00032,001,2026-01-16_11h00.42.172,MST_test,2024.2.0,59.98918994597077,2026-01-16 11h00.50.921987 +0530,
7,0,8,s,2.778035399998771,None,8,0,7,137.20622719998937,,,,,,,,,,,,,,,,,,,,,,,,,,,,,,,,,,,,,,,,,,,,,,,,,,137.1901749999961,137.20622719998937,137.70656939999026,137.6897811999952,137.69869910000125,137.70656939999026,137.70656939999026,137.70656939999026,140.49040680000326,Foils\scenes14.jpg,none,s,2.778035399998771,None,,,,,,,,00032,001,2026-01-16_11h00.42.172,MST_test,2024.2.0,59.98918994597077,2026-01-16 11h00.50.921987 +0530,
8,0,9,o,1.4623893999960274,None,9,0,8,140.5062353999965,,,,,,,,,,,,,,,,,,,,,,,,,,,,,,,,,,,,,,,,,,,,,,,,,,140.49050970000098,140.5062353999965,141.0066710999963,140.9898422999977,141.0021134999988,141.0066710999963,141.0066710999963,141.0066710999963,142.4733375999931,Scenes\020a.jpg,mid,o,1.4623893999960274,None,,,,,,,,00032,001,2026-01-16_11h00.42.172,MST_test,2024.2.0,59.98918994597077,2026-01-16 11h00.50.921987 +0530,
9,0,10,o,1.143162599997595,None,10,0,9,142.48958270000003,,,,,,,,,,,,,,,,,,,,,,,,,,,,,,,,,,,,,,,,,,,,,,,,,,142.47342769999523,142.48958270000003,142.99015689999214,142.97297380000236,142.98306859999138,142.99015689999214,142.99015689999214,142.99015689999214,144.14007259999926,Objects\099b.jpg,pre,o,1.143162599997595,None,,,,,,,,00032,001,2026-01-16_11h00.42.172,MST_test,2024.2.0,59.98918994597077,2026-01-16 11h00.50.921987 +0530,
10,0,11,o,1.41186999999627,None,11,0,10,144.15623629999754,,,,,,,,,,,,,,,,,,,,,,,,,,,,,,,,,,,,,,,,,,,,,,,,,,144.14017109999259,144.15623629999754,144.65704279999773,144.63987780000025,144.6549420999945,144.65704279999773,144.65704279999773,144.65704279999773,146.07337149999512,Scenes\037b.jpg,pre,o,1.41186999999627,None,,,,,,,,00032,001,2026-01-16_11h00.42.172,MST_test,2024.2.0,59.98918994597077,2026-01-16 11h00.50.921987 +0530,
11,0,12,s,2.631061199994292,None,12,0,11,146.08958069999062,,,,,,,,,,,,,,,,,,,,,,,,,,,,,,,,,,,,,,,,,,,,,,,,,,146.07346129999496,146.08958069999062,146.5900901999994,146.57300730000134,146.58269579999615,146.5900901999994,146.5900901999994,146.5900901999994,149.2234429999953,Foils\scenes2.jpg,none,s,2.631061199994292,None,,,,,,,,00032,001,2026-01-16_11h00.42.172,MST_test,2024.2.0,59.98918994597077,2026-01-16 11h00.50.921987 +0530,
12,0,13,o,1.1766338000015821,None,13,0,12,149.2395789000002,,,,,,,,,,,,,,,,,,,,,,,,,,,,,,,,,,,,,,,,,,,,,,,,,,149.22353889999795,149.2395789000002,149.73987029999262,149.7231052999996,149.7262580999959,149.73987029999262,149.73987029999262,149.73987029999262,150.923424099994,Objects\139a.jpg,mid,o,1.1766338000015821,None,,,,,,,,00032,001,2026-01-16_11h00.42.172,MST_test,2024.2.0,59.98918994597077,2026-01-16 11h00.50.921987 +0530,
13,0,14,o,0.8769809000077657,None,14,0,13,150.93953789999068,,,,,,,,,,,,,,,,,,,,,,,,,,,,,,,,,,,,,,,,,,,,,,,,,,150.92351670000062,150.93953789999068,151.43970919999992,151.42314939999778,151.42574259999674,151.43970919999992,151.43970919999992,151.43970919999992,152.3233091000002,Objects\002a.jpg,pre,o,0.8769809000077657,None,,,,,,,,00032,001,2026-01-16_11h00.42.172,MST_test,2024.2.0,59.98918994597077,2026-01-16 11h00.50.921987 +0530,
14,0,15,o,0.972441500009154,None,15,0,14,152.33956349999062,,,,,,,,,,,,,,,,,,,,,,,,,,,,,,,,,,,,,,,,,,,,,,,,,,152.323401799993,152.33956349999062,152.84020849999797,152.82307050000236,152.83337539999047,152.84020849999797,152.84020849999797,152.84020849999797,153.8235898999992,Scenes\045a.jpg,mid,o,0.972441500009154,None,,,,,,,,00032,001,2026-01-16_11h00.42.172,MST_test,2024.2.0,59.98918994597077,2026-01-16 11h00.50.921987 +0530,
15,0,16,s,2.176665699997102,None,16,0,15,153.83959969998978,,,,,,,,,,,,,,,,,,,,,,,,,,,,,,,,,,,,,,,,,,,,,,,,,,153.82368879999558,153.83959969998978,154.34018559999822,154.32301789999474,154.33389349999197,154.34018559999822,154.34018559999822,154.34018559999822,156.5233189999999,Scenes\112b.jpg,post,s,2.176665699997102,None,,,,,,,,00032,001,2026-01-16_11h00.42.172,MST_test,2024.2.0,59.98918994597077,2026-01-16 11h00.50.921987 +0530,
16,0,17,n,1.6929399000073317,None,17,0,16,156.53957510000328,,,,,,,,,,,,,,,,,,,,,,,,,,,,,,,,,,,,,,,,,,,,,,,,,,156.52340829999594,156.53957510000328,157.0400981999992,157.0231250999932,157.03316749999067,157.0400981999992,157.0400981999992,157.0400981999992,158.74013489999925,Foils\074a.jpg,none,n,1.6929399000073317,None,,,,,,,,00032,001,2026-01-16_11h00.42.172,MST_test,2024.2.0,59.98918994597077,2026-01-16 11h00.50.921987 +0530,
17,0,18,o,1.0761340000026394,None,18,0,17,158.75618039999972,,,,,,,,,,,,,,,,,,,,,,,,,,,,,,,,,,,,,,,,,,,,,,,,,,158.740223899993,158.75618039999972,159.25644129999273,159.23985569999786,159.24936079999316,159.25644129999273,159.25644129999273,159.25644129999273,160.34022669999104,Objects\008b.jpg,pre,o,1.0761340000026394,None,,,,,,,,00032,001,2026-01-16_11h00.42.172,MST_test,2024.2.0,59.98918994597077,2026-01-16 11h00.50.921987 +0530,
18,0,19,o,1.20449109999754,None,19,0,18,160.35624149999057,,,,,,,,,,,,,,,,,,,,,,,,,,,,,,,,,,,,,,,,,,,,,,,,,,160.34031679999316,160.35624149999057,160.85646450000058,160.83989170000132,160.84910059999675,160.85646450000058,160.85646450000058,160.85646450000058,162.07334429999173,Objects\186b.jpg,pre,o,1.20449109999754,None,,,,,,,,00032,001,2026-01-16_11h00.42.172,MST_test,2024.2.0,59.98918994597077,2026-01-16 11h00.50.921987 +0530,
19,0,20,n,1.7827155999984825,None,20,0,19,162.08959589998994,,,,,,,,,,,,,,,,,,,,,,,,,,,,,,,,,,,,,,,,,,,,,,,,,,162.07343389999005,162.08959589998994,162.5899539999955,162.57293399999617,162.58232689999568,162.5899539999955,162.5899539999955,162.5899539999955,164.37346580000303,Foils\scenes4.jpg,none,n,1.7827155999984825,None,,,,,,,,00032,001,2026-01-16_11h00.42.172,MST_test,2024.2.0,59.98918994597077,2026-01-16 11h00.50.921987 +0530,
20,0,21,o,1.2591596999991452,None,21,0,20,164.38950959999056,,,,,,,,,,,,,,,,,,,,,,,,,,,,,,,,,,,,,,,,,,,,,,,,,,164.37355659999594,164.38950959999056,164.88988399998925,164.873139000003,164.8762190999987,164.88988399998925,164.88988399998925,164.88988399998925,166.15675739999278,Objects\121a.jpg,post,o,1.2591596999991452,None,,,,,,,,00032,001,2026-01-16_11h00.42.172,MST_test,2024.2.0,59.98918994597077,2026-01-16 11h00.50.921987 +0530,
21,0,22,o,1.9142791999911424,None,22,0,21,166.17277449999528,,,,,,,,,,,,,,,,,,,,,,,,,,,,,,,,,,,,,,,,,,,,,,,,,,166.1568472999934,166.17277449999528,166.67515909999202,166.6564178999979,166.67306989998906,166.67515909999202,166.67515909999202,166.67515909999202,168.59026139999332,Scenes\017b.jpg,mid,o,1.9142791999911424,None,,,,,,,,00032,001,2026-01-16_11h00.42.172,MST_test,2024.2.0,59.98918994597077,2026-01-16 11h00.50.921987 +0530,
22,0,23,s,3.0944504999933997,None,23,0,22,168.6062482999987,,,,,,,,,,,,,,,,,,,,,,,,,,,,,,,,,,,,,,,,,,,,,,,,,,168.59036289999494,168.6062482999987,169.11017089999223,169.08976729999995,169.1079419000016,169.11017089999223,169.11017089999223,169.11017089999223,172.20695199999318,Scenes\125b.jpg,pre,s,3.0944504999933997,None,,,,,,,,00032,001,2026-01-16_11h00.42.172,MST_test,2024.2.0,59.98918994597077,2026-01-16 11h00.50.921987 +0530,
23,0,24,n,3.4418997000029776,None,24,0,23,172.22277359999134,,,,,,,,,,,,,,,,,,,,,,,,,,,,,,,,,,,,,,,,,,,,,,,,,,172.20704229999683,172.22277359999134,172.72327859999496,172.7064790000004,172.7173513000016,172.72327859999496,172.72327859999496,172.72327859999496,176.17338290000043,Foils\081a.jpg,none,n,3.4418997000029776,None,,,,,,,,00032,001,2026-01-16_11h00.42.172,MST_test,2024.2.0,59.98918994597077,2026-01-16 11h00.50.921987 +0530,
24,0,25,s,4.7629069999966305,None,25,0,24,176.18957399998908,,,,,,,,,,,,,,,,,,,,,,,,,,,,,,,,,,,,,,,,,,,,,,,,,,176.17347470000095,176.18957399998908,176.68980069999816,176.67305820000183,176.6825123000017,176.68980069999816,176.68980069999816,176.68980069999816,181.4568916999997,Objects\185b.jpg,mid,s,4.7629069999966305,None,,,,,,,,00032,001,2026-01-16_11h00.42.172,MST_test,2024.2.0,59.98918994597077,2026-01-16 11h00.50.921987 +0530,
25,0,26,o,2.4872686000016984,None,26,0,25,181.47275619998982,,,,,,,,,,,,,,,,,,,,,,,,,,,,,,,,,,,,,,,,,,,,,,,,,,181.45698229999107,181.47275619998982,181.97331929999928,181.95652809999592,181.96279289999802,181.97331929999928,181.97331929999928,181.97331929999928,184.4733370999893,Scenes\116a.jpg,pre,o,2.4872686000016984,None,,,,,,,,00032,001,2026-01-16_11h00.42.172,MST_test,2024.2.0,59.98918994597077,2026-01-16 11h00.50.921987 +0530,
26,0,27,o,1.2237893999990774,None,27,0,26,184.48959019999893,,,,,,,,,,,,,,,,,,,,,,,,,,,,,,,,,,,,,,,,,,,,,,,,,,184.47342719999142,184.48959019999893,184.9900450999994,184.97302489999856,184.9839334999997,184.9900450999994,184.9900450999994,184.9900450999994,186.22328890000063,Objects\089b.jpg,pre,o,1.2237893999990774,None,,,,,,,,00032,001,2026-01-16_11h00.42.172,MST_test,2024.2.0,59.98918994597077,2026-01-16 11h00.50.921987 +0530,
27,0,28,o,1.472763900004793,None,28,0,27,186.2395805999986,,,,,,,,,,,,,,,,,,,,,,,,,,,,,,,,,,,,,,,,,,,,,,,,,,186.22338039999886,186.2395805999986,186.7398178000003,186.7230278999923,186.7255404000025,186.7398178000003,186.7398178000003,186.7398178000003,188.22333779999462,Objects\010a.jpg,mid,o,1.472763900004793,None,,,,,,,,00032,001,2026-01-16_11h00.42.172,MST_test,2024.2.0,59.98918994597077,2026-01-16 11h00.50.921987 +0530,
28,0,29,o,1.024623099991004,None,29,0,28,188.23952360000112,,,,,,,,,,,,,,,,,,,,,,,,,,,,,,,,,,,,,,,,,,,,,,,,,,188.2234266000014,188.23952360000112,188.73999760000152,188.72307710000314,188.73791149999306,188.73999760000152,188.73999760000152,188.73999760000152,189.7732934999949,Scenes\051b.jpg,mid,o,1.024623099991004,None,,,,,,,,00032,001,2026-01-16_11h00.42.172,MST_test,2024.2.0,59.98918994597077,2026-01-16 11h00.50.921987 +0530,
29,0,30,n,3.266195999996853,None,30,0,29,189.78976099999272,,,,,,,,,,,,,,,,,,,,,,,,,,,,,,,,,,,,,,,,,,,,,,,,,,189.77338349999627,189.78976099999272,190.29070440000214,190.27303689999098,190.28836559999036,190.29070440000214,190.29070440000214,190.29070440000214,193.5734661000024,Scenes\110b.jpg,post,n,3.266195999996853,None,,,,,,,,00032,001,2026-01-16_11h00.42.172,MST_test,2024.2.0,59.98918994597077,2026-01-16 11h00.50.921987 +0530,
30,0,31,o,1.139301200004411,None,31,0,30,193.5895892999979,,,,,,,,,,,,,,,,,,,,,,,,,,,,,,,,,,,,,,,,,,,,,,,,,,193.57355790000292,193.5895892999979,194.0900144999905,194.0729888999922,194.08270440000342,194.0900144999905,194.0900144999905,194.0900144999905,195.2401256000012,Objects\179b.jpg,mid,o,1.139301200004411,None,,,,,,,,00032,001,2026-01-16_11h00.42.172,MST_test,2024.2.0,59.98918994597077,2026-01-16 11h00.50.921987 +0530,
31,0,32,s,1.5279677999933483,None,32,0,31,195.25626169999305,,,,,,,,,,,,,,,,,,,,,,,,,,,,,,,,,,,,,,,,,,,,,,,,,,195.24022459999833,195.25626169999305,195.75687389999803,195.73984379999456,195.751127800002,195.75687389999803,195.75687389999803,195.75687389999803,197.29015970000182,Objects\051b.jpg,mid,s,1.5279677999933483,None,,,,,,,,00032,001,2026-01-16_11h00.42.172,MST_test,2024.2.0,59.98918994597077,2026-01-16 11h00.50.921987 +0530,
32,0,33,o,1.1512941000110004,None,33,0,32,197.3061805999896,,,,,,,,,,,,,,,,,,,,,,,,,,,,,,,,,,,,,,,,,,,,,,,,,,197.29025259999617,197.3061805999896,197.80687079999188,197.7899017000018,197.7929790999915,197.80687079999188,197.80687079999188,197.80687079999188,198.97336879999784,Objects\129a.jpg,pre,o,1.1512941000110004,None,,,,,,,,00032,001,2026-01-16_11h00.42.172,MST_test,2024.2.0,59.98918994597077,2026-01-16 11h00.50.921987 +0530,
33,0,34,o,2.5150337999948533,None,34,0,33,198.9897074999899,,,,,,,,,,,,,,,,,,,,,,,,,,,,,,,,,,,,,,,,,,,,,,,,,,198.97345930000301,198.9897074999899,199.48990339999727,199.47329509998963,199.4758806000027,199.48990339999727,199.48990339999727,199.48990339999727,202.00703470000008,Objects\080a.jpg,mid,o,2.5150337999948533,None,,,,,,,,00032,001,2026-01-16_11h00.42.172,MST_test,2024.2.0,59.98918994597077,2026-01-16 11h00.50.921987 +0530,
34,0,35,o,0.8175351000099909,None,35,0,34,202.02299749999656,,,,,,,,,,,,,,,,,,,,,,,,,,,,,,,,,,,,,,,,,,,,,,,,,,202.00712539999222,202.02299749999656,202.52313929999946,202.50659589999123,202.5164090999897,202.52313929999946,202.52313929999946,202.52313929999946,203.3570960999932,Objects\043b.jpg,mid,o,0.8175351000099909,None,,,,,,,,00032,001,2026-01-16_11h00.42.172,MST_test,2024.2.0,59.98918994597077,2026-01-16 11h00.50.921987 +0530,
35,0,36,o,0.9716256999963662,None,36,0,35,203.37299019999045,,,,,,,,,,,,,,,,,,,,,,,,,,,,,,,,,,,,,,,,,,,,,,,,,,203.35719249999966,203.37299019999045,203.87353669998993,203.85661940000136,203.86590550000255,203.87353669998993,203.87353669998993,203.87353669998993,204.8569293999899,Scenes\104a.jpg,post,o,0.9716256999963662,None,,,,,,,,00032,001,2026-01-16_11h00.42.172,MST_test,2024.2.0,59.98918994597077,2026-01-16 11h00.50.921987 +0530,
36,0,37,o,2.5364630999974906,None,37,0,36,204.87299380000331,,,,,,,,,,,,,,,,,,,,,,,,,,,,,,,,,,,,,,,,,,,,,,,,,,204.85701859999972,204.87299380000331,205.37359619999188,205.35652619999018,205.36404879999463,205.37359619999188,205.37359619999188,205.37359619999188,207.92349950000062,Scenes\144a.jpg,pre,o,2.5364630999974906,None,,,,,,,,00032,001,2026-01-16_11h00.42.172,MST_test,2024.2.0,59.98918994597077,2026-01-16 11h00.50.921987 +0530,
37,0,38,n,1.5731046000000788,None,38,0,37,207.93971589999273,,,,,,,,,,,,,,,,,,,,,,,,,,,,,,,,,,,,,,,,,,,,,,,,,,207.92359299999953,207.93971589999273,208.4402185999934,208.42325130000245,208.43330699999933,208.4402185999934,208.4402185999934,208.4402185999934,210.02380080000148,Foils\058a.jpg,none,n,1.5731046000000788,None,,,,,,,,00032,001,2026-01-16_11h00.42.172,MST_test,2024.2.0,59.98918994597077,2026-01-16 11h00.50.921987 +0530,
38,0,39,n,1.6011328999884427,None,39,0,38,210.0396034000005,,,,,,,,,,,,,,,,,,,,,,,,,,,,,,,,,,,,,,,,,,,,,,,,,,210.02389529999346,210.0396034000005,210.54008049999538,210.52327379999042,210.5278219999891,210.54008049999538,210.54008049999538,210.54008049999538,212.15691229999356,Scenes\016a.jpg,post,n,1.6011328999884427,None,,,,,,,,00032,001,2026-01-16_11h00.42.172,MST_test,2024.2.0,59.98918994597077,2026-01-16 11h00.50.921987 +0530,
39,0,40,o,1.0492480999964755,None,40,0,39,212.1730275000009,,,,,,,,,,,,,,,,,,,,,,,,,,,,,,,,,,,,,,,,,,,,,,,,,,212.15700369999104,212.1730275000009,212.67582399999083,212.65660139999818,212.67374259998905,212.67582399999083,212.67582399999083,212.67582399999083,213.74039279999852,Scenes\035b.jpg,pre,o,1.0492480999964755,None,,,,,,,,00032,001,2026-01-16_11h00.42.172,MST_test,2024.2.0,59.98918994597077,2026-01-16 11h00.50.921987 +0530,
40,0,41,o,1.3163260000001173,None,41,0,40,213.75628469999356,,,,,,,,,,,,,,,,,,,,,,,,,,,,,,,,,,,,,,,,,,,,,,,,,,213.74048500000208,213.75628469999356,214.25703209999483,214.23992059999728,214.24987279999186,214.25703209999483,214.25703209999483,214.25703209999483,215.59014629999,Scenes\084a.jpg,post,o,1.3163260000001173,None,,,,,,,,00032,001,2026-01-16_11h00.42.172,MST_test,2024.2.0,59.98918994597077,2026-01-16 11h00.50.921987 +0530,
41,0,42,n,2.1750496000022395,None,42,0,41,215.60636609999347,,,,,,,,,,,,,,,,,,,,,,,,,,,,,,,,,,,,,,,,,,,,,,,,,,215.5902347999945,215.60636609999347,216.10963069999707,216.08995959999447,216.10746649999055,216.10963069999707,216.10963069999707,216.10963069999707,218.29053559999738,Scenes\183b.jpg,mid,n,2.1750496000022395,None,,,,,,,,00032,001,2026-01-16_11h00.42.172,MST_test,2024.2.0,59.98918994597077,2026-01-16 11h00.50.921987 +0530,
42,0,43,o,0.9952362000040011,None,43,0,42,218.30637409999326,,,,,,,,,,,,,,,,,,,,,,,,,,,,,,,,,,,,,,,,,,,,,,,,,,218.29062780000095,218.30637409999326,218.80991840000206,218.7899688000034,218.8077409999969,218.80991840000206,218.80991840000206,218.80991840000206,219.80695749999722,Scenes\114b.jpg,pre,o,0.9952362000040011,None,,,,,,,,00032,001,2026-01-16_11h00.42.172,MST_test,2024.2.0,59.98918994597077,2026-01-16 11h00.50.921987 +0530,
43,0,44,o,1.200848099993891,None,44,0,43,219.8229927999928,,,,,,,,,,,,,,,,,,,,,,,,,,,,,,,,,,,,,,,,,,,,,,,,,,219.80706099999952,219.8229927999928,220.3237092999916,220.3070519999892,220.31448109999474,220.3237092999916,220.3237092999916,220.3237092999916,221.5403326999949,Scenes\184a.jpg,mid,o,1.200848099993891,None,,,,,,,,00032,001,2026-01-16_11h00.42.172,MST_test,2024.2.0,59.98918994597077,2026-01-16 11h00.50.921987 +0530,
44,0,45,n,1.9719118000066373,None,45,0,44,221.55630799999926,,,,,,,,,,,,,,,,,,,,,,,,,,,,,,,,,,,,,,,,,,,,,,,,,,221.5405066999956,221.55630799999926,222.0567824999889,222.03991239999596,222.05104469999787,222.0567824999889,222.0567824999889,222.0567824999889,224.04028030000336,Foils\121a.jpg,none,n,1.9719118000066373,None,,,,,,,,00032,001,2026-01-16_11h00.42.172,MST_test,2024.2.0,59.98918994597077,2026-01-16 11h00.50.921987 +0530,
45,0,46,o,2.304391500001657,None,46,0,45,224.05635719999555,,,,,,,,,,,,,,,,,,,,,,,,,,,,,,,,,,,,,,,,,,,,,,,,,,224.04037689999677,224.05635719999555,224.5566589999944,224.53992619999917,224.5422544999892,224.5566589999944,224.5566589999944,224.5566589999944,226.87354069999128,Scenes\053a.jpg,mid,o,2.304391500001657,None,,,,,,,,00032,001,2026-01-16_11h00.42.172,MST_test,2024.2.0,59.98918994597077,2026-01-16 11h00.50.921987 +0530,
46,0,47,o,0.8719644000084372,None,47,0,46,226.88989130000118,,,,,,,,,,,,,,,,,,,,,,,,,,,,,,,,,,,,,,,,,,,,,,,,,,226.8736324999918,226.88989130000118,227.3898812999978,227.37332129999413,227.38346369999635,227.3898812999978,227.3898812999978,227.3898812999978,228.2734177999955,Objects\171b.jpg,post,o,0.8719644000084372,None,,,,,,,,00032,001,2026-01-16_11h00.42.172,MST_test,2024.2.0,59.98918994597077,2026-01-16 11h00.50.921987 +0530,
47,0,48,o,2.938912800003891,None,48,0,47,228.28969700000016,,,,,,,,,,,,,,,,,,,,,,,,,,,,,,,,,,,,,,,,,,,,,,,,,,228.27350709999155,228.28969700000016,228.79389689999516,228.7731303999899,228.79158059999463,228.79389689999516,228.79389689999516,228.79389689999516,231.74038089999522,Scenes\094b.jpg,post,o,2.938912800003891,None,,,,,,,,00032,001,2026-01-16_11h00.42.172,MST_test,2024.2.0,59.98918994597077,2026-01-16 11h00.50.921987 +0530,
48,0,49,o,3.1964091999980155,None,49,0,48,231.75638310000068,,,,,,,,,,,,,,,,,,,,,,,,,,,,,,,,,,,,,,,,,,,,,,,,,,231.7404710999981,231.75638310000068,232.25693469999533,232.23993769999652,232.249126900002,232.25693469999533,232.25693469999533,232.25693469999533,235.456921399993,Scenes\146a.jpg,pre,o,3.1964091999980155,None,,,,,,,,00032,001,2026-01-16_11h00.42.172,MST_test,2024.2.0,59.98918994597077,2026-01-16 11h00.50.921987 +0530,
49,0,50,s,2.1363572999980533,None,50,0,49,235.47303799999645,,,,,,,,,,,,,,,,,,,,,,,,,,,,,,,,,,,,,,,,,,,,,,,,,,235.45701389999886,235.47303799999645,235.97340919999988,235.95665019999433,235.96641919999092,235.97340919999988,235.97340919999988,235.97340919999988,238.1234667999961,Foils\018a.jpg,none,s,2.1363572999980533,None,,,,,,,,00032,001,2026-01-16_11h00.42.172,MST_test,2024.2.0,59.98918994597077,2026-01-16 11h00.50.921987 +0530,
50,0,51,o,1.3164420999964932,None,51,0,50,238.13969139999244,,,,,,,,,,,,,,,,,,,,,,,,,,,,,,,,,,,,,,,,,,,,,,,,,,238.12355730000127,238.13969139999244,238.64017749999766,238.62315909999597,238.63263429999643,238.64017749999766,238.64017749999766,238.64017749999766,239.957198899996,Scenes\167a.jpg,post,o,1.3164420999964932,None,,,,,,,,00032,001,2026-01-16_11h00.42.172,MST_test,2024.2.0,59.98918994597077,2026-01-16 11h00.50.921987 +0530,
51,0,52,o,3.4276080999989063,None,52,0,51,239.97296729999653,,,,,,,,,,,,,,,,,,,,,,,,,,,,,,,,,,,,,,,,,,,,,,,,,,239.95729589999246,239.97296729999653,240.47358849999728,240.456623399994,240.4666705999989,240.47358849999728,240.47358849999728,240.47358849999728,243.9069393999962,Scenes\010a.jpg,mid,o,3.4276080999989063,None,,,,,,,,00032,001,2026-01-16_11h00.42.172,MST_test,2024.2.0,59.98918994597077,2026-01-16 11h00.50.921987 +0530,
52,0,53,s,1.8371409000101266,None,53,0,52,243.92303379999066,,,,,,,,,,,,,,,,,,,,,,,,,,,,,,,,,,,,,,,,,,,,,,,,,,243.90703109999595,243.92303379999066,244.42354190000333,244.4066574000026,244.41583779999928,244.42354190000333,244.42354190000333,244.42354190000333,246.27358280000044,Foils\scenes8.jpg,none,s,1.8371409000101266,None,,,,,,,,00032,001,2026-01-16_11h00.42.172,MST_test,2024.2.0,59.98918994597077,2026-01-16 11h00.50.921987 +0530,
53,0,54,o,2.359615599998506,None,54,0,53,246.28970680000202,,,,,,,,,,,,,,,,,,,,,,,,,,,,,,,,,,,,,,,,,,,,,,,,,,246.27367959999538,246.28970680000202,246.79003019999072,246.7732137999992,246.78037149999,246.79003019999072,246.79003019999072,246.79003019999072,249.15748009999515,Scenes\157a.jpg,post,o,2.359615599998506,None,,,,,,,,00032,001,2026-01-16_11h00.42.172,MST_test,2024.2.0,59.98918994597077,2026-01-16 11h00.50.921987 +0530,
54,0,55,o,1.7955753000132972,None,55,0,54,249.17318139999406,,,,,,,,,,,,,,,,,,,,,,,,,,,,,,,,,,,,,,,,,,,,,,,,,,249.15758210000058,249.17318139999406,249.6733419999946,249.65655459999107,249.6615071999986,249.6733419999946,249.6733419999946,249.6733419999946,251.47372670000186,Scenes\024a.jpg,mid,o,1.7955753000132972,None,,,,,,,,00032,001,2026-01-16_11h00.42.172,MST_test,2024.2.0,59.98918994597077,2026-01-16 11h00.50.921987 +0530,
55,0,56,s,2.7825171000004048,None,56,0,55,251.48969010000292,,,,,,,,,,,,,,,,,,,,,,,,,,,,,,,,,,,,,,,,,,,,,,,,,,251.47383119999722,251.48969010000292,251.99014719999104,251.9731785999902,251.98530629999004,251.99014719999104,251.99014719999104,251.99014719999104,254.7738212999975,Foils\105a.jpg,none,s,2.7825171000004048,None,,,,,,,,00032,001,2026-01-16_11h00.42.172,MST_test,2024.2.0,59.98918994597077,2026-01-16 11h00.50.921987 +0530,
56,0,57,o,1.0387561999959871,None,57,0,56,254.78983290000178,,,,,,,,,,,,,,,,,,,,,,,,,,,,,,,,,,,,,,,,,,,,,,,,,,254.77392589999363,254.78983290000178,255.29377849999582,255.2732615999994,255.29184399999212,255.29377849999582,255.29377849999582,255.29377849999582,256.34018859999196,Scenes\029b.jpg,pre,o,1.0387561999959871,None,,,,,,,,00032,001,2026-01-16_11h00.42.172,MST_test,2024.2.0,59.98918994597077,2026-01-16 11h00.50.921987 +0530,
57,0,58,n,1.4836624000017764,None,58,0,57,256.35637419999694,,,,,,,,,,,,,,,,,,,,,,,,,,,,,,,,,,,,,,,,,,,,,,,,,,256.3402851999999,256.35637419999694,256.85683619999327,256.83988499999396,256.850569599992,256.85683619999327,256.85683619999327,256.85683619999327,258.35697609999625,Foils\002a.jpg,none,n,1.4836624000017764,None,,,,,,,,00032,001,2026-01-16_11h00.42.172,MST_test,2024.2.0,59.98918994597077,2026-01-16 11h00.50.921987 +0530,
58,0,59,s,1.2913172999978997,None,59,0,58,258.37303760000214,,,,,,,,,,,,,,,,,,,,,,,,,,,,,,,,,,,,,,,,,,,,,,,,,,258.35707319999347,258.37303760000214,258.8734406000003,258.8566639999917,258.8706223999907,258.8734406000003,258.8734406000003,258.8734406000003,260.1733477999951,Scenes\095b.jpg,mid,s,1.2913172999978997,None,,,,,,,,00032,001,2026-01-16_11h00.42.172,MST_test,2024.2.0,59.98918994597077,2026-01-16 11h00.50.921987 +0530,
59,0,60,s,2.8346353999950225,None,60,0,59,260.18960539999534,,,,,,,,,,,,,,,,,,,,,,,,,,,,,,,,,,,,,,,,,,,,,,,,,,260.17344309999316,260.18960539999534,260.69009459999506,260.67309129999194,260.68315719999373,260.69009459999506,260.69009459999506,260.69009459999506,263.5401240999927,Foils\050a.jpg,none,s,2.8346353999950225,None,,,,,,,,00032,001,2026-01-16_11h00.42.172,MST_test,2024.2.0,59.98918994597077,2026-01-16 11h00.50.921987 +0530,
60,0,61,o,0.9799540000094566,None,61,0,60,263.556279899989,,,,,,,,,,,,,,,,,,,,,,,,,,,,,,,,,,,,,,,,,,,,,,,,,,263.54021269999794,263.556279899989,264.0567226999992,264.0399468999967,264.04915710000205,264.0567226999992,264.0567226999992,264.0567226999992,265.0402393999975,Scenes\004a.jpg,pre,o,0.9799540000094566,None,,,,,,,,00032,001,2026-01-16_11h00.42.172,MST_test,2024.2.0,59.98918994597077,2026-01-16 11h00.50.921987 +0530,
61,0,62,o,0.6085693000059109,None,62,0,61,265.05628530000104,,,,,,,,,,,,,,,,,,,,,,,,,,,,,,,,,,,,,,,,,,,,,,,,,,265.04033869999694,265.05628530000104,265.5568282000022,265.53991099999985,265.5432703999977,265.5568282000022,265.5568282000022,265.5568282000022,266.17344169999706,Objects\082a.jpg,post,o,0.6085693000059109,None,,,,,,,,00032,001,2026-01-16_11h00.42.172,MST_test,2024.2.0,59.98918994597077,2026-01-16 11h00.50.921987 +0530,
62,0,63,o,0.6516463000007207,None,63,0,62,266.1895363999938,,,,,,,,,,,,,,,,,,,,,,,,,,,,,,,,,,,,,,,,,,,,,,,,,,266.17353139999614,266.1895363999938,266.6898419999925,266.6730008000013,266.68268060000264,266.6898419999925,266.6898419999925,266.6898419999925,267.35685929999454,Objects\100b.jpg,mid,o,0.6516463000007207,None,,,,,,,,00032,001,2026-01-16_11h00.42.172,MST_test,2024.2.0,59.98918994597077,2026-01-16 11h00.50.921987 +0530,
63,0,64,s,1.6821884999953909,None,64,0,63,267.3728717999911,,,,,,,,,,,,,,,,,,,,,,,,,,,,,,,,,,,,,,,,,,,,,,,,,,267.3569484999898,267.3728717999911,267.8746245999937,267.85652879999543,267.87252959999023,267.8746245999937,267.8746245999937,267.8746245999937,269.57345409999834,Scenes\093b.jpg,mid,s,1.6821884999953909,None,,,,,,,,00032,001,2026-01-16_11h00.42.172,MST_test,2024.2.0,59.98918994597077,2026-01-16 11h00.50.921987 +0530,
64,0,65,o,0.891217800002778,None,65,0,64,269.58959639999375,,,,,,,,,,,,,,,,,,,,,,,,,,,,,,,,,,,,,,,,,,,,,,,,,,269.57354269998905,269.58959639999375,270.09010560000024,270.0730567999999,270.0761388999963,270.09010560000024,270.09010560000024,270.09010560000024,270.99016760000086,Objects\143a.jpg,post,o,0.891217800002778,None,,,,,,,,00032,001,2026-01-16_11h00.42.172,MST_test,2024.2.0,59.98918994597077,2026-01-16 11h00.50.921987 +0530,
65,0,66,s,1.8828259000001708,None,66,0,65,271.00627859999076,,,,,,,,,,,,,,,,,,,,,,,,,,,,,,,,,,,,,,,,,,,,,,,,,,270.9902699999948,271.00627859999076,271.50642900000094,271.48978199998965,271.4992626000021,271.50642900000094,271.50642900000094,271.50642900000094,273.3901260999992,Foils\057a.jpg,none,s,1.8828259000001708,None,,,,,,,,00032,001,2026-01-16_11h00.42.172,MST_test,2024.2.0,59.98918994597077,2026-01-16 11h00.50.921987 +0530,
66,0,67,s,1.4506430000037653,None,67,0,66,273.40627819999645,,,,,,,,,,,,,,,,,,,,,,,,,,,,,,,,,,,,,,,,,,,,,,,,,,273.3902146999899,273.40627819999645,273.90644659999816,273.88979049999034,273.8999075999891,273.90644659999816,273.90644659999816,273.90644659999816,275.37363259999256,Objects\158b.jpg,post,s,1.4506430000037653,None,,,,,,,,00032,001,2026-01-16_11h00.42.172,MST_test,2024.2.0,59.98918994597077,2026-01-16 11h00.50.921987 +0530,
67,0,68,o,1.1581370000058087,None,68,0,67,275.3895472000004,,,,,,,,,,,,,,,,,,,,,,,,,,,,,,,,,,,,,,,,,,,,,,,,,,275.37372619999223,275.3895472000004,275.89466409999295,275.8731637000019,275.89259380000294,275.89466409999295,275.89466409999295,275.89466409999295,277.0569447000016,Scenes\032b.jpg,mid,o,1.1581370000058087,None,,,,,,,,00032,001,2026-01-16_11h00.42.172,MST_test,2024.2.0,59.98918994597077,2026-01-16 11h00.50.921987 +0530,
68,0,69,o,1.1676562000066042,None,69,0,68,277.0727140999952,,,,,,,,,,,,,,,,,,,,,,,,,,,,,,,,,,,,,,,,,,,,,,,,,,277.0570340999984,277.0727140999952,277.57345969999733,277.55660660000285,277.5598131000006,277.57345969999733,277.57345969999733,277.57345969999733,278.7567416999955,Objects\101a.jpg,mid,o,1.1676562000066042,None,,,,,,,,00032,001,2026-01-16_11h00.42.172,MST_test,2024.2.0,59.98918994597077,2026-01-16 11h00.50.921987 +0530,
69,0,70,s,1.6675512000074377,None,70,0,69,278.7728041999944,,,,,,,,,,,,,,,,,,,,,,,,,,,,,,,,,,,,,,,,,,,,,,,,,,278.75683250000293,278.7728041999944,279.2730382000009,279.25675849999243,279.26686429999245,279.2730382000009,279.2730382000009,279.2730382000009,280.9571423000016,Objects\035b.jpg,post,s,1.6675512000074377,None,,,,,,,,00032,001,2026-01-16_11h00.42.172,MST_test,2024.2.0,59.98918994597077,2026-01-16 11h00.50.921987 +0530,
70,0,71,o,1.2368557000008877,None,71,0,70,280.9730095999985,,,,,,,,,,,,,,,,,,,,,,,,,,,,,,,,,,,,,,,,,,,,,,,,,,280.9572419999895,280.9730095999985,281.473073000001,281.4565469999943,281.4592860999983,281.473073000001,281.473073000001,281.473073000001,282.72333409999555,Objects\147a.jpg,mid,o,1.2368557000008877,None,,,,,,,,00032,001,2026-01-16_11h00.42.172,MST_test,2024.2.0,59.98918994597077,2026-01-16 11h00.50.921987 +0530,
71,0,72,s,1.541479799998342,None,72,0,71,282.73961869999766,,,,,,,,,,,,,,,,,,,,,,,,,,,,,,,,,,,,,,,,,,,,,,,,,,282.7234236999939,282.73961869999766,283.2398381999956,283.22302550000313,283.2322727999999,283.2398381999956,283.2398381999956,283.2398381999956,284.7902402999898,Objects\128b.jpg,mid,s,1.541479799998342,None,,,,,,,,00032,001,2026-01-16_11h00.42.172,MST_test,2024.2.0,59.98918994597077,2026-01-16 11h00.50.921987 +0530,
72,0,73,s,1.5713470000046073,None,73,0,72,284.80658140000014,,,,,,,,,,,,,,,,,,,,,,,,,,,,,,,,,,,,,,,,,,,,,,,,,,284.79032949999964,284.80658140000014,285.30658639999456,285.2897704999923,285.2985648000031,285.30658639999456,285.30658639999456,285.30658639999456,286.89020339999115,Foils\scenes16.jpg,none,s,1.5713470000046073,None,,,,,,,,00032,001,2026-01-16_11h00.42.172,MST_test,2024.2.0,59.98918994597077,2026-01-16 11h00.50.921987 +0530,
73,0,74,o,0.8463248999905773,None,74,0,73,286.906860099989,,,,,,,,,,,,,,,,,,,,,,,,,,,,,,,,,,,,,,,,,,,,,,,,,,286.8902919999964,286.906860099989,287.4066168999998,287.3898448999971,287.39709169999696,287.4066168999998,287.4066168999998,287.4066168999998,288.2568448999955,Scenes\005a.jpg,pre,o,0.8463248999905773,None,,,,,,,,00032,001,2026-01-16_11h00.42.172,MST_test,2024.2.0,59.98918994597077,2026-01-16 11h00.50.921987 +0530,
74,0,75,s,1.2239009000040824,None,75,0,74,288.2727862000029,,,,,,,,,,,,,,,,,,,,,,,,,,,,,,,,,,,,,,,,,,,,,,,,,,288.256945599991,288.2727862000029,288.77339219998976,288.75646429999324,288.7705150999973,288.77339219998976,288.77339219998976,288.77339219998976,290.00678450000123,Scenes\181b.jpg,post,s,1.2239009000040824,None,,,,,,,,00032,001,2026-01-16_11h00.42.172,MST_test,2024.2.0,59.98918994597077,2026-01-16 11h00.50.921987 +0530,
75,0,76,o,0.9292123999912292,None,76,0,75,290.02287439999054,,,,,,,,,,,,,,,,,,,,,,,,,,,,,,,,,,,,,,,,,,,,,,,,,,290.0068751999934,290.02287439999054,290.5233838999993,290.5065476000018,290.50983429999906,290.5233838999993,290.5233838999993,290.5233838999993,291.45683189999545,Objects\062a.jpg,post,o,0.9292123999912292,None,,,,,,,,00032,001,2026-01-16_11h00.42.172,MST_test,2024.2.0,59.98918994597077,2026-01-16 11h00.50.921987 +0530,
76,0,77,o,0.8733138000097824,None,77,0,76,291.4735714999988,,,,,,,,,,,,,,,,,,,,,,,,,,,,,,,,,,,,,,,,,,,,,,,,,,291.45692229999986,291.4735714999988,291.97313269998995,291.95655419999093,291.9665729999979,291.97313269998995,291.97313269998995,291.97313269998995,292.8570767999918,Objects\120b.jpg,post,o,0.8733138000097824,None,,,,,,,,00032,001,2026-01-16_11h00.42.172,MST_test,2024.2.0,59.98918994597077,2026-01-16 11h00.50.921987 +0530,
77,0,78,o,0.671967999995104,None,78,0,77,292.8729270999902,,,,,,,,,,,,,,,,,,,,,,,,,,,,,,,,,,,,,,,,,,,,,,,,,,292.8571859999938,292.8729270999902,293.37301399999706,293.3565040999965,293.35926219999965,293.37301399999706,293.37301399999706,293.37301399999706,294.0568828999967,Objects\133a.jpg,mid,o,0.671967999995104,None,,,,,,,,00032,001,2026-01-16_11h00.42.172,MST_test,2024.2.0,59.98918994597077,2026-01-16 11h00.50.921987 +0530,
78,0,79,o,0.6719092999992426,None,79,0,78,294.07278789998963,,,,,,,,,,,,,,,,,,,,,,,,,,,,,,,,,,,,,,,,,,,,,,,,,,294.05699299999105,294.07278789998963,294.5733804999909,294.556471399992,294.56429280000157,294.5733804999909,294.5733804999909,294.5733804999909,295.2570740999945,Scenes\150a.jpg,post,o,0.6719092999992426,None,,,,,,,,00032,001,2026-01-16_11h00.42.172,MST_test,2024.2.0,59.98918994597077,2026-01-16 11h00.50.921987 +0530,
79,0,80,n,2.1832915999984834,None,80,0,79,295.2729125999904,,,,,,,,,,,,,,,,,,,,,,,,,,,,,,,,,,,,,,,,,,,,,,,,,,295.25716850000026,295.2729125999904,295.77329080000345,295.7565173999901,295.76639389999036,295.77329080000345,295.77329080000345,295.77329080000345,297.95716169998923,Foils\093b.jpg,none,n,2.1832915999984834,None,,,,,,,,00032,001,2026-01-16_11h00.42.172,MST_test,2024.2.0,59.98918994597077,2026-01-16 11h00.50.921987 +0530,
80,0,81,s,0.8834420000057435,None,81,0,80,297.97281359999033,,,,,,,,,,,,,,,,,,,,,,,,,,,,,,,,,,,,,,,,,,,,,,,,,,297.957250499996,297.97281359999033,298.4732548999891,298.45653139999195,298.46035429999756,298.4732548999891,298.4732548999891,298.4732548999891,299.37330340000335,Scenes\066a.jpg,post,s,0.8834420000057435,None,,,,,,,,00032,001,2026-01-16_11h00.42.172,MST_test,2024.2.0,59.98918994597077,2026-01-16 11h00.50.921987 +0530,
81,0,82,s,0.9233375999901909,None,82,0,81,299.3896240999893,,,,,,,,,,,,,,,,,,,,,,,,,,,,,,,,,,,,,,,,,,,,,,,,,,299.37339369999245,299.3896240999893,299.8897916999995,299.8739380999905,299.88356469999417,299.8897916999995,299.8897916999995,299.8897916999995,300.82397139999375,Foils\scenes11.jpg,none,s,0.9233375999901909,None,,,,,,,,00032,001,2026-01-16_11h00.42.172,MST_test,2024.2.0,59.98918994597077,2026-01-16 11h00.50.921987 +0530,
82,0,83,s,1.3285305999888806,None,83,0,82,300.8396388999972,,,,,,,,,,,,,,,,,,,,,,,,,,,,,,,,,,,,,,,,,,,,,,,,,,300.8240752999991,300.8396388999972,301.34011479999754,301.3230018000031,301.3318642999948,301.34011479999754,301.34011479999754,301.34011479999754,302.6733142000012,Scenes\143a.jpg,mid,s,1.3285305999888806,None,,,,,,,,00032,001,2026-01-16_11h00.42.172,MST_test,2024.2.0,59.98918994597077,2026-01-16 11h00.50.921987 +0530,
83,0,84,n,1.6370394000114175,None,84,0,83,302.68962189999,,,,,,,,,,,,,,,,,,,,,,,,,,,,,,,,,,,,,,,,,,,,,,,,,,302.67340420000255,302.68962189999,303.19223119999515,303.17304460000014,303.19014920000336,303.19223119999515,303.19223119999515,303.19223119999515,304.84026820000145,Scenes\127b.jpg,pre,n,1.6370394000114175,None,,,,,,,,00032,001,2026-01-16_11h00.42.172,MST_test,2024.2.0,59.98918994597077,2026-01-16 11h00.50.921987 +0530,
84,0,85,n,1.6182542000024114,None,85,0,84,304.8563342999987,,,,,,,,,,,,,,,,,,,,,,,,,,,,,,,,,,,,,,,,,,,,,,,,,,304.84035539999604,304.8563342999987,305.3623641000013,305.33984000000055,305.36009940000076,305.3623641000013,305.3623641000013,305.3623641000013,306.99012329999823,Foils\scenes28.jpg,none,n,1.6182542000024114,None,,,,,,,,00032,001,2026-01-16_11h00.42.172,MST_test,2024.2.0,59.98918994597077,2026-01-16 11h00.50.921987 +0530,
85,0,86,s,1.330052399993292,None,86,0,85,307.0063441999955,,,,,,,,,,,,,,,,,,,,,,,,,,,,,,,,,,,,,,,,,,,,,,,,,,306.990212699995,307.0063441999955,307.50702669999737,307.489880299996,307.49306799999613,307.50702669999737,307.50702669999737,307.50702669999737,308.8402403999935,Objects\122a.jpg,post,s,1.330052399993292,None,,,,,,,,00032,001,2026-01-16_11h00.42.172,MST_test,2024.2.0,59.98918994597077,2026-01-16 11h00.50.921987 +0530,
86,0,87,s,3.153140299997176,None,87,0,86,308.8562849000009,,,,,,,,,,,,,,,,,,,,,,,,,,,,,,,,,,,,,,,,,,,,,,,,,,308.84032950000255,308.8562849000009,309.35690089999116,309.33986059999734,309.34598859999096,309.35690089999116,309.35690089999116,309.35690089999116,312.5233625999972,Scenes\140a.jpg,pre,s,3.153140299997176,None,,,,,,,,00032,001,2026-01-16_11h00.42.172,MST_test,2024.2.0,59.98918994597077,2026-01-16 11h00.50.921987 +0530,
87,0,88,o,0.8529601000045659,None,88,0,87,312.5396177999937,,,,,,,,,,,,,,,,,,,,,,,,,,,,,,,,,,,,,,,,,,,,,,,,,,312.5234522999963,312.5396177999937,313.0402972000011,313.02327619999414,313.02666699999827,313.0402972000011,313.0402972000011,313.0402972000011,313.9067561999982,Objects\164a.jpg,mid,o,0.8529601000045659,None,,,,,,,,00032,001,2026-01-16_11h00.42.172,MST_test,2024.2.0,59.98918994597077,2026-01-16 11h00.50.921987 +0530,
88,0,89,o,0.950605899997754,None,89,0,88,313.92288669999107,,,,,,,,,,,,,,,,,,,,,,,,,,,,,,,,,,,,,,,,,,,,,,,,,,313.9068474999949,313.92288669999107,314.422951799992,314.40652930000215,314.40912549999484,314.422951799992,314.422951799992,314.422951799992,315.3901016000018,Objects\009a.jpg,post,o,0.950605899997754,None,,,,,,,,00032,001,2026-01-16_11h00.42.172,MST_test,2024.2.0,59.98918994597077,2026-01-16 11h00.50.921987 +0530,
89,0,90,o,0.8261513000034029,None,90,0,89,315.40629349999654,,,,,,,,,,,,,,,,,,,,,,,,,,,,,,,,,,,,,,,,,,,,,,,,,,315.3901925999962,315.40629349999654,315.906793999995,315.8898470999993,315.90084649999335,315.906793999995,315.906793999995,315.906793999995,316.7402268000005,Scenes\089a.jpg,post,o,0.8261513000034029,None,,,,,,,,00032,001,2026-01-16_11h00.42.172,MST_test,2024.2.0,59.98918994597077,2026-01-16 11h00.50.921987 +0530,
90,0,91,o,0.7195252999954391,None,91,0,90,316.7562191999896,,,,,,,,,,,,,,,,,,,,,,,,,,,,,,,,,,,,,,,,,,,,,,,,,,316.7403170000034,316.7562191999896,317.26163819999783,317.2398450999899,317.25935539999045,317.26163819999783,317.26163819999783,317.26163819999783,317.99023280000256,Scenes\103b.jpg,post,o,0.7195252999954391,None,,,,,,,,00032,001,2026-01-16_11h00.42.172,MST_test,2024.2.0,59.98918994597077,2026-01-16 11h00.50.921987 +0530,
91,0,92,s,1.1146734000067227,None,92,0,91,318.0062165999989,,,,,,,,,,,,,,,,,,,,,,,,,,,,,,,,,,,,,,,,,,,,,,,,,,317.9903206000017,318.0062165999989,318.50682699999015,318.48980699999083,318.5007009999972,318.50682699999015,318.50682699999015,318.50682699999015,319.6237282999937,Scenes\113b.jpg,post,s,1.1146734000067227,None,,,,,,,,00032,001,2026-01-16_11h00.42.172,MST_test,2024.2.0,59.98918994597077,2026-01-16 11h00.50.921987 +0530,
92,0,93,o,0.8972479000076419,None,93,0,92,319.6396470999898,,,,,,,,,,,,,,,,,,,,,,,,,,,,,,,,,,,,,,,,,,,,,,,,,,319.62381779999123,319.6396470999898,320.14013339999656,320.1232377999986,320.1267705999926,320.14013339999656,320.14013339999656,320.14013339999656,321.04024509999726,Objects\015a.jpg,post,o,0.8972479000076419,None,,,,,,,,00032,001,2026-01-16_11h00.42.172,MST_test,2024.2.0,59.98918994597077,2026-01-16 11h00.50.921987 +0530,
93,0,94,n,0.8479586000030395,None,94,0,93,321.0563758999924,,,,,,,,,,,,,,,,,,,,,,,,,,,,,,,,,,,,,,,,,,,,,,,,,,321.04034339998907,321.0563758999924,321.556748899995,321.5399405999924,321.5494286999892,321.556748899995,321.556748899995,321.556748899995,322.4069804000028,Foils\034a.jpg,none,n,0.8479586000030395,None,,,,,,,,00032,001,2026-01-16_11h00.42.172,MST_test,2024.2.0,59.98918994597077,2026-01-16 11h00.50.921987 +0530,
94,0,95,o,0.9938576999993529,None,95,0,94,322.4229575999925,,,,,,,,,,,,,,,,,,,,,,,,,,,,,,,,,,,,,,,,,,,,,,,,,,322.4070703000034,322.4229575999925,322.92339929999434,322.90670609999506,322.9159914999909,322.92339929999434,322.92339929999434,322.92339929999434,323.92365679999057,Objects\057b.jpg,post,o,0.9938576999993529,None,,,,,,,,00032,001,2026-01-16_11h00.42.172,MST_test,2024.2.0,59.98918994597077,2026-01-16 11h00.50.921987 +0530,
95,0,96,o,0.5965574000001652,None,96,0,95,323.93973600000027,,,,,,,,,,,,,,,,,,,,,,,,,,,,,,,,,,,,,,,,,,,,,,,,,,323.92374440000276,323.93973600000027,324.43998749999446,324.42344699999376,324.4260823999939,324.43998749999446,324.43998749999446,324.43998749999446,325.04021989999455,Objects\092a.jpg,mid,o,0.5965574000001652,None,,,,,,,,00032,001,2026-01-16_11h00.42.172,MST_test,2024.2.0,59.98918994597077,2026-01-16 11h00.50.921987 +0530,
96,0,97,n,1.3998735000059241,None,97,0,96,325.0563903000002,,,,,,,,,,,,,,,,,,,,,,,,,,,,,,,,,,,,,,,,,,,,,,,,,,325.0403084999998,325.0563903000002,325.556620000003,325.53994349999994,325.5493082999892,325.556620000003,325.556620000003,325.556620000003,326.9573292999994,Foils\073a.jpg,none,n,1.3998735000059241,None,,,,,,,,00032,001,2026-01-16_11h00.42.172,MST_test,2024.2.0,59.98918994597077,2026-01-16 11h00.50.921987 +0530,
97,0,98,o,0.8839299000101164,None,98,0,97,326.9730375999934,,,,,,,,,,,,,,,,,,,,,,,,,,,,,,,,,,,,,,,,,,,,,,,,,,326.95741799999087,326.9730375999934,327.47316480000154,327.45649919999414,327.458942199999,327.47316480000154,327.47316480000154,327.47316480000154,328.37353460000304,Objects\032a.jpg,pre,o,0.8839299000101164,None,,,,,,,,00032,001,2026-01-16_11h00.42.172,MST_test,2024.2.0,59.98918994597077,2026-01-16 11h00.50.921987 +0530,
98,0,99,n,1.1419118999911007,None,99,0,98,328.38972099999955,,,,,,,,,,,,,,,,,,,,,,,,,,,,,,,,,,,,,,,,,,,,,,,,,,328.3736269999936,328.38972099999955,328.9508751999965,328.8732692999911,328.9478334000014,328.9508751999965,328.9508751999965,328.9508751999965,330.1071232999966,Foils\scenes25.jpg,none,n,1.1419118999911007,None,,,,,,,,00032,001,2026-01-16_11h00.42.172,MST_test,2024.2.0,59.98918994597077,2026-01-16 11h00.50.921987 +0530,
99,0,100,o,1.1242236000107368,None,100,0,99,330.1230089000019,,,,,,,,,,,,,,,,,,,,,,,,,,,,,,,,,,,,,,,,,,,,,,,,,,330.1072121000034,330.1230089000019,330.6251508999994,330.60686629998963,330.623339999991,330.6251508999994,330.6251508999994,330.6251508999994,331.7568736999965,Scenes\065a.jpg,mid,o,1.1242236000107368,None,,,,,,,,00032,001,2026-01-16_11h00.42.172,MST_test,2024.2.0,59.98918994597077,2026-01-16 11h00.50.921987 +0530,
100,0,101,n,1.1922898000048008,None,101,0,100,331.7730806999898,,,,,,,,,,,,,,,,,,,,,,,,,,,,,,,,,,,,,,,,,,,,,,,,,,331.75697019998915,331.7730806999898,332.27639879999333,332.2565098999912,332.2741292999999,332.27639879999333,332.27639879999333,332.27639879999333,333.47362129999965,Scenes\175b.jpg,mid,n,1.1922898000048008,None,,,,,,,,00032,001,2026-01-16_11h00.42.172,MST_test,2024.2.0,59.98918994597077,2026-01-16 11h00.50.921987 +0530,
101,0,102,o,0.9955160999961663,None,102,0,101,333.48972679999133,,,,,,,,,,,,,,,,,,,,,,,,,,,,,,,,,,,,,,,,,,,,,,,,,,333.4737211000029,333.48972679999133,333.99348249999457,333.9732146000024,333.99127820000285,333.99348249999457,333.99348249999457,333.99348249999457,334.99026369999046,Scenes\086b.jpg,mid,o,0.9955160999961663,None,,,,,,,,00032,001,2026-01-16_11h00.42.172,MST_test,2024.2.0,59.98918994597077,2026-01-16 11h00.50.921987 +0530,
102,0,103,o,1.0323199999984354,None,103,0,102,335.0063977999962,,,,,,,,,,,,,,,,,,,,,,,,,,,,,,,,,,,,,,,,,,,,,,,,,,334.9903532000026,335.0063977999962,335.5094048000028,335.4903256999969,335.50660510000307,335.5094048000028,335.5094048000028,335.5094048000028,336.5568997999944,Scenes\028b.jpg,mid,o,1.0323199999984354,None,,,,,,,,00032,001,2026-01-16_11h00.42.172,MST_test,2024.2.0,59.98918994597077,2026-01-16 11h00.50.921987 +0530,
103,0,104,o,0.6512108000024455,None,104,0,103,336.5731117999967,,,,,,,,,,,,,,,,,,,,,,,,,,,,,,,,,,,,,,,,,,,,,,,,,,336.55698939999274,336.5731117999967,337.07357539999066,337.0566465000011,337.0634262999956,337.07357539999066,337.07357539999066,337.07357539999066,337.74030920000223,Scenes\042a.jpg,pre,o,0.6512108000024455,None,,,,,,,,00032,001,2026-01-16_11h00.42.172,MST_test,2024.2.0,59.98918994597077,2026-01-16 11h00.50.921987 +0530,
104,0,105,o,0.5643195000011474,None,105,0,104,337.7562018000026,,,,,,,,,,,,,,,,,,,,,,,,,,,,,,,,,,,,,,,,,,,,,,,,,,337.7404072999925,337.7562018000026,338.2568126999977,338.23996229999466,338.2498157999944,338.2568126999977,338.2568126999977,338.2568126999977,338.82371549999516,Objects\192b.jpg,post,o,0.5643195000011474,None,,,,,,,,00032,001,2026-01-16_11h00.42.172,MST_test,2024.2.0,59.98918994597077,2026-01-16 11h00.50.921987 +0530,
105,0,106,o,1.217917199988733,None,106,0,105,338.8398145999963,,,,,,,,,,,,,,,,,,,,,,,,,,,,,,,,,,,,,,,,,,,,,,,,,,338.82380980000016,338.8398145999963,339.3402922999958,339.3232677999913,339.3295883999963,339.3402922999958,339.3402922999958,339.3402922999958,340.57381049999094,Scenes\172a.jpg,post,o,1.217917199988733,None,,,,,,,,00032,001,2026-01-16_11h00.42.172,MST_test,2024.2.0,59.98918994597077,2026-01-16 11h00.50.921987 +0530,
106,0,107,s,1.4823276000097394,None,107,0,106,340.5897586999927,,,,,,,,,,,,,,,,,,,,,,,,,,,,,,,,,,,,,,,,,,,,,,,,,,340.5739040999906,340.5897586999927,341.0903067999898,341.0733651999908,341.0828642999986,341.0903067999898,341.0903067999898,341.0903067999898,342.5736879000033,Objects\019b.jpg,pre,s,1.4823276000097394,None,,,,,,,,00032,001,2026-01-16_11h00.42.172,MST_test,2024.2.0,59.98918994597077,2026-01-16 11h00.50.921987 +0530,
107,0,108,o,0.93063180000172,None,108,0,107,342.5897132999962,,,,,,,,,,,,,,,,,,,,,,,,,,,,,,,,,,,,,,,,,,,,,,,,,,342.5737788999977,342.5897132999962,343.0899466999981,343.0732713999896,343.0830074999976,343.0899466999981,343.0899466999981,343.0899466999981,344.0236720999965,Objects\134b.jpg,post,o,0.93063180000172,None,,,,,,,,00032,001,2026-01-16_11h00.42.172,MST_test,2024.2.0,59.98918994597077,2026-01-16 11h00.50.921987 +0530,
108,0,109,n,4.944911099999445,None,109,0,108,344.0397094999935,,,,,,,,,,,,,,,,,,,,,,,,,,,,,,,,,,,,,,,,,,,,,,,,,,344.0237601999979,344.0397094999935,344.5400509000028,344.52345680000144,344.5328986999957,344.5400509000028,344.5400509000028,344.5400509000028,349.4903514000034,Foils\049a.jpg,none,n,4.944911099999445,None,,,,,,,,00032,001,2026-01-16_11h00.42.172,MST_test,2024.2.0,59.98918994597077,2026-01-16 11h00.50.921987 +0530,
109,0,110,o,1.4140115000045625,None,110,0,109,349.5063627999916,,,,,,,,,,,,,,,,,,,,,,,,,,,,,,,,,,,,,,,,,,,,,,,,,,349.490440900001,349.5063627999916,350.00658689999545,349.99002389999805,349.99958750000224,350.00658689999545,350.00658689999545,350.00658689999545,351.4236991999933,Objects\172b.jpg,post,o,1.4140115000045625,None,,,,,,,,00032,001,2026-01-16_11h00.42.172,MST_test,2024.2.0,59.98918994597077,2026-01-16 11h00.50.921987 +0530,
110,0,111,o,1.049368299994967,None,111,0,110,351.4396637999889,,,,,,,,,,,,,,,,,,,,,,,,,,,,,,,,,,,,,,,,,,,,,,,,,,351.4237887999916,351.4396637999889,351.9402015999949,351.92335159999493,351.9298637000029,351.9402015999949,351.9402015999949,351.9402015999949,352.9904547999904,Scenes\137a.jpg,mid,o,1.049368299994967,None,,,,,,,,00032,001,2026-01-16_11h00.42.172,MST_test,2024.2.0,59.98918994597077,2026-01-16 11h00.50.921987 +0530,
111,0,112,o,1.2905945000093197,None,112,0,111,353.0066319999896,,,,,,,,,,,,,,,,,,,,,,,,,,,,,,,,,,,,,,,,,,,,,,,,,,352.9905829999916,353.0066319999896,,353.4914684999967,353.4946534999908,353.5067848999897,353.5067848999897,353.5067848999897,354.8068549000018,Objects\160a.jpg,pre,o,1.2905945000093197,None,,,,,,,,00032,001,2026-01-16_11h00.42.172,MST_test,2024.2.0,59.98918994597077,2026-01-16 11h00.50.921987 +0530,
112,0,113,o,0.57736670000304,None,113,0,112,354.82307050000236,,,,,,,,,,,,,,,,,,,,,,,,,,,,,,,,,,,,,,,,,,,,,,,,,,354.8069439999963,354.82307050000236,355.32319159999315,355.30662019999,355.3092214999924,355.32319159999315,355.32319159999315,355.32319159999315,355.90691890000016,Objects\038a.jpg,pre,o,0.57736670000304,None,,,,,,,,00032,001,2026-01-16_11h00.42.172,MST_test,2024.2.0,59.98918994597077,2026-01-16 11h00.50.921987 +0530,
113,0,114,o,1.8776958999951603,None,114,0,113,355.9230760999926,,,,,,,,,,,,,,,,,,,,,,,,,,,,,,,,,,,,,,,,,,,,,,,,,,355.90700880000077,355.9230760999926,356.4236075999943,356.40662449999945,356.40966160000244,356.4236075999943,356.4236075999943,356.4236075999943,358.3068215999956,Scenes\097a.jpg,pre,o,1.8776958999951603,None,,,,,,,,00032,001,2026-01-16_11h00.42.172,MST_test,2024.2.0,59.98918994597077,2026-01-16 11h00.50.921987 +0530,
114,0,115,s,0.9499553999921773,None,115,0,114,358.32308190000185,,,,,,,,,,,,,,,,,,,,,,,,,,,,,,,,,,,,,,,,,,,,,,,,,,358.3069103000016,358.32308190000185,358.8234453999903,358.80663269999786,358.8165683999978,358.8234453999903,358.8234453999903,358.8234453999903,359.7901966999925,Objects\037b.jpg,pre,s,0.9499553999921773,None,,,,,,,,00032,001,2026-01-16_11h00.42.172,MST_test,2024.2.0,59.98918994597077,2026-01-16 11h00.50.921987 +0530,
115,0,116,n,4.258073400007561,None,116,0,115,359.80631800000265,,,,,,,,,,,,,,,,,,,,,,,,,,,,,,,,,,,,,,,,,,,,,,,,,,359.79028679999465,359.80631800000265,360.30652779999946,360.29012809999404,360.29920709998987,360.30652779999946,360.30652779999946,360.30652779999946,364.573670400001,Objects\173b.jpg,mid,n,4.258073400007561,None,,,,,,,,00032,001,2026-01-16_11h00.42.172,MST_test,2024.2.0,59.98918994597077,2026-01-16 11h00.50.921987 +0530,
116,0,117,s,1.2267681999946944,None,117,0,116,364.5896820999915,,,,,,,,,,,,,,,,,,,,,,,,,,,,,,,,,,,,,,,,,,,,,,,,,,364.57377010000346,364.5896820999915,365.0899265999906,365.07326509999984,365.0762306999968,365.0899265999906,365.0899265999906,365.0899265999906,366.32384759999695,Objects\103a.jpg,post,s,1.2267681999946944,None,,,,,,,,00032,001,2026-01-16_11h00.42.172,MST_test,2024.2.0,59.98918994597077,2026-01-16 11h00.50.921987 +0530,
117,0,118,n,1.381383600004483,None,118,0,117,366.33973019999394,,,,,,,,,,,,,,,,,,,,,,,,,,,,,,,,,,,,,,,,,,,,,,,,,,366.32393719999527,366.33973019999394,366.8399531000032,366.82361349998973,366.82630639999115,366.8399531000032,366.8399531000032,366.8399531000032,368.22377779999806,Objects\168a.jpg,post,n,1.381383600004483,None,,,,,,,,00032,001,2026-01-16_11h00.42.172,MST_test,2024.2.0,59.98918994597077,2026-01-16 11h00.50.921987 +0530,
118,0,119,n,0.9210306000022683,None,119,0,118,368.239702699997,,,,,,,,,,,,,,,,,,,,,,,,,,,,,,,,,,,,,,,,,,,,,,,,,,368.22386969999934,368.239702699997,368.7399216999911,368.7232903999975,368.73469399999885,368.7399216999911,368.7399216999911,368.7399216999911,369.67370539999683,Foils\101b.jpg,none,n,0.9210306000022683,None,,,,,,,,00032,001,2026-01-16_11h00.42.172,MST_test,2024.2.0,59.98918994597077,2026-01-16 11h00.50.921987 +0530,
119,0,120,o,0.9349524999997811,None,120,0,119,369.68975520000095,,,,,,,,,,,,,,,,,,,,,,,,,,,,,,,,,,,,,,,,,,,,,,,,,,369.67379889999575,369.68975520000095,370.1901482999965,370.1733077999961,370.18269669999427,370.1901482999965,370.1901482999965,370.1901482999965,371.1404055000021,Scenes\122a.jpg,post,o,0.9349524999997811,None,,,,,,,,00032,001,2026-01-16_11h00.42.172,MST_test,2024.2.0,59.98918994597077,2026-01-16 11h00.50.921987 +0530,
120,0,121,n,2.331838999991305,None,121,0,120,371.15640149998944,,,,,,,,,,,,,,,,,,,,,,,,,,,,,,,,,,,,,,,,,,,,,,,,,,371.1404992000025,371.15640149998944,371.65676279999025,371.6399737000029,371.65069599999697,371.65676279999025,371.65676279999025,371.65676279999025,373.99023860000307,Foils\scenes20.jpg,none,n,2.331838999991305,None,,,,,,,,00032,001,2026-01-16_11h00.42.172,MST_test,2024.2.0,59.98918994597077,2026-01-16 11h00.50.921987 +0530,
121,0,122,s,1.2018425999995088,None,122,0,121,374.00637099999585,,,,,,,,,,,,,,,,,,,,,,,,,,,,,,,,,,,,,,,,,,,,,,,,,,373.9903364999918,374.00637099999585,374.50674679999065,374.48990509999567,374.5018720999942,374.50674679999065,374.50674679999065,374.50674679999065,375.72364599999855,Scenes\166b.jpg,post,s,1.2018425999995088,None,,,,,,,,00032,001,2026-01-16_11h00.42.172,MST_test,2024.2.0,59.98918994597077,2026-01-16 11h00.50.921987 +0530,
122,0,123,o,1.5253047000005608,None,123,0,122,375.7396529999969,,,,,,,,,,,,,,,,,,,,,,,,,,,,,,,,,,,,,,,,,,,,,,,,,,375.7237435999996,375.7396529999969,376.23999279999407,376.22338739999395,376.2359732999903,376.23999279999407,376.23999279999407,376.23999279999407,377.77370019999216,Scenes\111b.jpg,post,o,1.5253047000005608,None,,,,,,,,00032,001,2026-01-16_11h00.42.172,MST_test,2024.2.0,59.98918994597077,2026-01-16 11h00.50.921987 +0530,
123,0,124,o,0.9076543000119273,None,124,0,123,377.78980630000297,,,,,,,,,,,,,,,,,,,,,,,,,,,,,,,,,,,,,,,,,,,,,,,,,,377.77379069999733,377.78980630000297,378.29023149999557,378.27331079999567,378.2833025,378.29023149999557,378.29023149999557,378.29023149999557,379.2070626999921,Objects\130b.jpg,mid,o,0.9076543000119273,None,,,,,,,,00032,001,2026-01-16_11h00.42.172,MST_test,2024.2.0,59.98918994597077,2026-01-16 11h00.50.921987 +0530,
124,0,125,o,1.0343156000017188,None,125,0,124,379.22300499999255,,,,,,,,,,,,,,,,,,,,,,,,,,,,,,,,,,,,,,,,,,,,,,,,,,379.20715210000344,379.22300499999255,379.72313539999595,379.7064021999977,379.7162582000019,379.72313539999595,379.72313539999595,379.72313539999595,380.7738293000002,Objects\018b.jpg,pre,o,1.0343156000017188,None,,,,,,,,00032,001,2026-01-16_11h00.42.172,MST_test,2024.2.0,59.98918994597077,2026-01-16 11h00.50.921987 +0530,
125,0,126,s,1.1227788999967743,None,126,0,125,380.789644199991,,,,,,,,,,,,,,,,,,,,,,,,,,,,,,,,,,,,,,,,,,,,,,,,,,380.7739208999992,380.789644199991,381.28989469999215,381.2731958999939,381.28331949999847,381.28989469999215,381.28989469999215,381.28989469999215,382.4238919999916,Objects\170b.jpg,pre,s,1.1227788999967743,None,,,,,,,,00032,001,2026-01-16_11h00.42.172,MST_test,2024.2.0,59.98918994597077,2026-01-16 11h00.50.921987 +0530,
126,0,127,o,1.3210527000046568,None,127,0,126,382.4396285999974,,,,,,,,,,,,,,,,,,,,,,,,,,,,,,,,,,,,,,,,,,,,,,,,,,382.4239872999897,382.4396285999974,382.9400270999904,382.9232334999979,382.9374161000014,382.9400270999904,382.9400270999904,382.9400270999904,384.27369319999707,Scenes\124b.jpg,mid,o,1.3210527000046568,None,,,,,,,,00032,001,2026-01-16_11h00.42.172,MST_test,2024.2.0,59.98918994597077,2026-01-16 11h00.50.921987 +0530,
127,0,128,s,1.7038813999970444,None,128,0,127,384.289692499995,,,,,,,,,,,,,,,,,,,,,,,,,,,,,,,,,,,,,,,,,,,,,,,,,,384.27378989999124,384.289692499995,384.7900288999954,384.77321879999363,384.7823187999893,384.7900288999954,384.7900288999954,384.7900288999954,386.5067975999991,Foils\scenes6.jpg,none,s,1.7038813999970444,None,,,,,,,,00032,001,2026-01-16_11h00.42.172,MST_test,2024.2.0,59.98918994597077,2026-01-16 11h00.50.921987 +0530,
128,0,129,s,1.7979331999958958,None,129,0,128,386.52293819999613,,,,,,,,,,,,,,,,,,,,,,,,,,,,,,,,,,,,,,,,,,,,,,,,,,386.50688770000124,386.52293819999613,387.02342879999196,387.00662379999994,387.0163021999906,387.02342879999196,387.02342879999196,387.02342879999196,388.82374880000134,Objects\132b.jpg,post,s,1.7979331999958958,None,,,,,,,,00032,001,2026-01-16_11h00.42.172,MST_test,2024.2.0,59.98918994597077,2026-01-16 11h00.50.921987 +0530,
129,0,130,n,2.4646108000015374,None,130,0,129,388.8395703999995,,,,,,,,,,,,,,,,,,,,,,,,,,,,,,,,,,,,,,,,,,,,,,,,,,388.8238418999972,388.8395703999995,389.3400091999938,389.32320769999933,389.3320426999999,389.3400091999938,389.3400091999938,389.3400091999938,391.80713200000173,Foils\scenes19.jpg,none,n,2.4646108000015374,None,,,,,,,,00032,001,2026-01-16_11h00.42.172,MST_test,2024.2.0,59.98918994597077,2026-01-16 11h00.50.921987 +0530,
130,0,131,n,0.897332100008498,None,131,0,130,391.82300119999854,,,,,,,,,,,,,,,,,,,,,,,,,,,,,,,,,,,,,,,,,,,,,,,,,,391.80722059999243,391.82300119999854,392.3232785,392.306396400003,392.3168125999946,392.3232785,392.3232785,392.3232785,393.2235789999977,Foils\033a.jpg,none,n,0.897332100008498,None,,,,,,,,00032,001,2026-01-16_11h00.42.172,MST_test,2024.2.0,59.98918994597077,2026-01-16 11h00.50.921987 +0530,
131,0,132,s,1.016847199993208,None,132,0,131,393.23960760000045,,,,,,,,,,,,,,,,,,,,,,,,,,,,,,,,,,,,,,,,,,,,,,,,,,393.22366849999526,393.23960760000045,393.7397716999985,393.7232223000028,393.7258199999924,393.7397716999985,393.7397716999985,393.7397716999985,394.77349209999375,Objects\116a.jpg,mid,s,1.016847199993208,None,,,,,,,,00032,001,2026-01-16_11h00.42.172,MST_test,2024.2.0,59.98918994597077,2026-01-16 11h00.50.921987 +0530,
132,0,133,s,1.4029607999982545,None,133,0,132,394.78964519999863,,,,,,,,,,,,,,,,,,,,,,,,,,,,,,,,,,,,,,,,,,,,,,,,,,394.7735831000027,394.78964519999863,395.2897998999979,395.2731453000015,395.2825710999896,395.2897998999979,395.2897998999979,395.2897998999979,396.7069078999921,Objects\049b.jpg,mid,s,1.4029607999982545,None,,,,,,,,00032,001,2026-01-16_11h00.42.172,MST_test,2024.2.0,59.98918994597077,2026-01-16 11h00.50.921987 +0530,
133,0,134,s,0.86994789999153,None,134,0,133,396.72307359999104,,,,,,,,,,,,,,,,,,,,,,,,,,,,,,,,,,,,,,,,,,,,,,,,,,396.70699869999953,396.72307359999104,397.2232765999943,397.2064081999997,397.20894349999435,397.2232765999943,397.2232765999943,397.2232765999943,398.1068807999982,Objects\149a.jpg,pre,s,0.86994789999153,None,,,,,,,,00032,001,2026-01-16_11h00.42.172,MST_test,2024.2.0,59.98918994597077,2026-01-16 11h00.50.921987 +0530,
134,0,135,o,0.8383183999976609,None,135,0,134,398.12295849999646,,,,,,,,,,,,,,,,,,,,,,,,,,,,,,,,,,,,,,,,,,,,,,,,,,398.1069744999986,398.12295849999646,398.62322699998913,398.6064256999962,398.6089212999941,398.62322699998913,398.62322699998913,398.62322699998913,399.473533899989,Objects\156a.jpg,pre,o,0.8383183999976609,None,,,,,,,,00032,001,2026-01-16_11h00.42.172,MST_test,2024.2.0,59.98918994597077,2026-01-16 11h00.50.921987 +0530,
135,0,136,o,1.3034146999998484,None,136,0,135,399.4895800999948,,,,,,,,,,,,,,,,,,,,,,,,,,,,,,,,,,,,,,,,,,,,,,,,,,399.4736228999973,399.4895800999948,399.98979829999735,399.9732021999953,399.9757802999957,399.98979829999735,399.98979829999735,399.98979829999735,401.3067408999923,Objects\003a.jpg,mid,o,1.3034146999998484,None,,,,,,,,00032,001,2026-01-16_11h00.42.172,MST_test,2024.2.0,59.98918994597077,2026-01-16 11h00.50.921987 +0530,
136,0,137,s,3.846059300005436,None,137,0,136,401.3229743999982,,,,,,,,,,,,,,,,,,,,,,,,,,,,,,,,,,,,,,,,,,,,,,,,,,401.3068302999891,401.3229743999982,401.82348880000063,401.80630499999097,401.816319199992,401.82348880000063,401.82348880000063,401.82348880000063,405.6736297000025,Scenes\090a.jpg,pre,s,3.846059300005436,None,,,,,,,,00032,001,2026-01-16_11h00.42.172,MST_test,2024.2.0,59.98918994597077,2026-01-16 11h00.50.921987 +0530,
137,0,138,o,1.0151605999999447,None,138,0,137,405.6896148999949,,,,,,,,,,,,,,,,,,,,,,,,,,,,,,,,,,,,,,,,,,,,,,,,,,405.6737237999914,405.6896148999949,406.19021369999973,406.1732129000011,406.1822575999977,406.19021369999973,406.19021369999973,406.19021369999973,407.20696369999496,Scenes\106a.jpg,pre,o,1.0151605999999447,None,,,,,,,,00032,001,2026-01-16_11h00.42.172,MST_test,2024.2.0,59.98918994597077,2026-01-16 11h00.50.921987 +0530,
138,0,139,o,0.8014504000020679,None,139,0,138,407.22294140000304,,,,,,,,,,,,,,,,,,,,,,,,,,,,,,,,,,,,,,,,,,,,,,,,,,407.2070590999938,407.22294140000304,407.7233957999997,407.7064163000032,407.7166517000005,407.7233957999997,407.7233957999997,407.7233957999997,408.54019269999117,Objects\083b.jpg,pre,o,0.8014504000020679,None,,,,,,,,00032,001,2026-01-16_11h00.42.172,MST_test,2024.2.0,59.98918994597077,2026-01-16 11h00.50.921987 +0530,
139,0,140,o,0.9649231000075815,None,140,0,139,408.5561699999962,,,,,,,,,,,,,,,,,,,,,,,,,,,,,,,,,,,,,,,,,,,,,,,,,,408.5402860999893,408.5561699999962,409.0565701000014,409.0400163000013,409.0429660999944,409.0565701000014,409.0565701000014,409.0565701000014,410.0235825999989,Objects\118a.jpg,mid,o,0.9649231000075815,None,,,,,,,,00032,001,2026-01-16_11h00.42.172,MST_test,2024.2.0,59.98918994597077,2026-01-16 11h00.50.921987 +0530,
140,0,141,s,2.2644900000013877,None,141,0,140,410.03958650000277,,,,,,,,,,,,,,,,,,,,,,,,,,,,,,,,,,,,,,,,,,,,,,,,,,410.02367189999495,410.03958650000277,410.5401598000026,410.52321459999075,410.5358564999915,410.5401598000026,410.5401598000026,410.5401598000026,412.80691410000145,Scenes\091b.jpg,pre,s,2.2644900000013877,None,,,,,,,,00032,001,2026-01-16_11h00.42.172,MST_test,2024.2.0,59.98918994597077,2026-01-16 11h00.50.921987 +0530,
141,0,142,s,1.4816399999981513,None,142,0,141,412.8229144999932,,,,,,,,,,,,,,,,,,,,,,,,,,,,,,,,,,,,,,,,,,,,,,,,,,412.8070078000019,412.8229144999932,413.3235296999919,413.3065557999944,413.31921400000283,413.3235296999919,413.3235296999919,413.3235296999919,414.80676900000253,Scenes\050b.jpg,post,s,1.4816399999981513,None,,,,,,,,00032,001,2026-01-16_11h00.42.172,MST_test,2024.2.0,59.98918994597077,2026-01-16 11h00.50.921987 +0530,
142,0,143,o,1.0179340000031516,None,143,0,142,414.8229757999943,,,,,,,,,,,,,,,,,,,,,,,,,,,,,,,,,,,,,,,,,,,,,,,,,,414.8068590999901,414.8229757999943,415.3236512000003,415.3066295000026,415.3097063000023,415.3236512000003,415.3236512000003,415.3236512000003,416.35679239999445,Objects\117a.jpg,pre,o,1.0179340000031516,None,,,,,,,,00032,001,2026-01-16_11h00.42.172,MST_test,2024.2.0,59.98918994597077,2026-01-16 11h00.50.921987 +0530,
143,0,144,n,1.6277862999995705,None,144,0,143,416.37297599999874,,,,,,,,,,,,,,,,,,,,,,,,,,,,,,,,,,,,,,,,,,,,,,,,,,416.35688929999014,416.37297599999874,416.8731931999937,416.85649629999534,416.86583619999874,416.8731931999937,416.8731931999937,416.8731931999937,418.5067376999941,Foils\113a.jpg,none,n,1.6277862999995705,None,,,,,,,,00032,001,2026-01-16_11h00.42.172,MST_test,2024.2.0,59.98918994597077,2026-01-16 11h00.50.921987 +0530,
144,0,145,o,3.444960600012564,None,145,0,144,418.5229812999896,,,,,,,,,,,,,,,,,,,,,,,,,,,,,,,,,,,,,,,,,,,,,,,,,,418.5068268999894,418.5229812999896,419.02369489999546,419.0064100000018,419.02171079999243,419.02369489999546,419.02369489999546,419.02369489999546,422.47347369999625,Scenes\068b.jpg,pre,o,3.444960600012564,None,,,,,,,,00032,001,2026-01-16_11h00.42.172,MST_test,2024.2.0,59.98918994597077,2026-01-16 11h00.50.921987 +0530,
145,0,146,s,1.0704409000027226,None,146,0,145,422.4896915999998,,,,,,,,,,,,,,,,,,,,,,,,,,,,,,,,,,,,,,,,,,,,,,,,,,422.4735694999981,422.4896915999998,422.99019379999663,422.9733439999982,422.9861865999992,422.99019379999663,422.99019379999663,422.99019379999663,424.0735547999939,Scenes\173b.jpg,mid,s,1.0704409000027226,None,,,,,,,,00032,001,2026-01-16_11h00.42.172,MST_test,2024.2.0,59.98918994597077,2026-01-16 11h00.50.921987 +0530,
146,0,147,n,1.0712400999909732,None,147,0,146,424.089633999989,,,,,,,,,,,,,,,,,,,,,,,,,,,,,,,,,,,,,,,,,,,,,,,,,,424.0736451999983,424.089633999989,424.59005149999575,424.57326179998927,424.58326669999224,424.59005149999575,424.59005149999575,424.59005149999575,425.6737184999947,Foils\082a.jpg,none,n,1.0712400999909732,None,,,,,,,,00032,001,2026-01-16_11h00.42.172,MST_test,2024.2.0,59.98918994597077,2026-01-16 11h00.50.921987 +0530,
147,0,148,s,1.2478222000063397,None,148,0,147,425.68973279999045,,,,,,,,,,,,,,,,,,,,,,,,,,,,,,,,,,,,,,,,,,,,,,,,,,425.67382240000006,425.68973279999045,426.1901657999988,426.173578499991,426.180340299994,426.1901657999988,426.1901657999988,426.1901657999988,427.44030249999196,Scenes\169a.jpg,post,s,1.2478222000063397,None,,,,,,,,00032,001,2026-01-16_11h00.42.172,MST_test,2024.2.0,59.98918994597077,2026-01-16 11h00.50.921987 +0530,
148,0,149,o,0.9046256000001449,None,149,0,148,427.45619479999004,,,,,,,,,,,,,,,,,,,,,,,,,,,,,,,,,,,,,,,,,,,,,,,,,,427.4403924999933,427.45619479999004,427.9566712999949,427.9399803999986,427.9428251999925,427.9566712999949,427.9566712999949,427.9566712999949,428.87359709999873,Objects\167a.jpg,pre,o,0.9046256000001449,None,,,,,,,,00032,001,2026-01-16_11h00.42.172,MST_test,2024.2.0,59.98918994597077,2026-01-16 11h00.50.921987 +0530,
149,0,150,o,0.8314967000042088,None,150,0,149,428.88965089998965,,,,,,,,,,,,,,,,,,,,,,,,,,,,,,,,,,,,,,,,,,,,,,,,,,428.8736887999985,428.88965089998965,429.3898820000031,429.373351199989,429.3848203999951,429.3898820000031,429.3898820000031,429.3898820000031,430.22354009999253,Objects\112b.jpg,pre,o,0.8314967000042088,None,,,,,,,,00032,001,2026-01-16_11h00.42.172,MST_test,2024.2.0,59.98918994597077,2026-01-16 11h00.50.921987 +0530,
,,,,,,,,,,,,,,,,,,,,,,,,,,,,,,,,,,,,,,,,,,,,,,,,,,,,,,,,,,,,,,,,,,,,,,,,,430.2236045000027,430.2397692999948,430.2397692999948,432.07335929998953,space,1.829776500002481,None,00032,001,2026-01-16_11h00.42.172,MST_test,2024.2.0,59.98918994597077,2026-01-16 11h00.50.921987 +0530,
