Sl_no,image_path,thisN,thisTrialN,thisRepN,key_resp_5.keys,key_resp_7.keys,key_resp_7.rt,key_resp_7.duration,key_resp_5.rt,key_resp_5.duration,key_resp_9.keys,key_resp_8.keys,key_resp_8.rt,key_resp_8.duration,key_resp_9.rt,key_resp_9.duration,practice.thisRepN,practice.thisTrialN,practice.thisN,trials.thisRepN,trials.thisTrialN,trials.thisN,thisRow.t,notes,welcome_page.started,text.started,key_resp.started,welcome_page.stopped,key_resp.keys,key_resp.rt,key_resp.duration,instructions.started,ins.started,key_resp_2.started,instructions.stopped,key_resp_2.keys,key_resp_2.rt,key_resp_2.duration,instructions_2.started,text_10.started,key_resp_10.started,instructions_2.stopped,key_resp_10.keys,key_resp_10.rt,key_resp_10.duration,objects_only_instruction.started,text_3.started,key_resp_3.started,objects_only_instruction.stopped,key_resp_3.keys,key_resp_3.rt,key_resp_3.duration,ISI.started,text_4.started,ISI.stopped,practice_block.started,image.started,text_5.started,key_resp_5.started,practice_block.stopped,practice.key_resp_5.keys,indoor_outdoor.started,text_7.started,key_resp_7.started,indoor_outdoor.stopped,practice.key_resp_7.keys,practice.key_resp_7.rt,practice.key_resp_7.duration,text_4.stopped,practice.key_resp_5.rt,practice.key_resp_5.duration,practice_to_main.started,text_2.started,key_resp_4.started,practice_to_main.stopped,key_resp_4.keys,key_resp_4.rt,key_resp_4.duration,objects.started,image_2.started,text_9.started,key_resp_9.started,objects.stopped,trials.key_resp_9.keys,encoding_task.started,text_8.started,key_resp_8.started,encoding_task.stopped,trials.key_resp_8.keys,trials.key_resp_8.rt,trials.key_resp_8.duration,trials.key_resp_9.rt,trials.key_resp_9.duration,image_2.stopped,text_9.stopped,key_resp_9.stopped,end_experiment.started,text_6.started,key_resp_6.started,end_experiment.stopped,key_resp_6.keys,key_resp_6.rt,key_resp_6.duration,list_of_stimuli,encoding_task_accuracy,participant,session,date,expName,psychopyVersion,frameRate,expStart,
,,,,,,,,,,,,,,,,,,,,,,,,,0.0017857999991974793,0.003938199999538483,0.003938199999538483,13.621115899999495,space,13.609652600000118,None,,,,,,,,,,,,,,,,,,,,,,,,,,,,,,,,,,,,,,,,,,,,,,,,,,,,,,,,,,,,,,,,,,,,,,,,,,,00030,001,2025-11-18_16h15.07.638,MST_task,2024.2.0,59.86955621096014,2025-11-18 16h15.14.703549 +0530,
,,,,,,,,,,,,,,,,,,,,,,,,,,,,,,,,13.621179999999185,13.63510149999911,13.63510149999911,31.50043199999982,space,17.849876700000095,None,,,,,,,,,,,,,,,,,,,,,,,,,,,,,,,,,,,,,,,,,,,,,,,,,,,,,,,,,,,,,,,,,,,,00030,001,2025-11-18_16h15.07.638,MST_task,2024.2.0,59.86955621096014,2025-11-18 16h15.14.703549 +0530,
,,,,,,,,,,,,,,,,,,,,,,,,,,,,,,,,,,,,,,,31.50055169999996,31.51458349999939,31.51458349999939,46.85015529999964,space,15.321804600000178,None,,,,,,,,,,,,,,,,,,,,,,,,,,,,,,,,,,,,,,,,,,,,,,,,,,,,,,,,,,,,,00030,001,2025-11-18_16h15.07.638,MST_task,2024.2.0,59.86955621096014,2025-11-18 16h15.14.703549 +0530,
,,,,,,,,,,,,,,,,,,,,,,,,,,,,,,,,,,,,,,,,,,,,,,46.85027999999966,46.86445789999925,46.86445789999925,64.51704859999973,space,17.64406830000007,None,,,,,,,,,,,,,,,,,,,,,,,,,,,,,,,,,,,,,,,,,,,,,,,,,,,,,,00030,001,2025-11-18_16h15.07.638,MST_task,2024.2.0,59.86955621096014,2025-11-18 16h15.14.703549 +0530,
7,practice_images/166a.jpg,0,0,1,None,f,1.877581800000371,None,,,,,,,,,1,0,0,,,,64.54591559999972,,,,,,,,,,,,,,,,,,,,,,,,,,,,,,64.54332749999958,64.54591559999972,65.03106679999928,65.0490719999998,65.06050340000002,65.06050340000002,65.06050340000002,68.03169659999912,None,68.03730179999911,68.0476423,68.0476423,69.93299649999972,f,1.877581800000371,None,,,,,,,,,,,,,,,,,,,,,,,,,,,,,,,,,,,,,,00030,001,2025-11-18_16h15.07.638,MST_task,2024.2.0,59.86955621096014,2025-11-18 16h15.14.703549 +0530,
3,practice_images/037a.jpg,1,1,1,f,None,,,2.0742035000002943,0.22350689999984752,,,,,,,1,1,1,,,,69.94788840000001,,,,,,,,,,,,,,,,,,,,,,,,,,,,,,69.93335329999991,69.94788840000001,70.43209699999989,70.4481868999992,70.45053219999954,70.45053219999954,70.45053219999954,73.44852869999977,f,73.44875209999918,,,73.44883359999949,None,,,70.45053219999954,2.0742035000002943,0.22350689999984752,,,,,,,,,,,,,,,,,,,,,,,,,,,,,,,,,,,00030,001,2025-11-18_16h15.07.638,MST_task,2024.2.0,59.86955621096014,2025-11-18 16h15.14.703549 +0530,
8,practice_images/178a.jpg,2,2,1,None,f,1.208688699999584,None,,,,,,,,,1,2,2,,,,73.46468779999941,,,,,,,,,,,,,,,,,,,,,,,,,,,,,,73.44912509999995,73.46468779999941,73.94905279999966,73.96461249999993,73.9671288999998,73.9671288999998,73.9671288999998,76.96511199999986,None,76.96524109999973,76.98110259999976,76.98110259999976,78.19964729999992,f,1.208688699999584,None,73.9671288999998,,,,,,,,,,,,,,,,,,,,,,,,,,,,,,,,,,,,,00030,001,2025-11-18_16h15.07.638,MST_task,2024.2.0,59.86955621096014,2025-11-18 16h15.14.703549 +0530,
4,practice_images/002b.jpg,3,3,1,None,j,0.7778754000000845,None,,,,,,,,,1,3,3,,,,78.21449159999975,,,,,,,,,,,,,,,,,,,,,,,,,,,,,,78.19999969999935,78.21449159999975,78.69881669999995,78.7155845999996,78.71793529999923,78.71793529999923,78.71793529999923,81.71513399999913,None,81.71528289999969,81.73111539999991,81.73111539999991,82.51655469999969,j,0.7778754000000845,None,78.71793529999923,,,,,,,,,,,,,,,,,,,,,,,,,,,,,,,,,,,,,00030,001,2025-11-18_16h15.07.638,MST_task,2024.2.0,59.86955621096014,2025-11-18 16h15.14.703549 +0530,
5,practice_images/139a.jpg,4,4,1,j,None,,,2.890969099999893,None,,,,,,,1,4,4,,,,82.53108779999911,,,,,,,,,,,,,,,,,,,,,,,,,,,,,,82.51692479999929,82.53108779999911,83.01581219999935,83.03122879999955,83.03362109999944,83.03362109999944,83.03362109999944,86.03160729999945,j,86.03176149999945,,,86.03186199999982,None,,,83.03362109999944,2.890969099999893,None,,,,,,,,,,,,,,,,,,,,,,,,,,,,,,,,,,,00030,001,2025-11-18_16h15.07.638,MST_task,2024.2.0,59.86955621096014,2025-11-18 16h15.14.703549 +0530,
1,practice_images/013a.jpg,5,5,1,None,j,4.0563608000002205,None,,,,,,,,,1,5,5,,,,86.04788819999976,,,,,,,,,,,,,,,,,,,,,,,,,,,,,,86.0321301999993,86.04788819999976,86.53217139999924,86.5501334999999,86.55255679999937,86.55255679999937,86.55255679999937,89.54861619999974,None,89.5556033999992,89.56437199999982,89.56437199999982,93.63339229999929,j,4.0563608000002205,None,86.55255679999937,,,,,,,,,,,,,,,,,,,,,,,,,,,,,,,,,,,,,00030,001,2025-11-18_16h15.07.638,MST_task,2024.2.0,59.86955621096014,2025-11-18 16h15.14.703549 +0530,
9,practice_images/180a.jpg,6,6,1,j,None,,,2.3312065999998595,0.2231668999993417,,,,,,,1,6,6,,,,93.64786219999951,,,,,,,,,,,,,,,,,,,,,,,,,,,,,,93.6337567999999,93.64786219999951,94.13235589999931,94.16749439999967,94.16999119999946,94.16999119999946,94.16999119999946,97.14850869999918,j,97.14866359999996,,,97.14872809999997,None,,,94.16999119999946,2.3312065999998595,0.2231668999993417,,,,,,,,,,,,,,,,,,,,,,,,,,,,,,,,,,,00030,001,2025-11-18_16h15.07.638,MST_task,2024.2.0,59.86955621096014,2025-11-18 16h15.14.703549 +0530,
10,practice_images/182a.jpg,7,7,1,f,None,,,2.7702668000001722,0.20003429999997024,,,,,,,1,7,7,,,,97.1645510999997,,,,,,,,,,,,,,,,,,,,,,,,,,,,,,97.14915849999943,97.1645510999997,97.64887219999946,97.66432499999974,97.66673149999951,97.66673149999951,97.66673149999951,100.66486499999974,f,100.66491379999934,,,100.66492879999987,None,,,97.66673149999951,2.7702668000001722,0.20003429999997024,,,,,,,,,,,,,,,,,,,,,,,,,,,,,,,,,,,00030,001,2025-11-18_16h15.07.638,MST_task,2024.2.0,59.86955621096014,2025-11-18 16h15.14.703549 +0530,
6,practice_images/158a.jpg,8,8,1,j,None,,,1.9412474999999176,0.17596129999947152,,,,,,,1,8,8,,,,100.68084289999933,,,,,,,,,,,,,,,,,,,,,,,,,,,,,,100.66500439999982,100.68084289999933,101.16583729999911,101.18083859999933,101.18322399999943,101.18322399999943,101.18322399999943,104.16515829999935,j,104.16531189999932,,,104.16537549999975,None,,,101.18322399999943,1.9412474999999176,0.17596129999947152,,,,,,,,,,,,,,,,,,,,,,,,,,,,,,,,,,,00030,001,2025-11-18_16h15.07.638,MST_task,2024.2.0,59.86955621096014,2025-11-18 16h15.14.703549 +0530,
2,practice_images/031a.jpg,9,9,1,j,None,,,2.6579240999999456,0.18430830000033893,,,,,,,1,9,9,,,,104.1811018999997,,,,,,,,,,,,,,,,,,,,,,,,,,,,,,104.16568909999933,104.1811018999997,104.66569439999967,104.68010139999933,104.6825386999999,104.6825386999999,104.6825386999999,107.68179039999995,j,107.6819416999997,,,107.68200419999994,None,,,104.6825386999999,2.6579240999999456,0.18430830000033893,,,,,,,,,,,,,,,,,,,,,,,,,,,,,,,,,,,00030,001,2025-11-18_16h15.07.638,MST_task,2024.2.0,59.86955621096014,2025-11-18 16h15.14.703549 +0530,
,,,,,,,,,,,,,,,,,,,,,,,,,,,,,,,,,,,,,,,,,,,,,,,,,,,,,,,,,,,,,,,,,,,,,,,,107.6821946,107.69774319999942,107.69774319999942,187.28300769999987,space,79.57139740000002,None,,,,,,,,,,,,,,,,,,,,,,,,,,,,00030,001,2025-11-18_16h15.07.638,MST_task,2024.2.0,59.86955621096014,2025-11-18 16h15.14.703549 +0530,
,Scenes\182a.jpg,0,0,1,,,,,,,None,j,0.4384405999999217,None,,,,,,1,0,0,187.29788429999917,,,,,,,,,,,,,,,,,,,,,,,,,,,,,,187.28628299999946,187.29788429999917,187.7826557999997,,,,,,,,,,,,,,187.81616029999986,,,,,,,,,,187.8117743999992,187.81616029999986,187.81616029999986,187.81616029999986,190.7987891999992,None,190.80473699999948,190.8147803999991,190.8147803999991,191.26678989999982,j,0.4384405999999217,None,,,,,,,,,,,,,,,00030,001,2025-11-18_16h15.07.638,MST_task,2024.2.0,59.86955621096014,2025-11-18 16h15.14.703549 +0530,
,Scenes\134a.jpg,1,0,2,,,,,,,j,None,,,1.3366079999996145,0.15203510000083043,,,,2,0,1,191.28115139999954,,,,,,,,,,,,,,,,,,,,,,,,,,,,,,191.26710869999988,191.28115139999954,191.76567069999965,,,,,,,,,,,,,,191.79595959999915,,,,,,,,,,191.79270599999927,191.79595959999915,191.79595959999915,191.79595959999915,194.78167349999967,j,194.7820303999997,,,194.78210799999943,None,,,1.3366079999996145,0.15203510000083043,,,,,,,,,,,,,00030,001,2025-11-18_16h15.07.638,MST_task,2024.2.0,59.86955621096014,2025-11-18 16h15.14.703549 +0530,
,Scenes\015a.jpg,2,0,3,,,,,,,None,j,0.20193599999947764,None,,,,,,3,0,2,194.79794969999966,,,,,,,,,,,,,,,,,,,,,,,,,,,,,,194.78256379999948,194.79794969999966,195.28227849999985,,,,,,,,,,,,,,195.31515969999964,,,,,,,,,,195.31179219999922,195.31515969999964,195.31515969999964,195.31515969999964,198.29863299999943,None,198.29893439999978,198.31461909999962,198.31461909999962,198.53337209999972,j,0.20193599999947764,None,,,,,,,,,,,,,,,00030,001,2025-11-18_16h15.07.638,MST_task,2024.2.0,59.86955621096014,2025-11-18 16h15.14.703549 +0530,
,Scenes\001a.jpg,3,0,4,,,,,,,f,None,,,2.414672099999734,0.1841335999997682,,,,4,0,3,198.5479249,,,,,,,,,,,,,,,,,,,,,,,,,,,,,,198.5338744999999,198.5479249,199.03252709999924,,,,,,,,,,,,,,199.06237729999975,,,,,,,,,,199.05910649999987,199.06237729999975,199.06237729999975,199.06237729999975,202.04845159999968,f,202.04860579999968,,,202.04865579999932,None,,,2.414672099999734,0.1841335999997682,,,,,,,,,,,,,00030,001,2025-11-18_16h15.07.638,MST_task,2024.2.0,59.86955621096014,2025-11-18 16h15.14.703549 +0530,
,Scenes\014a.jpg,4,0,5,,,,,,,f,None,,,2.4664628999998968,0.22323249999953987,,,,5,0,4,202.06444639999972,,,,,,,,,,,,,,,,,,,,,,,,,,,,,,202.0490491999999,202.06444639999972,202.54919119999977,,,,,,,,,,,,,,202.57107989999986,,,,,,,,,,202.5684440999994,202.57107989999986,202.57107989999986,202.57107989999986,205.5653360999995,f,205.56551319999926,,,205.56557109999994,None,,,2.4664628999998968,0.22323249999953987,,,,,,,,,,,,,00030,001,2025-11-18_16h15.07.638,MST_task,2024.2.0,59.86955621096014,2025-11-18 16h15.14.703549 +0530,
,Scenes\113a.jpg,5,0,6,,,,,,,None,j,0.4827238000007128,None,,,,,,6,0,5,205.58117329999914,,,,,,,,,,,,,,,,,,,,,,,,,,,,,,205.56587629999922,205.58117329999914,206.06573239999943,,,,,,,,,,,,,,206.08469369999966,,,,,,,,,,206.0818233,206.08469369999966,206.08469369999966,206.08469369999966,209.0816653999991,None,209.08184729999994,209.09790259999954,209.09790259999954,209.58263089999946,j,0.4827238000007128,None,,,,,,,,,,,,,,,00030,001,2025-11-18_16h15.07.638,MST_task,2024.2.0,59.86955621096014,2025-11-18 16h15.14.703549 +0530,
,Scenes\139a.jpg,6,0,7,,,,,,,j,None,,,1.8928777000000991,0.16816769999968528,,,,7,0,6,209.5979400999995,,,,,,,,,,,,,,,,,,,,,,,,,,,,,,209.58297329999914,209.5979400999995,210.08244879999984,,,,,,,,,,,,,,210.1040254999998,,,,,,,,,,210.1009282999994,210.1040254999998,210.1040254999998,210.1040254999998,213.09890359999918,j,213.09908019999966,,,213.0991357999992,None,,,1.8928777000000991,0.16816769999968528,,,,,,,,,,,,,00030,001,2025-11-18_16h15.07.638,MST_task,2024.2.0,59.86955621096014,2025-11-18 16h15.14.703549 +0530,
,Objects\059a.jpg,7,0,8,,,,,,,None,j,0.3174415000003137,None,,,,,,8,0,7,213.11459819999982,,,,,,,,,,,,,,,,,,,,,,,,,,,,,,213.09950809999918,213.11459819999982,213.5992583999996,,,,,,,,,,,,,,213.63148879999972,,,,,,,,,,213.62829199999942,213.63148879999972,213.63148879999972,213.63148879999972,216.6152835999992,None,216.62286779999977,216.63105859999996,216.63105859999996,216.95048309999947,j,0.3174415000003137,None,,,,,,,,,,,,,,,00030,001,2025-11-18_16h15.07.638,MST_task,2024.2.0,59.86955621096014,2025-11-18 16h15.14.703549 +0530,
,Objects\021a.jpg,8,0,9,,,,,,,j,None,,,2.3779560000002675,0.16057590000036726,,,,9,0,8,216.9646831,,,,,,,,,,,,,,,,,,,,,,,,,,,,,,216.95098959999996,216.9646831,217.44916130000001,,,,,,,,,,,,,,217.46682859999964,,,,,,,,,,217.46425349999936,217.46682859999964,217.46682859999964,217.46682859999964,220.46515459999955,j,220.4652643999998,,,220.46530899999925,None,,,2.3779560000002675,0.16057590000036726,,,,,,,,,,,,,00030,001,2025-11-18_16h15.07.638,MST_task,2024.2.0,59.86955621096014,2025-11-18 16h15.14.703549 +0530,
,Objects\051a.jpg,9,0,10,,,,,,,f,None,,,2.0044317000001683,0.21532550000029005,,,,10,0,9,220.48115739999957,,,,,,,,,,,,,,,,,,,,,,,,,,,,,,220.46548109999912,220.48115739999957,220.96567399999913,,,,,,,,,,,,,,220.9847566999997,,,,,,,,,,220.98223439999947,220.9847566999997,220.9847566999997,220.9847566999997,223.98166369999944,f,223.98183439999957,,,223.9818938999997,None,,,2.0044317000001683,0.21532550000029005,,,,,,,,,,,,,00030,001,2025-11-18_16h15.07.638,MST_task,2024.2.0,59.86955621096014,2025-11-18 16h15.14.703549 +0530,
,Objects\141a.jpg,10,0,11,,,,,,,None,j,0.16181780000079016,None,,,,,,11,0,10,223.99790239999948,,,,,,,,,,,,,,,,,,,,,,,,,,,,,,223.98223379999945,223.99790239999948,224.48205679999955,,,,,,,,,,,,,,224.5004661999992,,,,,,,,,,224.4979489999996,224.5004661999992,224.5004661999992,224.5004661999992,227.49890099999993,None,227.49907469999926,227.51491569999962,227.51491569999962,227.68352649999997,j,0.16181780000079016,None,,,,,,,,,,,,,,,00030,001,2025-11-18_16h15.07.638,MST_task,2024.2.0,59.86955621096014,2025-11-18 16h15.14.703549 +0530,
,Objects\067a.jpg,11,0,12,,,,,,,None,f,1.0300373000000036,None,,,,,,12,0,11,227.6979571999991,,,,,,,,,,,,,,,,,,,,,,,,,,,,,,227.68389409999963,227.6979571999991,228.18276349999996,,,,,,,,,,,,,,228.20217129999946,,,,,,,,,,228.19942149999952,228.20217129999946,228.20217129999946,228.20217129999946,231.19860659999995,None,231.19875409999986,231.21477559999948,231.21477559999948,232.2499287999999,f,1.0300373000000036,None,,,,,,,,,,,,,,,00030,001,2025-11-18_16h15.07.638,MST_task,2024.2.0,59.86955621096014,2025-11-18 16h15.14.703549 +0530,
,Objects\124a.jpg,12,0,13,,,,,,,j,None,,,1.3988687000000937,0.17605820000062522,,,,13,0,12,232.26457719999962,,,,,,,,,,,,,,,,,,,,,,,,,,,,,,232.25026669999988,232.26457719999962,232.74988539999958,,,,,,,,,,,,,,232.76553849999982,,,,,,,,,,232.76256229999944,232.76553849999982,232.76553849999982,232.76553849999982,235.75034919999962,j,235.75053109999953,,,235.75059129999954,None,,,1.3988687000000937,0.17605820000062522,235.7647492999995,235.7647492999995,235.7647492999995,,,,,,,,,,00030,001,2025-11-18_16h15.07.638,MST_task,2024.2.0,59.86955621096014,2025-11-18 16h15.14.703549 +0530,
,Objects\052a.jpg,13,0,14,,,,,,,None,f,0.2756107000004704,None,,,,,,14,0,13,235.7647492999995,,,,,,,,,,,,,,,,,,,,,,,,,,,,,,235.75103939999917,235.7647492999995,236.2492155,,,,,,,,,,,,,,236.26870279999912,,,,,,,,,,236.26614249999966,236.26870279999912,236.26870279999912,236.26870279999912,239.26536849999957,None,239.26553129999957,239.28140529999928,239.28140529999928,239.56688459999987,f,0.2756107000004704,None,,,,,,,,,,,,,,,00030,001,2025-11-18_16h15.07.638,MST_task,2024.2.0,59.86955621096014,2025-11-18 16h15.14.703549 +0530,
,Scenes\119a.jpg,14,0,15,,,,,,,None,j,0.6905909000006432,None,,,,,,15,0,14,239.58113109999977,,,,,,,,,,,,,,,,,,,,,,,,,,,,,,239.56729389999964,239.58113109999977,240.0656116,,,,,,,,,,,,,,240.11419019999994,,,,,,,,,,240.11088389999986,240.11419019999994,240.11419019999994,240.11419019999994,243.08199499999955,None,243.08889069999987,243.09790169999997,243.09790169999997,243.80038219999915,j,0.6905909000006432,None,,,,,,,,,,,,,,,00030,001,2025-11-18_16h15.07.638,MST_task,2024.2.0,59.86955621096014,2025-11-18 16h15.14.703549 +0530,
,Scenes\187a.jpg,15,0,16,,,,,,,None,j,0.3935245999991821,None,,,,,,16,0,15,243.81459349999932,,,,,,,,,,,,,,,,,,,,,,,,,,,,,,243.8008921999999,243.81459349999932,244.29904699999952,,,,,,,,,,,,,,244.34194989999924,,,,,,,,,,244.33867849999933,244.34194989999924,244.34194989999924,244.34194989999924,247.3154488,None,247.31561379999948,247.3312825999992,247.3312825999992,247.7335254999998,j,0.3935245999991821,None,,,,,,,,,,,,,,,00030,001,2025-11-18_16h15.07.638,MST_task,2024.2.0,59.86955621096014,2025-11-18 16h15.14.703549 +0530,
,Scenes\020a.jpg,16,0,17,,,,,,,None,f,0.5563685999995869,None,,,,,,17,0,16,247.74794129999918,,,,,,,,,,,,,,,,,,,,,,,,,,,,,,247.73385809999945,247.74794129999918,248.2321622999998,,,,,,,,,,,,,,248.26376719999917,,,,,,,,,,248.26050489999943,248.26376719999917,248.26376719999917,248.26376719999917,251.24869819999913,None,251.2488856,251.26461189999918,251.26461189999918,251.8330819999992,f,0.5563685999995869,None,,,,,,,,,,,,,,,00030,001,2025-11-18_16h15.07.638,MST_task,2024.2.0,59.86955621096014,2025-11-18 16h15.14.703549 +0530,
,Scenes\086a.jpg,17,0,18,,,,,,,None,j,0.5766174000000319,None,,,,,,18,0,17,251.84778109999934,,,,,,,,,,,,,,,,,,,,,,,,,,,,,,251.83352919999925,251.84778109999934,252.33261609999954,,,,,,,,,,,,,,252.3632330999999,,,,,,,,,,252.35981579999952,252.3632330999999,252.3632330999999,252.3632330999999,255.34839779999947,None,255.34859399999914,255.36475289999998,255.36475289999998,255.94956459999958,j,0.5766174000000319,None,,,,,,,,,,,,,,,00030,001,2025-11-18_16h15.07.638,MST_task,2024.2.0,59.86955621096014,2025-11-18 16h15.14.703549 +0530,
,Scenes\166a.jpg,18,0,19,,,,,,,None,j,1.1320607999996355,None,,,,,,19,0,18,255.96464769999966,,,,,,,,,,,,,,,,,,,,,,,,,,,,,,255.9499079999996,255.96464769999966,256.44918959999995,,,,,,,,,,,,,,256.47132989999955,,,,,,,,,,256.46825009999975,256.47132989999955,256.47132989999955,256.47132989999955,259.4651938999996,None,259.46534169999995,259.4813587999997,259.4813587999997,260.6169063999996,j,1.1320607999996355,None,,,,,,,,,,,,,,,00030,001,2025-11-18_16h15.07.638,MST_task,2024.2.0,59.86955621096014,2025-11-18 16h15.14.703549 +0530,
,Scenes\083a.jpg,19,0,20,,,,,,,None,j,0.5054653999995935,None,,,,,,20,0,19,260.63119929999993,,,,,,,,,,,,,,,,,,,,,,,,,,,,,,260.6171949999998,260.63119929999993,261.11586909999914,,,,,,,,,,,,,,261.14301539999997,,,,,,,,,,261.1397524999993,261.14301539999997,261.14301539999997,261.14301539999997,264.13193819999924,None,264.1320892999993,264.1477984999992,264.1477984999992,264.6668577999999,j,0.5054653999995935,None,,,,,,,,,,,,,,,00030,001,2025-11-18_16h15.07.638,MST_task,2024.2.0,59.86955621096014,2025-11-18 16h15.14.703549 +0530,
,Scenes\174a.jpg,20,0,21,,,,,,,None,j,0.31058089999987715,None,,,,,,21,0,20,264.6812483999993,,,,,,,,,,,,,,,,,,,,,,,,,,,,,,264.6672807999994,264.6812483999993,265.16570969999975,,,,,,,,,,,,,,265.19308529999944,,,,,,,,,,265.19045519999963,265.19308529999944,265.19308529999944,265.19308529999944,268.1819807999991,None,268.1821162999995,268.1978154999997,268.1978154999997,268.5168125,j,0.31058089999987715,None,,,,,,,,,,,,,,,00030,001,2025-11-18_16h15.07.638,MST_task,2024.2.0,59.86955621096014,2025-11-18 16h15.14.703549 +0530,
,Objects\157a.jpg,21,0,22,,,,,,,None,f,0.6133634000007078,None,,,,,,22,0,21,268.53131629999916,,,,,,,,,,,,,,,,,,,,,,,,,,,,,,268.5171905999996,268.53131629999916,269.0157018,,,,,,,,,,,,,,269.0366791999995,,,,,,,,,,269.0334398999994,269.0366791999995,269.0366791999995,269.0366791999995,272.03208969999923,None,272.03839119999975,272.0475956999999,272.0475956999999,272.66642859999956,f,0.6133634000007078,None,,,,,,,,,,,,,,,00030,001,2025-11-18_16h15.07.638,MST_task,2024.2.0,59.86955621096014,2025-11-18 16h15.14.703549 +0530,
,Objects\073a.jpg,22,0,23,,,,,,,None,f,0.23883459999979095,None,,,,,,23,0,22,272.68125859999964,,,,,,,,,,,,,,,,,,,,,,,,,,,,,,272.6668200999993,272.68125859999964,273.16613639999923,,,,,,,,,,,,,,273.18460699999923,,,,,,,,,,273.1819932999997,273.18460699999923,273.18460699999923,273.18460699999923,276.18212979999953,None,276.1822794999998,276.19806229999995,276.19806229999995,276.44976549999956,f,0.23883459999979095,None,,,,,,,,,,,,,,,00030,001,2025-11-18_16h15.07.638,MST_task,2024.2.0,59.86955621096014,2025-11-18 16h15.14.703549 +0530,
,Objects\142a.jpg,23,0,24,,,,,,,None,f,0.32718780000050174,None,,,,,,24,0,23,276.4647525999999,,,,,,,,,,,,,,,,,,,,,,,,,,,,,,276.45020699999986,276.4647525999999,276.94920209999964,,,,,,,,,,,,,,276.9670929999993,,,,,,,,,,276.96438209999997,276.9670929999993,276.9670929999993,276.9670929999993,279.96535759999915,None,279.9654953999998,279.98143939999954,279.98143939999954,280.3163608999994,f,0.32718780000050174,None,,,,,,,,,,,,,,,00030,001,2025-11-18_16h15.07.638,MST_task,2024.2.0,59.86955621096014,2025-11-18 16h15.14.703549 +0530,
,Objects\047a.jpg,24,0,25,,,,,,,f,None,,,2.7002913999995144,0.2078123000001142,,,,25,0,24,280.3313825999994,,,,,,,,,,,,,,,,,,,,,,,,,,,,,,280.3168520999998,280.3313825999994,280.81615769999917,,,,,,,,,,,,,,280.83301889999984,,,,,,,,,,280.83038979999947,280.83301889999984,280.83301889999984,280.83301889999984,283.83187969999926,f,283.83210039999994,,,283.8321655999998,None,,,2.7002913999995144,0.2078123000001142,,,,,,,,,,,,,00030,001,2025-11-18_16h15.07.638,MST_task,2024.2.0,59.86955621096014,2025-11-18 16h15.14.703549 +0530,
,Objects\007a.jpg,25,0,26,,,,,,,None,j,0.38394530000005034,None,,,,,,26,0,25,283.8479613999998,,,,,,,,,,,,,,,,,,,,,,,,,,,,,,283.83258939999996,283.8479613999998,284.3327185999997,,,,,,,,,,,,,,284.35274929999923,,,,,,,,,,284.3499667999995,284.35274929999923,284.35274929999923,284.35274929999923,287.34880859999976,None,287.3489757999996,287.36477549999927,287.36477549999927,287.75125749999916,j,0.38394530000005034,None,,,,,,,,,,,,,,,00030,001,2025-11-18_16h15.07.638,MST_task,2024.2.0,59.86955621096014,2025-11-18 16h15.14.703549 +0530,
,Objects\110a.jpg,26,0,27,,,,,,,j,None,,,2.9043603000000076,None,,,,27,0,26,287.7646430999994,,,,,,,,,,,,,,,,,,,,,,,,,,,,,,287.7515820999997,287.7646430999994,288.2493478999995,,,,,,,,,,,,,,288.26874939999925,,,,,,,,,,288.2660208999996,288.26874939999925,288.26874939999925,288.26874939999925,291.26559949999955,j,291.26578209999934,,,291.2658423999992,None,,,2.9043603000000076,None,,,,,,,,,,,,,00030,001,2025-11-18_16h15.07.638,MST_task,2024.2.0,59.86955621096014,2025-11-18 16h15.14.703549 +0530,
,Objects\155a.jpg,27,0,28,,,,,,,f,None,,,2.1393754999999146,0.2325407999996969,,,,28,0,27,291.28150449999976,,,,,,,,,,,,,,,,,,,,,,,,,,,,,,291.26614939999945,291.28150449999976,291.76624319999974,,,,,,,,,,,,,,291.78499029999966,,,,,,,,,,291.78232579999985,291.78499029999966,291.78499029999966,291.78499029999966,294.7821974999997,f,294.78238169999986,,,294.7824445999995,None,,,2.1393754999999146,0.2325407999996969,,,,,,,,,,,,,00030,001,2025-11-18_16h15.07.638,MST_task,2024.2.0,59.86955621096014,2025-11-18 16h15.14.703549 +0530,
,Scenes\045a.jpg,28,0,29,,,,,,,None,f,0.0022589000000152737,None,,,,,,29,0,28,294.7980058999992,,,,,,,,,,,,,,,,,,,,,,,,,,,,,,294.78291399999944,294.7980058999992,295.2828872,,,,,,,,,,,,,,295.3151521,,,,,,,,,,295.31126029999996,295.3151521,295.3151521,295.3151521,298.2987183999994,None,298.3045921999992,298.3146375999995,298.3146375999995,298.3338015999998,f,0.0022589000000152737,None,,,,,,,,,,,,,,,00030,001,2025-11-18_16h15.07.638,MST_task,2024.2.0,59.86955621096014,2025-11-18 16h15.14.703549 +0530,
,Scenes\012a.jpg,29,0,30,,,,,,,j,None,,,1.887562999999318,0.23957680000057735,,,,30,0,29,298.3479963,,,,,,,,,,,,,,,,,,,,,,,,,,,,,,298.33419089999916,298.3479963,298.83280529999956,,,,,,,,,,,,,,298.86125829999946,,,,,,,,,,298.8576008,298.86125829999946,298.86125829999946,298.86125829999946,301.84863999999925,j,301.8488106999994,,,301.8488693999998,None,,,1.887562999999318,0.23957680000057735,,,,,,,,,,,,,00030,001,2025-11-18_16h15.07.638,MST_task,2024.2.0,59.86955621096014,2025-11-18 16h15.14.703549 +0530,
,Scenes\150a.jpg,30,0,31,,,,,,,j,None,,,2.8066910999996253,None,,,,31,0,30,301.86473979999937,,,,,,,,,,,,,,,,,,,,,,,,,,,,,,301.84929289999945,301.86473979999937,302.3491660999998,,,,,,,,,,,,,,302.3825447999998,,,,,,,,,,302.3790749,302.3825447999998,302.3825447999998,302.3825447999998,305.3654276999996,j,305.3655976,,,305.36565599999994,None,,,2.8066910999996253,None,,,,,,,,,,,,,00030,001,2025-11-18_16h15.07.638,MST_task,2024.2.0,59.86955621096014,2025-11-18 16h15.14.703549 +0530,
,Scenes\122a.jpg,31,0,32,,,,,,,f,None,,,2.3994433999996545,0.23957770000015444,,,,32,0,31,305.3812632999998,,,,,,,,,,,,,,,,,,,,,,,,,,,,,,305.36609149999913,305.3812632999998,305.8660162999995,,,,,,,,,,,,,,305.89369969999916,,,,,,,,,,305.89052659999925,305.89369969999916,305.89369969999916,305.89369969999916,308.8820776999992,f,308.8822539999992,,,308.8823135999992,None,,,2.3994433999996545,0.23957770000015444,,,,,,,,,,,,,00030,001,2025-11-18_16h15.07.638,MST_task,2024.2.0,59.86955621096014,2025-11-18 16h15.14.703549 +0530,
,Scenes\185a.jpg,32,0,33,,,,,,,None,j,0.4858321000001524,None,,,,,,33,0,32,308.897876,,,,,,,,,,,,,,,,,,,,,,,,,,,,,,308.8827636999995,308.897876,309.3824044999992,,,,,,,,,,,,,,309.4080207999996,,,,,,,,,,309.4047486999998,309.4080207999996,309.4080207999996,309.4080207999996,312.3984757999997,None,312.3986378999998,312.4146458999994,312.4146458999994,312.91672299999937,j,0.4858321000001524,None,,,,,,,,,,,,,,,00030,001,2025-11-18_16h15.07.638,MST_task,2024.2.0,59.86955621096014,2025-11-18 16h15.14.703549 +0530,
,Scenes\167a.jpg,33,0,34,,,,,,,None,f,0.5654723000006925,None,,,,,,34,0,33,312.9314173999992,,,,,,,,,,,,,,,,,,,,,,,,,,,,,,312.9170603999992,312.9314173999992,313.41568299999926,,,,,,,,,,,,,,313.4434563999994,,,,,,,,,,313.43994909999947,313.4434563999994,313.4434563999994,313.4434563999994,316.43194029999995,None,316.43209559999923,316.4478300999999,316.4478300999999,317.0168442999993,f,0.5654723000006925,None,,,,,,,,,,,,,,,00030,001,2025-11-18_16h15.07.638,MST_task,2024.2.0,59.86955621096014,2025-11-18 16h15.14.703549 +0530,
,Scenes\017a.jpg,34,0,35,,,,,,,None,f,0.4409556000000521,None,,,,,,35,0,34,317.0311761999992,,,,,,,,,,,,,,,,,,,,,,,,,,,,,,317.01729969999997,317.0311761999992,317.5157400999997,,,,,,,,,,,,,,317.5431724,,,,,,,,,,317.5397751999999,317.5431724,317.5431724,317.5431724,320.53166059999967,None,320.53177419999975,320.5478525999997,320.5478525999997,320.99965879999945,f,0.4409556000000521,None,,,,,,,,,,,,,,,00030,001,2025-11-18_16h15.07.638,MST_task,2024.2.0,59.86955621096014,2025-11-18 16h15.14.703549 +0530,
,Objects\020a.jpg,35,0,36,,,,,,,None,j,1.2657204999995884,None,,,,,,36,0,35,321.0145722999996,,,,,,,,,,,,,,,,,,,,,,,,,,,,,,321.0001780999992,321.0145722999996,321.4991435999991,,,,,,,,,,,,,,321.52232749999985,,,,,,,,,,321.51895109999987,321.52232749999985,321.52232749999985,321.52232749999985,324.51545539999915,None,324.52270189999945,324.5314022999992,324.5314022999992,325.79984329999934,j,1.2657204999995884,None,,,,,,,,,,,,,,,00030,001,2025-11-18_16h15.07.638,MST_task,2024.2.0,59.86955621096014,2025-11-18 16h15.14.703549 +0530,
,Objects\072a.jpg,36,0,37,,,,,,,None,f,0.49804369999947085,None,,,,,,37,0,36,325.8148440999994,,,,,,,,,,,,,,,,,,,,,,,,,,,,,,325.80035399999997,325.8148440999994,326.29927039999984,,,,,,,,,,,,,,326.3193969999993,,,,,,,,,,326.3166266999997,326.3193969999993,326.3193969999993,326.3193969999993,329.31533579999996,None,329.3154683999992,329.33129929999996,329.33129929999996,329.8336827999992,f,0.49804369999947085,None,,,,,,,,,,,,,,,00030,001,2025-11-18_16h15.07.638,MST_task,2024.2.0,59.86955621096014,2025-11-18 16h15.14.703549 +0530,
,Objects\138a.jpg,37,0,38,,,,,,,None,j,0.36768599999959406,None,,,,,,38,0,37,329.8478258999994,,,,,,,,,,,,,,,,,,,,,,,,,,,,,,329.83405109999967,329.8478258999994,330.33265559999927,,,,,,,,,,,,,,330.35061609999957,,,,,,,,,,330.3478370999992,330.35061609999957,330.35061609999957,330.35061609999957,333.3483488999991,None,333.3484985999994,333.3648708999999,333.3648708999999,333.7501618999995,j,0.36768599999959406,None,,,,,,,,,,,,,,,00030,001,2025-11-18_16h15.07.638,MST_task,2024.2.0,59.86955621096014,2025-11-18 16h15.14.703549 +0530,
,Objects\053a.jpg,38,0,39,,,,,,,f,None,,,2.482051799999681,0.20722320000004402,,,,39,0,38,333.76486079999995,,,,,,,,,,,,,,,,,,,,,,,,,,,,,,333.7506936,333.76486079999995,334.2486829999998,,,,,,,,,,,,,,334.2673182999997,,,,,,,,,,334.2648698999992,334.2673182999997,334.2673182999997,334.2673182999997,337.26525429999947,f,337.2654225999995,,,337.2654823999992,None,,,2.482051799999681,0.20722320000004402,,,,,,,,,,,,,00030,001,2025-11-18_16h15.07.638,MST_task,2024.2.0,59.86955621096014,2025-11-18 16h15.14.703549 +0530,
,Objects\101a.jpg,39,0,40,,,,,,,None,j,1.559470400000464,None,,,,,,40,0,39,337.2813736999997,,,,,,,,,,,,,,,,,,,,,,,,,,,,,,337.2658933999992,337.2813736999997,337.76622169999973,,,,,,,,,,,,,,337.7889630999998,,,,,,,,,,337.78631179999957,337.7889630999998,337.7889630999998,337.7889630999998,340.7819578999997,None,340.7821027,340.7978519999997,340.7978519999997,342.3673417,j,1.559470400000464,None,,,,,,,,,,,,,,,00030,001,2025-11-18_16h15.07.638,MST_task,2024.2.0,59.86955621096014,2025-11-18 16h15.14.703549 +0530,
,Objects\016a.jpg,40,0,41,,,,,,,f,None,,,1.5159630999996807,0.24802400000044145,,,,41,0,40,342.38134439999976,,,,,,,,,,,,,,,,,,,,,,,,,,,,,,342.3676612999998,342.38134439999976,342.86602029999995,,,,,,,,,,,,,,342.88853429999926,,,,,,,,,,342.8857860999997,342.88853429999926,342.88853429999926,342.88853429999926,345.8819790999996,f,345.8821421999992,,,345.8821862999994,None,,,1.5159630999996807,0.24802400000044145,,,,,,,,,,,,,00030,001,2025-11-18_16h15.07.638,MST_task,2024.2.0,59.86955621096014,2025-11-18 16h15.14.703549 +0530,
,Objects\145a.jpg,41,0,42,,,,,,,None,f,1.5107970999997633,None,,,,,,42,0,41,345.89780299999984,,,,,,,,,,,,,,,,,,,,,,,,,,,,,,345.8825057999993,345.89780299999984,346.38231319999977,,,,,,,,,,,,,,346.4044323999997,,,,,,,,,,346.40188789999956,346.4044323999997,346.4044323999997,346.4044323999997,349.39867819999927,None,349.3988299999992,349.4146164999993,349.4146164999993,350.93331619999935,f,1.5107970999997633,None,,,,,,,,,,,,,,,00030,001,2025-11-18_16h15.07.638,MST_task,2024.2.0,59.86955621096014,2025-11-18 16h15.14.703549 +0530,
,Scenes\023a.jpg,42,0,43,,,,,,,None,f,0.020719900000585767,None,,,,,,43,0,42,350.9477866999996,,,,,,,,,,,,,,,,,,,,,,,,,,,,,,350.9338296999995,350.9477866999996,351.4322938999994,,,,,,,,,,,,,,351.46495949999917,,,,,,,,,,351.46145119999983,351.46495949999917,351.46495949999917,351.46495949999917,354.4484311999995,None,354.4544243999999,354.4645453999992,354.4645453999992,354.50003519999973,f,0.020719900000585767,None,,,,,,,,,,,,,,,00030,001,2025-11-18_16h15.07.638,MST_task,2024.2.0,59.86955621096014,2025-11-18 16h15.14.703549 +0530,
,Scenes\095a.jpg,43,0,44,,,,,,,j,None,,,1.4646397999995315,0.16782299999977113,,,,44,0,43,354.51474979999966,,,,,,,,,,,,,,,,,,,,,,,,,,,,,,354.5005268999994,354.51474979999966,354.99911579999934,,,,,,,,,,,,,,355.0287335999992,,,,,,,,,,355.0251202999998,355.0287335999992,355.0287335999992,355.0287335999992,358.0151262999998,j,358.01530619999994,,,358.0154045999998,None,,,1.4646397999995315,0.16782299999977113,,,,,,,,,,,,,00030,001,2025-11-18_16h15.07.638,MST_task,2024.2.0,59.86955621096014,2025-11-18 16h15.14.703549 +0530,
,Scenes\065a.jpg,44,0,45,,,,,,,j,None,,,1.8356321000001117,0.20748170000024402,,,,45,0,44,358.0314409999992,,,,,,,,,,,,,,,,,,,,,,,,,,,,,,358.0158356999991,358.0314409999992,358.5157459999991,,,,,,,,,,,,,,358.5376104999996,,,,,,,,,,358.53439009999965,358.5376104999996,358.5376104999996,358.5376104999996,361.53186319999986,j,361.5320140999993,,,361.5320630999995,None,,,1.8356321000001117,0.20748170000024402,,,,,,,,,,,,,00030,001,2025-11-18_16h15.07.638,MST_task,2024.2.0,59.86955621096014,2025-11-18 16h15.14.703549 +0530,
,Scenes\169a.jpg,45,0,46,,,,,,,j,None,,,1.2625418999996327,0.20051730000068346,,,,46,0,45,361.5478071999996,,,,,,,,,,,,,,,,,,,,,,,,,,,,,,361.53241199999957,361.5478071999996,362.03265739999915,,,,,,,,,,,,,,362.05433959999937,,,,,,,,,,362.0511237999999,362.05433959999937,362.05433959999937,362.05433959999937,365.04863039999964,j,365.0487951999994,,,365.04885269999977,None,,,1.2625418999996327,0.20051730000068346,,,,,,,,,,,,,00030,001,2025-11-18_16h15.07.638,MST_task,2024.2.0,59.86955621096014,2025-11-18 16h15.14.703549 +0530,
,Scenes\106a.jpg,46,0,47,,,,,,,j,None,,,0.7662392000002001,0.20744730000023992,,,,47,0,46,365.06461189999936,,,,,,,,,,,,,,,,,,,,,,,,,,,,,,365.04915809999966,365.06461189999936,365.54873209999914,,,,,,,,,,,,,,365.5755115999991,,,,,,,,,,365.5723952999997,365.5755115999991,365.5755115999991,365.5755115999991,368.5654335999998,j,368.56560549999995,,,368.56566589999966,None,,,0.7662392000002001,0.20744730000023992,,,,,,,,,,,,,00030,001,2025-11-18_16h15.07.638,MST_task,2024.2.0,59.86955621096014,2025-11-18 16h15.14.703549 +0530,
,Scenes\141a.jpg,47,0,48,,,,,,,j,None,,,2.507795299999998,0.21571119999953225,,,,48,0,47,368.58133669999916,,,,,,,,,,,,,,,,,,,,,,,,,,,,,,368.56608679999954,368.58133669999916,369.06587619999937,,,,,,,,,,,,,,369.08884769999986,,,,,,,,,,369.08557309999924,369.08884769999986,369.08884769999986,369.08884769999986,372.0818260999995,j,372.08220959999926,,,372.0822825999994,None,,,2.507795299999998,0.21571119999953225,,,,,,,,,,,,,00030,001,2025-11-18_16h15.07.638,MST_task,2024.2.0,59.86955621096014,2025-11-18 16h15.14.703549 +0530,
,Scenes\044a.jpg,48,0,49,,,,,,,None,f,1.6303828000000067,None,,,,,,49,0,48,372.09794239999974,,,,,,,,,,,,,,,,,,,,,,,,,,,,,,372.0827217999995,372.09794239999974,372.5819649999994,,,,,,,,,,,,,,372.6028359999991,,,,,,,,,,372.59976559999996,372.6028359999991,372.6028359999991,372.6028359999991,375.59852429999955,None,375.5986583999993,375.6146556999993,375.6146556999993,377.2496035999993,f,1.6303828000000067,None,,,,,,,,,,,,,,,00030,001,2025-11-18_16h15.07.638,MST_task,2024.2.0,59.86955621096014,2025-11-18 16h15.14.703549 +0530,
,Objects\171a.jpg,49,0,50,,,,,,,None,j,2.55139650000001,None,,,,,,50,0,49,377.26465049999933,,,,,,,,,,,,,,,,,,,,,,,,,,,,,,377.24996779999947,377.26465049999933,377.7491109999992,,,,,,,,,,,,,,377.77337179999995,,,,,,,,,,377.77021389999936,377.77337179999995,377.77337179999995,377.77337179999995,380.76520209999944,None,380.7720970999999,380.7811484999993,380.7811484999993,383.35000389999914,j,2.55139650000001,None,,,,,,,,,,,,,,,00030,001,2025-11-18_16h15.07.638,MST_task,2024.2.0,59.86955621096014,2025-11-18 16h15.14.703549 +0530,
,Objects\039a.jpg,50,0,51,,,,,,,None,j,1.2351161999995384,None,,,,,,51,0,50,383.3647446999994,,,,,,,,,,,,,,,,,,,,,,,,,,,,,,383.35046339999917,383.3647446999994,383.84878149999986,,,,,,,,,,,,,,383.87008739999965,,,,,,,,,,383.8675076999998,383.87008739999965,383.87008739999965,383.87008739999965,386.8653390999998,None,386.8654833999999,386.8814881999997,386.8814881999997,388.13257839999915,j,1.2351161999995384,None,,,,,,,,,,,,,,,00030,001,2025-11-18_16h15.07.638,MST_task,2024.2.0,59.86955621096014,2025-11-18 16h15.14.703549 +0530,
,Objects\055a.jpg,51,0,52,,,,,,,j,None,,,2.2641627999992124,0.15193670000007842,,,,52,0,51,388.14780639999935,,,,,,,,,,,,,,,,,,,,,,,,,,,,,,388.1329053999998,388.14780639999935,388.63255149999986,,,,,,,,,,,,,,388.65305199999966,,,,,,,,,,388.6503527999994,388.65305199999966,388.65305199999966,388.65305199999966,391.6485204999999,j,391.6486875999999,,,391.64874769999915,None,,,2.2641627999992124,0.15193670000007842,,,,,,,,,,,,,00030,001,2025-11-18_16h15.07.638,MST_task,2024.2.0,59.86955621096014,2025-11-18 16h15.14.703549 +0530,
,Objects\095a.jpg,52,0,53,,,,,,,f,None,,,0.923717000000579,0.21616219999941677,,,,53,0,52,391.66479269999945,,,,,,,,,,,,,,,,,,,,,,,,,,,,,,391.64905269999963,391.66479269999945,392.14875029999985,,,,,,,,,,,,,,392.16927999999916,,,,,,,,,,392.1666314999993,392.16927999999916,392.16927999999916,392.16927999999916,395.16524779999963,f,395.1653938999998,,,395.16573289999997,None,,,0.923717000000579,0.21616219999941677,,,,,,,,,,,,,00030,001,2025-11-18_16h15.07.638,MST_task,2024.2.0,59.86955621096014,2025-11-18 16h15.14.703549 +0530,
,Objects\094a.jpg,53,0,54,,,,,,,f,None,,,2.6444482000006246,0.15193139999973937,,,,54,0,53,395.1814381999993,,,,,,,,,,,,,,,,,,,,,,,,,,,,,,395.16631209999923,395.1814381999993,395.66571699999986,,,,,,,,,,,,,,395.6883388999995,,,,,,,,,,395.6853078999993,395.6883388999995,395.6883388999995,395.6883388999995,398.6820648999992,f,398.6822319999992,,,398.6822893999997,None,,,2.6444482000006246,0.15193139999973937,,,,,,,,,,,,,00030,001,2025-11-18_16h15.07.638,MST_task,2024.2.0,59.86955621096014,2025-11-18 16h15.14.703549 +0530,
,Objects\170a.jpg,54,0,55,,,,,,,j,None,,,1.79205120000006,0.18403589999979886,,,,55,0,54,398.6980535999992,,,,,,,,,,,,,,,,,,,,,,,,,,,,,,398.6827160999992,398.6980535999992,399.1826406,,,,,,,,,,,,,,399.2047770999998,,,,,,,,,,399.20196869999927,399.2047770999998,399.2047770999998,399.2047770999998,402.19860339999923,j,402.1987750999997,,,402.1988345999998,None,,,1.79205120000006,0.18403589999979886,,,,,,,,,,,,,00030,001,2025-11-18_16h15.07.638,MST_task,2024.2.0,59.86955621096014,2025-11-18 16h15.14.703549 +0530,
,Objects\108a.jpg,55,0,56,,,,,,,None,j,0.3377418000000034,None,,,,,,56,0,55,402.2147445999999,,,,,,,,,,,,,,,,,,,,,,,,,,,,,,402.1991303999994,402.2147445999999,402.69942619999983,,,,,,,,,,,,,,402.73599959999956,,,,,,,,,,402.7332426999992,402.73599959999956,402.73599959999956,402.73599959999956,405.71535959999983,None,405.71555009999975,405.73147529999915,405.73147529999915,406.08327589999953,j,0.3377418000000034,None,,,,,,,,,,,,,,,00030,001,2025-11-18_16h15.07.638,MST_task,2024.2.0,59.86955621096014,2025-11-18 16h15.14.703549 +0530,
,Scenes\126a.jpg,56,0,57,,,,,,,None,j,0.23803659999975935,None,,,,,,57,0,56,406.0980065999993,,,,,,,,,,,,,,,,,,,,,,,,,,,,,,406.0838126999997,406.0980065999993,406.5822453999999,,,,,,,,,,,,,,406.60813509999934,,,,,,,,,,406.60487009999997,406.60813509999934,406.60813509999934,406.60813509999934,409.5985842,None,409.60523509999985,409.6148309,409.6148309,409.86659769999915,j,0.23803659999975935,None,,,,,,,,,,,,,,,00030,001,2025-11-18_16h15.07.638,MST_task,2024.2.0,59.86955621096014,2025-11-18 16h15.14.703549 +0530,
,Scenes\084a.jpg,57,0,58,,,,,,,j,None,,,2.715291800000159,None,,,,58,0,57,409.8814414999997,,,,,,,,,,,,,,,,,,,,,,,,,,,,,,409.86712089999946,409.8814414999997,410.3658663999995,,,,,,,,,,,,,,410.3943195999991,,,,,,,,,,410.39092299999993,410.3943195999991,410.3943195999991,410.3943195999991,413.3818996,j,413.38204439999936,,,413.3820977999994,None,,,2.715291800000159,None,,,,,,,,,,,,,00030,001,2025-11-18_16h15.07.638,MST_task,2024.2.0,59.86955621096014,2025-11-18 16h15.14.703549 +0530,
,Scenes\078a.jpg,58,0,59,,,,,,,None,j,1.4258451000005152,None,,,,,,59,0,58,413.39802169999984,,,,,,,,,,,,,,,,,,,,,,,,,,,,,,413.38246229999913,413.39802169999984,413.88263519999964,,,,,,,,,,,,,,413.9106146999993,,,,,,,,,,413.9072189999997,413.9106146999993,413.9106146999993,413.9106146999993,416.8989686999994,None,416.89912449999974,416.91493289999926,416.91493289999926,418.3500662999995,j,1.4258451000005152,None,,,,,,,,,,,,,,,00030,001,2025-11-18_16h15.07.638,MST_task,2024.2.0,59.86955621096014,2025-11-18 16h15.14.703549 +0530,
,Scenes\179a.jpg,59,0,60,,,,,,,j,None,,,2.1055248000002393,0.19275010000001203,,,,60,0,59,418.36488239999926,,,,,,,,,,,,,,,,,,,,,,,,,,,,,,418.35061759999917,418.36488239999926,418.8490187999996,,,,,,,,,,,,,,418.8749595999998,,,,,,,,,,418.8715629999997,418.8749595999998,418.8749595999998,418.8749595999998,421.86552819999997,j,421.86569579999923,,,421.86575529999936,None,,,2.1055248000002393,0.19275010000001203,,,,,,,,,,,,,00030,001,2025-11-18_16h15.07.638,MST_task,2024.2.0,59.86955621096014,2025-11-18 16h15.14.703549 +0530,
,Scenes\183a.jpg,60,0,61,,,,,,,None,f,1.0463636999993469,None,,,,,,61,0,60,421.8815801999999,,,,,,,,,,,,,,,,,,,,,,,,,,,,,,421.86605839999993,421.8815801999999,422.36599019999994,,,,,,,,,,,,,,422.3954705999995,,,,,,,,,,422.39198469999974,422.3954705999995,422.3954705999995,422.3954705999995,425.3822388999997,None,425.38239049999993,425.39812339999935,425.39812339999935,426.4504154999995,f,1.0463636999993469,None,,,,,,,,,,,,,,,00030,001,2025-11-18_16h15.07.638,MST_task,2024.2.0,59.86955621096014,2025-11-18 16h15.14.703549 +0530,
,Scenes\046a.jpg,61,0,62,,,,,,,j,None,,,1.0932080000002316,0.1920976999999766,,,,62,0,61,426.4647580999999,,,,,,,,,,,,,,,,,,,,,,,,,,,,,,426.45092379999915,426.4647580999999,426.9487817999998,,,,,,,,,,,,,,426.9837357999995,,,,,,,,,,426.9801860999996,426.9837357999995,426.9837357999995,426.9837357999995,429.96545949999927,j,429.9656245999995,,,429.96573069999977,None,,,1.0932080000002316,0.1920976999999766,,,,,,,,,,,,,00030,001,2025-11-18_16h15.07.638,MST_task,2024.2.0,59.86955621096014,2025-11-18 16h15.14.703549 +0530,
,Scenes\081a.jpg,62,0,63,,,,,,,j,None,,,1.3242104000000836,0.21568779999961407,,,,63,0,62,429.98148649999985,,,,,,,,,,,,,,,,,,,,,,,,,,,,,,429.9661535999994,429.98148649999985,430.4658356,,,,,,,,,,,,,,430.4965700999992,,,,,,,,,,430.49312929999996,430.4965700999992,430.4965700999992,430.4965700999992,433.4820523999997,j,433.4822144999998,,,433.48227209999914,None,,,1.3242104000000836,0.21568779999961407,,,,,,,,,,,,,00030,001,2025-11-18_16h15.07.638,MST_task,2024.2.0,59.86955621096014,2025-11-18 16h15.14.703549 +0530,
,Objects\168a.jpg,63,0,64,,,,,,,None,f,0.31026160000055825,None,,,,,,64,0,63,433.4981162999993,,,,,,,,,,,,,,,,,,,,,,,,,,,,,,433.4826798999993,433.4981162999993,433.9822686999996,,,,,,,,,,,,,,434.00454959999934,,,,,,,,,,434.00135859999955,434.00454959999934,434.00454959999934,434.00454959999934,436.99868349999997,None,437.00554829999965,437.01460659999975,437.01460659999975,437.3337069999998,f,0.31026160000055825,None,,,,,,,,,,,,,,,00030,001,2025-11-18_16h15.07.638,MST_task,2024.2.0,59.86955621096014,2025-11-18 16h15.14.703549 +0530,
,Objects\167a.jpg,64,0,65,,,,,,,None,f,1.700784300000123,None,,,,,,65,0,64,437.3480305999992,,,,,,,,,,,,,,,,,,,,,,,,,,,,,,437.33420299999943,437.3480305999992,437.8328453999993,,,,,,,,,,,,,,437.85268109999924,,,,,,,,,,437.84995269999945,437.85268109999924,437.85268109999924,437.85268109999924,440.8486650999994,None,440.8488166999996,440.8648113999998,440.8648113999998,442.5825890999995,f,1.700784300000123,None,,,,,,,,,,,,,,,00030,001,2025-11-18_16h15.07.638,MST_task,2024.2.0,59.86955621096014,2025-11-18 16h15.14.703549 +0530,
,Objects\092a.jpg,65,0,66,,,,,,,f,None,,,2.644927999999709,0.17544739999993908,,,,66,0,65,442.59794169999986,,,,,,,,,,,,,,,,,,,,,,,,,,,,,,442.5828419999998,442.59794169999986,443.0824030999993,,,,,,,,,,,,,,443.1201158999993,,,,,,,,,,443.1174670999999,443.1201158999993,443.1201158999993,443.1201158999993,446.09843029999956,f,446.0986398999994,,,446.0987015999999,None,,,2.644927999999709,0.17544739999993908,,,,,,,,,,,,,00030,001,2025-11-18_16h15.07.638,MST_task,2024.2.0,59.86955621096014,2025-11-18 16h15.14.703549 +0530,
,Objects\140a.jpg,66,0,67,,,,,,,j,None,,,2.588585599999533,0.28034850000040024,,,,67,0,66,446.11475769999925,,,,,,,,,,,,,,,,,,,,,,,,,,,,,,446.09909849999985,446.11475769999925,446.5989634999996,,,,,,,,,,,,,,446.61613489999945,,,,,,,,,,446.61349829999926,446.61613489999945,446.61613489999945,446.61613489999945,449.6151958999999,j,449.6153562999998,,,449.61541469999975,None,,,2.588585599999533,0.28034850000040024,,,,,,,,,,,,,00030,001,2025-11-18_16h15.07.638,MST_task,2024.2.0,59.86955621096014,2025-11-18 16h15.14.703549 +0530,
,Objects\063a.jpg,67,0,68,,,,,,,f,None,,,2.494750599999861,0.22387350000008155,,,,68,0,67,449.6313776999996,,,,,,,,,,,,,,,,,,,,,,,,,,,,,,449.6157566999991,449.6313776999996,450.1157693999994,,,,,,,,,,,,,,450.1339393999997,,,,,,,,,,450.1313375999998,450.1339393999997,450.1339393999997,450.1339393999997,453.13195239999914,f,453.13212289999956,,,453.1321823999997,None,,,2.494750599999861,0.22387350000008155,,,,,,,,,,,,,00030,001,2025-11-18_16h15.07.638,MST_task,2024.2.0,59.86955621096014,2025-11-18 16h15.14.703549 +0530,
,Objects\129a.jpg,68,0,69,,,,,,,None,f,0.1959100000003673,None,,,,,,69,0,68,453.1479970999999,,,,,,,,,,,,,,,,,,,,,,,,,,,,,,453.13257169999997,453.1479970999999,453.63256999999976,,,,,,,,,,,,,,453.65363759999946,,,,,,,,,,453.6510847999998,453.65363759999946,453.65363759999946,453.65363759999946,456.6483071999992,None,456.6484848,456.6646695999998,456.6646695999998,456.8671164999996,f,0.1959100000003673,None,,,,,,,,,,,,,,,00030,001,2025-11-18_16h15.07.638,MST_task,2024.2.0,59.86955621096014,2025-11-18 16h15.14.703549 +0530,
,Objects\128a.jpg,69,0,70,,,,,,,None,j,0.374798799999553,None,,,,,,70,0,69,456.88136509999913,,,,,,,,,,,,,,,,,,,,,,,,,,,,,,456.8675697999997,456.88136509999913,457.3658618999998,,,,,,,,,,,,,,457.3852164,,,,,,,,,,457.38247279999996,457.3852164,457.3852164,457.3852164,460.38223779999953,None,460.38239709999925,460.39793479999935,460.39793479999935,460.78350839999985,j,0.374798799999553,None,,,,,,,,,,,,,,,00030,001,2025-11-18_16h15.07.638,MST_task,2024.2.0,59.86955621096014,2025-11-18 16h15.14.703549 +0530,
,Scenes\116a.jpg,70,0,71,,,,,,,j,None,,,2.2086136000007173,0.13567859999966458,,,,71,0,70,460.79782089999935,,,,,,,,,,,,,,,,,,,,,,,,,,,,,,460.7838499999998,460.79782089999935,461.2825520999995,,,,,,,,,,,,,,461.3084025999997,,,,,,,,,,461.3049701,461.3084025999997,461.3084025999997,461.3084025999997,464.29861119999987,j,464.30475249999927,,,464.30476799999997,None,,,2.2086136000007173,0.13567859999966458,,,,,,,,,,,,,00030,001,2025-11-18_16h15.07.638,MST_task,2024.2.0,59.86955621096014,2025-11-18 16h15.14.703549 +0530,
,Scenes\130a.jpg,71,0,72,,,,,,,None,j,0.10190099999999802,None,,,,,,72,0,71,464.31480999999985,,,,,,,,,,,,,,,,,,,,,,,,,,,,,,464.30487749999975,464.31480999999985,464.7995185,,,,,,,,,,,,,,464.82895799999915,,,,,,,,,,464.8257117999992,464.82895799999915,464.82895799999915,464.82895799999915,467.8153120999996,None,467.8154640999992,467.8313331999998,467.8313331999998,467.9494014999991,j,0.10190099999999802,None,,,,,,,,,,,,,,,00030,001,2025-11-18_16h15.07.638,MST_task,2024.2.0,59.86955621096014,2025-11-18 16h15.14.703549 +0530,
,Scenes\059a.jpg,72,0,73,,,,,,,j,None,,,1.9972684999993362,0.2553066000000399,,,,73,0,72,467.96474559999933,,,,,,,,,,,,,,,,,,,,,,,,,,,,,,467.9499842999994,467.96474559999933,468.4491283999996,,,,,,,,,,,,,,468.48034559999996,,,,,,,,,,468.4770129999997,468.48034559999996,468.48034559999996,468.48034559999996,471.4652866999995,j,471.46547179999925,,,471.46553219999987,None,,,1.9972684999993362,0.2553066000000399,,,,,,,,,,,,,00030,001,2025-11-18_16h15.07.638,MST_task,2024.2.0,59.86955621096014,2025-11-18 16h15.14.703549 +0530,
,Scenes\055a.jpg,73,0,74,,,,,,,j,None,,,1.8333613999993759,0.22321740000006685,,,,74,0,73,471.4813316999998,,,,,,,,,,,,,,,,,,,,,,,,,,,,,,471.46596449999925,471.4813316999998,471.9647974999998,,,,,,,,,,,,,,471.9879197999999,,,,,,,,,,471.98452459999953,471.9879197999999,471.9879197999999,471.9879197999999,474.9820737,j,474.9822574,,,474.9823123999995,None,,,1.8333613999993759,0.22321740000006685,,,,,,,,,,,,,00030,001,2025-11-18_16h15.07.638,MST_task,2024.2.0,59.86955621096014,2025-11-18 16h15.14.703549 +0530,
,Scenes\061a.jpg,74,0,75,,,,,,,j,None,,,1.988521000000219,0.1998273999997764,,,,75,0,74,474.99785469999915,,,,,,,,,,,,,,,,,,,,,,,,,,,,,,474.98258819999955,474.99785469999915,475.48227469999983,,,,,,,,,,,,,,475.5046296999999,,,,,,,,,,475.5014637999993,475.5046296999999,475.5046296999999,475.5046296999999,478.4984980999998,j,478.49866799999927,,,478.4987259999998,None,,,1.988521000000219,0.1998273999997764,,,,,,,,,,,,,00030,001,2025-11-18_16h15.07.638,MST_task,2024.2.0,59.86955621096014,2025-11-18 16h15.14.703549 +0530,
,Scenes\103a.jpg,75,0,76,,,,,,,j,None,,,2.968033600000126,None,,,,76,0,75,478.51471329999913,,,,,,,,,,,,,,,,,,,,,,,,,,,,,,478.4991506999995,478.51471329999913,478.9990205999993,,,,,,,,,,,,,,479.0288809999993,,,,,,,,,,479.0257933999992,479.0288809999993,479.0288809999993,479.0288809999993,482.0153776999996,j,482.0155399999994,,,482.01559799999995,None,,,2.968033600000126,None,,,,,,,,,,,,,00030,001,2025-11-18_16h15.07.638,MST_task,2024.2.0,59.86955621096014,2025-11-18 16h15.14.703549 +0530,
,Scenes\072a.jpg,76,0,77,,,,,,,j,None,,,2.5997863000002326,0.3439461999996638,,,,77,0,76,482.0313467999995,,,,,,,,,,,,,,,,,,,,,,,,,,,,,,482.0160188,482.0313467999995,482.5159479999993,,,,,,,,,,,,,,482.5413432999994,,,,,,,,,,482.53814599999987,482.5413432999994,482.5413432999994,482.5413432999994,485.53182879999986,j,485.5319536999996,,,485.53199569999924,None,,,2.5997863000002326,0.3439461999996638,,,,,,,,,,,,,00030,001,2025-11-18_16h15.07.638,MST_task,2024.2.0,59.86955621096014,2025-11-18 16h15.14.703549 +0530,
,Objects\121a.jpg,77,0,78,,,,,,,None,f,0.2919986000006247,None,,,,,,78,0,77,485.54786689999946,,,,,,,,,,,,,,,,,,,,,,,,,,,,,,485.53231549999964,485.54786689999946,486.0327492999995,,,,,,,,,,,,,,486.0561364999994,,,,,,,,,,486.05283169999984,486.0561364999994,486.0561364999994,486.0561364999994,489.0486158999993,None,489.05503489999955,489.0645962999997,489.0645962999997,489.3668151999991,f,0.2919986000006247,None,,,,,,,,,,,,,,,00030,001,2025-11-18_16h15.07.638,MST_task,2024.2.0,59.86955621096014,2025-11-18 16h15.14.703549 +0530,
,Objects\175a.jpg,78,0,79,,,,,,,None,j,0.2914245000001756,None,,,,,,79,0,78,489.3813317999993,,,,,,,,,,,,,,,,,,,,,,,,,,,,,,489.36714159999974,489.3813317999993,489.8659067999997,,,,,,,,,,,,,,489.8879328999992,,,,,,,,,,489.88497239999924,489.8879328999992,489.8879328999992,489.8879328999992,492.88149749999957,None,492.8815535999993,492.8980114999995,492.8980114999995,493.1999055999995,j,0.2914245000001756,None,,,,,,,,,,,,,,,00030,001,2025-11-18_16h15.07.638,MST_task,2024.2.0,59.86955621096014,2025-11-18 16h15.14.703549 +0530,
,Objects\049a.jpg,79,0,80,,,,,,,None,j,1.8096833999998125,None,,,,,,80,0,79,493.21468489999916,,,,,,,,,,,,,,,,,,,,,,,,,,,,,,493.2002665,493.21468489999916,493.6991350999997,,,,,,,,,,,,,,493.7217041999993,,,,,,,,,,493.7190955999995,493.7217041999993,493.7217041999993,493.7217041999993,496.71526409999933,None,496.71540729999924,496.73138109999945,496.73138109999945,498.54905549999967,j,1.8096833999998125,None,,,,,,,,,,,,,,,00030,001,2025-11-18_16h15.07.638,MST_task,2024.2.0,59.86955621096014,2025-11-18 16h15.14.703549 +0530,
,Objects\040a.jpg,80,0,81,,,,,,,f,None,,,1.2014349000000948,0.3443178999996235,,,,81,0,80,498.5645593999998,,,,,,,,,,,,,,,,,,,,,,,,,,,,,,498.5492983999993,498.5645593999998,499.0491136999999,,,,,,,,,,,,,,499.06736399999954,,,,,,,,,,499.06476529999964,499.06736399999954,499.06736399999954,499.06736399999954,502.06533169999966,f,502.06553089999943,,,502.0655906999991,None,,,1.2014349000000948,0.3443178999996235,,,,,,,,,,,,,00030,001,2025-11-18_16h15.07.638,MST_task,2024.2.0,59.86955621096014,2025-11-18 16h15.14.703549 +0530,
,Objects\068a.jpg,81,0,82,,,,,,,None,f,1.1349714000007225,None,,,,,,82,0,81,502.08133969999926,,,,,,,,,,,,,,,,,,,,,,,,,,,,,,502.0658949999997,502.08133969999926,502.5656876999992,,,,,,,,,,,,,,502.5833784999995,,,,,,,,,,502.58081589999983,502.5833784999995,502.5833784999995,502.5833784999995,505.5817184999996,None,505.58186549999937,505.59785159999956,505.59785159999956,506.7497113999998,f,1.1349714000007225,None,,,,,,,,,,,,,,,00030,001,2025-11-18_16h15.07.638,MST_task,2024.2.0,59.86955621096014,2025-11-18 16h15.14.703549 +0530,
,Objects\005a.jpg,82,0,83,,,,,,,None,f,0.5393613999995068,None,,,,,,83,0,82,506.7646412999993,,,,,,,,,,,,,,,,,,,,,,,,,,,,,,506.7501442999992,506.7646412999993,507.2491831999996,,,,,,,,,,,,,,507.2721234999999,,,,,,,,,,507.26934469999924,507.2721234999999,507.2721234999999,507.2721234999999,510.2653559999999,None,510.2655014999991,510.28146559999914,510.28146559999914,510.83242859999973,f,0.5393613999995068,None,,,,,,,,,,,,,,,00030,001,2025-11-18_16h15.07.638,MST_task,2024.2.0,59.86955621096014,2025-11-18 16h15.14.703549 +0530,
,Objects\183a.jpg,83,0,84,,,,,,,j,None,,,2.0293479000001753,0.23167360000024928,,,,84,0,83,510.8478103999996,,,,,,,,,,,,,,,,,,,,,,,,,,,,,,510.8327156999994,510.8478103999996,511.3322946999997,,,,,,,,,,,,,,511.3515579999994,,,,,,,,,,511.34908319999977,511.3515579999994,511.3515579999994,511.3515579999994,514.3485968999994,j,514.3487288999995,,,514.3487734999999,None,,,2.0293479000001753,0.23167360000024928,,,,,,,,,,,,,00030,001,2025-11-18_16h15.07.638,MST_task,2024.2.0,59.86955621096014,2025-11-18 16h15.14.703549 +0530,
,Scenes\003a.jpg,84,0,85,,,,,,,f,None,,,2.557397000000492,0.2714576999997007,,,,85,0,84,514.3646607999999,,,,,,,,,,,,,,,,,,,,,,,,,,,,,,514.3491085999995,514.3646607999999,514.8488765999991,,,,,,,,,,,,,,514.8796476999996,,,,,,,,,,514.8764503999992,514.8796476999996,514.8796476999996,514.8796476999996,517.8654011999997,f,517.8714806999997,,,517.8715171999993,None,,,2.557397000000492,0.2714576999997007,,,,,,,,,,,,,00030,001,2025-11-18_16h15.07.638,MST_task,2024.2.0,59.86955621096014,2025-11-18 16h15.14.703549 +0530,
,Scenes\146a.jpg,85,0,86,,,,,,,j,None,,,1.5893042999996396,0.23213080000004993,,,,86,0,85,517.8812607999998,,,,,,,,,,,,,,,,,,,,,,,,,,,,,,517.8717407999993,517.8812607999998,518.3661147999992,,,,,,,,,,,,,,518.3914304999998,,,,,,,,,,518.3881511,518.3914304999998,518.3914304999998,518.3914304999998,521.3819056999992,j,521.3820717999997,,,521.3821293999999,None,,,1.5893042999996396,0.23213080000004993,,,,,,,,,,,,,00030,001,2025-11-18_16h15.07.638,MST_task,2024.2.0,59.86955621096014,2025-11-18 16h15.14.703549 +0530,
,Scenes\043a.jpg,86,0,87,,,,,,,None,j,0.0901146999995035,None,,,,,,87,0,86,521.3979092999998,,,,,,,,,,,,,,,,,,,,,,,,,,,,,,521.3825744999995,521.3979092999998,521.8826381999997,,,,,,,,,,,,,,521.9138572999991,,,,,,,,,,521.9104639999996,521.9138572999991,521.9138572999991,521.9138572999991,524.8987651999996,None,524.8989228999999,524.9147542999999,524.9147542999999,525.0169571999995,j,0.0901146999995035,None,,,,,,,,,,,,,,,00030,001,2025-11-18_16h15.07.638,MST_task,2024.2.0,59.86955621096014,2025-11-18 16h15.14.703549 +0530,
,Scenes\181a.jpg,87,0,88,,,,,,,f,None,,,1.9118336000001364,0.3265431999998327,,,,88,0,87,525.0313793999994,,,,,,,,,,,,,,,,,,,,,,,,,,,,,,525.0174408999992,525.0313793999994,525.5159586,,,,,,,,,,,,,,525.5425128999996,,,,,,,,,,525.5392911999998,525.5425128999996,525.5425128999996,525.5425128999996,528.5319577999999,f,528.5321204999991,,,528.5321795,None,,,1.9118336000001364,0.3265431999998327,,,,,,,,,,,,,00030,001,2025-11-18_16h15.07.638,MST_task,2024.2.0,59.86955621096014,2025-11-18 16h15.14.703549 +0530,
,Scenes\013a.jpg,88,0,89,,,,,,,j,None,,,2.529650500000571,0.20044739999957528,,,,89,0,88,528.5479166999994,,,,,,,,,,,,,,,,,,,,,,,,,,,,,,528.5324766999993,528.5479166999994,529.0324222999998,,,,,,,,,,,,,,529.0589690999996,,,,,,,,,,529.0557865999999,529.0589690999996,529.0589690999996,529.0589690999996,532.0488103999996,j,532.0489796999991,,,532.0490365999995,None,,,2.529650500000571,0.20044739999957528,,,,,,,,,,,,,00030,001,2025-11-18_16h15.07.638,MST_task,2024.2.0,59.86955621096014,2025-11-18 16h15.14.703549 +0530,
,Scenes\128a.jpg,89,0,90,,,,,,,j,None,,,2.356042499999603,0.1836183000004894,,,,90,0,89,532.0646889999998,,,,,,,,,,,,,,,,,,,,,,,,,,,,,,532.0494743999998,532.0646889999998,532.5490137999996,,,,,,,,,,,,,,532.5772259999994,,,,,,,,,,532.5739374999994,532.5772259999994,532.5772259999994,532.5772259999994,535.5652130999997,j,535.5653775999999,,,535.5654737999994,None,,,2.356042499999603,0.1836183000004894,,,,,,,,,,,,,00030,001,2025-11-18_16h15.07.638,MST_task,2024.2.0,59.86955621096014,2025-11-18 16h15.14.703549 +0530,
,Scenes\155a.jpg,90,0,91,,,,,,,j,None,,,1.840929999999389,0.2243285000004107,,,,91,0,90,535.5812930999991,,,,,,,,,,,,,,,,,,,,,,,,,,,,,,535.5658990999991,535.5812930999991,536.0659165999996,,,,,,,,,,,,,,536.0919610999999,,,,,,,,,,536.0887601999993,536.0919610999999,536.0919610999999,536.0919610999999,539.0821055999995,j,539.0822683999995,,,539.0823255999994,None,,,1.840929999999389,0.2243285000004107,,,,,,,,,,,,,00030,001,2025-11-18_16h15.07.638,MST_task,2024.2.0,59.86955621096014,2025-11-18 16h15.14.703549 +0530,
,Objects\184a.jpg,91,0,92,,,,,,,None,j,0.5100210000000516,None,,,,,,92,0,91,539.0980731,,,,,,,,,,,,,,,,,,,,,,,,,,,,,,539.0827539999991,539.0980731,539.5823080999999,,,,,,,,,,,,,,539.6011937999992,,,,,,,,,,539.5978537999999,539.6011937999992,539.6011937999992,539.6011937999992,542.5985830999998,None,542.6047050999996,542.6145898999994,542.6145898999994,543.1337127999996,j,0.5100210000000516,None,,,,,,,,,,,,,,,00030,001,2025-11-18_16h15.07.638,MST_task,2024.2.0,59.86955621096014,2025-11-18 16h15.14.703549 +0530,
,Objects\045a.jpg,92,0,93,,,,,,,None,j,0.31570430000010674,None,,,,,,93,0,92,543.1479589999999,,,,,,,,,,,,,,,,,,,,,,,,,,,,,,543.1342000999994,543.1479589999999,543.6319947999991,,,,,,,,,,,,,,543.6511191999998,,,,,,,,,,543.6482735999998,543.6511191999998,543.6511191999998,543.6511191999998,546.6485143,None,546.6486705999996,546.664769,546.664769,546.9830877999993,j,0.31570430000010674,None,,,,,,,,,,,,,,,00030,001,2025-11-18_16h15.07.638,MST_task,2024.2.0,59.86955621096014,2025-11-18 16h15.14.703549 +0530,
,Objects\149a.jpg,93,0,94,,,,,,,None,j,1.1300698999993983,None,,,,,,94,0,93,546.9978603999998,,,,,,,,,,,,,,,,,,,,,,,,,,,,,,546.9835742999994,546.9978603999998,547.4824608999998,,,,,,,,,,,,,,547.5028570999993,,,,,,,,,,547.5001106,547.5028570999993,547.5028570999993,547.5028570999993,550.4986321999995,None,550.4990448999997,550.5147853999997,550.5147853999997,551.6506737999998,j,1.1300698999993983,None,,,,,,,,,,,,,,,00030,001,2025-11-18_16h15.07.638,MST_task,2024.2.0,59.86955621096014,2025-11-18 16h15.14.703549 +0530,
,Objects\125a.jpg,94,0,95,,,,,,,None,j,0.6881208000004335,None,,,,,,95,0,94,551.6644429999997,,,,,,,,,,,,,,,,,,,,,,,,,,,,,,551.6511845999994,551.6644429999997,552.1491193999991,,,,,,,,,,,,,,552.1656432999998,,,,,,,,,,552.1628191,552.1656432999998,552.1656432999998,552.1656432999998,555.1503650999994,None,555.1505641999993,555.1648612999998,555.1648612999998,555.8669071999993,j,0.6881208000004335,None,,,555.1648612999998,555.1648612999998,555.1648612999998,,,,,,,,,,00030,001,2025-11-18_16h15.07.638,MST_task,2024.2.0,59.86955621096014,2025-11-18 16h15.14.703549 +0530,
,Objects\076a.jpg,95,0,96,,,,,,,None,f,0.28726040000037756,None,,,,,,96,0,95,555.8815576999996,,,,,,,,,,,,,,,,,,,,,,,,,,,,,,555.8674369999999,555.8815576999996,556.3659011,,,,,,,,,,,,,,556.3879098999996,,,,,,,,,,556.3852904999994,556.3879098999996,556.3879098999996,556.3879098999996,559.3819524999999,None,559.3820933999996,559.3979261999993,559.3979261999993,559.6996565999998,f,0.28726040000037756,None,,,,,,,,,,,,,,,00030,001,2025-11-18_16h15.07.638,MST_task,2024.2.0,59.86955621096014,2025-11-18 16h15.14.703549 +0530,
,Objects\033a.jpg,96,0,97,,,,,,,f,None,,,1.4254061999999976,0.2238798999997016,,,,97,0,96,559.7146680999995,,,,,,,,,,,,,,,,,,,,,,,,,,,,,,559.7001513999994,559.7146680999995,560.1992795999995,,,,,,,,,,,,,,560.2200134999994,,,,,,,,,,560.2173604999998,560.2200134999994,560.2200134999994,560.2200134999994,563.2153134,f,563.2154801999995,,,563.2155421999996,None,,,1.4254061999999976,0.2238798999997016,,,,,,,,,,,,,00030,001,2025-11-18_16h15.07.638,MST_task,2024.2.0,59.86955621096014,2025-11-18 16h15.14.703549 +0530,
,Objects\022a.jpg,97,0,98,,,,,,,f,None,,,2.7388264000001072,0.21675330000016402,,,,98,0,97,563.2313723999996,,,,,,,,,,,,,,,,,,,,,,,,,,,,,,563.2158475999995,563.2313723999996,563.7159661999995,,,,,,,,,,,,,,563.7381750999994,,,,,,,,,,563.7353764,563.7381750999994,563.7381750999994,563.7381750999994,566.7319291999993,f,566.7322499999991,,,566.7323167999994,None,,,2.7388264000001072,0.21675330000016402,,,,,,,,,,,,,00030,001,2025-11-18_16h15.07.638,MST_task,2024.2.0,59.86955621096014,2025-11-18 16h15.14.703549 +0530,
,Scenes\131a.jpg,98,0,99,,,,,,,j,None,,,2.2829947000000175,0.2228010999997423,,,,99,0,98,566.7478613999992,,,,,,,,,,,,,,,,,,,,,,,,,,,,,,566.7325997999997,566.7478613999992,567.2324522999997,,,,,,,,,,,,,,567.2586524999997,,,,,,,,,,567.2553768999996,567.2586524999997,567.2586524999997,567.2586524999997,570.2487785999992,j,570.2555915999992,,,570.2556089999998,None,,,2.2829947000000175,0.2228010999997423,,,,,,,,,,,,,00030,001,2025-11-18_16h15.07.638,MST_task,2024.2.0,59.86955621096014,2025-11-18 16h15.14.703549 +0530,
,Scenes\063a.jpg,99,0,100,,,,,,,j,None,,,2.1458056999999826,0.27219719999993686,,,,100,0,99,570.2648131999995,,,,,,,,,,,,,,,,,,,,,,,,,,,,,,570.2556786999994,570.2648131999995,570.7492717999994,,,,,,,,,,,,,,570.7791478999998,,,,,,,,,,570.7759313999995,570.7791478999998,570.7791478999998,570.7791478999998,573.7653457999995,j,573.7655337999995,,,573.7655988999995,None,,,2.1458056999999826,0.27219719999993686,,,,,,,,,,,,,00030,001,2025-11-18_16h15.07.638,MST_task,2024.2.0,59.86955621096014,2025-11-18 16h15.14.703549 +0530,
,Scenes\168a.jpg,100,0,101,,,,,,,j,None,,,2.828088000000207,None,,,,101,0,100,573.7814004999991,,,,,,,,,,,,,,,,,,,,,,,,,,,,,,573.7660265999993,573.7814004999991,574.2661573999994,,,,,,,,,,,,,,574.2891295999998,,,,,,,,,,574.2858548999993,574.2891295999998,574.2891295999998,574.2891295999998,577.2823389999994,j,577.2825210999999,,,577.2825859999994,None,,,2.828088000000207,None,,,,,,,,,,,,,00030,001,2025-11-18_16h15.07.638,MST_task,2024.2.0,59.86955621096014,2025-11-18 16h15.14.703549 +0530,
,Scenes\112a.jpg,101,0,102,,,,,,,j,None,,,1.6547037999998793,0.22339550000015151,,,,102,0,101,577.2979655999998,,,,,,,,,,,,,,,,,,,,,,,,,,,,,,577.2828959999997,577.2979655999998,577.7826664999993,,,,,,,,,,,,,,577.8069077,,,,,,,,,,577.8035468999997,577.8069077,577.8069077,577.8069077,580.7985289999997,j,580.7986912999995,,,580.7987494999998,None,,,1.6547037999998793,0.22339550000015151,,,,,,,,,,,,,00030,001,2025-11-18_16h15.07.638,MST_task,2024.2.0,59.86955621096014,2025-11-18 16h15.14.703549 +0530,
,Scenes\073a.jpg,102,0,103,,,,,,,j,None,,,1.6974460999999792,0.24853459999940242,,,,103,0,102,580.8148508999993,,,,,,,,,,,,,,,,,,,,,,,,,,,,,,580.7990623999995,580.8148508999993,581.2992992999998,,,,,,,,,,,,,,581.3235394999992,,,,,,,,,,581.3203953999991,581.3235394999992,581.3235394999992,581.3235394999992,584.3154866999994,j,584.3157683999998,,,584.3158610999999,None,,,1.6974460999999792,0.24853459999940242,,,,,,,,,,,,,00030,001,2025-11-18_16h15.07.638,MST_task,2024.2.0,59.86955621096014,2025-11-18 16h15.14.703549 +0530,
,Scenes\088a.jpg,103,0,104,,,,,,,j,None,,,2.4608103999999003,0.22444830000040383,,,,104,0,103,584.3313792999998,,,,,,,,,,,,,,,,,,,,,,,,,,,,,,584.3162356999992,584.3313792999998,584.8161612999993,,,,,,,,,,,,,,584.8480947999997,,,,,,,,,,584.84465,584.8480947999997,584.8480947999997,584.8480947999997,587.8320467999993,j,587.8321996999994,,,587.8322532999991,None,,,2.4608103999999003,0.22444830000040383,,,,,,,,,,,,,00030,001,2025-11-18_16h15.07.638,MST_task,2024.2.0,59.86955621096014,2025-11-18 16h15.14.703549 +0530,
,Scenes\089a.jpg,104,0,105,,,,,,,None,j,1.7603327000006175,None,,,,,,105,0,104,587.8479228999995,,,,,,,,,,,,,,,,,,,,,,,,,,,,,,587.8326503999997,587.8479228999995,588.3323866999999,,,,,,,,,,,,,,588.3679781999999,,,,,,,,,,588.3644025999993,588.3679781999999,588.3679781999999,588.3679781999999,591.3485451999995,None,591.3488376999994,591.3648277999991,591.3648277999991,593.1333815999997,j,1.7603327000006175,None,,,,,,,,,,,,,,,00030,001,2025-11-18_16h15.07.638,MST_task,2024.2.0,59.86955621096014,2025-11-18 16h15.14.703549 +0530,
,Objects\036a.jpg,105,0,106,,,,,,,None,j,1.7567982000000484,None,,,,,,106,0,105,593.1480453999993,,,,,,,,,,,,,,,,,,,,,,,,,,,,,,593.1337230999998,593.1480453999993,593.6326244999991,,,,,,,,,,,,,,593.6533276999999,,,,,,,,,,593.6500007999994,593.6533276999999,593.6533276999999,593.6533276999999,596.6485376999999,None,596.6555726999995,596.6645462999995,596.6645462999995,598.4334632,j,1.7567982000000484,None,,,,,,,,,,,,,,,00030,001,2025-11-18_16h15.07.638,MST_task,2024.2.0,59.86955621096014,2025-11-18 16h15.14.703549 +0530,
,Objects\133a.jpg,106,0,107,,,,,,,None,f,0.32001949999994395,None,,,,,,107,0,106,598.4479899999997,,,,,,,,,,,,,,,,,,,,,,,,,,,,,,598.4338151999991,598.4479899999997,598.9328429999996,,,,,,,,,,,,,,598.9545397999991,,,,,,,,,,598.9518832999993,598.9545397999991,598.9545397999991,598.9545397999991,601.9485767999995,None,601.9487262999992,601.9649013999997,601.9649013999997,602.2999757999996,f,0.32001949999994395,None,,,,,,,,,,,,,,,00030,001,2025-11-18_16h15.07.638,MST_task,2024.2.0,59.86955621096014,2025-11-18 16h15.14.703549 +0530,
,Objects\062a.jpg,107,0,108,,,,,,,None,f,0.26135839999915333,None,,,,,,108,0,107,602.3147090999992,,,,,,,,,,,,,,,,,,,,,,,,,,,,,,602.3003452999992,602.3147090999992,602.7990276999999,,,,,,,,,,,,,,602.8197965999998,,,,,,,,,,602.8170567999996,602.8197965999998,602.8197965999998,602.8197965999998,605.8154263999995,None,605.8156542999996,605.8314438999996,605.8314438999996,606.1004045,f,0.26135839999915333,None,,,,,,,,,,,,,,,00030,001,2025-11-18_16h15.07.638,MST_task,2024.2.0,59.86955621096014,2025-11-18 16h15.14.703549 +0530,
,Objects\057a.jpg,108,0,109,,,,,,,None,f,0.4057007000001249,None,,,,,,109,0,108,606.114705,,,,,,,,,,,,,,,,,,,,,,,,,,,,,,606.1007204999996,606.114705,606.5989307999998,,,,,,,,,,,,,,606.6174204999998,,,,,,,,,,606.6146726999996,606.6174204999998,606.6174204999998,606.6174204999998,609.6153297999999,None,609.6154837999993,609.6313930999995,609.6313930999995,610.0499424,f,0.4057007000001249,None,,,,,,,,,,,,,,,00030,001,2025-11-18_16h15.07.638,MST_task,2024.2.0,59.86955621096014,2025-11-18 16h15.14.703549 +0530,
,Objects\174a.jpg,109,0,110,,,,,,,None,f,0.35169309999946563,None,,,,,,110,0,109,610.0647007999996,,,,,,,,,,,,,,,,,,,,,,,,,,,,,,610.0503433999993,610.0647007999996,610.5493278999993,,,,,,,,,,,,,,610.5688351999997,,,,,,,,,,610.5661925999993,610.5688351999997,610.5688351999997,610.5688351999997,613.5652065999993,None,613.5653241,613.5813106999994,613.5813106999994,613.9492778999993,f,0.35169309999946563,None,,,,,,,,,,,,,,,00030,001,2025-11-18_16h15.07.638,MST_task,2024.2.0,59.86955621096014,2025-11-18 16h15.14.703549 +0530,
,Objects\100a.jpg,110,0,111,,,,,,,f,None,,,1.6668142999997144,0.26364990000001853,,,,111,0,110,613.9647060999996,,,,,,,,,,,,,,,,,,,,,,,,,,,,,,613.9495930999992,613.9647060999996,614.4491468999995,,,,,,,,,,,,,,614.4668656999993,,,,,,,,,,614.4642424999993,614.4668656999993,614.4668656999993,614.4668656999993,617.4653334999994,f,617.4655008,,,617.4655607999994,None,,,1.6668142999997144,0.26364990000001853,,,,,,,,,,,,,00030,001,2025-11-18_16h15.07.638,MST_task,2024.2.0,59.86955621096014,2025-11-18 16h15.14.703549 +0530,
,Objects\115a.jpg,111,0,112,,,,,,,f,None,,,2.5222384999997303,0.21601580000060494,,,,112,0,111,617.4813526999997,,,,,,,,,,,,,,,,,,,,,,,,,,,,,,617.4658671999996,617.4813526999997,617.9659124999998,,,,,,,,,,,,,,617.9866016999995,,,,,,,,,,617.9839674999994,617.9866016999995,617.9866016999995,617.9866016999995,620.9819768999996,f,620.9821452999995,,,620.9822055999994,None,,,2.5222384999997303,0.21601580000060494,,,,,,,,,,,,,00030,001,2025-11-18_16h15.07.638,MST_task,2024.2.0,59.86955621096014,2025-11-18 16h15.14.703549 +0530,
,Scenes\075a.jpg,112,0,113,,,,,,,j,None,,,1.5917967000004865,0.26422289999936766,,,,113,0,112,620.9978773999992,,,,,,,,,,,,,,,,,,,,,,,,,,,,,,620.9826322999998,620.9978773999992,621.4825649999993,,,,,,,,,,,,,,621.5094325999999,,,,,,,,,,621.5062426999993,621.5094325999999,621.5094325999999,621.5094325999999,624.4987782999997,j,624.5035179999995,,,624.5035494999993,None,,,1.5917967000004865,0.26422289999936766,,,,,,,,,,,,,00030,001,2025-11-18_16h15.07.638,MST_task,2024.2.0,59.86955621096014,2025-11-18 16h15.14.703549 +0530,
,Scenes\120a.jpg,113,0,114,,,,,,,None,j,0.22104440000020986,None,,,,,,114,0,113,624.5145659,,,,,,,,,,,,,,,,,,,,,,,,,,,,,,624.5037329999996,624.5145659,624.9992945999993,,,,,,,,,,,,,,625.0257511,,,,,,,,,,625.0224056999996,625.0257511,625.0257511,625.0257511,628.0155558999995,None,628.0157162999994,628.0313932999998,628.0313932999998,628.2663640999999,j,0.22104440000020986,None,,,,,,,,,,,,,,,00030,001,2025-11-18_16h15.07.638,MST_task,2024.2.0,59.86955621096014,2025-11-18 16h15.14.703549 +0530,
,Scenes\096a.jpg,114,0,115,,,,,,,None,j,0.10268999999971129,None,,,,,,115,0,114,628.2813518999992,,,,,,,,,,,,,,,,,,,,,,,,,,,,,,628.2667271999999,628.2813518999992,628.7660134999996,,,,,,,,,,,,,,628.7884802999997,,,,,,,,,,628.7850192999995,628.7884802999997,628.7884802999997,628.7884802999997,631.7822539999997,None,631.7824537999995,631.7979349999996,631.7979349999996,631.9166493999992,j,0.10268999999971129,None,,,,,,,,,,,,,,,00030,001,2025-11-18_16h15.07.638,MST_task,2024.2.0,59.86955621096014,2025-11-18 16h15.14.703549 +0530,
,Scenes\034a.jpg,115,0,116,,,,,,,f,None,,,2.7153377000004184,None,,,,116,0,115,631.9314625999996,,,,,,,,,,,,,,,,,,,,,,,,,,,,,,631.9171081999993,631.9314625999996,632.4160390999996,,,,,,,,,,,,,,632.4492554999997,,,,,,,,,,632.4459782999993,632.4492554999997,632.4492554999997,632.4492554999997,635.4317843999997,f,635.4319024999995,,,635.4319427999999,None,,,2.7153377000004184,None,,,,,,,,,,,,,00030,001,2025-11-18_16h15.07.638,MST_task,2024.2.0,59.86955621096014,2025-11-18 16h15.14.703549 +0530,
,Scenes\180a.jpg,116,0,117,,,,,,,j,None,,,2.595053099999859,None,,,,117,0,116,635.4479009999995,,,,,,,,,,,,,,,,,,,,,,,,,,,,,,635.4322355999993,635.4479009999995,635.9327682999992,,,,,,,,,,,,,,635.9614634,,,,,,,,,,635.9579277999992,635.9614634,635.9614634,635.9614634,638.9322525999996,j,638.9324182999999,,,638.932476,None,,,2.595053099999859,None,,,,,,,,,,,,,00030,001,2025-11-18_16h15.07.638,MST_task,2024.2.0,59.86955621096014,2025-11-18 16h15.14.703549 +0530,
,Scenes\050a.jpg,117,0,118,,,,,,,j,None,,,2.6756172999994305,0.26478820000011183,,,,118,0,117,638.9480221999993,,,,,,,,,,,,,,,,,,,,,,,,,,,,,,638.9327771999997,638.9480221999993,639.4330893999995,,,,,,,,,,,,,,639.4569909999991,,,,,,,,,,639.4537277,639.4569909999991,639.4569909999991,639.4569909999991,642.4488421999995,j,642.4490102999998,,,642.4490677999993,None,,,2.6756172999994305,0.26478820000011183,,,,,,,,,,,,,00030,001,2025-11-18_16h15.07.638,MST_task,2024.2.0,59.86955621096014,2025-11-18 16h15.14.703549 +0530,
,Scenes\109a.jpg,118,0,119,,,,,,,j,None,,,2.715280299999904,None,,,,119,0,118,642.4648905999993,,,,,,,,,,,,,,,,,,,,,,,,,,,,,,642.4495042999997,642.4648905999993,642.9492075999997,,,,,,,,,,,,,,642.9772851999996,,,,,,,,,,642.9738477999999,642.9772851999996,642.9772851999996,642.9772851999996,645.9655025999991,j,645.9656661999998,,,645.9657251999997,None,,,2.715280299999904,None,,,,,,,,,,,,,00030,001,2025-11-18_16h15.07.638,MST_task,2024.2.0,59.86955621096014,2025-11-18 16h15.14.703549 +0530,
,Objects\120a.jpg,119,0,120,,,,,,,f,None,,,2.356249899999966,0.2479300000004514,,,,120,0,119,645.9816765999994,,,,,,,,,,,,,,,,,,,,,,,,,,,,,,645.9660291999999,645.9816765999994,646.4662091,,,,,,,,,,,,,,646.4889599999997,,,,,,,,,,646.4855035999999,646.4889599999997,646.4889599999997,646.4889599999997,649.4822281999996,f,649.4891104999997,,,649.4891449999996,None,,,2.356249899999966,0.2479300000004514,,,,,,,,,,,,,00030,001,2025-11-18_16h15.07.638,MST_task,2024.2.0,59.86955621096014,2025-11-18 16h15.14.703549 +0530,
,Objects\023a.jpg,120,0,121,,,,,,,f,None,,,1.7217457999995531,0.22429139999985637,,,,121,0,120,649.4980198999992,,,,,,,,,,,,,,,,,,,,,,,,,,,,,,649.4892725,649.4980198999992,649.9828577999997,,,,,,,,,,,,,,650.0029697,,,,,,,,,,650.0002047999997,650.0029697,650.0029697,650.0029697,652.9989872999995,f,652.9991639999998,,,652.9992220999993,None,,,1.7217457999995531,0.22429139999985637,,,,,,,,,,,,,00030,001,2025-11-18_16h15.07.638,MST_task,2024.2.0,59.86955621096014,2025-11-18 16h15.14.703549 +0530,
,Objects\019a.jpg,121,0,122,,,,,,,None,j,0.25744459999987157,None,,,,,,122,0,121,653.0149413999998,,,,,,,,,,,,,,,,,,,,,,,,,,,,,,652.9995242999994,653.0149413999998,653.4994617999992,,,,,,,,,,,,,,653.5380290999992,,,,,,,,,,653.5350872999998,653.5380290999992,653.5380290999992,653.5380290999992,656.5156832999992,None,656.5158418999999,656.5315893999996,656.5315893999996,656.8004846999993,j,0.25744459999987157,None,,,,,,,,,,,,,,,00030,001,2025-11-18_16h15.07.638,MST_task,2024.2.0,59.86955621096014,2025-11-18 16h15.14.703549 +0530,
,Objects\117a.jpg,122,0,123,,,,,,,None,f,0.4251689000002443,None,,,,,,123,0,122,656.8148790999994,,,,,,,,,,,,,,,,,,,,,,,,,,,,,,656.8008582999992,656.8148790999994,657.2992709,,,,,,,,,,,,,,657.3173977999995,,,,,,,,,,657.3147764999994,657.3173977999995,657.3173977999995,657.3173977999995,660.3157453999993,None,660.3159020999992,660.3315416999994,660.3315416999994,660.7673095999999,f,0.4251689000002443,None,,,,,,,,,,,,,,,00030,001,2025-11-18_16h15.07.638,MST_task,2024.2.0,59.86955621096014,2025-11-18 16h15.14.703549 +0530,
,Objects\034a.jpg,123,0,124,,,,,,,None,f,0.02668679999987944,None,,,,,,124,0,123,660.7815063999997,,,,,,,,,,,,,,,,,,,,,,,,,,,,,,660.7676800999998,660.7815063999997,661.2662377999995,,,,,,,,,,,,,,661.2858141999995,,,,,,,,,,661.2831259999994,661.2858141999995,661.2858141999995,661.2858141999995,664.2823558,None,664.2825143999999,664.2981533999991,664.2981533999991,664.3334482999999,f,0.02668679999987944,None,,,,,,,,,,,,,,,00030,001,2025-11-18_16h15.07.638,MST_task,2024.2.0,59.86955621096014,2025-11-18 16h15.14.703549 +0530,
,Objects\130a.jpg,124,0,125,,,,,,,None,j,0.32413069999984145,None,,,,,,125,0,124,664.3482097999995,,,,,,,,,,,,,,,,,,,,,,,,,,,,,,664.3338397999996,664.3482097999995,664.8329429999994,,,,,,,,,,,,,,664.8521760999993,,,,,,,,,,664.8493880999995,664.8521760999993,664.8521760999993,664.8521760999993,667.8485781999998,None,667.8487188999998,667.8648764999998,667.8648764999998,668.2001009999994,j,0.32413069999984145,None,,,,,,,,,,,,,,,00030,001,2025-11-18_16h15.07.638,MST_task,2024.2.0,59.86955621096014,2025-11-18 16h15.14.703549 +0530,
,Objects\151a.jpg,125,0,126,,,,,,,None,f,0.7775356000001921,None,,,,,,126,0,125,668.2146137999998,,,,,,,,,,,,,,,,,,,,,,,,,,,,,,668.2003890999995,668.2146137999998,668.6988126999995,,,,,,,,,,,,,,668.7195755999992,,,,,,,,,,668.7168540999992,668.7195755999992,668.7195755999992,668.7195755999992,671.7154740999995,None,671.7156218,671.7315669,671.7315669,672.5170662999999,f,0.7775356000001921,None,,,,,,,,,,,,,,,00030,001,2025-11-18_16h15.07.638,MST_task,2024.2.0,59.86955621096014,2025-11-18 16h15.14.703549 +0530,
,Scenes\111a.jpg,126,0,127,,,,,,,j,None,,,2.445502800000213,0.20735509999940405,,,,127,0,126,672.5316842999991,,,,,,,,,,,,,,,,,,,,,,,,,,,,,,672.5173902999995,672.5316842999991,673.0160148999994,,,,,,,,,,,,,,673.0397462999999,,,,,,,,,,673.0364861999997,673.0397462999999,673.0397462999999,673.0397462999999,676.0322431999994,j,676.0384885999993,,,676.0385057999993,None,,,2.445502800000213,0.20735509999940405,,,,,,,,,,,,,00030,001,2025-11-18_16h15.07.638,MST_task,2024.2.0,59.86955621096014,2025-11-18 16h15.14.703549 +0530,
,Scenes\079a.jpg,127,0,128,,,,,,,j,None,,,1.7672671000000264,0.23138459999972838,,,,128,0,127,676.0481107999994,,,,,,,,,,,,,,,,,,,,,,,,,,,,,,676.0385765999999,676.0481107999994,676.5326977999994,,,,,,,,,,,,,,676.5579691999992,,,,,,,,,,676.5546873999992,676.5579691999992,676.5579691999992,676.5579691999992,679.5486779999992,j,679.5488464999999,,,679.5489037999996,None,,,1.7672671000000264,0.23138459999972838,,,,,,,,,,,,,00030,001,2025-11-18_16h15.07.638,MST_task,2024.2.0,59.86955621096014,2025-11-18 16h15.14.703549 +0530,
,Scenes\172a.jpg,128,0,129,,,,,,,j,None,,,1.7537086000002091,0.3046119999999064,,,,129,0,128,679.5649649999996,,,,,,,,,,,,,,,,,,,,,,,,,,,,,,679.5495893999996,679.5649649999996,680.0490974999993,,,,,,,,,,,,,,680.0749843999993,,,,,,,,,,680.0717612999997,680.0749843999993,680.0749843999993,680.0749843999993,683.0653840999994,j,683.0655489999999,,,683.0656034999993,None,,,1.7537086000002091,0.3046119999999064,,,,,,,,,,,,,00030,001,2025-11-18_16h15.07.638,MST_task,2024.2.0,59.86955621096014,2025-11-18 16h15.14.703549 +0530,
,Scenes\052a.jpg,129,0,130,,,,,,,None,j,0.5990288999992117,None,,,,,,130,0,129,683.0815767999993,,,,,,,,,,,,,,,,,,,,,,,,,,,,,,683.0658973,683.0815767999993,683.5658973,,,,,,,,,,,,,,683.5948773999999,,,,,,,,,,683.5912507999992,683.5948773999999,683.5948773999999,683.5948773999999,686.5821039999992,None,686.5823034999994,686.5979166999996,686.5979166999996,687.2003914999996,j,0.5990288999992117,None,,,,,,,,,,,,,,,00030,001,2025-11-18_16h15.07.638,MST_task,2024.2.0,59.86955621096014,2025-11-18 16h15.14.703549 +0530,
,Scenes\051a.jpg,130,0,131,,,,,,,None,j,0.6979324000003544,None,,,,,,131,0,130,687.2147718999995,,,,,,,,,,,,,,,,,,,,,,,,,,,,,,687.2006812999998,687.2147718999995,687.6990129999995,,,,,,,,,,,,,,687.7220422999999,,,,,,,,,,687.7187178999993,687.7220422999999,687.7220422999999,687.7220422999999,690.7152692,None,690.7154172999999,690.7314233999996,690.7314233999996,691.4333625999998,j,0.6979324000003544,None,,,,,,,,,,,,,,,00030,001,2025-11-18_16h15.07.638,MST_task,2024.2.0,59.86955621096014,2025-11-18 16h15.14.703549 +0530,
,Scenes\087a.jpg,131,0,132,,,,,,,None,j,0.024848799999745097,None,,,,,,132,0,131,691.4478975999991,,,,,,,,,,,,,,,,,,,,,,,,,,,,,,691.4338252999996,691.4478975999991,691.9326394,,,,,,,,,,,,,,691.9559859999999,,,,,,,,,,691.9527193999993,691.9559859999999,691.9559859999999,691.9559859999999,694.9484663999992,None,694.9486070999992,694.9647186999991,694.9647186999991,694.9998502999997,j,0.024848799999745097,None,,,,,,,,,,,,,,,00030,001,2025-11-18_16h15.07.638,MST_task,2024.2.0,59.86955621096014,2025-11-18 16h15.14.703549 +0530,
,Scenes\080a.jpg,132,0,133,,,,,,,j,None,,,1.641563799999858,0.24778999999944062,,,,133,0,132,695.0147567999993,,,,,,,,,,,,,,,,,,,,,,,,,,,,,,695.0002068999993,695.0147567999993,695.4987856999996,,,,,,,,,,,,,,695.5233614999997,,,,,,,,,,695.5200835999995,695.5233614999997,695.5233614999997,695.5233614999997,698.5155121999996,j,698.5157077999993,,,698.5157688999998,None,,,1.641563799999858,0.24778999999944062,,,,,,,,,,,,,00030,001,2025-11-18_16h15.07.638,MST_task,2024.2.0,59.86955621096014,2025-11-18 16h15.14.703549 +0530,
,Objects\176a.jpg,133,0,134,,,,,,,j,None,,,2.1422169999996186,0.1915569000002506,,,,134,0,133,698.5315658,,,,,,,,,,,,,,,,,,,,,,,,,,,,,,698.5161792999997,698.5315658,699.0160897999995,,,,,,,,,,,,,,699.0390186999994,,,,,,,,,,699.0359105999996,699.0390186999994,699.0390186999994,699.0390186999994,702.0319731999998,j,702.0376667999999,,,702.0377000999997,None,,,2.1422169999996186,0.1915569000002506,,,,,,,,,,,,,00030,001,2025-11-18_16h15.07.638,MST_task,2024.2.0,59.86955621096014,2025-11-18 16h15.14.703549 +0530,
,Objects\152a.jpg,134,0,135,,,,,,,f,None,,,1.4363146000005145,0.2953642000002219,,,,135,0,134,702.0477298999995,,,,,,,,,,,,,,,,,,,,,,,,,,,,,,702.0378693999992,702.0477298999995,702.5327831999994,,,,,,,,,,,,,,702.5529958999996,,,,,,,,,,702.5502301999995,702.5529958999996,702.5529958999996,702.5529958999996,705.5485864999991,f,705.5488083999999,,,705.5488691999999,None,,,1.4363146000005145,0.2953642000002219,,,,,,,,,,,,,00030,001,2025-11-18_16h15.07.638,MST_task,2024.2.0,59.86955621096014,2025-11-18 16h15.14.703549 +0530,
,Objects\004a.jpg,135,0,136,,,,,,,None,j,1.1955249000002368,None,,,,,,136,0,135,705.5649321999999,,,,,,,,,,,,,,,,,,,,,,,,,,,,,,705.5492712999994,705.5649321999999,706.0492514999996,,,,,,,,,,,,,,706.0664355999997,,,,,,,,,,706.0637210999994,706.0664355999997,706.0664355999997,706.0664355999997,709.0652491999999,None,709.0653918999997,709.0813722999992,709.0813722999992,710.2834806999999,j,1.1955249000002368,None,,,,,,,,,,,,,,,00030,001,2025-11-18_16h15.07.638,MST_task,2024.2.0,59.86955621096014,2025-11-18 16h15.14.703549 +0530,
,Objects\163a.jpg,136,0,137,,,,,,,f,None,,,2.6489681000002747,0.21609429999989516,,,,137,0,136,710.2979373999997,,,,,,,,,,,,,,,,,,,,,,,,,,,,,,710.2837757999996,710.2979373999997,710.7826616999992,,,,,,,,,,,,,,710.8039405999998,,,,,,,,,,710.8013327999997,710.8039405999998,710.8039405999998,710.8039405999998,713.7986040999995,f,713.7987692999995,,,713.7988284999992,None,,,2.6489681000002747,0.21609429999989516,,,,,,,,,,,,,00030,001,2025-11-18_16h15.07.638,MST_task,2024.2.0,59.86955621096014,2025-11-18 16h15.14.703549 +0530,
,Objects\096a.jpg,137,0,138,,,,,,,None,f,0.07357390000015585,None,,,,,,138,0,137,713.8148509999992,,,,,,,,,,,,,,,,,,,,,,,,,,,,,,713.7991516999991,713.8148509999992,714.2992680999996,,,,,,,,,,,,,,714.3208083,,,,,,,,,,714.3181087999992,714.3208083,714.3208083,714.3208083,717.3154336999996,None,717.3155865999997,717.3314400999998,717.3314400999998,717.4168862999995,f,0.07357390000015585,None,,,,,,,,,,,,,,,00030,001,2025-11-18_16h15.07.638,MST_task,2024.2.0,59.86955621096014,2025-11-18 16h15.14.703549 +0530,
,Objects\006a.jpg,138,0,139,,,,,,,None,f,0.36059730000033596,None,,,,,,139,0,138,717.4314398999995,,,,,,,,,,,,,,,,,,,,,,,,,,,,,,717.4172241999995,717.4314398999995,717.9162594,,,,,,,,,,,,,,717.9348404999992,,,,,,,,,,717.9321932999992,717.9348404999992,717.9348404999992,717.9348404999992,720.9321682,None,720.9323271999992,720.9480979,720.9480979,721.3165468999996,f,0.36059730000033596,None,,,,,,,,,,,,,,,00030,001,2025-11-18_16h15.07.638,MST_task,2024.2.0,59.86955621096014,2025-11-18 16h15.14.703549 +0530,
,Objects\017a.jpg,139,0,140,,,,,,,None,j,1.6291965999998865,None,,,,,,140,0,139,721.3313760999999,,,,,,,,,,,,,,,,,,,,,,,,,,,,,,721.3169192999994,721.3313760999999,721.8160476999992,,,,,,,,,,,,,,721.8357893999992,,,,,,,,,,721.8331217999994,721.8357893999992,721.8357893999992,721.8357893999992,724.8322104999997,None,724.8323473999999,724.8481923999998,724.8481923999998,726.4835177999994,j,1.6291965999998865,None,,,,,,,,,,,,,,,00030,001,2025-11-18_16h15.07.638,MST_task,2024.2.0,59.86955621096014,2025-11-18 16h15.14.703549 +0530,
,Scenes\002a.jpg,140,0,141,,,,,,,j,None,,,1.988211500000034,0.1747189999996408,,,,141,0,140,726.4980288999996,,,,,,,,,,,,,,,,,,,,,,,,,,,,,,726.4838965999998,726.4980288999996,726.9827664999993,,,,,,,,,,,,,,727.0176827999994,,,,,,,,,,727.0142299999998,727.0176827999994,727.0176827999994,727.0176827999994,729.9986888999993,j,730.0046596999991,,,730.0046945999993,None,,,1.988211500000034,0.1747189999996408,,,,,,,,,,,,,00030,001,2025-11-18_16h15.07.638,MST_task,2024.2.0,59.86955621096014,2025-11-18 16h15.14.703549 +0530,
,Scenes\189a.jpg,141,0,142,,,,,,,None,j,0.23400479999963864,None,,,,,,142,0,141,730.0145972999999,,,,,,,,,,,,,,,,,,,,,,,,,,,,,,730.0049033999994,730.0145972999999,730.4994925999999,,,,,,,,,,,,,,730.5288768999999,,,,,,,,,,730.5255427999991,730.5288768999999,730.5288768999999,730.5288768999999,733.5153676999998,None,733.5155175,733.5312546999994,733.5312546999994,733.7679268999991,j,0.23400479999963864,None,,,,,,,,,,,,,,,00030,001,2025-11-18_16h15.07.638,MST_task,2024.2.0,59.86955621096014,2025-11-18 16h15.14.703549 +0530,
,Scenes\171a.jpg,142,0,143,,,,,,,f,None,,,1.5063067000000956,0.2158169000003909,,,,143,0,142,733.7814638999998,,,,,,,,,,,,,,,,,,,,,,,,,,,,,,733.7682921999995,733.7814638999998,734.2659623999998,,,,,,,,,,,,,,734.2985704999992,,,,,,,,,,734.2950624999994,734.2985704999992,734.2985704999992,734.2985704999992,737.2817774999994,f,737.2818879999995,,,737.2819345999997,None,,,1.5063067000000956,0.2158169000003909,,,,,,,,,,,,,00030,001,2025-11-18_16h15.07.638,MST_task,2024.2.0,59.86955621096014,2025-11-18 16h15.14.703549 +0530,
,Scenes\136a.jpg,143,0,144,,,,,,,f,None,,,1.7985033999993902,0.20812200000000303,,,,144,0,143,737.2980476999992,,,,,,,,,,,,,,,,,,,,,,,,,,,,,,737.2822216999994,737.2980476999992,737.7820933999992,,,,,,,,,,,,,,737.8060114,,,,,,,,,,737.8008813999995,737.8060114,737.8060114,737.8060114,740.7986457999996,f,740.7988298999999,,,740.7988897999994,None,,,1.7985033999993902,0.20812200000000303,,,,,,,,,,,,,00030,001,2025-11-18_16h15.07.638,MST_task,2024.2.0,59.86955621096014,2025-11-18 16h15.14.703549 +0530,
,Scenes\160a.jpg,144,0,145,,,,,,,j,None,,,1.613731800000096,0.3198504000001776,,,,145,0,144,740.8149447999995,,,,,,,,,,,,,,,,,,,,,,,,,,,,,,740.7994344999997,740.8149447999995,741.2990258,,,,,,,,,,,,,,741.3269147999999,,,,,,,,,,741.3235347999998,741.3269147999999,741.3269147999999,741.3269147999999,744.315286,j,744.3154694999994,,,744.3155363999995,None,,,1.613731800000096,0.3198504000001776,,,,,,,,,,,,,00030,001,2025-11-18_16h15.07.638,MST_task,2024.2.0,59.86955621096014,2025-11-18 16h15.14.703549 +0530,
,Scenes\022a.jpg,145,0,146,,,,,,,j,None,,,1.9907352000000174,0.3040656000002855,,,,146,0,145,744.3314102999993,,,,,,,,,,,,,,,,,,,,,,,,,,,,,,744.3159087999993,744.3314102999993,744.8158203999992,,,,,,,,,,,,,,744.8383076,,,,,,,,,,744.8351235,744.8383076,744.8383076,744.8383076,747.8322458999992,j,747.8323990999997,,,747.8324524,None,,,1.9907352000000174,0.3040656000002855,,,,,,,,,,,,,00030,001,2025-11-18_16h15.07.638,MST_task,2024.2.0,59.86955621096014,2025-11-18 16h15.14.703549 +0530,
,Scenes\053a.jpg,146,0,147,,,,,,,None,j,0.2644159999999829,None,,,,,,147,0,146,747.8478691999999,,,,,,,,,,,,,,,,,,,,,,,,,,,,,,747.8328390999995,747.8478691999999,748.3326602999996,,,,,,,,,,,,,,748.3529268999991,,,,,,,,,,748.3498959999997,748.3529268999991,748.3529268999991,748.3529268999991,751.3487763999992,None,751.3489227,751.3648564999994,751.3648564999994,751.6331996999998,j,0.2644159999999829,None,,,,,,,,,,,,,,,00030,001,2025-11-18_16h15.07.638,MST_task,2024.2.0,59.86955621096014,2025-11-18 16h15.14.703549 +0530,
,Objects\037a.jpg,147,0,148,,,,,,,None,f,None,None,,,,,,148,0,147,751.6480483999994,,,,,,,,,,,,,,,,,,,,,,,,,,,,,,751.6335737999998,751.6480483999994,752.1328564999994,,,,,,,,,,,,,,752.1730895999999,,,,,,,,,,752.1699272999995,752.1730895999999,752.1730895999999,752.1730895999999,755.1485761999993,None,755.1553205999999,755.1645884999998,755.1645884999998,755.4167992999992,f,None,None,,,,,,,,,,,,,,,00030,001,2025-11-18_16h15.07.638,MST_task,2024.2.0,59.86955621096014,2025-11-18 16h15.14.703549 +0530,
,Objects\189a.jpg,148,0,149,,,,,,,None,j,0.09648770000057993,None,,,,,,149,0,148,755.4316782999995,,,,,,,,,,,,,,,,,,,,,,,,,,,,,,755.4172266999994,755.4316782999995,755.9162030999996,,,,,,,,,,,,,,755.9355310999999,,,,,,,,,,755.9327884999993,755.9355310999999,755.9355310999999,755.9355310999999,758.9323392999995,None,758.9324812999994,758.9481609999993,758.9481609999993,759.0506786999995,j,0.09648770000057993,None,,,,,,,,,,,,,,,00030,001,2025-11-18_16h15.07.638,MST_task,2024.2.0,59.86955621096014,2025-11-18 16h15.14.703549 +0530,
,Objects\123a.jpg,149,0,150,,,,,,,f,None,,,1.539310199999818,0.3277317000001858,,,,150,0,149,759.0649485999993,,,,,,,,,,,,,,,,,,,,,,,,,,,,,,759.0511588999998,759.0649485999993,759.5496932999995,,,,,,,,,,,,,,759.5697835999999,,,,,,,,,,759.5671278999998,759.5697835999999,759.5697835999999,759.5697835999999,762.5655838999992,f,762.5657453999993,,,762.5658452999996,None,,,1.539310199999818,0.3277317000001858,,,,,,,,,,,,,00030,001,2025-11-18_16h15.07.638,MST_task,2024.2.0,59.86955621096014,2025-11-18 16h15.14.703549 +0530,
,Objects\160a.jpg,150,0,151,,,,,,,f,None,,,2.4158129999996163,0.21542940000017552,,,,151,0,150,762.5814998999995,,,,,,,,,,,,,,,,,,,,,,,,,,,,,,762.5661803999992,762.5814998999995,763.0660939999998,,,,,,,,,,,,,,763.0855877999993,,,,,,,,,,763.0827733999995,763.0855877999993,763.0855877999993,763.0855877999993,766.0822968999992,f,766.0824782999998,,,766.0825338999994,None,,,2.4158129999996163,0.21542940000017552,,,,,,,,,,,,,00030,001,2025-11-18_16h15.07.638,MST_task,2024.2.0,59.86955621096014,2025-11-18 16h15.14.703549 +0530,
,Objects\035a.jpg,151,0,152,,,,,,,f,None,,,2.3261719000001904,0.22458819999974367,,,,152,0,151,766.0981892,,,,,,,,,,,,,,,,,,,,,,,,,,,,,,766.0828367999993,766.0981892,766.5821506999991,,,,,,,,,,,,,,766.5984595999998,,,,,,,,,,766.5957012999997,766.5984595999998,766.5984595999998,766.5984595999998,769.5825768999994,f,769.5826682999996,,,769.5826959999995,None,,,2.3261719000001904,0.22458819999974367,769.5978114,769.5978114,769.5978114,,,,,,,,,,00030,001,2025-11-18_16h15.07.638,MST_task,2024.2.0,59.86955621096014,2025-11-18 16h15.14.703549 +0530,
,Objects\182a.jpg,152,0,153,,,,,,,f,None,,,1.89518070000031,0.23973579999983485,,,,153,0,152,769.5978114,,,,,,,,,,,,,,,,,,,,,,,,,,,,,,769.5828505,769.5978114,770.0827409999993,,,,,,,,,,,,,,770.1020261999993,,,,,,,,,,770.0992591999993,770.1020261999993,770.1020261999993,770.1020261999993,773.0988350999996,f,773.0990146999993,,,773.0990714,None,,,1.89518070000031,0.23973579999983485,,,,,,,,,,,,,00030,001,2025-11-18_16h15.07.638,MST_task,2024.2.0,59.86955621096014,2025-11-18 16h15.14.703549 +0530,
,Objects\048a.jpg,153,0,154,,,,,,,j,None,,,2.202917999999954,0.19145449999996345,,,,154,0,153,773.1148991999999,,,,,,,,,,,,,,,,,,,,,,,,,,,,,,773.0993710999992,773.1148991999999,773.5993511999995,,,,,,,,,,,,,,773.6189983999993,,,,,,,,,,773.6162110999994,773.6189983999993,773.6189983999993,773.6189983999993,776.6149547999994,j,776.6150033999993,,,776.6150161999994,None,,,2.202917999999954,0.19145449999996345,,,,,,,,,,,,,00030,001,2025-11-18_16h15.07.638,MST_task,2024.2.0,59.86955621096014,2025-11-18 16h15.14.703549 +0530,
,Scenes\105a.jpg,154,0,155,,,,,,,j,None,,,1.5463323000003584,0.1284379999997327,,,,155,0,154,776.6312617999993,,,,,,,,,,,,,,,,,,,,,,,,,,,,,,776.6150917999994,776.6312617999993,777.1159162999993,,,,,,,,,,,,,,777.1463771999997,,,,,,,,,,777.1429131999994,777.1463771999997,777.1463771999997,777.1463771999997,780.1154287999998,j,780.1210558999992,,,780.1210911999997,None,,,1.5463323000003584,0.1284379999997327,,,,,,,,,,,,,00030,001,2025-11-18_16h15.07.638,MST_task,2024.2.0,59.86955621096014,2025-11-18 16h15.14.703549 +0530,
,Scenes\049a.jpg,155,0,156,,,,,,,None,j,0.6846724999995786,None,,,,,,156,0,155,780.1313057999996,,,,,,,,,,,,,,,,,,,,,,,,,,,,,,780.1212934999994,780.1313057999996,780.6158439999999,,,,,,,,,,,,,,780.6392619999997,,,,,,,,,,780.6359404999994,780.6392619999997,780.6392619999997,780.6392619999997,783.6315579999991,None,783.6316105999995,783.6480427999995,783.6480427999995,784.3496733999991,j,0.6846724999995786,None,,,,,,,,,,,,,,,00030,001,2025-11-18_16h15.07.638,MST_task,2024.2.0,59.86955621096014,2025-11-18 16h15.14.703549 +0530,
,Scenes\124a.jpg,156,0,157,,,,,,,None,f,1.2191693000004307,None,,,,,,157,0,156,784.3649180999992,,,,,,,,,,,,,,,,,,,,,,,,,,,,,,784.3501523999994,784.3649180999992,784.8492586999992,,,,,,,,,,,,,,784.8713533,,,,,,,,,,784.8685771999999,784.8713533,784.8713533,784.8713533,787.8655408999994,None,787.8656826999995,787.8815366999997,787.8815366999997,789.1166593999997,f,1.2191693000004307,None,,,,,,,,,,,,,,,00030,001,2025-11-18_16h15.07.638,MST_task,2024.2.0,59.86955621096014,2025-11-18 16h15.14.703549 +0530,
,Scenes\115a.jpg,157,0,158,,,,,,,j,None,,,2.061917099999846,0.22449959999994462,,,,158,0,157,789.1314657999992,,,,,,,,,,,,,,,,,,,,,,,,,,,,,,789.1171673999997,789.1314657999992,789.6157441999994,,,,,,,,,,,,,,789.6386653999998,,,,,,,,,,789.6353902999999,789.6386653999998,789.6386653999998,789.6386653999998,792.6319451999998,j,792.6320665999992,,,792.6321085,None,,,2.061917099999846,0.22449959999994462,,,,,,,,,,,,,00030,001,2025-11-18_16h15.07.638,MST_task,2024.2.0,59.86955621096014,2025-11-18 16h15.14.703549 +0530,
,Scenes\070a.jpg,158,0,159,,,,,,,None,f,0.12855710000076215,None,,,,,,159,0,158,792.6479973999994,,,,,,,,,,,,,,,,,,,,,,,,,,,,,,792.6323308999999,792.6479973999994,793.1326071999993,,,,,,,,,,,,,,793.1580366999997,,,,,,,,,,793.1552168999997,793.1580366999997,793.1580366999997,793.1580366999997,796.1485286999996,None,796.1487746999992,796.1647664999991,796.1647664999991,796.3003672999994,f,0.12855710000076215,None,,,,,,,,,,,,,,,00030,001,2025-11-18_16h15.07.638,MST_task,2024.2.0,59.86955621096014,2025-11-18 16h15.14.703549 +0530,
,Scenes\162a.jpg,159,0,160,,,,,,,j,None,,,0.9165292999996382,0.20746560000043246,,,,160,0,159,796.3147663999998,,,,,,,,,,,,,,,,,,,,,,,,,,,,,,796.3008798999999,796.3147663999998,796.7989279999993,,,,,,,,,,,,,,796.8248545999995,,,,,,,,,,796.8214871999999,796.8248545999995,796.8248545999995,796.8248545999995,799.8154845999998,j,799.8156449999997,,,799.8157023999993,None,,,0.9165292999996382,0.20746560000043246,,,,,,,,,,,,,00030,001,2025-11-18_16h15.07.638,MST_task,2024.2.0,59.86955621096014,2025-11-18 16h15.14.703549 +0530,
,Scenes\114a.jpg,160,0,161,,,,,,,f,None,,,1.6451875000002474,0.20762569999988045,,,,161,0,160,799.8315558999993,,,,,,,,,,,,,,,,,,,,,,,,,,,,,,799.8161188999993,799.8315558999993,800.3161338999998,,,,,,,,,,,,,,800.3440228999998,,,,,,,,,,800.3407454999997,800.3440228999998,800.3440228999998,800.3440228999998,803.3321362999995,f,803.3323092999999,,,803.3323664999998,None,,,1.6451875000002474,0.20762569999988045,,,,,,,,,,,,,00030,001,2025-11-18_16h15.07.638,MST_task,2024.2.0,59.86955621096014,2025-11-18 16h15.14.703549 +0530,
,Objects\156a.jpg,161,0,162,,,,,,,None,f,0.34809320000022126,None,,,,,,162,0,161,803.3481844999997,,,,,,,,,,,,,,,,,,,,,,,,,,,,,,803.332813,803.3481844999997,803.8324241999999,,,,,,,,,,,,,,803.8570221,,,,,,,,,,803.8537983999995,803.8570221,803.8570221,803.8570221,806.8486492999991,None,806.8551034999991,806.8647131999996,806.8647131999996,807.2164248999998,f,0.34809320000022126,None,,,,,,,,,,,,,,,00030,001,2025-11-18_16h15.07.638,MST_task,2024.2.0,59.86955621096014,2025-11-18 16h15.14.703549 +0530,
,Objects\086a.jpg,162,0,163,,,,,,,j,None,,,2.9493521000003966,None,,,,163,0,162,807.2315489999992,,,,,,,,,,,,,,,,,,,,,,,,,,,,,,807.2167583999999,807.2315489999992,807.7160928999992,,,,,,,,,,,,,,807.7355914,,,,,,,,,,807.7330945999993,807.7355914,807.7355914,807.7355914,810.7320597999997,j,810.7322267999998,,,810.7322851999998,None,,,2.9493521000003966,None,,,,,,,,,,,,,00030,001,2025-11-18_16h15.07.638,MST_task,2024.2.0,59.86955621096014,2025-11-18 16h15.14.703549 +0530,
,Objects\028a.jpg,163,0,164,,,,,,,j,None,,,2.579917000000023,0.31186090000028344,,,,164,0,163,810.7480071,,,,,,,,,,,,,,,,,,,,,,,,,,,,,,810.7327274999998,810.7480071,811.2330661999995,,,,,,,,,,,,,,811.2494026999993,,,,,,,,,,811.2467103999998,811.2494026999993,811.2494026999993,811.2494026999993,814.2335405999993,j,814.2337152,,,814.2337706999997,None,,,2.579917000000023,0.31186090000028344,814.2482360999993,814.2482360999993,814.2482360999993,,,,,,,,,,00030,001,2025-11-18_16h15.07.638,MST_task,2024.2.0,59.86955621096014,2025-11-18 16h15.14.703549 +0530,
,Objects\172a.jpg,164,0,165,,,,,,,None,j,1.1601000000000568,None,,,,,,165,0,164,814.2482360999993,,,,,,,,,,,,,,,,,,,,,,,,,,,,,,814.2342123999997,814.2482360999993,814.7328197999996,,,,,,,,,,,,,,814.7503640999994,,,,,,,,,,814.7476400999994,814.7503640999994,814.7503640999994,814.7503640999994,817.7488097999994,None,817.7489575,817.7648083999993,817.7648083999993,818.9335323999994,j,1.1601000000000568,None,,,,,,,,,,,,,,,00030,001,2025-11-18_16h15.07.638,MST_task,2024.2.0,59.86955621096014,2025-11-18 16h15.14.703549 +0530,
,Objects\050a.jpg,165,0,166,,,,,,,f,None,,,2.5380246000004263,0.22371949999978824,,,,166,0,165,818.9481459999997,,,,,,,,,,,,,,,,,,,,,,,,,,,,,,818.9339808999994,818.9481459999997,819.4328783999999,,,,,,,,,,,,,,819.4518294999998,,,,,,,,,,819.4493086999992,819.4518294999998,819.4518294999998,819.4518294999998,822.4486150999992,f,822.4487771999993,,,822.4488353999996,None,,,2.5380246000004263,0.22371949999978824,,,,,,,,,,,,,00030,001,2025-11-18_16h15.07.638,MST_task,2024.2.0,59.86955621096014,2025-11-18 16h15.14.703549 +0530,
,Objects\126a.jpg,166,0,167,,,,,,,None,f,1.9110928999998578,None,,,,,,167,0,166,822.4647877999996,,,,,,,,,,,,,,,,,,,,,,,,,,,,,,822.4491308999995,822.4647877999996,822.9491561999994,,,,,,,,,,,,,,822.9697303999992,,,,,,,,,,822.9671606999991,822.9697303999992,822.9697303999992,822.9697303999992,825.9654127999993,None,825.9655561,825.9816160999999,825.9816160999999,827.8998152999993,f,1.9110928999998578,None,,,,,,,,,,,,,,,00030,001,2025-11-18_16h15.07.638,MST_task,2024.2.0,59.86955621096014,2025-11-18 16h15.14.703549 +0530,
,Objects\011a.jpg,167,0,168,,,,,,,f,None,,,2.822749599999952,None,,,,168,0,167,827.9147911999999,,,,,,,,,,,,,,,,,,,,,,,,,,,,,,827.9001568999993,827.9147911999999,828.3981840999995,,,,,,,,,,,,,,828.4151457999997,,,,,,,,,,828.4080059999997,828.4151457999997,828.4151457999997,828.4151457999997,831.3990093999992,f,831.3990873999992,,,831.3991119999991,None,,,2.822749599999952,None,831.4147936999998,831.4147936999998,831.4147936999998,,,,,,,,,,00030,001,2025-11-18_16h15.07.638,MST_task,2024.2.0,59.86955621096014,2025-11-18 16h15.14.703549 +0530,
,Scenes\117a.jpg,168,0,169,,,,,,,j,None,,,1.6012915999999677,0.3042528999994829,,,,169,0,168,831.4147936999998,,,,,,,,,,,,,,,,,,,,,,,,,,,,,,831.3992432999994,831.4147936999998,831.8991053999998,,,,,,,,,,,,,,831.9241066999994,,,,,,,,,,831.9207307999995,831.9241066999994,831.9241066999994,831.9241066999994,834.9153606,j,834.9223484999993,,,834.9224122999995,None,,,1.6012915999999677,0.3042528999994829,,,,,,,,,,,,,00030,001,2025-11-18_16h15.07.638,MST_task,2024.2.0,59.86955621096014,2025-11-18 16h15.14.703549 +0530,
,Scenes\091a.jpg,169,0,170,,,,,,,j,None,,,1.2608712000001105,0.2245238999994399,,,,170,0,169,834.9313238999994,,,,,,,,,,,,,,,,,,,,,,,,,,,,,,834.9228006999992,834.9313238999994,835.4157419999992,,,,,,,,,,,,,,835.4399643999996,,,,,,,,,,835.4367162999997,835.4399643999996,835.4399643999996,835.4399643999996,838.4323984999992,j,838.4325734999993,,,838.4326357,None,,,1.2608712000001105,0.2245238999994399,,,,,,,,,,,,,00030,001,2025-11-18_16h15.07.638,MST_task,2024.2.0,59.86955621096014,2025-11-18 16h15.14.703549 +0530,
,Scenes\184a.jpg,170,0,171,,,,,,,None,j,0.05668400000013207,None,,,,,,171,0,170,838.4479392999992,,,,,,,,,,,,,,,,,,,,,,,,,,,,,,838.4330616999996,838.4479392999992,838.9330348999993,,,,,,,,,,,,,,838.9568698999992,,,,,,,,,,838.9536412999996,838.9568698999992,838.9568698999992,838.9568698999992,841.9486373999998,None,841.9487805999997,841.9648516999996,841.9648516999996,842.0333622999997,j,0.05668400000013207,None,,,,,,,,,,,,,,,00030,001,2025-11-18_16h15.07.638,MST_task,2024.2.0,59.86955621096014,2025-11-18 16h15.14.703549 +0530,
,Scenes\016a.jpg,171,0,172,,,,,,,j,None,,,2.7472554000005402,0.1997812999998132,,,,172,0,171,842.048049,,,,,,,,,,,,,,,,,,,,,,,,,,,,,,842.0337420999995,842.048049,842.5326230999999,,,,,,,,,,,,,,842.5535252999998,,,,,,,,,,842.5504431999998,842.5535252999998,842.5535252999998,842.5535252999998,845.5487815999995,j,845.5489484,,,845.549008,None,,,2.7472554000005402,0.1997812999998132,,,,,,,,,,,,,00030,001,2025-11-18_16h15.07.638,MST_task,2024.2.0,59.86955621096014,2025-11-18 16h15.14.703549 +0530,
,Scenes\018a.jpg,172,0,173,,,,,,,f,None,,,2.8142602999996598,None,,,,173,0,172,845.5648236999996,,,,,,,,,,,,,,,,,,,,,,,,,,,,,,845.5494341999993,845.5648236999996,846.0492757999991,,,,,,,,,,,,,,846.070401,,,,,,,,,,846.0673382999994,846.070401,846.070401,846.070401,849.0653741999995,f,849.0655340999992,,,849.0655912999991,None,,,2.8142602999996598,None,,,,,,,,,,,,,00030,001,2025-11-18_16h15.07.638,MST_task,2024.2.0,59.86955621096014,2025-11-18 16h15.14.703549 +0530,
,Scenes\102a.jpg,173,0,174,,,,,,,None,f,0.8463896000002933,None,,,,,,174,0,173,849.0815466999993,,,,,,,,,,,,,,,,,,,,,,,,,,,,,,849.0658620999993,849.0815466999993,849.5662459999994,,,,,,,,,,,,,,849.5953958999999,,,,,,,,,,849.5921591999995,849.5953958999999,849.5953958999999,849.5953958999999,852.5820076,None,852.5821208999996,852.5982035999996,852.5982035999996,853.4502675999993,f,0.8463896000002933,None,,,,,,,,,,,,,,,00030,001,2025-11-18_16h15.07.638,MST_task,2024.2.0,59.86955621096014,2025-11-18 16h15.14.703549 +0530,
