thisN,thisTrialN,thisRepN,key_resp_3.keys,key_resp_3.rt,key_resp_3.duration,trials.thisRepN,trials.thisTrialN,trials.thisN,thisRow.t,notes,intro_page.started,text.started,key_resp.started,intro_page.stopped,key_resp.keys,key_resp.rt,key_resp.duration,instructions.started,text_2.started,key_resp_2.started,instructions.stopped,key_resp_2.keys,key_resp_2.rt,key_resp_2.duration,demo1.started,image_1.started,image_2.started,text_7.started,key_resp_6.started,text_9.started,demo1.stopped,key_resp_6.keys,key_resp_6.rt,key_resp_6.duration,demo2.started,image_5.started,image_6.started,text_11.started,text_12.started,key_resp_8.started,demo2.stopped,key_resp_8.keys,key_resp_8.rt,key_resp_8.duration,demo_conclusion.started,text_13.started,key_resp_9.started,demo_conclusion.stopped,key_resp_9.keys,key_resp_9.rt,key_resp_9.duration,start_test.started,text_6.started,key_resp_5.started,start_test.stopped,key_resp_5.keys,key_resp_5.rt,key_resp_5.duration,ISI.started,text_4.started,ISI.stopped,routine_1.started,image.started,text_3.started,key_resp_3.started,routine_1.stopped,image_path,position_of_stimuli,trials.key_resp_3.keys,trials.key_resp_3.rt,trials.key_resp_3.duration,End_page.started,text_5.started,key_resp_4.started,End_page.stopped,key_resp_4.keys,key_resp_4.rt,key_resp_4.duration,participant,session,date,expName,psychopyVersion,frameRate,expStart,
,,,,,,,,,,,0.004841500020120293,0.02090270002372563,0.02090270002372563,5.661111399997026,space,5.630591400025878,None,,,,,,,,,,,,,,,,,,,,,,,,,,,,,,,,,,,,,,,,,,,,,,,,,,,,,,,,,,,,,,00039,001,2026-01-17_11h12.14.726,MST_test,2024.2.0,59.85131736098933,2026-01-17 11h12.30.524917 +0530,
,,,,,,,,,,,,,,,,,,5.661146600032225,5.67610840004636,5.67610840004636,24.308501399995293,space,18.615388000034727,None,,,,,,,,,,,,,,,,,,,,,,,,,,,,,,,,,,,,,,,,,,,,,,,,,,,,,,,00039,001,2026-01-17_11h12.14.726,MST_test,2024.2.0,59.85131736098933,2026-01-17 11h12.30.524917 +0530,
,,,,,,,,,,,,,,,,,,,,,,,,,24.30852890003007,24.324480700015556,24.324480700015556,24.324480700015556,24.324480700015556,24.324480700015556,28.47307520004688,space,4.134729699988384,None,,,,,,,,,,,,,,,,,,,,,,,,,,,,,,,,,,,,,,,,,,,,,00039,001,2026-01-17_11h12.14.726,MST_test,2024.2.0,59.85131736098933,2026-01-17 11h12.30.524917 +0530,
,,,,,,,,,,,,,,,,,,,,,,,,,,,,,,,,,,,28.473102600022685,28.489168100000825,28.489168100000825,28.489168100000825,28.489168100000825,28.489168100000825,30.597246000019368,space,2.105741899984423,None,,,,,,,,,,,,,,,,,,,,,,,,,,,,,,,,,,,00039,001,2026-01-17_11h12.14.726,MST_test,2024.2.0,59.85131736098933,2026-01-17 11h12.30.524917 +0530,
,,,,,,,,,,,,,,,,,,,,,,,,,,,,,,,,,,,,,,,,,,,,,30.597276100015733,30.61315560003277,30.61315560003277,60.53529200004414,space,29.910055099986494,None,,,,,,,,,,,,,,,,,,,,,,,,,,,,00039,001,2026-01-17_11h12.14.726,MST_test,2024.2.0,59.85131736098933,2026-01-17 11h12.30.524917 +0530,
,,,,,,,,,,,,,,,,,,,,,,,,,,,,,,,,,,,,,,,,,,,,,,,,,,,,60.53532379999524,60.55101630004356,60.55101630004356,80.00330209999811,space,19.444236000010278,None,,,,,,,,,,,,,,,,,,,,,00039,001,2026-01-17_11h12.14.726,MST_test,2024.2.0,59.85131736098933,2026-01-17 11h12.30.524917 +0530,
0,0,1,n,7.0726464000181295,None,1,0,0,80.01974950003205,,,,,,,,,,,,,,,,,,,,,,,,,,,,,,,,,,,,,,,,,,,,,,,,,,80.00636860000668,80.01974950003205,80.5046263000113,80.52579610003158,80.53888150001876,80.53888150001876,80.53888150001876,87.6134916000301,Objects\159b.jpg,mid,n,7.0726464000181295,None,,,,,,,,00039,001,2026-01-17_11h12.14.726,MST_test,2024.2.0,59.85131736098933,2026-01-17 11h12.30.524917 +0530,
1,0,2,n,7.751108500000555,None,2,0,1,87.62973310000962,,,,,,,,,,,,,,,,,,,,,,,,,,,,,,,,,,,,,,,,,,,,,,,,,,87.61358840001049,87.62973310000962,88.11459820001619,88.12547170004109,88.14810670004226,88.14810670004226,88.14810670004226,95.90900480002165,Foils\090a.jpg,none,n,7.751108500000555,None,,,,,,,,00039,001,2026-01-17_11h12.14.726,MST_test,2024.2.0,59.85131736098933,2026-01-17 11h12.30.524917 +0530,
2,0,3,n,3.662231999973301,None,3,0,2,95.92498370003887,,,,,,,,,,,,,,,,,,,,,,,,,,,,,,,,,,,,,,,,,,,,,,,,,,95.90910330001498,95.92498370003887,96.41013030003523,96.44021710002562,96.46135240001604,96.46135240001604,96.46135240001604,100.14029860001756,Scenes\090b.jpg,mid,n,3.662231999973301,None,,,,,,,,00039,001,2026-01-17_11h12.14.726,MST_test,2024.2.0,59.85131736098933,2026-01-17 11h12.30.524917 +0530,
3,0,4,o,56.58426039997721,None,4,0,3,100.1564050000161,,,,,,,,,,,,,,,,,,,,,,,,,,,,,,,,,,,,,,,,,,,,,,,,,,100.14040130004287,100.1564050000161,100.64162579999538,100.6642801000271,100.67497250001179,100.67497250001179,100.67497250001179,157.2736903000041,Objects\101b.jpg,mid,o,56.58426039997721,None,,,,,,,,00039,001,2026-01-17_11h12.14.726,MST_test,2024.2.0,59.85131736098933,2026-01-17 11h12.30.524917 +0530,
4,0,5,o,2.3800628999597393,None,5,0,4,157.28989270003513,,,,,,,,,,,,,,,,,,,,,,,,,,,,,,,,,,,,,,,,,,,,,,,,,,157.27380030002678,157.28989270003513,157.7750129000051,157.7889497000142,157.8083792999969,157.8083792999969,157.8083792999969,160.2006609000382,Objects\130a.jpg,pre,o,2.3800628999597393,None,,,,,,,,00039,001,2026-01-17_11h12.14.726,MST_test,2024.2.0,59.85131736098933,2026-01-17 11h12.30.524917 +0530,
5,0,6,s,3.1247335000080056,None,6,0,5,160.21674260002328,,,,,,,,,,,,,,,,,,,,,,,,,,,,,,,,,,,,,,,,,,,,,,,,,,160.20075459999498,160.21674260002328,160.70192650001263,160.72532520000823,160.7351908000419,160.7351908000419,160.7351908000419,163.8634996000328,Objects\064b.jpg,pre,s,3.1247335000080056,None,,,,,,,,00039,001,2026-01-17_11h12.14.726,MST_test,2024.2.0,59.85131736098933,2026-01-17 11h12.30.524917 +0530,
6,0,7,o,1.3084045000141487,None,7,0,6,163.8801849000156,,,,,,,,,,,,,,,,,,,,,,,,,,,,,,,,,,,,,,,,,,,,,,,,,,163.86359830002766,163.8801849000156,164.3650960000232,164.3933732000296,164.41499660001136,164.41499660001136,164.41499660001136,165.73650550004095,Scenes\029b.jpg,post,o,1.3084045000141487,None,,,,,,,,00039,001,2026-01-17_11h12.14.726,MST_test,2024.2.0,59.85131736098933,2026-01-17 11h12.30.524917 +0530,
7,0,8,o,2.955951099982485,None,8,0,7,165.7529046999989,,,,,,,,,,,,,,,,,,,,,,,,,,,,,,,,,,,,,,,,,,,,,,,,,,165.73659810004756,165.7529046999989,166.23786130000371,166.26076450000983,166.27151690004393,166.27151690004393,166.27151690004393,169.23208099999465,Scenes\147b.jpg,pre,o,2.955951099982485,None,,,,,,,,00039,001,2026-01-17_11h12.14.726,MST_test,2024.2.0,59.85131736098933,2026-01-17 11h12.30.524917 +0530,
8,0,9,n,1.259488700015936,None,9,0,8,169.24836210004287,,,,,,,,,,,,,,,,,,,,,,,,,,,,,,,,,,,,,,,,,,,,,,,,,,169.23217540001497,169.24836210004287,169.73356459999923,169.76787370000966,169.78436930000316,169.78436930000316,169.78436930000316,171.0552052000421,Foils\scenes28.jpg,none,n,1.259488700015936,None,,,,,,,,00039,001,2026-01-17_11h12.14.726,MST_test,2024.2.0,59.85131736098933,2026-01-17 11h12.30.524917 +0530,
9,0,10,o,3.2357447000104003,None,10,0,9,171.07153300003847,,,,,,,,,,,,,,,,,,,,,,,,,,,,,,,,,,,,,,,,,,,,,,,,,,171.05529930000193,171.07153300003847,171.55719160003355,171.58136810001452,171.60751100000925,171.60751100000925,171.60751100000925,174.8517348000314,Scenes\042b.jpg,mid,o,3.2357447000104003,None,,,,,,,,00039,001,2026-01-17_11h12.14.726,MST_test,2024.2.0,59.85131736098933,2026-01-17 11h12.30.524917 +0530,
10,0,11,o,1.4783407999784686,None,11,0,10,174.86816250003176,,,,,,,,,,,,,,,,,,,,,,,,,,,,,,,,,,,,,,,,,,,,,,,,,,174.85184519999893,174.86816250003176,175.3537811000133,175.37852740002563,175.4043459999957,175.4043459999957,175.4043459999957,176.89242899999954,Scenes\095b.jpg,post,o,1.4783407999784686,None,,,,,,,,00039,001,2026-01-17_11h12.14.726,MST_test,2024.2.0,59.85131736098933,2026-01-17 11h12.30.524917 +0530,
11,0,12,s,2.135607600037474,None,12,0,11,176.90852040000027,,,,,,,,,,,,,,,,,,,,,,,,,,,,,,,,,,,,,,,,,,,,,,,,,,176.89252809999743,176.90852040000027,177.39388040004997,177.41819950001081,177.42805940000108,177.42805940000108,177.42805940000108,179.56835880002473,Objects\005b.jpg,post,s,2.135607600037474,None,,,,,,,,00039,001,2026-01-17_11h12.14.726,MST_test,2024.2.0,59.85131736098933,2026-01-17 11h12.30.524917 +0530,
12,0,13,o,4.6602308000437915,None,13,0,12,179.5845457999967,,,,,,,,,,,,,,,,,,,,,,,,,,,,,,,,,,,,,,,,,,,,,,,,,,179.5684551000013,179.5845457999967,180.0699857000145,180.09645250003086,180.10320599999977,180.10320599999977,180.10320599999977,184.7701808999991,Scenes\014b.jpg,mid,o,4.6602308000437915,None,,,,,,,,00039,001,2026-01-17_11h12.14.726,MST_test,2024.2.0,59.85131736098933,2026-01-17 11h12.30.524917 +0530,
13,0,14,s,1.427128100011032,None,14,0,13,184.7862349000061,,,,,,,,,,,,,,,,,,,,,,,,,,,,,,,,,,,,,,,,,,,,,,,,,,184.7702777000377,184.7862349000061,185.27119759999914,185.29362510005012,185.30468170001404,185.30468170001404,185.30468170001404,186.74389320000773,Objects\019b.jpg,post,s,1.427128100011032,None,,,,,,,,00039,001,2026-01-17_11h12.14.726,MST_test,2024.2.0,59.85131736098933,2026-01-17 11h12.30.524917 +0530,
14,0,15,o,1.4112842999747954,None,15,0,14,186.75982960005058,,,,,,,,,,,,,,,,,,,,,,,,,,,,,,,,,,,,,,,,,,,,,,,,,,186.74399879999692,186.75982960005058,187.24547970003914,187.26020870002685,187.27950040000724,187.27950040000724,187.27950040000724,188.70122450002236,Scenes\077a.jpg,post,o,1.4112842999747954,None,,,,,,,,00039,001,2026-01-17_11h12.14.726,MST_test,2024.2.0,59.85131736098933,2026-01-17 11h12.30.524917 +0530,
15,0,16,s,6.816256199963391,None,16,0,15,188.7165767000406,,,,,,,,,,,,,,,,,,,,,,,,,,,,,,,,,,,,,,,,,,,,,,,,,,188.7013364000013,188.7165767000406,189.20175080001354,189.22343120002188,189.23510600003647,189.23510600003647,189.23510600003647,196.05947229999583,Objects\155b.jpg,mid,s,6.816256199963391,None,,,,,,,,00039,001,2026-01-17_11h12.14.726,MST_test,2024.2.0,59.85131736098933,2026-01-17 11h12.30.524917 +0530,
16,0,17,s,4.736643599986564,None,17,0,16,196.0756441000267,,,,,,,,,,,,,,,,,,,,,,,,,,,,,,,,,,,,,,,,,,,,,,,,,,196.05956870003138,196.0756441000267,196.56086700002197,196.58271990000503,196.59409640001832,196.59409640001832,196.59409640001832,201.34473270003218,Scenes\173b.jpg,post,s,4.736643599986564,None,,,,,,,,00039,001,2026-01-17_11h12.14.726,MST_test,2024.2.0,59.85131736098933,2026-01-17 11h12.30.524917 +0530,
17,0,18,o,1.1153323000180535,None,18,0,17,201.36094690003665,,,,,,,,,,,,,,,,,,,,,,,,,,,,,,,,,,,,,,,,,,,,,,,,,,201.34483390004607,201.36094690003665,201.8460146000143,201.86075849999906,201.87938009999925,201.87938009999925,201.87938009999925,203.00046090001706,Objects\123a.jpg,mid,o,1.1153323000180535,None,,,,,,,,00039,001,2026-01-17_11h12.14.726,MST_test,2024.2.0,59.85131736098933,2026-01-17 11h12.30.524917 +0530,
18,0,19,o,0.9479410000494681,None,19,0,18,203.01673800003482,,,,,,,,,,,,,,,,,,,,,,,,,,,,,,,,,,,,,,,,,,,,,,,,,,203.00056180002866,203.01673800003482,203.50170260004234,203.51566190004814,203.53517040004954,203.53517040004954,203.53517040004954,204.4896259000525,Scenes\138a.jpg,pre,o,0.9479410000494681,None,,,,,,,,00039,001,2026-01-17_11h12.14.726,MST_test,2024.2.0,59.85131736098933,2026-01-17 11h12.30.524917 +0530,
19,0,20,o,1.099651199998334,None,20,0,19,204.50528820004547,,,,,,,,,,,,,,,,,,,,,,,,,,,,,,,,,,,,,,,,,,,,,,,,,,204.48973329999717,204.50528820004547,204.99023759999545,205.0083279000246,205.02359470003285,205.02359470003285,205.02359470003285,206.12822730001062,Scenes\114a.jpg,mid,o,1.099651199998334,None,,,,,,,,00039,001,2026-01-17_11h12.14.726,MST_test,2024.2.0,59.85131736098933,2026-01-17 11h12.30.524917 +0530,
20,0,21,o,1.0042201000032946,None,21,0,20,206.14451970002847,,,,,,,,,,,,,,,,,,,,,,,,,,,,,,,,,,,,,,,,,,,,,,,,,,206.1283306000405,206.14451970002847,206.62934830004815,206.64718750002794,206.66267170000356,206.66267170000356,206.66267170000356,207.68358530005207,Scenes\063a.jpg,mid,o,1.0042201000032946,None,,,,,,,,00039,001,2026-01-17_11h12.14.726,MST_test,2024.2.0,59.85131736098933,2026-01-17 11h12.30.524917 +0530,
21,0,22,o,1.7938492999528535,None,22,0,21,207.699759500043,,,,,,,,,,,,,,,,,,,,,,,,,,,,,,,,,,,,,,,,,,,,,,,,,,207.68368680001004,207.699759500043,208.18507100001443,208.20864460000303,208.21824870002456,208.21824870002456,208.21824870002456,210.0250139000127,Objects\100b.jpg,post,o,1.7938492999528535,None,,,,,,,,00039,001,2026-01-17_11h12.14.726,MST_test,2024.2.0,59.85131736098933,2026-01-17 11h12.30.524917 +0530,
22,0,23,o,0.6913167999591678,None,23,0,22,210.0412195000099,,,,,,,,,,,,,,,,,,,,,,,,,,,,,,,,,,,,,,,,,,,,,,,,,,210.02512610005215,210.0412195000099,210.5264048000099,210.5403929000022,210.55965550005203,210.55965550005203,210.55965550005203,211.26252119999845,Objects\055a.jpg,mid,o,0.6913167999591678,None,,,,,,,,00039,001,2026-01-17_11h12.14.726,MST_test,2024.2.0,59.85131736098933,2026-01-17 11h12.30.524917 +0530,
23,0,24,o,10.030102499993518,None,24,0,23,211.27917250001337,,,,,,,,,,,,,,,,,,,,,,,,,,,,,,,,,,,,,,,,,,,,,,,,,,211.26262340001995,211.27917250001337,211.76409020001302,211.78785880003124,211.79744380002376,211.79744380002376,211.79744380002376,221.83318150002742,Scenes\097b.jpg,mid,o,10.030102499993518,None,,,,,,,,00039,001,2026-01-17_11h12.14.726,MST_test,2024.2.0,59.85131736098933,2026-01-17 11h12.30.524917 +0530,
24,0,25,n,1.1383478999487124,None,25,0,24,221.84923970000818,,,,,,,,,,,,,,,,,,,,,,,,,,,,,,,,,,,,,,,,,,,,,,,,,,221.83328640001127,221.84923970000818,222.33443320001243,222.35526830004528,222.36846210004296,222.36846210004296,222.36846210004296,223.5222042000387,Foils\scenes12.jpg,none,n,1.1383478999487124,None,,,,,,,,00039,001,2026-01-17_11h12.14.726,MST_test,2024.2.0,59.85131736098933,2026-01-17 11h12.30.524917 +0530,
25,0,26,s,1.4495854999986477,None,26,0,25,223.53849260002607,,,,,,,,,,,,,,,,,,,,,,,,,,,,,,,,,,,,,,,,,,,,,,,,,,223.522325500031,223.53849260002607,224.02368420001585,224.04478510003537,224.05786450003507,224.05786450003507,224.05786450003507,225.51267570001073,Scenes\154b.jpg,pre,s,1.4495854999986477,None,,,,,,,,00039,001,2026-01-17_11h12.14.726,MST_test,2024.2.0,59.85131736098933,2026-01-17 11h12.30.524917 +0530,
26,0,27,o,1.1475092000328004,None,27,0,26,225.52895940002054,,,,,,,,,,,,,,,,,,,,,,,,,,,,,,,,,,,,,,,,,,,,,,,,,,225.51278660004027,225.52895940002054,226.01447130000452,226.0336463000276,226.04789109999547,226.04789109999547,226.04789109999547,227.20215810002992,Foils\scenes1.jpg,none,o,1.1475092000328004,None,,,,,,,,00039,001,2026-01-17_11h12.14.726,MST_test,2024.2.0,59.85131736098933,2026-01-17 11h12.30.524917 +0530,
27,0,28,o,1.2018253999995068,None,28,0,27,227.2181583000347,,,,,,,,,,,,,,,,,,,,,,,,,,,,,,,,,,,,,,,,,,,,,,,,,,227.2022541000042,227.2181583000347,227.7031144000357,227.72519560001092,227.73736490000738,227.73736490000738,227.73736490000738,228.94138160004513,Scenes\001a.jpg,pre,o,1.2018253999995068,None,,,,,,,,00039,001,2026-01-17_11h12.14.726,MST_test,2024.2.0,59.85131736098933,2026-01-17 11h12.30.524917 +0530,
28,0,29,s,4.800084299989976,None,29,0,28,228.95745440002065,,,,,,,,,,,,,,,,,,,,,,,,,,,,,,,,,,,,,,,,,,,,,,,,,,228.94153350003762,228.95745440002065,229.4426683000056,229.463732800039,229.47686530003557,229.47686530003557,229.47686530003557,234.29329900001176,Objects\033b.jpg,mid,s,4.800084299989976,None,,,,,,,,00039,001,2026-01-17_11h12.14.726,MST_test,2024.2.0,59.85131736098933,2026-01-17 11h12.30.524917 +0530,
29,0,30,o,0.9509269000263885,None,30,0,29,234.30946710001444,,,,,,,,,,,,,,,,,,,,,,,,,,,,,,,,,,,,,,,,,,,,,,,,,,234.29340510000475,234.30946710001444,234.79474010004196,234.80867570004193,234.82884880003985,234.82884880003985,234.82884880003985,235.78221020003548,Scenes\160a.jpg,pre,o,0.9509269000263885,None,,,,,,,,00039,001,2026-01-17_11h12.14.726,MST_test,2024.2.0,59.85131736098933,2026-01-17 11h12.30.524917 +0530,
30,0,31,o,0.9747554999776185,None,31,0,30,235.79808370000683,,,,,,,,,,,,,,,,,,,,,,,,,,,,,,,,,,,,,,,,,,,,,,,,,,235.78230580000672,235.79808370000683,236.2832755999989,236.29743480001343,236.3166429999983,236.3166429999983,236.3166429999983,237.30397980002454,Objects\117a.jpg,post,o,0.9747554999776185,None,,,,,,,,00039,001,2026-01-17_11h12.14.726,MST_test,2024.2.0,59.85131736098933,2026-01-17 11h12.30.524917 +0530,
31,0,32,s,1.3956189000164159,None,32,0,31,237.32008030003635,,,,,,,,,,,,,,,,,,,,,,,,,,,,,,,,,,,,,,,,,,,,,,,,,,237.30407970002852,237.32008030003635,237.8054078000132,237.82090849999804,237.83955510001397,237.83955510001397,237.83955510001397,239.24419040000066,Scenes\188a.jpg,mid,s,1.3956189000164159,None,,,,,,,,00039,001,2026-01-17_11h12.14.726,MST_test,2024.2.0,59.85131736098933,2026-01-17 11h12.30.524917 +0530,
32,0,33,s,2.007132600003388,None,33,0,32,239.26032830000622,,,,,,,,,,,,,,,,,,,,,,,,,,,,,,,,,,,,,,,,,,,,,,,,,,239.2443005000241,239.26032830000622,239.7453093000222,239.76423040003283,239.77955090004252,239.77955090004252,239.77955090004252,241.80304650001926,Foils\scenes19.jpg,none,s,2.007132600003388,None,,,,,,,,00039,001,2026-01-17_11h12.14.726,MST_test,2024.2.0,59.85131736098933,2026-01-17 11h12.30.524917 +0530,
33,0,34,n,4.751599700015504,None,34,0,33,241.8193252000492,,,,,,,,,,,,,,,,,,,,,,,,,,,,,,,,,,,,,,,,,,,,,,,,,,241.80313910002587,241.8193252000492,242.30457840004237,242.33251060004113,242.35534360003658,242.35534360003658,242.35534360003658,247.12160970002878,Scenes\062b.jpg,pre,n,4.751599700015504,None,,,,,,,,00039,001,2026-01-17_11h12.14.726,MST_test,2024.2.0,59.85131736098933,2026-01-17 11h12.30.524917 +0530,
34,0,35,o,0.986441700020805,None,35,0,34,247.13779830001295,,,,,,,,,,,,,,,,,,,,,,,,,,,,,,,,,,,,,,,,,,,,,,,,,,247.12170660000993,247.13779830001295,247.6230099000386,247.63080159999663,247.65623530000448,247.65623530000448,247.65623530000448,248.64369310002076,Scenes\055a.jpg,post,o,0.986441700020805,None,,,,,,,,00039,001,2026-01-17_11h12.14.726,MST_test,2024.2.0,59.85131736098933,2026-01-17 11h12.30.524917 +0530,
35,0,36,n,1.2313795000081882,None,36,0,35,248.65994320000755,,,,,,,,,,,,,,,,,,,,,,,,,,,,,,,,,,,,,,,,,,,,,,,,,,248.64379460003693,248.65994320000755,249.14501310000196,249.16710220003733,249.17942860000767,249.17942860000767,249.17942860000767,250.4172601000173,Foils\098a.jpg,none,n,1.2313795000081882,None,,,,,,,,00039,001,2026-01-17_11h12.14.726,MST_test,2024.2.0,59.85131736098933,2026-01-17 11h12.30.524917 +0530,
36,0,37,n,3.379487700003665,None,37,0,36,250.4327211000491,,,,,,,,,,,,,,,,,,,,,,,,,,,,,,,,,,,,,,,,,,,,,,,,,,250.41735960001824,250.4327211000491,250.91789360000985,250.93530750001082,250.95188730000518,250.95188730000518,250.95188730000518,254.34707780001918,Foils\scenes6.jpg,none,n,3.379487700003665,None,,,,,,,,00039,001,2026-01-17_11h12.14.726,MST_test,2024.2.0,59.85131736098933,2026-01-17 11h12.30.524917 +0530,
37,0,38,o,3.7055989999789745,None,38,0,37,254.3631061000051,,,,,,,,,,,,,,,,,,,,,,,,,,,,,,,,,,,,,,,,,,,,,,,,,,254.34717750002164,254.3631061000051,254.84860800002934,254.87170489999698,254.88170790002914,254.88170790002914,254.88170790002914,258.59527250000974,Objects\138b.jpg,pre,o,3.7055989999789745,None,,,,,,,,00039,001,2026-01-17_11h12.14.726,MST_test,2024.2.0,59.85131736098933,2026-01-17 11h12.30.524917 +0530,
38,0,39,s,2.9189482999499887,None,39,0,38,258.61142580001615,,,,,,,,,,,,,,,,,,,,,,,,,,,,,,,,,,,,,,,,,,,,,,,,,,258.59537110000383,258.61142580001615,259.09639900003094,259.1223313000519,259.14763300004415,259.14763300004415,259.14763300004415,262.07397210004274,Scenes\035b.jpg,mid,s,2.9189482999499887,None,,,,,,,,00039,001,2026-01-17_11h12.14.726,MST_test,2024.2.0,59.85131736098933,2026-01-17 11h12.30.524917 +0530,
39,0,40,o,1.1619831999996677,None,40,0,39,262.0902649000054,,,,,,,,,,,,,,,,,,,,,,,,,,,,,,,,,,,,,,,,,,,,,,,,,,262.074072300049,262.0902649000054,262.57532260002336,262.58972980000544,262.6086552000488,262.6086552000488,262.6086552000488,263.78012830001535,Objects\115a.jpg,mid,o,1.1619831999996677,None,,,,,,,,00039,001,2026-01-17_11h12.14.726,MST_test,2024.2.0,59.85131736098933,2026-01-17 11h12.30.524917 +0530,
40,0,41,n,1.3032562999869697,None,41,0,40,263.79638050001813,,,,,,,,,,,,,,,,,,,,,,,,,,,,,,,,,,,,,,,,,,,,,,,,,,263.7802280000178,263.79638050001813,264.28121109999483,264.30070479999995,264.3153205999988,264.3153205999988,264.3153205999988,265.6198011000524,Foils\scenes7.jpg,none,n,1.3032562999869697,None,,,,,,,,00039,001,2026-01-17_11h12.14.726,MST_test,2024.2.0,59.85131736098933,2026-01-17 11h12.30.524917 +0530,
41,0,42,o,1.4961833999841474,None,42,0,41,265.6359180000145,,,,,,,,,,,,,,,,,,,,,,,,,,,,,,,,,,,,,,,,,,,,,,,,,,265.61990040005185,265.6359180000145,266.1211108000134,266.1358202000265,266.1544073999976,266.1544073999976,266.1544073999976,267.6602830000338,Objects\034a.jpg,pre,o,1.4961833999841474,None,,,,,,,,00039,001,2026-01-17_11h12.14.726,MST_test,2024.2.0,59.85131736098933,2026-01-17 11h12.30.524917 +0530,
42,0,43,s,1.9425992000033148,None,43,0,42,267.67664940003306,,,,,,,,,,,,,,,,,,,,,,,,,,,,,,,,,,,,,,,,,,,,,,,,,,267.6603783000028,267.67664940003306,268.16151500004344,268.18295280000893,268.1960729000275,268.1960729000275,268.1960729000275,270.1522726000403,Scenes\153b.jpg,pre,s,1.9425992000033148,None,,,,,,,,00039,001,2026-01-17_11h12.14.726,MST_test,2024.2.0,59.85131736098933,2026-01-17 11h12.30.524917 +0530,
43,0,44,o,1.1245324999908917,None,44,0,43,270.1685708000441,,,,,,,,,,,,,,,,,,,,,,,,,,,,,,,,,,,,,,,,,,,,,,,,,,270.1523647000431,270.1685708000441,270.6535315000219,270.66822660004254,270.6868958999985,270.6868958999985,270.6868958999985,271.8248198000365,Objects\066a.jpg,pre,o,1.1245324999908917,None,,,,,,,,00039,001,2026-01-17_11h12.14.726,MST_test,2024.2.0,59.85131736098933,2026-01-17 11h12.30.524917 +0530,
44,0,45,n,2.667066900001373,None,45,0,44,271.8410823000013,,,,,,,,,,,,,,,,,,,,,,,,,,,,,,,,,,,,,,,,,,,,,,,,,,271.82491880003363,271.8410823000013,272.32604630000424,272.3469197000377,272.3595303000184,272.3595303000184,272.3595303000184,275.0361727999989,Foils\086a.jpg,none,n,2.667066900001373,None,,,,,,,,00039,001,2026-01-17_11h12.14.726,MST_test,2024.2.0,59.85131736098933,2026-01-17 11h12.30.524917 +0530,
45,0,46,o,1.0570351000060327,None,46,0,45,275.0523448000313,,,,,,,,,,,,,,,,,,,,,,,,,,,,,,,,,,,,,,,,,,,,,,,,,,275.03627100004815,275.0523448000313,275.5372961999965,275.5513610000489,275.57087410002714,275.57087410002714,275.57087410002714,276.64183650002815,Objects\182a.jpg,pre,o,1.0570351000060327,None,,,,,,,,00039,001,2026-01-17_11h12.14.726,MST_test,2024.2.0,59.85131736098933,2026-01-17 11h12.30.524917 +0530,
46,0,47,o,2.810987400007434,None,47,0,46,276.6578306000447,,,,,,,,,,,,,,,,,,,,,,,,,,,,,,,,,,,,,,,,,,,,,,,,,,276.64196300000185,276.6578306000447,277.14302170003066,277.16622410004493,277.17635240004165,277.17635240004165,277.17635240004165,280.0034522000351,Objects\025b.jpg,pre,o,2.810987400007434,None,,,,,,,,00039,001,2026-01-17_11h12.14.726,MST_test,2024.2.0,59.85131736098933,2026-01-17 11h12.30.524917 +0530,
47,0,48,n,1.350955400033854,None,48,0,47,280.01961810002103,,,,,,,,,,,,,,,,,,,,,,,,,,,,,,,,,,,,,,,,,,,,,,,,,,280.00355320004746,280.01961810002103,280.5049931000103,280.53640840004664,280.55567130004056,280.55567130004056,280.55567130004056,281.91009890002897,Foils\scenes27.jpg,none,n,1.350955400033854,None,,,,,,,,00039,001,2026-01-17_11h12.14.726,MST_test,2024.2.0,59.85131736098933,2026-01-17 11h12.30.524917 +0530,
48,0,49,n,2.3353004999808036,None,49,0,48,281.92628330003936,,,,,,,,,,,,,,,,,,,,,,,,,,,,,,,,,,,,,,,,,,,,,,,,,,281.91019310004776,281.92628330003936,282.4114889000193,282.4326999000041,282.44473490002565,282.44473490002565,282.44473490002565,284.78682800004026,Foils\020b.jpg,none,n,2.3353004999808036,None,,,,,,,,00039,001,2026-01-17_11h12.14.726,MST_test,2024.2.0,59.85131736098933,2026-01-17 11h12.30.524917 +0530,
49,0,50,o,1.313685999950394,None,50,0,49,284.80326590000186,,,,,,,,,,,,,,,,,,,,,,,,,,,,,,,,,,,,,,,,,,,,,,,,,,284.7869275000412,284.80326590000186,285.2881124000414,285.31048129999544,285.3216765000252,285.3216765000252,285.3216765000252,286.6431509000249,Objects\183b.jpg,mid,o,1.313685999950394,None,,,,,,,,00039,001,2026-01-17_11h12.14.726,MST_test,2024.2.0,59.85131736098933,2026-01-17 11h12.30.524917 +0530,
50,0,51,n,1.594229499984067,None,51,0,50,286.6597726000473,,,,,,,,,,,,,,,,,,,,,,,,,,,,,,,,,,,,,,,,,,,,,,,,,,286.64324400003534,286.6597726000473,287.14472229999956,287.46174590004375,287.4974016000051,287.4974016000051,287.4974016000051,289.10232790000737,Foils\scenes26.jpg,none,n,1.594229499984067,None,,,,,,,,00039,001,2026-01-17_11h12.14.726,MST_test,2024.2.0,59.85131736098933,2026-01-17 11h12.30.524917 +0530,
51,0,52,o,1.0049372999928892,None,52,0,51,289.11826080002356,,,,,,,,,,,,,,,,,,,,,,,,,,,,,,,,,,,,,,,,,,,,,,,,,,289.10242190002464,289.11826080002356,289.6032179000322,289.6362444999977,289.6541994000436,289.6541994000436,289.6541994000436,290.6740814000368,Scenes\018a.jpg,post,o,1.0049372999928892,None,,,,,,,,00039,001,2026-01-17_11h12.14.726,MST_test,2024.2.0,59.85131736098933,2026-01-17 11h12.30.524917 +0530,
52,0,53,o,4.000807200034615,None,53,0,52,290.69042660004925,,,,,,,,,,,,,,,,,,,,,,,,,,,,,,,,,,,,,,,,,,,,,,,,,,290.67417730001034,290.69042660004925,291.17541369999526,291.19819150003605,291.2100641000434,291.2100641000434,291.2100641000434,295.2234671000042,Scenes\157a.jpg,post,o,4.000807200034615,None,,,,,,,,00039,001,2026-01-17_11h12.14.726,MST_test,2024.2.0,59.85131736098933,2026-01-17 11h12.30.524917 +0530,
53,0,54,s,3.0280018000048585,None,54,0,53,295.23957860004157,,,,,,,,,,,,,,,,,,,,,,,,,,,,,,,,,,,,,,,,,,,,,,,,,,295.22356710000895,295.23957860004157,295.72476920002373,295.7542519000126,295.77485490002437,295.77485490002437,295.77485490002437,298.8199707000167,Scenes\085a.jpg,post,s,3.0280018000048585,None,,,,,,,,00039,001,2026-01-17_11h12.14.726,MST_test,2024.2.0,59.85131736098933,2026-01-17 11h12.30.524917 +0530,
54,0,55,n,1.1612906999653205,None,55,0,54,298.8356555000064,,,,,,,,,,,,,,,,,,,,,,,,,,,,,,,,,,,,,,,,,,,,,,,,,,298.82007250003517,298.8356555000064,299.32070020004176,299.3381939000101,299.3548696000362,299.3548696000362,299.3548696000362,300.5254424000159,Foils\scenes13.jpg,none,n,1.1612906999653205,None,,,,,,,,00039,001,2026-01-17_11h12.14.726,MST_test,2024.2.0,59.85131736098933,2026-01-17 11h12.30.524917 +0530,
55,0,56,s,10.742642900033388,None,56,0,55,300.54146979999496,,,,,,,,,,,,,,,,,,,,,,,,,,,,,,,,,,,,,,,,,,,,,,,,,,300.52554290002445,300.54146979999496,301.02667200000724,301.04390879999846,301.06094340002164,301.06094340002164,301.06094340002164,311.81494330003625,Scenes\061a.jpg,post,s,10.742642900033388,None,,,,,,,,00039,001,2026-01-17_11h12.14.726,MST_test,2024.2.0,59.85131736098933,2026-01-17 11h12.30.524917 +0530,
56,0,57,n,2.4935992999817245,None,57,0,56,311.83112480002455,,,,,,,,,,,,,,,,,,,,,,,,,,,,,,,,,,,,,,,,,,,,,,,,,,311.81504080002196,311.83112480002455,312.3160816000309,312.33951479999814,312.3496198000503,312.3496198000503,312.3496198000503,314.8589367000386,Foils\065a.jpg,none,n,2.4935992999817245,None,,,,,,,,00039,001,2026-01-17_11h12.14.726,MST_test,2024.2.0,59.85131736098933,2026-01-17 11h12.30.524917 +0530,
57,0,58,n,1.4417066000169143,None,58,0,57,314.87501070002327,,,,,,,,,,,,,,,,,,,,,,,,,,,,,,,,,,,,,,,,,,,,,,,,,,314.8590379000525,314.87501070002327,315.3602083000005,315.3820769000449,315.3934453999973,315.3934453999973,315.3934453999973,316.8491395000019,Objects\065b.jpg,mid,n,1.4417066000169143,None,,,,,,,,00039,001,2026-01-17_11h12.14.726,MST_test,2024.2.0,59.85131736098933,2026-01-17 11h12.30.524917 +0530,
58,0,59,n,0.9630128999706358,None,59,0,58,316.8653086000122,,,,,,,,,,,,,,,,,,,,,,,,,,,,,,,,,,,,,,,,,,,,,,,,,,316.849244400044,316.8653086000122,317.35051220003515,317.37275330000557,317.38374380004825,317.38374380004825,317.38374380004825,318.35438610002166,Foils\081a.jpg,none,n,0.9630128999706358,None,,,,,,,,00039,001,2026-01-17_11h12.14.726,MST_test,2024.2.0,59.85131736098933,2026-01-17 11h12.30.524917 +0530,
59,0,60,s,7.7537521999911405,None,60,0,59,318.3707064000191,,,,,,,,,,,,,,,,,,,,,,,,,,,,,,,,,,,,,,,,,,,,,,,,,,318.3544810000458,318.3707064000191,318.8558344000485,318.87526590004563,318.8899813000462,318.8899813000462,318.8899813000462,326.6506134000374,Foils\scenes14.jpg,none,s,7.7537521999911405,None,,,,,,,,00039,001,2026-01-17_11h12.14.726,MST_test,2024.2.0,59.85131736098933,2026-01-17 11h12.30.524917 +0530,
60,0,61,o,1.3147638000082225,None,61,0,60,326.66629670001566,,,,,,,,,,,,,,,,,,,,,,,,,,,,,,,,,,,,,,,,,,,,,,,,,,326.6507169000106,326.66629670001566,327.1518028000137,327.17406390002,327.1847415000084,327.1847415000084,327.1847415000084,328.5065763000166,Objects\151b.jpg,post,o,1.3147638000082225,None,,,,,,,,00039,001,2026-01-17_11h12.14.726,MST_test,2024.2.0,59.85131736098933,2026-01-17 11h12.30.524917 +0530,
61,0,62,o,1.9118518000468612,None,62,0,61,328.522798400023,,,,,,,,,,,,,,,,,,,,,,,,,,,,,,,,,,,,,,,,,,,,,,,,,,328.50667240004987,328.522798400023,329.0081248000497,329.03837990004104,329.05883029999677,329.05883029999677,329.05883029999677,330.9820340000442,Scenes\144b.jpg,mid,o,1.9118518000468612,None,,,,,,,,00039,001,2026-01-17_11h12.14.726,MST_test,2024.2.0,59.85131736098933,2026-01-17 11h12.30.524917 +0530,
62,0,63,n,0.9749052000115626,None,63,0,62,330.99813370004995,,,,,,,,,,,,,,,,,,,,,,,,,,,,,,,,,,,,,,,,,,,,,,,,,,330.98212500003865,330.99813370004995,331.48332650004886,331.50446500000544,331.51669010001933,331.51669010001933,331.51669010001933,332.50374910002574,Foils\074a.jpg,none,n,0.9749052000115626,None,,,,,,,,00039,001,2026-01-17_11h12.14.726,MST_test,2024.2.0,59.85131736098933,2026-01-17 11h12.30.524917 +0530,
63,0,64,o,2.6925088999560103,None,64,0,63,332.5202505000052,,,,,,,,,,,,,,,,,,,,,,,,,,,,,,,,,,,,,,,,,,,,,,,,,,332.5038408000255,332.5202505000052,333.00536120001925,333.0302270000102,333.0384180000401,333.0384180000401,333.0384180000401,335.7320543000242,Scenes\152a.jpg,mid,o,2.6925088999560103,None,,,,,,,,00039,001,2026-01-17_11h12.14.726,MST_test,2024.2.0,59.85131736098933,2026-01-17 11h12.30.524917 +0530,
64,0,65,s,1.8406948000192642,None,65,0,64,335.7482241000398,,,,,,,,,,,,,,,,,,,,,,,,,,,,,,,,,,,,,,,,,,,,,,,,,,335.7321523000137,335.7482241000398,336.23331690003397,336.25836060004076,336.26652990002185,336.26652990002185,336.26652990002185,338.124087800039,Objects\050b.jpg,mid,s,1.8406948000192642,None,,,,,,,,00039,001,2026-01-17_11h12.14.726,MST_test,2024.2.0,59.85131736098933,2026-01-17 11h12.30.524917 +0530,
65,0,66,o,1.1689592999755405,None,66,0,65,338.13996950001456,,,,,,,,,,,,,,,,,,,,,,,,,,,,,,,,,,,,,,,,,,,,,,,,,,338.12418280000566,338.13996950001456,338.62503610004205,338.6393169000512,338.6582430000417,338.6582430000417,338.6582430000417,339.82973910000874,Objects\069a.jpg,post,o,1.1689592999755405,None,,,,,,,,00039,001,2026-01-17_11h12.14.726,MST_test,2024.2.0,59.85131736098933,2026-01-17 11h12.30.524917 +0530,
66,0,67,o,1.3350019000354223,None,67,0,66,339.8459228000138,,,,,,,,,,,,,,,,,,,,,,,,,,,,,,,,,,,,,,,,,,,,,,,,,,339.829836799996,339.8459228000138,340.33098870003596,340.35159940004814,340.36445210000966,340.36445210000966,340.36445210000966,341.70291400002316,Objects\180b.jpg,pre,o,1.3350019000354223,None,,,,,,,,00039,001,2026-01-17_11h12.14.726,MST_test,2024.2.0,59.85131736098933,2026-01-17 11h12.30.524917 +0530,
67,0,68,o,0.9814123000251129,None,68,0,67,341.7189960000105,,,,,,,,,,,,,,,,,,,,,,,,,,,,,,,,,,,,,,,,,,,,,,,,,,341.7030178999994,341.7189960000105,342.20418800000334,342.24021590000484,342.25496200000634,342.25496200000634,342.25496200000634,343.2417437999975,Scenes\045a.jpg,post,o,0.9814123000251129,None,,,,,,,,00039,001,2026-01-17_11h12.14.726,MST_test,2024.2.0,59.85131736098933,2026-01-17 11h12.30.524917 +0530,
68,0,69,n,0.9955473999725655,None,69,0,68,343.25791720004054,,,,,,,,,,,,,,,,,,,,,,,,,,,,,,,,,,,,,,,,,,,,,,,,,,343.24184170004446,343.25791720004054,343.74362180003664,343.7655842000386,343.7764465000364,343.7764465000364,343.7764465000364,344.78045970003586,Foils\002a.jpg,none,n,0.9955473999725655,None,,,,,,,,00039,001,2026-01-17_11h12.14.726,MST_test,2024.2.0,59.85131736098933,2026-01-17 11h12.30.524917 +0530,
69,0,70,o,2.4408071999787353,None,70,0,69,344.79667880001944,,,,,,,,,,,,,,,,,,,,,,,,,,,,,,,,,,,,,,,,,,,,,,,,,,344.7805572000216,344.79667880001944,345.28167570004007,345.296541800024,345.315074800048,345.315074800048,345.315074800048,347.7573574000271,Objects\190a.jpg,pre,o,2.4408071999787353,None,,,,,,,,00039,001,2026-01-17_11h12.14.726,MST_test,2024.2.0,59.85131736098933,2026-01-17 11h12.30.524917 +0530,
70,0,71,o,0.9349477000068873,None,71,0,70,347.77375330001814,,,,,,,,,,,,,,,,,,,,,,,,,,,,,,,,,,,,,,,,,,,,,,,,,,347.7574537000037,347.77375330001814,348.25880589999724,348.27311470004497,348.2921621000278,348.2921621000278,348.2921621000278,349.2296597000095,Objects\129a.jpg,mid,o,0.9349477000068873,None,,,,,,,,00039,001,2026-01-17_11h12.14.726,MST_test,2024.2.0,59.85131736098933,2026-01-17 11h12.30.524917 +0530,
71,0,72,n,3.077727199997753,None,72,0,71,349.24553240003297,,,,,,,,,,,,,,,,,,,,,,,,,,,,,,,,,,,,,,,,,,,,,,,,,,349.22975350002525,349.24553240003297,349.7307819999987,349.75426400004653,349.76505570003064,349.76505570003064,349.76505570003064,352.8587755000335,Scenes\179a.jpg,pre,n,3.077727199997753,None,,,,,,,,00039,001,2026-01-17_11h12.14.726,MST_test,2024.2.0,59.85131736098933,2026-01-17 11h12.30.524917 +0530,
72,0,73,o,0.9453028999851085,None,73,0,72,352.8747350000194,,,,,,,,,,,,,,,,,,,,,,,,,,,,,,,,,,,,,,,,,,,,,,,,,,352.8588757000398,352.8747350000194,353.3599246000522,353.39285970001947,353.41104720003204,353.41104720003204,353.41104720003204,354.36380839999765,Scenes\017a.jpg,pre,o,0.9453028999851085,None,,,,,,,,00039,001,2026-01-17_11h12.14.726,MST_test,2024.2.0,59.85131736098933,2026-01-17 11h12.30.524917 +0530,
73,0,74,o,1.6062816999619827,None,74,0,73,354.3802710000309,,,,,,,,,,,,,,,,,,,,,,,,,,,,,,,,,,,,,,,,,,,,,,,,,,354.3639050000347,354.3802710000309,354.8650825000368,354.9026517000166,354.9162821000209,354.9162821000209,354.9162821000209,356.53855480003403,Scenes\149b.jpg,mid,o,1.6062816999619827,None,,,,,,,,00039,001,2026-01-17_11h12.14.726,MST_test,2024.2.0,59.85131736098933,2026-01-17 11h12.30.524917 +0530,
74,0,75,o,0.6415470000356436,None,75,0,74,356.554293800029,,,,,,,,,,,,,,,,,,,,,,,,,,,,,,,,,,,,,,,,,,,,,,,,,,356.5386540000327,356.554293800029,357.03966990002664,357.05559699999867,357.07388999999966,357.07388999999966,357.07388999999966,357.72562040004414,Objects\035a.jpg,post,o,0.6415470000356436,None,,,,,,,,00039,001,2026-01-17_11h12.14.726,MST_test,2024.2.0,59.85131736098933,2026-01-17 11h12.30.524917 +0530,
75,0,76,o,0.8784789000055753,None,76,0,75,357.7419021000387,,,,,,,,,,,,,,,,,,,,,,,,,,,,,,,,,,,,,,,,,,,,,,,,,,357.7257113000378,357.7419021000387,358.22687830001814,358.2414101000177,358.2603390000295,358.2603390000295,358.2603390000295,359.14750780002214,Objects\131a.jpg,mid,o,0.8784789000055753,None,,,,,,,,00039,001,2026-01-17_11h12.14.726,MST_test,2024.2.0,59.85131736098933,2026-01-17 11h12.30.524917 +0530,
76,0,77,o,0.7286730000050738,None,77,0,76,359.1636835000245,,,,,,,,,,,,,,,,,,,,,,,,,,,,,,,,,,,,,,,,,,,,,,,,,,359.14760250004474,359.1636835000245,359.64849920000415,359.67157450004015,359.6819882999989,359.6819882999989,359.6819882999989,360.41839090001304,Objects\165b.jpg,pre,o,0.7286730000050738,None,,,,,,,,00039,001,2026-01-17_11h12.14.726,MST_test,2024.2.0,59.85131736098933,2026-01-17 11h12.30.524917 +0530,
77,0,78,n,2.3055425999918953,None,78,0,77,360.4346637999988,,,,,,,,,,,,,,,,,,,,,,,,,,,,,,,,,,,,,,,,,,,,,,,,,,360.41848690004554,360.4346637999988,360.9197367000161,360.93695600004867,360.95396880002227,360.95396880002227,360.95396880002227,363.2617985000252,Foils\scenes18.jpg,none,n,2.3055425999918953,None,,,,,,,,00039,001,2026-01-17_11h12.14.726,MST_test,2024.2.0,59.85131736098933,2026-01-17 11h12.30.524917 +0530,
78,0,79,o,1.0455459999502636,None,79,0,78,363.2781227999949,,,,,,,,,,,,,,,,,,,,,,,,,,,,,,,,,,,,,,,,,,,,,,,,,,363.26189740002155,363.2781227999949,363.76290700002573,363.80455800000345,363.81407990003936,363.81407990003936,363.81407990003936,364.86762279999675,Scenes\089b.jpg,mid,o,1.0455459999502636,None,,,,,,,,00039,001,2026-01-17_11h12.14.726,MST_test,2024.2.0,59.85131736098933,2026-01-17 11h12.30.524917 +0530,
79,0,80,s,3.5283640999696217,None,80,0,79,364.8837413000292,,,,,,,,,,,,,,,,,,,,,,,,,,,,,,,,,,,,,,,,,,,,,,,,,,364.8677208000445,364.8837413000292,365.36845800001174,365.40180049999617,365.4195102000376,365.4195102000376,365.4195102000376,368.94832780002616,Scenes\038a.jpg,mid,s,3.5283640999696217,None,,,,,,,,00039,001,2026-01-17_11h12.14.726,MST_test,2024.2.0,59.85131736098933,2026-01-17 11h12.30.524917 +0530,
80,0,81,n,1.0549136999761686,None,81,0,80,368.96454480005195,,,,,,,,,,,,,,,,,,,,,,,,,,,,,,,,,,,,,,,,,,,,,,,,,,368.948422400048,368.96454480005195,369.44948330003535,369.47337360004894,369.4839047000278,369.4839047000278,369.4839047000278,370.55385300004855,Objects\163b.jpg,post,n,1.0549136999761686,None,,,,,,,,00039,001,2026-01-17_11h12.14.726,MST_test,2024.2.0,59.85131736098933,2026-01-17 11h12.30.524917 +0530,
81,0,82,o,2.0587009000009857,None,82,0,81,370.57003190001706,,,,,,,,,,,,,,,,,,,,,,,,,,,,,,,,,,,,,,,,,,,,,,,,,,370.5539434000384,370.57003190001706,371.0552614000044,371.0729228000273,371.0892379000434,371.0892379000434,371.0892379000434,373.1632429000456,Foils\scenes29.jpg,none,o,2.0587009000009857,None,,,,,,,,00039,001,2026-01-17_11h12.14.726,MST_test,2024.2.0,59.85131736098933,2026-01-17 11h12.30.524917 +0530,
82,0,83,s,2.2077312999754213,None,83,0,82,373.1793724000454,,,,,,,,,,,,,,,,,,,,,,,,,,,,,,,,,,,,,,,,,,,,,,,,,,373.16333790001227,373.1793724000454,373.66468899999745,373.70405890000984,373.7153687000391,373.7153687000391,373.7153687000391,375.93960360001074,Scenes\164b.jpg,post,s,2.2077312999754213,None,,,,,,,,00039,001,2026-01-17_11h12.14.726,MST_test,2024.2.0,59.85131736098933,2026-01-17 11h12.30.524917 +0530,
83,0,84,n,2.6081032999791205,None,84,0,83,375.95568470004946,,,,,,,,,,,,,,,,,,,,,,,,,,,,,,,,,,,,,,,,,,,,,,,,,,375.93969880003715,375.95568470004946,376.4407926000422,376.45896170003107,376.4749400000437,376.4749400000437,376.4749400000437,379.0837249000324,Foils\scenes2.jpg,none,n,2.6081032999791205,None,,,,,,,,00039,001,2026-01-17_11h12.14.726,MST_test,2024.2.0,59.85131736098933,2026-01-17 11h12.30.524917 +0530,
84,0,85,o,1.273041500011459,None,85,0,84,379.0998899000115,,,,,,,,,,,,,,,,,,,,,,,,,,,,,,,,,,,,,,,,,,,,,,,,,,379.0838279000018,379.0998899000115,379.58510500000557,379.60974119999446,379.6183710000478,379.6183710000478,379.6183710000478,380.90673660003813,Scenes\115a.jpg,post,o,1.273041500011459,None,,,,,,,,00039,001,2026-01-17_11h12.14.726,MST_test,2024.2.0,59.85131736098933,2026-01-17 11h12.30.524917 +0530,
85,0,86,o,3.201057300029788,None,86,0,85,380.92309110000497,,,,,,,,,,,,,,,,,,,,,,,,,,,,,,,,,,,,,,,,,,,,,,,,,,380.90683039999567,380.92309110000497,381.4081636000192,381.4311219000374,381.4423607000499,381.4423607000499,381.4423607000499,384.65347479999764,Objects\108b.jpg,post,o,3.201057300029788,None,,,,,,,,00039,001,2026-01-17_11h12.14.726,MST_test,2024.2.0,59.85131736098933,2026-01-17 11h12.30.524917 +0530,
86,0,87,n,1.271129500004463,None,87,0,86,384.6697431000066,,,,,,,,,,,,,,,,,,,,,,,,,,,,,,,,,,,,,,,,,,,,,,,,,,384.65357290004613,384.6697431000066,385.1545108000282,385.17484140000306,385.1882971000159,385.1882971000159,385.1882971000159,386.4762109000003,Foils\082a.jpg,none,n,1.271129500004463,None,,,,,,,,00039,001,2026-01-17_11h12.14.726,MST_test,2024.2.0,59.85131736098933,2026-01-17 11h12.30.524917 +0530,
87,0,88,n,3.1355911000282504,None,88,0,87,386.4925753000425,,,,,,,,,,,,,,,,,,,,,,,,,,,,,,,,,,,,,,,,,,,,,,,,,,386.4763138000271,386.4925753000425,386.9776955000125,387.0006637000479,387.0111037000315,387.0111037000315,387.0111037000315,390.1562699000351,Scenes\178a.jpg,pre,n,3.1355911000282504,None,,,,,,,,00039,001,2026-01-17_11h12.14.726,MST_test,2024.2.0,59.85131736098933,2026-01-17 11h12.30.524917 +0530,
88,0,89,o,3.343314300000202,None,89,0,88,390.1720108000445,,,,,,,,,,,,,,,,,,,,,,,,,,,,,,,,,,,,,,,,,,,,,,,,,,390.15636160003487,390.1720108000445,390.6573923000251,390.6976834000088,390.707253200002,390.707253200002,390.707253200002,394.05295260000275,Scenes\024b.jpg,post,o,3.343314300000202,None,,,,,,,,00039,001,2026-01-17_11h12.14.726,MST_test,2024.2.0,59.85131736098933,2026-01-17 11h12.30.524917 +0530,
89,0,90,o,1.0874898999463767,None,90,0,89,394.06910570000764,,,,,,,,,,,,,,,,,,,,,,,,,,,,,,,,,,,,,,,,,,,,,,,,,,394.0530475000269,394.06910570000764,394.55421390000265,394.5756093999953,394.58754900004715,394.58754900004715,394.58754900004715,395.6919043000089,Objects\085b.jpg,post,o,1.0874898999463767,None,,,,,,,,00039,001,2026-01-17_11h12.14.726,MST_test,2024.2.0,59.85131736098933,2026-01-17 11h12.30.524917 +0530,
90,0,91,n,1.0006300999666564,None,91,0,90,395.70806220005034,,,,,,,,,,,,,,,,,,,,,,,,,,,,,,,,,,,,,,,,,,,,,,,,,,395.6919951000018,395.70806220005034,396.193896700046,396.2175353000057,396.22651250002673,396.22651250002673,396.22651250002673,397.23137240001233,Foils\105a.jpg,none,n,1.0006300999666564,None,,,,,,,,00039,001,2026-01-17_11h12.14.726,MST_test,2024.2.0,59.85131736098933,2026-01-17 11h12.30.524917 +0530,
91,0,92,o,1.8852164999698289,None,92,0,91,397.2472787000006,,,,,,,,,,,,,,,,,,,,,,,,,,,,,,,,,,,,,,,,,,,,,,,,,,397.23148030001903,397.2472787000006,397.73200420005014,397.74610220000613,397.76539120002417,397.76539120002417,397.76539120002417,399.655841800035,Objects\092a.jpg,pre,o,1.8852164999698289,None,,,,,,,,00039,001,2026-01-17_11h12.14.726,MST_test,2024.2.0,59.85131736098933,2026-01-17 11h12.30.524917 +0530,
92,0,93,o,3.748439999995753,None,93,0,92,399.6719443000038,,,,,,,,,,,,,,,,,,,,,,,,,,,,,,,,,,,,,,,,,,,,,,,,,,399.6559405000298,399.6719443000038,400.1571385000134,400.1715291000437,400.1903861000319,400.1903861000319,400.1903861000319,403.9543358000228,Objects\070a.jpg,post,o,3.748439999995753,None,,,,,,,,00039,001,2026-01-17_11h12.14.726,MST_test,2024.2.0,59.85131736098933,2026-01-17 11h12.30.524917 +0530,
93,0,94,o,1.2739739999524318,None,94,0,93,403.97032060002675,,,,,,,,,,,,,,,,,,,,,,,,,,,,,,,,,,,,,,,,,,,,,,,,,,403.95443250000244,403.97032060002675,404.4555302000372,404.4696224000072,404.4887767000473,404.4887767000473,404.4887767000473,405.77726110001095,Objects\013a.jpg,mid,o,1.2739739999524318,None,,,,,,,,00039,001,2026-01-17_11h12.14.726,MST_test,2024.2.0,59.85131736098933,2026-01-17 11h12.30.524917 +0530,
94,0,95,s,1.3228750999551266,None,95,0,94,405.79339400003664,,,,,,,,,,,,,,,,,,,,,,,,,,,,,,,,,,,,,,,,,,,,,,,,,,405.77735600003507,405.79339400003664,406.2785839000135,406.30084630002966,406.31182620004984,406.31182620004984,406.31182620004984,407.6504662000225,Objects\018b.jpg,pre,s,1.3228750999551266,None,,,,,,,,00039,001,2026-01-17_11h12.14.726,MST_test,2024.2.0,59.85131736098933,2026-01-17 11h12.30.524917 +0530,
95,0,96,o,3.7840952000115067,None,96,0,95,407.6667328000185,,,,,,,,,,,,,,,,,,,,,,,,,,,,,,,,,,,,,,,,,,,,,,,,,,407.650560100039,407.6667328000185,408.1518150000484,408.19744560000254,408.21947579999687,408.21947579999687,408.21947579999687,412.01599919999717,Scenes\034a.jpg,mid,o,3.7840952000115067,None,,,,,,,,00039,001,2026-01-17_11h12.14.726,MST_test,2024.2.0,59.85131736098933,2026-01-17 11h12.30.524917 +0530,
96,0,97,o,3.0052805999876,None,97,0,96,412.0320094000199,,,,,,,,,,,,,,,,,,,,,,,,,,,,,,,,,,,,,,,,,,,,,,,,,,412.0161032000324,412.0320094000199,412.5169782000012,412.5327830000315,412.55044760002056,412.55044760002056,412.55044760002056,415.5616413000389,Objects\125a.jpg,mid,o,3.0052805999876,None,,,,,,,,00039,001,2026-01-17_11h12.14.726,MST_test,2024.2.0,59.85131736098933,2026-01-17 11h12.30.524917 +0530,
97,0,98,o,1.1455053000245243,None,98,0,97,415.5778984000208,,,,,,,,,,,,,,,,,,,,,,,,,,,,,,,,,,,,,,,,,,,,,,,,,,415.5617344000493,415.5778984000208,416.0627372000017,416.1008838000125,416.1137398999999,416.1137398999999,416.1137398999999,417.26735390000977,Scenes\043b.jpg,pre,o,1.1455053000245243,None,,,,,,,,00039,001,2026-01-17_11h12.14.726,MST_test,2024.2.0,59.85131736098933,2026-01-17 11h12.30.524917 +0530,
98,0,99,s,3.8895159999956377,None,99,0,98,417.2837270000018,,,,,,,,,,,,,,,,,,,,,,,,,,,,,,,,,,,,,,,,,,,,,,,,,,417.2674467000179,417.2837270000018,417.7686860000249,417.7907000000123,417.80219200003194,417.80219200003194,417.80219200003194,421.69973140000366,Objects\109b.jpg,post,s,3.8895159999956377,None,,,,,,,,00039,001,2026-01-17_11h12.14.726,MST_test,2024.2.0,59.85131736098933,2026-01-17 11h12.30.524917 +0530,
99,0,100,s,3.280289000016637,None,100,0,99,421.71604230004596,,,,,,,,,,,,,,,,,,,,,,,,,,,,,,,,,,,,,,,,,,,,,,,,,,421.69982280000113,421.71604230004596,422.20101499999873,422.22288020001724,422.234366699995,422.234366699995,422.234366699995,425.5301779000438,Objects\153b.jpg,post,s,3.280289000016637,None,,,,,,,,00039,001,2026-01-17_11h12.14.726,MST_test,2024.2.0,59.85131736098933,2026-01-17 11h12.30.524917 +0530,
100,0,101,s,3.4739580000168644,None,101,0,100,425.54606100003,,,,,,,,,,,,,,,,,,,,,,,,,,,,,,,,,,,,,,,,,,,,,,,,,,425.5302730000112,425.54606100003,426.03185970004415,426.06284450000385,426.0810532000032,426.0810532000032,426.0810532000032,429.5606491000508,Scenes\075b.jpg,post,s,3.4739580000168644,None,,,,,,,,00039,001,2026-01-17_11h12.14.726,MST_test,2024.2.0,59.85131736098933,2026-01-17 11h12.30.524917 +0530,
101,0,102,o,1.4277484000194818,None,102,0,101,429.57678030000534,,,,,,,,,,,,,,,,,,,,,,,,,,,,,,,,,,,,,,,,,,,,,,,,,,429.56074340001214,429.57678030000534,430.0617541000247,430.07546050002566,430.0952191000106,430.0952191000106,430.0952191000106,431.5342605000478,Objects\060a.jpg,post,o,1.4277484000194818,None,,,,,,,,00039,001,2026-01-17_11h12.14.726,MST_test,2024.2.0,59.85131736098933,2026-01-17 11h12.30.524917 +0530,
102,0,103,o,4.9254681000020355,None,103,0,102,431.5503552000155,,,,,,,,,,,,,,,,,,,,,,,,,,,,,,,,,,,,,,,,,,,,,,,,,,431.5343576000305,431.5503552000155,432.03550080000423,432.06568660004996,432.08570320002036,432.08570320002036,432.08570320002036,437.02048710000236,Scenes\105a.jpg,mid,o,4.9254681000020355,None,,,,,,,,00039,001,2026-01-17_11h12.14.726,MST_test,2024.2.0,59.85131736098933,2026-01-17 11h12.30.524917 +0530,
103,0,104,o,1.8569086999632418,None,104,0,103,437.03640290000476,,,,,,,,,,,,,,,,,,,,,,,,,,,,,,,,,,,,,,,,,,,,,,,,,,437.02059290005127,437.03640290000476,437.5213674000115,437.54533570003696,437.5549649000168,437.5549649000168,437.5549649000168,439.4285413000034,Scenes\156a.jpg,pre,o,1.8569086999632418,None,,,,,,,,00039,001,2026-01-17_11h12.14.726,MST_test,2024.2.0,59.85131736098933,2026-01-17 11h12.30.524917 +0530,
104,0,105,o,0.9038684000261128,None,105,0,104,439.4447223000461,,,,,,,,,,,,,,,,,,,,,,,,,,,,,,,,,,,,,,,,,,,,,,,,,,439.4286425000173,439.4447223000461,439.92992770002456,439.9447430000291,439.96330890001263,439.96330890001263,439.96330890001263,440.8838485000306,Objects\191a.jpg,pre,o,0.9038684000261128,None,,,,,,,,00039,001,2026-01-17_11h12.14.726,MST_test,2024.2.0,59.85131736098933,2026-01-17 11h12.30.524917 +0530,
105,0,106,n,0.9929305999539793,None,106,0,105,440.899806100002,,,,,,,,,,,,,,,,,,,,,,,,,,,,,,,,,,,,,,,,,,,,,,,,,,440.8839442000026,440.899806100002,441.38486800005194,441.5647398000001,441.58621500001755,441.58621500001755,441.58621500001755,442.5894261000212,Foils\scenes25.jpg,none,n,0.9929305999539793,None,,,,,,,,00039,001,2026-01-17_11h12.14.726,MST_test,2024.2.0,59.85131736098933,2026-01-17 11h12.30.524917 +0530,
106,0,107,o,1.1657193999853916,None,107,0,106,442.6060183000518,,,,,,,,,,,,,,,,,,,,,,,,,,,,,,,,,,,,,,,,,,,,,,,,,,442.5895186000271,442.6060183000518,443.09085810004035,443.13417380000465,443.14171410002746,443.14171410002746,443.14171410002746,444.3122552999994,Scenes\002b.jpg,pre,o,1.1657193999853916,None,,,,,,,,00039,001,2026-01-17_11h12.14.726,MST_test,2024.2.0,59.85131736098933,2026-01-17 11h12.30.524917 +0530,
107,0,108,o,1.3386782999732532,None,108,0,107,444.3286490000319,,,,,,,,,,,,,,,,,,,,,,,,,,,,,,,,,,,,,,,,,,,,,,,,,,444.3123675000388,444.3286490000319,444.81367550004506,444.8420042000362,444.8647273000097,444.8647273000097,444.8647273000097,446.2188496000017,Scenes\040a.jpg,post,o,1.3386782999732532,None,,,,,,,,00039,001,2026-01-17_11h12.14.726,MST_test,2024.2.0,59.85131736098933,2026-01-17 11h12.30.524917 +0530,
108,0,109,o,1.0003659999929368,None,109,0,108,446.2353054000414,,,,,,,,,,,,,,,,,,,,,,,,,,,,,,,,,,,,,,,,,,,,,,,,,,446.2189438000205,446.2353054000414,446.7202615000424,446.74271210003644,446.75521060003666,446.75521060003666,446.75521060003666,447.7576267000404,Objects\133b.jpg,mid,o,1.0003659999929368,None,,,,,,,,00039,001,2026-01-17_11h12.14.726,MST_test,2024.2.0,59.85131736098933,2026-01-17 11h12.30.524917 +0530,
109,0,110,s,4.894754900014959,None,110,0,109,447.773997900018,,,,,,,,,,,,,,,,,,,,,,,,,,,,,,,,,,,,,,,,,,,,,,,,,,447.7577321000281,447.773997900018,448.2590293000103,448.28192080004374,448.29247909999685,448.29247909999685,448.29247909999685,453.193213200022,Objects\093b.jpg,post,s,4.894754900014959,None,,,,,,,,00039,001,2026-01-17_11h12.14.726,MST_test,2024.2.0,59.85131736098933,2026-01-17 11h12.30.524917 +0530,
110,0,111,s,1.8020692000281997,None,111,0,110,453.2097851000144,,,,,,,,,,,,,,,,,,,,,,,,,,,,,,,,,,,,,,,,,,,,,,,,,,453.1933082000469,453.2097851000144,453.69466560002184,453.72709850000683,453.7448689000448,453.7448689000448,453.7448689000448,455.5517481000279,Scenes\080b.jpg,pre,s,1.8020692000281997,None,,,,,,,,00039,001,2026-01-17_11h12.14.726,MST_test,2024.2.0,59.85131736098933,2026-01-17 11h12.30.524917 +0530,
111,0,112,s,2.028906800027471,None,112,0,111,455.567811200046,,,,,,,,,,,,,,,,,,,,,,,,,,,,,,,,,,,,,,,,,,,,,,,,,,455.5518558000331,455.567811200046,456.0536891000229,456.07637970004,456.0863584000035,456.0863584000035,456.0863584000035,458.12723740004003,Objects\076b.jpg,mid,s,2.028906800027471,None,,,,,,,,00039,001,2026-01-17_11h12.14.726,MST_test,2024.2.0,59.85131736098933,2026-01-17 11h12.30.524917 +0530,
112,0,113,o,1.4851768999942578,None,113,0,112,458.1435157000087,,,,,,,,,,,,,,,,,,,,,,,,,,,,,,,,,,,,,,,,,,,,,,,,,,458.1273599000415,458.1435157000087,458.6285723000183,458.642564400041,458.66179850004846,458.66179850004846,458.66179850004846,460.15139950002776,Objects\086a.jpg,mid,o,1.4851768999942578,None,,,,,,,,00039,001,2026-01-17_11h12.14.726,MST_test,2024.2.0,59.85131736098933,2026-01-17 11h12.30.524917 +0530,
113,0,114,o,1.6923713999567553,None,114,0,113,460.16763820004417,,,,,,,,,,,,,,,,,,,,,,,,,,,,,,,,,,,,,,,,,,,,,,,,,,460.1514975000173,460.16763820004417,460.6524975000066,460.6899773000041,460.7022813000367,460.7022813000367,460.7022813000367,462.40883640001994,Scenes\136b.jpg,pre,o,1.6923713999567553,None,,,,,,,,00039,001,2026-01-17_11h12.14.726,MST_test,2024.2.0,59.85131736098933,2026-01-17 11h12.30.524917 +0530,
114,0,115,o,8.059234799991827,None,115,0,114,462.4253107000259,,,,,,,,,,,,,,,,,,,,,,,,,,,,,,,,,,,,,,,,,,,,,,,,,,462.4089363000239,462.4253107000259,462.9103557000053,462.9242304000072,462.9436275000335,462.9436275000335,462.9436275000335,471.0058198000188,Objects\073a.jpg,pre,o,8.059234799991827,None,,,,,,,,00039,001,2026-01-17_11h12.14.726,MST_test,2024.2.0,59.85131736098933,2026-01-17 11h12.30.524917 +0530,
115,0,116,n,1.0204508999595419,None,116,0,115,471.0220432000351,,,,,,,,,,,,,,,,,,,,,,,,,,,,,,,,,,,,,,,,,,,,,,,,,,471.0059271000209,471.0220432000351,471.5072529000463,471.5485127000138,471.55826140003046,471.55826140003046,471.55826140003046,472.59447559999535,Scenes\054b.jpg,mid,n,1.0204508999595419,None,,,,,,,,00039,001,2026-01-17_11h12.14.726,MST_test,2024.2.0,59.85131736098933,2026-01-17 11h12.30.524917 +0530,
116,0,117,n,6.249169799964875,None,117,0,116,472.6109665000113,,,,,,,,,,,,,,,,,,,,,,,,,,,,,,,,,,,,,,,,,,,,,,,,,,472.5945772000123,472.6109665000113,473.0959225000115,473.13396480004303,473.1462396000279,473.1462396000279,473.1462396000279,479.4017190000159,Scenes\058b.jpg,mid,n,6.249169799964875,None,,,,,,,,00039,001,2026-01-17_11h12.14.726,MST_test,2024.2.0,59.85131736098933,2026-01-17 11h12.30.524917 +0530,
117,0,118,o,2.330095399986021,None,118,0,117,479.4180714000249,,,,,,,,,,,,,,,,,,,,,,,,,,,,,,,,,,,,,,,,,,,,,,,,,,479.4018183000153,479.4180714000249,479.90320490003796,479.9418611000292,479.9534477000125,479.9534477000125,479.9534477000125,482.29513470001984,Scenes\031b.jpg,pre,o,2.330095399986021,None,,,,,,,,00039,001,2026-01-17_11h12.14.726,MST_test,2024.2.0,59.85131736098933,2026-01-17 11h12.30.524917 +0530,
118,0,119,o,1.3325778000289574,None,119,0,118,482.3119593000156,,,,,,,,,,,,,,,,,,,,,,,,,,,,,,,,,,,,,,,,,,,,,,,,,,482.29523020004854,482.3119593000156,482.7966144999955,482.81596920004813,482.8312519000028,482.8312519000028,482.8312519000028,484.16840510000475,Scenes\096a.jpg,pre,o,1.3325778000289574,None,,,,,,,,00039,001,2026-01-17_11h12.14.726,MST_test,2024.2.0,59.85131736098933,2026-01-17 11h12.30.524917 +0530,
119,0,120,n,0.97169199999189,None,120,0,119,484.184853200044,,,,,,,,,,,,,,,,,,,,,,,,,,,,,,,,,,,,,,,,,,,,,,,,,,484.168497000006,484.184853200044,484.66979390004417,484.69082890002755,484.7032841000473,484.7032841000473,484.7032841000473,485.6903522000066,Foils\097a.jpg,none,n,0.97169199999189,None,,,,,,,,00039,001,2026-01-17_11h12.14.726,MST_test,2024.2.0,59.85131736098933,2026-01-17 11h12.30.524917 +0530,
120,0,121,o,0.9616353000164963,None,121,0,120,485.70683270000154,,,,,,,,,,,,,,,,,,,,,,,,,,,,,,,,,,,,,,,,,,,,,,,,,,485.6904466000269,485.70683270000154,486.1918013000395,486.20539420004934,486.2258512999979,486.2258512999979,486.2258512999979,487.19586860004347,Objects\139a.jpg,mid,o,0.9616353000164963,None,,,,,,,,00039,001,2026-01-17_11h12.14.726,MST_test,2024.2.0,59.85131736098933,2026-01-17 11h12.30.524917 +0530,
121,0,122,o,0.7043216999736615,None,122,0,121,487.2119861000101,,,,,,,,,,,,,,,,,,,,,,,,,,,,,,,,,,,,,,,,,,,,,,,,,,487.1959800000186,487.2119861000101,487.6971741000307,487.711254200025,487.7304281000397,487.7304281000397,487.7304281000397,488.4501584999962,Objects\167a.jpg,mid,o,0.7043216999736615,None,,,,,,,,00039,001,2026-01-17_11h12.14.726,MST_test,2024.2.0,59.85131736098933,2026-01-17 11h12.30.524917 +0530,
122,0,123,n,1.2564845000160858,None,123,0,122,488.4664955000044,,,,,,,,,,,,,,,,,,,,,,,,,,,,,,,,,,,,,,,,,,,,,,,,,,488.4502492000465,488.4664955000044,488.9522031000233,488.98091470001964,489.0023961000261,489.0023961000261,489.0023961000261,490.27373470005114,Scenes\071b.jpg,post,n,1.2564845000160858,None,,,,,,,,00039,001,2026-01-17_11h12.14.726,MST_test,2024.2.0,59.85131736098933,2026-01-17 11h12.30.524917 +0530,
123,0,124,s,1.9367756999563426,None,124,0,123,490.2899338999996,,,,,,,,,,,,,,,,,,,,,,,,,,,,,,,,,,,,,,,,,,,,,,,,,,490.27383660001215,490.2899338999996,490.7743472000002,490.8127344000386,490.82596660003765,490.82596660003765,490.82596660003765,492.7651984000113,Scenes\103b.jpg,post,s,1.9367756999563426,None,,,,,,,,00039,001,2026-01-17_11h12.14.726,MST_test,2024.2.0,59.85131736098933,2026-01-17 11h12.30.524917 +0530,
124,0,125,n,1.414504099986516,None,125,0,124,492.78142970002955,,,,,,,,,,,,,,,,,,,,,,,,,,,,,,,,,,,,,,,,,,,,,,,,,,492.76529350003693,492.78142970002955,493.2666113000014,493.28880239999853,493.30055320000974,493.30055320000974,493.30055320000974,494.72205360000953,Foils\057a.jpg,none,n,1.414504099986516,None,,,,,,,,00039,001,2026-01-17_11h12.14.726,MST_test,2024.2.0,59.85131736098933,2026-01-17 11h12.30.524917 +0530,
125,0,126,o,4.60144349996699,None,126,0,125,494.73817840003176,,,,,,,,,,,,,,,,,,,,,,,,,,,,,,,,,,,,,,,,,,,,,,,,,,494.7221448000055,494.73817840003176,495.22336980002,495.2447605000343,495.25713890005136,495.25713890005136,495.25713890005136,499.8737411000184,Objects\166b.jpg,mid,o,4.60144349996699,None,,,,,,,,00039,001,2026-01-17_11h12.14.726,MST_test,2024.2.0,59.85131736098933,2026-01-17 11h12.30.524917 +0530,
126,0,127,s,3.017950299952645,None,127,0,126,499.8897624000092,,,,,,,,,,,,,,,,,,,,,,,,,,,,,,,,,,,,,,,,,,,,,,,,,,499.87384080002084,499.8897624000092,500.37476650002645,500.38885780004784,500.4086738000042,500.4086738000042,500.4086738000042,503.43613640003605,Objects\192a.jpg,post,s,3.017950299952645,None,,,,,,,,00039,001,2026-01-17_11h12.14.726,MST_test,2024.2.0,59.85131736098933,2026-01-17 11h12.30.524917 +0530,
127,0,128,o,1.0711656999774277,None,128,0,127,503.4856378000113,,,,,,,,,,,,,,,,,,,,,,,,,,,,,,,,,,,,,,,,,,,,,,,,,,503.4362309999997,503.4856378000113,503.9379194000503,503.96648620005,503.98812330001965,503.98812330001965,503.98812330001965,505.07502889999887,Scenes\104a.jpg,post,o,1.0711656999774277,None,,,,,,,,00039,001,2026-01-17_11h12.14.726,MST_test,2024.2.0,59.85131736098933,2026-01-17 11h12.30.524917 +0530,
128,0,129,o,1.016219099983573,None,129,0,128,505.09126040001865,,,,,,,,,,,,,,,,,,,,,,,,,,,,,,,,,,,,,,,,,,,,,,,,,,505.0751440000022,505.09126040001865,505.5764601000119,505.5992502000299,505.61067080002977,505.61067080002977,505.61067080002977,506.63143960002344,Scenes\008a.jpg,post,o,1.016219099983573,None,,,,,,,,00039,001,2026-01-17_11h12.14.726,MST_test,2024.2.0,59.85131736098933,2026-01-17 11h12.30.524917 +0530,
129,0,130,o,1.2529576999950223,None,130,0,129,506.64679389999947,,,,,,,,,,,,,,,,,,,,,,,,,,,,,,,,,,,,,,,,,,,,,,,,,,506.63153350003995,506.64679389999947,507.1319308000384,507.1551279000123,507.16627190000145,507.16627190000145,507.16627190000145,508.420508900017,Objects\082b.jpg,pre,o,1.2529576999950223,None,,,,,,,,00039,001,2026-01-17_11h12.14.726,MST_test,2024.2.0,59.85131736098933,2026-01-17 11h12.30.524917 +0530,
130,0,131,n,1.0962876999983564,None,131,0,130,508.4363179000211,,,,,,,,,,,,,,,,,,,,,,,,,,,,,,,,,,,,,,,,,,,,,,,,,,508.42061020003166,508.4363179000211,508.9214973000344,508.9342933000298,508.9547467000084,508.9547467000084,508.9547467000084,510.0594020000426,Objects\126a.jpg,pre,n,1.0962876999983564,None,,,,,,,,00039,001,2026-01-17_11h12.14.726,MST_test,2024.2.0,59.85131736098933,2026-01-17 11h12.30.524917 +0530,
131,0,132,n,1.2649532000068575,None,132,0,131,510.07549860002473,,,,,,,,,,,,,,,,,,,,,,,,,,,,,,,,,,,,,,,,,,,,,,,,,,510.0595120000071,510.07549860002473,510.5604581000516,510.58005340001546,510.59394000004977,510.59394000004977,510.59394000004977,511.86590020003496,Foils\058a.jpg,none,n,1.2649532000068575,None,,,,,,,,00039,001,2026-01-17_11h12.14.726,MST_test,2024.2.0,59.85131736098933,2026-01-17 11h12.30.524917 +0530,
132,0,133,o,1.7553100000368431,None,133,0,132,511.8817135000136,,,,,,,,,,,,,,,,,,,,,,,,,,,,,,,,,,,,,,,,,,,,,,,,,,511.8660043000127,511.8817135000136,512.3669104000437,512.3873195000342,512.4001372000203,512.4001372000203,512.4001372000203,514.1567747000372,Objects\154b.jpg,post,o,1.7553100000368431,None,,,,,,,,00039,001,2026-01-17_11h12.14.726,MST_test,2024.2.0,59.85131736098933,2026-01-17 11h12.30.524917 +0530,
133,0,134,o,2.9909723000018857,None,134,0,133,514.1730514999945,,,,,,,,,,,,,,,,,,,,,,,,,,,,,,,,,,,,,,,,,,,,,,,,,,514.1568732000305,514.1730514999945,514.6582725000335,514.6807713000453,514.6916629000334,514.6916629000334,514.6916629000334,517.6858769000391,Foils\066a.jpg,none,o,2.9909723000018857,None,,,,,,,,00039,001,2026-01-17_11h12.14.726,MST_test,2024.2.0,59.85131736098933,2026-01-17 11h12.30.524917 +0530,
134,0,135,o,4.2544431000133045,None,135,0,134,517.7019204000244,,,,,,,,,,,,,,,,,,,,,,,,,,,,,,,,,,,,,,,,,,,,,,,,,,517.6859700000496,517.7019204000244,518.1871278000181,518.2009775000042,518.2203530000406,518.2203530000406,518.2203530000406,522.4858717000461,Objects\022a.jpg,post,o,4.2544431000133045,None,,,,,,,,00039,001,2026-01-17_11h12.14.726,MST_test,2024.2.0,59.85131736098933,2026-01-17 11h12.30.524917 +0530,
135,0,136,s,2.884911499975715,None,136,0,135,522.5021851000492,,,,,,,,,,,,,,,,,,,,,,,,,,,,,,,,,,,,,,,,,,,,,,,,,,522.4859639000497,522.5021851000492,522.9872588000144,523.028681900003,523.0383338000393,523.0383338000393,523.0383338000393,525.9315360000473,Scenes\102b.jpg,pre,s,2.884911499975715,None,,,,,,,,00039,001,2026-01-17_11h12.14.726,MST_test,2024.2.0,59.85131736098933,2026-01-17 11h12.30.524917 +0530,
136,0,137,o,2.3850080000120215,None,137,0,136,525.9476264000405,,,,,,,,,,,,,,,,,,,,,,,,,,,,,,,,,,,,,,,,,,,,,,,,,,525.9316313000163,525.9476264000405,526.432646900008,526.4572858000174,526.4667350000236,526.4667350000236,526.4667350000236,528.8585072000278,Scenes\027a.jpg,mid,o,2.3850080000120215,None,,,,,,,,00039,001,2026-01-17_11h12.14.726,MST_test,2024.2.0,59.85131736098933,2026-01-17 11h12.30.524917 +0530,
137,0,138,o,0.7217164000030607,None,138,0,137,528.8743619000306,,,,,,,,,,,,,,,,,,,,,,,,,,,,,,,,,,,,,,,,,,,,,,,,,,528.8585992000299,528.8743619000306,529.3597369000199,529.3749542000005,529.3936510000494,529.3936510000494,529.3936510000494,530.1296462000464,Objects\114a.jpg,pre,o,0.7217164000030607,None,,,,,,,,00039,001,2026-01-17_11h12.14.726,MST_test,2024.2.0,59.85131736098933,2026-01-17 11h12.30.524917 +0530,
138,0,139,s,1.8111835999879986,None,139,0,138,530.145615400048,,,,,,,,,,,,,,,,,,,,,,,,,,,,,,,,,,,,,,,,,,,,,,,,,,530.1297361000325,530.145615400048,530.6305741000106,530.6532740000403,530.6640830000397,530.6640830000397,530.6640830000397,532.4879119000398,Objects\014b.jpg,post,s,1.8111835999879986,None,,,,,,,,00039,001,2026-01-17_11h12.14.726,MST_test,2024.2.0,59.85131736098933,2026-01-17 11h12.30.524917 +0530,
139,0,140,o,1.301331199996639,None,140,0,139,532.5040331000346,,,,,,,,,,,,,,,,,,,,,,,,,,,,,,,,,,,,,,,,,,,,,,,,,,532.4880052000517,532.5040331000346,532.9889112000237,533.0028855000273,533.0223183000344,533.0223183000344,533.0223183000344,534.3274596999981,Objects\112a.jpg,pre,o,1.301331199996639,None,,,,,,,,00039,001,2026-01-17_11h12.14.726,MST_test,2024.2.0,59.85131736098933,2026-01-17 11h12.30.524917 +0530,
140,0,141,o,0.9654986000386998,None,141,0,140,534.343679600046,,,,,,,,,,,,,,,,,,,,,,,,,,,,,,,,,,,,,,,,,,,,,,,,,,534.3275545000215,534.343679600046,534.8287168000243,534.851460600039,534.8619646000443,534.8619646000443,534.8619646000443,535.8328754000249,Objects\017b.jpg,pre,o,0.9654986000386998,None,,,,,,,,00039,001,2026-01-17_11h12.14.726,MST_test,2024.2.0,59.85131736098933,2026-01-17 11h12.30.524917 +0530,
141,0,142,s,1.707383100001607,None,142,0,141,535.8489213000285,,,,,,,,,,,,,,,,,,,,,,,,,,,,,,,,,,,,,,,,,,,,,,,,,,535.8329694000422,535.8489213000285,536.3340451000258,536.3580888000433,536.368106400012,536.368106400012,536.368106400012,538.0909015000216,Scenes\101a.jpg,pre,s,1.707383100001607,None,,,,,,,,00039,001,2026-01-17_11h12.14.726,MST_test,2024.2.0,59.85131736098933,2026-01-17 11h12.30.524917 +0530,
142,0,143,s,2.865988000005018,None,143,0,142,538.1067865000223,,,,,,,,,,,,,,,,,,,,,,,,,,,,,,,,,,,,,,,,,,,,,,,,,,538.0909964000457,538.1067865000223,538.591919700033,538.6145183000481,538.6251398000168,538.6251398000168,538.6251398000168,541.50254950003,Foils\018a.jpg,none,s,2.865988000005018,None,,,,,,,,00039,001,2026-01-17_11h12.14.726,MST_test,2024.2.0,59.85131736098933,2026-01-17 11h12.30.524917 +0530,
143,0,144,n,1.212699900032021,None,144,0,143,541.5187891999958,,,,,,,,,,,,,,,,,,,,,,,,,,,,,,,,,,,,,,,,,,,,,,,,,,541.5026463000104,541.5187891999958,542.003734500031,542.0234836000018,542.0381245000171,542.0381245000171,542.0381245000171,543.2586614000029,Foils\scenes4.jpg,none,n,1.212699900032021,None,,,,,,,,00039,001,2026-01-17_11h12.14.726,MST_test,2024.2.0,59.85131736098933,2026-01-17 11h12.30.524917 +0530,
144,0,145,o,1.1931960000074469,None,145,0,144,543.274922600016,,,,,,,,,,,,,,,,,,,,,,,,,,,,,,,,,,,,,,,,,,,,,,,,,,543.2587748000515,543.274922600016,543.7599068999989,543.7815365000279,543.7941919000004,543.7941919000004,543.7941919000004,544.9979215000058,Scenes\163a.jpg,post,o,1.1931960000074469,None,,,,,,,,00039,001,2026-01-17_11h12.14.726,MST_test,2024.2.0,59.85131736098933,2026-01-17 11h12.30.524917 +0530,
145,0,146,o,1.3908929000026546,None,146,0,145,545.0143497000099,,,,,,,,,,,,,,,,,,,,,,,,,,,,,,,,,,,,,,,,,,,,,,,,,,544.9980197999976,545.0143497000099,545.4994441000163,545.5216084000422,545.5326747000217,545.5326747000217,545.5326747000217,546.9386985000456,Objects\038b.jpg,pre,o,1.3908929000026546,None,,,,,,,,00039,001,2026-01-17_11h12.14.726,MST_test,2024.2.0,59.85131736098933,2026-01-17 11h12.30.524917 +0530,
146,0,147,n,2.529030000034254,None,147,0,146,546.9544822000316,,,,,,,,,,,,,,,,,,,,,,,,,,,,,,,,,,,,,,,,,,,,,,,,,,546.9388060000492,546.9544822000316,547.4396191000124,547.4572743000463,547.4741842000512,547.4741842000512,547.4741842000512,550.0156157000456,Scenes\022a.jpg,mid,n,2.529030000034254,None,,,,,,,,00039,001,2026-01-17_11h12.14.726,MST_test,2024.2.0,59.85131736098933,2026-01-17 11h12.30.524917 +0530,
147,0,148,o,0.9241131999879144,None,148,0,147,550.0317498000222,,,,,,,,,,,,,,,,,,,,,,,,,,,,,,,,,,,,,,,,,,,,,,,,,,550.0157151000458,550.0317498000222,550.5174405000289,550.5316827000352,550.550417600025,550.550417600025,550.550417600025,551.4877990999958,Objects\168a.jpg,post,o,0.9241131999879144,None,,,,,,,,00039,001,2026-01-17_11h12.14.726,MST_test,2024.2.0,59.85131736098933,2026-01-17 11h12.30.524917 +0530,
148,0,149,s,1.1391152000287548,None,149,0,148,551.5038300000015,,,,,,,,,,,,,,,,,,,,,,,,,,,,,,,,,,,,,,,,,,,,,,,,,,551.4879102000268,551.5038300000015,551.9886987000355,552.02527870005,552.0397574000526,552.0397574000526,552.0397574000526,553.193430000043,Scenes\037b.jpg,pre,s,1.1391152000287548,None,,,,,,,,00039,001,2026-01-17_11h12.14.726,MST_test,2024.2.0,59.85131736098933,2026-01-17 11h12.30.524917 +0530,
149,0,150,o,1.4264634000137448,None,150,0,149,553.2097157000098,,,,,,,,,,,,,,,,,,,,,,,,,,,,,,,,,,,,,,,,,,,,,,,,,,553.1935321000055,553.2097157000098,553.6946704000002,553.7183112000348,553.7281381000066,553.7281381000066,553.7281381000066,555.1671029000427,Scenes\141a.jpg,mid,o,1.4264634000137448,None,,,,,,,,00039,001,2026-01-17_11h12.14.726,MST_test,2024.2.0,59.85131736098933,2026-01-17 11h12.30.524917 +0530,
,,,,,,,,,,,,,,,,,,,,,,,,,,,,,,,,,,,,,,,,,,,,,,,,,,,,,,,,,,,,,,,,,,,,,,,,555.1671715000411,555.1831565000466,555.1831565000466,557.0576538000023,space,1.8683686999720521,None,00039,001,2026-01-17_11h12.14.726,MST_test,2024.2.0,59.85131736098933,2026-01-17 11h12.30.524917 +0530,
