Sl_no,image_path,thisN,thisTrialN,thisRepN,key_resp_5.keys,key_resp_7.keys,key_resp_7.rt,key_resp_7.duration,key_resp_5.rt,key_resp_5.duration,key_resp_9.keys,key_resp_9.rt,key_resp_9.duration,key_resp_8.keys,key_resp_8.rt,key_resp_8.duration,practice.thisRepN,practice.thisTrialN,practice.thisN,trials.thisRepN,trials.thisTrialN,trials.thisN,thisRow.t,notes,welcome_page.started,text.started,key_resp.started,welcome_page.stopped,key_resp.keys,key_resp.rt,key_resp.duration,instructions.started,ins.started,key_resp_2.started,instructions.stopped,key_resp_2.keys,key_resp_2.rt,key_resp_2.duration,instructions_2.started,text_10.started,key_resp_10.started,instructions_2.stopped,key_resp_10.keys,key_resp_10.rt,key_resp_10.duration,objects_only_instruction.started,text_3.started,key_resp_3.started,objects_only_instruction.stopped,key_resp_3.keys,key_resp_3.rt,key_resp_3.duration,ISI.started,text_4.started,ISI.stopped,practice_block.started,image.started,text_5.started,key_resp_5.started,practice_block.stopped,practice.key_resp_5.keys,indoor_outdoor.started,text_7.started,key_resp_7.started,indoor_outdoor.stopped,practice.key_resp_7.keys,practice.key_resp_7.rt,practice.key_resp_7.duration,text_4.stopped,image.stopped,text_5.stopped,key_resp_5.stopped,practice.key_resp_5.rt,practice.key_resp_5.duration,practice_to_main.started,text_2.started,key_resp_4.started,practice_to_main.stopped,key_resp_4.keys,key_resp_4.rt,key_resp_4.duration,objects.started,image_2.started,text_9.started,key_resp_9.started,objects.stopped,trials.key_resp_9.keys,trials.key_resp_9.rt,trials.key_resp_9.duration,encoding_task.started,encoding_task.stopped,trials.key_resp_8.keys,image_2.stopped,text_9.stopped,key_resp_9.stopped,text_8.started,key_resp_8.started,trials.key_resp_8.rt,trials.key_resp_8.duration,end_experiment.started,text_6.started,key_resp_6.started,end_experiment.stopped,key_resp_6.keys,key_resp_6.rt,key_resp_6.duration,list_of_stimuli,encoding_task_accuracy,participant,session,date,expName,psychopyVersion,frameRate,expStart,
,,,,,,,,,,,,,,,,,,,,,,,,,0.0011407999991206452,0.0026437999913468957,0.0026437999913468957,1031.3703711999988,space,1031.3623379999917,None,,,,,,,,,,,,,,,,,,,,,,,,,,,,,,,,,,,,,,,,,,,,,,,,,,,,,,,,,,,,,,,,,,,,,,,,,,,,,,00032,001,2026-01-16_10h16.07.864,MST_task,2024.2.0,59.86690389636483,2026-01-16 10h16.14.986166 +0530,
,,,,,,,,,,,,,,,,,,,,,,,,,,,,,,,,1031.37041399999,1031.384460100002,1031.384460100002,1053.6517488999962,space,22.261530199990375,None,,,,,,,,,,,,,,,,,,,,,,,,,,,,,,,,,,,,,,,,,,,,,,,,,,,,,,,,,,,,,,,,,,,,,,,00032,001,2026-01-16_10h16.07.864,MST_task,2024.2.0,59.86690389636483,2026-01-16 10h16.14.986166 +0530,
,,,,,,,,,,,,,,,,,,,,,,,,,,,,,,,,,,,,,,,1053.651774500002,1053.6680261000001,1053.6680261000001,1076.5019752999942,space,22.82583539999905,None,,,,,,,,,,,,,,,,,,,,,,,,,,,,,,,,,,,,,,,,,,,,,,,,,,,,,,,,,,,,,,,,00032,001,2026-01-16_10h16.07.864,MST_task,2024.2.0,59.86690389636483,2026-01-16 10h16.14.986166 +0530,
,,,,,,,,,,,,,,,,,,,,,,,,,,,,,,,,,,,,,,,,,,,,,,1076.5020048000006,1076.5180799999944,1076.5180799999944,1095.551918799989,space,19.03131890000077,None,,,,,,,,,,,,,,,,,,,,,,,,,,,,,,,,,,,,,,,,,,,,,,,,,,,,,,,,,00032,001,2026-01-16_10h16.07.864,MST_task,2024.2.0,59.86690389636483,2026-01-16 10h16.14.986166 +0530,
3,practice_images/037a.jpg,0,0,1,None,f,10.319807199994102,None,,,,,,,,,1,0,0,,,,1095.574002399997,,,,,,,,,,,,,,,,,,,,,,,,,,,,,,1095.571802099992,1095.574002399997,1096.068257299994,1096.085137999995,1096.096677900001,1096.096677900001,1096.096677900001,1099.068303699998,None,1099.0700594999944,1099.0847713999974,1099.0847713999974,1109.4185067999933,f,10.319807199994102,None,,,,,,,,,,,,,,,,,,,,,,,,,,,,,,,,,,,,,,,,,00032,001,2026-01-16_10h16.07.864,MST_task,2024.2.0,59.86690389636483,2026-01-16 10h16.14.986166 +0530,
4,practice_images/002b.jpg,1,1,1,f,None,,,2.95089329998882,None,,,,,,,1,1,1,,,,1109.4346631999942,,,,,,,,,,,,,,,,,,,,,,,,,,,,,,1109.4186039999913,1109.4346631999942,1109.9183668999904,1109.9271002000023,1109.9349795999879,1109.9349795999879,1109.9349795999879,1112.9184736999887,f,1112.9185137000022,,,1112.9185261999955,None,,,1109.9349795999879,1112.934782299999,1112.934782299999,1112.934782299999,2.95089329998882,None,,,,,,,,,,,,,,,,,,,,,,,,,,,,,,,,,,,00032,001,2026-01-16_10h16.07.864,MST_task,2024.2.0,59.86690389636483,2026-01-16 10h16.14.986166 +0530,
10,practice_images/182a.jpg,2,2,1,f,None,,,1.434055100005935,0.15210690000094473,,,,,,,1,2,2,,,,1112.934782299999,,,,,,,,,,,,,,,,,,,,,,,,,,,,,,1112.9185930999956,1112.934782299999,1113.4182875999977,1113.4268522999919,1113.4349485999992,1113.4349485999992,1113.4349485999992,1116.4185606999963,f,1116.4185987999954,,,1116.4186106999987,None,,,1113.4349485999992,1116.4347093999968,1116.4347093999968,1116.4347093999968,1.434055100005935,0.15210690000094473,,,,,,,,,,,,,,,,,,,,,,,,,,,,,,,,,,,00032,001,2026-01-16_10h16.07.864,MST_task,2024.2.0,59.86690389636483,2026-01-16 10h16.14.986166 +0530,
6,practice_images/158a.jpg,3,3,1,j,None,,,2.214420500007691,0.11995700000261422,,,,,,,1,3,3,,,,1116.4347093999968,,,,,,,,,,,,,,,,,,,,,,,,,,,,,,1116.4186812999978,1116.4347093999968,1116.9185776999948,1116.9282762999937,1116.9349610999925,1116.9349610999925,1116.9349610999925,1119.9186479999917,j,1119.9187034999923,,,1119.9187190999946,None,,,1116.9349610999925,1119.9348127999983,1119.9348127999983,1119.9348127999983,2.214420500007691,0.11995700000261422,,,,,,,,,,,,,,,,,,,,,,,,,,,,,,,,,,,00032,001,2026-01-16_10h16.07.864,MST_task,2024.2.0,59.86690389636483,2026-01-16 10h16.14.986166 +0530,
8,practice_images/178a.jpg,4,4,1,j,None,,,2.482103200003621,0.1446581999916816,,,,,,,1,4,4,,,,1119.9348127999983,,,,,,,,,,,,,,,,,,,,,,,,,,,,,,1119.918785899994,1119.9348127999983,1120.4182950999966,1120.426597400001,1120.4349318999884,1120.4349318999884,1120.4349318999884,1123.41858279999,j,1123.4186215999944,,,1123.4186339000007,None,,,1120.4349318999884,1123.4347313999897,1123.4347313999897,1123.4347313999897,2.482103200003621,0.1446581999916816,,,,,,,,,,,,,,,,,,,,,,,,,,,,,,,,,,,00032,001,2026-01-16_10h16.07.864,MST_task,2024.2.0,59.86690389636483,2026-01-16 10h16.14.986166 +0530,
7,practice_images/166a.jpg,5,5,1,None,j,5.261889499990502,None,,,,,,,,,1,5,5,,,,1123.4347313999897,,,,,,,,,,,,,,,,,,,,,,,,,,,,,,1123.418697199988,1123.4347313999897,1123.918781699991,1123.931675499989,1123.9351713999931,1123.9351713999931,1123.9351713999931,1126.9185179999913,None,1126.9211608999904,1126.9346991999919,1126.9346991999919,1132.202028499989,j,5.261889499990502,None,1123.9351713999931,1126.9346991999919,1126.9346991999919,1126.9346991999919,,,,,,,,,,,,,,,,,,,,,,,,,,,,,,,,,,,,,00032,001,2026-01-16_10h16.07.864,MST_task,2024.2.0,59.86690389636483,2026-01-16 10h16.14.986166 +0530,
1,practice_images/013a.jpg,6,6,1,None,j,1.3040315999969607,None,,,,,,,,,1,6,6,,,,1132.2181393999927,,,,,,,,,,,,,,,,,,,,,,,,,,,,,,1132.2021145999897,1132.2181393999927,1132.7017034000019,1132.7104024,1132.7182184999983,1132.7182184999983,1132.7182184999983,1135.7017695999966,None,1135.7018153999961,1135.7179768999922,1135.7179768999922,1137.0350799000007,j,1.3040315999969607,None,1132.7182184999983,1135.7179768999922,1135.7179768999922,1135.7179768999922,,,,,,,,,,,,,,,,,,,,,,,,,,,,,,,,,,,,,00032,001,2026-01-16_10h16.07.864,MST_task,2024.2.0,59.86690389636483,2026-01-16 10h16.14.986166 +0530,
2,practice_images/031a.jpg,7,7,1,None,j,1.1896711000008509,None,,,,,,,,,1,7,7,,,,1137.0512968999974,,,,,,,,,,,,,,,,,,,,,,,,,,,,,,1137.035163099994,1137.0512968999974,1137.5348833999888,1137.5434433999908,1137.5515694999922,1137.5515694999922,1137.5515694999922,1140.5350120999938,None,1140.5350491999998,1140.551384899998,1140.551384899998,1141.752298499996,j,1.1896711000008509,None,1137.5515694999922,1140.551384899998,1140.551384899998,1140.551384899998,,,,,,,,,,,,,,,,,,,,,,,,,,,,,,,,,,,,,00032,001,2026-01-16_10h16.07.864,MST_task,2024.2.0,59.86690389636483,2026-01-16 10h16.14.986166 +0530,
9,practice_images/180a.jpg,8,8,1,j,None,,,2.6165611000033095,0.13706079999974463,,,,,,,1,8,8,,,,1141.7681900999887,,,,,,,,,,,,,,,,,,,,,,,,,,,,,,1141.752393799994,1141.7681900999887,1142.2515901000006,1142.2601988999959,1142.268185599998,1142.268185599998,1142.268185599998,1145.251858699994,j,1145.2518975999992,,,1145.2519100999925,None,,,1142.268185599998,1145.2682054999896,1145.2682054999896,1145.2682054999896,2.6165611000033095,0.13706079999974463,,,,,,,,,,,,,,,,,,,,,,,,,,,,,,,,,,,00032,001,2026-01-16_10h16.07.864,MST_task,2024.2.0,59.86690389636483,2026-01-16 10h16.14.986166 +0530,
5,practice_images/139a.jpg,9,9,1,j,None,,,1.6767853000055766,0.13613460000487976,,,,,,,1,9,9,,,,1145.2682054999896,,,,,,,,,,,,,,,,,,,,,,,,,,,,,,1145.2519743000012,1145.2682054999896,1145.751617099988,1145.7597075999947,1145.7682380999904,1145.7682380999904,1145.7682380999904,1148.7517850000004,j,1148.7518249999994,,,1148.7518382999988,None,,,1145.7682380999904,1148.7680664999934,1148.7680664999934,1148.7680664999934,1.6767853000055766,0.13613460000487976,,,,,,,,,,,,,,,,,,,,,,,,,,,,,,,,,,,00032,001,2026-01-16_10h16.07.864,MST_task,2024.2.0,59.86690389636483,2026-01-16 10h16.14.986166 +0530,
,,,,,,,,,,,,,,,,,,,,,,,,,,,,,,,,,,,,,,,,,,,,,,,,,,,,,,,,,,,,,,,,,,,,,,,,,,,1148.7518822999991,1148.7680664999934,1148.7680664999934,1183.7684288000019,space,34.988663300013286,None,,,,,,,,,,,,,,,,,,,,,,,,,,,,00032,001,2026-01-16_10h16.07.864,MST_task,2024.2.0,59.86690389636483,2026-01-16 10h16.14.986166 +0530,
,Scenes\016a.jpg,0,0,1,,,,,,,j,1.8984737999999197,0.14402140000311192,None,,,,,,1,0,0,1183.784539100001,,,,,,,,,,,,,,,,,,,,,,,,,,,,,,1183.7692001999967,1183.784539100001,1184.2682282999886,,,,,,,,,,,,,,1184.2908745999885,,,,,,,,,,,,,1184.2876703999937,1184.2908745999885,1184.2908745999885,1184.2908745999885,1187.2848997999972,j,1.8984737999999197,0.14402140000311192,1187.2865682999982,1187.286587399998,None,,,,,,,,,,,,,,,,,00032,001,2026-01-16_10h16.07.864,MST_task,2024.2.0,59.86690389636483,2026-01-16 10h16.14.986166 +0530,
,Scenes\096a.jpg,1,0,2,,,,,,,j,2.411769500002265,0.11199049999413546,None,,,,,,2,0,1,1187.301396099996,,,,,,,,,,,,,,,,,,,,,,,,,,,,,,1187.2866835999885,1187.301396099996,1187.7848131999926,,,,,,,,,,,,,,1187.8017863999994,,,,,,,,,,,,,1187.7972978999896,1187.8017863999994,1187.8017863999994,1187.8017863999994,1190.7852580999897,j,2.411769500002265,0.11199049999413546,1190.7853038999892,1190.7853231999907,None,1190.801363999999,1190.801363999999,1190.801363999999,,,,,,,,,,,,,,00032,001,2026-01-16_10h16.07.864,MST_task,2024.2.0,59.86690389636483,2026-01-16 10h16.14.986166 +0530,
,Scenes\117a.jpg,2,0,3,,,,,,,j,1.8947260999993887,0.1520271000044886,None,,,,,,3,0,2,1190.801363999999,,,,,,,,,,,,,,,,,,,,,,,,,,,,,,1190.7854315000004,1190.801363999999,1191.2848187999916,,,,,,,,,,,,,,1191.3019146000006,,,,,,,,,,,,,1191.2984832999937,1191.3019146000006,1191.3019146000006,1191.3019146000006,1194.285206200002,j,1.8947260999993887,0.1520271000044886,1194.285249499997,1194.285260699995,None,1194.3013949000015,1194.3013949000015,1194.3013949000015,,,,,,,,,,,,,,00032,001,2026-01-16_10h16.07.864,MST_task,2024.2.0,59.86690389636483,2026-01-16 10h16.14.986166 +0530,
,Scenes\183a.jpg,3,0,4,,,,,,,f,2.9054422000044724,None,None,,,,,,4,0,3,1194.3013949000015,,,,,,,,,,,,,,,,,,,,,,,,,,,,,,1194.285355999993,1194.3013949000015,1194.7848405999976,,,,,,,,,,,,,,1194.8039564999926,,,,,,,,,,,,,1194.801569999996,1194.8039564999926,1194.8039564999926,1194.8039564999926,1197.8017285999958,f,2.9054422000044724,None,1197.8017758999922,1197.8017881999986,None,,,,,,,,,,,,,,,,,00032,001,2026-01-16_10h16.07.864,MST_task,2024.2.0,59.86690389636483,2026-01-16 10h16.14.986166 +0530,
,Scenes\039a.jpg,4,0,5,,,,,,,j,1.078183200006606,0.15291330000036396,None,,,,,,5,0,4,1197.818079299992,,,,,,,,,,,,,,,,,,,,,,,,,,,,,,1197.801893099997,1197.818079299992,1198.3017333999887,,,,,,,,,,,,,,1198.3187017000018,,,,,,,,,,,,,1198.3152454999945,1198.3187017000018,1198.3187017000018,1198.3187017000018,1201.3020668999961,j,1.078183200006606,0.15291330000036396,1201.3021105999942,1201.3021212000021,None,1201.3181501999934,1201.3181501999934,1201.3181501999934,,,,,,,,,,,,,,00032,001,2026-01-16_10h16.07.864,MST_task,2024.2.0,59.86690389636483,2026-01-16 10h16.14.986166 +0530,
,Scenes\190a.jpg,5,0,6,,,,,,,j,1.0214835999940988,0.12908660000539385,None,,,,,,6,0,5,1201.3181501999934,,,,,,,,,,,,,,,,,,,,,,,,,,,,,,1201.3022160999972,1201.3181501999934,1201.8017341999948,,,,,,,,,,,,,,1201.8231756999885,,,,,,,,,,,,,1201.8207152999967,1201.8231756999885,1201.8231756999885,1201.8231756999885,1204.8184390999959,j,1.0214835999940988,0.12908660000539385,1204.8184830999962,1204.8184955999895,None,,,,,,,,,,,,,,,,,00032,001,2026-01-16_10h16.07.864,MST_task,2024.2.0,59.86690389636483,2026-01-16 10h16.14.986166 +0530,
,Scenes\035a.jpg,6,0,7,,,,,,,None,,,j,1.0216388999979245,None,,,,7,0,6,1204.8347813,,,,,,,,,,,,,,,,,,,,,,,,,,,,,,1204.818564000001,1204.8347813,1205.3183603999933,,,,,,,,,,,,,,1205.3381742999918,,,,,,,,,,,,,1205.3357754999888,1205.3381742999918,1205.3381742999918,1205.3381742999918,1208.3349759999983,None,,,1208.335015699995,1209.3853346999967,j,,,,1208.3514350999903,1208.3514350999903,1.0216388999979245,None,,,,,,,,,,00032,001,2026-01-16_10h16.07.864,MST_task,2024.2.0,59.86690389636483,2026-01-16 10h16.14.986166 +0530,
,Objects\171a.jpg,7,0,8,,,,,,,None,,,j,0.4631967000022996,None,,,,8,0,7,1209.4014750999922,,,,,,,,,,,,,,,,,,,,,,,,,,,,,,1209.3854236999905,1209.4014750999922,1209.8850823999965,,,,,,,,,,,,,,1209.9065408999886,,,,,,,,,,,,,1209.9043801999942,1209.9065408999886,1209.9065408999886,1209.9065408999886,1212.901740699992,None,,,1212.9053321999963,1213.3852316999983,j,,,,1212.9180976999924,1212.9180976999924,0.4631967000022996,None,,,,,,,,,,00032,001,2026-01-16_10h16.07.864,MST_task,2024.2.0,59.86690389636483,2026-01-16 10h16.14.986166 +0530,
,Objects\138a.jpg,8,0,9,,,,,,,j,1.639053300008527,0.13602399999217596,None,,,,,,9,0,8,1213.4014061999915,,,,,,,,,,,,,,,,,,,,,,,,,,,,,,1213.3853541999997,1213.4014061999915,1213.8850373000023,,,,,,,,,,,,,,1213.9017624999979,,,,,,,,,,,,,1213.8946195999888,1213.9017624999979,1213.9017624999979,1213.9017624999979,1216.8853450999886,j,1.639053300008527,0.13602399999217596,1216.885387599992,1216.8853998999984,None,1216.90145759999,1216.90145759999,1216.90145759999,,,,,,,,,,,,,,00032,001,2026-01-16_10h16.07.864,MST_task,2024.2.0,59.86690389636483,2026-01-16 10h16.14.986166 +0530,
,Objects\106a.jpg,9,0,10,,,,,,,f,1.810870100001921,0.15999260000535287,None,,,,,,10,0,9,1216.90145759999,,,,,,,,,,,,,,,,,,,,,,,,,,,,,,1216.8854961999896,1216.90145759999,1217.3850651999965,,,,,,,,,,,,,,1217.4017330999923,,,,,,,,,,,,,1217.3946094999992,1217.4017330999923,1217.4017330999923,1217.4017330999923,1220.3854473999963,f,1.810870100001921,0.15999260000535287,1220.3854890999937,1220.3854999999894,None,1220.4014713999932,1220.4014713999932,1220.4014713999932,,,,,,,,,,,,,,00032,001,2026-01-16_10h16.07.864,MST_task,2024.2.0,59.86690389636483,2026-01-16 10h16.14.986166 +0530,
,Objects\100a.jpg,10,0,11,,,,,,,f,1.6318864000058966,0.16706520000298042,None,,,,,,11,0,10,1220.4014713999932,,,,,,,,,,,,,,,,,,,,,,,,,,,,,,1220.3855982999958,1220.4014713999932,1220.8849147,,,,,,,,,,,,,,1220.9017983999947,,,,,,,,,,,,,1220.8947501999937,1220.9017983999947,1220.9017983999947,1220.9017983999947,1223.8853481999977,f,1.6318864000058966,0.16706520000298042,1223.8853896999935,1223.8854005999892,None,1223.9014336999971,1223.9014336999971,1223.9014336999971,,,,,,,,,,,,,,00032,001,2026-01-16_10h16.07.864,MST_task,2024.2.0,59.86690389636483,2026-01-16 10h16.14.986166 +0530,
,Objects\109a.jpg,11,0,12,,,,,,,j,1.5877218000096036,0.1430526999902213,None,,,,,,12,0,11,1223.9014336999971,,,,,,,,,,,,,,,,,,,,,,,,,,,,,,1223.8854662999947,1223.9014336999971,1224.3851408999908,,,,,,,,,,,,,,1224.4018084999989,,,,,,,,,,,,,1224.3946488999936,1224.4018084999989,1224.4018084999989,1224.4018084999989,1227.3853168999922,j,1.5877218000096036,0.1430526999902213,1227.385361099994,1227.3853728999966,None,1227.401523099994,1227.401523099994,1227.401523099994,,,,,,,,,,,,,,00032,001,2026-01-16_10h16.07.864,MST_task,2024.2.0,59.86690389636483,2026-01-16 10h16.14.986166 +0530,
,Objects\150a.jpg,12,0,13,,,,,,,j,1.6948719999927562,0.14396030000352766,None,,,,,,13,0,12,1227.401523099994,,,,,,,,,,,,,,,,,,,,,,,,,,,,,,1227.3854699999938,1227.401523099994,1227.8850633999973,,,,,,,,,,,,,,1227.9017672999908,,,,,,,,,,,,,1227.894581799992,1227.9017672999908,1227.9017672999908,1227.9017672999908,1230.8854063999897,j,1.6948719999927562,0.14396030000352766,1230.8854613000003,1230.885473199989,None,1230.9013874999946,1230.9013874999946,1230.9013874999946,,,,,,,,,,,,,,00032,001,2026-01-16_10h16.07.864,MST_task,2024.2.0,59.86690389636483,2026-01-16 10h16.14.986166 +0530,
,Objects\112a.jpg,13,0,14,,,,,,,j,1.6907790000113891,0.15199059998849407,None,,,,,,14,0,13,1230.9013874999946,,,,,,,,,,,,,,,,,,,,,,,,,,,,,,1230.8855433999997,1230.9013874999946,1231.385083999994,,,,,,,,,,,,,,1231.4017772999941,,,,,,,,,,,,,1231.3947641999985,1231.4017772999941,1231.4017772999941,1231.4017772999941,1234.3853369999997,j,1.6907790000113891,0.15199059998849407,1234.3853897999943,1234.3854008999915,None,1234.4014805999905,1234.4014805999905,1234.4014805999905,,,,,,,,,,,,,,00032,001,2026-01-16_10h16.07.864,MST_task,2024.2.0,59.86690389636483,2026-01-16 10h16.14.986166 +0530,
,Scenes\150a.jpg,14,0,15,,,,,,,None,,,j,0.15035619999980554,None,,,,15,0,14,1234.4014805999905,,,,,,,,,,,,,,,,,,,,,,,,,,,,,,1234.3854673999886,1234.4014805999905,1234.8849087999988,,,,,,,,,,,,,,1234.905271800002,,,,,,,,,,,,,1234.9028629999957,1234.905271800002,1234.905271800002,1234.905271800002,1237.9017344999884,None,,,1237.9033959999942,1238.0850753999985,j,,,,1237.91821779999,1237.91821779999,0.15035619999980554,None,,,,,,,,,,00032,001,2026-01-16_10h16.07.864,MST_task,2024.2.0,59.86690389636483,2026-01-16 10h16.14.986166 +0530,
,Scenes\009a.jpg,15,0,16,,,,,,,None,,,f,0.03485450000152923,None,,,,16,0,15,1238.1015139999945,,,,,,,,,,,,,,,,,,,,,,,,,,,,,,1238.085193299994,1238.1015139999945,1238.5851409999887,,,,,,,,,,,,,,1238.6065507000021,,,,,,,,,,,,,1238.6041889999906,1238.6065507000021,1238.6065507000021,1238.6065507000021,1241.6017517,None,,,1241.6017902999884,1241.6684533999942,f,,,,1241.6181146000017,1241.6181146000017,0.03485450000152923,None,,,,,,,,,,00032,001,2026-01-16_10h16.07.864,MST_task,2024.2.0,59.86690389636483,2026-01-16 10h16.14.986166 +0530,
,Scenes\085a.jpg,16,0,17,,,,,,,j,1.247648799995659,0.15202020001015626,None,,,,,,17,0,16,1241.684831199993,,,,,,,,,,,,,,,,,,,,,,,,,,,,,,1241.6685383000004,1241.684831199993,1242.168506899994,,,,,,,,,,,,,,1242.1893683999951,,,,,,,,,,,,,1242.1867304999905,1242.1893683999951,1242.1893683999951,1242.1893683999951,1245.1849517999945,j,1.247648799995659,0.15202020001015626,1245.1849967999879,1245.185008799992,None,,,,,,,,,,,,,,,,,00032,001,2026-01-16_10h16.07.864,MST_task,2024.2.0,59.86690389636483,2026-01-16 10h16.14.986166 +0530,
,Scenes\020a.jpg,17,0,18,,,,,,,f,1.7532055999909062,0.18397130000812467,None,,,,,,18,0,17,1245.2036213999963,,,,,,,,,,,,,,,,,,,,,,,,,,,,,,1245.1851101999928,1245.2036213999963,1245.7016147999966,,,,,,,,,,,,,,,,,,,,,,,,,,,1245.7213202999992,1245.7237951999996,1245.7237951999996,1245.7237951999996,1248.7016925999924,f,1.7532055999909062,0.18397130000812467,1248.7017423999932,1248.7017550000019,None,,,,,,,,,,,,,,,,,00032,001,2026-01-16_10h16.07.864,MST_task,2024.2.0,59.86690389636483,2026-01-16 10h16.14.986166 +0530,
,Scenes\027a.jpg,18,0,19,,,,,,,f,2.1595691999973496,0.15999930001271423,None,,,,,,19,0,18,1248.71804539999,,,,,,,,,,,,,,,,,,,,,,,,,,,,,,1248.701867099997,1248.71804539999,1249.2036470999883,,,,,,,,,,,,,,,,,,,,,,,,,,,1249.2184489999927,1249.2210426999955,1249.2210426999955,1249.2210426999955,1252.2036411000008,f,2.1595691999973496,0.15999930001271423,1252.203683499989,1252.2036953999923,None,,,,,,,,,,,,,,,,,00032,001,2026-01-16_10h16.07.864,MST_task,2024.2.0,59.86690389636483,2026-01-16 10h16.14.986166 +0530,
,Scenes\107a.jpg,19,0,20,,,,,,,j,0.8353539000090677,0.1520120999921346,None,,,,,,20,0,19,1252.2181666999968,,,,,,,,,,,,,,,,,,,,,,,,,,,,,,1252.2037653000007,1252.2181666999968,1252.7019618999911,,,,,,,,,,,,,,1252.7220927999879,,,,,,,,,,,,,1252.7197001999884,1252.7220927999879,1252.7220927999879,1252.7220927999879,1255.718340499996,j,0.8353539000090677,0.1520120999921346,1255.7183834999887,1255.718395399992,None,,,,,,,,,,,,,,,,,00032,001,2026-01-16_10h16.07.864,MST_task,2024.2.0,59.86690389636483,2026-01-16 10h16.14.986166 +0530,
,Scenes\058a.jpg,20,0,21,,,,,,,f,1.06438640000124,0.18393549999746028,None,,,,,,21,0,20,1255.734658100002,,,,,,,,,,,,,,,,,,,,,,,,,,,,,,1255.7184644999943,1255.734658100002,1256.2183680000016,,,,,,,,,,,,,,1256.2368819999974,,,,,,,,,,,,,1256.2345159999968,1256.2368819999974,1256.2368819999974,1256.2368819999974,1259.2349851999898,f,1.06438640000124,0.18393549999746028,1259.2350404999888,1259.2350530999975,None,,,,,,,,,,,,,,,,,00032,001,2026-01-16_10h16.07.864,MST_task,2024.2.0,59.86690389636483,2026-01-16 10h16.14.986166 +0530,
,Objects\134a.jpg,21,0,22,,,,,,,j,2.52633120000246,0.1747276999958558,None,,,,,,22,0,21,1259.2514244999911,,,,,,,,,,,,,,,,,,,,,,,,,,,,,,1259.2351710999937,1259.2514244999911,1259.734847499989,,,,,,,,,,,,,,1259.7518649999984,,,,,,,,,,,,,1259.7477217999985,1259.7518649999984,1259.7518649999984,1259.7518649999984,1262.735214299988,j,2.52633120000246,0.1747276999958558,1262.7372308999911,1262.737248599995,None,1262.7514269999956,1262.7514269999956,1262.7514269999956,,,,,,,,,,,,,,00032,001,2026-01-16_10h16.07.864,MST_task,2024.2.0,59.86690389636483,2026-01-16 10h16.14.986166 +0530,
,Objects\041a.jpg,22,0,23,,,,,,,j,1.8412432000041008,0.14451269998971839,None,,,,,,23,0,22,1262.7514269999956,,,,,,,,,,,,,,,,,,,,,,,,,,,,,,1262.7373483999982,1262.7514269999956,1263.2349276000023,,,,,,,,,,,,,,1263.2516463999928,,,,,,,,,,,,,1263.2447979999997,1263.2516463999928,1263.2516463999928,1263.2516463999928,1266.2351111999888,j,1.8412432000041008,0.14451269998971839,1266.2351540999953,1266.2351654999948,None,1266.2514355999883,1266.2514355999883,1266.2514355999883,,,,,,,,,,,,,,00032,001,2026-01-16_10h16.07.864,MST_task,2024.2.0,59.86690389636483,2026-01-16 10h16.14.986166 +0530,
,Objects\053a.jpg,23,0,24,,,,,,,f,1.3669350999989547,0.1822210999962408,None,,,,,,24,0,23,1266.2514355999883,,,,,,,,,,,,,,,,,,,,,,,,,,,,,,1266.2352653999988,1266.2514355999883,1266.7349141000013,,,,,,,,,,,,,,1266.7516419999884,,,,,,,,,,,,,1266.7445345000015,1266.7516419999884,1266.7516419999884,1266.7516419999884,1269.7352134999965,f,1.3669350999989547,0.1822210999962408,1269.7352561000007,1269.7352675000002,None,1269.7513506999967,1269.7513506999967,1269.7513506999967,,,,,,,,,,,,,,00032,001,2026-01-16_10h16.07.864,MST_task,2024.2.0,59.86690389636483,2026-01-16 10h16.14.986166 +0530,
,Objects\080a.jpg,24,0,25,,,,,,,f,1.7770598000061,0.17596229999617208,None,,,,,,25,0,24,1269.7513506999967,,,,,,,,,,,,,,,,,,,,,,,,,,,,,,1269.7353709000017,1269.7513506999967,1270.2348903999955,,,,,,,,,,,,,,1270.2516451999982,,,,,,,,,,,,,1270.2445430999942,1270.2516451999982,1270.2516451999982,1270.2516451999982,1273.2352470999904,f,1.7770598000061,0.17596229999617208,1273.235296400002,1273.2353086999938,None,1273.2514191999944,1273.2514191999944,1273.2514191999944,,,,,,,,,,,,,,00032,001,2026-01-16_10h16.07.864,MST_task,2024.2.0,59.86690389636483,2026-01-16 10h16.14.986166 +0530,
,Objects\071a.jpg,25,0,26,,,,,,,j,1.0216402000078233,0.14421280000533443,None,,,,,,26,0,25,1273.2514191999944,,,,,,,,,,,,,,,,,,,,,,,,,,,,,,1273.2353801999998,1273.2514191999944,1273.7348600999976,,,,,,,,,,,,,,1273.7515776999935,,,,,,,,,,,,,1273.7443115999922,1273.7515776999935,1273.7515776999935,1273.7515776999935,1276.7350985999947,j,1.0216402000078233,0.14421280000533443,1276.7351426999958,1276.735154199996,None,1276.751418499989,1276.751418499989,1276.751418499989,,,,,,,,,,,,,,00032,001,2026-01-16_10h16.07.864,MST_task,2024.2.0,59.86690389636483,2026-01-16 10h16.14.986166 +0530,
,Objects\065a.jpg,26,0,27,,,,,,,j,1.489545399992494,0.1845218000089517,None,,,,,,27,0,26,1276.751418499989,,,,,,,,,,,,,,,,,,,,,,,,,,,,,,1276.7352511999925,1276.751418499989,1277.2347936000006,,,,,,,,,,,,,,1277.2515808999888,,,,,,,,,,,,,1277.244176799999,1277.2515808999888,1277.2515808999888,1277.2515808999888,1280.2351187999884,j,1.489545399992494,0.1845218000089517,1280.235162699988,1280.2351737999998,None,1280.2513431999978,1280.2513431999978,1280.2513431999978,,,,,,,,,,,,,,00032,001,2026-01-16_10h16.07.864,MST_task,2024.2.0,59.86690389636483,2026-01-16 10h16.14.986166 +0530,
,Objects\008a.jpg,27,0,28,,,,,,,f,1.3491054000041913,0.20048240000323858,None,,,,,,28,0,27,1280.2513431999978,,,,,,,,,,,,,,,,,,,,,,,,,,,,,,1280.235268999997,1280.2513431999978,1280.7349195999996,,,,,,,,,,,,,,1280.7517130999913,,,,,,,,,,,,,1280.7446257999982,1280.7517130999913,1280.7517130999913,1280.7517130999913,1283.7353895999986,f,1.3491054000041913,0.20048240000323858,1283.7354333999974,1283.7354444999946,None,1283.7513941999932,1283.7513941999932,1283.7513941999932,,,,,,,,,,,,,,00032,001,2026-01-16_10h16.07.864,MST_task,2024.2.0,59.86690389636483,2026-01-16 10h16.14.986166 +0530,
,Scenes\112a.jpg,28,0,29,,,,,,,j,0.7914512999996077,0.15158619999419898,None,,,,,,29,0,28,1283.7513941999932,,,,,,,,,,,,,,,,,,,,,,,,,,,,,,1283.7355485000007,1283.7513941999932,1284.234742200002,,,,,,,,,,,,,,1284.2543392999942,,,,,,,,,,,,,1284.2519599999941,1284.2543392999942,1284.2543392999942,1284.2543392999942,1287.2516745999892,j,0.7914512999996077,0.15158619999419898,1287.2532980999968,1287.2533173999982,None,,,,,,,,,,,,,,,,,00032,001,2026-01-16_10h16.07.864,MST_task,2024.2.0,59.86690389636483,2026-01-16 10h16.14.986166 +0530,
,Scenes\105a.jpg,29,0,30,,,,,,,j,1.0802939999994123,0.17654210000182502,None,,,,,,30,0,29,1287.2680357999925,,,,,,,,,,,,,,,,,,,,,,,,,,,,,,1287.2533882999996,1287.2680357999925,1287.7517544000002,,,,,,,,,,,,,,1287.7725349999964,,,,,,,,,,,,,1287.76996949999,1287.7725349999964,1287.7725349999964,1287.7725349999964,1290.7682997999946,j,1.0802939999994123,0.17654210000182502,1290.768344600001,1290.7683565999905,None,,,,,,,,,,,,,,,,,00032,001,2026-01-16_10h16.07.864,MST_task,2024.2.0,59.86690389636483,2026-01-16 10h16.14.986166 +0530,
,Scenes\134a.jpg,30,0,31,,,,,,,j,1.8764699999883305,0.15182860000641085,None,,,,,,31,0,30,1290.78457779999,,,,,,,,,,,,,,,,,,,,,,,,,,,,,,1290.7684557999892,1290.78457779999,1291.2683137999993,,,,,,,,,,,,,,1291.2888519999979,,,,,,,,,,,,,1291.2865078999894,1291.2888519999979,1291.2888519999979,1291.2888519999979,1294.2850814999983,j,1.8764699999883305,0.15182860000641085,1294.2851332999999,1294.2851453999901,None,,,,,,,,,,,,,,,,,00032,001,2026-01-16_10h16.07.864,MST_task,2024.2.0,59.86690389636483,2026-01-16 10h16.14.986166 +0530,
,Scenes\065a.jpg,31,0,32,,,,,,,j,2.2360140000091633,0.16795419999107253,None,,,,,,32,0,31,1294.301471499988,,,,,,,,,,,,,,,,,,,,,,,,,,,,,,1294.2852532999968,1294.301471499988,1294.7848805999965,,,,,,,,,,,,,,1294.802035399989,,,,,,,,,,,,,1294.7993206999963,1294.802035399989,1294.802035399989,1294.802035399989,1297.785176999998,j,2.2360140000091633,0.16795419999107253,1297.7852223999944,1297.7852337999939,None,1297.8013636999967,1297.8013636999967,1297.8013636999967,,,,,,,,,,,,,,00032,001,2026-01-16_10h16.07.864,MST_task,2024.2.0,59.86690389636483,2026-01-16 10h16.14.986166 +0530,
,Scenes\156a.jpg,32,0,33,,,,,,,j,1.5260863000003155,0.159449400001904,None,,,,,,33,0,32,1297.8013636999967,,,,,,,,,,,,,,,,,,,,,,,,,,,,,,1297.7853295999957,1297.8013636999967,1298.2848827999987,,,,,,,,,,,,,,1298.3031606000004,,,,,,,,,,,,,1298.3006790999934,1298.3031606000004,1298.3031606000004,1298.3031606000004,1301.301639600002,j,1.5260863000003155,0.159449400001904,1301.3016833000001,1301.3016954999912,None,,,,,,,,,,,,,,,,,00032,001,2026-01-16_10h16.07.864,MST_task,2024.2.0,59.86690389636483,2026-01-16 10h16.14.986166 +0530,
,Scenes\075a.jpg,33,0,34,,,,,,,j,1.1066233000019565,0.13624030000937637,None,,,,,,34,0,33,1301.3180883999885,,,,,,,,,,,,,,,,,,,,,,,,,,,,,,1301.301800199988,1301.3180883999885,1301.801576599988,,,,,,,,,,,,,,1301.8186936999991,,,,,,,,,,,,,1301.8150957999896,1301.8186936999991,1301.8186936999991,1301.8186936999991,1304.8018576999893,j,1.1066233000019565,0.13624030000937637,1304.801902799998,1304.801914399999,None,1304.8180923999898,1304.8180923999898,1304.8180923999898,,,,,,,,,,,,,,00032,001,2026-01-16_10h16.07.864,MST_task,2024.2.0,59.86690389636483,2026-01-16 10h16.14.986166 +0530,
,Scenes\097a.jpg,34,0,35,,,,,,,f,1.6954813999909675,0.15888260000792798,None,,,,,,35,0,34,1304.8180923999898,,,,,,,,,,,,,,,,,,,,,,,,,,,,,,1304.8020154999977,1304.8180923999898,1305.3016845999955,,,,,,,,,,,,,,1305.3185830000002,,,,,,,,,,,,,1305.3116494999995,1305.3185830000002,1305.3185830000002,1305.3185830000002,1308.3018632000021,f,1.6954813999909675,0.15888260000792798,1308.3019081999955,1308.3019194999943,None,1308.3181009999971,1308.3181009999971,1308.3181009999971,,,,,,,,,,,,,,00032,001,2026-01-16_10h16.07.864,MST_task,2024.2.0,59.86690389636483,2026-01-16 10h16.14.986166 +0530,
,Objects\143a.jpg,35,0,36,,,,,,,None,,,j,0.4906025999953272,None,,,,36,0,35,1308.3181009999971,,,,,,,,,,,,,,,,,,,,,,,,,,,,,,1308.3020176999999,1308.3181009999971,1308.801594199991,,,,,,,,,,,,,,1308.8184870999976,,,,,,,,,,,,,1308.813559199989,1308.8184870999976,1308.8184870999976,1308.8184870999976,1311.8019965999993,None,,,1311.8040423999919,1312.318418499999,j,1311.818128400002,1311.818128400002,1311.818128400002,1311.818128400002,1311.818128400002,0.4906025999953272,None,,,,,,,,,,00032,001,2026-01-16_10h16.07.864,MST_task,2024.2.0,59.86690389636483,2026-01-16 10h16.14.986166 +0530,
,Objects\141a.jpg,36,0,37,,,,,,,j,1.8182730999978958,0.16034039999067318,None,,,,,,37,0,36,1312.3345840999973,,,,,,,,,,,,,,,,,,,,,,,,,,,,,,1312.3185102999996,1312.3345840999973,1312.8182687999943,,,,,,,,,,,,,,1312.8349888999946,,,,,,,,,,,,,1312.8278812999924,1312.8349888999946,1312.8349888999946,1312.8349888999946,1315.8187357999996,j,1.8182730999978958,0.16034039999067318,1315.818782199989,1315.8187945999962,None,1315.834643299997,1315.834643299997,1315.834643299997,,,,,,,,,,,,,,00032,001,2026-01-16_10h16.07.864,MST_task,2024.2.0,59.86690389636483,2026-01-16 10h16.14.986166 +0530,
,Objects\031a.jpg,37,0,38,,,,,,,j,0.9980327999946894,0.16765300001134165,None,,,,,,38,0,37,1315.834643299997,,,,,,,,,,,,,,,,,,,,,,,,,,,,,,1315.8188617999986,1315.834643299997,1316.3184783999895,,,,,,,,,,,,,,1316.334950599994,,,,,,,,,,,,,1316.3279579999944,1316.334950599994,1316.334950599994,1316.334950599994,1319.3185648999934,j,0.9980327999946894,0.16765300001134165,1319.3186092999968,1319.3186210999993,None,1319.3348442999995,1319.3348442999995,1319.3348442999995,,,,,,,,,,,,,,00032,001,2026-01-16_10h16.07.864,MST_task,2024.2.0,59.86690389636483,2026-01-16 10h16.14.986166 +0530,
,Objects\003a.jpg,38,0,39,,,,,,,j,0.9702708999975584,0.08022950000304263,None,,,,,,39,0,38,1319.3348442999995,,,,,,,,,,,,,,,,,,,,,,,,,,,,,,1319.3187191999896,1319.3348442999995,1319.8183912999957,,,,,,,,,,,,,,1319.835151899999,,,,,,,,,,,,,1319.827947400001,1319.835151899999,1319.835151899999,1319.835151899999,1322.8187346999912,j,0.9702708999975584,0.08022950000304263,1322.8187762000016,1322.818787199998,None,1322.8347587999888,1322.8347587999888,1322.8347587999888,,,,,,,,,,,,,,00032,001,2026-01-16_10h16.07.864,MST_task,2024.2.0,59.86690389636483,2026-01-16 10h16.14.986166 +0530,
,Objects\181a.jpg,39,0,40,,,,,,,j,1.773837699991418,0.16924299999664072,None,,,,,,40,0,39,1322.8347587999888,,,,,,,,,,,,,,,,,,,,,,,,,,,,,,1322.8188527999882,1322.8347587999888,1323.3183891999943,,,,,,,,,,,,,,1323.3347597999964,,,,,,,,,,,,,1323.327838600002,1323.3347597999964,1323.3347597999964,1323.3347597999964,1326.3186982999905,j,1.773837699991418,0.16924299999664072,1326.3187405999925,1326.3187514999881,None,1326.3348535999976,1326.3348535999976,1326.3348535999976,,,,,,,,,,,,,,00032,001,2026-01-16_10h16.07.864,MST_task,2024.2.0,59.86690389636483,2026-01-16 10h16.14.986166 +0530,
,Objects\024a.jpg,40,0,41,,,,,,,f,1.6338222000049427,0.20808700000634417,None,,,,,,41,0,40,1326.3348535999976,,,,,,,,,,,,,,,,,,,,,,,,,,,,,,1326.3188166999898,1326.3348535999976,1326.8184481999924,,,,,,,,,,,,,,1326.835182900002,,,,,,,,,,,,,1326.8283347999968,1326.835182900002,1326.835182900002,1326.835182900002,1329.818505999996,f,1.6338222000049427,0.20808700000634417,1329.8185497999948,1329.8185606999905,None,1329.8347080999956,1329.8347080999956,1329.8347080999956,,,,,,,,,,,,,,00032,001,2026-01-16_10h16.07.864,MST_task,2024.2.0,59.86690389636483,2026-01-16 10h16.14.986166 +0530,
,Objects\039a.jpg,41,0,42,,,,,,,None,,,j,0.3028654999943683,None,,,,42,0,41,1329.8347080999956,,,,,,,,,,,,,,,,,,,,,,,,,,,,,,1329.818661600002,1329.8347080999956,1330.318419599993,,,,,,,,,,,,,,1330.3349701999978,,,,,,,,,,,,,1330.3285256999952,1330.3349701999978,1330.3349701999978,1330.3349701999978,1333.318670499997,None,,,1333.318714299996,1333.651995799999,j,,,,1333.334825500002,1333.334825500002,0.3028654999943683,None,,,,,,,,,,00032,001,2026-01-16_10h16.07.864,MST_task,2024.2.0,59.86690389636483,2026-01-16 10h16.14.986166 +0530,
,Scenes\172a.jpg,42,0,43,,,,,,,j,1.4690932999947108,0.1422791000077268,None,,,,,,43,0,42,1333.6680602999986,,,,,,,,,,,,,,,,,,,,,,,,,,,,,,1333.6521256999986,1333.6680602999986,1334.1517366999906,,,,,,,,,,,,,,1334.1693249999953,,,,,,,,,,,,,1334.1669743999955,1334.1693249999953,1334.1693249999953,1334.1693249999953,1337.1684468000021,j,1.4690932999947108,0.1422791000077268,1337.1700536999997,1337.170071399989,None,,,,,,,,,,,,,,,,,00032,001,2026-01-16_10h16.07.864,MST_task,2024.2.0,59.86690389636483,2026-01-16 10h16.14.986166 +0530,
,Scenes\022a.jpg,43,0,44,,,,,,,j,0.8246622000006028,0.15166649999446236,None,,,,,,44,0,43,1337.184864499999,,,,,,,,,,,,,,,,,,,,,,,,,,,,,,1337.1701419999881,1337.184864499999,1337.6685647999984,,,,,,,,,,,,,,1337.6852055999916,,,,,,,,,,,,,1337.6792370999901,1337.6852055999916,1337.6852055999916,1337.6852055999916,1340.6687836999918,j,0.8246622000006028,0.15166649999446236,1340.6688280999952,1340.6688402,None,1340.6847426000022,1340.6847426000022,1340.6847426000022,,,,,,,,,,,,,,00032,001,2026-01-16_10h16.07.864,MST_task,2024.2.0,59.86690389636483,2026-01-16 10h16.14.986166 +0530,
,Scenes\155a.jpg,44,0,45,,,,,,,j,2.6661939999903552,0.13573760000872426,None,,,,,,45,0,44,1340.6847426000022,,,,,,,,,,,,,,,,,,,,,,,,,,,,,,1340.6689380999887,1340.6847426000022,1341.1684299999906,,,,,,,,,,,,,,1341.1867189999903,,,,,,,,,,,,,1341.184368999995,1341.1867189999903,1341.1867189999903,1341.1867189999903,1344.1850507999916,j,2.6661939999903552,0.13573760000872426,1344.1850937999989,1344.1851060999907,None,,,,,,,,,,,,,,,,,00032,001,2026-01-16_10h16.07.864,MST_task,2024.2.0,59.86690389636483,2026-01-16 10h16.14.986166 +0530,
,Scenes\010a.jpg,45,0,46,,,,,,,j,1.33825010000146,0.1440162000071723,None,,,,,,46,0,45,1344.2043800999963,,,,,,,,,,,,,,,,,,,,,,,,,,,,,,1344.1852026999986,1344.2043800999963,1344.7016520999896,,,,,,,,,,,,,,,,,,,,,,,,,,,1344.72042469999,1344.7228214999923,1344.7228214999923,1344.7228214999923,1347.7017310999945,j,1.33825010000146,0.1440162000071723,1347.701774000001,1347.7017856999882,None,,,,,,,,,,,,,,,,,00032,001,2026-01-16_10h16.07.864,MST_task,2024.2.0,59.86690389636483,2026-01-16 10h16.14.986166 +0530,
,Scenes\074a.jpg,46,0,47,,,,,,,j,1.3058132000005571,0.17703350000374485,None,,,,,,47,0,46,1347.7180942999985,,,,,,,,,,,,,,,,,,,,,,,,,,,,,,1347.7018850999884,1347.7180942999985,1348.2016262999969,,,,,,,,,,,,,,1348.2189775000006,,,,,,,,,,,,,1348.2168261999905,1348.2189775000006,1348.2189775000006,1348.2189775000006,1351.2040494999965,j,1.3058132000005571,0.17703350000374485,1351.2040979000012,1351.2041100999922,None,,,,,,,,,,,,,,,,,00032,001,2026-01-16_10h16.07.864,MST_task,2024.2.0,59.86690389636483,2026-01-16 10h16.14.986166 +0530,
,Scenes\182a.jpg,47,0,48,,,,,,,j,2.102489000011701,0.13658809999469668,None,,,,,,48,0,47,1351.218100099999,,,,,,,,,,,,,,,,,,,,,,,,,,,,,,1351.2042080999963,1351.218100099999,1351.7017859999905,,,,,,,,,,,,,,1351.7188057000021,,,,,,,,,,,,,1351.7158715999976,1351.7188057000021,1351.7188057000021,1351.7188057000021,1354.7020042999939,j,2.102489000011701,0.13658809999469668,1354.7020466999966,1354.7020578999945,None,1354.7181012999936,1354.7181012999936,1354.7181012999936,,,,,,,,,,,,,,00032,001,2026-01-16_10h16.07.864,MST_task,2024.2.0,59.86690389636483,2026-01-16 10h16.14.986166 +0530,
,Scenes\146a.jpg,48,0,49,,,,,,,j,2.869044799997937,None,None,,,,,,49,0,48,1354.7181012999936,,,,,,,,,,,,,,,,,,,,,,,,,,,,,,1354.702122399991,1354.7181012999936,1355.2042866999982,,,,,,,,,,,,,,1355.2237000000023,,,,,,,,,,,,,1355.221307499989,1355.2237000000023,1355.2237000000023,1355.2237000000023,1358.204649899999,j,2.869044799997937,None,1358.2047018000012,1358.2047142999945,None,,,,,,,,,,,,,,,,,00032,001,2026-01-16_10h16.07.864,MST_task,2024.2.0,59.86690389636483,2026-01-16 10h16.14.986166 +0530,
,Objects\063a.jpg,49,0,50,,,,,,,f,1.7425708999944618,0.15187800000421703,None,,,,,,50,0,49,1358.2181125999923,,,,,,,,,,,,,,,,,,,,,,,,,,,,,,1358.204823299995,1358.2181125999923,1358.7017262000008,,,,,,,,,,,,,,1358.7186833000014,,,,,,,,,,,,,1358.715490699993,1358.7186833000014,1358.7186833000014,1358.7186833000014,1361.7021052999917,f,1.7425708999944618,0.15187800000421703,1361.704147700002,1361.7041660999967,None,1361.7181210999988,1361.7181210999988,1361.7181210999988,,,,,,,,,,,,,,00032,001,2026-01-16_10h16.07.864,MST_task,2024.2.0,59.86690389636483,2026-01-16 10h16.14.986166 +0530,
,Objects\085a.jpg,50,0,51,,,,,,,j,1.3062019999924814,0.13620560000708792,None,,,,,,51,0,50,1361.7181210999988,,,,,,,,,,,,,,,,,,,,,,,,,,,,,,1361.7042698000005,1361.7181210999988,1362.2036525000003,,,,,,,,,,,,,,1362.2184768000006,,,,,,,,,,,,,1362.2140255999984,1362.2184768000006,1362.2184768000006,1362.2184768000006,1365.202294799994,j,1.3062019999924814,0.13620560000708792,1365.2023401999904,1365.2023514999892,None,1365.2181361999974,1365.2181361999974,1365.2181361999974,,,,,,,,,,,,,,00032,001,2026-01-16_10h16.07.864,MST_task,2024.2.0,59.86690389636483,2026-01-16 10h16.14.986166 +0530,
,Objects\108a.jpg,51,0,52,,,,,,,j,2.4629637000034563,0.15920619999815244,None,,,,,,52,0,51,1365.2181361999974,,,,,,,,,,,,,,,,,,,,,,,,,,,,,,1365.2024566999899,1365.2181361999974,1365.701671399991,,,,,,,,,,,,,,1365.7184961999883,,,,,,,,,,,,,1365.7113151999947,1365.7184961999883,1365.7184961999883,1365.7184961999883,1368.7020889999985,j,2.4629637000034563,0.15920619999815244,1368.702131099999,1368.7021423999977,None,1368.718044299996,1368.718044299996,1368.718044299996,,,,,,,,,,,,,,00032,001,2026-01-16_10h16.07.864,MST_task,2024.2.0,59.86690389636483,2026-01-16 10h16.14.986166 +0530,
,Objects\128a.jpg,52,0,53,,,,,,,f,1.8826139000011608,0.16008879999571946,None,,,,,,53,0,52,1368.718044299996,,,,,,,,,,,,,,,,,,,,,,,,,,,,,,1368.702236799989,1368.718044299996,1369.2034368999884,,,,,,,,,,,,,,,,,,,,,,,,,,,1369.2132431999926,1369.2183948999882,1369.2183948999882,1369.2183948999882,1372.2043471999932,f,1.8826139000011608,0.16008879999571946,1372.2043904999882,1372.2044020999892,None,,,,,,,,,,,,,,,,,00032,001,2026-01-16_10h16.07.864,MST_task,2024.2.0,59.86690389636483,2026-01-16 10h16.14.986166 +0530,
,Objects\060a.jpg,53,0,54,,,,,,,j,1.358617099991534,0.15306260000215843,None,,,,,,54,0,53,1372.2180988999899,,,,,,,,,,,,,,,,,,,,,,,,,,,,,,1372.2044706000015,1372.2180988999899,1372.7016989999975,,,,,,,,,,,,,,1372.7183136999956,,,,,,,,,,,,,1372.7115351999964,1372.7183136999956,1372.7183136999956,1372.7183136999956,1375.7020606000006,j,1.358617099991534,0.15306260000215843,1375.7021041999978,1375.702115299995,None,1375.7181031999935,1375.7181031999935,1375.7181031999935,,,,,,,,,,,,,,00032,001,2026-01-16_10h16.07.864,MST_task,2024.2.0,59.86690389636483,2026-01-16 10h16.14.986166 +0530,
,Objects\178a.jpg,54,0,55,,,,,,,j,1.2267209999990882,0.14399419999972451,None,,,,,,55,0,54,1375.7181031999935,,,,,,,,,,,,,,,,,,,,,,,,,,,,,,1375.702180799999,1375.7181031999935,1376.2019856999977,,,,,,,,,,,,,,1376.2184598000022,,,,,,,,,,,,,1376.2120701999957,1376.2184598000022,1376.2184598000022,1376.2184598000022,1379.202060999989,j,1.2267209999990882,0.14399419999972451,1379.2021053999924,1379.202116799992,None,1379.218059299994,1379.218059299994,1379.218059299994,,,,,,,,,,,,,,00032,001,2026-01-16_10h16.07.864,MST_task,2024.2.0,59.86690389636483,2026-01-16 10h16.14.986166 +0530,
,Objects\032a.jpg,55,0,56,,,,,,,j,2.015731500010588,0.16685169999254867,None,,,,,,56,0,55,1379.218059299994,,,,,,,,,,,,,,,,,,,,,,,,,,,,,,1379.2021829000005,1379.218059299994,1379.7016574000008,,,,,,,,,,,,,,1379.7183453999896,,,,,,,,,,,,,1379.7110911999916,1379.7183453999896,1379.7183453999896,1379.7183453999896,1382.7020144999988,j,2.015731500010588,0.16685169999254867,1382.7020563999977,1382.7020674999949,None,1382.7180566999887,1382.7180566999887,1382.7180566999887,,,,,,,,,,,,,,00032,001,2026-01-16_10h16.07.864,MST_task,2024.2.0,59.86690389636483,2026-01-16 10h16.14.986166 +0530,
,Scenes\181a.jpg,56,0,57,,,,,,,f,2.3579071999993175,0.19198640000831801,None,,,,,,57,0,56,1382.7180566999887,,,,,,,,,,,,,,,,,,,,,,,,,,,,,,1382.7021636999998,1382.7180566999887,1383.202065999998,,,,,,,,,,,,,,1383.2229120999982,,,,,,,,,,,,,1383.2205247999955,1383.2229120999982,1383.2229120999982,1383.2229120999982,1386.2183798999904,f,2.3579071999993175,0.19198640000831801,1386.2201743999904,1386.220193000001,None,,,,,,,,,,,,,,,,,00032,001,2026-01-16_10h16.07.864,MST_task,2024.2.0,59.86690389636483,2026-01-16 10h16.14.986166 +0530,
,Scenes\023a.jpg,57,0,58,,,,,,,f,1.5120280999981333,0.1839116000046488,None,,,,,,58,0,57,1386.23461639999,,,,,,,,,,,,,,,,,,,,,,,,,,,,,,1386.2202647999948,1386.23461639999,1386.7183838999917,,,,,,,,,,,,,,1386.7409957999917,,,,,,,,,,,,,1386.7383039999986,1386.7409957999917,1386.7409957999917,1386.7409957999917,1389.734807899993,f,1.5120280999981333,0.1839116000046488,1389.7348519999941,1389.7348678999988,None,,,,,,,,,,,,,,,,,00032,001,2026-01-16_10h16.07.864,MST_task,2024.2.0,59.86690389636483,2026-01-16 10h16.14.986166 +0530,
,Scenes\081a.jpg,58,0,59,,,,,,,j,1.4774578999931691,0.15176500000234228,None,,,,,,59,0,58,1389.751460200001,,,,,,,,,,,,,,,,,,,,,,,,,,,,,,1389.7349722999934,1389.751460200001,1390.2348861999926,,,,,,,,,,,,,,1390.2556054000015,,,,,,,,,,,,,1390.2532153999928,1390.2556054000015,1390.2556054000015,1390.2556054000015,1393.2349519999989,j,1.4774578999931691,0.15176500000234228,1393.2349946999893,1393.2350067999942,None,,,,,,,,,,,,,,,,,00032,001,2026-01-16_10h16.07.864,MST_task,2024.2.0,59.86690389636483,2026-01-16 10h16.14.986166 +0530,
,Scenes\086a.jpg,59,0,60,,,,,,,j,0.7688191000052029,0.17702730000019073,None,,,,,,60,0,59,1393.2513772999955,,,,,,,,,,,,,,,,,,,,,,,,,,,,,,1393.235110900001,1393.2513772999955,1393.7348987000005,,,,,,,,,,,,,,1393.7559202999983,,,,,,,,,,,,,1393.7533841999975,1393.7559202999983,1393.7559202999983,1393.7559202999983,1396.7517257,j,0.7688191000052029,0.17702730000019073,1396.7517676999996,1396.7517798999907,None,,,,,,,,,,,,,,,,,00032,001,2026-01-16_10h16.07.864,MST_task,2024.2.0,59.86690389636483,2026-01-16 10h16.14.986166 +0530,
,Scenes\188a.jpg,60,0,61,,,,,,,None,,,j,0.5845590000099037,None,,,,61,0,60,1396.7680988999928,,,,,,,,,,,,,,,,,,,,,,,,,,,,,,1396.7518471999938,1396.7680988999928,1397.2518402999995,,,,,,,,,,,,,,,,,,,,,,,,,,,1397.2659110999957,1397.2686785999977,1397.2686785999977,1397.2686785999977,1400.2520955999935,None,,,1400.2521345999994,1400.868680200001,j,1400.2681106999953,1400.2681106999953,1400.2681106999953,1400.2681106999953,1400.2681106999953,0.5845590000099037,None,,,,,,,,,,00032,001,2026-01-16_10h16.07.864,MST_task,2024.2.0,59.86690389636483,2026-01-16 10h16.14.986166 +0530,
,Scenes\130a.jpg,61,0,62,,,,,,,j,2.8956376999994973,None,None,,,,,,62,0,61,1400.8847024999995,,,,,,,,,,,,,,,,,,,,,,,,,,,,,,1400.8687715999986,1400.8847024999995,1401.368353400001,,,,,,,,,,,,,,1401.3896527999896,,,,,,,,,,,,,1401.387333999999,1401.3896527999896,1401.3896527999896,1401.3896527999896,1404.3849783999904,j,2.8956376999994973,None,1404.3850221999892,1404.3850349999993,None,,,,,,,,,,,,,,,,,00032,001,2026-01-16_10h16.07.864,MST_task,2024.2.0,59.86690389636483,2026-01-16 10h16.14.986166 +0530,
,Scenes\090a.jpg,62,0,63,,,,,,,j,1.2748018999991473,0.1600010999973165,None,,,,,,63,0,62,1404.4013981999888,,,,,,,,,,,,,,,,,,,,,,,,,,,,,,1404.3851041000016,1404.4013981999888,1404.8849094999896,,,,,,,,,,,,,,1404.9059970999951,,,,,,,,,,,,,1404.9035774999938,1404.9059970999951,1404.9059970999951,1404.9059970999951,1407.9016272000008,j,1.2748018999991473,0.1600010999973165,1407.901670799998,1407.9016823999991,None,,,,,,,,,,,,,,,,,00032,001,2026-01-16_10h16.07.864,MST_task,2024.2.0,59.86690389636483,2026-01-16 10h16.14.986166 +0530,
,Objects\121a.jpg,63,0,64,,,,,,,None,,,f,0.39509710000129417,None,,,,64,0,63,1407.9181115999963,,,,,,,,,,,,,,,,,,,,,,,,,,,,,,1407.9017800000001,1407.9181115999963,1408.4017968999979,,,,,,,,,,,,,,1408.4185627999977,,,,,,,,,,,,,1408.4139577999886,1408.4185627999977,1408.4185627999977,1408.4185627999977,1411.4019712000008,None,,,1411.4039326999919,1411.8186554999993,f,1411.4181272999995,1411.4181272999995,1411.4181272999995,1411.4181272999995,1411.4181272999995,0.39509710000129417,None,,,,,,,,,,00032,001,2026-01-16_10h16.07.864,MST_task,2024.2.0,59.86690389636483,2026-01-16 10h16.14.986166 +0530,
,Objects\190a.jpg,64,0,65,,,,,,,f,1.103379499996663,0.16651969999657013,None,,,,,,65,0,64,1411.834650299992,,,,,,,,,,,,,,,,,,,,,,,,,,,,,,1411.818743099997,1411.834650299992,1412.3183229999995,,,,,,,,,,,,,,1412.335027699999,,,,,,,,,,,,,1412.3277450000023,1412.335027699999,1412.335027699999,1412.335027699999,1415.3186811999913,f,1.103379499996663,0.16651969999657013,1415.3187280999991,1415.3187391999963,None,1415.3346202999965,1415.3346202999965,1415.3346202999965,,,,,,,,,,,,,,00032,001,2026-01-16_10h16.07.864,MST_task,2024.2.0,59.86690389636483,2026-01-16 10h16.14.986166 +0530,
,Objects\127a.jpg,65,0,66,,,,,,,None,,,f,0.07412629999453202,None,,,,66,0,65,1415.3346202999965,,,,,,,,,,,,,,,,,,,,,,,,,,,,,,1415.3188310999976,1415.3346202999965,1415.8184055999882,,,,,,,,,,,,,,1415.834917100001,,,,,,,,,,,,,1415.828407299996,1415.834917100001,1415.834917100001,1415.834917100001,1418.8187251999916,None,,,1418.818768600002,1418.9184375999903,f,1418.834620099995,1418.834620099995,1418.834620099995,1418.834620099995,1418.834620099995,0.07412629999453202,None,,,,,,,,,,00032,001,2026-01-16_10h16.07.864,MST_task,2024.2.0,59.86690389636483,2026-01-16 10h16.14.986166 +0530,
,Objects\092a.jpg,66,0,67,,,,,,,f,0.833980800001882,0.1606090999994194,None,,,,,,67,0,66,1418.9346179999993,,,,,,,,,,,,,,,,,,,,,,,,,,,,,,1418.9185138999892,1418.9346179999993,1419.4183973999898,,,,,,,,,,,,,,1419.4349559999973,,,,,,,,,,,,,1419.4293656999944,1419.4349559999973,1419.4349559999973,1419.4349559999973,1422.4185773999925,f,0.833980800001882,0.1606090999994194,1422.418624599988,1422.4186360000022,None,1422.4346888,1422.4346888,1422.4346888,,,,,,,,,,,,,,00032,001,2026-01-16_10h16.07.864,MST_task,2024.2.0,59.86690389636483,2026-01-16 10h16.14.986166 +0530,
,Objects\183a.jpg,67,0,68,,,,,,,j,1.1265642999933334,0.15200000000186265,None,,,,,,68,0,67,1422.4346888,,,,,,,,,,,,,,,,,,,,,,,,,,,,,,1422.4187320999918,1422.4346888,1422.9182864999893,,,,,,,,,,,,,,1422.9350228999974,,,,,,,,,,,,,1422.9277924999915,1422.9350228999974,1422.9350228999974,1422.9350228999974,1425.9190669999953,j,1.1265642999933334,0.15200000000186265,1425.9191092999972,1425.9191198999906,None,1425.934619199994,1425.934619199994,1425.934619199994,,,,,,,,,,,,,,00032,001,2026-01-16_10h16.07.864,MST_task,2024.2.0,59.86690389636483,2026-01-16 10h16.14.986166 +0530,
,Objects\021a.jpg,68,0,69,,,,,,,None,,,j,0.06629390000307467,None,,,,69,0,68,1425.934619199994,,,,,,,,,,,,,,,,,,,,,,,,,,,,,,1425.9192145999987,1425.934619199994,1426.418371599997,,,,,,,,,,,,,,1426.4349528999883,,,,,,,,,,,,,1426.4281369999953,1426.4349528999883,1426.4349528999883,1426.4349528999883,1429.4185774999933,None,,,1429.4186184999999,1429.501902399992,j,1429.434729799992,1429.434729799992,1429.434729799992,1429.434729799992,1429.434729799992,0.06629390000307467,None,,,,,,,,,,00032,001,2026-01-16_10h16.07.864,MST_task,2024.2.0,59.86690389636483,2026-01-16 10h16.14.986166 +0530,
,Objects\149a.jpg,69,0,70,,,,,,,j,1.4103825000056531,0.14511329999368172,None,,,,,,70,0,69,1429.5182265999902,,,,,,,,,,,,,,,,,,,,,,,,,,,,,,1429.50198619999,1429.5182265999902,1430.0017066,,,,,,,,,,,,,,1430.0183640999894,,,,,,,,,,,,,1430.010936199993,1430.0183640999894,1430.0183640999894,1430.0183640999894,1433.001926500001,j,1.4103825000056531,0.14511329999368172,1433.0019687999884,1433.0019802999886,None,1433.0181230999879,1433.0181230999879,1433.0181230999879,,,,,,,,,,,,,,00032,001,2026-01-16_10h16.07.864,MST_task,2024.2.0,59.86690389636483,2026-01-16 10h16.14.986166 +0530,
,Scenes\113a.jpg,70,0,71,,,,,,,j,2.807505000004312,0.12693149999540765,None,,,,,,71,0,70,1433.0181230999879,,,,,,,,,,,,,,,,,,,,,,,,,,,,,,1433.002074899996,1433.0181230999879,1433.5016409999953,,,,,,,,,,,,,,1433.518548699998,,,,,,,,,,,,,1433.5149717999884,1433.518548699998,1433.518548699998,1433.518548699998,1436.5023685999913,j,2.807505000004312,0.12693149999540765,1436.5039909999905,1436.504009199998,None,1436.5181760999985,1436.5181760999985,1436.5181760999985,,,,,,,,,,,,,,00032,001,2026-01-16_10h16.07.864,MST_task,2024.2.0,59.86690389636483,2026-01-16 10h16.14.986166 +0530,
,Scenes\126a.jpg,71,0,72,,,,,,,j,1.2185093000007328,0.16646229999605566,None,,,,,,72,0,71,1436.5181760999985,,,,,,,,,,,,,,,,,,,,,,,,,,,,,,1436.5041345999925,1436.5181760999985,1437.0017979999975,,,,,,,,,,,,,,1437.0197358000005,,,,,,,,,,,,,1437.0171820999967,1437.0197358000005,1437.0197358000005,1437.0197358000005,1440.0184900999884,j,1.2185093000007328,0.16646229999605566,1440.0185322999896,1440.018544599996,None,,,,,,,,,,,,,,,,,00032,001,2026-01-16_10h16.07.864,MST_task,2024.2.0,59.86690389636483,2026-01-16 10h16.14.986166 +0530,
,Scenes\100a.jpg,72,0,73,,,,,,,f,2.3401140999922063,0.1520028000086313,None,,,,,,73,0,72,1440.0349072999961,,,,,,,,,,,,,,,,,,,,,,,,,,,,,,1440.0186466000014,1440.0349072999961,1440.5184750999906,,,,,,,,,,,,,,1440.5367108999926,,,,,,,,,,,,,1440.5342355999892,1440.5367108999926,1440.5367108999926,1440.5367108999926,1443.5350218999956,f,2.3401140999922063,0.1520028000086313,1443.535063599993,1443.535075599997,None,,,,,,,,,,,,,,,,,00032,001,2026-01-16_10h16.07.864,MST_task,2024.2.0,59.86690389636483,2026-01-16 10h16.14.986166 +0530,
,Scenes\053a.jpg,73,0,74,,,,,,,j,1.9772456999926362,0.1440086000075098,None,,,,,,74,0,73,1443.5515173000022,,,,,,,,,,,,,,,,,,,,,,,,,,,,,,1443.5351740999904,1443.5515173000022,1444.0350584999978,,,,,,,,,,,,,,1444.0520344999968,,,,,,,,,,,,,1444.0448111000005,1444.0520344999968,1444.0520344999968,1444.0520344999968,1447.035447000002,j,1.9772456999926362,0.1440086000075098,1447.0354881999956,1447.0354989999905,None,1447.0514911999926,1447.0514911999926,1447.0514911999926,,,,,,,,,,,,,,00032,001,2026-01-16_10h16.07.864,MST_task,2024.2.0,59.86690389636483,2026-01-16 10h16.14.986166 +0530,
,Scenes\031a.jpg,74,0,75,,,,,,,f,2.905273500000476,None,None,,,,,,75,0,74,1447.0514911999926,,,,,,,,,,,,,,,,,,,,,,,,,,,,,,1447.03559449999,1447.0514911999926,1447.5350918999902,,,,,,,,,,,,,,1447.5553966000007,,,,,,,,,,,,,1447.5531130000018,1447.5553966000007,1447.5553966000007,1447.5553966000007,1450.5518273999915,f,2.905273500000476,None,1450.5518695999926,1450.5518816999975,None,,,,,,,,,,,,,,,,,00032,001,2026-01-16_10h16.07.864,MST_task,2024.2.0,59.86690389636483,2026-01-16 10h16.14.986166 +0530,
,Scenes\080a.jpg,75,0,76,,,,,,,j,1.9686249000078533,0.13589609999326058,None,,,,,,76,0,75,1450.5682016999926,,,,,,,,,,,,,,,,,,,,,,,,,,,,,,1450.5519801999908,1450.5682016999926,1451.0517986999912,,,,,,,,,,,,,,1451.0688250999956,,,,,,,,,,,,,1451.0657127000013,1451.0688250999956,1451.0688250999956,1451.0688250999956,1454.052147399998,j,1.9686249000078533,0.13589609999326058,1454.0521892999968,1454.052199999991,None,1454.0682818999921,1454.0682818999921,1454.0682818999921,,,,,,,,,,,,,,00032,001,2026-01-16_10h16.07.864,MST_task,2024.2.0,59.86690389636483,2026-01-16 10h16.14.986166 +0530,
,Scenes\106a.jpg,76,0,77,,,,,,,j,1.362535400010529,0.16798980000021402,None,,,,,,77,0,76,1454.0682818999921,,,,,,,,,,,,,,,,,,,,,,,,,,,,,,1454.052297599992,1454.0682818999921,1454.5518841000012,,,,,,,,,,,,,,1454.5709732999967,,,,,,,,,,,,,1454.568447999991,1454.5709732999967,1454.5709732999967,1454.5709732999967,1457.5684399999882,j,1.362535400010529,0.16798980000021402,1457.5684813999978,1457.5684933000011,None,,,,,,,,,,,,,,,,,00032,001,2026-01-16_10h16.07.864,MST_task,2024.2.0,59.86690389636483,2026-01-16 10h16.14.986166 +0530,
,Objects\122a.jpg,77,0,78,,,,,,,f,1.8877771999977995,0.16799750000063796,None,,,,,,78,0,77,1457.5848890999914,,,,,,,,,,,,,,,,,,,,,,,,,,,,,,1457.568592999989,1457.5848890999914,1458.0684611999895,,,,,,,,,,,,,,1458.0853426999965,,,,,,,,,,,,,1458.0806388999918,1458.0853426999965,1458.0853426999965,1458.0853426999965,1461.068999199997,f,1.8877771999977995,0.16799750000063796,1461.0710058999975,1461.0710233999998,None,1461.0847310999961,1461.0847310999961,1461.0847310999961,,,,,,,,,,,,,,00032,001,2026-01-16_10h16.07.864,MST_task,2024.2.0,59.86690389636483,2026-01-16 10h16.14.986166 +0530,
,Objects\088a.jpg,78,0,79,,,,,,,j,1.4118738999968627,0.15197019999322947,None,,,,,,79,0,78,1461.0847310999961,,,,,,,,,,,,,,,,,,,,,,,,,,,,,,1461.0710973999958,1461.0847310999961,1461.5684819000016,,,,,,,,,,,,,,1461.5850590999908,,,,,,,,,,,,,1461.578138500001,1461.5850590999908,1461.5850590999908,1461.5850590999908,1464.5690680999978,j,1.4118738999968627,0.15197019999322947,1464.569119599997,1464.5691316000011,None,1464.584880999988,1464.584880999988,1464.584880999988,,,,,,,,,,,,,,00032,001,2026-01-16_10h16.07.864,MST_task,2024.2.0,59.86690389636483,2026-01-16 10h16.14.986166 +0530,
,Objects\033a.jpg,79,0,80,,,,,,,f,1.3117216999962693,0.15998440000112168,None,,,,,,80,0,79,1464.584880999988,,,,,,,,,,,,,,,,,,,,,,,,,,,,,,1464.5692476999975,1464.584880999988,1465.0684699999983,,,,,,,,,,,,,,1465.0850292999967,,,,,,,,,,,,,1465.0779590999882,1465.0850292999967,1465.0850292999967,1465.0850292999967,1468.0687529999996,f,1.3117216999962693,0.15998440000112168,1468.0687951,1468.0688054999919,None,1468.0848742999951,1468.0848742999951,1468.0848742999951,,,,,,,,,,,,,,00032,001,2026-01-16_10h16.07.864,MST_task,2024.2.0,59.86690389636483,2026-01-16 10h16.14.986166 +0530,
,Objects\130a.jpg,80,0,81,,,,,,,j,1.7565251999913016,0.1290131999994628,None,,,,,,81,0,80,1468.0848742999951,,,,,,,,,,,,,,,,,,,,,,,,,,,,,,1468.0688698000013,1468.0848742999951,1468.568442399992,,,,,,,,,,,,,,1468.5849279999966,,,,,,,,,,,,,1468.5780909000023,1468.5849279999966,1468.5849279999966,1468.5849279999966,1471.5691235999984,j,1.7565251999913016,0.1290131999994628,1471.5691667999927,1471.5691776999884,None,1471.5848298999917,1471.5848298999917,1471.5848298999917,,,,,,,,,,,,,,00032,001,2026-01-16_10h16.07.864,MST_task,2024.2.0,59.86690389636483,2026-01-16 10h16.14.986166 +0530,
,Objects\114a.jpg,81,0,82,,,,,,,f,2.248318099998869,0.17620229999010917,None,,,,,,82,0,81,1471.5848298999917,,,,,,,,,,,,,,,,,,,,,,,,,,,,,,1471.56924289999,1471.5848298999917,1472.0684505999961,,,,,,,,,,,,,,1472.0851906999887,,,,,,,,,,,,,1472.078207499988,1472.0851906999887,1472.0851906999887,1472.0851906999887,1475.0686820999981,f,2.248318099998869,0.17620229999010917,1475.06872499999,1475.068735599998,None,1475.0848876999953,1475.0848876999953,1475.0848876999953,,,,,,,,,,,,,,00032,001,2026-01-16_10h16.07.864,MST_task,2024.2.0,59.86690389636483,2026-01-16 10h16.14.986166 +0530,
,Objects\110a.jpg,82,0,83,,,,,,,j,1.4531684999965364,0.19083400000818074,None,,,,,,83,0,82,1475.0848876999953,,,,,,,,,,,,,,,,,,,,,,,,,,,,,,1475.068801699992,1475.0848876999953,1475.5684130000009,,,,,,,,,,,,,,1475.585123500001,,,,,,,,,,,,,1475.5778353999922,1475.585123500001,1475.585123500001,1475.585123500001,1478.5686983999913,j,1.4531684999965364,0.19083400000818074,1478.5687400999886,1478.5687513000012,None,1478.5848893999937,1478.5848893999937,1478.5848893999937,,,,,,,,,,,,,,00032,001,2026-01-16_10h16.07.864,MST_task,2024.2.0,59.86690389636483,2026-01-16 10h16.14.986166 +0530,
,Objects\129a.jpg,83,0,84,,,,,,,f,0.7926259000087157,0.1593016999977408,None,,,,,,84,0,83,1478.5848893999937,,,,,,,,,,,,,,,,,,,,,,,,,,,,,,1478.5688168999914,1478.5848893999937,1479.0685169999924,,,,,,,,,,,,,,1479.084985900001,,,,,,,,,,,,,1479.0796746999986,1479.084985900001,1479.084985900001,1479.084985900001,1482.0687640999968,f,0.7926259000087157,0.1593016999977408,1482.0688111999916,1482.068822599991,None,1482.0848117999994,1482.0848117999994,1482.0848117999994,,,,,,,,,,,,,,00032,001,2026-01-16_10h16.07.864,MST_task,2024.2.0,59.86690389636483,2026-01-16 10h16.14.986166 +0530,
,Scenes\122a.jpg,84,0,85,,,,,,,None,,,f,1.1158247999992454,None,,,,85,0,84,1482.0848117999994,,,,,,,,,,,,,,,,,,,,,,,,,,,,,,1482.0689196999883,1482.0848117999994,1482.5684448999964,,,,,,,,,,,,,,1482.5908875999885,,,,,,,,,,,,,1482.588464200002,1482.5908875999885,1482.5908875999885,1482.5908875999885,1485.5850693999964,None,,,1485.5868947999988,1486.718716999996,f,,,,1485.601471899994,1485.601471899994,1.1158247999992454,None,,,,,,,,,,00032,001,2026-01-16_10h16.07.864,MST_task,2024.2.0,59.86690389636483,2026-01-16 10h16.14.986166 +0530,
,Scenes\153a.jpg,85,0,86,,,,,,,None,,,j,0.602825900001335,None,,,,86,0,85,1486.7348872000002,,,,,,,,,,,,,,,,,,,,,,,,,,,,,,1486.71883659999,1486.7348872000002,1487.2185410999955,,,,,,,,,,,,,,1487.2354535999912,,,,,,,,,,,,,1487.2316892999952,1487.2354535999912,1487.2354535999912,1487.2354535999912,1490.2192208999913,None,,,1490.219262899991,1490.8520255999902,j,1490.2350322999991,1490.2350322999991,1490.2350322999991,1490.2350322999991,1490.2350322999991,0.602825900001335,None,,,,,,,,,,00032,001,2026-01-16_10h16.07.864,MST_task,2024.2.0,59.86690389636483,2026-01-16 10h16.14.986166 +0530,
,Scenes\187a.jpg,86,0,87,,,,,,,j,0.8355524000071455,0.1598902999976417,None,,,,,,87,0,86,1490.868230299995,,,,,,,,,,,,,,,,,,,,,,,,,,,,,,1490.852143600001,1490.868230299995,1491.3518821999896,,,,,,,,,,,,,,1491.3698872999958,,,,,,,,,,,,,1491.3673845000012,1491.3698872999958,1491.3698872999958,1491.3698872999958,1494.3684939999948,j,0.8355524000071455,0.1598902999976417,1494.3685430999903,1494.3685766999988,None,,,,,,,,,,,,,,,,,00032,001,2026-01-16_10h16.07.864,MST_task,2024.2.0,59.86690389636483,2026-01-16 10h16.14.986166 +0530,
,Scenes\124a.jpg,87,0,88,,,,,,,f,1.0959219000069425,0.15997059999790508,None,,,,,,88,0,87,1494.3848434999964,,,,,,,,,,,,,,,,,,,,,,,,,,,,,,1494.3686537999893,1494.3848434999964,1494.868507799998,,,,,,,,,,,,,,1494.8854862000007,,,,,,,,,,,,,1494.8827342000004,1494.8854862000007,1494.8854862000007,1494.8854862000007,1497.8686487999948,f,1.0959219000069425,0.15997059999790508,1497.8686914999998,1497.8687024999963,None,1497.884653599991,1497.884653599991,1497.884653599991,,,,,,,,,,,,,,00032,001,2026-01-16_10h16.07.864,MST_task,2024.2.0,59.86690389636483,2026-01-16 10h16.14.986166 +0530,
,Scenes\062a.jpg,88,0,89,,,,,,,j,2.0156773000053363,0.14400279999244958,None,,,,,,89,0,88,1497.884653599991,,,,,,,,,,,,,,,,,,,,,,,,,,,,,,1497.8688005000004,1497.884653599991,1498.3683798999991,,,,,,,,,,,,,,1498.389374499995,,,,,,,,,,,,,1498.3869001999992,1498.389374499995,1498.389374499995,1498.389374499995,1501.3849716999975,j,2.0156773000053363,0.14400279999244958,1501.385015699998,1501.3850279999897,None,,,,,,,,,,,,,,,,,00032,001,2026-01-16_10h16.07.864,MST_task,2024.2.0,59.86690389636483,2026-01-16 10h16.14.986166 +0530,
,Scenes\189a.jpg,89,0,90,,,,,,,j,1.1405554999946617,0.1520236000069417,None,,,,,,90,0,89,1501.4015010000003,,,,,,,,,,,,,,,,,,,,,,,,,,,,,,1501.3851271999883,1501.4015010000003,1501.884955799993,,,,,,,,,,,,,,1501.9041976000008,,,,,,,,,,,,,1501.9020811999944,1501.9041976000008,1501.9041976000008,1501.9041976000008,1504.9017997999908,j,1.1405554999946617,0.1520236000069417,1504.9018490999879,1504.9018617999973,None,,,,,,,,,,,,,,,,,00032,001,2026-01-16_10h16.07.864,MST_task,2024.2.0,59.86690389636483,2026-01-16 10h16.14.986166 +0530,
,Scenes\005a.jpg,90,0,91,,,,,,,f,2.8166244000021834,0.15995040000416338,None,,,,,,91,0,90,1504.9182475999987,,,,,,,,,,,,,,,,,,,,,,,,,,,,,,1504.901936299997,1504.9182475999987,1505.4016354999912,,,,,,,,,,,,,,1505.4201793999964,,,,,,,,,,,,,1505.4177581999975,1505.4201793999964,1505.4201793999964,1505.4201793999964,1508.4183807999943,f,2.8166244000021834,0.15995040000416338,1508.4184249999962,1508.4184367999987,None,,,,,,,,,,,,,,,,,00032,001,2026-01-16_10h16.07.864,MST_task,2024.2.0,59.86690389636483,2026-01-16 10h16.14.986166 +0530,
,Objects\066a.jpg,91,0,92,,,,,,,j,2.1819290999992518,0.1683667999895988,None,,,,,,92,0,91,1508.4346338999894,,,,,,,,,,,,,,,,,,,,,,,,,,,,,,1508.4185048999934,1508.4346338999894,1508.9183817000012,,,,,,,,,,,,,,1508.9351775999967,,,,,,,,,,,,,1508.9308433999977,1508.9351775999967,1508.9351775999967,1508.9351775999967,1511.9186721000005,j,2.1819290999992518,0.1683667999895988,1511.920677599992,1511.9206952999957,None,1511.9346787999966,1511.9346787999966,1511.9346787999966,,,,,,,,,,,,,,00032,001,2026-01-16_10h16.07.864,MST_task,2024.2.0,59.86690389636483,2026-01-16 10h16.14.986166 +0530,
,Objects\079a.jpg,92,0,93,,,,,,,j,1.1623143000033451,0.15240500000072643,None,,,,,,93,0,92,1511.9346787999966,,,,,,,,,,,,,,,,,,,,,,,,,,,,,,1511.9207652999903,1511.9346787999966,1512.4186437999888,,,,,,,,,,,,,,1512.4349037999928,,,,,,,,,,,,,1512.4283054999978,1512.4349037999928,1512.4349037999928,1512.4349037999928,1515.4185968999955,j,1.1623143000033451,0.15240500000072643,1515.4186437999888,1515.418654699999,None,1515.4346743999922,1515.4346743999922,1515.4346743999922,,,,,,,,,,,,,,00032,001,2026-01-16_10h16.07.864,MST_task,2024.2.0,59.86690389636483,2026-01-16 10h16.14.986166 +0530,
,Objects\026a.jpg,93,0,94,,,,,,,j,1.6618023000046378,0.17595730000175536,None,,,,,,94,0,93,1515.4346743999922,,,,,,,,,,,,,,,,,,,,,,,,,,,,,,1515.4187504000001,1515.4346743999922,1515.918311299989,,,,,,,,,,,,,,1515.9349967999879,,,,,,,,,,,,,1515.9277938000014,1515.9349967999879,1515.9349967999879,1515.9349967999879,1518.9188968999952,j,1.6618023000046378,0.17595730000175536,1518.9189456000022,1518.9189576999925,None,1518.9346919999953,1518.9346919999953,1518.9346919999953,,,,,,,,,,,,,,00032,001,2026-01-16_10h16.07.864,MST_task,2024.2.0,59.86690389636483,2026-01-16 10h16.14.986166 +0530,
,Objects\185a.jpg,94,0,95,,,,,,,f,2.1617832999909297,0.18408130000170786,None,,,,,,95,0,94,1518.9346919999953,,,,,,,,,,,,,,,,,,,,,,,,,,,,,,1518.9190698999882,1518.9346919999953,1519.4184500999982,,,,,,,,,,,,,,1519.434982199993,,,,,,,,,,,,,1519.4281840999902,1519.434982199993,1519.434982199993,1519.434982199993,1522.4185920000018,f,2.1617832999909297,0.18408130000170786,1522.418638099989,1522.4186489999993,None,1522.4346490999887,1522.4346490999887,1522.4346490999887,,,,,,,,,,,,,,00032,001,2026-01-16_10h16.07.864,MST_task,2024.2.0,59.86690389636483,2026-01-16 10h16.14.986166 +0530,
,Objects\025a.jpg,95,0,96,,,,,,,j,1.2143270999949891,0.20775820000562817,None,,,,,,96,0,95,1522.4346490999887,,,,,,,,,,,,,,,,,,,,,,,,,,,,,,1522.4187444999989,1522.4346490999887,1522.9183129000012,,,,,,,,,,,,,,1522.934963599997,,,,,,,,,,,,,1522.9280300999962,1522.934963599997,1522.934963599997,1522.934963599997,1525.9187999999995,j,1.2143270999949891,0.20775820000562817,1525.9188443999883,1525.918856599994,None,1525.934585199997,1525.934585199997,1525.934585199997,,,,,,,,,,,,,,00032,001,2026-01-16_10h16.07.864,MST_task,2024.2.0,59.86690389636483,2026-01-16 10h16.14.986166 +0530,
,Objects\045a.jpg,96,0,97,,,,,,,j,2.7065384999878006,0.1993681000021752,None,,,,,,97,0,96,1525.934585199997,,,,,,,,,,,,,,,,,,,,,,,,,,,,,,1525.9189590999886,1525.934585199997,1526.418379900002,,,,,,,,,,,,,,1526.434851500002,,,,,,,,,,,,,1526.4281813999987,1526.434851500002,1526.434851500002,1526.434851500002,1529.4191471999948,j,2.7065384999878006,0.1993681000021752,1529.4192045999953,1529.419216299997,None,1529.4347177000018,1529.4347177000018,1529.4347177000018,,,,,,,,,,,,,,00032,001,2026-01-16_10h16.07.864,MST_task,2024.2.0,59.86690389636483,2026-01-16 10h16.14.986166 +0530,
,Objects\037a.jpg,97,0,98,,,,,,,f,2.174311899987515,0.16775350000534672,None,,,,,,98,0,97,1529.4347177000018,,,,,,,,,,,,,,,,,,,,,,,,,,,,,,1529.4193295000005,1529.4347177000018,1529.9183933000022,,,,,,,,,,,,,,1529.935106799996,,,,,,,,,,,,,1529.9282666999934,1529.935106799996,1529.935106799996,1529.935106799996,1532.918651999993,f,2.174311899987515,0.16775350000534672,1532.9186926999973,1532.9187042999984,None,1532.9347489999927,1532.9347489999927,1532.9347489999927,,,,,,,,,,,,,,00032,001,2026-01-16_10h16.07.864,MST_task,2024.2.0,59.86690389636483,2026-01-16 10h16.14.986166 +0530,
,Scenes\169a.jpg,98,0,99,,,,,,,j,1.496335200004978,0.151324399994337,None,,,,,,99,0,98,1532.9347489999927,,,,,,,,,,,,,,,,,,,,,,,,,,,,,,1532.9188006999902,1532.9347489999927,1533.4184219000017,,,,,,,,,,,,,,1533.437102099997,,,,,,,,,,,,,1533.434460999997,1533.437102099997,1533.437102099997,1533.437102099997,1536.4349251999956,j,1.496335200004978,0.151324399994337,1536.4365888999891,1536.4366072999983,None,,,,,,,,,,,,,,,,,00032,001,2026-01-16_10h16.07.864,MST_task,2024.2.0,59.86690389636483,2026-01-16 10h16.14.986166 +0530,
,Scenes\119a.jpg,99,0,100,,,,,,,j,0.6887267999991309,0.15221040000324138,None,,,,,,100,0,99,1536.4515156999987,,,,,,,,,,,,,,,,,,,,,,,,,,,,,,1536.4366798999981,1536.4515156999987,1536.9351382000023,,,,,,,,,,,,,,1536.9567529999913,,,,,,,,,,,,,1536.9544459999888,1536.9567529999913,1536.9567529999913,1536.9567529999913,1539.9517379999888,j,0.6887267999991309,0.15221040000324138,1539.9517799000023,1539.9517915999895,None,,,,,,,,,,,,,,,,,00032,001,2026-01-16_10h16.07.864,MST_task,2024.2.0,59.86690389636483,2026-01-16 10h16.14.986166 +0530,
,Scenes\070a.jpg,100,0,101,,,,,,,None,,,f,2.232076500004041,None,,,,101,0,100,1539.9680845999974,,,,,,,,,,,,,,,,,,,,,,,,,,,,,,1539.9518894999928,1539.9680845999974,1540.4516876999987,,,,,,,,,,,,,,1540.473911699999,,,,,,,,,,,,,1540.4714232999977,1540.473911699999,1540.473911699999,1540.473911699999,1543.468412199989,None,,,1543.468452599991,1545.7185535999888,f,,,,1543.4847550999984,1543.4847550999984,2.232076500004041,None,,,,,,,,,,00032,001,2026-01-16_10h16.07.864,MST_task,2024.2.0,59.86690389636483,2026-01-16 10h16.14.986166 +0530,
,Scenes\184a.jpg,101,0,102,,,,,,,j,1.6015602999978,0.15193449999787845,None,,,,,,102,0,101,1545.7346483000001,,,,,,,,,,,,,,,,,,,,,,,,,,,,,,1545.718675799988,1545.7346483000001,1546.2183642000018,,,,,,,,,,,,,,1546.2351906999975,,,,,,,,,,,,,1546.2327399999922,1546.2351906999975,1546.2351906999975,1546.2351906999975,1549.2186648999923,j,1.6015602999978,0.15193449999787845,1549.2187067999912,1549.2187183999922,None,1549.234748399991,1549.234748399991,1549.234748399991,,,,,,,,,,,,,,00032,001,2026-01-16_10h16.07.864,MST_task,2024.2.0,59.86690389636483,2026-01-16 10h16.14.986166 +0530,
,Scenes\138a.jpg,102,0,103,,,,,,,j,1.077851299996837,0.15100080000411253,None,,,,,,103,0,102,1549.234748399991,,,,,,,,,,,,,,,,,,,,,,,,,,,,,,1549.2187844,1549.234748399991,1549.7184205999947,,,,,,,,,,,,,,1549.7358646999928,,,,,,,,,,,,,1549.733489899998,1549.7358646999928,1549.7358646999928,1549.7358646999928,1552.7187458999979,j,1.077851299996837,0.15100080000411253,1552.71878689999,1552.718798099988,None,1552.734760499996,1552.734760499996,1552.734760499996,,,,,,,,,,,,,,00032,001,2026-01-16_10h16.07.864,MST_task,2024.2.0,59.86690389636483,2026-01-16 10h16.14.986166 +0530,
,Scenes\161a.jpg,103,0,104,,,,,,,j,2.167742999998154,0.12019129999680445,None,,,,,,104,0,103,1552.734760499996,,,,,,,,,,,,,,,,,,,,,,,,,,,,,,1552.718896099992,1552.734760499996,1553.2183504999994,,,,,,,,,,,,,,1553.237621799999,,,,,,,,,,,,,1553.2353724999994,1553.237621799999,1553.237621799999,1553.237621799999,1556.2352261999913,j,2.167742999998154,0.12019129999680445,1556.2352746999968,1556.2352871999901,None,,,,,,,,,,,,,,,,,00032,001,2026-01-16_10h16.07.864,MST_task,2024.2.0,59.86690389636483,2026-01-16 10h16.14.986166 +0530,
,Scenes\004a.jpg,104,0,105,,,,,,,j,0.6899979000008898,0.09598850000475068,None,,,,,,105,0,104,1556.2515907999914,,,,,,,,,,,,,,,,,,,,,,,,,,,,,,1556.2353961999906,1556.2515907999914,1556.7350655999908,,,,,,,,,,,,,,1556.7546656999912,,,,,,,,,,,,,1556.752165599988,1556.7546656999912,1556.7546656999912,1556.7546656999912,1559.7517590999923,j,0.6899979000008898,0.09598850000475068,1559.7518007999897,1559.75181229999,None,,,,,,,,,,,,,,,,,00032,001,2026-01-16_10h16.07.864,MST_task,2024.2.0,59.86690389636483,2026-01-16 10h16.14.986166 +0530,
,Objects\062a.jpg,105,0,106,,,,,,,j,2.4405365000129677,0.19997419998981059,None,,,,,,106,0,105,1559.768251699992,,,,,,,,,,,,,,,,,,,,,,,,,,,,,,1559.7519113000017,1559.768251699992,1560.2518432999932,,,,,,,,,,,,,,1560.2688326999923,,,,,,,,,,,,,1560.2640726999962,1560.2688326999923,1560.2688326999923,1560.2688326999923,1563.2520694999985,j,2.4405365000129677,0.19997419998981059,1563.2540844999894,1563.2541016999894,None,1563.2682887999981,1563.2682887999981,1563.2682887999981,,,,,,,,,,,,,,00032,001,2026-01-16_10h16.07.864,MST_task,2024.2.0,59.86690389636483,2026-01-16 10h16.14.986166 +0530,
,Objects\154a.jpg,106,0,107,,,,,,,j,1.4362006000010297,0.16806899999210145,None,,,,,,107,0,106,1563.2682887999981,,,,,,,,,,,,,,,,,,,,,,,,,,,,,,1563.2541694999964,1563.2682887999981,1563.7519347999914,,,,,,,,,,,,,,1563.768422299996,,,,,,,,,,,,,1563.7619721999945,1563.768422299996,1563.768422299996,1563.768422299996,1566.7521127999935,j,1.4362006000010297,0.16806899999210145,1566.7521568999946,1566.7521675999888,None,1566.768270399989,1566.768270399989,1566.768270399989,,,,,,,,,,,,,,00032,001,2026-01-16_10h16.07.864,MST_task,2024.2.0,59.86690389636483,2026-01-16 10h16.14.986166 +0530,
,Objects\140a.jpg,107,0,108,,,,,,,j,2.592960200010566,0.1359980999986874,None,,,,,,108,0,107,1566.768270399989,,,,,,,,,,,,,,,,,,,,,,,,,,,,,,1566.7522661999974,1566.768270399989,1567.2519520999922,,,,,,,,,,,,,,1567.2685371999978,,,,,,,,,,,,,1567.2617188000004,1567.2685371999978,1567.2685371999978,1567.2685371999978,1570.252014400001,j,2.592960200010566,0.1359980999986874,1570.2520583000005,1570.2520743999921,None,1570.2682545999996,1570.2682545999996,1570.2682545999996,,,,,,,,,,,,,,00032,001,2026-01-16_10h16.07.864,MST_task,2024.2.0,59.86690389636483,2026-01-16 10h16.14.986166 +0530,
,Objects\043a.jpg,108,0,109,,,,,,,f,2.021477300004335,0.1749366000003647,None,,,,,,109,0,108,1570.2682545999996,,,,,,,,,,,,,,,,,,,,,,,,,,,,,,1570.2521395999938,1570.2682545999996,1570.7519157999923,,,,,,,,,,,,,,1570.7684513999993,,,,,,,,,,,,,1570.761422800002,1570.7684513999993,1570.7684513999993,1570.7684513999993,1573.7520944999997,f,2.021477300004335,0.1749366000003647,1573.7521377999947,1573.7521489999926,None,1573.768289899992,1573.768289899992,1573.768289899992,,,,,,,,,,,,,,00032,001,2026-01-16_10h16.07.864,MST_task,2024.2.0,59.86690389636483,2026-01-16 10h16.14.986166 +0530,
,Objects\022a.jpg,109,0,110,,,,,,,j,2.0407379000098445,0.19202309999673162,None,,,,,,110,0,109,1573.768289899992,,,,,,,,,,,,,,,,,,,,,,,,,,,,,,1573.7522152999882,1573.768289899992,1574.2519114999886,,,,,,,,,,,,,,1574.2685543999978,,,,,,,,,,,,,1574.2615151999926,1574.2685543999978,1574.2685543999978,1574.2685543999978,1577.2522774999961,j,2.0407379000098445,0.19202309999673162,1577.2523224999895,1577.2523373000004,None,1577.268327400001,1577.268327400001,1577.268327400001,,,,,,,,,,,,,,00032,001,2026-01-16_10h16.07.864,MST_task,2024.2.0,59.86690389636483,2026-01-16 10h16.14.986166 +0530,
,Objects\163a.jpg,110,0,111,,,,,,,None,,,j,0.22053269999742042,None,,,,111,0,110,1577.268327400001,,,,,,,,,,,,,,,,,,,,,,,,,,,,,,1577.252404599989,1577.268327400001,1577.7519029999967,,,,,,,,,,,,,,1577.7684815999964,,,,,,,,,,,,,1577.7617615999916,1577.7684815999964,1577.7684815999964,1577.7684815999964,1580.7521449999913,None,,,1580.752181799995,1581.0022289999906,j,1580.7682017999905,1580.7682017999905,1580.7682017999905,1580.7682017999905,1580.7682017999905,0.22053269999742042,None,,,,,,,,,,00032,001,2026-01-16_10h16.07.864,MST_task,2024.2.0,59.86690389636483,2026-01-16 10h16.14.986166 +0530,
,Objects\089a.jpg,111,0,112,,,,,,,j,2.006178399999044,0.11997920001158491,None,,,,,,112,0,111,1581.0182706999913,,,,,,,,,,,,,,,,,,,,,,,,,,,,,,1581.0023205999896,1581.0182706999913,1581.50187919999,,,,,,,,,,,,,,1581.5185384999932,,,,,,,,,,,,,1581.511770099998,1581.5185384999932,1581.5185384999932,1581.5185384999932,1584.5021458999981,j,2.006178399999044,0.11997920001158491,1584.5021871999925,1584.5022027999948,None,1584.5182034999889,1584.5182034999889,1584.5182034999889,,,,,,,,,,,,,,00032,001,2026-01-16_10h16.07.864,MST_task,2024.2.0,59.86690389636483,2026-01-16 10h16.14.986166 +0530,
,Scenes\104a.jpg,112,0,113,,,,,,,j,1.8384298000019044,0.12799719999020454,None,,,,,,113,0,112,1584.5182034999889,,,,,,,,,,,,,,,,,,,,,,,,,,,,,,1584.5022981999937,1584.5182034999889,1585.0018624999939,,,,,,,,,,,,,,1585.0229716999893,,,,,,,,,,,,,1585.0203652999917,1585.0229716999893,1585.0229716999893,1585.0229716999893,1588.0185544999986,j,1.8384298000019044,0.12799719999020454,1588.0201481999975,1588.0201660999883,None,,,,,,,,,,,,,,,,,00032,001,2026-01-16_10h16.07.864,MST_task,2024.2.0,59.86690389636483,2026-01-16 10h16.14.986166 +0530,
,Scenes\026a.jpg,113,0,114,,,,,,,j,1.1055138000083389,0.15200089999416377,None,,,,,,114,0,113,1588.0349239999923,,,,,,,,,,,,,,,,,,,,,,,,,,,,,,1588.0202357999951,1588.0349239999923,1588.5186642999906,,,,,,,,,,,,,,1588.5399632999906,,,,,,,,,,,,,1588.5374097999884,1588.5399632999906,1588.5399632999906,1588.5399632999906,1591.5352375999937,j,1.1055138000083389,0.15200089999416377,1591.5352816999948,1591.5352933999966,None,,,,,,,,,,,,,,,,,00032,001,2026-01-16_10h16.07.864,MST_task,2024.2.0,59.86690389636483,2026-01-16 10h16.14.986166 +0530,
,Scenes\179a.jpg,114,0,115,,,,,,,j,1.9451151000102982,0.1519980999873951,None,,,,,,115,0,114,1591.5517440999974,,,,,,,,,,,,,,,,,,,,,,,,,,,,,,1591.535361199989,1591.5517440999974,1592.0352024999884,,,,,,,,,,,,,,1592.0521853999962,,,,,,,,,,,,,1592.048618899993,1592.0521853999962,1592.0521853999962,1592.0521853999962,1595.0354762999923,j,1.9451151000102982,0.1519980999873951,1595.035526199994,1595.035538199998,None,1595.0515565999958,1595.0515565999958,1595.0515565999958,,,,,,,,,,,,,,00032,001,2026-01-16_10h16.07.864,MST_task,2024.2.0,59.86690389636483,2026-01-16 10h16.14.986166 +0530,
,Scenes\032a.jpg,115,0,116,,,,,,,j,0.8868916000064928,0.1679965999937849,None,,,,,,116,0,115,1595.0515565999958,,,,,,,,,,,,,,,,,,,,,,,,,,,,,,1595.0356080999918,1595.0515565999958,1595.5352035999967,,,,,,,,,,,,,,1595.5578145999898,,,,,,,,,,,,,1595.555198999995,1595.5578145999898,1595.5578145999898,1595.5578145999898,1598.5518463999906,j,0.8868916000064928,0.1679965999937849,1598.5518883999903,1598.551900499995,None,,,,,,,,,,,,,,,,,00032,001,2026-01-16_10h16.07.864,MST_task,2024.2.0,59.86690389636483,2026-01-16 10h16.14.986166 +0530,
,Scenes\115a.jpg,116,0,117,,,,,,,j,1.0212318999983836,0.19282210001256317,None,,,,,,117,0,116,1598.568276399994,,,,,,,,,,,,,,,,,,,,,,,,,,,,,,1598.5519679999998,1598.568276399994,1599.0518561999925,,,,,,,,,,,,,,1599.0713977999985,,,,,,,,,,,,,1599.068985299993,1599.0713977999985,1599.0713977999985,1599.0713977999985,1602.0684693999938,j,1.0212318999983836,0.19282210001256317,1602.0685164999886,1602.0685279999889,None,,,,,,,,,,,,,,,,,00032,001,2026-01-16_10h16.07.864,MST_task,2024.2.0,59.86690389636483,2026-01-16 10h16.14.986166 +0530,
,Scenes\101a.jpg,117,0,118,,,,,,,j,1.1949107999971602,0.14423949999036267,None,,,,,,118,0,117,1602.0849287999881,,,,,,,,,,,,,,,,,,,,,,,,,,,,,,1602.0685974999942,1602.0849287999881,1602.5685775999882,,,,,,,,,,,,,,1602.5866466000007,,,,,,,,,,,,,1602.5841930999886,1602.5866466000007,1602.5866466000007,1602.5866466000007,1605.5850390999985,j,1.1949107999971602,0.14423949999036267,1605.585081199999,1605.5850929000007,None,,,,,,,,,,,,,,,,,00032,001,2026-01-16_10h16.07.864,MST_task,2024.2.0,59.86690389636483,2026-01-16 10h16.14.986166 +0530,
,Scenes\091a.jpg,118,0,119,,,,,,,j,0.9744963999983156,0.16800080001121387,None,,,,,,119,0,118,1605.6016154999961,,,,,,,,,,,,,,,,,,,,,,,,,,,,,,1605.5851603999909,1605.6016154999961,1606.0851762999955,,,,,,,,,,,,,,,,,,,,,,,,,,,1606.0984836999996,1606.1023174000002,1606.1023174000002,1606.1023174000002,1609.085367199994,j,0.9744963999983156,0.16800080001121387,1609.0854094999959,1609.0854208999954,None,1609.1016211999959,1609.1016211999959,1609.1016211999959,,,,,,,,,,,,,,00032,001,2026-01-16_10h16.07.864,MST_task,2024.2.0,59.86690389636483,2026-01-16 10h16.14.986166 +0530,
,Objects\192a.jpg,119,0,120,,,,,,,f,2.6590902999887476,0.17600700000184588,None,,,,,,120,0,119,1609.1016211999959,,,,,,,,,,,,,,,,,,,,,,,,,,,,,,1609.0855175999895,1609.1016211999959,1609.5850578999962,,,,,,,,,,,,,,1609.6020348999882,,,,,,,,,,,,,1609.5971919000003,1609.6020348999882,1609.6020348999882,1609.6020348999882,1612.5854921999999,f,2.6590902999887476,0.17600700000184588,1612.587514999992,1612.5875320999912,None,1612.601618399989,1612.601618399989,1612.601618399989,,,,,,,,,,,,,,00032,001,2026-01-16_10h16.07.864,MST_task,2024.2.0,59.86690389636483,2026-01-16 10h16.14.986166 +0530,
,Objects\081a.jpg,120,0,121,,,,,,,j,2.7032812999968883,0.15227930000401102,None,,,,,,121,0,120,1612.601618399989,,,,,,,,,,,,,,,,,,,,,,,,,,,,,,1612.5876021000004,1612.601618399989,1613.0850619999983,,,,,,,,,,,,,,1613.1018765999906,,,,,,,,,,,,,1613.0945831999998,1613.1018765999906,1613.1018765999906,1613.1018765999906,1616.0852860000014,j,2.7032812999968883,0.15227930000401102,1616.0853399999905,1616.0853512999893,None,1616.1015016999881,1616.1015016999881,1616.1015016999881,,,,,,,,,,,,,,00032,001,2026-01-16_10h16.07.864,MST_task,2024.2.0,59.86690389636483,2026-01-16 10h16.14.986166 +0530,
,Objects\174a.jpg,121,0,122,,,,,,,f,0.9234063000039896,0.19961919999332167,None,,,,,,122,0,121,1616.1015016999881,,,,,,,,,,,,,,,,,,,,,,,,,,,,,,1616.0854180999886,1616.1015016999881,1616.5849566999968,,,,,,,,,,,,,,1616.6017364,,,,,,,,,,,,,1616.594841500002,1616.6017364,1616.6017364,1616.6017364,1619.5855626999983,f,0.9234063000039896,0.19961919999332167,1619.5856108000007,1619.5856224000017,None,1619.601507799991,1619.601507799991,1619.601507799991,,,,,,,,,,,,,,00032,001,2026-01-16_10h16.07.864,MST_task,2024.2.0,59.86690389636483,2026-01-16 10h16.14.986166 +0530,
,Objects\164a.jpg,122,0,123,,,,,,,f,1.6791169000061927,0.16884969999955501,None,,,,,,123,0,122,1619.601507799991,,,,,,,,,,,,,,,,,,,,,,,,,,,,,,1619.5857319999923,1619.601507799991,1620.0852562999935,,,,,,,,,,,,,,1620.1016925000004,,,,,,,,,,,,,1620.095191299988,1620.1016925000004,1620.1016925000004,1620.1016925000004,1623.0852932999987,f,1.6791169000061927,0.16884969999955501,1623.0853359999892,1623.085347100001,None,1623.1015076999902,1623.1015076999902,1623.1015076999902,,,,,,,,,,,,,,00032,001,2026-01-16_10h16.07.864,MST_task,2024.2.0,59.86690389636483,2026-01-16 10h16.14.986166 +0530,
,Objects\191a.jpg,123,0,124,,,,,,,None,,,f,0.11524780000036117,None,,,,124,0,123,1623.1015076999902,,,,,,,,,,,,,,,,,,,,,,,,,,,,,,1623.0854436999944,1623.1015076999902,1623.5850098999945,,,,,,,,,,,,,,1623.6017544999922,,,,,,,,,,,,,1623.5947708999884,1623.6017544999922,1623.6017544999922,1623.6017544999922,1626.5851715999888,None,,,1626.585210899997,1626.7186443999963,f,1626.601518999989,1626.601518999989,1626.601518999989,1626.601518999989,1626.601518999989,0.11524780000036117,None,,,,,,,,,,00032,001,2026-01-16_10h16.07.864,MST_task,2024.2.0,59.86690389636483,2026-01-16 10h16.14.986166 +0530,
,Objects\006a.jpg,124,0,125,,,,,,,f,1.026447799988091,0.18373129999963567,None,,,,,,125,0,124,1626.7346724999952,,,,,,,,,,,,,,,,,,,,,,,,,,,,,,1626.7187593999988,1626.7346724999952,1627.2184276999906,,,,,,,,,,,,,,1627.2349302999937,,,,,,,,,,,,,1627.2283472999989,1627.2349302999937,1627.2349302999937,1627.2349302999937,1630.21878499999,f,1.026447799988091,0.18373129999963567,1630.218827699995,1630.2188389999937,None,1630.2347138999903,1630.2347138999903,1630.2347138999903,,,,,,,,,,,,,,00032,001,2026-01-16_10h16.07.864,MST_task,2024.2.0,59.86690389636483,2026-01-16 10h16.14.986166 +0530,
,Objects\160a.jpg,125,0,126,,,,,,,f,1.9746696000074735,0.16799609998997767,None,,,,,,126,0,125,1630.2347138999903,,,,,,,,,,,,,,,,,,,,,,,,,,,,,,1630.218904399997,1630.2347138999903,1630.7184751999885,,,,,,,,,,,,,,1630.7349063000001,,,,,,,,,,,,,1630.728022299998,1630.7349063000001,1630.7349063000001,1630.7349063000001,1633.7187367000006,f,1.9746696000074735,0.16799609998997767,1633.7187906999898,1633.7188022999908,None,1633.7346753999882,1633.7346753999882,1633.7346753999882,,,,,,,,,,,,,,00032,001,2026-01-16_10h16.07.864,MST_task,2024.2.0,59.86690389636483,2026-01-16 10h16.14.986166 +0530,
,Scenes\111a.jpg,126,0,127,,,,,,,j,1.8466565000126138,0.13708119999500923,None,,,,,,127,0,126,1633.7346753999882,,,,,,,,,,,,,,,,,,,,,,,,,,,,,,1633.718869999997,1633.7346753999882,1634.2184703999956,,,,,,,,,,,,,,1634.2381981999933,,,,,,,,,,,,,1634.2355733000004,1634.2381981999933,1634.2381981999933,1634.2381981999933,1637.2349963000015,j,1.8466565000126138,0.13708119999500923,1637.2367585999891,1637.2367765999952,None,,,,,,,,,,,,,,,,,00032,001,2026-01-16_10h16.07.864,MST_task,2024.2.0,59.86690389636483,2026-01-16 10h16.14.986166 +0530,
,Scenes\072a.jpg,127,0,128,,,,,,,j,1.7054987000010442,0.14487059999373741,None,,,,,,128,0,127,1637.251501199993,,,,,,,,,,,,,,,,,,,,,,,,,,,,,,1637.2368478999997,1637.251501199993,1637.7350133,,,,,,,,,,,,,,1637.7553107999993,,,,,,,,,,,,,1637.7530470999918,1637.7553107999993,1637.7553107999993,1637.7553107999993,1640.7517945,j,1.7054987000010442,0.14487059999373741,1640.7518464999885,1640.7518593999994,None,,,,,,,,,,,,,,,,,00032,001,2026-01-16_10h16.07.864,MST_task,2024.2.0,59.86690389636483,2026-01-16 10h16.14.986166 +0530,
,Scenes\001a.jpg,128,0,129,,,,,,,f,1.1476295000029495,0.1841666999971494,None,,,,,,129,0,128,1640.7682186999882,,,,,,,,,,,,,,,,,,,,,,,,,,,,,,1640.7519731999928,1640.7682186999882,1641.2516755999968,,,,,,,,,,,,,,1641.2733586999966,,,,,,,,,,,,,1641.2708198999899,1641.2733586999966,1641.2733586999966,1641.2733586999966,1644.2684286000003,f,1.1476295000029495,0.1841666999971494,1644.2684795999958,1644.2684913999983,None,,,,,,,,,,,,,,,,,00032,001,2026-01-16_10h16.07.864,MST_task,2024.2.0,59.86690389636483,2026-01-16 10h16.14.986166 +0530,
,Scenes\028a.jpg,129,0,130,,,,,,,j,0.6835194000013871,0.16806319999159314,None,,,,,,130,0,129,1644.2849094999983,,,,,,,,,,,,,,,,,,,,,,,,,,,,,,1644.2685992999905,1644.2849094999983,1644.768347499994,,,,,,,,,,,,,,1644.7859704000002,,,,,,,,,,,,,1644.783573599998,1644.7859704000002,1644.7859704000002,1644.7859704000002,1647.768856900002,j,0.6835194000013871,0.16806319999159314,1647.7688992999902,1647.7689103000012,None,1647.784725999998,1647.784725999998,1647.784725999998,,,,,,,,,,,,,,00032,001,2026-01-16_10h16.07.864,MST_task,2024.2.0,59.86690389636483,2026-01-16 10h16.14.986166 +0530,
,Scenes\018a.jpg,130,0,131,,,,,,,f,2.3995124000066426,0.20004440000047907,None,,,,,,131,0,130,1647.784725999998,,,,,,,,,,,,,,,,,,,,,,,,,,,,,,1647.769007099996,1647.784725999998,1648.268419,,,,,,,,,,,,,,1648.285311899992,,,,,,,,,,,,,1648.2805216999986,1648.285311899992,1648.285311899992,1648.285311899992,1651.2688734999974,f,2.3995124000066426,0.20004440000047907,1651.2689213999984,1651.2689336999902,None,1651.2846697999921,1651.2846697999921,1651.2846697999921,,,,,,,,,,,,,,00032,001,2026-01-16_10h16.07.864,MST_task,2024.2.0,59.86690389636483,2026-01-16 10h16.14.986166 +0530,
,Scenes\061a.jpg,131,0,132,,,,,,,j,2.2276467000046978,0.1524926999991294,None,,,,,,132,0,131,1651.2846697999921,,,,,,,,,,,,,,,,,,,,,,,,,,,,,,1651.269009800002,1651.2846697999921,1651.7684286000003,,,,,,,,,,,,,,1651.7852337999939,,,,,,,,,,,,,1651.781116500002,1651.7852337999939,1651.7852337999939,1651.7852337999939,1654.7688287999918,j,2.2276467000046978,0.1524926999991294,1654.768872200002,1654.7688828999962,None,1654.7848304999934,1654.7848304999934,1654.7848304999934,,,,,,,,,,,,,,00032,001,2026-01-16_10h16.07.864,MST_task,2024.2.0,59.86690389636483,2026-01-16 10h16.14.986166 +0530,
,Scenes\068a.jpg,132,0,133,,,,,,,j,1.118512400003965,0.135936100006802,None,,,,,,133,0,132,1654.7848304999934,,,,,,,,,,,,,,,,,,,,,,,,,,,,,,1654.7689802999957,1654.7848304999934,1655.2684496000002,,,,,,,,,,,,,,1655.286878999992,,,,,,,,,,,,,1655.2846208999981,1655.286878999992,1655.286878999992,1655.286878999992,1658.2849559999886,j,1.118512400003965,0.135936100006802,1658.2849985999928,1658.2850098999916,None,,,,,,,,,,,,,,,,,00032,001,2026-01-16_10h16.07.864,MST_task,2024.2.0,59.86690389636483,2026-01-16 10h16.14.986166 +0530,
,Objects\015a.jpg,133,0,134,,,,,,,f,1.4749121999921044,0.1450230000045849,None,,,,,,134,0,133,1658.3015438000002,,,,,,,,,,,,,,,,,,,,,,,,,,,,,,1658.2851071999903,1658.3015438000002,1658.7850517999905,,,,,,,,,,,,,,1658.8023042999994,,,,,,,,,,,,,1658.7994842999906,1658.8023042999994,1658.8023042999994,1658.8023042999994,1661.7852405000012,f,1.4749121999921044,0.1450230000045849,1661.7872830999986,1661.7873005000001,None,1661.8015230999881,1661.8015230999881,1661.8015230999881,,,,,,,,,,,,,,00032,001,2026-01-16_10h16.07.864,MST_task,2024.2.0,59.86690389636483,2026-01-16 10h16.14.986166 +0530,
,Objects\155a.jpg,134,0,135,,,,,,,f,1.0471116000117036,0.1843349999981001,None,,,,,,135,0,134,1661.8015230999881,,,,,,,,,,,,,,,,,,,,,,,,,,,,,,1661.7874037000001,1661.8015230999881,1662.2849698999926,,,,,,,,,,,,,,1662.3017641999904,,,,,,,,,,,,,1662.294393899996,1662.3017641999904,1662.3017641999904,1662.3017641999904,1665.2852944999904,f,1.0471116000117036,0.1843349999981001,1665.2853371999954,1665.2853483999934,None,1665.30156919999,1665.30156919999,1665.30156919999,,,,,,,,,,,,,,00032,001,2026-01-16_10h16.07.864,MST_task,2024.2.0,59.86690389636483,2026-01-16 10h16.14.986166 +0530,
,Objects\005a.jpg,135,0,136,,,,,,,f,0.9797762999951374,0.2000218000030145,None,,,,,,136,0,135,1665.30156919999,,,,,,,,,,,,,,,,,,,,,,,,,,,,,,1665.2854557999963,1665.30156919999,1665.784922699997,,,,,,,,,,,,,,1665.801784899988,,,,,,,,,,,,,1665.7943257000006,1665.801784899988,1665.801784899988,1665.801784899988,1668.7851905999996,f,0.9797762999951374,0.2000218000030145,1668.785243099992,1668.785255099996,None,1668.8016059999936,1668.8016059999936,1668.8016059999936,,,,,,,,,,,,,,00032,001,2026-01-16_10h16.07.864,MST_task,2024.2.0,59.86690389636483,2026-01-16 10h16.14.986166 +0530,
,Objects\010a.jpg,136,0,137,,,,,,,j,1.855459600003087,0.14384599999175407,None,,,,,,137,0,136,1668.8016059999936,,,,,,,,,,,,,,,,,,,,,,,,,,,,,,1668.7853553000023,1668.8016059999936,1669.285068199999,,,,,,,,,,,,,,1669.30170489999,,,,,,,,,,,,,1669.2945731999935,1669.30170489999,1669.30170489999,1669.30170489999,1672.2853969999996,j,1.855459600003087,0.14384599999175407,1672.285437499988,1672.285448499999,None,1672.301458499991,1672.301458499991,1672.301458499991,,,,,,,,,,,,,,00032,001,2026-01-16_10h16.07.864,MST_task,2024.2.0,59.86690389636483,2026-01-16 10h16.14.986166 +0530,
,Objects\148a.jpg,137,0,138,,,,,,,j,2.803625100001227,0.15963949999422766,None,,,,,,138,0,137,1672.301458499991,,,,,,,,,,,,,,,,,,,,,,,,,,,,,,1672.2855137000006,1672.301458499991,1672.7850502999936,,,,,,,,,,,,,,1672.8017590999953,,,,,,,,,,,,,1672.7950562999904,1672.8017590999953,1672.8017590999953,1672.8017590999953,1675.7857059999951,j,2.803625100001227,0.15963949999422766,1675.78575309999,1675.7857643999887,None,1675.8015198999929,1675.8015198999929,1675.8015198999929,,,,,,,,,,,,,,00032,001,2026-01-16_10h16.07.864,MST_task,2024.2.0,59.86690389636483,2026-01-16 10h16.14.986166 +0530,
,Objects\023a.jpg,138,0,139,,,,,,,f,2.543451499994262,0.20853210000495892,None,,,,,,139,0,138,1675.8015198999929,,,,,,,,,,,,,,,,,,,,,,,,,,,,,,1675.7858316999918,1675.8015198999929,1676.2852241999935,,,,,,,,,,,,,,1676.3018513999996,,,,,,,,,,,,,1676.2947784999997,1676.3018513999996,1676.3018513999996,1676.3018513999996,1679.2853897000023,f,2.543451499994262,0.20853210000495892,1679.2854320999904,1679.2854431000014,None,1679.3016502999963,1679.3016502999963,1679.3016502999963,,,,,,,,,,,,,,00032,001,2026-01-16_10h16.07.864,MST_task,2024.2.0,59.86690389636483,2026-01-16 10h16.14.986166 +0530,
,Objects\117a.jpg,139,0,140,,,,,,,None,,,f,2.203099200007273,None,,,,140,0,139,1679.3016502999963,,,,,,,,,,,,,,,,,,,,,,,,,,,,,,1679.2855073999963,1679.3016502999963,1679.7851120999985,,,,,,,,,,,,,,1679.801830899989,,,,,,,,,,,,,1679.7946665999916,1679.801830899989,1679.801830899989,1679.801830899989,1682.7854402999947,None,,,1682.7854788999975,1685.0191081999947,f,1682.8016440999927,1682.8016440999927,1682.8016440999927,1682.8016440999927,1682.8016440999927,2.203099200007273,None,,,,,,,,,,00032,001,2026-01-16_10h16.07.864,MST_task,2024.2.0,59.86690389636483,2026-01-16 10h16.14.986166 +0530,
,Scenes\157a.jpg,140,0,141,,,,,,,j,1.3701696999924025,0.14436530000239145,None,,,,,,141,0,140,1685.0348681999894,,,,,,,,,,,,,,,,,,,,,,,,,,,,,,1685.019194099994,1685.0348681999894,1685.5185414000007,,,,,,,,,,,,,,1685.5385630999954,,,,,,,,,,,,,1685.53615,1685.5385630999954,1685.5385630999954,1685.5385630999954,1688.5351651999954,j,1.3701696999924025,0.14436530000239145,1688.5369520999957,1688.5369733999978,None,,,,,,,,,,,,,,,,,00032,001,2026-01-16_10h16.07.864,MST_task,2024.2.0,59.86690389636483,2026-01-16 10h16.14.986166 +0530,
,Scenes\102a.jpg,141,0,142,,,,,,,f,1.324337000012747,0.13602989999344572,None,,,,,,142,0,141,1688.5516413000005,,,,,,,,,,,,,,,,,,,,,,,,,,,,,,1688.5370771000016,1688.5516413000005,1689.035172399992,,,,,,,,,,,,,,1689.0564467999939,,,,,,,,,,,,,1689.0540260999987,1689.0564467999939,1689.0564467999939,1689.0564467999939,1692.0518468999944,f,1.324337000012747,0.13602989999344572,1692.051888499991,1692.0519003999943,None,,,,,,,,,,,,,,,,,00032,001,2026-01-16_10h16.07.864,MST_task,2024.2.0,59.86690389636483,2026-01-16 10h16.14.986166 +0530,
,Scenes\003a.jpg,142,0,143,,,,,,,f,1.2398021999979392,0.18398770000203513,None,,,,,,143,0,142,1692.0682793000014,,,,,,,,,,,,,,,,,,,,,,,,,,,,,,1692.0520021999982,1692.0682793000014,1692.551784299998,,,,,,,,,,,,,,1692.5737037999934,,,,,,,,,,,,,1692.5711470999959,1692.5737037999934,1692.5737037999934,1692.5737037999934,1695.5685333000001,f,1.2398021999979392,0.18398770000203513,1695.5685729999968,1695.5685846999986,None,,,,,,,,,,,,,,,,,00032,001,2026-01-16_10h16.07.864,MST_task,2024.2.0,59.86690389636483,2026-01-16 10h16.14.986166 +0530,
,Scenes\024a.jpg,143,0,144,,,,,,,j,2.1359796000033384,0.14399510000657756,None,,,,,,144,0,143,1695.5849070999975,,,,,,,,,,,,,,,,,,,,,,,,,,,,,,1695.5686936999991,1695.5849070999975,1696.0685441999958,,,,,,,,,,,,,,1696.0855413999961,,,,,,,,,,,,,1696.0816408999963,1696.0855413999961,1696.0855413999961,1696.0855413999961,1699.0688566999888,j,2.1359796000033384,0.14399510000657756,1699.0688973999931,1699.068908000001,None,1699.0848433999927,1699.0848433999927,1699.0848433999927,,,,,,,,,,,,,,00032,001,2026-01-16_10h16.07.864,MST_task,2024.2.0,59.86690389636483,2026-01-16 10h16.14.986166 +0530,
,Scenes\121a.jpg,144,0,145,,,,,,,None,,,j,0.5324225000076694,None,,,,145,0,144,1699.0848433999927,,,,,,,,,,,,,,,,,,,,,,,,,,,,,,1699.0690034,1699.0848433999927,1699.5685058999952,,,,,,,,,,,,,,1699.5866452999908,,,,,,,,,,,,,1699.5843774999958,1699.5866452999908,1699.5866452999908,1699.5866452999908,1702.585059399993,None,,,1702.5850987000013,1703.135361499997,j,,,,1702.601533699999,1702.601533699999,0.5324225000076694,None,,,,,,,,,,00032,001,2026-01-16_10h16.07.864,MST_task,2024.2.0,59.86690389636483,2026-01-16 10h16.14.986166 +0530,
,Scenes\083a.jpg,145,0,146,,,,,,,j,2.536754100001417,0.13599920000706334,None,,,,,,146,0,145,1703.1516518999997,,,,,,,,,,,,,,,,,,,,,,,,,,,,,,1703.1354857999977,1703.1516518999997,1703.6354133999994,,,,,,,,,,,,,,1703.652634699989,,,,,,,,,,,,,1703.6503382999945,1703.652634699989,1703.652634699989,1703.652634699989,1706.6517706000013,j,2.536754100001417,0.13599920000706334,1706.6518198999984,1706.6518321999902,None,,,,,,,,,,,,,,,,,00032,001,2026-01-16_10h16.07.864,MST_task,2024.2.0,59.86690389636483,2026-01-16 10h16.14.986166 +0530,
,Scenes\125a.jpg,146,0,147,,,,,,,j,2.0744467999902554,0.1593608000111999,None,,,,,,147,0,146,1706.6682485999918,,,,,,,,,,,,,,,,,,,,,,,,,,,,,,1706.651953099994,1706.6682485999918,1707.1518520999962,,,,,,,,,,,,,,1707.1709436999954,,,,,,,,,,,,,1707.168751499994,1707.1709436999954,1707.1709436999954,1707.1709436999954,1710.1684602999885,j,2.0744467999902554,0.1593608000111999,1710.1685009999928,1710.1685122999916,None,,,,,,,,,,,,,,,,,00032,001,2026-01-16_10h16.07.864,MST_task,2024.2.0,59.86690389636483,2026-01-16 10h16.14.986166 +0530,
,Objects\172a.jpg,147,0,148,,,,,,,j,1.920428700002958,0.15891199999896344,None,,,,,,148,0,147,1710.1848071999993,,,,,,,,,,,,,,,,,,,,,,,,,,,,,,1710.1686112999887,1710.1848071999993,1710.6684505000012,,,,,,,,,,,,,,1710.6854509999976,,,,,,,,,,,,,1710.6810081000003,1710.6854509999976,1710.6854509999976,1710.6854509999976,1713.6692355999985,j,1.920428700002958,0.15891199999896344,1713.6712839999964,1713.6713017000002,None,1713.6847468999913,1713.6847468999913,1713.6847468999913,,,,,,,,,,,,,,00032,001,2026-01-16_10h16.07.864,MST_task,2024.2.0,59.86690389636483,2026-01-16 10h16.14.986166 +0530,
,Objects\159a.jpg,148,0,149,,,,,,,f,0.9721434000093723,0.1684738999902038,None,,,,,,149,0,148,1713.6847468999913,,,,,,,,,,,,,,,,,,,,,,,,,,,,,,1713.6714049000002,1713.6847468999913,1714.168413899999,,,,,,,,,,,,,,1714.184964999993,,,,,,,,,,,,,1714.1782120999997,1714.184964999993,1714.184964999993,1714.184964999993,1717.168697999994,f,0.9721434000093723,0.1684738999902038,1717.168740699999,1717.1687520999985,None,1717.1848089999985,1717.1848089999985,1717.1848089999985,,,,,,,,,,,,,,00032,001,2026-01-16_10h16.07.864,MST_task,2024.2.0,59.86690389636483,2026-01-16 10h16.14.986166 +0530,
,Objects\188a.jpg,149,0,150,,,,,,,None,,,f,0.07198930000595283,None,,,,150,0,149,1717.1848089999985,,,,,,,,,,,,,,,,,,,,,,,,,,,,,,1717.1688519000018,1717.1848089999985,1717.668437699991,,,,,,,,,,,,,,1717.685127299992,,,,,,,,,,,,,1717.6802322000003,1717.685127299992,1717.685127299992,1717.685127299992,1720.66901469999,None,,,1720.6690604999894,1720.7686030999903,f,1720.6847936999984,1720.6847936999984,1720.6847936999984,1720.6847936999984,1720.6847936999984,0.07198930000595283,None,,,,,,,,,,00032,001,2026-01-16_10h16.07.864,MST_task,2024.2.0,59.86690389636483,2026-01-16 10h16.14.986166 +0530,
,Objects\101a.jpg,150,0,151,,,,,,,j,1.4478084000002127,0.15239149999979418,None,,,,,,151,0,150,1720.7847049999982,,,,,,,,,,,,,,,,,,,,,,,,,,,,,,1720.7687213999889,1720.7847049999982,1721.2684815999964,,,,,,,,,,,,,,1721.2851931999903,,,,,,,,,,,,,1721.2799200000009,1721.2851931999903,1721.2851931999903,1721.2851931999903,1724.2688280000002,j,1.4478084000002127,0.15239149999979418,1724.2688714999967,1724.2688826999947,None,1724.2847658999963,1724.2847658999963,1724.2847658999963,,,,,,,,,,,,,,00032,001,2026-01-16_10h16.07.864,MST_task,2024.2.0,59.86690389636483,2026-01-16 10h16.14.986166 +0530,
,Objects\017a.jpg,151,0,152,,,,,,,f,1.9802906999975676,0.20060320000629872,None,,,,,,152,0,151,1724.2847658999963,,,,,,,,,,,,,,,,,,,,,,,,,,,,,,1724.2689475999941,1724.2847658999963,1724.7685299000004,,,,,,,,,,,,,,1724.7849157000019,,,,,,,,,,,,,1724.777856899993,1724.7849157000019,1724.7849157000019,1724.7849157000019,1727.768690500001,f,1.9802906999975676,0.20060320000629872,1727.7687327000021,1727.7687439000001,None,1727.7848181000008,1727.7848181000008,1727.7848181000008,,,,,,,,,,,,,,00032,001,2026-01-16_10h16.07.864,MST_task,2024.2.0,59.86690389636483,2026-01-16 10h16.14.986166 +0530,
,Objects\135a.jpg,152,0,153,,,,,,,f,0.7597438000084367,0.13668039999902248,None,,,,,,153,0,152,1727.7848181000008,,,,,,,,,,,,,,,,,,,,,,,,,,,,,,1727.768809000001,1727.7848181000008,1728.2684515,,,,,,,,,,,,,,1728.2850661999983,,,,,,,,,,,,,1728.2781154999975,1728.2850661999983,1728.2850661999983,1728.2850661999983,1731.2686805999983,f,0.7597438000084367,0.13668039999902248,1731.2687237999926,1731.2687350999913,None,1731.284793599989,1731.284793599989,1731.284793599989,,,,,,,,,,,,,,00032,001,2026-01-16_10h16.07.864,MST_task,2024.2.0,59.86690389636483,2026-01-16 10h16.14.986166 +0530,
,Objects\002a.jpg,153,0,154,,,,,,,f,0.8515581999963615,0.1599601000052644,None,,,,,,154,0,153,1731.284793599989,,,,,,,,,,,,,,,,,,,,,,,,,,,,,,1731.2688302999886,1731.284793599989,1731.768407399999,,,,,,,,,,,,,,1731.7852201999922,,,,,,,,,,,,,1731.7779116999882,1731.7852201999922,1731.7852201999922,1731.7852201999922,1734.7687369999912,f,0.8515581999963615,0.1599601000052644,1734.7687796999962,1734.7687906999927,None,1734.7847226000013,1734.7847226000013,1734.7847226000013,,,,,,,,,,,,,,00032,001,2026-01-16_10h16.07.864,MST_task,2024.2.0,59.86690389636483,2026-01-16 10h16.14.986166 +0530,
,Scenes\094a.jpg,154,0,155,,,,,,,j,2.0658133999968413,0.1600025999941863,None,,,,,,155,0,154,1734.7847226000013,,,,,,,,,,,,,,,,,,,,,,,,,,,,,,1734.7689002999978,1734.7847226000013,1735.2683700999914,,,,,,,,,,,,,,1735.2909889000002,,,,,,,,,,,,,1735.2882952999935,1735.2909889000002,1735.2909889000002,1735.2909889000002,1738.2849680999934,j,2.0658133999968413,0.1600025999941863,1738.2865860999882,1738.286602799999,None,,,,,,,,,,,,,,,,,00032,001,2026-01-16_10h16.07.864,MST_task,2024.2.0,59.86690389636483,2026-01-16 10h16.14.986166 +0530,
,Scenes\088a.jpg,155,0,156,,,,,,,j,0.8370542000047863,0.16819299999042414,None,,,,,,156,0,155,1738.3015315999946,,,,,,,,,,,,,,,,,,,,,,,,,,,,,,1738.286672599992,1738.3015315999946,1738.784969699991,,,,,,,,,,,,,,1738.8084331999999,,,,,,,,,,,,,1738.805819000001,1738.8084331999999,1738.8084331999999,1738.8084331999999,1741.8017690999986,j,0.8370542000047863,0.16819299999042414,1741.801817399988,1741.8018292999914,None,,,,,,,,,,,,,,,,,00032,001,2026-01-16_10h16.07.864,MST_task,2024.2.0,59.86690389636483,2026-01-16 10h16.14.986166 +0530,
,Scenes\076a.jpg,156,0,157,,,,,,,j,0.8812569000001531,0.167726900006528,None,,,,,,157,0,156,1741.8182417999924,,,,,,,,,,,,,,,,,,,,,,,,,,,,,,1741.801973099995,1741.8182417999924,1742.3017820999958,,,,,,,,,,,,,,1742.3242472999991,,,,,,,,,,,,,1742.3217777999962,1742.3242472999991,1742.3242472999991,1742.3242472999991,1745.3183814999938,j,0.8812569000001531,0.167726900006528,1745.3184225000005,1745.3184341000015,None,,,,,,,,,,,,,,,,,00032,001,2026-01-16_10h16.07.864,MST_task,2024.2.0,59.86690389636483,2026-01-16 10h16.14.986166 +0530,
,Scenes\051a.jpg,157,0,158,,,,,,,j,1.0575124000024516,0.14391780000005383,None,,,,,,158,0,157,1745.3347977999947,,,,,,,,,,,,,,,,,,,,,,,,,,,,,,1745.3185327999963,1745.3347977999947,1745.8184500999923,,,,,,,,,,,,,,1745.8356931000017,,,,,,,,,,,,,1745.8316523999965,1745.8356931000017,1745.8356931000017,1745.8356931000017,1748.8186953999975,j,1.0575124000024516,0.14391780000005383,1748.8187376999995,1748.8187488999974,None,1748.8347509000014,1748.8347509000014,1748.8347509000014,,,,,,,,,,,,,,00032,001,2026-01-16_10h16.07.864,MST_task,2024.2.0,59.86690389636483,2026-01-16 10h16.14.986166 +0530,
,Scenes\147a.jpg,158,0,159,,,,,,,j,2.57420540000021,0.15992250000999775,None,,,,,,159,0,158,1748.8347509000014,,,,,,,,,,,,,,,,,,,,,,,,,,,,,,1748.8188456999924,1748.8347509000014,1749.3185236999998,,,,,,,,,,,,,,1749.3352965999948,,,,,,,,,,,,,1749.3318816999963,1749.3352965999948,1749.3352965999948,1749.3352965999948,1752.3187972000014,j,2.57420540000021,0.15992250000999775,1752.3188380999927,1752.3188488000014,None,1752.3347423999949,1752.3347423999949,1752.3347423999949,,,,,,,,,,,,,,00032,001,2026-01-16_10h16.07.864,MST_task,2024.2.0,59.86690389636483,2026-01-16 10h16.14.986166 +0530,
