Sl_no,image_path,thisN,thisTrialN,thisRepN,key_resp_5.keys,key_resp_5.rt,key_resp_5.duration,key_resp_7.keys,key_resp_9.keys,key_resp_9.rt,key_resp_9.duration,key_resp_8.keys,key_resp_8.rt,key_resp_8.duration,practice.thisRepN,practice.thisTrialN,practice.thisN,trials.thisRepN,trials.thisTrialN,trials.thisN,thisRow.t,notes,welcome_page.started,text.started,key_resp.started,welcome_page.stopped,key_resp.keys,key_resp.rt,key_resp.duration,instructions.started,ins.started,key_resp_2.started,instructions.stopped,key_resp_2.keys,key_resp_2.rt,key_resp_2.duration,instructions_2.started,text_10.started,key_resp_10.started,instructions_2.stopped,key_resp_10.keys,key_resp_10.rt,key_resp_10.duration,objects_only_instruction.started,text_3.started,key_resp_3.started,objects_only_instruction.stopped,key_resp_3.keys,key_resp_3.rt,key_resp_3.duration,ISI.started,text_4.started,text_4.stopped,ISI.stopped,practice_block.started,image.started,text_5.started,key_resp_5.started,practice_block.stopped,practice.key_resp_5.keys,practice.key_resp_5.rt,practice.key_resp_5.duration,indoor_outdoor.started,indoor_outdoor.stopped,practice.key_resp_7.keys,image.stopped,text_5.stopped,key_resp_5.stopped,practice_to_main.started,text_2.started,key_resp_4.started,practice_to_main.stopped,key_resp_4.keys,key_resp_4.rt,key_resp_4.duration,objects.started,image_2.started,text_9.started,key_resp_9.started,image_2.stopped,text_9.stopped,key_resp_9.stopped,objects.stopped,trials.key_resp_9.keys,trials.key_resp_9.rt,trials.key_resp_9.duration,encoding_task.started,encoding_task.stopped,trials.key_resp_8.keys,text_8.started,key_resp_8.started,trials.key_resp_8.rt,trials.key_resp_8.duration,end_experiment.started,text_6.started,key_resp_6.started,end_experiment.stopped,key_resp_6.keys,key_resp_6.rt,key_resp_6.duration,list_of_stimuli,encoding_task_accuracy,participant,session,date,expName,psychopyVersion,frameRate,expStart,
,,,,,,,,,,,,,,,,,,,,,,,0.0010881000198423862,0.0024782000109553337,0.0024782000109553337,877.2571128999989,space,877.2445962999773,None,,,,,,,,,,,,,,,,,,,,,,,,,,,,,,,,,,,,,,,,,,,,,,,,,,,,,,,,,,,,,,,,,,,,,,,,,,00038,001,2026-01-16_22h21.40.058,MST_task,2024.2.0,59.953404211907696,2026-01-16 22h21.48.270925 +0530,
,,,,,,,,,,,,,,,,,,,,,,,,,,,,,,877.2571579999931,877.2713692999969,877.2713692999969,888.3052747000183,space,11.023339000006672,None,,,,,,,,,,,,,,,,,,,,,,,,,,,,,,,,,,,,,,,,,,,,,,,,,,,,,,,,,,,,,,,,,,,00038,001,2026-01-16_22h21.40.058,MST_task,2024.2.0,59.953404211907696,2026-01-16 22h21.48.270925 +0530,
,,,,,,,,,,,,,,,,,,,,,,,,,,,,,,,,,,,,,888.3052996000042,888.3215365000069,888.3215365000069,996.8052966000105,space,108.47002489998704,None,,,,,,,,,,,,,,,,,,,,,,,,,,,,,,,,,,,,,,,,,,,,,,,,,,,,,,,,,,,,00038,001,2026-01-16_22h21.40.058,MST_task,2024.2.0,59.953404211907696,2026-01-16 22h21.48.270925 +0530,
,,,,,,,,,,,,,,,,,,,,,,,,,,,,,,,,,,,,,,,,,,,,996.8053265000053,996.8214822000009,996.8214822000009,1008.488629200001,space,11.665577600011602,None,,,,,,,,,,,,,,,,,,,,,,,,,,,,,,,,,,,,,,,,,,,,,,,,,,,,,00038,001,2026-01-16_22h21.40.058,MST_task,2024.2.0,59.953404211907696,2026-01-16 22h21.48.270925 +0530,
2,practice_images/031a.jpg,0,0,1,f,1.912751700001536,0.17602089999127202,None,,,,,,,1,0,0,,,,1008.5049295000208,,,,,,,,,,,,,,,,,,,,,,,,,,,,,,1008.4925574999943,1008.5049295000208,1009.0063412000018,1008.9884538000042,1008.9956734000007,1009.0063412000018,1009.0063412000018,1009.0063412000018,1012.0051424000121,f,1.912751700001536,0.17602089999127202,1012.0068433000124,1012.0068630000169,None,,,,,,,,,,,,,,,,,,,,,,,,,,,,,,,,,,,,,,00038,001,2026-01-16_22h21.40.058,MST_task,2024.2.0,59.953404211907696,2026-01-16 22h21.48.270925 +0530,
6,practice_images/158a.jpg,1,1,1,j,1.5348407000128645,0.15016540000215173,None,,,,,,,1,1,1,,,,1012.0214731000015,,,,,,,,,,,,,,,,,,,,,,,,,,,,,,1012.0069294999994,1012.0214731000015,1012.5217367000005,1012.5052372000064,1012.506745199993,1012.5217367000005,1012.5217367000005,1012.5217367000005,1015.5051859999949,j,1.5348407000128645,0.15016540000215173,1015.5052278999938,1015.5052404000016,None,1015.5214114999981,1015.5214114999981,1015.5214114999981,,,,,,,,,,,,,,,,,,,,,,,,,,,,,,,,,,,00038,001,2026-01-16_22h21.40.058,MST_task,2024.2.0,59.953404211907696,2026-01-16 22h21.48.270925 +0530,
3,practice_images/037a.jpg,2,2,1,f,1.3297635999915656,0.1840055999928154,None,,,,,,,1,2,2,,,,1015.5214114999981,,,,,,,,,,,,,,,,,,,,,,,,,,,,,,1015.5053009999974,1015.5214114999981,1016.0215603999968,1016.0051182000025,1016.0064408000035,1016.0215603999968,1016.0215603999968,1016.0215603999968,1019.0051867000002,f,1.3297635999915656,0.1840055999928154,1019.0052239999932,1019.0052357999957,None,1019.0212887999951,1019.0212887999951,1019.0212887999951,,,,,,,,,,,,,,,,,,,,,,,,,,,,,,,,,,,00038,001,2026-01-16_22h21.40.058,MST_task,2024.2.0,59.953404211907696,2026-01-16 22h21.48.270925 +0530,
1,practice_images/013a.jpg,3,3,1,j,1.8293726000119932,0.16799919999903068,None,,,,,,,1,3,3,,,,1019.0212887999951,,,,,,,,,,,,,,,,,,,,,,,,,,,,,,1019.0056141999958,1019.0212887999951,1019.5214693000016,1019.5050362000184,1019.5065212000045,1019.5214693000016,1019.5214693000016,1019.5214693000016,1022.505247299996,j,1.8293726000119932,0.16799919999903068,1022.5052874000103,1022.5053001000197,None,1022.5213972000056,1022.5213972000056,1022.5213972000056,,,,,,,,,,,,,,,,,,,,,,,,,,,,,,,,,,,00038,001,2026-01-16_22h21.40.058,MST_task,2024.2.0,59.953404211907696,2026-01-16 22h21.48.270925 +0530,
8,practice_images/178a.jpg,4,4,1,j,1.713598300004378,0.1440162000071723,None,,,,,,,1,4,4,,,,1022.5213972000056,,,,,,,,,,,,,,,,,,,,,,,,,,,,,,1022.5053628000023,1022.5213972000056,1023.0215212000185,1023.0050772000104,1023.0066022000101,1023.0215212000185,1023.0215212000185,1023.0215212000185,1026.0051419000083,j,1.713598300004378,0.1440162000071723,1026.0051787999982,1026.0051907000015,None,1026.0214019000123,1026.0214019000123,1026.0214019000123,,,,,,,,,,,,,,,,,,,,,,,,,,,,,,,,,,,00038,001,2026-01-16_22h21.40.058,MST_task,2024.2.0,59.953404211907696,2026-01-16 22h21.48.270925 +0530,
9,practice_images/180a.jpg,5,5,1,j,2.229370500019286,0.1603148999856785,None,,,,,,,1,5,5,,,,1026.0214019000123,,,,,,,,,,,,,,,,,,,,,,,,,,,,,,1026.0052585999947,1026.0214019000123,1026.5215443000197,1026.504971699993,1026.5102018000034,1026.5215443000197,1026.5215443000197,1026.5215443000197,1029.5052292000037,j,2.229370500019286,0.1603148999856785,1029.5078406000102,1029.5078586000018,None,1029.5212870000105,1029.5212870000105,1029.5212870000105,,,,,,,,,,,,,,,,,,,,,,,,,,,,,,,,,,,00038,001,2026-01-16_22h21.40.058,MST_task,2024.2.0,59.953404211907696,2026-01-16 22h21.48.270925 +0530,
4,practice_images/002b.jpg,6,6,1,f,1.6495245000114664,0.15996540000196546,None,,,,,,,1,6,6,,,,1029.5212870000105,,,,,,,,,,,,,,,,,,,,,,,,,,,,,,1029.507923199999,1029.5212870000105,1030.021751799999,1030.005090999999,1030.0067373000202,1030.021751799999,1030.021751799999,1030.021751799999,1033.0053021000058,f,1.6495245000114664,0.15996540000196546,1033.0053413000132,1033.0053539999935,None,1033.0213095000072,1033.0213095000072,1033.0213095000072,,,,,,,,,,,,,,,,,,,,,,,,,,,,,,,,,,,00038,001,2026-01-16_22h21.40.058,MST_task,2024.2.0,59.953404211907696,2026-01-16 22h21.48.270925 +0530,
10,practice_images/182a.jpg,7,7,1,f,1.6298008000012487,0.15943299999344163,None,,,,,,,1,7,7,,,,1033.0213095000072,,,,,,,,,,,,,,,,,,,,,,,,,,,,,,1033.0054157999984,1033.0213095000072,1033.5215880000032,1033.50506700002,1033.5064801000117,1033.5215880000032,1033.5215880000032,1033.5215880000032,1036.505261400016,f,1.6298008000012487,0.15943299999344163,1036.5053002000204,1036.5053117000207,None,1036.5213222000166,1036.5213222000166,1036.5213222000166,,,,,,,,,,,,,,,,,,,,,,,,,,,,,,,,,,,00038,001,2026-01-16_22h21.40.058,MST_task,2024.2.0,59.953404211907696,2026-01-16 22h21.48.270925 +0530,
5,practice_images/139a.jpg,8,8,1,f,1.5452966000011656,0.19989600000553764,None,,,,,,,1,8,8,,,,1036.5213222000166,,,,,,,,,,,,,,,,,,,,,,,,,,,,,,1036.5053748000064,1036.5213222000166,,1037.0054701000045,1037.0068966000108,1037.0215409999946,1037.0215409999946,1037.0215409999946,1040.0051305000088,f,1.5452966000011656,0.19989600000553764,1040.00517020002,1040.0051812000165,None,1040.0212950000132,1040.0212950000132,1040.0212950000132,,,,,,,,,,,,,,,,,,,,,,,,,,,,,,,,,,,00038,001,2026-01-16_22h21.40.058,MST_task,2024.2.0,59.953404211907696,2026-01-16 22h21.48.270925 +0530,
7,practice_images/166a.jpg,9,9,1,f,1.4613112999941222,0.1520038000016939,None,,,,,,,1,9,9,,,,1040.0212950000132,,,,,,,,,,,,,,,,,,,,,,,,,,,,,,1040.005244,1040.0212950000132,1040.5215791999944,1040.5050399000174,1040.5064817999955,1040.5215791999944,1040.5215791999944,1040.5215791999944,1043.505243599997,f,1.4613112999941222,0.1520038000016939,1043.5052828000044,1043.5052949000092,None,1043.5214740000083,1043.5214740000083,1043.5214740000083,,,,,,,,,,,,,,,,,,,,,,,,,,,,,,,,,,,00038,001,2026-01-16_22h21.40.058,MST_task,2024.2.0,59.953404211907696,2026-01-16 22h21.48.270925 +0530,
,,,,,,,,,,,,,,,,,,,,,,,,,,,,,,,,,,,,,,,,,,,,,,,,,,,,,,,,,,,,,,,,,,,,,1043.505337300012,1043.5214740000083,1043.5214740000083,1069.455252100015,space,25.925949700002093,None,,,,,,,,,,,,,,,,,,,,,,,,,,,,00038,001,2026-01-16_22h21.40.058,MST_task,2024.2.0,59.953404211907696,2026-01-16 22h21.48.270925 +0530,
,Scenes\128a.jpg,0,0,1,,,,,j,1.098451700003352,0.1440277999790851,None,,,,,,1,0,0,1069.471290400019,,,,,,,,,,,,,,,,,,,,,,,,,,,,,,1069.4560024999955,1069.471290400019,1069.972552799998,1069.9550326000026,,,,,,,,,,,,,,,,,,,,,,1069.9692888999998,1069.972552799998,1069.972552799998,1069.972552799998,1072.9712682999962,1072.9712682999962,1072.9712682999962,1072.9553546000097,j,1.098451700003352,0.1440277999790851,1072.9570004999987,1072.9570191999956,None,,,,,,,,,,,,,,00038,001,2026-01-16_22h21.40.058,MST_task,2024.2.0,59.953404211907696,2026-01-16 22h21.48.270925 +0530,
,Scenes\081a.jpg,1,0,2,,,,,j,0.8549162999843247,0.14501649999874644,None,,,,,,2,0,1,1072.9712682999962,,,,,,,,,,,,,,,,,,,,,,,,,,,,,,1072.957112700009,1072.9712682999962,1073.4719947999984,1073.4550365000032,,,,,,,,,,,,,,,,,,,,,,1073.4687932000088,1073.4719947999984,1073.4719947999984,1073.4719947999984,1076.4713970000157,1076.4713970000157,1076.4713970000157,1076.4553223999974,j,0.8549162999843247,0.14501649999874644,1076.455366500013,1076.4553778000118,None,,,,,,,,,,,,,,00038,001,2026-01-16_22h21.40.058,MST_task,2024.2.0,59.953404211907696,2026-01-16 22h21.48.270925 +0530,
,Scenes\188a.jpg,2,0,3,,,,,j,1.1633121000195388,0.16002630000002682,None,,,,,,3,0,2,1076.4713970000157,,,,,,,,,,,,,,,,,,,,,,,,,,,,,,1076.4554719000007,1076.4713970000157,1076.971973000007,1076.9550758000114,,,,,,,,,,,,,,,,,,,,,,1076.962303200009,1076.971973000007,1076.971973000007,1076.971973000007,1079.9714359999925,1079.9714359999925,1079.9714359999925,1079.9555312000157,j,1.1633121000195388,0.16002630000002682,1079.955576200009,1079.955587000004,None,,,,,,,,,,,,,,00038,001,2026-01-16_22h21.40.058,MST_task,2024.2.0,59.953404211907696,2026-01-16 22h21.48.270925 +0530,
,Scenes\149a.jpg,3,0,4,,,,,f,1.0869380999938585,0.18431730000884272,None,,,,,,4,0,3,1079.9714359999925,,,,,,,,,,,,,,,,,,,,,,,,,,,,,,1079.9556512999989,1079.9714359999925,1080.4720241000177,1080.45507180001,,,,,,,,,,,,,,,,,,,,,,1080.464340000006,1080.4720241000177,1080.4720241000177,1080.4720241000177,1083.4713046000106,1083.4713046000106,1083.4713046000106,1083.4554814000148,f,1.0869380999938585,0.18431730000884272,1083.455521900003,1083.4555319999927,None,,,,,,,,,,,,,,00038,001,2026-01-16_22h21.40.058,MST_task,2024.2.0,59.953404211907696,2026-01-16 22h21.48.270925 +0530,
,Scenes\107a.jpg,4,0,5,,,,,j,1.4433227000117768,0.16819560001022182,None,,,,,,5,0,4,1083.4713046000106,,,,,,,,,,,,,,,,,,,,,,,,,,,,,,1083.4555940999999,1083.4713046000106,1083.9719666000165,1083.9549709999992,,,,,,,,,,,,,,,,,,,,,,1083.9624633000058,1083.9719666000165,1083.9719666000165,1083.9719666000165,1086.9712980000186,1086.9712980000186,1086.9712980000186,1086.9554003000085,j,1.4433227000117768,0.16819560001022182,1086.9554455000034,1086.9554564999999,None,,,,,,,,,,,,,,00038,001,2026-01-16_22h21.40.058,MST_task,2024.2.0,59.953404211907696,2026-01-16 22h21.48.270925 +0530,
,Scenes\018a.jpg,5,0,6,,,,,f,2.1107053000014275,0.16004670000984333,None,,,,,,6,0,5,1086.9712980000186,,,,,,,,,,,,,,,,,,,,,,,,,,,,,,1086.9555208999955,1086.9712980000186,1087.4729672000103,1087.4550694000209,,,,,,,,,,,,,,,,,,,,,,1087.4706497000006,1087.4729672000103,1087.4729672000103,1087.4729672000103,,,,1090.4715316999936,f,2.1107053000014275,0.16004670000984333,1090.471616099996,1090.471672500018,None,,,,,,,,,,,,,,00038,001,2026-01-16_22h21.40.058,MST_task,2024.2.0,59.953404211907696,2026-01-16 22h21.48.270925 +0530,
,Scenes\047a.jpg,6,0,7,,,,,j,0.8904490999993868,0.1602431999926921,None,,,,,,7,0,6,1090.488293900009,,,,,,,,,,,,,,,,,,,,,,,,,,,,,,1090.4717597000126,1090.488293900009,1090.9887412000098,1090.9716459000192,,,,,,,,,,,,,,,,,,,,,,1090.9813181000063,1090.9887412000098,1090.9887412000098,1090.9887412000098,1093.9880862999998,1093.9880862999998,1093.9880862999998,1093.9719253999938,j,0.8904490999993868,0.1602431999926921,1093.9719683000003,1093.9719790999952,None,,,,,,,,,,,,,,00038,001,2026-01-16_22h21.40.058,MST_task,2024.2.0,59.953404211907696,2026-01-16 22h21.48.270925 +0530,
,Objects\077a.jpg,7,0,8,,,,,j,1.070872699987376,0.19228190000285394,None,,,,,,8,0,7,1093.9880862999998,,,,,,,,,,,,,,,,,,,,,,,,,,,,,,1093.9720710999973,1093.9880862999998,1094.488506900001,1094.4718635000172,,,,,,,,,,,,,,,,,,,,,,1094.4786937000172,1094.488506900001,1094.488506900001,1094.488506900001,1097.4881509999977,1097.4881509999977,1097.4881509999977,1097.4721456000116,j,1.070872699987376,0.19228190000285394,1097.4749931000115,1097.4750100999954,None,,,,,,,,,,,,,,00038,001,2026-01-16_22h21.40.058,MST_task,2024.2.0,59.953404211907696,2026-01-16 22h21.48.270925 +0530,
,Objects\134a.jpg,8,0,9,,,,,f,1.3472755000111647,0.15915320001658984,None,,,,,,9,0,8,1097.4881509999977,,,,,,,,,,,,,,,,,,,,,,,,,,,,,,1097.4751322999946,1097.4881509999977,1097.988318400021,1097.9715741999971,,,,,,,,,,,,,,,,,,,,,,1097.9808006999956,1097.988318400021,1097.988318400021,1097.988318400021,1100.9881456000148,1100.9881456000148,1100.9881456000148,1100.9718587000098,f,1.3472755000111647,0.15915320001658984,1100.9719014000148,1100.9719123000104,None,,,,,,,,,,,,,,00038,001,2026-01-16_22h21.40.058,MST_task,2024.2.0,59.953404211907696,2026-01-16 22h21.48.270925 +0530,
,Objects\142a.jpg,9,0,10,,,,,f,0.7030622999882326,0.1439877999946475,None,,,,,,10,0,9,1100.9881456000148,,,,,,,,,,,,,,,,,,,,,,,,,,,,,,1100.972004900017,1100.9881456000148,1101.4884164000105,1101.471647600003,,,,,,,,,,,,,,,,,,,,,,1101.4744069000008,1101.4884164000105,1101.4884164000105,1101.4884164000105,1104.4881947000104,1104.4881947000104,1104.4881947000104,1104.472125100001,f,0.7030622999882326,0.1439877999946475,1104.4721671000007,1104.472177699994,None,,,,,,,,,,,,,,00038,001,2026-01-16_22h21.40.058,MST_task,2024.2.0,59.953404211907696,2026-01-16 22h21.48.270925 +0530,
,Objects\124a.jpg,10,0,11,,,,,f,1.5945713999972213,0.1279977000085637,None,,,,,,11,0,10,1104.4881947000104,,,,,,,,,,,,,,,,,,,,,,,,,,,,,,1104.472272700019,1104.4881947000104,1104.9884180999943,1104.9718525999924,,,,,,,,,,,,,,,,,,,,,,1104.9745512999943,1104.9884180999943,1104.9884180999943,1104.9884180999943,1107.9883974000113,1107.9883974000113,1107.9883974000113,1107.9723329000117,f,1.5945713999972213,0.1279977000085637,1107.9723839999933,1107.9723954999936,None,,,,,,,,,,,,,,00038,001,2026-01-16_22h21.40.058,MST_task,2024.2.0,59.953404211907696,2026-01-16 22h21.48.270925 +0530,
,Objects\071a.jpg,11,0,12,,,,,f,0.9182431999943219,0.1840933000203222,None,,,,,,12,0,11,1107.9883974000113,,,,,,,,,,,,,,,,,,,,,,,,,,,,,,1107.9725061000208,1107.9883974000113,1108.488504900015,1108.4717739000043,,,,,,,,,,,,,,,,,,,,,,1108.4743482000194,1108.488504900015,1108.488504900015,1108.488504900015,1111.4882262000174,1111.4882262000174,1111.4882262000174,1111.4720652000105,f,0.9182431999943219,0.1840933000203222,1111.4721145000076,1111.4721258000063,None,,,,,,,,,,,,,,00038,001,2026-01-16_22h21.40.058,MST_task,2024.2.0,59.953404211907696,2026-01-16 22h21.48.270925 +0530,
,Objects\184a.jpg,12,0,13,,,,,None,,,j,11.4025911000208,None,,,,13,0,12,1111.4882262000174,,,,,,,,,,,,,,,,,,,,,,,,,,,,,,1111.4722197999945,1111.4882262000174,1111.9884225999995,1111.9719289000204,,,,,,,,,,,,,,,,,,,,,,1111.974515800015,1111.9884225999995,1111.9884225999995,1111.9884225999995,1114.9882346999948,1114.9882346999948,1114.9882346999948,1114.9721747000003,None,,,1114.972211300017,1126.4053255000035,j,1114.9882346999948,1114.9882346999948,11.4025911000208,None,,,,,,,,,,00038,001,2026-01-16_22h21.40.058,MST_task,2024.2.0,59.953404211907696,2026-01-16 22h21.48.270925 +0530,
,Objects\080a.jpg,13,0,14,,,,,f,1.853035500011174,0.17710139998234808,None,,,,,,14,0,13,1126.4215729999996,,,,,,,,,,,,,,,,,,,,,,,,,,,,,,1126.4054464999936,1126.4215729999996,1126.9217935000197,1126.9051200000104,,,,,,,,,,,,,,,,,,,,,,1126.9087346000015,1126.9217935000197,1126.9217935000197,1126.9217935000197,1129.9214254000108,1129.9214254000108,1129.9214254000108,1129.9054203999985,f,1.853035500011174,0.17710139998234808,1129.905463300005,1129.9054744000023,None,,,,,,,,,,,,,,00038,001,2026-01-16_22h21.40.058,MST_task,2024.2.0,59.953404211907696,2026-01-16 22h21.48.270925 +0530,
,Scenes\189a.jpg,14,0,15,,,,,j,1.1526580000063404,0.15199159999610856,None,,,,,,15,0,14,1129.9214254000108,,,,,,,,,,,,,,,,,,,,,,,,,,,,,,1129.9055366000102,1129.9214254000108,1130.4221154999977,1130.4052012000175,,,,,,,,,,,,,,,,,,,,,,1130.417418500001,1130.4221154999977,1130.4221154999977,1130.4221154999977,1133.4214704000042,1133.4214704000042,1133.4214704000042,1133.405490300007,j,1.1526580000063404,0.15199159999610856,1133.4070787999954,1133.4070952000038,None,,,,,,,,,,,,,,00038,001,2026-01-16_22h21.40.058,MST_task,2024.2.0,59.953404211907696,2026-01-16 22h21.48.270925 +0530,
,Scenes\111a.jpg,15,0,16,,,,,j,2.581483499991009,0.1440034000261221,None,,,,,,16,0,15,1133.4214704000042,,,,,,,,,,,,,,,,,,,,,,,,,,,,,,1133.407161900017,1133.4214704000042,1133.9221435000072,1133.9051503000082,,,,,,,,,,,,,,,,,,,,,,1133.912411199999,1133.9221435000072,1133.9221435000072,1133.9221435000072,1136.9214274999977,1136.9214274999977,1136.9214274999977,1136.9055074000207,j,2.581483499991009,0.1440034000261221,1136.9055535999942,1136.9055649999937,None,,,,,,,,,,,,,,00038,001,2026-01-16_22h21.40.058,MST_task,2024.2.0,59.953404211907696,2026-01-16 22h21.48.270925 +0530,
,Scenes\051a.jpg,16,0,17,,,,,j,1.536768000019947,0.14440719998674467,None,,,,,,17,0,16,1136.9214274999977,,,,,,,,,,,,,,,,,,,,,,,,,,,,,,1136.9056322000106,1136.9214274999977,1137.4221799999941,1137.4052034000051,,,,,,,,,,,,,,,,,,,,,,1137.4190851000021,1137.4221799999941,1137.4221799999941,1137.4221799999941,1140.4215855000075,1140.4215855000075,1140.4215855000075,1140.4054262000136,j,1.536768000019947,0.14440719998674467,1140.405470400001,1140.4054813999974,None,,,,,,,,,,,,,,00038,001,2026-01-16_22h21.40.058,MST_task,2024.2.0,59.953404211907696,2026-01-16 22h21.48.270925 +0530,
,Scenes\113a.jpg,17,0,18,,,,,j,1.4048105000110809,0.15264200000092387,None,,,,,,18,0,17,1140.4215855000075,,,,,,,,,,,,,,,,,,,,,,,,,,,,,,1140.4055762000207,1140.4215855000075,1140.922144400014,1140.905243300018,,,,,,,,,,,,,,,,,,,,,,1140.9093365000153,1140.922144400014,1140.922144400014,1140.922144400014,1143.9215191999974,1143.9215191999974,1143.9215191999974,1143.9055486000143,j,1.4048105000110809,0.15264200000092387,1143.9055922999978,1143.9056032999943,None,,,,,,,,,,,,,,00038,001,2026-01-16_22h21.40.058,MST_task,2024.2.0,59.953404211907696,2026-01-16 22h21.48.270925 +0530,
,Scenes\116a.jpg,18,0,19,,,,,j,1.3526628999970853,0.153193599981023,None,,,,,,19,0,18,1143.9215191999974,,,,,,,,,,,,,,,,,,,,,,,,,,,,,,1143.905697500013,1143.9215191999974,1144.4221347999992,1144.4051387000072,,,,,,,,,,,,,,,,,,,,,,1144.4117790000164,1144.4221347999992,1144.4221347999992,1144.4221347999992,1147.4213346000179,1147.4213346000179,1147.4213346000179,1147.40542190001,j,1.3526628999970853,0.153193599981023,1147.405465799995,1147.4054767000198,None,,,,,,,,,,,,,,00038,001,2026-01-16_22h21.40.058,MST_task,2024.2.0,59.953404211907696,2026-01-16 22h21.48.270925 +0530,
,Scenes\045a.jpg,19,0,20,,,,,f,2.6534014999924693,0.16783459999714978,None,,,,,,20,0,19,1147.4213346000179,,,,,,,,,,,,,,,,,,,,,,,,,,,,,,1147.4055792000145,1147.4213346000179,1147.9223242000153,1147.9050874999957,,,,,,,,,,,,,,,,,,,,,,1147.916109600017,1147.9223242000153,1147.9223242000153,1147.9223242000153,1150.9216216000204,1150.9216216000204,1150.9216216000204,1150.9057608000003,f,2.6534014999924693,0.16783459999714978,1150.9058146000025,1150.905826000002,None,,,,,,,,,,,,,,00038,001,2026-01-16_22h21.40.058,MST_task,2024.2.0,59.953404211907696,2026-01-16 22h21.48.270925 +0530,
,Scenes\009a.jpg,20,0,21,,,,,f,1.4006358000042383,0.14423229999374598,None,,,,,,21,0,20,1150.9216216000204,,,,,,,,,,,,,,,,,,,,,,,,,,,,,,1150.9058906999999,1150.9216216000204,1151.4222735000076,1151.4051544000104,,,,,,,,,,,,,,,,,,,,,,1151.4159474000044,1151.4222735000076,1151.4222735000076,1151.4222735000076,1154.421482100006,1154.421482100006,1154.421482100006,1154.4055208000063,f,1.4006358000042383,0.14423229999374598,1154.4055639000144,1154.405574400007,None,,,,,,,,,,,,,,00038,001,2026-01-16_22h21.40.058,MST_task,2024.2.0,59.953404211907696,2026-01-16 22h21.48.270925 +0530,
,Objects\060a.jpg,21,0,22,,,,,f,2.100729500001762,0.20000879999133758,None,,,,,,22,0,21,1154.421482100006,,,,,,,,,,,,,,,,,,,,,,,,,,,,,,1154.4056397000095,1154.421482100006,1154.9221166000061,1154.9051869999967,,,,,,,,,,,,,,,,,,,,,,1154.9170980000054,1154.9221166000061,1154.9221166000061,1154.9221166000061,1157.9216999000055,1157.9216999000055,1157.9216999000055,1157.9055129000044,f,2.100729500001762,0.20000879999133758,1157.907534900005,1157.9075516000157,None,,,,,,,,,,,,,,00038,001,2026-01-16_22h21.40.058,MST_task,2024.2.0,59.953404211907696,2026-01-16 22h21.48.270925 +0530,
,Objects\169a.jpg,22,0,23,,,,,f,2.592996099992888,0.17694259999552742,None,,,,,,23,0,22,1157.9216999000055,,,,,,,,,,,,,,,,,,,,,,,,,,,,,,1157.9076200000127,1157.9216999000055,1158.4217334999994,1158.4051563999965,,,,,,,,,,,,,,,,,,,,,,1158.4076278000139,1158.4217334999994,1158.4217334999994,1158.4217334999994,1161.4215736000042,1161.4215736000042,1161.4215736000042,1161.4054398000007,f,2.592996099992888,0.17694259999552742,1161.4054843000195,1161.4054952000151,None,,,,,,,,,,,,,,00038,001,2026-01-16_22h21.40.058,MST_task,2024.2.0,59.953404211907696,2026-01-16 22h21.48.270925 +0530,
,Objects\136a.jpg,23,0,24,,,,,f,1.2771671999944374,0.1929283000063151,None,,,,,,24,0,23,1161.4215736000042,,,,,,,,,,,,,,,,,,,,,,,,,,,,,,1161.405572400021,1161.4215736000042,1161.9216407000204,1161.9050911999948,,,,,,,,,,,,,,,,,,,,,,1161.907873899996,1161.9216407000204,1161.9216407000204,1161.9216407000204,1164.9213641000097,1164.9213641000097,1164.9213641000097,1164.9054514000018,f,1.2771671999944374,0.1929283000063151,1164.9054950000136,1164.9055054000055,None,,,,,,,,,,,,,,00038,001,2026-01-16_22h21.40.058,MST_task,2024.2.0,59.953404211907696,2026-01-16 22h21.48.270925 +0530,
,Objects\070a.jpg,24,0,25,,,,,f,1.5454736000101548,0.20000149999395944,None,,,,,,25,0,24,1164.9213641000097,,,,,,,,,,,,,,,,,,,,,,,,,,,,,,1164.9055987000174,1164.9213641000097,1165.4216662000108,1165.4050988999952,,,,,,,,,,,,,,,,,,,,,,1165.4143393000122,1165.4216662000108,1165.4216662000108,1165.4216662000108,1168.421383000008,1168.421383000008,1168.421383000008,1168.4056239000056,f,1.5454736000101548,0.20000149999395944,1168.4056770000025,1168.405688800005,None,,,,,,,,,,,,,,00038,001,2026-01-16_22h21.40.058,MST_task,2024.2.0,59.953404211907696,2026-01-16 22h21.48.270925 +0530,
,Objects\032a.jpg,25,0,26,,,,,j,1.270026299986057,0.1429270000080578,None,,,,,,26,0,25,1168.421383000008,,,,,,,,,,,,,,,,,,,,,,,,,,,,,,1168.4057595000195,1168.421383000008,1168.9219647000136,1168.905202199996,,,,,,,,,,,,,,,,,,,,,,1168.9079690999934,1168.9219647000136,1168.9219647000136,1168.9219647000136,1171.9213228000153,1171.9213228000153,1171.9213228000153,1171.905426500016,j,1.270026299986057,0.1429270000080578,1171.9054690000194,1171.9054794000112,None,,,,,,,,,,,,,,00038,001,2026-01-16_22h21.40.058,MST_task,2024.2.0,59.953404211907696,2026-01-16 22h21.48.270925 +0530,
,Objects\183a.jpg,26,0,27,,,,,j,1.2259330000088084,0.14357909999671392,None,,,,,,27,0,26,1171.9213228000153,,,,,,,,,,,,,,,,,,,,,,,,,,,,,,1171.9055742000055,1171.9213228000153,1172.421522300021,1172.4050870999927,,,,,,,,,,,,,,,,,,,,,,1172.4077519999992,1172.421522300021,1172.421522300021,1172.421522300021,1175.4214221000148,1175.4214221000148,1175.4214221000148,1175.4054075000167,j,1.2259330000088084,0.14357909999671392,1175.4054493000149,1175.4054601000098,None,,,,,,,,,,,,,,00038,001,2026-01-16_22h21.40.058,MST_task,2024.2.0,59.953404211907696,2026-01-16 22h21.48.270925 +0530,
,Objects\098a.jpg,27,0,28,,,,,f,1.2301264999841806,0.1833215999940876,None,,,,,,28,0,27,1175.4214221000148,,,,,,,,,,,,,,,,,,,,,,,,,,,,,,1175.4055535999942,1175.4214221000148,1175.9214977000083,1175.905099399999,,,,,,,,,,,,,,,,,,,,,,1175.9076417000033,1175.9214977000083,1175.9214977000083,1175.9214977000083,1178.9213485000073,1178.9213485000073,1178.9213485000073,1178.9054288000043,f,1.2301264999841806,0.1833215999940876,1178.9054709000047,1178.9054819000012,None,,,,,,,,,,,,,,00038,001,2026-01-16_22h21.40.058,MST_task,2024.2.0,59.953404211907696,2026-01-16 22h21.48.270925 +0530,
,Scenes\040a.jpg,28,0,29,,,,,f,2.961468599998625,None,None,,,,,,29,0,28,1178.9213485000073,,,,,,,,,,,,,,,,,,,,,,,,,,,,,,1178.9055754000146,1178.9213485000073,1179.422171000013,1179.4050875999965,,,,,,,,,,,,,,,,,,,,,,1179.417306999996,1179.422171000013,1179.422171000013,1179.422171000013,1182.421431900002,1182.421431900002,1182.421431900002,1182.4054469999974,f,2.961468599998625,None,1182.4070362000202,1182.4070532000042,None,,,,,,,,,,,,,,00038,001,2026-01-16_22h21.40.058,MST_task,2024.2.0,59.953404211907696,2026-01-16 22h21.48.270925 +0530,
,Scenes\110a.jpg,29,0,30,,,,,j,1.1493387999944389,0.1759572000009939,None,,,,,,30,0,29,1182.421431900002,,,,,,,,,,,,,,,,,,,,,,,,,,,,,,1182.407160200004,1182.421431900002,1182.9219404000032,1182.90507790001,,,,,,,,,,,,,,,,,,,,,,1182.913568399992,1182.9219404000032,1182.9219404000032,1182.9219404000032,1185.9213675000065,1185.9213675000065,1185.9213675000065,1185.9054290000058,j,1.1493387999944389,0.1759572000009939,1185.905470400001,1185.9054807999928,None,,,,,,,,,,,,,,00038,001,2026-01-16_22h21.40.058,MST_task,2024.2.0,59.953404211907696,2026-01-16 22h21.48.270925 +0530,
,Scenes\181a.jpg,30,0,31,,,,,f,1.7511572999937925,0.16002720000687987,None,,,,,,31,0,30,1185.9213675000065,,,,,,,,,,,,,,,,,,,,,,,,,,,,,,1185.9055770999985,1185.9213675000065,1186.4238878000178,1186.4052093999926,,,,,,,,,,,,,,,,,,,,,,1186.421321700007,1186.4238878000178,1186.4238878000178,1186.4238878000178,,,,1189.421625100018,f,1.7511572999937925,0.16002720000687987,1189.4216709000175,1189.4216835999978,None,,,,,,,,,,,,,,00038,001,2026-01-16_22h21.40.058,MST_task,2024.2.0,59.953404211907696,2026-01-16 22h21.48.270925 +0530,
,Scenes\126a.jpg,31,0,32,,,,,j,1.228498500015121,0.1360043000022415,None,,,,,,32,0,31,1189.43812050001,,,,,,,,,,,,,,,,,,,,,,,,,,,,,,1189.4217513000185,1189.43812050001,1189.9388207000156,1189.9215721999935,,,,,,,,,,,,,,,,,,,,,,1189.9290088000125,1189.9388207000156,1189.9388207000156,1189.9388207000156,1192.9381548000092,1192.9381548000092,1192.9381548000092,1192.9219825000037,j,1.228498500015121,0.1360043000022415,1192.9220257000125,1192.922036200005,None,,,,,,,,,,,,,,00038,001,2026-01-16_22h21.40.058,MST_task,2024.2.0,59.953404211907696,2026-01-16 22h21.48.270925 +0530,
,Scenes\043a.jpg,32,0,33,,,,,j,1.490562899998622,0.18398319999687374,None,,,,,,33,0,32,1192.9381548000092,,,,,,,,,,,,,,,,,,,,,,,,,,,,,,1192.9221304999955,1192.9381548000092,1193.4442903000163,1193.421603099996,,,,,,,,,,,,,,,,,,,,,,1193.4417471000052,1193.4442903000163,1193.4442903000163,1193.4442903000163,,,,1196.4383825999976,j,1.490562899998622,0.18398319999687374,1196.4384247999988,1196.4384360999975,None,,,,,,,,,,,,,,00038,001,2026-01-16_22h21.40.058,MST_task,2024.2.0,59.953404211907696,2026-01-16 22h21.48.270925 +0530,
,Scenes\131a.jpg,33,0,34,,,,,j,1.1797793000005186,0.18402799998875707,None,,,,,,34,0,33,1196.4548437000194,,,,,,,,,,,,,,,,,,,,,,,,,,,,,,1196.4385330000077,1196.4548437000194,1196.955406699999,1196.9385612000187,,,,,,,,,,,,,,,,,,,,,,1196.946804600011,1196.955406699999,1196.955406699999,1196.955406699999,1199.954824800021,1199.954824800021,1199.954824800021,1199.9389106000017,j,1.1797793000005186,0.18402799998875707,1199.9389571000065,1199.9389675999992,None,,,,,,,,,,,,,,00038,001,2026-01-16_22h21.40.058,MST_task,2024.2.0,59.953404211907696,2026-01-16 22h21.48.270925 +0530,
,Scenes\093a.jpg,34,0,35,,,,,f,0.9020884000055958,0.1850595999858342,None,,,,,,35,0,34,1199.954824800021,,,,,,,,,,,,,,,,,,,,,,,,,,,,,,1199.9390346000146,1199.954824800021,1200.4569487000117,1200.4384056999988,,,,,,,,,,,,,,,,,,,,,,1200.4545445000113,1200.4569487000117,1200.4569487000117,1200.4569487000117,,,,1203.455179200013,f,0.9020884000055958,0.1850595999858342,1203.4552278000046,1203.4552400000102,None,,,,,,,,,,,,,,00038,001,2026-01-16_22h21.40.058,MST_task,2024.2.0,59.953404211907696,2026-01-16 22h21.48.270925 +0530,
,Objects\150a.jpg,35,0,36,,,,,j,1.499341299990192,0.15949090002686717,None,,,,,,36,0,35,1203.471391900006,,,,,,,,,,,,,,,,,,,,,,,,,,,,,,1203.4553414999973,1203.471391900006,1203.9719627000159,1203.9550690000178,,,,,,,,,,,,,,,,,,,,,,1203.9603659000131,1203.9719627000159,1203.9719627000159,1203.9719627000159,1206.971416800021,1206.971416800021,1206.971416800021,1206.955630100012,j,1.499341299990192,0.15949090002686717,1206.957788700005,1206.9578067999973,None,,,,,,,,,,,,,,00038,001,2026-01-16_22h21.40.058,MST_task,2024.2.0,59.953404211907696,2026-01-16 22h21.48.270925 +0530,
,Objects\180a.jpg,36,0,37,,,,,f,0.8872778000077233,0.18400119998841546,None,,,,,,37,0,36,1206.971416800021,,,,,,,,,,,,,,,,,,,,,,,,,,,,,,1206.9578776000126,1206.971416800021,1207.4715978000022,1207.4552902000141,,,,,,,,,,,,,,,,,,,,,,1207.458258300001,1207.4715978000022,1207.4715978000022,1207.4715978000022,1210.471277500008,1210.471277500008,1210.471277500008,1210.4553454999987,f,0.8872778000077233,0.18400119998841546,1210.4553914999997,1210.4554024999961,None,,,,,,,,,,,,,,00038,001,2026-01-16_22h21.40.058,MST_task,2024.2.0,59.953404211907696,2026-01-16 22h21.48.270925 +0530,
,Objects\110a.jpg,37,0,38,,,,,f,0.9717543000006117,0.1521336000005249,None,,,,,,38,0,37,1210.471277500008,,,,,,,,,,,,,,,,,,,,,,,,,,,,,,1210.4554681000009,1210.471277500008,1210.9716644000146,1210.955061799992,,,,,,,,,,,,,,,,,,,,,,1210.9576013000042,1210.9716644000146,1210.9716644000146,1210.9716644000146,1213.9714465000143,1213.9714465000143,1213.9714465000143,1213.9554748999944,f,0.9717543000006117,0.1521336000005249,1213.9555208999955,1213.955532299995,None,,,,,,,,,,,,,,00038,001,2026-01-16_22h21.40.058,MST_task,2024.2.0,59.953404211907696,2026-01-16 22h21.48.270925 +0530,
,Objects\002a.jpg,38,0,39,,,,,f,0.5843090000271332,0.15900839999085292,None,,,,,,39,0,38,1213.9714465000143,,,,,,,,,,,,,,,,,,,,,,,,,,,,,,1213.9555972999951,1213.9714465000143,1214.471648900013,1214.4550806000188,,,,,,,,,,,,,,,,,,,,,,1214.4576770999993,1214.471648900013,1214.471648900013,1214.471648900013,1217.471333900001,1217.471333900001,1217.471333900001,1217.4553522000206,f,0.5843090000271332,0.15900839999085292,1217.4553958000033,1217.455407100002,None,,,,,,,,,,,,,,00038,001,2026-01-16_22h21.40.058,MST_task,2024.2.0,59.953404211907696,2026-01-16 22h21.48.270925 +0530,
,Objects\106a.jpg,39,0,40,,,,,f,2.4836427999834996,0.1200888000021223,None,,,,,,40,0,39,1217.471333900001,,,,,,,,,,,,,,,,,,,,,,,,,,,,,,1217.4555134999973,1217.471333900001,1217.9716756000125,1217.9550757000106,,,,,,,,,,,,,,,,,,,,,,1217.964158799994,1217.9716756000125,1217.9716756000125,1217.9716756000125,1220.9714297000028,1220.9714297000028,1220.9714297000028,1220.9554745999922,f,2.4836427999834996,0.1200888000021223,1220.9555167999933,1220.9555276000174,None,,,,,,,,,,,,,,00038,001,2026-01-16_22h21.40.058,MST_task,2024.2.0,59.953404211907696,2026-01-16 22h21.48.270925 +0530,
,Objects\022a.jpg,40,0,41,,,,,f,1.3686696999939159,0.22286149999126792,None,,,,,,41,0,40,1220.9714297000028,,,,,,,,,,,,,,,,,,,,,,,,,,,,,,1220.9556319999974,1220.9714297000028,1221.471602000005,1221.4550017000001,,,,,,,,,,,,,,,,,,,,,,1221.4638688999985,1221.471602000005,1221.471602000005,1221.471602000005,1224.471492600016,1224.471492600016,1224.471492600016,1224.4555283999944,f,1.3686696999939159,0.22286149999126792,1224.4555704999948,1224.455581200018,None,,,,,,,,,,,,,,00038,001,2026-01-16_22h21.40.058,MST_task,2024.2.0,59.953404211907696,2026-01-16 22h21.48.270925 +0530,
,Objects\145a.jpg,41,0,42,,,,,f,1.5556375999876764,0.15143670001998544,None,,,,,,42,0,41,1224.471492600016,,,,,,,,,,,,,,,,,,,,,,,,,,,,,,1224.455647099996,1224.471492600016,1224.9717818000063,1224.955228900013,,,,,,,,,,,,,,,,,,,,,,1224.9578420000034,1224.9717818000063,1224.9717818000063,1224.9717818000063,1227.9713833999995,1227.9713833999995,1227.9713833999995,1227.955605199997,f,1.5556375999876764,0.15143670001998544,1227.955657100014,1227.9556685000134,None,,,,,,,,,,,,,,00038,001,2026-01-16_22h21.40.058,MST_task,2024.2.0,59.953404211907696,2026-01-16 22h21.48.270925 +0530,
,Scenes\125a.jpg,42,0,43,,,,,j,0.7070419000228867,0.17600340000353754,None,,,,,,43,0,42,1227.9713833999995,,,,,,,,,,,,,,,,,,,,,,,,,,,,,,1227.9557753000117,1227.9713833999995,1228.4762884000083,1228.4551401000062,,,,,,,,,,,,,,,,,,,,,,1228.4738111000042,1228.4762884000083,1228.4762884000083,1228.4762884000083,,,,1231.4718639000203,j,0.7070419000228867,0.17600340000353754,1231.4734865000064,1231.4735043999972,None,,,,,,,,,,,,,,00038,001,2026-01-16_22h21.40.058,MST_task,2024.2.0,59.953404211907696,2026-01-16 22h21.48.270925 +0530,
,Scenes\159a.jpg,43,0,44,,,,,j,1.1949127000116277,0.15095589999691583,None,,,,,,44,0,43,1231.4883532999957,,,,,,,,,,,,,,,,,,,,,,,,,,,,,,1231.4736055000103,1231.4883532999957,1231.988952500018,1231.97185240002,,,,,,,,,,,,,,,,,,,,,,1231.9832873000123,1231.988952500018,1231.988952500018,1231.988952500018,1234.9882938000083,1234.9882938000083,1234.9882938000083,1234.9720465000137,j,1.1949127000116277,0.15095589999691583,1234.9720906000002,1234.9721012999944,None,,,,,,,,,,,,,,00038,001,2026-01-16_22h21.40.058,MST_task,2024.2.0,59.953404211907696,2026-01-16 22h21.48.270925 +0530,
,Scenes\145a.jpg,44,0,45,,,,,j,0.8945090000052005,0.16798969998490065,None,,,,,,45,0,44,1234.9882938000083,,,,,,,,,,,,,,,,,,,,,,,,,,,,,,1234.9721949000086,1234.9882938000083,1235.4889262999932,1235.471850700007,,,,,,,,,,,,,,,,,,,,,,1235.481708300009,1235.4889262999932,1235.4889262999932,1235.4889262999932,1238.488290600013,1238.488290600013,1238.488290600013,1238.4721415000095,j,0.8945090000052005,0.16798969998490065,1238.4721852999937,1238.4721955000132,None,,,,,,,,,,,,,,00038,001,2026-01-16_22h21.40.058,MST_task,2024.2.0,59.953404211907696,2026-01-16 22h21.48.270925 +0530,
,Scenes\177a.jpg,45,0,46,,,,,j,1.3298855999892112,0.1679364000156056,None,,,,,,46,0,45,1238.488290600013,,,,,,,,,,,,,,,,,,,,,,,,,,,,,,1238.4722886999953,1238.488290600013,1238.9889108000207,1238.9717692999984,,,,,,,,,,,,,,,,,,,,,,1238.9792208000144,1238.9889108000207,1238.9889108000207,1238.9889108000207,1241.9883040999994,1241.9883040999994,1241.9883040999994,1241.9721509999945,j,1.3298855999892112,0.1679364000156056,1241.9721968999947,1241.9722082999942,None,,,,,,,,,,,,,,00038,001,2026-01-16_22h21.40.058,MST_task,2024.2.0,59.953404211907696,2026-01-16 22h21.48.270925 +0530,
,Scenes\020a.jpg,46,0,47,,,,,f,1.190188600012334,0.20756799998343922,None,,,,,,47,0,46,1241.9883040999994,,,,,,,,,,,,,,,,,,,,,,,,,,,,,,1241.9722762000165,1241.9883040999994,1242.4890331999923,1242.4718495999987,,,,,,,,,,,,,,,,,,,,,,1242.4834959,1242.4890331999923,1242.4890331999923,1242.4890331999923,1245.488291799993,1245.488291799993,1245.488291799993,1245.4720181000012,f,1.190188600012334,0.20756799998343922,1245.4720611000084,1245.472071600001,None,,,,,,,,,,,,,,00038,001,2026-01-16_22h21.40.058,MST_task,2024.2.0,59.953404211907696,2026-01-16 22h21.48.270925 +0530,
,Scenes\013a.jpg,47,0,48,,,,,j,1.4428019000042696,0.18305930000497028,None,,,,,,48,0,47,1245.488291799993,,,,,,,,,,,,,,,,,,,,,,,,,,,,,,1245.4721661999938,1245.488291799993,1245.9889779000077,1245.9717816000048,,,,,,,,,,,,,,,,,,,,,,1245.9816135000146,1245.9889779000077,1245.9889779000077,1245.9889779000077,1248.9882793000143,1248.9882793000143,1248.9882793000143,1248.9721321999968,j,1.4428019000042696,0.18305930000497028,1248.9721850999922,1248.972196000017,None,,,,,,,,,,,,,,00038,001,2026-01-16_22h21.40.058,MST_task,2024.2.0,59.953404211907696,2026-01-16 22h21.48.270925 +0530,
,Scenes\172a.jpg,48,0,49,,,,,j,1.4307228999969084,0.2072760000010021,None,,,,,,49,0,48,1248.9882793000143,,,,,,,,,,,,,,,,,,,,,,,,,,,,,,1248.9722908000113,1248.9882793000143,1249.4889218000171,1249.471746299998,,,,,,,,,,,,,,,,,,,,,,1249.4783320999995,1249.4889218000171,1249.4889218000171,1249.4889218000171,1252.488245800021,1252.488245800021,1252.488245800021,1252.472136299999,j,1.4307228999969084,0.2072760000010021,1252.4721796000085,1252.4721905000042,None,,,,,,,,,,,,,,00038,001,2026-01-16_22h21.40.058,MST_task,2024.2.0,59.953404211907696,2026-01-16 22h21.48.270925 +0530,
,Objects\131a.jpg,49,0,50,,,,,f,0.674415500019677,0.19307919999118894,None,,,,,,50,0,49,1252.488245800021,,,,,,,,,,,,,,,,,,,,,,,,,,,,,,1252.472253999993,1252.488245800021,1252.988725800009,1252.9717515000084,,,,,,,,,,,,,,,,,,,,,,1252.977037900011,1252.988725800009,1252.988725800009,1252.988725800009,1255.9882855000033,1255.9882855000033,1255.9882855000033,1255.9720525000012,f,0.674415500019677,0.19307919999118894,1255.9740841000166,1255.974100499996,None,,,,,,,,,,,,,,00038,001,2026-01-16_22h21.40.058,MST_task,2024.2.0,59.953404211907696,2026-01-16 22h21.48.270925 +0530,
,Objects\147a.jpg,50,0,51,,,,,f,1.3743741000071168,0.18439999999827705,None,,,,,,51,0,50,1255.9882855000033,,,,,,,,,,,,,,,,,,,,,,,,,,,,,,1255.9741687000205,1255.9882855000033,1256.4885697000136,1256.4718784000142,,,,,,,,,,,,,,,,,,,,,,1256.4747092000034,1256.4885697000136,1256.4885697000136,1256.4885697000136,1259.488281500002,1259.488281500002,1259.488281500002,1259.4722518000053,f,1.3743741000071168,0.18439999999827705,1259.4722948000126,1259.472305400006,None,,,,,,,,,,,,,,00038,001,2026-01-16_22h21.40.058,MST_task,2024.2.0,59.953404211907696,2026-01-16 22h21.48.270925 +0530,
,Objects\099a.jpg,51,0,52,,,,,j,1.9146558000065852,0.1679271000029985,None,,,,,,52,0,51,1259.488281500002,,,,,,,,,,,,,,,,,,,,,,,,,,,,,,1259.4723700000031,1259.488281500002,1259.9885142999992,1259.9716293000092,,,,,,,,,,,,,,,,,,,,,,1259.9835040000034,1259.9885142999992,1259.9885142999992,1259.9885142999992,1262.9882368000108,1262.9882368000108,1262.9882368000108,1262.9726355000166,j,1.9146558000065852,0.1679271000029985,1262.97268050001,1262.9726916000072,None,,,,,,,,,,,,,,00038,001,2026-01-16_22h21.40.058,MST_task,2024.2.0,59.953404211907696,2026-01-16 22h21.48.270925 +0530,
,Objects\078a.jpg,52,0,53,,,,,f,0.9584101999935228,0.16021860000910237,None,,,,,,53,0,52,1262.9882368000108,,,,,,,,,,,,,,,,,,,,,,,,,,,,,,1262.9727566000074,1262.9882368000108,1263.4885497000068,1263.4717353000015,,,,,,,,,,,,,,,,,,,,,,1263.4810407000186,1263.4885497000068,1263.4885497000068,1263.4885497000068,1266.4882706000062,1266.4882706000062,1266.4882706000062,1266.4720151000074,f,0.9584101999935228,0.16021860000910237,1266.4720579000132,1266.4720691000111,None,,,,,,,,,,,,,,00038,001,2026-01-16_22h21.40.058,MST_task,2024.2.0,59.953404211907696,2026-01-16 22h21.48.270925 +0530,
,Objects\052a.jpg,53,0,54,,,,,f,0.7302952000172809,0.16800919998786412,None,,,,,,54,0,53,1266.4882706000062,,,,,,,,,,,,,,,,,,,,,,,,,,,,,,1266.472133000003,1266.4882706000062,1266.9885681000014,1266.9719397000154,,,,,,,,,,,,,,,,,,,,,,1266.974542800017,1266.9885681000014,1266.9885681000014,1266.9885681000014,1269.9886382000113,1269.9886382000113,1269.9886382000113,1269.9723416000197,f,0.7302952000172809,0.16800919998786412,1269.97239000001,1269.9724010000064,None,,,,,,,,,,,,,,00038,001,2026-01-16_22h21.40.058,MST_task,2024.2.0,59.953404211907696,2026-01-16 22h21.48.270925 +0530,
,Objects\160a.jpg,54,0,55,,,,,f,0.6877979999990202,0.14242980000562966,None,,,,,,55,0,54,1269.9886382000113,,,,,,,,,,,,,,,,,,,,,,,,,,,,,,1269.972464099992,1269.9886382000113,1270.4885379000043,1270.471906699997,,,,,,,,,,,,,,,,,,,,,,1270.474675400008,1270.4885379000043,1270.4885379000043,1270.4885379000043,1273.4882314999995,1273.4882314999995,1273.4882314999995,1273.4721506999922,f,0.6877979999990202,0.14242980000562966,1273.4721931999957,1273.4722040000197,None,,,,,,,,,,,,,,00038,001,2026-01-16_22h21.40.058,MST_task,2024.2.0,59.953404211907696,2026-01-16 22h21.48.270925 +0530,
,Objects\020a.jpg,55,0,56,,,,,f,0.5471360000083223,0.1280024999869056,None,,,,,,56,0,55,1273.4882314999995,,,,,,,,,,,,,,,,,,,,,,,,,,,,,,1273.4722680000123,1273.4882314999995,1273.9885354000144,1273.9718335999933,,,,,,,,,,,,,,,,,,,,,,1273.974514600006,1273.9885354000144,1273.9885354000144,1273.9885354000144,1276.98818450002,1276.98818450002,1276.98818450002,1276.972023600014,f,0.5471360000083223,0.1280024999869056,1276.972068700008,1276.9720796000038,None,,,,,,,,,,,,,,00038,001,2026-01-16_22h21.40.058,MST_task,2024.2.0,59.953404211907696,2026-01-16 22h21.48.270925 +0530,
,Scenes\084a.jpg,56,0,57,,,,,j,0.6390151999949012,0.17566740000620484,None,,,,,,57,0,56,1276.98818450002,,,,,,,,,,,,,,,,,,,,,,,,,,,,,,1276.9722016000014,1276.98818450002,1277.488804499997,1277.4718664000102,,,,,,,,,,,,,,,,,,,,,,1277.4834802999976,1277.488804499997,1277.488804499997,1277.488804499997,1280.4881786000042,1280.4881786000042,1280.4881786000042,1280.4721957000147,j,0.6390151999949012,0.17566740000620484,1280.473840999999,1280.473860500002,None,,,,,,,,,,,,,,00038,001,2026-01-16_22h21.40.058,MST_task,2024.2.0,59.953404211907696,2026-01-16 22h21.48.270925 +0530,
,Scenes\077a.jpg,57,0,58,,,,,j,1.6260482000070624,0.17706469999393448,None,,,,,,58,0,57,1280.4881786000042,,,,,,,,,,,,,,,,,,,,,,,,,,,,,,1280.4739842000126,1280.4881786000042,1280.988886200008,1280.9718801999989,,,,,,,,,,,,,,,,,,,,,,1280.979482900002,1280.988886200008,1280.988886200008,1280.988886200008,1283.9881561000075,1283.9881561000075,1283.9881561000075,1283.9719765000045,j,1.6260482000070624,0.17706469999393448,1283.9720202000171,1283.972031000012,None,,,,,,,,,,,,,,00038,001,2026-01-16_22h21.40.058,MST_task,2024.2.0,59.953404211907696,2026-01-16 22h21.48.270925 +0530,
,Scenes\004a.jpg,58,0,59,,,,,j,0.996616799995536,0.16718390001915395,None,,,,,,59,0,58,1283.9881561000075,,,,,,,,,,,,,,,,,,,,,,,,,,,,,,1283.9721013999952,1283.9881561000075,1284.4911483000033,1284.4715984000068,,,,,,,,,,,,,,,,,,,,,,1284.4887679000094,1284.4911483000033,1284.4911483000033,1284.4911483000033,,,,1287.4883314000035,j,0.996616799995536,0.16718390001915395,1287.488373100001,1287.488383799995,None,,,,,,,,,,,,,,00038,001,2026-01-16_22h21.40.058,MST_task,2024.2.0,59.953404211907696,2026-01-16 22h21.48.270925 +0530,
,Scenes\007a.jpg,59,0,60,,,,,f,2.017801900015911,0.15220869999029674,None,,,,,,60,0,59,1287.504866400006,,,,,,,,,,,,,,,,,,,,,,,,,,,,,,1287.4884843000036,1287.504866400006,1288.0054118999979,1287.9883376999933,,,,,,,,,,,,,,,,,,,,,,1287.994680200005,1288.0054118999979,1288.0054118999979,1288.0054118999979,1291.004860999994,1291.004860999994,1291.004860999994,1290.9886330000008,f,2.017801900015911,0.15220869999029674,1290.9886737000197,1290.9886837000086,None,,,,,,,,,,,,,,00038,001,2026-01-16_22h21.40.058,MST_task,2024.2.0,59.953404211907696,2026-01-16 22h21.48.270925 +0530,
,Scenes\063a.jpg,60,0,61,,,,,j,0.6940830999810714,0.1519923000014387,None,,,,,,61,0,60,1291.004860999994,,,,,,,,,,,,,,,,,,,,,,,,,,,,,,1290.9887469999958,1291.004860999994,1291.5055199000053,1291.4884366000188,,,,,,,,,,,,,,,,,,,,,,1291.497316699999,1291.5055199000053,1291.5055199000053,1291.5055199000053,1294.5048771000002,1294.5048771000002,1294.5048771000002,1294.488730800018,j,0.6940830999810714,0.1519923000014387,1294.4887889999954,1294.4888002999942,None,,,,,,,,,,,,,,00038,001,2026-01-16_22h21.40.058,MST_task,2024.2.0,59.953404211907696,2026-01-16 22h21.48.270925 +0530,
,Scenes\019a.jpg,61,0,62,,,,,f,2.7142981000069994,0.19200169999385253,None,,,,,,62,0,61,1294.5048771000002,,,,,,,,,,,,,,,,,,,,,,,,,,,,,,1294.4888989000174,1294.5048771000002,1295.005405200005,1294.9884577000048,,,,,,,,,,,,,,,,,,,,,,1294.9969972000108,1295.005405200005,1295.005405200005,1295.005405200005,1298.004799599992,1298.004799599992,1298.004799599992,1297.9887347000185,f,2.7142981000069994,0.19200169999385253,1297.9887758000114,1297.988786300004,None,,,,,,,,,,,,,,00038,001,2026-01-16_22h21.40.058,MST_task,2024.2.0,59.953404211907696,2026-01-16 22h21.48.270925 +0530,
,Scenes\069a.jpg,62,0,63,,,,,j,0.990046099992469,0.16800690002855845,None,,,,,,63,0,62,1298.004799599992,,,,,,,,,,,,,,,,,,,,,,,,,,,,,,1297.9888516000065,1298.004799599992,1298.5054203000036,1298.4884577000048,,,,,,,,,,,,,,,,,,,,,,1298.494356100011,1298.5054203000036,1298.5054203000036,1298.5054203000036,1301.5048758000194,1301.5048758000194,1301.5048758000194,1301.4886970999942,j,0.990046099992469,0.16800690002855845,1301.4887386000191,1301.4887491000118,None,,,,,,,,,,,,,,00038,001,2026-01-16_22h21.40.058,MST_task,2024.2.0,59.953404211907696,2026-01-16 22h21.48.270925 +0530,
,Objects\081a.jpg,63,0,64,,,,,j,2.194280499999877,0.2000551999954041,None,,,,,,64,0,63,1301.5048758000194,,,,,,,,,,,,,,,,,,,,,,,,,,,,,,1301.4888533000194,1301.5048758000194,1302.0053722000157,1301.9884433000116,,,,,,,,,,,,,,,,,,,,,,1301.9936916000152,1302.0053722000157,1302.0053722000157,1302.0053722000157,1305.0048777000047,1305.0048777000047,1305.0048777000047,1304.9886512999947,j,2.194280499999877,0.2000551999954041,1304.9911474999972,1304.991164600011,None,,,,,,,,,,,,,,00038,001,2026-01-16_22h21.40.058,MST_task,2024.2.0,59.953404211907696,2026-01-16 22h21.48.270925 +0530,
,Objects\013a.jpg,64,0,65,,,,,j,2.1499895000015385,0.16044999999576248,None,,,,,,65,0,64,1305.0048777000047,,,,,,,,,,,,,,,,,,,,,,,,,,,,,,1304.991233400011,1305.0048777000047,1305.5051394000184,1305.4885651000077,,,,,,,,,,,,,,,,,,,,,,1305.491304199997,1305.5051394000184,1305.5051394000184,1305.5051394000184,1308.5048708000104,1308.5048708000104,1308.5048708000104,1308.4886382000113,j,2.1499895000015385,0.16044999999576248,1308.488680200011,1308.4886911000067,None,,,,,,,,,,,,,,00038,001,2026-01-16_22h21.40.058,MST_task,2024.2.0,59.953404211907696,2026-01-16 22h21.48.270925 +0530,
,Objects\061a.jpg,65,0,66,,,,,j,1.2742874999821652,0.17633590000332333,None,,,,,,66,0,65,1308.5048708000104,,,,,,,,,,,,,,,,,,,,,,,,,,,,,,1308.4887549999985,1308.5048708000104,1309.005029299995,1308.9884345000028,,,,,,,,,,,,,,,,,,,,,,1308.9911388000182,1309.005029299995,1309.005029299995,1309.005029299995,1312.0048922999995,1312.0048922999995,1312.0048922999995,1311.9887115000165,j,1.2742874999821652,0.17633590000332333,1311.988753600017,1311.9887645000126,None,,,,,,,,,,,,,,00038,001,2026-01-16_22h21.40.058,MST_task,2024.2.0,59.953404211907696,2026-01-16 22h21.48.270925 +0530,
,Objects\151a.jpg,66,0,67,,,,,f,0.9266675999970175,0.22391959998640232,None,,,,,,67,0,66,1312.0048922999995,,,,,,,,,,,,,,,,,,,,,,,,,,,,,,1311.988870400004,1312.0048922999995,1312.505090599996,1312.4884927000094,,,,,,,,,,,,,,,,,,,,,,1312.491052199999,1312.505090599996,1312.505090599996,1312.505090599996,1315.5048193999974,1315.5048193999974,1315.5048193999974,1315.4887278999959,f,0.9266675999970175,0.22391959998640232,1315.4887724000146,1315.4887832000095,None,,,,,,,,,,,,,,00038,001,2026-01-16_22h21.40.058,MST_task,2024.2.0,59.953404211907696,2026-01-16 22h21.48.270925 +0530,
,Objects\164a.jpg,67,0,68,,,,,f,0.7470596999919508,0.20663100000820123,None,,,,,,68,0,67,1315.5048193999974,,,,,,,,,,,,,,,,,,,,,,,,,,,,,,1315.488847200002,1315.5048193999974,1316.0051003000117,1315.988439400011,,,,,,,,,,,,,,,,,,,,,,1315.9911590999982,1316.0051003000117,1316.0051003000117,1316.0051003000117,1319.0049701000098,1319.0049701000098,1319.0049701000098,1318.988699700014,f,0.7470596999919508,0.20663100000820123,1318.988741100009,1318.9887516000017,None,,,,,,,,,,,,,,00038,001,2026-01-16_22h21.40.058,MST_task,2024.2.0,59.953404211907696,2026-01-16 22h21.48.270925 +0530,
,Objects\029a.jpg,68,0,69,,,,,f,1.054193900024984,0.1839830999961123,None,,,,,,69,0,68,1319.0049701000098,,,,,,,,,,,,,,,,,,,,,,,,,,,,,,1318.9888450000144,1319.0049701000098,1319.5050484999956,1319.4885018000205,,,,,,,,,,,,,,,,,,,,,,1319.4913471000036,1319.5050484999956,1319.5050484999956,1319.5050484999956,1322.5048560000141,1322.5048560000141,1322.5048560000141,1322.4886435999942,f,1.054193900024984,0.1839830999961123,1322.488684800017,1322.4886958000134,None,,,,,,,,,,,,,,00038,001,2026-01-16_22h21.40.058,MST_task,2024.2.0,59.953404211907696,2026-01-16 22h21.48.270925 +0530,
,Objects\178a.jpg,69,0,70,,,,,f,1.8664057000132743,0.1920527000038419,None,,,,,,70,0,69,1322.5048560000141,,,,,,,,,,,,,,,,,,,,,,,,,,,,,,1322.4887873000116,1322.5048560000141,1323.0051097999967,1322.9884343000012,,,,,,,,,,,,,,,,,,,,,,1322.9985199999937,1323.0051097999967,1323.0051097999967,1323.0051097999967,1326.0049003000022,1326.0049003000022,1326.0049003000022,1325.989025100018,f,1.8664057000132743,0.1920527000038419,1325.989073500008,1325.989085100009,None,,,,,,,,,,,,,,00038,001,2026-01-16_22h21.40.058,MST_task,2024.2.0,59.953404211907696,2026-01-16 22h21.48.270925 +0530,
,Scenes\180a.jpg,70,0,71,,,,,j,0.7417593999998644,0.16818329997477122,None,,,,,,71,0,70,1326.0049003000022,,,,,,,,,,,,,,,,,,,,,,,,,,,,,,1325.9891534000053,1326.0049003000022,1326.505434199993,1326.4883959,,,,,,,,,,,,,,,,,,,,,,1326.4986059000075,1326.505434199993,1326.505434199993,1326.505434199993,1329.5049187999975,1329.5049187999975,1329.5049187999975,1329.4891315000132,j,0.7417593999998644,0.16818329997477122,1329.4907839999942,1329.4908012000087,None,,,,,,,,,,,,,,00038,001,2026-01-16_22h21.40.058,MST_task,2024.2.0,59.953404211907696,2026-01-16 22h21.48.270925 +0530,
,Scenes\021a.jpg,71,0,72,,,,,j,1.464715799986152,0.15943010000046343,None,,,,,,72,0,71,1329.5049187999975,,,,,,,,,,,,,,,,,,,,,,,,,,,,,,1329.490874900017,1329.5049187999975,1330.0066030000162,1329.9884246000147,,,,,,,,,,,,,,,,,,,,,,1330.0042366000125,1330.0066030000162,1330.0066030000162,1330.0066030000162,,,,1333.005137,j,1.464715799986152,0.15943010000046343,1333.0051902999985,1333.0052022000018,None,,,,,,,,,,,,,,00038,001,2026-01-16_22h21.40.058,MST_task,2024.2.0,59.953404211907696,2026-01-16 22h21.48.270925 +0530,
,Scenes\161a.jpg,72,0,73,,,,,j,0.8057839999964926,0.16801649998524226,None,,,,,,73,0,72,1333.0213969000033,,,,,,,,,,,,,,,,,,,,,,,,,,,,,,1333.005269300018,1333.0213969000033,1333.5218014999991,1333.5051472000196,,,,,,,,,,,,,,,,,,,,,,1333.5140841999964,1333.5218014999991,1333.5218014999991,1333.5218014999991,1336.5213771999988,1336.5213771999988,1336.5213771999988,1336.5053858000028,j,0.8057839999964926,0.16801649998524226,1336.505429700017,1336.505481500004,None,,,,,,,,,,,,,,00038,001,2026-01-16_22h21.40.058,MST_task,2024.2.0,59.953404211907696,2026-01-16 22h21.48.270925 +0530,
,Scenes\006a.jpg,73,0,74,,,,,f,2.6666201000043657,0.1909600000071805,None,,,,,,74,0,73,1336.5213771999988,,,,,,,,,,,,,,,,,,,,,,,,,,,,,,1336.505582200014,1336.5213771999988,1337.0220172000118,1337.0050518999924,,,,,,,,,,,,,,,,,,,,,,1337.012153699994,1337.0220172000118,1337.0220172000118,1337.0220172000118,1340.021409100009,1340.021409100009,1340.021409100009,1340.0054211000097,f,2.6666201000043657,0.1909600000071805,1340.0054610999941,1340.005471100012,None,,,,,,,,,,,,,,00038,001,2026-01-16_22h21.40.058,MST_task,2024.2.0,59.953404211907696,2026-01-16 22h21.48.270925 +0530,
,Scenes\041a.jpg,74,0,75,,,,,j,0.7494150999991689,0.16789390001213178,None,,,,,,75,0,74,1340.021409100009,,,,,,,,,,,,,,,,,,,,,,,,,,,,,,1340.0055343999993,1340.021409100009,1340.5220483000157,1340.5051627999928,,,,,,,,,,,,,,,,,,,,,,1340.5153851000068,1340.5220483000157,1340.5220483000157,1340.5220483000157,1343.521513100015,1343.521513100015,1343.521513100015,1343.5055513000116,j,0.7494150999991689,0.16789390001213178,1343.5055939000158,1343.505605000013,None,,,,,,,,,,,,,,00038,001,2026-01-16_22h21.40.058,MST_task,2024.2.0,59.953404211907696,2026-01-16 22h21.48.270925 +0530,
,Scenes\127a.jpg,75,0,76,,,,,j,0.952584399987245,0.16000020000501536,None,,,,,,76,0,75,1343.521513100015,,,,,,,,,,,,,,,,,,,,,,,,,,,,,,1343.5056699000124,1343.521513100015,1344.0231129000022,1344.0051901999977,,,,,,,,,,,,,,,,,,,,,,1344.0206357999996,1344.0231129000022,1344.0231129000022,1344.0231129000022,,,,1347.0219474000041,j,0.952584399987245,0.16000020000501536,1347.0219901000091,1347.0220017000102,None,,,,,,,,,,,,,,00038,001,2026-01-16_22h21.40.058,MST_task,2024.2.0,59.953404211907696,2026-01-16 22h21.48.270925 +0530,
,Scenes\039a.jpg,76,0,77,,,,,j,0.6600371999957133,0.15226800000527874,None,,,,,,77,0,76,1347.038241000002,,,,,,,,,,,,,,,,,,,,,,,,,,,,,,1347.0220968000067,1347.038241000002,1347.5389197000186,1347.5219174000085,,,,,,,,,,,,,,,,,,,,,,1347.5278421000112,1347.5389197000186,1347.5389197000186,1347.5389197000186,1350.538288700016,1350.538288700016,1350.538288700016,1350.5223026000021,j,0.6600371999957133,0.15226800000527874,1350.5223446000018,1350.5223559000005,None,,,,,,,,,,,,,,00038,001,2026-01-16_22h21.40.058,MST_task,2024.2.0,59.953404211907696,2026-01-16 22h21.48.270925 +0530,
,Objects\088a.jpg,77,0,78,,,,,j,2.2966875999991316,0.160132999997586,None,,,,,,78,0,77,1350.538288700016,,,,,,,,,,,,,,,,,,,,,,,,,,,,,,1350.5224510999979,1350.538288700016,1351.0387527999992,1351.021934999997,,,,,,,,,,,,,,,,,,,,,,1351.027322800015,1351.0387527999992,1351.0387527999992,1351.0387527999992,1354.038317300001,1354.038317300001,1354.038317300001,1354.0221962000069,j,2.2966875999991316,0.160132999997586,1354.0242030000081,1354.0242212000012,None,,,,,,,,,,,,,,00038,001,2026-01-16_22h21.40.058,MST_task,2024.2.0,59.953404211907696,2026-01-16 22h21.48.270925 +0530,
,Objects\010a.jpg,78,0,79,,,,,f,0.6210031000082381,0.16000009997515008,None,,,,,,79,0,78,1354.038317300001,,,,,,,,,,,,,,,,,,,,,,,,,,,,,,1354.0243296000117,1354.038317300001,1354.5385113999946,1354.5217661999923,,,,,,,,,,,,,,,,,,,,,,1354.5242658000207,1354.5385113999946,1354.5385113999946,1354.5385113999946,1357.5383158000186,1357.5383158000186,1357.5383158000186,1357.5222062999965,f,0.6210031000082381,0.16000009997515008,1357.5222485999984,1357.522259200021,None,,,,,,,,,,,,,,00038,001,2026-01-16_22h21.40.058,MST_task,2024.2.0,59.953404211907696,2026-01-16 22h21.48.270925 +0530,
,Objects\168a.jpg,79,0,80,,,,,f,0.5774202999891713,0.12735200001043268,None,,,,,,80,0,79,1357.5383158000186,,,,,,,,,,,,,,,,,,,,,,,,,,,,,,1357.5223223000066,1357.5383158000186,1358.038432500005,1358.0217122000176,,,,,,,,,,,,,,,,,,,,,,1358.0242990000115,1358.038432500005,1358.038432500005,1358.038432500005,1361.0383274000196,1361.0383274000196,1361.0383274000196,1361.022133999999,f,0.5774202999891713,0.12735200001043268,1361.0221751000208,1361.0221853000112,None,,,,,,,,,,,,,,00038,001,2026-01-16_22h21.40.058,MST_task,2024.2.0,59.953404211907696,2026-01-16 22h21.48.270925 +0530,
,Objects\087a.jpg,80,0,81,,,,,j,0.9971982999995816,0.1831143999879714,None,,,,,,81,0,80,1361.0383274000196,,,,,,,,,,,,,,,,,,,,,,,,,,,,,,1361.0222797000024,1361.0383274000196,1361.538564300019,1361.5218242999981,,,,,,,,,,,,,,,,,,,,,,1361.5308574000082,1361.538564300019,1361.538564300019,1361.538564300019,,,,1364.5225836000172,j,0.9971982999995816,0.1831143999879714,1364.5226257000177,1364.5226373000187,None,,,,,,,,,,,,,,00038,001,2026-01-16_22h21.40.058,MST_task,2024.2.0,59.953404211907696,2026-01-16 22h21.48.270925 +0530,
,Objects\034a.jpg,81,0,82,,,,,f,0.600986900011776,0.17610829998739064,None,,,,,,82,0,81,1364.5382989000063,,,,,,,,,,,,,,,,,,,,,,,,,,,,,,1364.5227310000046,1364.5382989000063,1365.0384780000022,1365.021722000005,,,,,,,,,,,,,,,,,,,,,,1365.0244198,1365.0384780000022,1365.0384780000022,1365.0384780000022,1368.0383305000141,1368.0383305000141,1368.0383305000141,1368.0222149000037,f,0.600986900011776,0.17610829998739064,1368.0222582000133,1368.0222684000037,None,,,,,,,,,,,,,,00038,001,2026-01-16_22h21.40.058,MST_task,2024.2.0,59.953404211907696,2026-01-16 22h21.48.270925 +0530,
,Objects\037a.jpg,82,0,83,,,,,f,0.5894932000082918,0.13521799998125061,None,,,,,,83,0,82,1368.0383305000141,,,,,,,,,,,,,,,,,,,,,,,,,,,,,,1368.0223618000164,1368.0383305000141,1368.5385601000162,1368.5219221000152,,,,,,,,,,,,,,,,,,,,,,1368.5248490000085,1368.5385601000162,1368.5385601000162,1368.5385601000162,1371.5382813000178,1371.5382813000178,1371.5382813000178,1371.522143900016,f,0.5894932000082918,0.13521799998125061,1371.5221849000081,1371.5221953,None,,,,,,,,,,,,,,00038,001,2026-01-16_22h21.40.058,MST_task,2024.2.0,59.953404211907696,2026-01-16 22h21.48.270925 +0530,
,Objects\154a.jpg,83,0,84,,,,,j,1.0888637000171002,0.1594252999930177,None,,,,,,84,0,83,1371.5382813000178,,,,,,,,,,,,,,,,,,,,,,,,,,,,,,1371.5222906999988,1371.5382813000178,1372.0385480000114,1372.0219134000072,,,,,,,,,,,,,,,,,,,,,,1372.0244395000045,1372.0385480000114,1372.0385480000114,1372.0385480000114,1375.0381567000004,1375.0381567000004,1375.0381567000004,1375.0221418,j,1.0888637000171002,0.1594252999930177,1375.0221824000182,1375.0221929000109,None,,,,,,,,,,,,,,00038,001,2026-01-16_22h21.40.058,MST_task,2024.2.0,59.953404211907696,2026-01-16 22h21.48.270925 +0530,
,Scenes\147a.jpg,84,0,85,,,,,j,1.0836322999966796,0.16799359998549335,None,,,,,,85,0,84,1375.0381567000004,,,,,,,,,,,,,,,,,,,,,,,,,,,,,,1375.0222856000182,1375.0381567000004,1375.5400289999961,1375.521699200006,,,,,,,,,,,,,,,,,,,,,,1375.5375860000204,1375.5400289999961,1375.5400289999961,1375.5400289999961,,,,1378.538511199993,j,1.0836322999966796,0.16799359998549335,1378.5401394999935,1378.5401569000096,None,,,,,,,,,,,,,,00038,001,2026-01-16_22h21.40.058,MST_task,2024.2.0,59.953404211907696,2026-01-16 22h21.48.270925 +0530,
,Scenes\144a.jpg,85,0,86,,,,,j,0.7511003999970853,0.1679903999902308,None,,,,,,86,0,85,1378.5548468000197,,,,,,,,,,,,,,,,,,,,,,,,,,,,,,1378.5402571000159,1378.5548468000197,1379.0556477000064,1379.0384668000042,,,,,,,,,,,,,,,,,,,,,,1379.0456698000198,1379.0556477000064,1379.0556477000064,1379.0556477000064,1382.054873200017,1382.054873200017,1382.054873200017,1382.0387060999929,j,0.7511003999970853,0.1679903999902308,1382.038750800013,1382.0387615000072,None,,,,,,,,,,,,,,00038,001,2026-01-16_22h21.40.058,MST_task,2024.2.0,59.953404211907696,2026-01-16 22h21.48.270925 +0530,
,Scenes\046a.jpg,86,0,87,,,,,j,0.798707399982959,0.14399820001563057,None,,,,,,87,0,86,1382.054873200017,,,,,,,,,,,,,,,,,,,,,,,,,,,,,,1382.0388584000175,1382.054873200017,1382.560237400001,1382.5383918000152,,,,,,,,,,,,,,,,,,,,,,1382.557738100004,1382.560237400001,1382.560237400001,1382.560237400001,,,,1385.5551478000125,j,0.798707399982959,0.14399820001563057,1385.5551901000144,1385.555201900017,None,,,,,,,,,,,,,,00038,001,2026-01-16_22h21.40.058,MST_task,2024.2.0,59.953404211907696,2026-01-16 22h21.48.270925 +0530,
,Scenes\155a.jpg,87,0,88,,,,,j,0.543062100012321,0.16800320000038482,None,,,,,,88,0,87,1385.5713913000072,,,,,,,,,,,,,,,,,,,,,,,,,,,,,,1385.5553007000126,1385.5713913000072,1386.072207499994,1386.0551504000032,,,,,,,,,,,,,,,,,,,,,,1386.0630046000006,1386.072207499994,1386.072207499994,1386.072207499994,1389.071419600019,1389.071419600019,1389.071419600019,1389.0554030000058,j,0.543062100012321,0.16800320000038482,1389.0554453000077,1389.0554563000042,None,,,,,,,,,,,,,,00038,001,2026-01-16_22h21.40.058,MST_task,2024.2.0,59.953404211907696,2026-01-16 22h21.48.270925 +0530,
,Scenes\031a.jpg,88,0,89,,,,,f,2.099159800010966,0.1928738999995403,None,,,,,,89,0,88,1389.071419600019,,,,,,,,,,,,,,,,,,,,,,,,,,,,,,1389.055551700003,1389.071419600019,1389.5719406999997,1389.5553091000183,,,,,,,,,,,,,,,,,,,,,,1389.5660862000077,1389.5719406999997,1389.5719406999997,1389.5719406999997,1392.5714156000176,1392.5714156000176,1392.5714156000176,1392.5553690000088,f,2.099159800010966,0.1928738999995403,1392.555410800007,1392.5554216000019,None,,,,,,,,,,,,,,00038,001,2026-01-16_22h21.40.058,MST_task,2024.2.0,59.953404211907696,2026-01-16 22h21.48.270925 +0530,
,Scenes\072a.jpg,89,0,90,,,,,j,1.3268220000027213,0.1762262000120245,None,,,,,,90,0,89,1392.5714156000176,,,,,,,,,,,,,,,,,,,,,,,,,,,,,,1392.5555222000112,1392.5714156000176,1393.0723599000194,1393.0552315000095,,,,,,,,,,,,,,,,,,,,,,1393.0650775000104,1393.0723599000194,1393.0723599000194,1393.0723599000194,1396.071425000002,1396.071425000002,1396.071425000002,1396.055390900001,j,1.3268220000027213,0.1762262000120245,1396.0554339000082,1396.0554450000054,None,,,,,,,,,,,,,,00038,001,2026-01-16_22h21.40.058,MST_task,2024.2.0,59.953404211907696,2026-01-16 22h21.48.270925 +0530,
,Scenes\132a.jpg,90,0,91,,,,,j,0.9789315999951214,0.17601419999846257,None,,,,,,91,0,90,1396.071425000002,,,,,,,,,,,,,,,,,,,,,,,,,,,,,,1396.0557332000171,1396.071425000002,1396.5721505999973,1396.555160799995,,,,,,,,,,,,,,,,,,,,,,1396.5612942000153,1396.5721505999973,1396.5721505999973,1396.5721505999973,1399.5714972999995,1399.5714972999995,1399.5714972999995,1399.555510700011,j,0.9789315999951214,0.17601419999846257,1399.5555536000174,1399.55556410001,None,,,,,,,,,,,,,,00038,001,2026-01-16_22h21.40.058,MST_task,2024.2.0,59.953404211907696,2026-01-16 22h21.48.270925 +0530,
,Objects\129a.jpg,91,0,92,,,,,f,1.0628758000093512,0.20804909997968934,None,,,,,,92,0,91,1399.5714972999995,,,,,,,,,,,,,,,,,,,,,,,,,,,,,,1399.5556276999996,1399.5714972999995,1400.0719685000076,1400.0551646999957,,,,,,,,,,,,,,,,,,,,,,1400.0604476000008,1400.0719685000076,1400.0719685000076,1400.0719685000076,1403.0714941000042,1403.0714941000042,1403.0714941000042,1403.055421099998,f,1.0628758000093512,0.20804909997968934,1403.0574180000112,1403.0574342000182,None,,,,,,,,,,,,,,00038,001,2026-01-16_22h21.40.058,MST_task,2024.2.0,59.953404211907696,2026-01-16 22h21.48.270925 +0530,
,Objects\186a.jpg,92,0,93,,,,,f,1.4353097999992315,0.17599540000082925,None,,,,,,93,0,92,1403.0714941000042,,,,,,,,,,,,,,,,,,,,,,,,,,,,,,1403.0575352000014,1403.0714941000042,1403.5717588000116,1403.555203900003,,,,,,,,,,,,,,,,,,,,,,1403.5579461000161,1403.5717588000116,1403.5717588000116,1403.5717588000116,1406.5714353999938,1406.5714353999938,1406.5714353999938,1406.5554762000102,f,1.4353097999992315,0.17599540000082925,1406.5555163999961,1406.5555272000202,None,,,,,,,,,,,,,,00038,001,2026-01-16_22h21.40.058,MST_task,2024.2.0,59.953404211907696,2026-01-16 22h21.48.270925 +0530,
,Objects\053a.jpg,93,0,94,,,,,f,0.7035635000211187,0.17600639999727719,None,,,,,,94,0,93,1406.5714353999938,,,,,,,,,,,,,,,,,,,,,,,,,,,,,,1406.5555917000165,1406.5714353999938,1407.0717421000008,1407.0550767999957,,,,,,,,,,,,,,,,,,,,,,1407.0578139999998,1407.0717421000008,1407.0717421000008,1407.0717421000008,1410.0714912000112,1410.0714912000112,1410.0714912000112,1410.055437300005,f,0.7035635000211187,0.17600639999727719,1410.055479600007,1410.055490800005,None,,,,,,,,,,,,,,00038,001,2026-01-16_22h21.40.058,MST_task,2024.2.0,59.953404211907696,2026-01-16 22h21.48.270925 +0530,
,Objects\035a.jpg,94,0,95,,,,,j,2.6031376000028104,0.19199719998869114,None,,,,,,95,0,94,1410.0714912000112,,,,,,,,,,,,,,,,,,,,,,,,,,,,,,1410.0555850999954,1410.0714912000112,1410.5717218999926,1410.5551170000108,,,,,,,,,,,,,,,,,,,,,,1410.5641421000182,1410.5717218999926,1410.5717218999926,1410.5717218999926,1413.5714542999922,1413.5714542999922,1413.5714542999922,1413.5554477999976,j,2.6031376000028104,0.19199719998869114,1413.5554906000034,1413.5555017000006,None,,,,,,,,,,,,,,00038,001,2026-01-16_22h21.40.058,MST_task,2024.2.0,59.953404211907696,2026-01-16 22h21.48.270925 +0530,
,Objects\138a.jpg,95,0,96,,,,,j,0.8801589999930002,0.16779970002244227,None,,,,,,96,0,95,1413.5714542999922,,,,,,,,,,,,,,,,,,,,,,,,,,,,,,1413.5555644000124,1413.5714542999922,1414.0717057000147,1414.055170800013,,,,,,,,,,,,,,,,,,,,,,1414.0577999000088,1414.0717057000147,1414.0717057000147,1414.0717057000147,1417.0715063000098,1417.0715063000098,1417.0715063000098,1417.0555439000018,j,0.8801589999930002,0.16779970002244227,1417.0555884999922,1417.055599400017,None,,,,,,,,,,,,,,00038,001,2026-01-16_22h21.40.058,MST_task,2024.2.0,59.953404211907696,2026-01-16 22h21.48.270925 +0530,
,Objects\027a.jpg,96,0,97,,,,,f,1.1720559000095818,0.18398619999061339,None,,,,,,97,0,96,1417.0715063000098,,,,,,,,,,,,,,,,,,,,,,,,,,,,,,1417.0556961999973,1417.0715063000098,1417.5717351000058,1417.555144700018,,,,,,,,,,,,,,,,,,,,,,1417.5578068000032,1417.5717351000058,1417.5717351000058,1417.5717351000058,1420.5714750000043,1420.5714750000043,1420.5714750000043,1420.555441400007,f,1.1720559000095818,0.18398619999061339,1420.5554823999992,1420.555493199994,None,,,,,,,,,,,,,,00038,001,2026-01-16_22h21.40.058,MST_task,2024.2.0,59.953404211907696,2026-01-16 22h21.48.270925 +0530,
,Objects\157a.jpg,97,0,98,,,,,f,0.7925132999953348,0.1910658999986481,None,,,,,,98,0,97,1420.5714750000043,,,,,,,,,,,,,,,,,,,,,,,,,,,,,,1420.5555660999962,1420.5714750000043,1421.0716920999985,1421.055068400019,,,,,,,,,,,,,,,,,,,,,,1421.057542399998,1421.0716920999985,1421.0716920999985,1421.0716920999985,1424.071486700006,1424.071486700006,1424.071486700006,1424.0555357999983,f,0.7925132999953348,0.1910658999986481,1424.0555813999963,1424.055591900018,None,,,,,,,,,,,,,,00038,001,2026-01-16_22h21.40.058,MST_task,2024.2.0,59.953404211907696,2026-01-16 22h21.48.270925 +0530,
,Scenes\152a.jpg,98,0,99,,,,,j,1.2110653000127058,0.16003629998886026,None,,,,,,99,0,98,1424.071486700006,,,,,,,,,,,,,,,,,,,,,,,,,,,,,,1424.055696299998,1424.071486700006,1424.5720091999974,1424.5551735000045,,,,,,,,,,,,,,,,,,,,,,1424.5696790000075,1424.5720091999974,1424.5720091999974,1424.5720091999974,1427.5716645000211,1427.5716645000211,1427.5716645000211,1427.5556238999998,j,1.2110653000127058,0.16003629998886026,1427.5571729000076,1427.5571875000023,None,,,,,,,,,,,,,,00038,001,2026-01-16_22h21.40.058,MST_task,2024.2.0,59.953404211907696,2026-01-16 22h21.48.270925 +0530,
,Scenes\096a.jpg,99,0,100,,,,,j,0.7027775000024121,0.1521869999996852,None,,,,,,100,0,99,1427.5716645000211,,,,,,,,,,,,,,,,,,,,,,,,,,,,,,1427.5572938999976,1427.5716645000211,1428.0720580000198,1428.0551684999955,,,,,,,,,,,,,,,,,,,,,,1428.0615327999985,1428.0720580000198,1428.0720580000198,1428.0720580000198,1431.0714215000044,1431.0714215000044,1431.0714215000044,1431.055506900011,j,0.7027775000024121,0.1521869999996852,1431.0555566000112,1431.055567400006,None,,,,,,,,,,,,,,00038,001,2026-01-16_22h21.40.058,MST_task,2024.2.0,59.953404211907696,2026-01-16 22h21.48.270925 +0530,
,Scenes\119a.jpg,100,0,101,,,,,j,1.05120360001456,0.12000470000202768,None,,,,,,101,0,100,1431.0714215000044,,,,,,,,,,,,,,,,,,,,,,,,,,,,,,1431.0556699000008,1431.0714215000044,1431.5722196999996,1431.5551634000149,,,,,,,,,,,,,,,,,,,,,,1431.5661393000046,1431.5722196999996,1431.5722196999996,1431.5722196999996,1434.5714037000143,1434.5714037000143,1434.5714037000143,1434.5554362999974,j,1.05120360001456,0.12000470000202768,1434.5554776999925,1434.5554881000135,None,,,,,,,,,,,,,,00038,001,2026-01-16_22h21.40.058,MST_task,2024.2.0,59.953404211907696,2026-01-16 22h21.48.270925 +0530,
,Scenes\121a.jpg,101,0,102,,,,,j,0.8554662999813445,0.17599970000446774,None,,,,,,102,0,101,1434.5714037000143,,,,,,,,,,,,,,,,,,,,,,,,,,,,,,1434.5555931999988,1434.5714037000143,1435.0720140000049,1435.0550777000026,,,,,,,,,,,,,,,,,,,,,,1435.065930200013,1435.0720140000049,1435.0720140000049,1435.0720140000049,1438.0714060000028,1438.0714060000028,1438.0714060000028,1438.0554420000117,j,0.8554662999813445,0.17599970000446774,1438.0555218000081,1438.0555349000206,None,,,,,,,,,,,,,,00038,001,2026-01-16_22h21.40.058,MST_task,2024.2.0,59.953404211907696,2026-01-16 22h21.48.270925 +0530,
,Scenes\122a.jpg,102,0,103,,,,,f,1.5680018000130076,0.17574380000587553,None,,,,,,103,0,102,1438.0714060000028,,,,,,,,,,,,,,,,,,,,,,,,,,,,,,1438.055634599994,1438.0714060000028,1438.5757457000145,1438.555160799995,,,,,,,,,,,,,,,,,,,,,,1438.573516400007,1438.5757457000145,1438.5757457000145,1438.5757457000145,,,,1441.5716444000136,f,1.5680018000130076,0.17574380000587553,1441.5716863000125,1441.5716980000143,None,,,,,,,,,,,,,,00038,001,2026-01-16_22h21.40.058,MST_task,2024.2.0,59.953404211907696,2026-01-16 22h21.48.270925 +0530,
,Scenes\062a.jpg,103,0,104,,,,,j,0.719754899997497,0.1510091999953147,None,,,,,,104,0,103,1441.5882244000095,,,,,,,,,,,,,,,,,,,,,,,,,,,,,,1441.571794699994,1441.5882244000095,1442.0887883999967,1442.0718556999927,,,,,,,,,,,,,,,,,,,,,,1442.082267299993,1442.0887883999967,1442.0887883999967,1442.0887883999967,,,,1445.0717672000173,j,0.719754899997497,0.1510091999953147,1445.0718090000155,1445.0718207000173,None,,,,,,,,,,,,,,00038,001,2026-01-16_22h21.40.058,MST_task,2024.2.0,59.953404211907696,2026-01-16 22h21.48.270925 +0530,
,Scenes\163a.jpg,104,0,105,,,,,j,1.1150137000076938,0.15919899998698384,None,,,,,,105,0,104,1445.0881614999962,,,,,,,,,,,,,,,,,,,,,,,,,,,,,,1445.0719279000186,1445.0881614999962,1445.5888067000196,1445.5716505000019,,,,,,,,,,,,,,,,,,,,,,1445.577830299997,1445.5888067000196,1445.5888067000196,1445.5888067000196,1448.588227100001,1448.588227100001,1448.588227100001,1448.5719811000163,j,1.1150137000076938,0.15919899998698384,1448.5720224000106,1448.5720328000025,None,,,,,,,,,,,,,,00038,001,2026-01-16_22h21.40.058,MST_task,2024.2.0,59.953404211907696,2026-01-16 22h21.48.270925 +0530,
,Objects\003a.jpg,105,0,106,,,,,j,2.111102300026687,0.15105200000107288,None,,,,,,106,0,105,1448.588227100001,,,,,,,,,,,,,,,,,,,,,,,,,,,,,,1448.5721355999995,1448.588227100001,1449.0886977000046,1449.071728400013,,,,,,,,,,,,,,,,,,,,,,1449.0767441000207,1449.0886977000046,1449.0886977000046,1449.0886977000046,1452.0882485000184,1452.0882485000184,1452.0882485000184,1452.0719822999963,j,2.111102300026687,0.15105200000107288,1452.0739589000004,1452.073975700012,None,,,,,,,,,,,,,,00038,001,2026-01-16_22h21.40.058,MST_task,2024.2.0,59.953404211907696,2026-01-16 22h21.48.270925 +0530,
,Objects\054a.jpg,106,0,107,,,,,j,1.2107292000146117,0.16792290000012144,None,,,,,,107,0,106,1452.0882485000184,,,,,,,,,,,,,,,,,,,,,,,,,,,,,,1452.0740430000005,1452.0882485000184,1452.5883927000104,1452.571686900017,,,,,,,,,,,,,,,,,,,,,,1452.5744766000134,1452.5883927000104,1452.5883927000104,1452.5883927000104,1455.588237100019,1455.588237100019,1455.588237100019,1455.5718816000153,j,1.2107292000146117,0.16792290000012144,1455.571924400021,1455.571934800013,None,,,,,,,,,,,,,,00038,001,2026-01-16_22h21.40.058,MST_task,2024.2.0,59.953404211907696,2026-01-16 22h21.48.270925 +0530,
,Objects\165a.jpg,107,0,108,,,,,f,0.5507557999808341,0.1919476000184659,None,,,,,,108,0,107,1455.588237100019,,,,,,,,,,,,,,,,,,,,,,,,,,,,,,1455.5720291000034,1455.588237100019,1456.0884378000046,1456.0716864000133,,,,,,,,,,,,,,,,,,,,,,1456.0742474000144,1456.0884378000046,1456.0884378000046,1456.0884378000046,1459.0882648999977,1459.0882648999977,1459.0882648999977,1459.0720212000015,f,0.5507557999808341,0.1919476000184659,1459.0720629999996,1459.072073599993,None,,,,,,,,,,,,,,00038,001,2026-01-16_22h21.40.058,MST_task,2024.2.0,59.953404211907696,2026-01-16 22h21.48.270925 +0530,
,Objects\005a.jpg,108,0,109,,,,,f,1.4115928999963216,0.17493690000264905,None,,,,,,109,0,108,1459.0882648999977,,,,,,,,,,,,,,,,,,,,,,,,,,,,,,1459.0721770999953,1459.0882648999977,1459.5884178999986,1459.5716788000136,,,,,,,,,,,,,,,,,,,,,,1459.5808314000024,1459.5884178999986,1459.5884178999986,1459.5884178999986,1462.5882608999964,1462.5882608999964,1462.5882608999964,1462.5719511999923,f,1.4115928999963216,0.17493690000264905,1462.571992400015,1462.5720034000115,None,,,,,,,,,,,,,,00038,001,2026-01-16_22h21.40.058,MST_task,2024.2.0,59.953404211907696,2026-01-16 22h21.48.270925 +0530,
,Objects\104a.jpg,109,0,110,,,,,f,0.6550490999943577,0.16800140001578256,None,,,,,,110,0,109,1462.5882608999964,,,,,,,,,,,,,,,,,,,,,,,,,,,,,,1462.5720982000057,1462.5882608999964,1463.0886414000124,1463.07191660002,,,,,,,,,,,,,,,,,,,,,,1463.0744350000168,1463.0886414000124,1463.0886414000124,1463.0886414000124,1466.0882910999935,1466.0882910999935,1466.0882910999935,1466.0724397000158,f,0.6550490999943577,0.16800140001578256,1466.0724871999992,1466.0724975000194,None,,,,,,,,,,,,,,00038,001,2026-01-16_22h21.40.058,MST_task,2024.2.0,59.953404211907696,2026-01-16 22h21.48.270925 +0530,
,Objects\055a.jpg,110,0,111,,,,,f,0.8666535000083968,0.2000945000036154,None,,,,,,111,0,110,1466.0882910999935,,,,,,,,,,,,,,,,,,,,,,,,,,,,,,1466.0725922000129,1466.0882910999935,1466.5888608999958,1466.571896700014,,,,,,,,,,,,,,,,,,,,,,1466.5812218000065,1466.5888608999958,1466.5888608999958,1466.5888608999958,1469.588362600014,1469.588362600014,1469.588362600014,1469.572216200002,f,0.8666535000083968,0.2000945000036154,1469.5722645999922,1469.5722760999925,None,,,,,,,,,,,,,,00038,001,2026-01-16_22h21.40.058,MST_task,2024.2.0,59.953404211907696,2026-01-16 22h21.48.270925 +0530,
,Objects\117a.jpg,111,0,112,,,,,f,1.3823378999950364,0.1679772000061348,None,,,,,,112,0,111,1469.588362600014,,,,,,,,,,,,,,,,,,,,,,,,,,,,,,1469.5723427000048,1469.588362600014,1470.0885777999938,1470.0717994000006,,,,,,,,,,,,,,,,,,,,,,1470.074385200016,1470.0885777999938,1470.0885777999938,1470.0885777999938,1473.0882965000055,1473.0882965000055,1473.0882965000055,1473.072251900012,f,1.3823378999950364,0.1679772000061348,1473.0722938000108,1473.0723044000042,None,,,,,,,,,,,,,,00038,001,2026-01-16_22h21.40.058,MST_task,2024.2.0,59.953404211907696,2026-01-16 22h21.48.270925 +0530,
,Scenes\034a.jpg,112,0,113,,,,,j,2.3693004999950062,0.13602629999513738,None,,,,,,113,0,112,1473.0882965000055,,,,,,,,,,,,,,,,,,,,,,,,,,,,,,1473.0723676000198,1473.0882965000055,1473.5903798000072,1473.5719275000156,,,,,,,,,,,,,,,,,,,,,,1473.5876064000186,1473.5903798000072,1473.5903798000072,1473.5903798000072,,,,1476.5886338000128,j,2.3693004999950062,0.13602629999513738,1476.5902320000168,1476.590248499997,None,,,,,,,,,,,,,,00038,001,2026-01-16_22h21.40.058,MST_task,2024.2.0,59.953404211907696,2026-01-16 22h21.48.270925 +0530,
,Scenes\067a.jpg,113,0,114,,,,,None,,,f,4.030449299985776,None,,,,114,0,113,1476.6050986000046,,,,,,,,,,,,,,,,,,,,,,,,,,,,,,1476.5903515999962,1476.6050986000046,1477.1058023000078,1477.0886273999931,,,,,,,,,,,,,,,,,,,,,,1477.0968179000192,1477.1058023000078,1477.1058023000078,1477.1058023000078,1480.104973300011,1480.104973300011,1480.104973300011,1480.0889838000003,None,,,1480.0890221000009,1484.1389573000197,f,1480.104973300011,1480.104973300011,4.030449299985776,None,,,,,,,,,,00038,001,2026-01-16_22h21.40.058,MST_task,2024.2.0,59.953404211907696,2026-01-16 22h21.48.270925 +0530,
,Scenes\073a.jpg,114,0,115,,,,,j,1.039548200002173,0.16892090000328608,None,,,,,,115,0,114,1484.1550968000083,,,,,,,,,,,,,,,,,,,,,,,,,,,,,,1484.13908730002,1484.1550968000083,1484.655361800018,1484.6386085000122,,,,,,,,,,,,,,,,,,,,,,1484.6528692000138,1484.655361800018,1484.655361800018,1484.655361800018,1487.655020700011,1487.655020700011,1487.655020700011,1487.6389172000054,j,1.039548200002173,0.16892090000328608,1487.638959200005,1487.6389703000023,None,,,,,,,,,,,,,,00038,001,2026-01-16_22h21.40.058,MST_task,2024.2.0,59.953404211907696,2026-01-16 22h21.48.270925 +0530,
,Scenes\092a.jpg,115,0,116,,,,,j,1.1952431999961846,0.1679924999771174,None,,,,,,116,0,115,1487.655020700011,,,,,,,,,,,,,,,,,,,,,,,,,,,,,,1487.6390694000002,1487.655020700011,1488.1555973000068,1488.1386361000186,,,,,,,,,,,,,,,,,,,,,,1488.146861700021,1488.1555973000068,1488.1555973000068,1488.1555973000068,1491.1549605000182,1491.1549605000182,1491.1549605000182,1491.139056200016,j,1.1952431999961846,0.1679924999771174,1491.1391116000013,1491.1391240000085,None,,,,,,,,,,,,,,00038,001,2026-01-16_22h21.40.058,MST_task,2024.2.0,59.953404211907696,2026-01-16 22h21.48.270925 +0530,
,Scenes\164a.jpg,116,0,117,,,,,j,1.000911700015422,0.16706899998825975,None,,,,,,117,0,116,1491.1549605000182,,,,,,,,,,,,,,,,,,,,,,,,,,,,,,1491.1391955,1491.1549605000182,1491.655304999993,1491.6386230000062,,,,,,,,,,,,,,,,,,,,,,1491.6451264999923,1491.655304999993,1491.655304999993,1491.655304999993,1494.6549296000157,1494.6549296000157,1494.6549296000157,1494.6390382999962,j,1.000911700015422,0.16706899998825975,1494.639085200004,1494.6390957999974,None,,,,,,,,,,,,,,00038,001,2026-01-16_22h21.40.058,MST_task,2024.2.0,59.953404211907696,2026-01-16 22h21.48.270925 +0530,
,Scenes\027a.jpg,117,0,118,,,,,f,2.6192785000021104,0.1760039999790024,None,,,,,,118,0,117,1494.6549296000157,,,,,,,,,,,,,,,,,,,,,,,,,,,,,,1494.639163600019,1494.6549296000157,1495.1554971000005,1495.1386001000064,,,,,,,,,,,,,,,,,,,,,,1495.1459118000057,1495.1554971000005,1495.1554971000005,1495.1554971000005,1498.15502570002,1498.15502570002,1498.15502570002,1498.1390505000018,f,2.6192785000021104,0.1760039999790024,1498.1390930000052,1498.1391031999956,None,,,,,,,,,,,,,,00038,001,2026-01-16_22h21.40.058,MST_task,2024.2.0,59.953404211907696,2026-01-16 22h21.48.270925 +0530,
,Scenes\173a.jpg,118,0,119,,,,,j,0.7995116999954917,0.1687932000204455,None,,,,,,119,0,118,1498.15502570002,,,,,,,,,,,,,,,,,,,,,,,,,,,,,,1498.1391677999927,1498.15502570002,1498.6553495000117,1498.6385792999936,,,,,,,,,,,,,,,,,,,,,,1498.6452168000105,1498.6553495000117,1498.6553495000117,1498.6553495000117,1501.6550023000163,1501.6550023000163,1501.6550023000163,1501.6390680000186,j,0.7995116999954917,0.1687932000204455,1501.6391129000112,1501.639123800007,None,,,,,,,,,,,,,,00038,001,2026-01-16_22h21.40.058,MST_task,2024.2.0,59.953404211907696,2026-01-16 22h21.48.270925 +0530,
,Objects\181a.jpg,119,0,120,,,,,j,1.6603360000008252,0.1594409999961499,None,,,,,,120,0,119,1501.6550023000163,,,,,,,,,,,,,,,,,,,,,,,,,,,,,,1501.6391907999932,1501.6550023000163,1502.1553784999996,1502.1385474000126,,,,,,,,,,,,,,,,,,,,,,1502.1439377000206,1502.1553784999996,1502.1553784999996,1502.1553784999996,1505.1550626000098,1505.1550626000098,1505.1550626000098,1505.1389610000188,j,1.6603360000008252,0.1594409999961499,1505.1410032999993,1505.1410205000138,None,,,,,,,,,,,,,,00038,001,2026-01-16_22h21.40.058,MST_task,2024.2.0,59.953404211907696,2026-01-16 22h21.48.270925 +0530,
,Objects\095a.jpg,120,0,121,,,,,f,1.031746699998621,0.1843430000008084,None,,,,,,121,0,120,1505.1550626000098,,,,,,,,,,,,,,,,,,,,,,,,,,,,,,1505.1410894000146,1505.1550626000098,1505.655273900018,1505.6385280000104,,,,,,,,,,,,,,,,,,,,,,1505.6497304000077,1505.655273900018,1505.655273900018,1505.655273900018,1508.6550344999996,1508.6550344999996,1508.6550344999996,1508.6390469000034,f,1.031746699998621,0.1843430000008084,1508.639093500009,1508.6391046000062,None,,,,,,,,,,,,,,00038,001,2026-01-16_22h21.40.058,MST_task,2024.2.0,59.953404211907696,2026-01-16 22h21.48.270925 +0530,
,Objects\119a.jpg,121,0,122,,,,,f,2.108334999997169,0.16738090000580996,None,,,,,,122,0,121,1508.6550344999996,,,,,,,,,,,,,,,,,,,,,,,,,,,,,,1508.6392062999948,1508.6550344999996,1509.1552742000204,1509.13857000001,,,,,,,,,,,,,,,,,,,,,,1509.1475018000056,1509.1552742000204,1509.1552742000204,1509.1552742000204,1512.1550283000106,1512.1550283000106,1512.1550283000106,1512.1388308000169,f,2.108334999997169,0.16738090000580996,1512.1388728000165,1512.1388837000122,None,,,,,,,,,,,,,,00038,001,2026-01-16_22h21.40.058,MST_task,2024.2.0,59.953404211907696,2026-01-16 22h21.48.270925 +0530,
,Objects\076a.jpg,122,0,123,,,,,f,0.8076756999944337,0.14401139999972656,None,,,,,,123,0,122,1512.1550283000106,,,,,,,,,,,,,,,,,,,,,,,,,,,,,,1512.1389772999974,1512.1550283000106,1512.6551921000064,1512.6386103999976,,,,,,,,,,,,,,,,,,,,,,1512.6410948999983,1512.6551921000064,1512.6551921000064,1512.6551921000064,1515.6549696000002,1515.6549696000002,1515.6549696000002,1515.6389766999928,f,0.8076756999944337,0.14401139999972656,1515.6390180000162,1515.6390287000104,None,,,,,,,,,,,,,,00038,001,2026-01-16_22h21.40.058,MST_task,2024.2.0,59.953404211907696,2026-01-16 22h21.48.270925 +0530,
,Objects\115a.jpg,123,0,124,,,,,f,0.5876579000032507,0.15203230001498014,None,,,,,,124,0,123,1515.6549696000002,,,,,,,,,,,,,,,,,,,,,,,,,,,,,,1515.6391234000039,1515.6549696000002,1516.155223400012,1516.1386091000168,,,,,,,,,,,,,,,,,,,,,,1516.1411827999982,1516.155223400012,1516.155223400012,1516.155223400012,1519.1550204000087,1519.1550204000087,1519.1550204000087,1519.1388054999989,f,0.5876579000032507,0.15203230001498014,1519.138854299992,1519.1388653000176,None,,,,,,,,,,,,,,00038,001,2026-01-16_22h21.40.058,MST_task,2024.2.0,59.953404211907696,2026-01-16 22h21.48.270925 +0530,
,Objects\042a.jpg,124,0,125,,,,,j,1.2076802999945357,0.16799210000317544,None,,,,,,125,0,124,1519.1550204000087,,,,,,,,,,,,,,,,,,,,,,,,,,,,,,1519.1389607000165,1519.1550204000087,1519.6551586000132,1519.6386604,,,,,,,,,,,,,,,,,,,,,,1519.6481603000138,1519.6551586000132,1519.6551586000132,1519.6551586000132,1522.654977099999,1522.654977099999,1522.654977099999,1522.6389148000162,j,1.2076802999945357,0.16799210000317544,1522.6389554000052,1522.6389660999994,None,,,,,,,,,,,,,,00038,001,2026-01-16_22h21.40.058,MST_task,2024.2.0,59.953404211907696,2026-01-16 22h21.48.270925 +0530,
,Objects\177a.jpg,125,0,126,,,,,j,1.3325159999949392,0.15986210000119172,None,,,,,,126,0,125,1522.654977099999,,,,,,,,,,,,,,,,,,,,,,,,,,,,,,1522.639030100021,1522.654977099999,1523.1550994999998,1523.1385894000123,,,,,,,,,,,,,,,,,,,,,,1523.147724200011,1523.1550994999998,1523.1550994999998,1523.1550994999998,1526.1548671000055,1526.1548671000055,1526.1548671000055,1526.1388761000126,j,1.3325159999949392,0.15986210000119172,1526.138919799996,1526.1389333000116,None,,,,,,,,,,,,,,00038,001,2026-01-16_22h21.40.058,MST_task,2024.2.0,59.953404211907696,2026-01-16 22h21.48.270925 +0530,
,Scenes\100a.jpg,126,0,127,,,,,f,1.5601140999933705,0.16004700001212768,None,,,,,,127,0,126,1526.1548671000055,,,,,,,,,,,,,,,,,,,,,,,,,,,,,,1526.1390314000018,1526.1548671000055,1526.6554263000144,1526.6385349000047,,,,,,,,,,,,,,,,,,,,,,1526.6490976000205,1526.6554263000144,1526.6554263000144,1526.6554263000144,1529.6549341999926,1529.6549341999926,1529.6549341999926,1529.6388437999994,f,1.5601140999933705,0.16004700001212768,1529.6404434000142,1529.6404601999966,None,,,,,,,,,,,,,,00038,001,2026-01-16_22h21.40.058,MST_task,2024.2.0,59.953404211907696,2026-01-16 22h21.48.270925 +0530,
,Scenes\103a.jpg,127,0,128,,,,,j,0.5881102999846917,0.16801560000749305,None,,,,,,128,0,127,1529.6549341999926,,,,,,,,,,,,,,,,,,,,,,,,,,,,,,1529.6405578000122,1529.6549341999926,1530.1556993999984,1530.1385015000124,,,,,,,,,,,,,,,,,,,,,,1530.1491113000084,1530.1556993999984,1530.1556993999984,1530.1556993999984,1533.154926999996,1533.154926999996,1533.154926999996,1533.1387243999925,j,0.5881102999846917,0.16801560000749305,1533.138766100019,1533.138777300017,None,,,,,,,,,,,,,,00038,001,2026-01-16_22h21.40.058,MST_task,2024.2.0,59.953404211907696,2026-01-16 22h21.48.270925 +0530,
,Scenes\142a.jpg,128,0,129,,,,,j,1.215908300015144,0.16802320000715554,None,,,,,,129,0,128,1533.154926999996,,,,,,,,,,,,,,,,,,,,,,,,,,,,,,1533.1388708000013,1533.154926999996,1533.6552149000054,1533.6385119000042,,,,,,,,,,,,,,,,,,,,,,1533.6473691000137,1533.6552149000054,1533.6552149000054,1533.6552149000054,1536.6549902000115,1536.6549902000115,1536.6549902000115,1536.6388971999986,j,1.215908300015144,0.16802320000715554,1536.6389413000143,1536.6389527000138,None,,,,,,,,,,,,,,00038,001,2026-01-16_22h21.40.058,MST_task,2024.2.0,59.953404211907696,2026-01-16 22h21.48.270925 +0530,
,Scenes\120a.jpg,129,0,130,,,,,j,0.6115480000153184,0.1847119999874849,None,,,,,,130,0,129,1536.6549902000115,,,,,,,,,,,,,,,,,,,,,,,,,,,,,,1536.6390487000172,1536.6549902000115,1537.1555162000004,1537.138448600017,,,,,,,,,,,,,,,,,,,,,,1537.147012500005,1537.1555162000004,1537.1555162000004,1537.1555162000004,1540.1550424000015,1540.1550424000015,1540.1550424000015,1540.139126199996,j,0.6115480000153184,0.1847119999874849,1540.1391751000192,1540.1391861000156,None,,,,,,,,,,,,,,00038,001,2026-01-16_22h21.40.058,MST_task,2024.2.0,59.953404211907696,2026-01-16 22h21.48.270925 +0530,
,Scenes\058a.jpg,130,0,131,,,,,f,1.5278453000064474,0.20800329998019151,None,,,,,,131,0,130,1540.1550424000015,,,,,,,,,,,,,,,,,,,,,,,,,,,,,,1540.1392936000193,1540.1550424000015,1540.6557092000148,1540.638460200018,,,,,,,,,,,,,,,,,,,,,,1540.647497500002,1540.6557092000148,1540.6557092000148,1540.6557092000148,1543.6549338000186,1543.6549338000186,1543.6549338000186,1543.6387684000074,f,1.5278453000064474,0.20800329998019151,1543.6388110000116,1543.6388213000027,None,,,,,,,,,,,,,,00038,001,2026-01-16_22h21.40.058,MST_task,2024.2.0,59.953404211907696,2026-01-16 22h21.48.270925 +0530,
,Scenes\083a.jpg,131,0,132,,,,,j,0.6367042000056244,0.17540929999086075,None,,,,,,132,0,131,1543.6549338000186,,,,,,,,,,,,,,,,,,,,,,,,,,,,,,1543.638915699994,1543.6549338000186,1544.1552392000158,1544.13855220002,,,,,,,,,,,,,,,,,,,,,,1544.145862400008,1544.1552392000158,1544.1552392000158,1544.1552392000158,1547.1548924999952,1547.1548924999952,1547.1548924999952,1547.138861400017,j,0.6367042000056244,0.17540929999086075,1547.1389041999937,1547.138914900017,None,,,,,,,,,,,,,,00038,001,2026-01-16_22h21.40.058,MST_task,2024.2.0,59.953404211907696,2026-01-16 22h21.48.270925 +0530,
,Scenes\191a.jpg,132,0,133,,,,,j,1.111384599993471,0.16803870000876486,None,,,,,,133,0,132,1547.1548924999952,,,,,,,,,,,,,,,,,,,,,,,,,,,,,,1547.1390178000147,1547.1548924999952,1547.655563200009,1547.638441100018,,,,,,,,,,,,,,,,,,,,,,1547.645031699998,1547.655563200009,1547.655563200009,1547.655563200009,1550.654969700001,1550.654969700001,1550.654969700001,1550.6391068999947,j,1.111384599993471,0.16803870000876486,1550.6391558000178,1550.639167300018,None,,,,,,,,,,,,,,00038,001,2026-01-16_22h21.40.058,MST_task,2024.2.0,59.953404211907696,2026-01-16 22h21.48.270925 +0530,
,Objects\148a.jpg,133,0,134,,,,,f,1.9724219999916386,0.2240000999881886,None,,,,,,134,0,133,1550.654969700001,,,,,,,,,,,,,,,,,,,,,,,,,,,,,,1550.6392365999927,1550.654969700001,1551.1554018000024,1551.138497100008,,,,,,,,,,,,,,,,,,,,,,1551.1521244000178,1551.1554018000024,1551.1554018000024,1551.1554018000024,1554.1548613000195,1554.1548613000195,1554.1548613000195,1554.1388218000066,f,1.9724219999916386,0.2240000999881886,1554.1408744000073,1554.1408913000196,None,,,,,,,,,,,,,,00038,001,2026-01-16_22h21.40.058,MST_task,2024.2.0,59.953404211907696,2026-01-16 22h21.48.270925 +0530,
,Objects\031a.jpg,134,0,135,,,,,j,0.664141599991126,0.1840331999992486,None,,,,,,135,0,134,1554.1548613000195,,,,,,,,,,,,,,,,,,,,,,,,,,,,,,1554.1409604999935,1554.1548613000195,1554.6551701000135,1554.6384795000195,,,,,,,,,,,,,,,,,,,,,,1554.6412381000118,1554.6551701000135,1554.6551701000135,1554.6551701000135,1557.654938199994,1557.654938199994,1557.654938199994,1557.6388566000096,j,0.664141599991126,0.1840331999992486,1557.6389014000015,1557.6389121999964,None,,,,,,,,,,,,,,00038,001,2026-01-16_22h21.40.058,MST_task,2024.2.0,59.953404211907696,2026-01-16 22h21.48.270925 +0530,
,Objects\065a.jpg,135,0,136,,,,,j,0.9640361999918241,0.14398789999540895,None,,,,,,136,0,135,1557.654938199994,,,,,,,,,,,,,,,,,,,,,,,,,,,,,,1557.639007699996,1557.654938199994,1558.1551637999946,1558.1385585000098,,,,,,,,,,,,,,,,,,,,,,1558.1410820000165,1558.1551637999946,1558.1551637999946,1558.1551637999946,1561.1549769999983,1561.1549769999983,1561.1549769999983,1561.1388785000017,j,0.9640361999918241,0.14398789999540895,1561.1389232999936,1561.1389338000154,None,,,,,,,,,,,,,,00038,001,2026-01-16_22h21.40.058,MST_task,2024.2.0,59.953404211907696,2026-01-16 22h21.48.270925 +0530,
,Objects\158a.jpg,136,0,137,,,,,f,0.7518364999850746,0.19199420002405532,None,,,,,,137,0,136,1561.1549769999983,,,,,,,,,,,,,,,,,,,,,,,,,,,,,,1561.1390404000122,1561.1549769999983,1561.6551447999955,1561.6384326000116,,,,,,,,,,,,,,,,,,,,,,1561.6411281000182,1561.6551447999955,1561.6551447999955,1561.6551447999955,1564.6549311999988,1564.6549311999988,1564.6549311999988,1564.638866399997,f,0.7518364999850746,0.19199420002405532,1564.6389090000011,1564.638919399993,None,,,,,,,,,,,,,,00038,001,2026-01-16_22h21.40.058,MST_task,2024.2.0,59.953404211907696,2026-01-16 22h21.48.270925 +0530,
,Objects\066a.jpg,137,0,138,,,,,j,2.508676099998411,0.14314120000926778,None,,,,,,138,0,137,1564.6549311999988,,,,,,,,,,,,,,,,,,,,,,,,,,,,,,1564.6390161000018,1564.6549311999988,1565.1551693000074,1565.1385618000058,,,,,,,,,,,,,,,,,,,,,,1565.1415613999998,1565.1551693000074,1565.1551693000074,1565.1551693000074,1568.1549594000098,1568.1549594000098,1568.1549594000098,1568.1387977999984,j,2.508676099998411,0.14314120000926778,1568.1388402000011,1568.1388504999923,None,,,,,,,,,,,,,,00038,001,2026-01-16_22h21.40.058,MST_task,2024.2.0,59.953404211907696,2026-01-16 22h21.48.270925 +0530,
,Objects\043a.jpg,138,0,139,,,,,f,0.8158658999891486,0.159971899993252,None,,,,,,139,0,138,1568.1549594000098,,,,,,,,,,,,,,,,,,,,,,,,,,,,,,1568.1389151000185,1568.1549594000098,1568.6550943000184,1568.6386000000057,,,,,,,,,,,,,,,,,,,,,,1568.6412861999997,1568.6550943000184,1568.6550943000184,1568.6550943000184,1571.6549648999935,1571.6549648999935,1571.6549648999935,1571.639285000012,f,0.8158658999891486,0.159971899993252,1571.6393340000068,1571.6393453000055,None,,,,,,,,,,,,,,00038,001,2026-01-16_22h21.40.058,MST_task,2024.2.0,59.953404211907696,2026-01-16 22h21.48.270925 +0530,
,Objects\026a.jpg,139,0,140,,,,,f,0.988269900000887,0.1920531999785453,None,,,,,,140,0,139,1571.6549648999935,,,,,,,,,,,,,,,,,,,,,,,,,,,,,,1571.6394164999947,1571.6549648999935,1572.1552491000039,1572.1385953999998,,,,,,,,,,,,,,,,,,,,,,1572.1494333000155,1572.1552491000039,1572.1552491000039,1572.1552491000039,1575.1549335000163,1575.1549335000163,1575.1549335000163,1575.1388245999988,f,0.988269900000887,0.1920531999785453,1575.138866399997,1575.1388771000202,None,,,,,,,,,,,,,,00038,001,2026-01-16_22h21.40.058,MST_task,2024.2.0,59.953404211907696,2026-01-16 22h21.48.270925 +0530,
,Scenes\169a.jpg,140,0,141,,,,,j,0.559401499980595,0.16800030000740662,None,,,,,,141,0,140,1575.1549335000163,,,,,,,,,,,,,,,,,,,,,,,,,,,,,,1575.1389729999937,1575.1549335000163,1575.656494099996,1575.6385279000096,,,,,,,,,,,,,,,,,,,,,,1575.654242699995,1575.656494099996,1575.656494099996,1575.656494099996,,,,1578.6552176999976,j,0.559401499980595,0.16800030000740662,1578.656822799996,1578.6568400000106,None,,,,,,,,,,,,,,00038,001,2026-01-16_22h21.40.058,MST_task,2024.2.0,59.953404211907696,2026-01-16 22h21.48.270925 +0530,
,Scenes\082a.jpg,141,0,142,,,,,f,1.6991474000096787,0.15201530000194907,None,,,,,,142,0,141,1578.6715436000086,,,,,,,,,,,,,,,,,,,,,,,,,,,,,,1578.656909000012,1578.6715436000086,1579.1720006999967,1579.155151200015,,,,,,,,,,,,,,,,,,,,,,1579.1660411000194,1579.1720006999967,1579.1720006999967,1579.1720006999967,1582.1717013000161,1582.1717013000161,1582.1717013000161,1582.1554528000124,f,1.6991474000096787,0.15201530000194907,1582.1554952000151,1582.1555053000047,None,,,,,,,,,,,,,,00038,001,2026-01-16_22h21.40.058,MST_task,2024.2.0,59.953404211907696,2026-01-16 22h21.48.270925 +0530,
,Scenes\032a.jpg,142,0,143,,,,,j,0.690229800005909,0.1589758000045549,None,,,,,,143,0,142,1582.1717013000161,,,,,,,,,,,,,,,,,,,,,,,,,,,,,,1582.1556076999987,1582.1717013000161,1582.677780900005,1582.6552206000197,,,,,,,,,,,,,,,,,,,,,,1582.6750398000004,1582.677780900005,1582.677780900005,1582.677780900005,,,,1585.6717565,j,0.690229800005909,0.1589758000045549,1585.671807900013,1585.671824399993,None,,,,,,,,,,,,,,00038,001,2026-01-16_22h21.40.058,MST_task,2024.2.0,59.953404211907696,2026-01-16 22h21.48.270925 +0530,
,Scenes\022a.jpg,143,0,144,,,,,j,0.7058718999905977,0.14396570000099018,None,,,,,,144,0,143,1585.688338100008,,,,,,,,,,,,,,,,,,,,,,,,,,,,,,1585.6718976999982,1585.688338100008,1586.1889986000024,1586.1719588999986,,,,,,,,,,,,,,,,,,,,,,1586.1824992000184,1586.1889986000024,1586.1889986000024,1586.1889986000024,1589.1883850000158,1589.1883850000158,1589.1883850000158,1589.172127400001,j,0.7058718999905977,0.14396570000099018,1589.1721708000114,1589.1721818000078,None,,,,,,,,,,,,,,00038,001,2026-01-16_22h21.40.058,MST_task,2024.2.0,59.953404211907696,2026-01-16 22h21.48.270925 +0530,
,Scenes\176a.jpg,144,0,145,,,,,j,0.9427358999964781,0.1442586999910418,None,,,,,,145,0,144,1589.1883850000158,,,,,,,,,,,,,,,,,,,,,,,,,,,,,,1589.1722764000006,1589.1883850000158,1589.6889762000064,1589.671825700003,,,,,,,,,,,,,,,,,,,,,,1589.6824180000112,1589.6889762000064,1589.6889762000064,1589.6889762000064,1592.6884295000054,1592.6884295000054,1592.6884295000054,1592.6722938000166,j,0.9427358999964781,0.1442586999910418,1592.6723394000146,1592.672349600005,None,,,,,,,,,,,,,,00038,001,2026-01-16_22h21.40.058,MST_task,2024.2.0,59.953404211907696,2026-01-16 22h21.48.270925 +0530,
,Scenes\140a.jpg,145,0,146,,,,,j,0.8744301000260748,0.16799869999522343,None,,,,,,146,0,145,1592.6884295000054,,,,,,,,,,,,,,,,,,,,,,,,,,,,,,1592.672414700006,1592.6884295000054,1593.1890043000167,1593.1719081000192,,,,,,,,,,,,,,,,,,,,,,1593.1777829000202,1593.1890043000167,1593.1890043000167,1593.1890043000167,1596.1883742999926,1596.1883742999926,1596.1883742999926,1596.1723553000193,j,0.8744301000260748,0.16799869999522343,1596.1723968000151,1596.1724077000108,None,,,,,,,,,,,,,,00038,001,2026-01-16_22h21.40.058,MST_task,2024.2.0,59.953404211907696,2026-01-16 22h21.48.270925 +0530,
,Scenes\070a.jpg,146,0,147,,,,,f,1.1318514000158757,0.20798289999947883,None,,,,,,147,0,146,1596.1883742999926,,,,,,,,,,,,,,,,,,,,,,,,,,,,,,1596.1725023000035,1596.1883742999926,1596.6914990000078,1596.6720902000088,,,,,,,,,,,,,,,,,,,,,,1596.6891398000007,1596.6914990000078,1596.6914990000078,1596.6914990000078,,,,1599.6886618999997,f,1.1318514000158757,0.20798289999947883,1599.6887056000123,1599.6887176000164,None,,,,,,,,,,,,,,00038,001,2026-01-16_22h21.40.058,MST_task,2024.2.0,59.953404211907696,2026-01-16 22h21.48.270925 +0530,
,Objects\173a.jpg,147,0,148,,,,,f,1.3538843999849632,0.19206780000240542,None,,,,,,148,0,147,1599.7049840000109,,,,,,,,,,,,,,,,,,,,,,,,,,,,,,1599.6888173000189,1599.7049840000109,1600.2056534000149,1600.1886835000187,,,,,,,,,,,,,,,,,,,,,,1600.1946722000139,1600.2056534000149,1600.2056534000149,1600.2056534000149,1603.205088000017,1603.205088000017,1603.205088000017,1603.1888697000104,f,1.3538843999849632,0.19206780000240542,1603.1908951000078,1603.1909118000185,None,,,,,,,,,,,,,,00038,001,2026-01-16_22h21.40.058,MST_task,2024.2.0,59.953404211907696,2026-01-16 22h21.48.270925 +0530,
,Objects\130a.jpg,148,0,149,,,,,j,1.142892900010338,0.1589823999966029,None,,,,,,149,0,148,1603.205088000017,,,,,,,,,,,,,,,,,,,,,,,,,,,,,,1603.1910105000134,1603.205088000017,1603.7052096000116,1603.6885634000064,,,,,,,,,,,,,,,,,,,,,,1603.6912676999927,1603.7052096000116,1603.7052096000116,1603.7052096000116,1606.7049867000023,1606.7049867000023,1606.7049867000023,1606.6890080000157,j,1.142892900010338,0.1589823999966029,1606.6890490000078,1606.6890590999974,None,,,,,,,,,,,,,,00038,001,2026-01-16_22h21.40.058,MST_task,2024.2.0,59.953404211907696,2026-01-16 22h21.48.270925 +0530,
,Objects\064a.jpg,149,0,150,,,,,f,0.8735406000050716,0.15198979998240247,None,,,,,,150,0,149,1606.7049867000023,,,,,,,,,,,,,,,,,,,,,,,,,,,,,,1606.6891243999999,1606.7049867000023,1607.20531260001,1607.1886236999999,,,,,,,,,,,,,,,,,,,,,,1607.1981634999975,1607.20531260001,1607.20531260001,1607.20531260001,1610.205008799996,1610.205008799996,1610.205008799996,1610.1889467000146,f,0.8735406000050716,0.15198979998240247,1610.1889893000189,1610.189000000013,None,,,,,,,,,,,,,,00038,001,2026-01-16_22h21.40.058,MST_task,2024.2.0,59.953404211907696,2026-01-16 22h21.48.270925 +0530,
,Objects\187a.jpg,150,0,151,,,,,f,0.5744675000023562,0.19114670000271872,None,,,,,,151,0,150,1610.205008799996,,,,,,,,,,,,,,,,,,,,,,,,,,,,,,1610.189092500019,1610.205008799996,1610.7052991999954,1610.6886232999968,,,,,,,,,,,,,,,,,,,,,,1610.691315300006,1610.7052991999954,1610.7052991999954,1610.7052991999954,1613.705008399993,1613.705008399993,1613.705008399993,1613.6889653000108,f,0.5744675000023562,0.19114670000271872,1613.6890081000165,1613.6890192000137,None,,,,,,,,,,,,,,00038,001,2026-01-16_22h21.40.058,MST_task,2024.2.0,59.953404211907696,2026-01-16 22h21.48.270925 +0530,
,Objects\192a.jpg,151,0,152,,,,,f,0.818043499981286,0.20800370001234114,None,,,,,,152,0,151,1613.705008399993,,,,,,,,,,,,,,,,,,,,,,,,,,,,,,1613.6891141000087,1613.705008399993,1614.2052905000164,1614.1886604000174,,,,,,,,,,,,,,,,,,,,,,1614.199198300019,1614.2052905000164,1614.2052905000164,1614.2052905000164,1617.2050377000123,1617.2050377000123,1617.2050377000123,1617.188842100004,f,0.818043499981286,0.20800370001234114,1617.1888835999998,1617.188894299994,None,,,,,,,,,,,,,,00038,001,2026-01-16_22h21.40.058,MST_task,2024.2.0,59.953404211907696,2026-01-16 22h21.48.270925 +0530,
,Objects\140a.jpg,152,0,153,,,,,None,,,f,1.9745109000068624,None,,,,153,0,152,1617.2050377000123,,,,,,,,,,,,,,,,,,,,,,,,,,,,,,1617.188959399995,1617.2050377000123,1617.7051382999925,1617.6885493000154,,,,,,,,,,,,,,,,,,,,,,1617.6912430000084,1617.7051382999925,1617.7051382999925,1617.7051382999925,1620.7049982000026,1620.7049982000026,1620.7049982000026,1620.6889757000026,None,,,1620.6890144000063,1622.6888023999927,f,1620.7049982000026,1620.7049982000026,1.9745109000068624,None,,,,,,,,,,00038,001,2026-01-16_22h21.40.058,MST_task,2024.2.0,59.953404211907696,2026-01-16 22h21.48.270925 +0530,
,Objects\089a.jpg,153,0,154,,,,,j,0.6743308000150137,0.17592049998347647,None,,,,,,154,0,153,1622.7050554000016,,,,,,,,,,,,,,,,,,,,,,,,,,,,,,1622.6888873999997,1622.7050554000016,1623.2052161000029,1623.1886057000083,,,,,,,,,,,,,,,,,,,,,,1623.1915549999976,1623.2052161000029,1623.2052161000029,1623.2052161000029,1626.2050564000092,1626.2050564000092,1626.2050564000092,1626.1888506000105,j,0.6743308000150137,0.17592049998347647,1626.1888936000178,1626.1889048000157,None,,,,,,,,,,,,,,00038,001,2026-01-16_22h21.40.058,MST_task,2024.2.0,59.953404211907696,2026-01-16 22h21.48.270925 +0530,
,Scenes\162a.jpg,154,0,155,,,,,j,1.3254804000025615,0.19314300001133233,None,,,,,,155,0,154,1626.2050564000092,,,,,,,,,,,,,,,,,,,,,,,,,,,,,,1626.1890003000153,1626.2050564000092,1626.7053840000008,1626.6885892999999,,,,,,,,,,,,,,,,,,,,,,1626.6968505000114,1626.7053840000008,1626.7053840000008,1626.7053840000008,1629.7050372000085,1629.7050372000085,1629.7050372000085,1629.6891590000014,j,1.3254804000025615,0.19314300001133233,1629.6907891000155,1629.6908173999982,None,,,,,,,,,,,,,,00038,001,2026-01-16_22h21.40.058,MST_task,2024.2.0,59.953404211907696,2026-01-16 22h21.48.270925 +0530,
,Scenes\158a.jpg,155,0,156,,,,,j,0.9051399999880232,0.22514480000245385,None,,,,,,156,0,155,1629.7050372000085,,,,,,,,,,,,,,,,,,,,,,,,,,,,,,1629.6909165999969,1629.7050372000085,1630.2057464999962,1630.188639400003,,,,,,,,,,,,,,,,,,,,,,1630.1987249999947,1630.2057464999962,1630.2057464999962,1630.2057464999962,1633.2050660999957,1633.2050660999957,1633.2050660999957,1633.188964400004,j,0.9051399999880232,0.22514480000245385,1633.189005799999,1633.1890171999985,None,,,,,,,,,,,,,,00038,001,2026-01-16_22h21.40.058,MST_task,2024.2.0,59.953404211907696,2026-01-16 22h21.48.270925 +0530,
,Scenes\001a.jpg,156,0,157,,,,,f,1.0255646999867167,0.2084403999906499,None,,,,,,157,0,156,1633.2050660999957,,,,,,,,,,,,,,,,,,,,,,,,,,,,,,1633.1890830000048,1633.2050660999957,1633.7093689000176,1633.6886734,,,,,,,,,,,,,,,,,,,,,,1633.7070609999937,1633.7093689000176,1633.7093689000176,1633.7093689000176,,,,1636.705315500003,f,1.0255646999867167,0.2084403999906499,1636.7053579000058,1636.7053691000037,None,,,,,,,,,,,,,,00038,001,2026-01-16_22h21.40.058,MST_task,2024.2.0,59.953404211907696,2026-01-16 22h21.48.270925 +0530,
