Sl_no,image_path,thisN,thisTrialN,thisRepN,key_resp_5.keys,key_resp_7.keys,key_resp_7.rt,key_resp_7.duration,key_resp_5.rt,key_resp_5.duration,key_resp_9.keys,key_resp_9.rt,key_resp_9.duration,key_resp_8.keys,key_resp_8.rt,key_resp_8.duration,practice.thisRepN,practice.thisTrialN,practice.thisN,trials.thisRepN,trials.thisTrialN,trials.thisN,thisRow.t,notes,welcome_page.started,text.started,key_resp.started,welcome_page.stopped,key_resp.keys,key_resp.rt,key_resp.duration,instructions.started,ins.started,key_resp_2.started,instructions.stopped,key_resp_2.keys,key_resp_2.rt,key_resp_2.duration,instructions_2.started,text_10.started,key_resp_10.started,instructions_2.stopped,key_resp_10.keys,key_resp_10.rt,key_resp_10.duration,objects_only_instruction.started,text_3.started,key_resp_3.started,objects_only_instruction.stopped,key_resp_3.keys,key_resp_3.rt,key_resp_3.duration,ISI.started,text_4.started,ISI.stopped,practice_block.started,image.started,text_5.started,key_resp_5.started,practice_block.stopped,practice.key_resp_5.keys,indoor_outdoor.started,text_7.started,key_resp_7.started,indoor_outdoor.stopped,practice.key_resp_7.keys,practice.key_resp_7.rt,practice.key_resp_7.duration,text_4.stopped,practice.key_resp_5.rt,practice.key_resp_5.duration,practice_to_main.started,text_2.started,key_resp_4.started,practice_to_main.stopped,key_resp_4.keys,key_resp_4.rt,key_resp_4.duration,objects.started,image_2.started,text_9.started,key_resp_9.started,objects.stopped,trials.key_resp_9.keys,trials.key_resp_9.rt,trials.key_resp_9.duration,encoding_task.started,encoding_task.stopped,trials.key_resp_8.keys,text_8.started,key_resp_8.started,trials.key_resp_8.rt,trials.key_resp_8.duration,end_experiment.started,text_6.started,key_resp_6.started,end_experiment.stopped,key_resp_6.keys,key_resp_6.rt,key_resp_6.duration,list_of_stimuli,encoding_task_accuracy,participant,session,date,expName,psychopyVersion,frameRate,expStart,
,,,,,,,,,,,,,,,,,,,,,,,,,0.0014224000005924609,0.0035380999997869367,0.0035380999997869367,11.055689799999527,space,11.03723969999919,None,,,,,,,,,,,,,,,,,,,,,,,,,,,,,,,,,,,,,,,,,,,,,,,,,,,,,,,,,,,,,,,,,,,,,,,,00033,001,2026-01-16_12h22.39.096,MST_task,2024.2.0,59.8717427520787,2026-01-16 12h22.59.655800 +0530,
,,,,,,,,,,,,,,,,,,,,,,,,,,,,,,,,11.055740499999956,11.07142019999992,11.07142019999992,36.43331670000043,space,25.352840300000025,None,,,,,,,,,,,,,,,,,,,,,,,,,,,,,,,,,,,,,,,,,,,,,,,,,,,,,,,,,,,,,,,,,00033,001,2026-01-16_12h22.39.096,MST_task,2024.2.0,59.8717427520787,2026-01-16 12h22.59.655800 +0530,
,,,,,,,,,,,,,,,,,,,,,,,,,,,,,,,,,,,,,,,36.43341800000053,36.448369400000956,36.448369400000956,60.667768700001034,space,24.215452200000072,None,,,,,,,,,,,,,,,,,,,,,,,,,,,,,,,,,,,,,,,,,,,,,,,,,,,,,,,,,,00033,001,2026-01-16_12h22.39.096,MST_task,2024.2.0,59.8717427520787,2026-01-16 12h22.59.655800 +0530,
,,,,,,,,,,,,,,,,,,,,,,,,,,,,,,,,,,,,,,,,,,,,,,60.66788389999965,60.68538970000009,60.68538970000009,90.48347130000002,space,29.786275900001783,None,,,,,,,,,,,,,,,,,,,,,,,,,,,,,,,,,,,,,,,,,,,,,,,,,,,00033,001,2026-01-16_12h22.39.096,MST_task,2024.2.0,59.8717427520787,2026-01-16 12h22.59.655800 +0530,
7,practice_images/166a.jpg,0,0,1,None,f,6.976192199999787,None,,,,,,,,,1,0,0,,,,90.52524020000055,,,,,,,,,,,,,,,,,,,,,,,,,,,,,,90.5209704000008,90.52524020000055,90.99877410000045,91.06615930000044,91.10188469999957,91.10188469999957,91.10188469999957,93.99895610000021,None,94.0025440999998,94.01506460000019,94.01506460000019,101.00060730000041,f,6.976192199999787,None,,,,,,,,,,,,,,,,,,,,,,,,,,,,,,,,,,,00033,001,2026-01-16_12h22.39.096,MST_task,2024.2.0,59.8717427520787,2026-01-16 12h22.59.655800 +0530,
3,practice_images/037a.jpg,1,1,1,None,f,1.1076663000003464,None,,,,,,,,,1,1,1,,,,101.01520710000113,,,,,,,,,,,,,,,,,,,,,,,,,,,,,,101.00104610000017,101.01520710000113,101.4996413000008,101.55090500000006,101.5537901000007,101.5537901000007,101.5537901000007,104.51564950000102,None,104.51578750000044,104.5318728000002,104.5318728000002,105.65070659999947,f,1.1076663000003464,None,101.5537901000007,,,,,,,,,,,,,,,,,,,,,,,,,,,,,,,,,,00033,001,2026-01-16_12h22.39.096,MST_task,2024.2.0,59.8717427520787,2026-01-16 12h22.59.655800 +0530,
1,practice_images/013a.jpg,2,2,1,None,j,0.8017361999991408,None,,,,,,,,,1,2,2,,,,105.66520090000085,,,,,,,,,,,,,,,,,,,,,,,,,,,,,,105.65107030000036,105.66520090000085,106.14974020000045,106.20950459999949,106.21278970000094,106.21278970000094,106.21278970000094,109.16553440000098,None,109.16563450000103,109.18167379999977,109.18167379999977,110.00043300000107,j,0.8017361999991408,None,106.21278970000094,,,,,,,,,,,,,,,,,,,,,,,,,,,,,,,,,,00033,001,2026-01-16_12h22.39.096,MST_task,2024.2.0,59.8717427520787,2026-01-16 12h22.59.655800 +0530,
6,practice_images/158a.jpg,3,3,1,j,None,,,1.1659070000005158,0.17605289999846718,,,,,,,1,3,3,,,,110.01516240000092,,,,,,,,,,,,,,,,,,,,,,,,,,,,,,110.00070890000097,110.01516240000092,110.49957490000088,110.51812470000004,110.52226330000121,110.52226330000121,110.52226330000121,113.5155494999999,j,113.51568469999984,,,113.51572400000077,None,,,110.52226330000121,1.1659070000005158,0.17605289999846718,,,,,,,,,,,,,,,,,,,,,,,,,,,,,,,,00033,001,2026-01-16_12h22.39.096,MST_task,2024.2.0,59.8717427520787,2026-01-16 12h22.59.655800 +0530,
8,practice_images/178a.jpg,4,4,1,None,f,1.3434533999989071,None,,,,,,,,,1,4,4,,,,113.53211300000112,,,,,,,,,,,,,,,,,,,,,,,,,,,,,,113.5159005000005,113.53211300000112,114.0164963999996,114.04139920000125,114.04453180000019,114.04453180000019,114.04453180000019,117.03215889999956,None,117.03231210000013,117.04854800000066,117.04854800000066,118.40052300000025,f,1.3434533999989071,None,114.04453180000019,,,,,,,,,,,,,,,,,,,,,,,,,,,,,,,,,,00033,001,2026-01-16_12h22.39.096,MST_task,2024.2.0,59.8717427520787,2026-01-16 12h22.59.655800 +0530,
2,practice_images/031a.jpg,5,5,1,None,f,0.6511625000002823,None,,,,,,,,,1,5,5,,,,118.41511250000076,,,,,,,,,,,,,,,,,,,,,,,,,,,,,,118.4007830999999,118.41511250000076,118.89949379999962,118.9186778000003,118.92130540000107,118.92130540000107,118.92130540000107,121.91557339999963,None,121.92127220000111,121.93175520000113,121.93175520000113,122.60052850000102,f,0.6511625000002823,None,118.92130540000107,,,,,,,,,,,,,,,,,,,,,,,,,,,,,,,,,,00033,001,2026-01-16_12h22.39.096,MST_task,2024.2.0,59.8717427520787,2026-01-16 12h22.59.655800 +0530,
9,practice_images/180a.jpg,6,6,1,None,f,12.156877400000667,None,,,,,,,,,1,6,6,,,,122.6151174000006,,,,,,,,,,,,,,,,,,,,,,,,,,,,,,122.60090780000064,122.6151174000006,123.0998238000011,123.11890060000042,123.12236719999964,123.12236719999964,123.12236719999964,126.115694600001,None,126.11582710000039,126.1317325,126.1317325,138.3005602000012,f,12.156877400000667,None,123.12236719999964,,,,,,,,,,,,,,,,,,,,,,,,,,,,,,,,,,00033,001,2026-01-16_12h22.39.096,MST_task,2024.2.0,59.8717427520787,2026-01-16 12h22.59.655800 +0530,
10,practice_images/182a.jpg,7,7,1,None,f,3.7352305999993405,None,,,,,,,,,1,7,7,,,,138.31501969999954,,,,,,,,,,,,,,,,,,,,,,,,,,,,,,138.3008675000001,138.31501969999954,138.79966439999953,138.83844040000076,138.84156050000092,138.84156050000092,138.84156050000092,141.8155284000004,None,141.81566290000046,141.83174520000102,141.83174520000102,145.58349420000013,f,3.7352305999993405,None,138.84156050000092,,,,,,,,,,,,,,,,,,,,,,,,,,,,,,,,,,00033,001,2026-01-16_12h22.39.096,MST_task,2024.2.0,59.8717427520787,2026-01-16 12h22.59.655800 +0530,
5,practice_images/139a.jpg,8,8,1,None,f,2.3090064999996684,None,,,,,,,,,1,8,8,,,,145.59872870000072,,,,,,,,,,,,,,,,,,,,,,,,,,,,,,145.58373220000067,145.59872870000072,146.08308560000114,146.12157789999947,146.12454679999973,146.12454679999973,146.12454679999973,149.09889049999947,None,149.0990249000006,149.1152144000007,149.1152144000007,151.4336770000009,f,2.3090064999996684,None,146.12454679999973,,,,,,,,,,,,,,,,,,,,,,,,,,,,,,,,,,00033,001,2026-01-16_12h22.39.096,MST_task,2024.2.0,59.8717427520787,2026-01-16 12h22.59.655800 +0530,
4,practice_images/002b.jpg,9,9,1,None,f,13.522758600000088,None,,,,,,,,,1,9,9,,,,151.44870439999977,,,,,,,,,,,,,,,,,,,,,,,,,,,,,,151.43405730000086,151.44870439999977,151.93267519999972,151.95974469999965,151.96265440000025,151.96265440000025,151.96265440000025,154.94896270000027,None,154.94907609999973,154.96521740000026,154.96521740000026,168.50071920000119,f,13.522758600000088,None,151.96265440000025,,,,,,,,,,,,,,,,,,,,,,,,,,,,,,,,,,00033,001,2026-01-16_12h22.39.096,MST_task,2024.2.0,59.8717427520787,2026-01-16 12h22.59.655800 +0530,
,,,,,,,,,,,,,,,,,,,,,,,,,,,,,,,,,,,,,,,,,,,,,,,,,,,,,,,,,,,,,,,,,,,,,,,,168.50095650000003,168.51495950000026,168.51495950000026,214.15023930000098,space,45.61998909999966,None,,,,,,,,,,,,,,,,,,,,,,,,,00033,001,2026-01-16_12h22.39.096,MST_task,2024.2.0,59.8717427520787,2026-01-16 12h22.59.655800 +0530,
,Objects\079a.jpg,0,0,1,,,,,,,j,2.8770391999987623,None,None,,,,,,1,0,0,214.16504420000092,,,,,,,,,,,,,,,,,,,,,,,,,,,,,,214.15352730000086,214.16504420000092,214.64967109999998,,,,,,,,,,,,,,214.7387202000009,,,,,,,,,,214.73385380000036,214.7387202000009,214.7387202000009,214.7387202000009,217.6655208000011,j,2.8770391999987623,None,217.67139810000117,217.67143469999974,None,,,,,,,,,,,,,,00033,001,2026-01-16_12h22.39.096,MST_task,2024.2.0,59.8717427520787,2026-01-16 12h22.59.655800 +0530,
,Objects\021a.jpg,1,0,2,,,,,,,f,1.6389596000008169,0.1746696999998676,None,,,,,,2,0,1,217.68193989999963,,,,,,,,,,,,,,,,,,,,,,,,,,,,,,217.67162219999955,217.68193989999963,218.166604,,,,,,,,,,,,,,218.20984880000105,,,,,,,,,,218.2068244000002,218.20984880000105,218.20984880000105,218.20984880000105,221.18248400000084,f,1.6389596000008169,0.1746696999998676,221.1826543999996,221.18271050000112,None,,,,,,,,,,,,,,00033,001,2026-01-16_12h22.39.096,MST_task,2024.2.0,59.8717427520787,2026-01-16 12h22.59.655800 +0530,
,Objects\042a.jpg,2,0,3,,,,,,,j,2.1320027999991,0.1528398999998899,None,,,,,,3,0,2,221.19835090000015,,,,,,,,,,,,,,,,,,,,,,,,,,,,,,221.1829319999997,221.19835090000015,221.68290770000021,,,,,,,,,,,,,,221.72304520000034,,,,,,,,,,221.7203444000006,221.72304520000034,221.72304520000034,221.72304520000034,224.69893820000107,j,2.1320027999991,0.1528398999998899,224.6991177,224.69918080000025,None,,,,,,,,,,,,,,00033,001,2026-01-16_12h22.39.096,MST_task,2024.2.0,59.8717427520787,2026-01-16 12h22.59.655800 +0530,
,Objects\133a.jpg,3,0,4,,,,,,,None,,,j,1.1678883000004134,None,,,,4,0,3,224.7153128000009,,,,,,,,,,,,,,,,,,,,,,,,,,,,,,224.69949730000008,224.7153128000009,225.1995981,,,,,,,,,,,,,,225.24499680000008,,,,,,,,,,225.24186870000085,225.24499680000008,225.24499680000008,225.24499680000008,228.21554090000063,None,,,228.2156931999998,229.41689560000123,j,228.2319496,228.2319496,1.1678883000004134,None,,,,,,,,,,00033,001,2026-01-16_12h22.39.096,MST_task,2024.2.0,59.8717427520787,2026-01-16 12h22.59.655800 +0530,
,Objects\190a.jpg,4,0,5,,,,,,,None,,,f,0.41131089999908,None,,,,5,0,4,229.43168330000117,,,,,,,,,,,,,,,,,,,,,,,,,,,,,,229.41722520000076,229.43168330000117,229.9161906999998,,,,,,,,,,,,,,229.9763509000004,,,,,,,,,,229.9732285000009,229.9763509000004,229.9763509000004,229.9763509000004,232.9321989,None,,,232.9323430000004,233.3670804000012,f,232.94835059999969,232.94835059999969,0.41131089999908,None,,,,,,,,,,00033,001,2026-01-16_12h22.39.096,MST_task,2024.2.0,59.8717427520787,2026-01-16 12h22.59.655800 +0530,
,Objects\111a.jpg,5,0,6,,,,,,,j,1.1236875000013242,0.15175129999988712,None,,,,,,6,0,5,233.38182880000022,,,,,,,,,,,,,,,,,,,,,,,,,,,,,,233.36735530000078,233.38182880000022,233.8665621,,,,,,,,,,,,,,233.89220770000065,,,,,,,,,,233.88962560000073,233.89220770000065,233.89220770000065,233.89220770000065,236.88240159999987,j,1.1236875000013242,0.15175129999988712,236.88257870000052,236.88264189999973,None,,,,,,,,,,,,,,00033,001,2026-01-16_12h22.39.096,MST_task,2024.2.0,59.8717427520787,2026-01-16 12h22.59.655800 +0530,
,Objects\109a.jpg,6,0,7,,,,,,,j,1.2282746999990195,0.1449609999999666,None,,,,,,7,0,6,236.89873950000037,,,,,,,,,,,,,,,,,,,,,,,,,,,,,,236.8829536000012,236.89873950000037,237.3828109999995,,,,,,,,,,,,,,237.43490510000083,,,,,,,,,,237.4318600000006,237.43490510000083,237.43490510000083,237.43490510000083,240.39912730000106,j,1.2282746999990195,0.1449609999999666,240.39925419999963,240.39929550000124,None,,,,,,,,,,,,,,00033,001,2026-01-16_12h22.39.096,MST_task,2024.2.0,59.8717427520787,2026-01-16 12h22.59.655800 +0530,
,Scenes\123a.jpg,7,0,8,,,,,,,None,,,j,0.48326230000020587,None,,,,8,0,7,240.4150566999997,,,,,,,,,,,,,,,,,,,,,,,,,,,,,,240.39960109999993,240.4150566999997,240.89966600000116,,,,,,,,,,,,,,241.00643760000094,,,,,,,,,,241.0032764000007,241.00643760000094,241.00643760000094,241.00643760000094,243.91560310000023,None,,,243.92055509999955,244.4176877000009,j,243.93171520000033,243.93171520000033,0.48326230000020587,None,,,,,,,,,,00033,001,2026-01-16_12h22.39.096,MST_task,2024.2.0,59.8717427520787,2026-01-16 12h22.59.655800 +0530,
,Scenes\169a.jpg,8,0,9,,,,,,,None,,,j,0.7952745000002324,None,,,,9,0,8,244.43205280000075,,,,,,,,,,,,,,,,,,,,,,,,,,,,,,244.4180565000006,244.43205280000075,244.9159892000007,,,,,,,,,,,,,,244.9849634000002,,,,,,,,,,244.98146869999982,244.9849634000002,244.9849634000002,244.9849634000002,247.93210530000033,None,,,247.9322529000001,248.75069780000013,j,247.94851220000055,247.94851220000055,0.7952745000002324,None,,,,,,,,,,00033,001,2026-01-16_12h22.39.096,MST_task,2024.2.0,59.8717427520787,2026-01-16 12h22.59.655800 +0530,
,Scenes\089a.jpg,9,0,10,,,,,,,None,,,j,1.3900438000000577,None,,,,10,0,9,248.7654075999999,,,,,,,,,,,,,,,,,,,,,,,,,,,,,,248.7511028000008,248.7654075999999,249.24945520000074,,,,,,,,,,,,,,249.35801470000115,,,,,,,,,,249.35448160000124,249.35801470000115,249.35801470000115,249.35801470000115,252.2654734000007,None,,,252.26559129999987,253.6835613000003,j,252.28182490000108,252.28182490000108,1.3900438000000577,None,,,,,,,,,,00033,001,2026-01-16_12h22.39.096,MST_task,2024.2.0,59.8717427520787,2026-01-16 12h22.59.655800 +0530,
,Scenes\037a.jpg,10,0,11,,,,,,,None,,,f,1.1929067000000941,None,,,,11,0,10,253.6985347000009,,,,,,,,,,,,,,,,,,,,,,,,,,,,,,253.68390809999983,253.6985347000009,254.1828884000006,,,,,,,,,,,,,,254.30499190000046,,,,,,,,,,254.30132940000112,254.30499190000046,254.30499190000046,254.30499190000046,257.19905160000053,None,,,257.1991796000002,258.41668070000014,f,257.2153923999995,257.2153923999995,1.1929067000000941,None,,,,,,,,,,00033,001,2026-01-16_12h22.39.096,MST_task,2024.2.0,59.8717427520787,2026-01-16 12h22.59.655800 +0530,
,Scenes\168a.jpg,11,0,12,,,,,,,None,,,j,0.37971909999942,None,,,,12,0,11,258.4320660000012,,,,,,,,,,,,,,,,,,,,,,,,,,,,,,258.4169156000007,258.4320660000012,258.91685850000067,,,,,,,,,,,,,,258.9915836,,,,,,,,,,258.98863170000004,258.9915836,258.9915836,258.9915836,261.93226200000026,None,,,261.93241690000104,262.3333534000012,j,261.9484011000004,261.9484011000004,0.37971909999942,None,,,,,,,,,,00033,001,2026-01-16_12h22.39.096,MST_task,2024.2.0,59.8717427520787,2026-01-16 12h22.59.655800 +0530,
,Scenes\106a.jpg,12,0,13,,,,,,,None,,,j,0.6622814000002109,None,,,,13,0,12,262.3483111000005,,,,,,,,,,,,,,,,,,,,,,,,,,,,,,262.3335883,262.3483111000005,262.83296150000024,,,,,,,,,,,,,,262.99908460000006,,,,,,,,,,262.9958260000003,262.99908460000006,262.99908460000006,262.99908460000006,265.84889980000116,None,,,265.84906279999996,266.53353740000057,j,265.8652597,265.8652597,0.6622814000002109,None,,,,,,,,,,00033,001,2026-01-16_12h22.39.096,MST_task,2024.2.0,59.8717427520787,2026-01-16 12h22.59.655800 +0530,
,Scenes\031a.jpg,13,0,14,,,,,,,None,,,f,0.3420347999999649,None,,,,14,0,13,266.5485554000006,,,,,,,,,,,,,,,,,,,,,,,,,,,,,,266.5340102000009,266.5485554000006,267.0328585999996,,,,,,,,,,,,,,267.23808760000065,,,,,,,,,,267.2347845000004,267.23808760000065,267.23808760000065,267.23808760000065,270.0487267999997,None,,,270.0488349999996,270.41757700000016,f,270.06534190000093,270.06534190000093,0.3420347999999649,None,,,,,,,,,,00033,001,2026-01-16_12h22.39.096,MST_task,2024.2.0,59.8717427520787,2026-01-16 12h22.59.655800 +0530,
,Objects\084a.jpg,14,0,15,,,,,,,None,,,j,3.0673152999988815,None,,,,15,0,14,270.43173770000067,,,,,,,,,,,,,,,,,,,,,,,,,,,,,,270.41795450000063,270.43173770000067,270.91642520000096,,,,,,,,,,,,,,271.01699800000097,,,,,,,,,,271.01388940000106,271.01699800000097,271.01699800000097,271.01699800000097,273.933058300001,None,,,273.93896400000085,277.01762400000007,j,273.94846270000016,273.94846270000016,3.0673152999988815,None,,,,,,,,,,00033,001,2026-01-16_12h22.39.096,MST_task,2024.2.0,59.8717427520787,2026-01-16 12h22.59.655800 +0530,
,Objects\125a.jpg,15,0,16,,,,,,,None,,,j,1.63473569999951,None,,,,16,0,15,277.03180559999964,,,,,,,,,,,,,,,,,,,,,,,,,,,,,,277.0181472000004,277.03180559999964,277.5162547,,,,,,,,,,,,,,277.57545800000116,,,,,,,,,,277.5725961999997,277.57545800000116,277.57545800000116,277.57545800000116,280.53217659999973,None,,,280.53231330000017,282.2004713999995,j,280.54878839999947,280.54878839999947,1.63473569999951,None,,,,,,,,,,00033,001,2026-01-16_12h22.39.096,MST_task,2024.2.0,59.8717427520787,2026-01-16 12h22.59.655800 +0530,
,Objects\094a.jpg,16,0,17,,,,,,,None,,,f,0.7004267000011168,None,,,,17,0,16,282.2151823000004,,,,,,,,,,,,,,,,,,,,,,,,,,,,,,282.20081539999956,282.2151823000004,282.69977990000007,,,,,,,,,,,,,,282.74031509999986,,,,,,,,,,282.736910900001,282.74031509999986,282.74031509999986,282.74031509999986,285.7154919000004,None,,,285.7156438000002,286.4345219000006,f,285.73179080000045,285.73179080000045,0.7004267000011168,None,,,,,,,,,,00033,001,2026-01-16_12h22.39.096,MST_task,2024.2.0,59.8717427520787,2026-01-16 12h22.59.655800 +0530,
,Objects\135a.jpg,17,0,18,,,,,,,None,,,f,0.3703434999988531,None,,,,18,0,17,286.4484497000012,,,,,,,,,,,,,,,,,,,,,,,,,,,,,,286.4348915999999,286.4484497000012,286.933036800001,,,,,,,,,,,,,,286.960613700001,,,,,,,,,,286.9582158000012,286.960613700001,286.960613700001,286.960613700001,289.9494257999995,None,,,289.94953090000126,290.3502652999996,f,289.9650349000003,289.9650349000003,0.3703434999988531,None,,,,,,,,,,00033,001,2026-01-16_12h22.39.096,MST_task,2024.2.0,59.8717427520787,2026-01-16 12h22.59.655800 +0530,
,Objects\130a.jpg,18,0,19,,,,,,,None,,,j,0.5102647999992769,None,,,,19,0,18,290.3651743999999,,,,,,,,,,,,,,,,,,,,,,,,,,,,,,290.3508204000009,290.3651743999999,290.84947959999954,,,,,,,,,,,,,,290.90058090000093,,,,,,,,,,290.89756640000087,290.90058090000093,290.90058090000093,290.90058090000093,293.8655068999997,None,,,293.86565599999994,294.40028900000107,j,293.88184739999997,293.88184739999997,0.5102647999992769,None,,,,,,,,,,00033,001,2026-01-16_12h22.39.096,MST_task,2024.2.0,59.8717427520787,2026-01-16 12h22.59.655800 +0530,
,Objects\100a.jpg,19,0,20,,,,,,,None,,,f,0.6593525000007503,None,,,,20,0,19,294.41517569999996,,,,,,,,,,,,,,,,,,,,,,,,,,,,,,294.40067050000107,294.41517569999996,294.8994018000012,,,,,,,,,,,,,,294.9318144000008,,,,,,,,,,294.9289320000007,294.9318144000008,294.9318144000008,294.9318144000008,297.91561250000086,None,,,297.91577210000105,298.5992117000005,f,297.9319878999995,297.9319878999995,0.6593525000007503,None,,,,,,,,,,00033,001,2026-01-16_12h22.39.096,MST_task,2024.2.0,59.8717427520787,2026-01-16 12h22.59.655800 +0530,
,Objects\110a.jpg,20,0,21,,,,,,,None,,,j,0.6193425000001298,None,,,,21,0,20,298.6150467000007,,,,,,,,,,,,,,,,,,,,,,,,,,,,,,298.5993672000004,298.6150467000007,299.0993603000006,,,,,,,,,,,,,,299.1475224000005,,,,,,,,,,299.1440652000001,299.1475224000005,299.1475224000005,299.1475224000005,302.115334600001,None,,,302.11546009999984,302.7667803000004,j,302.13188919999993,302.13188919999993,0.6193425000001298,None,,,,,,,,,,00033,001,2026-01-16_12h22.39.096,MST_task,2024.2.0,59.8717427520787,2026-01-16 12h22.59.655800 +0530,
,Scenes\174a.jpg,21,0,22,,,,,,,None,,,j,0.8124243000002025,None,,,,22,0,21,302.78173140000035,,,,,,,,,,,,,,,,,,,,,,,,,,,,,,302.76715090000107,302.78173140000035,303.2662263000002,,,,,,,,,,,,,,303.34160970000084,,,,,,,,,,303.33822300000065,303.34160970000084,303.34160970000084,303.34160970000084,306.2822785999997,None,,,306.28600110000116,307.1171555000001,j,306.298334000001,306.298334000001,0.8124243000002025,None,,,,,,,,,,00033,001,2026-01-16_12h22.39.096,MST_task,2024.2.0,59.8717427520787,2026-01-16 12h22.59.655800 +0530,
,Scenes\105a.jpg,22,0,23,,,,,,,None,,,j,0.6633770000007644,None,,,,23,0,22,307.13172830000076,,,,,,,,,,,,,,,,,,,,,,,,,,,,,,307.1174413000008,307.13172830000076,307.6161666000007,,,,,,,,,,,,,,307.72490219999963,,,,,,,,,,307.7207374999998,307.72490219999963,307.72490219999963,307.72490219999963,310.6321571999997,None,,,310.63226290000057,311.31702140000016,j,310.6485455000002,310.6485455000002,0.6633770000007644,None,,,,,,,,,,00033,001,2026-01-16_12h22.39.096,MST_task,2024.2.0,59.8717427520787,2026-01-16 12h22.59.655800 +0530,
,Scenes\172a.jpg,23,0,24,,,,,,,None,,,j,0.40770009999869217,None,,,,24,0,23,311.33175409999967,,,,,,,,,,,,,,,,,,,,,,,,,,,,,,311.31737559999965,311.33175409999967,311.81569750000017,,,,,,,,,,,,,,311.91002750000007,,,,,,,,,,311.9064760000001,311.91002750000007,311.91002750000007,311.91002750000007,314.8321962000009,None,,,314.8323161999997,315.2670457000004,j,314.84854840000116,314.84854840000116,0.40770009999869217,None,,,,,,,,,,00033,001,2026-01-16_12h22.39.096,MST_task,2024.2.0,59.8717427520787,2026-01-16 12h22.59.655800 +0530,
,Scenes\016a.jpg,24,0,25,,,,,,,None,,,j,0.7535432000004221,None,,,,25,0,24,315.28174990000116,,,,,,,,,,,,,,,,,,,,,,,,,,,,,,315.2673391999997,315.28174990000116,315.76609140000073,,,,,,,,,,,,,,315.8166431000009,,,,,,,,,,315.81350420000126,315.8166431000009,315.8166431000009,315.8166431000009,318.7822395000003,None,,,318.78240410000035,319.5672365999999,j,318.7981438000006,318.7981438000006,0.7535432000004221,None,,,,,,,,,,00033,001,2026-01-16_12h22.39.096,MST_task,2024.2.0,59.8717427520787,2026-01-16 12h22.59.655800 +0530,
,Scenes\008a.jpg,25,0,26,,,,,,,None,,,f,0.5011073000005126,None,,,,26,0,25,319.5816427000009,,,,,,,,,,,,,,,,,,,,,,,,,,,,,,319.5676844999998,319.5816427000009,320.0661290000007,,,,,,,,,,,,,,320.12003689999983,,,,,,,,,,320.11667000000125,320.12003689999983,320.12003689999983,320.12003689999983,323.0824708,None,,,323.0825705999996,323.6172096999999,f,323.09850089999964,323.09850089999964,0.5011073000005126,None,,,,,,,,,,00033,001,2026-01-16_12h22.39.096,MST_task,2024.2.0,59.8717427520787,2026-01-16 12h22.59.655800 +0530,
,Scenes\058a.jpg,26,0,27,,,,,,,None,,,f,0.5624026999994385,None,,,,27,0,26,323.63203799999974,,,,,,,,,,,,,,,,,,,,,,,,,,,,,,323.6174879000009,323.63203799999974,324.11620779999976,,,,,,,,,,,,,,324.1930408999997,,,,,,,,,,324.18939839999985,324.1930408999997,324.1930408999997,324.1930408999997,327.13226380000015,None,,,327.1324173000012,327.71782150000035,f,327.1490066000006,327.1490066000006,0.5624026999994385,None,,,,,,,,,,00033,001,2026-01-16_12h22.39.096,MST_task,2024.2.0,59.8717427520787,2026-01-16 12h22.59.655800 +0530,
,Scenes\125a.jpg,27,0,28,,,,,,,None,,,j,0.710988400000133,None,,,,28,0,27,327.73168369999985,,,,,,,,,,,,,,,,,,,,,,,,,,,,,,327.7181879,327.73168369999985,328.21683630000007,,,,,,,,,,,,,,328.30892380000114,,,,,,,,,,328.3055643000007,328.30892380000114,328.30892380000114,328.30892380000114,331.2323944,None,,,331.2324865999999,331.9675833000001,j,331.2485961000002,331.2485961000002,0.710988400000133,None,,,,,,,,,,00033,001,2026-01-16_12h22.39.096,MST_task,2024.2.0,59.8717427520787,2026-01-16 12h22.59.655800 +0530,
,Objects\072a.jpg,28,0,29,,,,,,,None,,,f,0.41304809999928693,None,,,,29,0,28,331.9819060000009,,,,,,,,,,,,,,,,,,,,,,,,,,,,,,331.9680215999997,331.9819060000009,332.4662336000001,,,,,,,,,,,,,,332.5118929,,,,,,,,,,332.50777890000063,332.5118929,332.5118929,332.5118929,335.48212220000096,None,,,335.4868556000001,335.9168675000001,f,335.49861840000085,335.49861840000085,0.41304809999928693,None,,,,,,,,,,00033,001,2026-01-16_12h22.39.096,MST_task,2024.2.0,59.8717427520787,2026-01-16 12h22.59.655800 +0530,
,Objects\004a.jpg,29,0,30,,,,,,,None,,,j,0.5585826999995334,None,,,,30,0,29,335.93210590000126,,,,,,,,,,,,,,,,,,,,,,,,,,,,,,335.9172269999999,335.93210590000126,336.4167243000011,,,,,,,,,,,,,,336.4645676,,,,,,,,,,336.4605253000009,336.4645676,336.4645676,336.4645676,339.43211390000033,None,,,339.4322370000009,340.01719630000116,j,339.4483056000008,339.4483056000008,0.5585826999995334,None,,,,,,,,,,00033,001,2026-01-16_12h22.39.096,MST_task,2024.2.0,59.8717427520787,2026-01-16 12h22.59.655800 +0530,
,Objects\014a.jpg,30,0,31,,,,,,,None,,,f,0.4670439000001352,None,,,,31,0,30,340.03176650000023,,,,,,,,,,,,,,,,,,,,,,,,,,,,,,340.01759500000117,340.03176650000023,340.51644690000103,,,,,,,,,,,,,,340.56358510000064,,,,,,,,,,340.56040870000106,340.56358510000064,340.56358510000064,340.56358510000064,343.53311010000107,None,,,343.53326200000083,344.01792560000104,f,343.5484316000002,343.5484316000002,0.4670439000001352,None,,,,,,,,,,00033,001,2026-01-16_12h22.39.096,MST_task,2024.2.0,59.8717427520787,2026-01-16 12h22.59.655800 +0530,
,Objects\152a.jpg,31,0,32,,,,,,,None,,,f,0.6985030999985611,None,,,,32,0,31,344.03178280000066,,,,,,,,,,,,,,,,,,,,,,,,,,,,,,344.0183431000005,344.03178280000066,344.5161172999997,,,,,,,,,,,,,,344.6164953000007,,,,,,,,,,344.6131261999999,344.6164953000007,344.6164953000007,344.6164953000007,347.533324,None,,,347.53340560000106,348.2502108000008,f,347.54896610000105,347.54896610000105,0.6985030999985611,None,,,,,,,,,,00033,001,2026-01-16_12h22.39.096,MST_task,2024.2.0,59.8717427520787,2026-01-16 12h22.59.655800 +0530,
,Objects\015a.jpg,32,0,33,,,,,,,None,,,f,0.5701276999989204,None,,,,33,0,32,348.26532580000094,,,,,,,,,,,,,,,,,,,,,,,,,,,,,,348.2506475000009,348.26532580000094,348.75019600000087,,,,,,,,,,,,,,348.80535989999953,,,,,,,,,,348.80036520000067,348.80535989999953,348.80535989999953,348.80535989999953,351.7660261000001,None,,,351.76634019999983,352.3679210999999,f,351.7817138999999,351.7817138999999,0.5701276999989204,None,,,,,,,,,,00033,001,2026-01-16_12h22.39.096,MST_task,2024.2.0,59.8717427520787,2026-01-16 12h22.59.655800 +0530,
,Objects\131a.jpg,33,0,34,,,,,,,None,,,f,0.6775669999988168,None,,,,34,0,33,352.38177820000055,,,,,,,,,,,,,,,,,,,,,,,,,,,,,,352.3684107000008,352.38177820000055,352.8669217000006,,,,,,,,,,,,,,352.9313624000006,,,,,,,,,,352.9279614999996,352.9313624000006,352.9313624000006,352.9313624000006,355.8823310000007,None,,,355.88246570000047,356.58461250000073,f,355.89840840000033,355.89840840000033,0.6775669999988168,None,,,,,,,,,,00033,001,2026-01-16_12h22.39.096,MST_task,2024.2.0,59.8717427520787,2026-01-16 12h22.59.655800 +0530,
,Objects\090a.jpg,34,0,35,,,,,,,None,,,f,0.7719208999988041,None,,,,35,0,34,356.5985031,,,,,,,,,,,,,,,,,,,,,,,,,,,,,,356.58495570000014,356.5985031,357.08338829999957,,,,,,,,,,,,,,357.15562040000077,,,,,,,,,,357.15256020000015,357.15562040000077,357.15562040000077,357.15562040000077,360.09876480000094,None,,,360.0989606000003,360.9006036999999,f,360.1150438000004,360.1150438000004,0.7719208999988041,None,,,,,,,,,,00033,001,2026-01-16_12h22.39.096,MST_task,2024.2.0,59.8717427520787,2026-01-16 12h22.59.655800 +0530,
,Scenes\069a.jpg,35,0,36,,,,,,,None,,,j,0.5922171000001981,None,,,,36,0,35,360.9152470000008,,,,,,,,,,,,,,,,,,,,,,,,,,,,,,360.9008156,360.9152470000008,361.3996263000008,,,,,,,,,,,,,,361.4408555000009,,,,,,,,,,361.43714550000004,361.4408555000009,361.4408555000009,361.4408555000009,364.4155042000002,None,,,364.419795400001,365.03353530000095,j,364.43182929999966,364.43182929999966,0.5922171000001981,None,,,,,,,,,,00033,001,2026-01-16_12h22.39.096,MST_task,2024.2.0,59.8717427520787,2026-01-16 12h22.59.655800 +0530,
,Scenes\080a.jpg,36,0,37,,,,,,,None,,,j,0.8429775000004156,None,,,,37,0,36,365.0483217000001,,,,,,,,,,,,,,,,,,,,,,,,,,,,,,365.03391290000036,365.0483217000001,365.5329746999996,,,,,,,,,,,,,,365.60436350000055,,,,,,,,,,365.60132780000094,365.60436350000055,365.60436350000055,365.60436350000055,368.54882370000087,None,,,368.5489909000007,369.41659360000085,j,368.56508680000115,368.56508680000115,0.8429775000004156,None,,,,,,,,,,00033,001,2026-01-16_12h22.39.096,MST_task,2024.2.0,59.8717427520787,2026-01-16 12h22.59.655800 +0530,
,Scenes\155a.jpg,37,0,38,,,,,,,None,,,j,0.68300150000141,None,,,,38,0,37,369.43158680000124,,,,,,,,,,,,,,,,,,,,,,,,,,,,,,369.4169247000009,369.43158680000124,369.91636500000095,,,,,,,,,,,,,,370.0218162000001,,,,,,,,,,370.0185211000007,370.0218162000001,370.0218162000001,370.0218162000001,372.9321584999998,None,,,372.93230589999985,373.63370980000036,j,372.9483643000003,372.9483643000003,0.68300150000141,None,,,,,,,,,,00033,001,2026-01-16_12h22.39.096,MST_task,2024.2.0,59.8717427520787,2026-01-16 12h22.59.655800 +0530,
,Scenes\015a.jpg,38,0,39,,,,,,,None,,,j,0.8271831000001839,None,,,,39,0,38,373.64864510000007,,,,,,,,,,,,,,,,,,,,,,,,,,,,,,373.6341828000004,373.64864510000007,374.13282550000076,,,,,,,,,,,,,,374.20364450000125,,,,,,,,,,374.1995727000012,374.20364450000125,374.20364450000125,374.20364450000125,377.14886670000124,None,,,377.14902190000066,378.0012819000003,j,377.1650442000009,377.1650442000009,0.8271831000001839,None,,,,,,,,,,00033,001,2026-01-16_12h22.39.096,MST_task,2024.2.0,59.8717427520787,2026-01-16 12h22.59.655800 +0530,
,Scenes\141a.jpg,39,0,40,,,,,,,None,,,j,0.76425670000026,None,,,,40,0,39,378.0150926999995,,,,,,,,,,,,,,,,,,,,,,,,,,,,,,378.00175320000017,378.0150926999995,378.49978700000065,,,,,,,,,,,,,,378.56621650000125,,,,,,,,,,378.56168100000104,378.56621650000125,378.56621650000125,378.56621650000125,381.5153749000001,None,,,381.51549180000075,382.30034739999974,j,381.53175700000065,381.53175700000065,0.76425670000026,None,,,,,,,,,,00033,001,2026-01-16_12h22.39.096,MST_task,2024.2.0,59.8717427520787,2026-01-16 12h22.59.655800 +0530,
,Scenes\072a.jpg,40,0,41,,,,,,,None,,,j,1.0168606999995973,None,,,,41,0,40,382.31499910000093,,,,,,,,,,,,,,,,,,,,,,,,,,,,,,382.30086479999954,382.31499910000093,382.7995537000006,,,,,,,,,,,,,,382.88877630000025,,,,,,,,,,382.8852220000008,382.88877630000025,382.88877630000025,382.88877630000025,385.8155251999997,None,,,385.81568049999987,386.85019699999975,j,385.83194490000096,385.83194490000096,1.0168606999995973,None,,,,,,,,,,00033,001,2026-01-16_12h22.39.096,MST_task,2024.2.0,59.8717427520787,2026-01-16 12h22.59.655800 +0530,
,Scenes\119a.jpg,41,0,42,,,,,,,None,,,f,0.8412636000011844,None,,,,42,0,41,386.8655013000007,,,,,,,,,,,,,,,,,,,,,,,,,,,,,,386.850633,386.8655013000007,387.3495909000012,,,,,,,,,,,,,,387.4186346000006,,,,,,,,,,387.4153834000008,387.4186346000006,387.4186346000006,387.4186346000006,390.3656068,None,,,390.365757900001,391.233326900001,f,390.38179300000047,390.38179300000047,0.8412636000011844,None,,,,,,,,,,00033,001,2026-01-16_12h22.39.096,MST_task,2024.2.0,59.8717427520787,2026-01-16 12h22.59.655800 +0530,
,Objects\063a.jpg,42,0,43,,,,,,,None,,,f,0.6499635000000126,None,,,,43,0,42,391.24873560000015,,,,,,,,,,,,,,,,,,,,,,,,,,,,,,391.2337839000011,391.24873560000015,391.73351170000024,,,,,,,,,,,,,,391.84261119999974,,,,,,,,,,391.8395436999999,391.84261119999974,391.84261119999974,391.84261119999974,394.74882340000113,None,,,394.7528858000005,395.41658180000013,f,394.76501819999976,394.76501819999976,0.6499635000000126,None,,,,,,,,,,00033,001,2026-01-16_12h22.39.096,MST_task,2024.2.0,59.8717427520787,2026-01-16 12h22.59.655800 +0530,
,Objects\127a.jpg,43,0,44,,,,,,,None,,,f,0.6662152000008064,None,,,,44,0,43,395.43199939999977,,,,,,,,,,,,,,,,,,,,,,,,,,,,,,395.4169574000007,395.43199939999977,395.9159997000006,,,,,,,,,,,,,,395.9546836999998,,,,,,,,,,395.95128699999987,395.9546836999998,395.9546836999998,395.9546836999998,398.9328052000001,None,,,398.9329051000004,399.616912200001,f,398.94875409999986,398.94875409999986,0.6662152000008064,None,,,,,,,,,,00033,001,2026-01-16_12h22.39.096,MST_task,2024.2.0,59.8717427520787,2026-01-16 12h22.59.655800 +0530,
,Objects\114a.jpg,44,0,45,,,,,,,None,,,f,0.7959430000009888,None,,,,45,0,44,399.63170270000046,,,,,,,,,,,,,,,,,,,,,,,,,,,,,,399.61722069999996,399.63170270000046,400.1161668000004,,,,,,,,,,,,,,400.21858820000125,,,,,,,,,,400.2157640000005,400.21858820000125,400.21858820000125,400.21858820000125,403.1321274000002,None,,,403.1322798000001,403.95061949999945,f,403.1483337999998,403.1483337999998,0.7959430000009888,None,,,,,,,,,,00033,001,2026-01-16_12h22.39.096,MST_task,2024.2.0,59.8717427520787,2026-01-16 12h22.59.655800 +0530,
,Objects\092a.jpg,45,0,46,,,,,,,None,,,f,0.7499020000013843,None,,,,46,0,45,403.9649158000011,,,,,,,,,,,,,,,,,,,,,,,,,,,,,,403.9509462999995,403.9649158000011,404.4499558000007,,,,,,,,,,,,,,404.5035306999998,,,,,,,,,,404.5000121000012,404.5035306999998,404.5035306999998,404.5035306999998,407.4655584000011,None,,,407.46571570000015,408.23358910000024,f,407.48170759999994,407.48170759999994,0.7499020000013843,None,,,,,,,,,,00033,001,2026-01-16_12h22.39.096,MST_task,2024.2.0,59.8717427520787,2026-01-16 12h22.59.655800 +0530,
,Objects\143a.jpg,46,0,47,,,,,,,None,,,j,0.434242199999062,None,,,,47,0,46,408.2483927000012,,,,,,,,,,,,,,,,,,,,,,,,,,,,,,408.23395060000075,408.2483927000012,408.7325148,,,,,,,,,,,,,,408.76853520000077,,,,,,,,,,408.76531270000123,408.76853520000077,408.76853520000077,408.76853520000077,411.7492237999995,None,,,411.74937769999997,412.21710820000044,j,411.7650859000005,411.7650859000005,0.434242199999062,None,,,,,,,,,,00033,001,2026-01-16_12h22.39.096,MST_task,2024.2.0,59.8717427520787,2026-01-16 12h22.59.655800 +0530,
,Objects\149a.jpg,47,0,48,,,,,,,None,,,j,0.29154360000029556,None,,,,48,0,47,412.2317966999999,,,,,,,,,,,,,,,,,,,,,,,,,,,,,,412.2174384000009,412.2317966999999,412.71667230000094,,,,,,,,,,,,,,412.77322470000036,,,,,,,,,,412.770187600001,412.77322470000036,412.77322470000036,412.77322470000036,415.7321055000011,None,,,415.732265300001,416.0504670999999,j,415.7484107,415.7484107,0.29154360000029556,None,,,,,,,,,,00033,001,2026-01-16_12h22.39.096,MST_task,2024.2.0,59.8717427520787,2026-01-16 12h22.59.655800 +0530,
,Objects\080a.jpg,48,0,49,,,,,,,None,,,f,0.3465628000012657,None,,,,49,0,48,416.0649903000012,,,,,,,,,,,,,,,,,,,,,,,,,,,,,,416.05099130000053,416.0649903000012,416.5494662000001,,,,,,,,,,,,,,416.5959634999999,,,,,,,,,,416.59333100000003,416.5959634999999,416.5959634999999,416.5959634999999,419.56551949999994,None,,,419.5656393999998,419.9337162000011,f,419.58168680000017,419.58168680000017,0.3465628000012657,None,,,,,,,,,,00033,001,2026-01-16_12h22.39.096,MST_task,2024.2.0,59.8717427520787,2026-01-16 12h22.59.655800 +0530,
,Scenes\183a.jpg,49,0,50,,,,,,,None,,,f,0.3174935999995796,None,,,,50,0,49,419.9484802999996,,,,,,,,,,,,,,,,,,,,,,,,,,,,,,419.93402849999984,419.9484802999996,420.43283820000033,,,,,,,,,,,,,,420.5061254000011,,,,,,,,,,420.5020908000006,420.5061254000011,420.5061254000011,420.5061254000011,423.4490045000002,None,,,423.45283240000026,423.80032969999957,f,423.4650937999995,423.4650937999995,0.3174935999995796,None,,,,,,,,,,00033,001,2026-01-16_12h22.39.096,MST_task,2024.2.0,59.8717427520787,2026-01-16 12h22.59.655800 +0530,
,Scenes\096a.jpg,50,0,51,,,,,,,None,,,j,0.4108833999998751,None,,,,51,0,50,423.81545709999955,,,,,,,,,,,,,,,,,,,,,,,,,,,,,,423.8007405999997,423.81545709999955,424.29931729999953,,,,,,,,,,,,,,424.3833897000004,,,,,,,,,,424.3802042999996,424.3833897000004,424.3833897000004,424.3833897000004,427.31568700000025,None,,,427.3158378999997,427.7498770000002,j,427.3320100000001,427.3320100000001,0.4108833999998751,None,,,,,,,,,,00033,001,2026-01-16_12h22.39.096,MST_task,2024.2.0,59.8717427520787,2026-01-16 12h22.59.655800 +0530,
,Scenes\083a.jpg,51,0,52,,,,,,,None,,,j,0.4212686999999278,None,,,,52,0,51,427.7657870000003,,,,,,,,,,,,,,,,,,,,,,,,,,,,,,427.7501157000006,427.7657870000003,428.2494863000011,,,,,,,,,,,,,,428.333515100001,,,,,,,,,,428.3297813999998,428.333515100001,428.333515100001,428.333515100001,431.26543780000065,None,,,431.2655431000003,431.71725080000033,j,431.28171810000094,431.28171810000094,0.4212686999999278,None,,,,,,,,,,00033,001,2026-01-16_12h22.39.096,MST_task,2024.2.0,59.8717427520787,2026-01-16 12h22.59.655800 +0530,
,Scenes\067a.jpg,52,0,53,,,,,,,None,,,f,0.4397128000000521,None,,,,53,0,52,431.7315677000006,,,,,,,,,,,,,,,,,,,,,,,,,,,,,,431.7175810000008,431.7315677000006,432.2162055000008,,,,,,,,,,,,,,432.3071189000002,,,,,,,,,,432.303653500001,432.3071189000002,432.3071189000002,432.3071189000002,435.23222850000093,None,,,435.2323773999997,435.70012300000053,f,435.24827350000123,435.24827350000123,0.4397128000000521,None,,,,,,,,,,00033,001,2026-01-16_12h22.39.096,MST_task,2024.2.0,59.8717427520787,2026-01-16 12h22.59.655800 +0530,
,Scenes\094a.jpg,53,0,54,,,,,,,None,,,f,0.40785409999989497,None,,,,54,0,53,435.71523909999996,,,,,,,,,,,,,,,,,,,,,,,,,,,,,,435.70059500000025,435.71523909999996,436.19968189999963,,,,,,,,,,,,,,436.29513560000123,,,,,,,,,,436.29178160000083,436.29513560000123,436.29513560000123,436.29513560000123,439.2154793000009,None,,,439.215632200001,439.651144200001,f,439.23177320000104,439.23177320000104,0.40785409999989497,None,,,,,,,,,,00033,001,2026-01-16_12h22.39.096,MST_task,2024.2.0,59.8717427520787,2026-01-16 12h22.59.655800 +0530,
,Scenes\170a.jpg,54,0,55,,,,,,,None,,,j,0.3692969000003359,None,,,,55,0,54,439.6653580000002,,,,,,,,,,,,,,,,,,,,,,,,,,,,,,439.65149440000096,439.6653580000002,440.1494696000009,,,,,,,,,,,,,,440.24646179999945,,,,,,,,,,440.2427292000011,440.24646179999945,440.24646179999945,440.24646179999945,443.16566500000044,None,,,443.1657668000007,443.56680159999996,j,443.1818166000012,443.1818166000012,0.3692969000003359,None,,,,,,,,,,00033,001,2026-01-16_12h22.39.096,MST_task,2024.2.0,59.8717427520787,2026-01-16 12h22.59.655800 +0530,
,Scenes\070a.jpg,55,0,56,,,,,,,None,,,f,0.5812939999996161,None,,,,56,0,55,443.58211520000077,,,,,,,,,,,,,,,,,,,,,,,,,,,,,,443.56728079999993,443.58211520000077,444.0662726999999,,,,,,,,,,,,,,444.16556429999946,,,,,,,,,,444.16233380000085,444.16556429999946,444.16556429999946,444.16556429999946,447.08224359999986,None,,,447.08239590000085,447.68373690000044,f,447.09846389999984,447.09846389999984,0.5812939999996161,None,,,,,,,,,,00033,001,2026-01-16_12h22.39.096,MST_task,2024.2.0,59.8717427520787,2026-01-16 12h22.59.655800 +0530,
,Objects\029a.jpg,56,0,57,,,,,,,None,,,f,0.6877856999999494,None,,,,57,0,56,447.69848900000034,,,,,,,,,,,,,,,,,,,,,,,,,,,,,,447.6842188999999,447.69848900000034,448.182921900001,,,,,,,,,,,,,,448.24740940000083,,,,,,,,,,448.24431619999996,448.24740940000083,448.24740940000083,448.24740940000083,451.19876250000016,None,,,451.2046005000011,451.9168771000004,f,451.2152065999999,451.2152065999999,0.6877856999999494,None,,,,,,,,,,00033,001,2026-01-16_12h22.39.096,MST_task,2024.2.0,59.8717427520787,2026-01-16 12h22.59.655800 +0530,
,Objects\159a.jpg,57,0,58,,,,,,,None,,,f,0.4627246000000014,None,,,,58,0,57,451.9317074999999,,,,,,,,,,,,,,,,,,,,,,,,,,,,,,451.9172574000004,451.9317074999999,452.4160747999995,,,,,,,,,,,,,,452.48328930000025,,,,,,,,,,452.4799552000004,452.48328930000025,452.48328930000025,452.48328930000025,455.43197809999947,None,,,455.4321164000012,455.9171015000011,f,455.44837540000117,455.44837540000117,0.4627246000000014,None,,,,,,,,,,00033,001,2026-01-16_12h22.39.096,MST_task,2024.2.0,59.8717427520787,2026-01-16 12h22.59.655800 +0530,
,Objects\088a.jpg,58,0,59,,,,,,,None,,,j,0.3751922999999806,None,,,,59,0,58,455.9316434000011,,,,,,,,,,,,,,,,,,,,,,,,,,,,,,455.9175758000001,455.9316434000011,456.4162073000007,,,,,,,,,,,,,,456.47160690000055,,,,,,,,,,456.4686920000004,456.47160690000055,456.47160690000055,456.47160690000055,459.4321295000009,None,,,459.43226219999997,459.83320900000035,j,459.44832080000015,459.44832080000015,0.3751922999999806,None,,,,,,,,,,00033,001,2026-01-16_12h22.39.096,MST_task,2024.2.0,59.8717427520787,2026-01-16 12h22.59.655800 +0530,
,Objects\045a.jpg,59,0,60,,,,,,,None,,,j,0.5293705999993108,None,,,,60,0,59,459.8482402999998,,,,,,,,,,,,,,,,,,,,,,,,,,,,,,459.83341389999987,459.8482402999998,460.33296210000117,,,,,,,,,,,,,,460.36337190000086,,,,,,,,,,460.3601858000002,460.36337190000086,460.36337190000086,460.36337190000086,463.3486678999998,None,,,463.34881680000035,463.8998401000008,j,463.36521639999955,463.36521639999955,0.5293705999993108,None,,,,,,,,,,00033,001,2026-01-16_12h22.39.096,MST_task,2024.2.0,59.8717427520787,2026-01-16 12h22.59.655800 +0530,
,Objects\010a.jpg,60,0,61,,,,,,,None,,,f,0.4145131000004767,None,,,,61,0,60,463.91491040000074,,,,,,,,,,,,,,,,,,,,,,,,,,,,,,463.90022520000093,463.91491040000074,464.39947070000017,,,,,,,,,,,,,,464.4411497000001,,,,,,,,,,464.4379143999995,464.4411497000001,464.4411497000001,464.4411497000001,467.41549040000064,None,,,467.4156404000005,467.85038220000024,f,467.4323579000011,467.4323579000011,0.4145131000004767,None,,,,,,,,,,00033,001,2026-01-16_12h22.39.096,MST_task,2024.2.0,59.8717427520787,2026-01-16 12h22.59.655800 +0530,
,Objects\165a.jpg,61,0,62,,,,,,,None,,,f,0.4408860999992612,None,,,,62,0,61,467.8649923000012,,,,,,,,,,,,,,,,,,,,,,,,,,,,,,467.85067230000095,467.8649923000012,468.34964299999956,,,,,,,,,,,,,,468.3975423000011,,,,,,,,,,468.39457500000026,468.3975423000011,468.3975423000011,468.3975423000011,471.3656960999997,None,,,471.3658561000011,471.83343570000034,f,471.38219949999984,471.38219949999984,0.4408860999992612,None,,,,,,,,,,00033,001,2026-01-16_12h22.39.096,MST_task,2024.2.0,59.8717427520787,2026-01-16 12h22.59.655800 +0530,
,Objects\151a.jpg,62,0,63,,,,,,,None,,,f,0.6423174999999901,None,,,,63,0,62,471.84845870000026,,,,,,,,,,,,,,,,,,,,,,,,,,,,,,471.8339018000006,471.84845870000026,472.332888500001,,,,,,,,,,,,,,472.4470914000012,,,,,,,,,,472.4440824000012,472.4470914000012,472.4470914000012,472.4470914000012,475.34879850000107,None,,,475.3489473999998,476.0170429000009,f,475.3650725000007,475.3650725000007,0.6423174999999901,None,,,,,,,,,,00033,001,2026-01-16_12h22.39.096,MST_task,2024.2.0,59.8717427520787,2026-01-16 12h22.59.655800 +0530,
,Scenes\088a.jpg,63,0,64,,,,,,,None,,,j,0.5870849000002636,None,,,,64,0,63,476.0316849999999,,,,,,,,,,,,,,,,,,,,,,,,,,,,,,476.01743720000013,476.0316849999999,476.5160347000001,,,,,,,,,,,,,,476.5938263000007,,,,,,,,,,476.5906210000012,476.5938263000007,476.5938263000007,476.5938263000007,479.5322139,None,,,479.53755570000067,480.15011100000083,j,479.54854030000024,479.54854030000024,0.5870849000002636,None,,,,,,,,,,00033,001,2026-01-16_12h22.39.096,MST_task,2024.2.0,59.8717427520787,2026-01-16 12h22.59.655800 +0530,
,Scenes\130a.jpg,64,0,65,,,,,,,None,,,j,0.3171578999990743,None,,,,65,0,64,480.1650221,,,,,,,,,,,,,,,,,,,,,,,,,,,,,,480.1505322000012,480.1650221,480.6496057000004,,,,,,,,,,,,,,480.72513640000034,,,,,,,,,,480.72161720000076,480.72513640000034,480.72513640000034,480.72513640000034,483.6653404000008,None,,,483.66549440000017,484.0008424000007,j,483.68169190000117,483.68169190000117,0.3171578999990743,None,,,,,,,,,,00033,001,2026-01-16_12h22.39.096,MST_task,2024.2.0,59.8717427520787,2026-01-16 12h22.59.655800 +0530,
,Scenes\020a.jpg,65,0,66,,,,,,,None,,,f,0.4518439000003127,None,,,,66,0,65,484.01521140000114,,,,,,,,,,,,,,,,,,,,,,,,,,,,,,484.00109150000026,484.01521140000114,484.49947930000053,,,,,,,,,,,,,,484.6078295999996,,,,,,,,,,484.6028306999997,484.6078295999996,484.6078295999996,484.6078295999996,487.5157156000005,None,,,487.5158695000009,488.0003084,f,487.53204300000107,487.53204300000107,0.4518439000003127,None,,,,,,,,,,00033,001,2026-01-16_12h22.39.096,MST_task,2024.2.0,59.8717427520787,2026-01-16 12h22.59.655800 +0530,
,Scenes\156a.jpg,66,0,67,,,,,,,None,,,j,0.36373060000005353,None,,,,67,0,66,488.014989700001,,,,,,,,,,,,,,,,,,,,,,,,,,,,,,488.0008319000008,488.014989700001,488.49956329999986,,,,,,,,,,,,,,488.55243379999956,,,,,,,,,,488.54875170000014,488.55243379999956,488.55243379999956,488.55243379999956,491.51552269999956,None,,,491.51567109999996,491.90036090000103,j,491.53168879999976,491.53168879999976,0.36373060000005353,None,,,,,,,,,,00033,001,2026-01-16_12h22.39.096,MST_task,2024.2.0,59.8717427520787,2026-01-16 12h22.59.655800 +0530,
,Scenes\154a.jpg,67,0,68,,,,,,,None,,,j,0.9039334999997664,None,,,,68,0,67,491.9153382000004,,,,,,,,,,,,,,,,,,,,,,,,,,,,,,491.90069179999955,491.9153382000004,492.39940209999986,,,,,,,,,,,,,,492.48116090000076,,,,,,,,,,492.4780179999998,492.48116090000076,492.48116090000076,492.48116090000076,495.415438,None,,,495.41558310000073,496.35024200000043,j,495.43163730000015,495.43163730000015,0.9039334999997664,None,,,,,,,,,,00033,001,2026-01-16_12h22.39.096,MST_task,2024.2.0,59.8717427520787,2026-01-16 12h22.59.655800 +0530,
,Scenes\187a.jpg,68,0,69,,,,,,,None,,,j,0.6295687000001635,None,,,,69,0,68,496.3650568000012,,,,,,,,,,,,,,,,,,,,,,,,,,,,,,496.3507523999997,496.3650568000012,496.849777200001,,,,,,,,,,,,,,496.9151201000004,,,,,,,,,,496.9114781999997,496.9151201000004,496.9151201000004,496.9151201000004,499.8652479000011,None,,,499.8653661999997,500.5170629000004,j,499.88174380000055,499.88174380000055,0.6295687000001635,None,,,,,,,,,,00033,001,2026-01-16_12h22.39.096,MST_task,2024.2.0,59.8717427520787,2026-01-16 12h22.59.655800 +0530,
,Scenes\181a.jpg,69,0,70,,,,,,,None,,,f,0.40760059999956866,None,,,,70,0,69,500.5317152000007,,,,,,,,,,,,,,,,,,,,,,,,,,,,,,500.5173840999996,500.5317152000007,501.0162422000012,,,,,,,,,,,,,,501.1019374999996,,,,,,,,,,501.0981831000008,501.1019374999996,501.1019374999996,501.1019374999996,504.03189870000097,None,,,504.0319993000012,504.4669403000007,f,504.04838259999997,504.04838259999997,0.40760059999956866,None,,,,,,,,,,00033,001,2026-01-16_12h22.39.096,MST_task,2024.2.0,59.8717427520787,2026-01-16 12h22.59.655800 +0530,
,Objects\025a.jpg,70,0,71,,,,,,,None,,,j,0.6733803999995871,None,,,,71,0,70,504.4818133000008,,,,,,,,,,,,,,,,,,,,,,,,,,,,,,504.46723290000045,504.4818133000008,504.9662943000003,,,,,,,,,,,,,,505.01462580000043,,,,,,,,,,505.0113643000004,505.01462580000043,505.01462580000043,505.01462580000043,507.9820851000004,None,,,507.98767659999976,508.68382680000104,j,507.9983295000002,507.9983295000002,0.6733803999995871,None,,,,,,,,,,00033,001,2026-01-16_12h22.39.096,MST_task,2024.2.0,59.8717427520787,2026-01-16 12h22.59.655800 +0530,
,Objects\050a.jpg,71,0,72,,,,,,,None,,,f,0.39264170000024023,None,,,,72,0,71,508.69824719999997,,,,,,,,,,,,,,,,,,,,,,,,,,,,,,508.68435070000123,508.69824719999997,509.1826352999997,,,,,,,,,,,,,,509.2118697999995,,,,,,,,,,509.2087284999998,509.2118697999995,509.2118697999995,509.2118697999995,512.1988099000009,None,,,512.1989104000004,512.6171353000009,f,512.2150159000012,512.2150159000012,0.39264170000024023,None,,,,,,,,,,00033,001,2026-01-16_12h22.39.096,MST_task,2024.2.0,59.8717427520787,2026-01-16 12h22.59.655800 +0530,
,Objects\052a.jpg,72,0,73,,,,,,,None,,,f,0.8988475999994989,None,,,,73,0,72,512.6319354999996,,,,,,,,,,,,,,,,,,,,,,,,,,,,,,512.6174793999999,512.6319354999996,513.1162284000002,,,,,,,,,,,,,,513.1792526999998,,,,,,,,,,513.1763422000004,513.1792526999998,513.1792526999998,513.1792526999998,516.1324371999999,None,,,516.1325913000001,517.0506791000007,f,516.1486599,516.1486599,0.8988475999994989,None,,,,,,,,,,00033,001,2026-01-16_12h22.39.096,MST_task,2024.2.0,59.8717427520787,2026-01-16 12h22.59.655800 +0530,
,Objects\011a.jpg,73,0,74,,,,,,,None,,,f,0.5053450999985216,None,,,,74,0,73,517.065053100001,,,,,,,,,,,,,,,,,,,,,,,,,,,,,,517.0510352000001,517.065053100001,517.5494938000011,,,,,,,,,,,,,,517.6445932999995,,,,,,,,,,517.6419870000009,517.6445932999995,517.6445932999995,517.6445932999995,520.5654802999998,None,,,520.5656280000003,521.1001128999997,f,520.5820027000009,520.5820027000009,0.5053450999985216,None,,,,,,,,,,00033,001,2026-01-16_12h22.39.096,MST_task,2024.2.0,59.8717427520787,2026-01-16 12h22.59.655800 +0530,
,Objects\116a.jpg,74,0,75,,,,,,,None,,,f,0.6631123000006482,None,,,,75,0,74,521.1151336000003,,,,,,,,,,,,,,,,,,,,,,,,,,,,,,521.1003648999995,521.1151336000003,521.5993746000004,,,,,,,,,,,,,,521.6626175000001,,,,,,,,,,521.6582543000004,521.6626175000001,521.6626175000001,521.6626175000001,524.6151308000008,None,,,524.6152092000011,525.3006552000006,f,524.6323745999998,524.6323745999998,0.6631123000006482,None,,,,,,,,,,00033,001,2026-01-16_12h22.39.096,MST_task,2024.2.0,59.8717427520787,2026-01-16 12h22.59.655800 +0530,
,Objects\043a.jpg,75,0,76,,,,,,,None,,,f,0.5677135999994789,None,,,,76,0,75,525.3148868999997,,,,,,,,,,,,,,,,,,,,,,,,,,,,,,525.3010813000001,525.3148868999997,525.7994228999996,,,,,,,,,,,,,,525.8225722000006,,,,,,,,,,525.8189784000006,525.8225722000006,525.8225722000006,525.8225722000006,528.8156082000005,None,,,528.8157064999996,529.4166968999998,f,528.8318462999996,528.8318462999996,0.5677135999994789,None,,,,,,,,,,00033,001,2026-01-16_12h22.39.096,MST_task,2024.2.0,59.8717427520787,2026-01-16 12h22.59.655800 +0530,
,Objects\008a.jpg,76,0,77,,,,,,,None,,,f,0.4508125000011205,None,,,,77,0,76,529.4316455999997,,,,,,,,,,,,,,,,,,,,,,,,,,,,,,529.4170697999998,529.4316455999997,529.9160800999998,,,,,,,,,,,,,,529.9701203000004,,,,,,,,,,529.9661964000006,529.9701203000004,529.9701203000004,529.9701203000004,532.9321206000004,None,,,532.9322981000005,533.4168743999999,f,532.948472,532.948472,0.4508125000011205,None,,,,,,,,,,00033,001,2026-01-16_12h22.39.096,MST_task,2024.2.0,59.8717427520787,2026-01-16 12h22.59.655800 +0530,
,Scenes\014a.jpg,77,0,78,,,,,,,None,,,j,0.4180549000011524,None,,,,78,0,77,533.4317420999996,,,,,,,,,,,,,,,,,,,,,,,,,,,,,,533.4172866000008,533.4317420999996,533.9161987000007,,,,,,,,,,,,,,533.9626433000012,,,,,,,,,,533.9596610999997,533.9626433000012,533.9626433000012,533.9626433000012,536.9319757000012,None,,,536.9372631000006,537.3829194000009,j,536.9483997999996,536.9483997999996,0.4180549000011524,None,,,,,,,,,,00033,001,2026-01-16_12h22.39.096,MST_task,2024.2.0,59.8717427520787,2026-01-16 12h22.59.655800 +0530,
,Scenes\078a.jpg,78,0,79,,,,,,,None,,,j,0.7163441000011517,None,,,,79,0,78,537.3985018000003,,,,,,,,,,,,,,,,,,,,,,,,,,,,,,537.3833100000011,537.3985018000003,537.8827182000005,,,,,,,,,,,,,,537.9371554999998,,,,,,,,,,537.9341463000001,537.9371554999998,537.9371554999998,537.9371554999998,540.898689900001,None,,,540.8988456000006,541.6334586000012,j,540.9150286000004,540.9150286000004,0.7163441000011517,None,,,,,,,,,,00033,001,2026-01-16_12h22.39.096,MST_task,2024.2.0,59.8717427520787,2026-01-16 12h22.59.655800 +0530,
,Scenes\126a.jpg,79,0,80,,,,,,,None,,,j,0.42559690000052797,None,,,,80,0,79,541.6484094000007,,,,,,,,,,,,,,,,,,,,,,,,,,,,,,541.6339862000004,541.6484094000007,542.1328453000006,,,,,,,,,,,,,,542.2339430000011,,,,,,,,,,542.2308057000009,542.2339430000011,542.2339430000011,542.2339430000011,545.1490422000006,None,,,545.1491903999995,545.5999028999995,j,545.1649255000011,545.1649255000011,0.42559690000052797,None,,,,,,,,,,00033,001,2026-01-16_12h22.39.096,MST_task,2024.2.0,59.8717427520787,2026-01-16 12h22.59.655800 +0530,
,Scenes\185a.jpg,80,0,81,,,,,,,None,,,j,0.522916299998542,None,,,,81,0,80,545.6149174000002,,,,,,,,,,,,,,,,,,,,,,,,,,,,,,545.6003973999996,545.6149174000002,546.0994444000007,,,,,,,,,,,,,,546.1793398000009,,,,,,,,,,546.1758210000007,546.1793398000009,546.1793398000009,546.1793398000009,549.1154399000006,None,,,549.1156222999998,549.6668332000008,j,549.1317851000003,549.1317851000003,0.522916299998542,None,,,,,,,,,,00033,001,2026-01-16_12h22.39.096,MST_task,2024.2.0,59.8717427520787,2026-01-16 12h22.59.655800 +0530,
,Scenes\162a.jpg,81,0,82,,,,,,,j,2.5351467999989836,0.09655890000067302,None,,,,,,82,0,81,549.6815927999996,,,,,,,,,,,,,,,,,,,,,,,,,,,,,,549.6671769000004,549.6815927999996,550.1661667000008,,,,,,,,,,,,,,550.2153077000003,,,,,,,,,,550.2118263000011,550.2153077000003,550.2153077000003,550.2153077000003,553.1820490999999,j,2.5351467999989836,0.09655890000067302,553.1821653000006,553.1822057000008,None,,,,,,,,,,,,,,00033,001,2026-01-16_12h22.39.096,MST_task,2024.2.0,59.8717427520787,2026-01-16 12h22.59.655800 +0530,
,Scenes\121a.jpg,82,0,83,,,,,,,None,,,j,0.3560953000014706,None,,,,83,0,82,553.1983516,,,,,,,,,,,,,,,,,,,,,,,,,,,,,,553.1824893000012,553.1983516,553.6828760000008,,,,,,,,,,,,,,553.8022958000001,,,,,,,,,,553.7992621000012,553.8022958000001,553.8022958000001,553.8022958000001,556.6988977000001,None,,,556.6990764000002,557.0839302000004,j,556.7150307000011,556.7150307000011,0.3560953000014706,None,,,,,,,,,,00033,001,2026-01-16_12h22.39.096,MST_task,2024.2.0,59.8717427520787,2026-01-16 12h22.59.655800 +0530,
,Scenes\109a.jpg,83,0,84,,,,,,,f,2.5986177999984648,0.0721521000014036,None,,,,,,84,0,83,557.0987736000006,,,,,,,,,,,,,,,,,,,,,,,,,,,,,,557.0844852000009,557.0987736000006,557.583560000001,,,,,,,,,,,,,,557.6646515000011,,,,,,,,,,557.6614791000011,557.6646515000011,557.6646515000011,557.6646515000011,560.5987170000008,f,2.5986177999984648,0.0721521000014036,560.5989012999999,560.5989651,None,,,,,,,,,,,,,,00033,001,2026-01-16_12h22.39.096,MST_task,2024.2.0,59.8717427520787,2026-01-16 12h22.59.655800 +0530,
,Objects\020a.jpg,84,0,85,,,,,,,None,,,j,0.6184527000004891,None,,,,85,0,84,560.6151540999999,,,,,,,,,,,,,,,,,,,,,,,,,,,,,,560.5992138000001,560.6151540999999,561.099685000001,,,,,,,,,,,,,,561.1508016999996,,,,,,,,,,561.1476906999997,561.1508016999996,561.1508016999996,561.1508016999996,564.1155087000006,None,,,564.1210181000006,564.7665169000011,j,564.1321091000009,564.1321091000009,0.6184527000004891,None,,,,,,,,,,00033,001,2026-01-16_12h22.39.096,MST_task,2024.2.0,59.8717427520787,2026-01-16 12h22.59.655800 +0530,
,Objects\128a.jpg,85,0,86,,,,,,,f,1.660494199999448,0.09529699999984587,None,,,,,,86,0,85,564.7818747000001,,,,,,,,,,,,,,,,,,,,,,,,,,,,,,564.7670412000007,564.7818747000001,565.2663217999998,,,,,,,,,,,,,,565.3476035000003,,,,,,,,,,565.3444364000006,565.3476035000003,565.3476035000003,565.3476035000003,568.2829108999995,f,1.660494199999448,0.09529699999984587,568.2830769000011,568.2831244999998,None,,,,,,,,,,,,,,00033,001,2026-01-16_12h22.39.096,MST_task,2024.2.0,59.8717427520787,2026-01-16 12h22.59.655800 +0530,
,Objects\181a.jpg,86,0,87,,,,,,,j,2.0363276999996742,0.09688289999940025,None,,,,,,87,0,86,568.2984665000004,,,,,,,,,,,,,,,,,,,,,,,,,,,,,,568.2833093000008,568.2984665000004,568.7830897000003,,,,,,,,,,,,,,568.8590483999997,,,,,,,,,,568.8552698000003,568.8590483999997,568.8590483999997,568.8590483999997,571.7985683000006,j,2.0363276999996742,0.09688289999940025,571.798706900001,571.7987477999995,None,,,,,,,,,,,,,,00033,001,2026-01-16_12h22.39.096,MST_task,2024.2.0,59.8717427520787,2026-01-16 12h22.59.655800 +0530,
,Objects\048a.jpg,87,0,88,,,,,,,j,1.0937255000008008,0.09555519999958051,None,,,,,,88,0,87,571.8151128000009,,,,,,,,,,,,,,,,,,,,,,,,,,,,,,571.7989725999996,571.8151128000009,572.2990812000007,,,,,,,,,,,,,,,,,,,,,,,,572.3352484999996,572.3381059000003,572.3381059000003,572.3381059000003,575.3151580000012,j,1.0937255000008008,0.09555519999958051,575.3152146000011,575.3152305000003,None,,,,,,,,,,,,,,00033,001,2026-01-16_12h22.39.096,MST_task,2024.2.0,59.8717427520787,2026-01-16 12h22.59.655800 +0530,
,Objects\078a.jpg,88,0,89,,,,,,,None,,,f,0.12738260000151058,None,,,,89,0,88,575.3323605000005,,,,,,,,,,,,,,,,,,,,,,,,,,,,,,575.3153180999998,575.3323605000005,575.8159500000002,,,,,,,,,,,,,,,,,,,,,,,,575.8504057999999,575.8532706999995,575.8532706999995,575.8532706999995,578.8156959999997,None,,,578.8158454000004,578.9672252,f,578.8318240999997,578.8318240999997,0.12738260000151058,None,,,,,,,,,,00033,001,2026-01-16_12h22.39.096,MST_task,2024.2.0,59.8717427520787,2026-01-16 12h22.59.655800 +0530,
,Objects\123a.jpg,89,0,90,,,,,,,j,1.351752700000361,0.12714879999839468,None,,,,,,90,0,89,578.9817923999999,,,,,,,,,,,,,,,,,,,,,,,,,,,,,,578.9674819000011,578.9817923999999,579.4658864000012,,,,,,,,,,,,,,579.4960104000002,,,,,,,,,,579.4931780000006,579.4960104000002,579.4960104000002,579.4960104000002,582.4822509000005,j,1.351752700000361,0.12714879999839468,582.4823624,582.4823999,None,,,,,,,,,,,,,,00033,001,2026-01-16_12h22.39.096,MST_task,2024.2.0,59.8717427520787,2026-01-16 12h22.59.655800 +0530,
,Objects\182a.jpg,90,0,91,,,,,,,f,1.7332908999997017,0.1192114000004949,None,,,,,,91,0,90,582.4986413000006,,,,,,,,,,,,,,,,,,,,,,,,,,,,,,582.4825920000003,582.4986413000006,582.9828331000008,,,,,,,,,,,,,,583.0341614999998,,,,,,,,,,583.031028200001,583.0341614999998,583.0341614999998,583.0341614999998,585.9989129000005,f,1.7332908999997017,0.1192114000004949,585.9990572999995,585.9991050000008,None,,,,,,,,,,,,,,00033,001,2026-01-16_12h22.39.096,MST_task,2024.2.0,59.8717427520787,2026-01-16 12h22.59.655800 +0530,
,Scenes\139a.jpg,91,0,92,,,,,,,j,2.185149300001285,0.08035199999903853,None,,,,,,92,0,91,586.0150871000005,,,,,,,,,,,,,,,,,,,,,,,,,,,,,,585.9993291999999,586.0150871000005,586.4995865000001,,,,,,,,,,,,,,586.5585040999995,,,,,,,,,,586.5553097000011,586.5585040999995,586.5585040999995,586.5585040999995,589.5153996000008,j,2.185149300001285,0.08035199999903853,589.5215410000001,589.5215865000009,None,,,,,,,,,,,,,,00033,001,2026-01-16_12h22.39.096,MST_task,2024.2.0,59.8717427520787,2026-01-16 12h22.59.655800 +0530,
,Scenes\023a.jpg,92,0,93,,,,,,,f,1.890860800000155,0.11925130000054196,None,,,,,,93,0,92,589.5316698999995,,,,,,,,,,,,,,,,,,,,,,,,,,,,,,589.5218447000007,589.5316698999995,590.0159638000005,,,,,,,,,,,,,,590.1643175999998,,,,,,,,,,590.1602908000004,590.1643175999998,590.1643175999998,590.1643175999998,593.0321299999996,f,1.890860800000155,0.11925130000054196,593.0322976999996,593.0323614999998,None,,,,,,,,,,,,,,00033,001,2026-01-16_12h22.39.096,MST_task,2024.2.0,59.8717427520787,2026-01-16 12h22.59.655800 +0530,
,Scenes\060a.jpg,93,0,94,,,,,,,j,1.053738999999041,0.09535979999964184,None,,,,,,94,0,93,593.0490893999995,,,,,,,,,,,,,,,,,,,,,,,,,,,,,,593.0327921000007,593.0490893999995,593.5328029000011,,,,,,,,,,,,,,593.6423374999995,,,,,,,,,,593.6387955000009,593.6423374999995,593.6423374999995,593.6423374999995,596.5486871000012,j,1.053738999999041,0.09535979999964184,596.5488569999998,596.5489190999997,None,,,,,,,,,,,,,,00033,001,2026-01-16_12h22.39.096,MST_task,2024.2.0,59.8717427520787,2026-01-16 12h22.59.655800 +0530,
,Scenes\003a.jpg,94,0,95,,,,,,,f,0.927879100001519,0.1119617999993352,None,,,,,,95,0,94,596.5649369000002,,,,,,,,,,,,,,,,,,,,,,,,,,,,,,596.5493391,596.5649369000002,597.0496268000006,,,,,,,,,,,,,,597.1589874000001,,,,,,,,,,597.1554200999999,597.1589874000001,597.1589874000001,597.1589874000001,600.0499290999996,f,0.927879100001519,0.1119617999993352,600.0500755000012,600.0500995000002,None,,,,,,,,,,,,,,00033,001,2026-01-16_12h22.39.096,MST_task,2024.2.0,59.8717427520787,2026-01-16 12h22.59.655800 +0530,
,Scenes\191a.jpg,95,0,96,,,,,,,j,1.3874283999994077,0.09601250000014261,None,,,,,,96,0,95,600.0648779000003,,,,,,,,,,,,,,,,,,,,,,,,,,,,,,600.0502751000004,600.0648779000003,600.5497126000009,,,,,,,,,,,,,,600.6600804000009,,,,,,,,,,600.6569897999998,600.6600804000009,600.6600804000009,600.6600804000009,603.5664534999996,j,1.3874283999994077,0.09601250000014261,603.5666433000006,603.5666787999999,None,,,,,,,,,,,,,,00033,001,2026-01-16_12h22.39.096,MST_task,2024.2.0,59.8717427520787,2026-01-16 12h22.59.655800 +0530,
,Scenes\040a.jpg,96,0,97,,,,,,,f,1.7576649000002362,0.0967344000000594,None,,,,,,97,0,96,603.5828383000007,,,,,,,,,,,,,,,,,,,,,,,,,,,,,,603.5668772999998,603.5828383000007,604.0661973000006,,,,,,,,,,,,,,604.1449028999996,,,,,,,,,,604.1416743000009,604.1449028999996,604.1449028999996,604.1449028999996,607.0818359000004,f,1.7576649000002362,0.0967344000000594,607.0819928000001,607.0820504000003,None,,,,,,,,,,,,,,00033,001,2026-01-16_12h22.39.096,MST_task,2024.2.0,59.8717427520787,2026-01-16 12h22.59.655800 +0530,
,Scenes\173a.jpg,97,0,98,,,,,,,j,0.8652765000006184,0.09599279999929422,None,,,,,,98,0,97,607.0985247999997,,,,,,,,,,,,,,,,,,,,,,,,,,,,,,607.0824228000001,607.0985247999997,607.5826236000012,,,,,,,,,,,,,,607.6623154000008,,,,,,,,,,607.658781600001,607.6623154000008,607.6623154000008,607.6623154000008,610.5987698000008,j,0.8652765000006184,0.09599279999929422,610.5989028000004,610.5989477000003,None,,,,,,,,,,,,,,00033,001,2026-01-16_12h22.39.096,MST_task,2024.2.0,59.8717427520787,2026-01-16 12h22.59.655800 +0530,
,Objects\039a.jpg,98,0,99,,,,,,,j,2.4900345999994897,0.0784230999997817,None,,,,,,99,0,98,610.6149464999999,,,,,,,,,,,,,,,,,,,,,,,,,,,,,,610.5991838999998,610.6149464999999,611.0997872999997,,,,,,,,,,,,,,611.1499951999995,,,,,,,,,,611.1455426000011,611.1499951999995,611.1499951999995,611.1499951999995,614.115698900001,j,2.4900345999994897,0.0784230999997817,614.1208791000008,614.1209407000006,None,,,,,,,,,,,,,,00033,001,2026-01-16_12h22.39.096,MST_task,2024.2.0,59.8717427520787,2026-01-16 12h22.59.655800 +0530,
,Objects\178a.jpg,99,0,100,,,,,,,f,0.9243157999990217,0.09752670000125363,None,,,,,,100,0,99,614.1317872,,,,,,,,,,,,,,,,,,,,,,,,,,,,,,614.1213005999998,614.1317872,614.6161687000003,,,,,,,,,,,,,,614.7381230999999,,,,,,,,,,614.7349560000002,614.7381230999999,614.7381230999999,614.7381230999999,617.6321821000001,f,0.9243157999990217,0.09752670000125363,617.6323198999999,617.6323651000002,None,,,,,,,,,,,,,,00033,001,2026-01-16_12h22.39.096,MST_task,2024.2.0,59.8717427520787,2026-01-16 12h22.59.655800 +0530,
,Objects\147a.jpg,100,0,101,,,,,,,f,1.5090670000008686,0.08679080000001704,None,,,,,,101,0,100,617.6482348999998,,,,,,,,,,,,,,,,,,,,,,,,,,,,,,617.6326055999998,617.6482348999998,618.1329024000006,,,,,,,,,,,,,,618.1867492000001,,,,,,,,,,618.1837403999998,618.1867492000001,618.1867492000001,618.1867492000001,621.1487926999998,f,1.5090670000008686,0.08679080000001704,621.1489117000001,621.1489507000006,None,,,,,,,,,,,,,,00033,001,2026-01-16_12h22.39.096,MST_task,2024.2.0,59.8717427520787,2026-01-16 12h22.59.655800 +0530,
,Objects\016a.jpg,101,0,102,,,,,,,None,,,f,1.2789202999992995,None,,,,102,0,101,621.1649517000005,,,,,,,,,,,,,,,,,,,,,,,,,,,,,,621.1491559000006,621.1649517000005,621.6495126999998,,,,,,,,,,,,,,621.6954120999999,,,,,,,,,,621.6923525000002,621.6954120999999,621.6954120999999,621.6954120999999,624.6653922000005,None,,,624.6655413000008,625.9667910000007,f,624.6815389000003,624.6815389000003,1.2789202999992995,None,,,,,,,,,,00033,001,2026-01-16_12h22.39.096,MST_task,2024.2.0,59.8717427520787,2026-01-16 12h22.59.655800 +0530,
,Objects\173a.jpg,102,0,103,,,,,,,f,1.206509300000107,0.09528910000153701,None,,,,,,103,0,102,625.9815123000008,,,,,,,,,,,,,,,,,,,,,,,,,,,,,,625.9671816000009,625.9815123000008,626.4662105000007,,,,,,,,,,,,,,626.5449785000001,,,,,,,,,,626.5416717999997,626.5449785000001,626.5449785000001,626.5449785000001,629.4820023000011,f,1.206509300000107,0.09528910000153701,629.4821561000008,629.4822146999995,None,,,,,,,,,,,,,,00033,001,2026-01-16_12h22.39.096,MST_task,2024.2.0,59.8717427520787,2026-01-16 12h22.59.655800 +0530,
,Objects\192a.jpg,103,0,104,,,,,,,None,,,f,0.19262010000056762,None,,,,104,0,103,629.498372,,,,,,,,,,,,,,,,,,,,,,,,,,,,,,629.4825235000008,629.498372,629.9826943999997,,,,,,,,,,,,,,630.1117314000003,,,,,,,,,,630.1088576000002,630.1117314000003,630.1117314000003,630.1117314000003,632.998888600001,None,,,632.9990402000003,633.2166906000002,f,633.0150274999996,633.0150274999996,0.19262010000056762,None,,,,,,,,,,00033,001,2026-01-16_12h22.39.096,MST_task,2024.2.0,59.8717427520787,2026-01-16 12h22.59.655800 +0530,
,Objects\093a.jpg,104,0,105,,,,,,,j,1.23607980000088,0.14315170000008948,None,,,,,,105,0,104,633.2316757000008,,,,,,,,,,,,,,,,,,,,,,,,,,,,,,633.2170244000008,633.2316757000008,633.7166545,,,,,,,,,,,,,,633.7715578000007,,,,,,,,,,633.7682399000005,633.7715578000007,633.7715578000007,633.7715578000007,636.7319531000012,j,1.23607980000088,0.14315170000008948,636.73207,636.7321104000002,None,,,,,,,,,,,,,,00033,001,2026-01-16_12h22.39.096,MST_task,2024.2.0,59.8717427520787,2026-01-16 12h22.59.655800 +0530,
,Scenes\171a.jpg,105,0,106,,,,,,,f,1.639380999999048,0.16735110000081477,None,,,,,,106,0,105,636.7484234000003,,,,,,,,,,,,,,,,,,,,,,,,,,,,,,636.7323264999995,636.7484234000003,637.2323797000008,,,,,,,,,,,,,,637.2957027000011,,,,,,,,,,637.2927168000006,637.2957027000011,637.2957027000011,637.2957027000011,640.2488943000008,f,1.639380999999048,0.16735110000081477,640.2532783999995,640.2533251000004,None,,,,,,,,,,,,,,00033,001,2026-01-16_12h22.39.096,MST_task,2024.2.0,59.8717427520787,2026-01-16 12h22.59.655800 +0530,
,Scenes\124a.jpg,106,0,107,,,,,,,f,1.1464759000009508,0.1353447999990749,None,,,,,,107,0,106,640.2647969999998,,,,,,,,,,,,,,,,,,,,,,,,,,,,,,640.2535898999995,640.2647969999998,640.7496511000008,,,,,,,,,,,,,,640.8209177999997,,,,,,,,,,640.8176949999997,640.8209177999997,640.8209177999997,640.8209177999997,643.7656502000009,f,1.1464759000009508,0.1353447999990749,643.7657770000005,643.7658205000007,None,,,,,,,,,,,,,,00033,001,2026-01-16_12h22.39.096,MST_task,2024.2.0,59.8717427520787,2026-01-16 12h22.59.655800 +0530,
,Scenes\165a.jpg,107,0,108,,,,,,,f,2.315905399998883,0.1202900000007503,None,,,,,,108,0,107,643.7817708000002,,,,,,,,,,,,,,,,,,,,,,,,,,,,,,643.7661341000003,643.7817708000002,644.2661365000004,,,,,,,,,,,,,,644.3548178000001,,,,,,,,,,644.3508478000003,644.3548178000001,644.3548178000001,644.3548178000001,647.2822422999998,f,2.315905399998883,0.1202900000007503,647.2824044000008,647.2824398000012,None,,,,,,,,,,,,,,00033,001,2026-01-16_12h22.39.096,MST_task,2024.2.0,59.8717427520787,2026-01-16 12h22.59.655800 +0530,
,Scenes\131a.jpg,108,0,109,,,,,,,j,1.7637002000010398,0.15271319999919797,None,,,,,,109,0,108,647.2988181000001,,,,,,,,,,,,,,,,,,,,,,,,,,,,,,647.2826229000002,647.2988181000001,647.782819,,,,,,,,,,,,,,647.8349911000005,,,,,,,,,,647.8318822000001,647.8349911000005,647.8349911000005,647.8349911000005,650.7988550999999,j,1.7637002000010398,0.15271319999919797,650.7990305000003,650.7990920000011,None,,,,,,,,,,,,,,00033,001,2026-01-16_12h22.39.096,MST_task,2024.2.0,59.8717427520787,2026-01-16 12h22.59.655800 +0530,
,Scenes\051a.jpg,109,0,110,,,,,,,j,1.002362000001085,0.1439634999987902,None,,,,,,110,0,109,650.8149704999996,,,,,,,,,,,,,,,,,,,,,,,,,,,,,,650.7994226999999,650.8149704999996,651.2993297000012,,,,,,,,,,,,,,651.3809591000008,,,,,,,,,,651.3776154000006,651.3809591000008,651.3809591000008,651.3809591000008,654.3155315000004,j,1.002362000001085,0.1439634999987902,654.3156395999995,654.3156763999996,None,,,,,,,,,,,,,,00033,001,2026-01-16_12h22.39.096,MST_task,2024.2.0,59.8717427520787,2026-01-16 12h22.59.655800 +0530,
,Scenes\084a.jpg,110,0,111,,,,,,,j,1.6891077000000223,0.11196310000013909,None,,,,,,111,0,110,654.3315675000013,,,,,,,,,,,,,,,,,,,,,,,,,,,,,,654.3159445000001,654.3315675000013,654.8161426999995,,,,,,,,,,,,,,654.9014883,,,,,,,,,,654.8978483999999,654.9014883,654.9014883,654.9014883,657.832339300001,j,1.6891077000000223,0.11196310000013909,657.8325146000006,657.8325763000012,None,,,,,,,,,,,,,,00033,001,2026-01-16_12h22.39.096,MST_task,2024.2.0,59.8717427520787,2026-01-16 12h22.59.655800 +0530,
,Scenes\136a.jpg,111,0,112,,,,,,,f,1.8505526999997528,0.12818909999987227,None,,,,,,112,0,111,657.8484643000011,,,,,,,,,,,,,,,,,,,,,,,,,,,,,,657.8329293999996,657.8484643000011,658.3327522,,,,,,,,,,,,,,658.4528449999998,,,,,,,,,,658.4492874000007,658.4528449999998,658.4528449999998,658.4528449999998,661.349025200001,f,1.8505526999997528,0.12818909999987227,661.3491957000006,661.3492337999996,None,,,,,,,,,,,,,,00033,001,2026-01-16_12h22.39.096,MST_task,2024.2.0,59.8717427520787,2026-01-16 12h22.59.655800 +0530,
,Objects\040a.jpg,112,0,113,,,,,,,f,1.3176489999987098,0.12007460000131687,None,,,,,,113,0,112,661.3650830000006,,,,,,,,,,,,,,,,,,,,,,,,,,,,,,661.3495155,661.3650830000006,661.849877300001,,,,,,,,,,,,,,661.8897496999998,,,,,,,,,,661.8868522000012,661.8897496999998,661.8897496999998,661.8897496999998,664.8654396000002,f,1.3176489999987098,0.12007460000131687,664.8707586,664.8708224000002,None,,,,,,,,,,,,,,00033,001,2026-01-16_12h22.39.096,MST_task,2024.2.0,59.8717427520787,2026-01-16 12h22.59.655800 +0530,
,Objects\034a.jpg,113,0,114,,,,,,,f,1.26288729999942,0.11935780000021623,None,,,,,,114,0,113,664.8816891999995,,,,,,,,,,,,,,,,,,,,,,,,,,,,,,664.8710529,664.8816891999995,665.3659728000002,,,,,,,,,,,,,,665.4242852000007,,,,,,,,,,665.4210533000005,665.4242852000007,665.4242852000007,665.4242852000007,668.3821141999997,f,1.26288729999942,0.11935780000021623,668.3822739000007,668.382329,None,,,,,,,,,,,,,,00033,001,2026-01-16_12h22.39.096,MST_task,2024.2.0,59.8717427520787,2026-01-16 12h22.59.655800 +0530,
,Objects\150a.jpg,114,0,115,,,,,,,j,1.1888668000010512,0.12024980000023788,None,,,,,,115,0,114,668.3983587000002,,,,,,,,,,,,,,,,,,,,,,,,,,,,,,668.3826628000006,668.3983587000002,668.8826750000007,,,,,,,,,,,,,,668.9389449999999,,,,,,,,,,668.9354616,668.9389449999999,668.9389449999999,668.9389449999999,671.8989208000003,j,1.1888668000010512,0.12024980000023788,671.8990845999997,671.8991512000011,None,,,,,,,,,,,,,,00033,001,2026-01-16_12h22.39.096,MST_task,2024.2.0,59.8717427520787,2026-01-16 12h22.59.655800 +0530,
,Objects\036a.jpg,115,0,116,,,,,,,j,1.3426716000012675,0.09492849999878672,None,,,,,,116,0,115,671.9150943000004,,,,,,,,,,,,,,,,,,,,,,,,,,,,,,671.8993803000012,671.9150943000004,672.3997713000008,,,,,,,,,,,,,,672.4573328999995,,,,,,,,,,672.4542481999997,672.4573328999995,672.4573328999995,672.4573328999995,675.4154938000011,j,1.3426716000012675,0.09492849999878672,675.4156524999999,675.4156899999998,None,,,,,,,,,,,,,,00033,001,2026-01-16_12h22.39.096,MST_task,2024.2.0,59.8717427520787,2026-01-16 12h22.59.655800 +0530,
,Objects\153a.jpg,116,0,117,,,,,,,f,1.5633787000006123,0.12011309999979858,None,,,,,,117,0,116,675.4316835999998,,,,,,,,,,,,,,,,,,,,,,,,,,,,,,675.4158838000003,675.4316835999998,675.9160573999998,,,,,,,,,,,,,,675.9560603999998,,,,,,,,,,675.9527331999998,675.9560603999998,675.9560603999998,675.9560603999998,678.9322100000009,f,1.5633787000006123,0.12011309999979858,678.9323869,678.9324292000001,None,,,,,,,,,,,,,,00033,001,2026-01-16_12h22.39.096,MST_task,2024.2.0,59.8717427520787,2026-01-16 12h22.59.655800 +0530,
,Objects\164a.jpg,117,0,118,,,,,,,f,1.2488510000002861,0.128611500000261,None,,,,,,118,0,117,678.9484700000012,,,,,,,,,,,,,,,,,,,,,,,,,,,,,,678.9326512999996,678.9484700000012,679.4327572000002,,,,,,,,,,,,,,679.5015168999998,,,,,,,,,,679.4983470000006,679.5015168999998,679.5015168999998,679.5015168999998,682.4487186999995,f,1.2488510000002861,0.128611500000261,682.4488866000011,682.4489343000005,None,,,,,,,,,,,,,,00033,001,2026-01-16_12h22.39.096,MST_task,2024.2.0,59.8717427520787,2026-01-16 12h22.59.655800 +0530,
,Objects\157a.jpg,118,0,119,,,,,,,f,0.6061916999988171,0.11958000000049651,None,,,,,,119,0,118,682.4649917999996,,,,,,,,,,,,,,,,,,,,,,,,,,,,,,682.4492473000009,682.4649917999996,682.9492595000011,,,,,,,,,,,,,,683.0089360000002,,,,,,,,,,683.0059388000009,683.0089360000002,683.0089360000002,683.0089360000002,685.9656346000011,f,0.6061916999988171,0.11958000000049651,685.9658036000001,685.9658665000006,None,,,,,,,,,,,,,,00033,001,2026-01-16_12h22.39.096,MST_task,2024.2.0,59.8717427520787,2026-01-16 12h22.59.655800 +0530,
,Scenes\026a.jpg,119,0,120,,,,,,,j,0.8058569000004354,0.04897969999910856,None,,,,,,120,0,119,685.9817287999995,,,,,,,,,,,,,,,,,,,,,,,,,,,,,,685.9661935000004,685.9817287999995,686.4659866000002,,,,,,,,,,,,,,686.5766518,,,,,,,,,,686.5728118999996,686.5766518,686.5766518,686.5766518,689.4819509000008,j,0.8058569000004354,0.04897969999910856,689.4867961,689.4868361000008,None,,,,,,,,,,,,,,00033,001,2026-01-16_12h22.39.096,MST_task,2024.2.0,59.8717427520787,2026-01-16 12h22.59.655800 +0530,
,Scenes\075a.jpg,120,0,121,,,,,,,j,0.6886899000000994,0.07984580000083952,None,,,,,,121,0,120,689.4983093999999,,,,,,,,,,,,,,,,,,,,,,,,,,,,,,689.4869966000006,689.4983093999999,689.9826052999997,,,,,,,,,,,,,,690.0463340999995,,,,,,,,,,690.0428379000004,690.0463340999995,690.0463340999995,690.0463340999995,692.9987426000007,j,0.6886899000000994,0.07984580000083952,692.9989287000008,692.998990600001,None,,,,,,,,,,,,,,00033,001,2026-01-16_12h22.39.096,MST_task,2024.2.0,59.8717427520787,2026-01-16 12h22.59.655800 +0530,
,Scenes\012a.jpg,121,0,122,,,,,,,j,0.9649210999996285,0.10380090000035125,None,,,,,,122,0,121,693.0149670999999,,,,,,,,,,,,,,,,,,,,,,,,,,,,,,692.9993596000004,693.0149670999999,693.4993309000001,,,,,,,,,,,,,,693.609664900001,,,,,,,,,,693.6064352000012,693.609664900001,693.609664900001,693.609664900001,696.5155085000006,j,0.9649210999996285,0.10380090000035125,696.5156738999995,696.5157350999998,None,,,,,,,,,,,,,,00033,001,2026-01-16_12h22.39.096,MST_task,2024.2.0,59.8717427520787,2026-01-16 12h22.59.655800 +0530,
,Scenes\097a.jpg,122,0,123,,,,,,,f,0.8357507999990048,0.08827710000150546,None,,,,,,123,0,122,696.5315781000008,,,,,,,,,,,,,,,,,,,,,,,,,,,,,,696.5161002000004,696.5315781000008,697.0167249000006,,,,,,,,,,,,,,697.0607369000008,,,,,,,,,,697.0576500999996,697.0607369000008,697.0607369000008,697.0607369000008,700.0328162999995,f,0.8357507999990048,0.08827710000150546,700.0329287000004,700.0329687000012,None,,,,,,,,,,,,,,00033,001,2026-01-16_12h22.39.096,MST_task,2024.2.0,59.8717427520787,2026-01-16 12h22.59.655800 +0530,
,Scenes\167a.jpg,123,0,124,,,,,,,f,0.6178156999994826,0.08076729999993404,None,,,,,,124,0,123,700.0487782,,,,,,,,,,,,,,,,,,,,,,,,,,,,,,700.0332780999997,700.0487782,700.532798100001,,,,,,,,,,,,,,700.6294101000003,,,,,,,,,,700.6258297000004,700.6294101000003,700.6294101000003,700.6294101000003,703.548827300001,f,0.6178156999994826,0.08076729999993404,703.5490131999995,703.5490750999998,None,,,,,,,,,,,,,,00033,001,2026-01-16_12h22.39.096,MST_task,2024.2.0,59.8717427520787,2026-01-16 12h22.59.655800 +0530,
,Scenes\090a.jpg,124,0,125,,,,,,,j,1.307867299999998,0.07160710000061954,None,,,,,,125,0,124,703.5654697000009,,,,,,,,,,,,,,,,,,,,,,,,,,,,,,703.5495005000012,703.5654697000009,704.0492952000004,,,,,,,,,,,,,,704.139588,,,,,,,,,,704.1361780999996,704.139588,704.139588,704.139588,707.0654481000001,j,1.307867299999998,0.07160710000061954,707.0656271000007,707.0656880000006,None,,,,,,,,,,,,,,00033,001,2026-01-16_12h22.39.096,MST_task,2024.2.0,59.8717427520787,2026-01-16 12h22.59.655800 +0530,
,Scenes\025a.jpg,125,0,126,,,,,,,j,2.0278949000003195,0.14406810000036785,None,,,,,,126,0,125,707.0816606999997,,,,,,,,,,,,,,,,,,,,,,,,,,,,,,707.0660085,707.0816606999997,707.5659820000001,,,,,,,,,,,,,,707.6834524000005,,,,,,,,,,707.680196700001,707.6834524000005,707.6834524000005,707.6834524000005,710.5823768000009,j,2.0278949000003195,0.14406810000036785,710.582538300001,710.5825839999998,None,,,,,,,,,,,,,,00033,001,2026-01-16_12h22.39.096,MST_task,2024.2.0,59.8717427520787,2026-01-16 12h22.59.655800 +0530,
,Objects\024a.jpg,126,0,127,,,,,,,f,2.237775200001124,0.10454919999938284,None,,,,,,127,0,126,710.5982105000003,,,,,,,,,,,,,,,,,,,,,,,,,,,,,,710.5828242999996,710.5982105000003,711.0827901000011,,,,,,,,,,,,,,711.1606618000005,,,,,,,,,,711.1575083999996,711.1606618000005,711.1606618000005,711.1606618000005,714.099029500001,f,2.237775200001124,0.10454919999938284,714.1046872000006,714.1047515000009,None,,,,,,,,,,,,,,00033,001,2026-01-16_12h22.39.096,MST_task,2024.2.0,59.8717427520787,2026-01-16 12h22.59.655800 +0530,
,Objects\041a.jpg,127,0,128,,,,,,,j,2.2269419000003836,0.10274009999920963,None,,,,,,128,0,127,714.1152302999999,,,,,,,,,,,,,,,,,,,,,,,,,,,,,,714.1051121,714.1152302999999,714.5993326999996,,,,,,,,,,,,,,714.6532177999998,,,,,,,,,,714.6500692999998,714.6532177999998,714.6532177999998,714.6532177999998,717.6153529000003,j,2.2269419000003836,0.10274009999920963,717.6155338000008,717.6155962000012,None,,,,,,,,,,,,,,00033,001,2026-01-16_12h22.39.096,MST_task,2024.2.0,59.8717427520787,2026-01-16 12h22.59.655800 +0530,
,Objects\112a.jpg,128,0,129,,,,,,,f,1.2896072999992612,0.10285780000049272,None,,,,,,129,0,128,717.6317677000006,,,,,,,,,,,,,,,,,,,,,,,,,,,,,,717.6159473000007,717.6317677000006,718.1164005999999,,,,,,,,,,,,,,718.1589746999998,,,,,,,,,,718.1560413999996,718.1589746999998,718.1589746999998,718.1589746999998,721.1327920000003,f,1.2896072999992612,0.10285780000049272,721.1329634000012,721.1330256000001,None,,,,,,,,,,,,,,00033,001,2026-01-16_12h22.39.096,MST_task,2024.2.0,59.8717427520787,2026-01-16 12h22.59.655800 +0530,
,Objects\051a.jpg,129,0,130,,,,,,,j,1.1858723999994254,0.11164100000132748,None,,,,,,130,0,129,721.1483296000006,,,,,,,,,,,,,,,,,,,,,,,,,,,,,,721.1333429000006,721.1483296000006,721.6330593000002,,,,,,,,,,,,,,721.7494575000001,,,,,,,,,,721.7463769999995,721.7494575000001,721.7494575000001,721.7494575000001,724.6486490999996,j,1.1858723999994254,0.11164100000132748,724.6487838000012,724.6488296999996,None,,,,,,,,,,,,,,00033,001,2026-01-16_12h22.39.096,MST_task,2024.2.0,59.8717427520787,2026-01-16 12h22.59.655800 +0530,
,Objects\062a.jpg,130,0,131,,,,,,,f,1.594938500000353,0.09590779999962251,None,,,,,,131,0,130,724.6656770999998,,,,,,,,,,,,,,,,,,,,,,,,,,,,,,724.6490680999996,724.6656770999998,725.1497901000002,,,,,,,,,,,,,,725.1798118000006,,,,,,,,,,725.1771504000008,725.1798118000006,725.1798118000006,725.1798118000006,728.1653891999995,f,1.594938500000353,0.09590779999962251,728.1655781000009,728.1656402999997,None,,,,,,,,,,,,,,00033,001,2026-01-16_12h22.39.096,MST_task,2024.2.0,59.8717427520787,2026-01-16 12h22.59.655800 +0530,
,Objects\083a.jpg,131,0,132,,,,,,,f,2.1672324999999546,0.13590710000062245,None,,,,,,132,0,131,728.181598000001,,,,,,,,,,,,,,,,,,,,,,,,,,,,,,728.1659521000001,728.181598000001,728.6662455000005,,,,,,,,,,,,,,728.7117575000011,,,,,,,,,,728.7088029999995,728.7117575000011,728.7117575000011,728.7117575000011,731.6822767000012,f,2.1672324999999546,0.13590710000062245,731.6824386999997,731.6824763000004,None,,,,,,,,,,,,,,00033,001,2026-01-16_12h22.39.096,MST_task,2024.2.0,59.8717427520787,2026-01-16 12h22.59.655800 +0530,
,Objects\018a.jpg,132,0,133,,,,,,,j,2.5367537000001903,0.09690330000012182,None,,,,,,133,0,132,731.6982497999998,,,,,,,,,,,,,,,,,,,,,,,,,,,,,,731.6826698000004,731.6982497999998,732.183001200001,,,,,,,,,,,,,,732.2299297000009,,,,,,,,,,732.2267427000006,732.2299297000009,732.2299297000009,732.2299297000009,735.1989900999997,j,2.5367537000001903,0.09690330000012182,735.1991638,735.1992005000011,None,,,,,,,,,,,,,,00033,001,2026-01-16_12h22.39.096,MST_task,2024.2.0,59.8717427520787,2026-01-16 12h22.59.655800 +0530,
,Scenes\180a.jpg,133,0,134,,,,,,,j,2.7194614,0.09722820000024512,None,,,,,,134,0,133,735.2151754000006,,,,,,,,,,,,,,,,,,,,,,,,,,,,,,735.1993925999996,735.2151754000006,735.6998253000002,,,,,,,,,,,,,,735.7669736999997,,,,,,,,,,735.763264700001,735.7669736999997,735.7669736999997,735.7669736999997,738.7153049999997,j,2.7194614,0.09722820000024512,738.7205825000001,738.7206415,None,,,,,,,,,,,,,,00033,001,2026-01-16_12h22.39.096,MST_task,2024.2.0,59.8717427520787,2026-01-16 12h22.59.655800 +0530,
,Scenes\052a.jpg,134,0,135,,,,,,,j,2.7029849000009563,0.0800385999991704,None,,,,,,135,0,134,738.7316298000005,,,,,,,,,,,,,,,,,,,,,,,,,,,,,,738.7208578999998,738.7316298000005,739.2158973000005,,,,,,,,,,,,,,739.279876300001,,,,,,,,,,739.2758016999996,739.279876300001,739.279876300001,739.279876300001,742.2319367,j,2.7029849000009563,0.0800385999991704,742.2321174999997,742.2321778000005,None,,,,,,,,,,,,,,00033,001,2026-01-16_12h22.39.096,MST_task,2024.2.0,59.8717427520787,2026-01-16 12h22.59.655800 +0530,
,Scenes\011a.jpg,135,0,136,,,,,,,None,,,f,0.13079459999971732,None,,,,136,0,135,742.2484910000003,,,,,,,,,,,,,,,,,,,,,,,,,,,,,,742.2323997000003,742.2484910000003,742.7325383000007,,,,,,,,,,,,,,742.8350908000011,,,,,,,,,,742.8317797,742.8350908000011,742.8350908000011,742.8350908000011,745.7487247999998,None,,,745.7488351000011,745.9002269000011,f,745.7649144000006,745.7649144000006,0.13079459999971732,None,,,,,,,,,,00033,001,2026-01-16_12h22.39.096,MST_task,2024.2.0,59.8717427520787,2026-01-16 12h22.59.655800 +0530,
,Scenes\066a.jpg,136,0,137,,,,,,,j,1.0710054999999556,0.08824699999968288,None,,,,,,137,0,136,745.915088400001,,,,,,,,,,,,,,,,,,,,,,,,,,,,,,745.9007586000007,745.915088400001,746.3994595000004,,,,,,,,,,,,,,746.4643487000012,,,,,,,,,,746.4606179000002,746.4643487000012,746.4643487000012,746.4643487000012,749.4153865000007,j,1.0710054999999556,0.08824699999968288,749.4155530999997,749.4156160000002,None,,,,,,,,,,,,,,00033,001,2026-01-16_12h22.39.096,MST_task,2024.2.0,59.8717427520787,2026-01-16 12h22.59.655800 +0530,
,Scenes\039a.jpg,137,0,138,,,,,,,j,1.0855842000000848,0.07246010000017122,None,,,,,,138,0,137,749.4317203999999,,,,,,,,,,,,,,,,,,,,,,,,,,,,,,749.4159586000005,749.4317203999999,749.9161138,,,,,,,,,,,,,,750.0253121999995,,,,,,,,,,750.0221005000003,750.0253121999995,750.0253121999995,750.0253121999995,752.9161461000003,j,1.0855842000000848,0.07246010000017122,752.9163490999999,752.9164195000012,None,,,,,,,,,,,,,,00033,001,2026-01-16_12h22.39.096,MST_task,2024.2.0,59.8717427520787,2026-01-16 12h22.59.655800 +0530,
,Scenes\082a.jpg,138,0,139,,,,,,,f,1.4597178999993048,0.09683120000045164,None,,,,,,139,0,138,752.9316538000003,,,,,,,,,,,,,,,,,,,,,,,,,,,,,,752.9168561000006,752.9316538000003,753.4160215000011,,,,,,,,,,,,,,753.515465800001,,,,,,,,,,753.512003400001,753.515465800001,753.515465800001,753.515465800001,756.4322742000004,f,1.4597178999993048,0.09683120000045164,756.4324465000009,756.4325076000005,None,,,,,,,,,,,,,,00033,001,2026-01-16_12h22.39.096,MST_task,2024.2.0,59.8717427520787,2026-01-16 12h22.59.655800 +0530,
,Scenes\049a.jpg,139,0,140,,,,,,,j,1.1880466000002343,0.07906589999947755,None,,,,,,140,0,139,756.4482970999998,,,,,,,,,,,,,,,,,,,,,,,,,,,,,,756.4328513,756.4482970999998,756.9326720999998,,,,,,,,,,,,,,757.0034075000003,,,,,,,,,,757.0002079000005,757.0034075000003,757.0034075000003,757.0034075000003,759.9488965,j,1.1880466000002343,0.07906589999947755,759.949067900001,759.9491299000001,None,,,,,,,,,,,,,,00033,001,2026-01-16_12h22.39.096,MST_task,2024.2.0,59.8717427520787,2026-01-16 12h22.59.655800 +0530,
,Objects\140a.jpg,140,0,141,,,,,,,j,1.8819198000001052,0.09452259999852686,None,,,,,,141,0,140,759.9649506999995,,,,,,,,,,,,,,,,,,,,,,,,,,,,,,759.9495215999996,759.9649506999995,760.4497716000005,,,,,,,,,,,,,,760.5097464999999,,,,,,,,,,760.5065887000001,760.5097464999999,760.5097464999999,760.5097464999999,763.4654308000008,j,1.8819198000001052,0.09452259999852686,763.4693790000001,763.4694166000008,None,,,,,,,,,,,,,,00033,001,2026-01-16_12h22.39.096,MST_task,2024.2.0,59.8717427520787,2026-01-16 12h22.59.655800 +0530,
,Objects\098a.jpg,141,0,142,,,,,,,f,0.9687071999996988,0.10437309999906574,None,,,,,,142,0,141,763.4815773000009,,,,,,,,,,,,,,,,,,,,,,,,,,,,,,763.4695709000007,763.4815773000009,763.9660136000002,,,,,,,,,,,,,,764.014446000001,,,,,,,,,,764.0111244,764.014446000001,764.014446000001,764.014446000001,766.9821042000003,f,0.9687071999996988,0.10437309999906574,766.9822734999998,766.9823354,None,,,,,,,,,,,,,,00033,001,2026-01-16_12h22.39.096,MST_task,2024.2.0,59.8717427520787,2026-01-16 12h22.59.655800 +0530,
,Objects\132a.jpg,142,0,143,,,,,,,f,1.1170971999999892,0.09575190000032308,None,,,,,,143,0,142,766.9985378000001,,,,,,,,,,,,,,,,,,,,,,,,,,,,,,766.9826764000009,766.9985378000001,767.4823913,,,,,,,,,,,,,,767.5383621000001,,,,,,,,,,767.5353126000009,767.5383621000001,767.5383621000001,767.5383621000001,770.4985362999996,f,1.1170971999999892,0.09575190000032308,770.4986222999996,770.4986495000012,None,,,,,,,,,,,,,,00033,001,2026-01-16_12h22.39.096,MST_task,2024.2.0,59.8717427520787,2026-01-16 12h22.59.655800 +0530,
,Objects\106a.jpg,143,0,144,,,,,,,f,1.1172337000007246,0.10382599999866216,None,,,,,,144,0,143,770.5148846000011,,,,,,,,,,,,,,,,,,,,,,,,,,,,,,770.4988422000006,770.5148846000011,770.9990974000011,,,,,,,,,,,,,,771.0651828999999,,,,,,,,,,771.0620359000004,771.0651828999999,771.0651828999999,771.0651828999999,774.0153764999995,f,1.1172337000007246,0.10382599999866216,774.0154874,774.0155243999998,None,,,,,,,,,,,,,,00033,001,2026-01-16_12h22.39.096,MST_task,2024.2.0,59.8717427520787,2026-01-16 12h22.59.655800 +0530,
,Objects\007a.jpg,144,0,145,,,,,,,j,2.308235999998942,0.0956028000000515,None,,,,,,145,0,144,774.0314209000007,,,,,,,,,,,,,,,,,,,,,,,,,,,,,,774.0158045000007,774.0314209000007,774.5161028000002,,,,,,,,,,,,,,774.5622854000012,,,,,,,,,,774.5592066999998,774.5622854000012,774.5622854000012,774.5622854000012,777.5321736000005,j,2.308235999998942,0.0956028000000515,777.5323105000007,777.5323578999996,None,,,,,,,,,,,,,,00033,001,2026-01-16_12h22.39.096,MST_task,2024.2.0,59.8717427520787,2026-01-16 12h22.59.655800 +0530,
,Objects\163a.jpg,145,0,146,,,,,,,f,1.563981999999669,0.1355583000004117,None,,,,,,146,0,145,777.5482303000008,,,,,,,,,,,,,,,,,,,,,,,,,,,,,,777.5326056000013,777.5482303000008,778.0323490999999,,,,,,,,,,,,,,778.0671538999995,,,,,,,,,,778.0627885000013,778.0671538999995,778.0671538999995,778.0671538999995,781.0487539999995,f,1.563981999999669,0.1355583000004117,781.048886300001,781.048931700001,None,,,,,,,,,,,,,,00033,001,2026-01-16_12h22.39.096,MST_task,2024.2.0,59.8717427520787,2026-01-16 12h22.59.655800 +0530,
,Objects\066a.jpg,146,0,147,,,,,,,j,1.4791883999987476,0.07147590000022319,None,,,,,,147,0,146,781.0650158000008,,,,,,,,,,,,,,,,,,,,,,,,,,,,,,781.0491682000011,781.0650158000008,781.5488915000005,,,,,,,,,,,,,,781.5836479999998,,,,,,,,,,781.5808771000011,781.5836479999998,781.5836479999998,781.5836479999998,784.5647594000002,j,1.4791883999987476,0.07147590000022319,784.5648196000002,784.5648460000011,None,,,,,,,,,,,,,,00033,001,2026-01-16_12h22.39.096,MST_task,2024.2.0,59.8717427520787,2026-01-16 12h22.59.655800 +0530,
,Scenes\159a.jpg,147,0,148,,,,,,,j,1.172840899998846,0.09645350000027975,None,,,,,,148,0,147,784.5809274000003,,,,,,,,,,,,,,,,,,,,,,,,,,,,,,784.5649579000001,784.5809274000003,785.0650509000006,,,,,,,,,,,,,,785.1294589000008,,,,,,,,,,785.1259322999995,785.1294589000008,785.1294589000008,785.1294589000008,788.0815650000004,j,1.172840899998846,0.09645350000027975,788.083862200001,788.0838855000002,None,,,,,,,,,,,,,,00033,001,2026-01-16_12h22.39.096,MST_task,2024.2.0,59.8717427520787,2026-01-16 12h22.59.655800 +0530,
,Scenes\053a.jpg,148,0,149,,,,,,,j,1.5136868999998114,0.08056500000020606,None,,,,,,149,0,148,788.0976432000007,,,,,,,,,,,,,,,,,,,,,,,,,,,,,,788.0841488999995,788.0976432000007,788.5822535999996,,,,,,,,,,,,,,788.6205043000009,,,,,,,,,,788.6169934999998,788.6205043000009,788.6205043000009,788.6205043000009,791.5986676000011,j,1.5136868999998114,0.08056500000020606,791.5988178000007,791.5988699000009,None,,,,,,,,,,,,,,00033,001,2026-01-16_12h22.39.096,MST_task,2024.2.0,59.8717427520787,2026-01-16 12h22.59.655800 +0530,
,Scenes\024a.jpg,149,0,150,,,,,,,j,0.8000655000014376,0.06435489999967103,None,,,,,,150,0,149,791.6149545000007,,,,,,,,,,,,,,,,,,,,,,,,,,,,,,791.5991797999995,791.6149545000007,792.0988404,,,,,,,,,,,,,,792.2227068000011,,,,,,,,,,792.218525100001,792.2227068000011,792.2227068000011,792.2227068000011,795.1153752999999,j,0.8000655000014376,0.06435489999967103,795.1155311000002,795.1155876000012,None,,,,,,,,,,,,,,00033,001,2026-01-16_12h22.39.096,MST_task,2024.2.0,59.8717427520787,2026-01-16 12h22.59.655800 +0530,
,Scenes\010a.jpg,150,0,151,,,,,,,f,0.8589998999996169,0.11275949999981094,None,,,,,,151,0,150,795.1314622000009,,,,,,,,,,,,,,,,,,,,,,,,,,,,,,795.1159832000012,795.1314622000009,795.6160755000001,,,,,,,,,,,,,,795.8351557999995,,,,,,,,,,795.8316941000012,795.8351557999995,795.8351557999995,795.8351557999995,798.6319949999997,f,0.8589998999996169,0.11275949999981094,798.6321538000011,798.6322113999995,None,,,,,,,,,,,,,,00033,001,2026-01-16_12h22.39.096,MST_task,2024.2.0,59.8717427520787,2026-01-16 12h22.59.655800 +0530,
,Scenes\041a.jpg,151,0,152,,,,,,,None,,,j,2.0183696999993117,None,,,,152,0,151,798.6482357000004,,,,,,,,,,,,,,,,,,,,,,,,,,,,,,798.6324927999995,798.6482357000004,799.1326090000002,,,,,,,,,,,,,,799.3383551999996,,,,,,,,,,799.3344998000011,799.3383551999996,799.3383551999996,799.3383551999996,802.148775900001,None,,,802.1489206999995,804.1990469000011,j,802.1646617999995,802.1646617999995,2.0183696999993117,None,,,,,,,,,,00033,001,2026-01-16_12h22.39.096,MST_task,2024.2.0,59.8717427520787,2026-01-16 12h22.59.655800 +0530,
,Scenes\032a.jpg,152,0,153,,,,,,,None,,,j,0.4515451999996003,None,,,,153,0,152,804.2148698000001,,,,,,,,,,,,,,,,,,,,,,,,,,,,,,804.1991510999997,804.2148698000001,804.6991056000006,,,,,,,,,,,,,,804.8657006000012,,,,,,,,,,804.8612615000002,804.8657006000012,804.8657006000012,804.8657006000012,807.7153596000007,None,,,807.7155252000011,808.2000007000006,j,807.7314736999997,807.7314736999997,0.4515451999996003,None,,,,,,,,,,00033,001,2026-01-16_12h22.39.096,MST_task,2024.2.0,59.8717427520787,2026-01-16 12h22.59.655800 +0530,
,Scenes\004a.jpg,153,0,154,,,,,,,j,1.7763259000003018,0.06346020000091812,None,,,,,,154,0,153,808.2148006999996,,,,,,,,,,,,,,,,,,,,,,,,,,,,,,808.2003316999999,808.2148006999996,808.6988418000001,,,,,,,,,,,,,,808.8311467000003,,,,,,,,,,808.8277954000005,808.8311467000003,808.8311467000003,808.8311467000003,811.7153472999998,j,1.7763259000003018,0.06346020000091812,811.7154576000012,811.7154957000002,None,,,,,,,,,,,,,,00033,001,2026-01-16_12h22.39.096,MST_task,2024.2.0,59.8717427520787,2026-01-16 12h22.59.655800 +0530,
,Objects\058a.jpg,154,0,155,,,,,,,f,0.8504329999996116,0.09632090000013704,None,,,,,,155,0,154,811.7318272000011,,,,,,,,,,,,,,,,,,,,,,,,,,,,,,811.7157631000009,811.7318272000011,812.2157758000012,,,,,,,,,,,,,,812.3079066000009,,,,,,,,,,812.3037466999995,812.3079066000009,812.3079066000009,812.3079066000009,815.2319896000008,f,0.8504329999996116,0.09632090000013704,815.2371385000006,815.2372070000001,None,,,,,,,,,,,,,,00033,001,2026-01-16_12h22.39.096,MST_task,2024.2.0,59.8717427520787,2026-01-16 12h22.59.655800 +0530,
,Objects\139a.jpg,155,0,156,,,,,,,f,2.0807545999996364,0.07138169999961974,None,,,,,,156,0,155,815.2482041000003,,,,,,,,,,,,,,,,,,,,,,,,,,,,,,815.2374533000002,815.2482041000003,815.7331864999996,,,,,,,,,,,,,,815.7902445,,,,,,,,,,815.7871716999998,815.7902445,815.7902445,815.7902445,818.7486889000011,f,2.0807545999996364,0.07138169999961974,818.7488004000006,818.7488389000009,None,,,,,,,,,,,,,,00033,001,2026-01-16_12h22.39.096,MST_task,2024.2.0,59.8717427520787,2026-01-16 12h22.59.655800 +0530,
,Objects\070a.jpg,156,0,157,,,,,,,f,2.7823343000000023,0.08074370000031195,None,,,,,,157,0,156,818.7648915999998,,,,,,,,,,,,,,,,,,,,,,,,,,,,,,818.7490314999995,818.7648915999998,819.2492646999999,,,,,,,,,,,,,,819.2877881000004,,,,,,,,,,819.2849187000011,819.2877881000004,819.2877881000004,819.2877881000004,822.2653534000001,f,2.7823343000000023,0.08074370000031195,822.2655219000007,822.2655616000011,None,,,,,,,,,,,,,,00033,001,2026-01-16_12h22.39.096,MST_task,2024.2.0,59.8717427520787,2026-01-16 12h22.59.655800 +0530,
,Objects\191a.jpg,157,0,158,,,,,,,f,1.8868179000000964,0.07178369999928691,None,,,,,,158,0,157,822.2816086000003,,,,,,,,,,,,,,,,,,,,,,,,,,,,,,822.265767500001,822.2816086000003,822.7659973000009,,,,,,,,,,,,,,822.7992723000007,,,,,,,,,,822.7962564999998,822.7992723000007,822.7992723000007,822.7992723000007,825.7819600000003,f,1.8868179000000964,0.07178369999928691,825.7821220000005,825.7821741000007,None,,,,,,,,,,,,,,00033,001,2026-01-16_12h22.39.096,MST_task,2024.2.0,59.8717427520787,2026-01-16 12h22.59.655800 +0530,
,Objects\096a.jpg,158,0,159,,,,,,,f,1.7700779999995575,0.12096430000019609,None,,,,,,159,0,158,825.7982926000004,,,,,,,,,,,,,,,,,,,,,,,,,,,,,,825.7825021999997,825.7982926000004,826.282196600001,,,,,,,,,,,,,,826.3482414000009,,,,,,,,,,826.3449512999996,826.3482414000009,826.3482414000009,826.3482414000009,829.2986459000003,f,1.7700779999995575,0.12096430000019609,829.2986997999997,829.2987152000005,None,,,,,,,,,,,,,,00033,001,2026-01-16_12h22.39.096,MST_task,2024.2.0,59.8717427520787,2026-01-16 12h22.59.655800 +0530,
,Objects\124a.jpg,159,0,160,,,,,,,None,,,f,0.27095009999902686,None,,,,160,0,159,829.3148228000009,,,,,,,,,,,,,,,,,,,,,,,,,,,,,,829.2988002000002,829.3148228000009,829.7991175999996,,,,,,,,,,,,,,829.8820789000001,,,,,,,,,,829.878733900001,829.8820789000001,829.8820789000001,829.8820789000001,832.8151360000011,None,,,832.815271200001,833.1167710000009,f,832.8315323999996,832.8315323999996,0.27095009999902686,None,,,,,,,,,,00033,001,2026-01-16_12h22.39.096,MST_task,2024.2.0,59.8717427520787,2026-01-16 12h22.59.655800 +0530,
,Objects\077a.jpg,160,0,161,,,,,,,j,1.2625086000007286,0.12072380000063276,None,,,,,,161,0,160,833.1315508000007,,,,,,,,,,,,,,,,,,,,,,,,,,,,,,833.1172896999997,833.1315508000007,833.6159433000012,,,,,,,,,,,,,,833.6641360000012,,,,,,,,,,833.6607768000013,833.6641360000012,833.6641360000012,833.6641360000012,836.6319291,j,1.2625086000007286,0.12072380000063276,836.6320972000012,836.6321559000007,None,,,,,,,,,,,,,,00033,001,2026-01-16_12h22.39.096,MST_task,2024.2.0,59.8717427520787,2026-01-16 12h22.59.655800 +0530,
,Scenes\163a.jpg,161,0,162,,,,,,,j,1.1197515000003477,0.08815809999941848,None,,,,,,162,0,161,836.6483671000005,,,,,,,,,,,,,,,,,,,,,,,,,,,,,,836.6324119000001,836.6483671000005,837.1321232000009,,,,,,,,,,,,,,837.2230543999995,,,,,,,,,,837.2197078000008,837.2230543999995,837.2230543999995,837.2230543999995,840.1487369000006,j,1.1197515000003477,0.08815809999941848,840.1528138000012,840.1528512000004,None,,,,,,,,,,,,,,00033,001,2026-01-16_12h22.39.096,MST_task,2024.2.0,59.8717427520787,2026-01-16 12h22.59.655800 +0530,
,Scenes\117a.jpg,162,0,163,,,,,,,j,2.6834378999992623,0.10402930000054766,None,,,,,,163,0,162,840.1647427000007,,,,,,,,,,,,,,,,,,,,,,,,,,,,,,840.1530581999996,840.1647427000007,840.649109,,,,,,,,,,,,,,840.7156580999999,,,,,,,,,,840.7113569000012,840.7156580999999,840.7156580999999,840.7156580999999,843.6653509999996,j,2.6834378999992623,0.10402930000054766,843.6654567000005,843.6655200000005,None,,,,,,,,,,,,,,00033,001,2026-01-16_12h22.39.096,MST_task,2024.2.0,59.8717427520787,2026-01-16 12h22.59.655800 +0530,
,Scenes\028a.jpg,163,0,164,,,,,,,j,1.0601623000002292,0.12013529999967432,None,,,,,,164,0,163,843.6815626999996,,,,,,,,,,,,,,,,,,,,,,,,,,,,,,843.6658821000001,843.6815626999996,844.1658948000004,,,,,,,,,,,,,,844.2659811000012,,,,,,,,,,844.260843,844.2659811000012,844.2659811000012,844.2659811000012,847.1819507,j,1.0601623000002292,0.12013529999967432,847.1821154999998,847.1821758999995,None,,,,,,,,,,,,,,00033,001,2026-01-16_12h22.39.096,MST_task,2024.2.0,59.8717427520787,2026-01-16 12h22.59.655800 +0530,
,Scenes\177a.jpg,164,0,165,,,,,,,j,0.7110592000008182,0.09495699999934004,None,,,,,,165,0,164,847.1983457999995,,,,,,,,,,,,,,,,,,,,,,,,,,,,,,847.1825936000005,847.1983457999995,847.6824143000013,,,,,,,,,,,,,,847.8004867,,,,,,,,,,847.7970036999996,847.8004867,847.8004867,847.8004867,850.698774800001,j,0.7110592000008182,0.09495699999934004,850.6988947000009,850.6989345000002,None,,,,,,,,,,,,,,00033,001,2026-01-16_12h22.39.096,MST_task,2024.2.0,59.8717427520787,2026-01-16 12h22.59.655800 +0530,
,Scenes\103a.jpg,165,0,166,,,,,,,j,1.546939800000473,0.11996069999986503,None,,,,,,166,0,165,850.7147911000011,,,,,,,,,,,,,,,,,,,,,,,,,,,,,,850.699142200001,850.7147911000011,851.1991252999997,,,,,,,,,,,,,,851.2921359000011,,,,,,,,,,851.2886312999999,851.2921359000011,851.2921359000011,851.2921359000011,854.2152837000012,j,1.546939800000473,0.11996069999986503,854.2154504000009,854.2155237999996,None,,,,,,,,,,,,,,00033,001,2026-01-16_12h22.39.096,MST_task,2024.2.0,59.8717427520787,2026-01-16 12h22.59.655800 +0530,
,Scenes\100a.jpg,166,0,167,,,,,,,f,1.197767699999531,0.11262620000161405,None,,,,,,167,0,166,854.2316193999995,,,,,,,,,,,,,,,,,,,,,,,,,,,,,,854.2158887999994,854.2316193999995,854.7157263999998,,,,,,,,,,,,,,854.7850581000002,,,,,,,,,,854.7814318000001,854.7850581000002,854.7850581000002,854.7850581000002,857.7319800000005,f,1.197767699999531,0.11262620000161405,857.7321628000009,857.7322256999996,None,,,,,,,,,,,,,,00033,001,2026-01-16_12h22.39.096,MST_task,2024.2.0,59.8717427520787,2026-01-16 12h22.59.655800 +0530,
,Scenes\087a.jpg,167,0,168,,,,,,,j,0.8314045000006445,0.10531569999875501,None,,,,,,168,0,167,857.7481907000001,,,,,,,,,,,,,,,,,,,,,,,,,,,,,,857.7325863999995,857.7481907000001,858.2324016000002,,,,,,,,,,,,,,858.3346455999999,,,,,,,,,,858.3312425000004,858.3346455999999,858.3346455999999,858.3346455999999,861.2486772000011,j,0.8314045000006445,0.10531569999875501,861.2488128000005,861.2488582000005,None,,,,,,,,,,,,,,00033,001,2026-01-16_12h22.39.096,MST_task,2024.2.0,59.8717427520787,2026-01-16 12h22.59.655800 +0530,
,Objects\188a.jpg,168,0,169,,,,,,,f,1.55209719999948,0.08056369999940216,None,,,,,,169,0,168,861.2647725000006,,,,,,,,,,,,,,,,,,,,,,,,,,,,,,861.2490945000009,861.2647725000006,861.7490949000003,,,,,,,,,,,,,,,,,,,,,,,,861.8030028000012,861.8065929000004,861.8065929000004,861.8065929000004,864.7654480000001,f,1.55209719999948,0.08056369999940216,864.7711614,864.7712016000005,None,,,,,,,,,,,,,,00033,001,2026-01-16_12h22.39.096,MST_task,2024.2.0,59.8717427520787,2026-01-16 12h22.59.655800 +0530,
,Objects\177a.jpg,169,0,170,,,,,,,j,1.2365289000008488,0.12799059999997553,None,,,,,,170,0,169,864.7815566999998,,,,,,,,,,,,,,,,,,,,,,,,,,,,,,864.7714331999996,864.7815566999998,865.266179100001,,,,,,,,,,,,,,865.3142387999997,,,,,,,,,,865.3104277000002,865.3142387999997,865.3142387999997,865.3142387999997,868.2820207000004,j,1.2365289000008488,0.12799059999997553,868.2821634000011,868.2822152999997,None,,,,,,,,,,,,,,00033,001,2026-01-16_12h22.39.096,MST_task,2024.2.0,59.8717427520787,2026-01-16 12h22.59.655800 +0530,
,Objects\155a.jpg,170,0,171,,,,,,,f,0.6872435999994195,0.07259390000035637,None,,,,,,171,0,170,868.298072900001,,,,,,,,,,,,,,,,,,,,,,,,,,,,,,868.2825795000008,868.298072900001,868.7828153999999,,,,,,,,,,,,,,868.8473365000009,,,,,,,,,,868.8427716000006,868.8473365000009,868.8473365000009,868.8473365000009,871.7989119000013,f,0.6872435999994195,0.07259390000035637,871.7990520000003,871.7990967000005,None,,,,,,,,,,,,,,00033,001,2026-01-16_12h22.39.096,MST_task,2024.2.0,59.8717427520787,2026-01-16 12h22.59.655800 +0530,
,Objects\176a.jpg,171,0,172,,,,,,,j,0.8238571000001684,0.12094500000057451,None,,,,,,172,0,171,871.8152295,,,,,,,,,,,,,,,,,,,,,,,,,,,,,,871.7994350000008,871.8152295,872.2993422,,,,,,,,,,,,,,872.3262730000006,,,,,,,,,,872.3231620000006,872.3262730000006,872.3262730000006,872.3262730000006,875.3153651000011,j,0.8238571000001684,0.12094500000057451,875.3155129000006,875.3155655999999,None,,,,,,,,,,,,,,00033,001,2026-01-16_12h22.39.096,MST_task,2024.2.0,59.8717427520787,2026-01-16 12h22.59.655800 +0530,
,Objects\134a.jpg,172,0,173,,,,,,,j,0.9897547000000486,0.11991069999930914,None,,,,,,173,0,172,875.3315263000004,,,,,,,,,,,,,,,,,,,,,,,,,,,,,,875.315915000001,875.3315263000004,875.8160090000001,,,,,,,,,,,,,,875.8806220999995,,,,,,,,,,875.8757444000003,875.8806220999995,875.8806220999995,875.8806220999995,878.8319652999999,j,0.9897547000000486,0.11991069999930914,878.8321319999995,878.8321937000001,None,,,,,,,,,,,,,,00033,001,2026-01-16_12h22.39.096,MST_task,2024.2.0,59.8717427520787,2026-01-16 12h22.59.655800 +0530,
,Objects\061a.jpg,173,0,174,,,,,,,j,0.9950802999992447,0.07107420000102138,None,,,,,,174,0,173,878.848482200001,,,,,,,,,,,,,,,,,,,,,,,,,,,,,,878.8326152000009,878.848482200001,879.3327358999995,,,,,,,,,,,,,,879.4281537999996,,,,,,,,,,879.4251948000001,879.4281537999996,879.4281537999996,879.4281537999996,882.3486742000005,j,0.9950802999992447,0.07107420000102138,882.3487918999999,882.3488288000008,None,,,,,,,,,,,,,,00033,001,2026-01-16_12h22.39.096,MST_task,2024.2.0,59.8717427520787,2026-01-16 12h22.59.655800 +0530,
,Objects\099a.jpg,174,0,175,,,,,,,f,2.1670176000006904,0.10322909999922558,None,,,,,,175,0,174,882.365031700001,,,,,,,,,,,,,,,,,,,,,,,,,,,,,,882.3490973999997,882.365031700001,882.8491499000011,,,,,,,,,,,,,,882.8881316999996,,,,,,,,,,882.8855049000013,882.8881316999996,882.8881316999996,882.8881316999996,885.8491857000008,f,2.1670176000006904,0.10322909999922558,885.8493206000003,885.8493655000002,None,,,,,,,,,,,,,,00033,001,2026-01-16_12h22.39.096,MST_task,2024.2.0,59.8717427520787,2026-01-16 12h22.59.655800 +0530,
