Sl_no,image_path,thisN,thisTrialN,thisRepN,key_resp_5.keys,key_resp_7.keys,key_resp_7.rt,key_resp_7.duration,key_resp_5.rt,key_resp_5.duration,key_resp_9.keys,key_resp_9.rt,key_resp_9.duration,key_resp_8.keys,key_resp_8.rt,key_resp_8.duration,practice.thisRepN,practice.thisTrialN,practice.thisN,trials.thisRepN,trials.thisTrialN,trials.thisN,thisRow.t,notes,welcome_page.started,text.started,key_resp.started,welcome_page.stopped,key_resp.keys,key_resp.rt,key_resp.duration,instructions.started,ins.started,key_resp_2.started,instructions.stopped,key_resp_2.keys,key_resp_2.rt,key_resp_2.duration,instructions_2.started,text_10.started,key_resp_10.started,instructions_2.stopped,key_resp_10.keys,key_resp_10.rt,key_resp_10.duration,objects_only_instruction.started,text_3.started,key_resp_3.started,objects_only_instruction.stopped,key_resp_3.keys,key_resp_3.rt,key_resp_3.duration,ISI.started,text_4.started,ISI.stopped,practice_block.started,image.started,text_5.started,key_resp_5.started,practice_block.stopped,practice.key_resp_5.keys,indoor_outdoor.started,text_7.started,key_resp_7.started,indoor_outdoor.stopped,practice.key_resp_7.keys,practice.key_resp_7.rt,practice.key_resp_7.duration,practice.key_resp_5.rt,practice.key_resp_5.duration,practice_to_main.started,text_2.started,key_resp_4.started,practice_to_main.stopped,key_resp_4.keys,key_resp_4.rt,key_resp_4.duration,objects.started,image_2.started,text_9.started,key_resp_9.started,objects.stopped,trials.key_resp_9.keys,trials.key_resp_9.rt,trials.key_resp_9.duration,encoding_task.started,encoding_task.stopped,trials.key_resp_8.keys,text_8.started,key_resp_8.started,trials.key_resp_8.rt,trials.key_resp_8.duration,text_4.stopped,end_experiment.started,text_6.started,key_resp_6.started,end_experiment.stopped,key_resp_6.keys,key_resp_6.rt,key_resp_6.duration,list_of_stimuli,encoding_task_accuracy,participant,session,date,expName,psychopyVersion,frameRate,expStart,
,,,,,,,,,,,,,,,,,,,,,,,,,0.014956200000597164,0.03150179999647662,0.03150179999647662,10.655852399999276,space,10.617522199987434,None,,,,,,,,,,,,,,,,,,,,,,,,,,,,,,,,,,,,,,,,,,,,,,,,,,,,,,,,,,,,,,,,,,,,,,,,00036,001,2026-01-16_15h17.10.885,MST_task,2024.2.0,59.44105201797553,2026-01-16 15h17.29.343903 +0530,
,,,,,,,,,,,,,,,,,,,,,,,,,,,,,,,,10.65588679999928,10.669740599987563,10.669740599987563,28.53377159999218,space,17.858158299990464,None,,,,,,,,,,,,,,,,,,,,,,,,,,,,,,,,,,,,,,,,,,,,,,,,,,,,,,,,,,,,,,,,,00036,001,2026-01-16_15h17.10.885,MST_task,2024.2.0,59.44105201797553,2026-01-16 15h17.29.343903 +0530,
,,,,,,,,,,,,,,,,,,,,,,,,,,,,,,,,,,,,,,,28.533801099983975,28.54986089997692,28.54986089997692,42.75041379997856,space,14.186132100003306,None,,,,,,,,,,,,,,,,,,,,,,,,,,,,,,,,,,,,,,,,,,,,,,,,,,,,,,,,,,00036,001,2026-01-16_15h17.10.885,MST_task,2024.2.0,59.44105201797553,2026-01-16 15h17.29.343903 +0530,
,,,,,,,,,,,,,,,,,,,,,,,,,,,,,,,,,,,,,,,,,,,,,,42.75045749999117,42.76643549997243,42.76643549997243,61.700039699993795,space,18.930889699986437,None,,,,,,,,,,,,,,,,,,,,,,,,,,,,,,,,,,,,,,,,,,,,,,,,,,,00036,001,2026-01-16_15h17.10.885,MST_task,2024.2.0,59.44105201797553,2026-01-16 15h17.29.343903 +0530,
1,practice_images/013a.jpg,0,0,1,None,j,0.43569270000443794,None,,,,,,,,,1,0,0,,,,61.73277539998526,,,,,,,,,,,,,,,,,,,,,,,,,,,,,,61.71432449997519,61.73277539998526,62.201110699999845,62.219066299992846,62.2346243999782,62.2346243999782,62.2346243999782,65.21165459998883,None,65.21306259999983,65.22832739999285,65.22832739999285,65.6803857999912,j,0.43569270000443794,None,,,,,,,,,,,,,,,,,,,,,,,,,,,,,,,,,,,00036,001,2026-01-16_15h17.10.885,MST_task,2024.2.0,59.44105201797553,2026-01-16 15h17.29.343903 +0530,
7,practice_images/166a.jpg,1,1,1,None,f,1.4156711999967229,None,,,,,,,,,1,1,1,,,,65.6966733999725,,,,,,,,,,,,,,,,,,,,,,,,,,,,,,65.68048299997463,65.6966733999725,66.18172609998146,66.19367429998238,66.2150152999966,66.2150152999966,66.2150152999966,69.19179939999594,None,69.1918659999792,69.20861349999905,69.20861349999905,70.63084569998318,f,1.4156711999967229,None,,,,,,,,,,,,,,,,,,,,,,,,,,,,,,,,,,,00036,001,2026-01-16_15h17.10.885,MST_task,2024.2.0,59.44105201797553,2026-01-16 15h17.29.343903 +0530,
4,practice_images/002b.jpg,2,2,1,None,f,2.376803499995731,None,,,,,,,,,1,2,2,,,,70.64703169997665,,,,,,,,,,,,,,,,,,,,,,,,,,,,,,70.63093689997913,70.64703169997665,71.13229179999325,71.14315079999506,71.16583339998033,71.16583339998033,71.16583339998033,74.14296609998564,None,74.1430075999815,74.15953639999498,74.15953639999498,76.55189569998765,f,2.376803499995731,None,,,,,,,,,,,,,,,,,,,,,,,,,,,,,,,,,,,00036,001,2026-01-16_15h17.10.885,MST_task,2024.2.0,59.44105201797553,2026-01-16 15h17.29.343903 +0530,
10,practice_images/182a.jpg,3,3,1,None,f,0.6965960999950767,None,,,,,,,,,1,3,3,,,,76.56795059997239,,,,,,,,,,,,,,,,,,,,,,,,,,,,,,76.55198289998225,76.56795059997239,77.05313259997638,77.06287859997246,77.08643569998094,77.08643569998094,77.08643569998094,80.06414619999123,None,80.06418180000037,80.08033369999612,80.08033369999612,80.78333099998417,f,0.6965960999950767,None,,,,,,,,,,,,,,,,,,,,,,,,,,,,,,,,,,,00036,001,2026-01-16_15h17.10.885,MST_task,2024.2.0,59.44105201797553,2026-01-16 15h17.29.343903 +0530,
8,practice_images/178a.jpg,4,4,1,None,j,2.84958129998995,None,,,,,,,,,1,4,4,,,,80.79942789999768,,,,,,,,,,,,,,,,,,,,,,,,,,,,,,80.78342429999611,80.79942789999768,81.28473639997537,81.29459219999262,81.31792119998136,81.31792119998136,81.31792119998136,84.29517040000064,None,84.29520989998127,84.31172299999162,84.31172299999162,87.17230469998321,j,2.84958129998995,None,,,,,,,,,,,,,,,,,,,,,,,,,,,,,,,,,,,00036,001,2026-01-16_15h17.10.885,MST_task,2024.2.0,59.44105201797553,2026-01-16 15h17.29.343903 +0530,
9,practice_images/180a.jpg,5,5,1,None,f,1.7469751999888103,None,,,,,,,,,1,5,5,,,,87.18846959999064,,,,,,,,,,,,,,,,,,,,,,,,,,,,,,87.17240479998873,87.18846959999064,87.67371259999345,87.6857522999926,87.70726789999753,87.70726789999753,87.70726789999753,90.6848684999859,None,90.68658999999752,90.70093249998172,90.70093249998172,92.45770739999716,f,1.7469751999888103,None,,,,,,,,,,,,,,,,,,,,,,,,,,,,,,,,,,,00036,001,2026-01-16_15h17.10.885,MST_task,2024.2.0,59.44105201797553,2026-01-16 15h17.29.343903 +0530,
5,practice_images/139a.jpg,6,6,1,None,j,3.2704787000257056,None,,,,,,,,,1,6,6,,,,92.47364939999534,,,,,,,,,,,,,,,,,,,,,,,,,,,,,,92.45780619999277,92.47364939999534,92.95884680000017,92.96861539999372,92.9923064999748,92.9923064999748,92.9923064999748,95.96927699999651,None,95.96931309998035,95.98606349999318,95.98606349999318,99.26474199999939,j,3.2704787000257056,None,,,,,,,,,,,,,,,,,,,,,,,,,,,,,,,,,,,00036,001,2026-01-16_15h17.10.885,MST_task,2024.2.0,59.44105201797553,2026-01-16 15h17.29.343903 +0530,
3,practice_images/037a.jpg,7,7,1,None,f,0.8879416999989189,None,,,,,,,,,1,7,7,,,,99.28086529998109,,,,,,,,,,,,,,,,,,,,,,,,,,,,,,99.26483289999305,99.28086529998109,99.76619759999448,99.7763310999726,99.79943599997205,99.79943599997205,99.79943599997205,102.77645929998835,None,102.77649439999368,102.79325379998772,102.79325379998772,103.69692639997811,f,0.8879416999989189,None,,,,,,,,,,,,,,,,,,,,,,,,,,,,,,,,,,,00036,001,2026-01-16_15h17.10.885,MST_task,2024.2.0,59.44105201797553,2026-01-16 15h17.29.343903 +0530,
6,practice_images/158a.jpg,8,8,1,j,None,,,1.9367844999942463,0.06343740000738762,,,,,,,1,8,8,,,,103.71313499999815,,,,,,,,,,,,,,,,,,,,,,,,,,,,,,103.69701549998717,103.71313499999815,104.19845199998235,104.20816909999121,104.23150449999957,104.23150449999957,104.23150449999957,107.2086448999762,j,107.20868339997833,,,107.20869569998467,None,,,1.9367844999942463,0.06343740000738762,,,,,,,,,,,,,,,,,,,,,,,,,,,,,,,,,00036,001,2026-01-16_15h17.10.885,MST_task,2024.2.0,59.44105201797553,2026-01-16 15h17.29.343903 +0530,
2,practice_images/031a.jpg,9,9,1,j,None,,,0.07211030001053587,0.09576080000260845,,,,,,,1,9,9,,,,107.22543819999555,,,,,,,,,,,,,,,,,,,,,,,,,,,,,,107.20877759999712,107.22543819999555,107.71039669998572,107.72001919997274,107.74392529999022,107.74392529999022,107.74392529999022,110.72109099998488,j,110.72113219997846,,,110.72114559999318,None,,,0.07211030001053587,0.09576080000260845,,,,,,,,,,,,,,,,,,,,,,,,,,,,,,,,,00036,001,2026-01-16_15h17.10.885,MST_task,2024.2.0,59.44105201797553,2026-01-16 15h17.29.343903 +0530,
,,,,,,,,,,,,,,,,,,,,,,,,,,,,,,,,,,,,,,,,,,,,,,,,,,,,,,,,,,,,,,,,,,,,,,,110.72119240000029,110.7380245999957,110.7380245999957,185.48353379999753,space,74.73385509999935,None,,,,,,,,,,,,,,,,,,,,,,,,,,00036,001,2026-01-16_15h17.10.885,MST_task,2024.2.0,59.44105201797553,2026-01-16 15h17.29.343903 +0530,
,Scenes\114a.jpg,0,0,1,,,,,,,f,2.1246641000034288,0.10590759999467991,None,,,,,,1,0,0,185.49946309998631,,,,,,,,,,,,,,,,,,,,,,,,,,,,,,185.48431249998976,185.49946309998631,185.98465769999893,,,,,,,,,,,,,,,,,,,,,,,186.02121769997757,186.03500639999402,186.03500639999402,186.03500639999402,188.99486489998526,f,2.1246641000034288,0.10590759999467991,188.9962618999998,188.9962794999883,None,,,,,,,,,,,,,,,00036,001,2026-01-16_15h17.10.885,MST_task,2024.2.0,59.44105201797553,2026-01-16 15h17.29.343903 +0530,
,Scenes\014a.jpg,1,0,2,,,,,,,f,1.7811295000137761,0.09502040001098067,None,,,,,,2,0,1,189.01145759999054,,,,,,,,,,,,,,,,,,,,,,,,,,,,,,188.99639549999847,189.01145759999054,189.49666929998784,,,,,,,,,,,,,,,,,,,,,,,189.5247921999835,189.5475970999978,189.5475970999978,189.5475970999978,192.50791190000018,f,1.7811295000137761,0.09502040001098067,192.50796299998183,192.50797690000036,None,,,,,,,,,,,,,,,00036,001,2026-01-16_15h17.10.885,MST_task,2024.2.0,59.44105201797553,2026-01-16 15h17.29.343903 +0530,
,Scenes\046a.jpg,2,0,3,,,,,,,j,1.004139299999224,0.11965190002229065,None,,,,,,3,0,2,192.5242542999913,,,,,,,,,,,,,,,,,,,,,,,,,,,,,,192.50805469998159,192.5242542999913,193.00912639999297,,,,,,,,,,,,,,,,,,,,,,,193.04381849998026,193.0600420999981,193.0600420999981,193.0600420999981,196.01943339998252,j,1.004139299999224,0.11965190002229065,196.0197531999729,196.0197780999879,None,,,,,,,,,,,,,,,00036,001,2026-01-16_15h17.10.885,MST_task,2024.2.0,59.44105201797553,2026-01-16 15h17.29.343903 +0530,
,Scenes\027a.jpg,3,0,4,,,,,,,f,1.8358857999846805,0.1280628000095021,None,,,,,,4,0,3,196.036086099979,,,,,,,,,,,,,,,,,,,,,,,,,,,,,,196.0198874999769,196.036086099979,196.5212491999846,,,,,,,,,,,,,,,,,,,,,,,196.5460501999769,196.57257439999375,196.57257439999375,196.57257439999375,199.5316331999784,f,1.8358857999846805,0.1280628000095021,199.5316750999773,199.5316874999844,None,,,,,,,,,,,,,,,00036,001,2026-01-16_15h17.10.885,MST_task,2024.2.0,59.44105201797553,2026-01-16 15h17.29.343903 +0530,
,Scenes\107a.jpg,4,0,5,,,,,,,j,1.2842025999852922,0.10341569999582134,None,,,,,,5,0,4,199.54847789998166,,,,,,,,,,,,,,,,,,,,,,,,,,,,,,199.53175699998974,199.54847789998166,200.03341249999357,,,,,,,,,,,,,,,,,,,,,,,200.0585657999909,200.08449049998308,200.08449049998308,200.08449049998308,203.04405789999873,j,1.2842025999852922,0.10341569999582134,203.04410179998376,203.0441138999886,None,,,,,,,,,,,,,,,00036,001,2026-01-16_15h17.10.885,MST_task,2024.2.0,59.44105201797553,2026-01-16 15h17.29.343903 +0530,
,Scenes\020a.jpg,5,0,6,,,,,,,f,1.7413667000073474,0.09468730000662617,None,,,,,,6,0,5,203.06065169998328,,,,,,,,,,,,,,,,,,,,,,,,,,,,,,203.04418409999926,203.06065169998328,203.5459965999762,,,,,,,,,,,,,,,,,,,,,,,203.57820459999493,203.59660459999577,203.59660459999577,203.59660459999577,206.55640939998557,f,1.7413667000073474,0.09468730000662617,206.55645359997288,206.55646619998151,None,,,,,,,,,,,,,,,00036,001,2026-01-16_15h17.10.885,MST_task,2024.2.0,59.44105201797553,2026-01-16 15h17.29.343903 +0530,
,Scenes\152a.jpg,6,0,7,,,,,,,j,1.9248200000147335,0.10577119997469708,None,,,,,,7,0,6,206.5732290999731,,,,,,,,,,,,,,,,,,,,,,,,,,,,,,206.55657199997222,206.5732290999731,207.05858399998397,,,,,,,,,,,,,,,,,,,,,,,207.08039829999325,207.09095559999696,207.09095559999696,207.09095559999696,210.0688322999922,j,1.9248200000147335,0.10577119997469708,210.06887609997648,210.06888829998206,None,,,,,,,,,,,,,,,00036,001,2026-01-16_15h17.10.885,MST_task,2024.2.0,59.44105201797553,2026-01-16 15h17.29.343903 +0530,
,Objects\144a.jpg,7,0,8,,,,,,,None,,,f,0.8738908999948762,None,,,,8,0,7,210.0854140999727,,,,,,,,,,,,,,,,,,,,,,,,,,,,,,210.06900819999282,210.0854140999727,210.57063749997178,,,,,,,,,,,,,,,,,,,,,,,210.6052107999858,210.6216287999996,210.6216287999996,210.6216287999996,213.5813572999905,None,,,213.58447889998206,214.4846336999908,f,213.59819399999105,213.59819399999105,0.8738908999948762,None,,,,,,,,,,,00036,001,2026-01-16_15h17.10.885,MST_task,2024.2.0,59.44105201797553,2026-01-16 15h17.29.343903 +0530,
,Objects\057a.jpg,8,0,9,,,,,,,f,1.764354800019646,0.14338519997545518,None,,,,,,9,0,8,214.50100469999597,,,,,,,,,,,,,,,,,,,,,,,,,,,,,,214.4847658999788,214.50100469999597,214.98598499997752,,,,,,,,,,,,,,,,,,,,,,,215.00887469999725,215.02007889997913,215.02007889997913,215.02007889997913,217.996434199973,f,1.764354800019646,0.14338519997545518,217.99648089997936,217.99649329998647,None,,,,,,,,,,,,,,,00036,001,2026-01-16_15h17.10.885,MST_task,2024.2.0,59.44105201797553,2026-01-16 15h17.29.343903 +0530,
,Objects\179a.jpg,9,0,10,,,,,,,f,1.3728533000103198,0.12084889999823645,None,,,,,,10,0,9,218.01303139998345,,,,,,,,,,,,,,,,,,,,,,,,,,,,,,217.9965630999941,218.01303139998345,218.49860579997767,,,,,,,,,,,,,,,,,,,,,,,218.52079909999156,218.531459299993,218.531459299993,218.531459299993,221.50925739997183,f,1.3728533000103198,0.12084889999823645,221.50930669999798,221.50931899997522,None,,,,,,,,,,,,,,,00036,001,2026-01-16_15h17.10.885,MST_task,2024.2.0,59.44105201797553,2026-01-16 15h17.29.343903 +0530,
,Objects\106a.jpg,10,0,11,,,,,,,f,2.8847157999989577,None,None,,,,,,11,0,10,221.5259098999959,,,,,,,,,,,,,,,,,,,,,,,,,,,,,,221.50947409999208,221.5259098999959,222.01042439998128,,,,,,,,,,,,,,,,,,,,,,,222.03351039998233,222.0441107999941,222.0441107999941,222.0441107999941,225.0210695999849,f,2.8847157999989577,None,225.02111139998306,225.02112409999245,None,,,,,,,,,,,,,,,00036,001,2026-01-16_15h17.10.885,MST_task,2024.2.0,59.44105201797553,2026-01-16 15h17.29.343903 +0530,
,Objects\174a.jpg,11,0,12,,,,,,,f,1.604679699987173,0.1433617000002414,None,,,,,,12,0,11,225.03790169997956,,,,,,,,,,,,,,,,,,,,,,,,,,,,,,225.02124419997563,225.03790169997956,225.5228558999952,,,,,,,,,,,,,,,,,,,,,,,225.5449394999887,225.55635639998945,225.55635639998945,225.55635639998945,228.5335065999825,f,1.604679699987173,0.1433617000002414,228.53354919998674,228.53357279999182,None,,,,,,,,,,,,,,,00036,001,2026-01-16_15h17.10.885,MST_task,2024.2.0,59.44105201797553,2026-01-16 15h17.29.343903 +0530,
,Objects\192a.jpg,12,0,13,,,,,,,f,1.7482913999992888,0.11922349999076687,None,,,,,,13,0,12,228.5500844999915,,,,,,,,,,,,,,,,,,,,,,,,,,,,,,228.53369329997804,228.5500844999915,229.03513669999666,,,,,,,,,,,,,,,,,,,,,,,229.05748399998993,229.06839409997337,229.06839409997337,229.06839409997337,232.04552819998935,f,1.7482913999992888,0.11922349999076687,232.04557319998275,232.0455854999891,None,,,,,,,,,,,,,,,00036,001,2026-01-16_15h17.10.885,MST_task,2024.2.0,59.44105201797553,2026-01-16 15h17.29.343903 +0530,
,Objects\161a.jpg,13,0,14,,,,,,,f,1.083298100013053,0.12874270000611432,None,,,,,,14,0,13,232.06251439999323,,,,,,,,,,,,,,,,,,,,,,,,,,,,,,232.04565619997447,232.06251439999323,232.54730219999328,,,,,,,,,,,,,,,,,,,,,,,232.56940959999338,232.5807867999829,232.5807867999829,232.5807867999829,235.55809539998882,f,1.083298100013053,0.12874270000611432,235.55813859999762,235.55815119997715,None,,,,,,,,,,,,,,,00036,001,2026-01-16_15h17.10.885,MST_task,2024.2.0,59.44105201797553,2026-01-16 15h17.29.343903 +0530,
,Scenes\104a.jpg,14,0,15,,,,,,,j,1.5460307999746874,0.1431307000166271,None,,,,,,15,0,14,235.57452829999966,,,,,,,,,,,,,,,,,,,,,,,,,,,,,,235.5582193999726,235.57452829999966,236.05972339998698,,,,,,,,,,,,,,,,,,,,,,,236.08816859999206,236.11057889999938,236.11057889999938,236.11057889999938,239.0702296999807,j,1.5460307999746874,0.1431307000166271,239.0718404999934,239.07185949999257,None,,,,,,,,,,,,,,,00036,001,2026-01-16_15h17.10.885,MST_task,2024.2.0,59.44105201797553,2026-01-16 15h17.29.343903 +0530,
,Scenes\164a.jpg,15,0,16,,,,,,,j,1.819254500005627,0.14254969998728484,None,,,,,,16,0,15,239.0868186999869,,,,,,,,,,,,,,,,,,,,,,,,,,,,,,239.07193119998556,239.0868186999869,239.5720239999937,,,,,,,,,,,,,,,,,,,,,,,239.59650469999178,239.62222759998986,239.62222759998986,239.62222759998986,242.58253079999122,j,1.819254500005627,0.14254969998728484,242.5825820999744,242.58259479998378,None,,,,,,,,,,,,,,,00036,001,2026-01-16_15h17.10.885,MST_task,2024.2.0,59.44105201797553,2026-01-16 15h17.29.343903 +0530,
,Scenes\118a.jpg,16,0,17,,,,,,,j,1.4660771999915596,0.13626460000523366,None,,,,,,17,0,16,242.59912569998414,,,,,,,,,,,,,,,,,,,,,,,,,,,,,,242.582666399976,242.59912569998414,243.084326399985,,,,,,,,,,,,,,,,,,,,,,,243.10632819999591,243.1179504999891,243.1179504999891,243.1179504999891,246.09482779999962,j,1.4660771999915596,0.13626460000523366,246.0948704999755,246.09488279998186,None,,,,,,,,,,,,,,,00036,001,2026-01-16_15h17.10.885,MST_task,2024.2.0,59.44105201797553,2026-01-16 15h17.29.343903 +0530,
,Scenes\061a.jpg,17,0,18,,,,,,,j,1.2424809000222012,0.09637049998855218,None,,,,,,18,0,17,246.11142219998874,,,,,,,,,,,,,,,,,,,,,,,,,,,,,,246.09498339999118,246.11142219998874,246.59664699999848,,,,,,,,,,,,,,,,,,,,,,,246.62189069998567,246.63075209999806,246.63075209999806,246.63075209999806,249.60713019999093,j,1.2424809000222012,0.09637049998855218,249.60717369997292,249.6071858999785,None,,,,,,,,,,,,,,,00036,001,2026-01-16_15h17.10.885,MST_task,2024.2.0,59.44105201797553,2026-01-16 15h17.29.343903 +0530,
,Scenes\116a.jpg,18,0,19,,,,,,,j,1.5942327000084333,0.13513549999333918,None,,,,,,19,0,18,249.6237412999908,,,,,,,,,,,,,,,,,,,,,,,,,,,,,,249.60729669997818,249.6237412999908,250.10906099999556,,,,,,,,,,,,,,,,,,,,,,,250.133609099983,250.15890549999312,250.15890549999312,250.15890549999312,253.11941209997167,j,1.5942327000084333,0.13513549999333918,253.1196080999798,253.11964299998363,None,,,,,,,,,,,,,,,00036,001,2026-01-16_15h17.10.885,MST_task,2024.2.0,59.44105201797553,2026-01-16 15h17.29.343903 +0530,
,Scenes\171a.jpg,19,0,20,,,,,,,j,2.2557278999884147,0.13645869999891147,None,,,,,,20,0,19,253.1361223999993,,,,,,,,,,,,,,,,,,,,,,,,,,,,,,253.11975359998178,253.1361223999993,253.62123379998957,,,,,,,,,,,,,,,,,,,,,,,253.65527739998652,253.67246039997553,253.67246039997553,253.67246039997553,256.631607599993,j,2.2557278999884147,0.13645869999891147,256.6316613999952,256.63167419997626,None,,,,,,,,,,,,,,,00036,001,2026-01-16_15h17.10.885,MST_task,2024.2.0,59.44105201797553,2026-01-16 15h17.29.343903 +0530,
,Scenes\083a.jpg,20,0,21,,,,,,,j,1.472865699994145,0.07261589998961426,None,,,,,,21,0,20,256.6484459999774,,,,,,,,,,,,,,,,,,,,,,,,,,,,,,256.63194589997875,256.6484459999774,257.1334209999768,,,,,,,,,,,,,,,,,,,,,,,257.15871039999183,257.18350249997457,257.18350249997457,257.18350249997457,260.14391069998965,j,1.472865699994145,0.07261589998961426,260.14396609997493,260.14397819997976,None,,,,,,,,,,,,,,,00036,001,2026-01-16_15h17.10.885,MST_task,2024.2.0,59.44105201797553,2026-01-16 15h17.29.343903 +0530,
,Objects\189a.jpg,21,0,22,,,,,,,j,2.326774100016337,0.08744589998968877,None,,,,,,22,0,21,260.1607567999745,,,,,,,,,,,,,,,,,,,,,,,,,,,,,,260.1440859999857,260.1607567999745,260.64642829998047,,,,,,,,,,,,,,,,,,,,,,,260.6729499999783,260.6977830999822,260.6977830999822,260.6977830999822,263.6563391999807,j,2.326774100016337,0.08744589998968877,263.6578762999852,263.65789249999216,None,,,,,,,,,,,,,,,00036,001,2026-01-16_15h17.10.885,MST_task,2024.2.0,59.44105201797553,2026-01-16 15h17.29.343903 +0530,
,Objects\008a.jpg,22,0,23,,,,,,,f,2.0325691999751143,0.12783770001260564,None,,,,,,23,0,22,263.6729639999976,,,,,,,,,,,,,,,,,,,,,,,,,,,,,,263.65800009999657,263.6729639999976,264.1581546999805,,,,,,,,,,,,,,,,,,,,,,,264.1812165999727,264.1913683999737,264.1913683999737,264.1913683999737,267.1685270999733,f,2.0325691999751143,0.12783770001260564,267.16857019998133,267.1685826999892,None,,,,,,,,,,,,,,,00036,001,2026-01-16_15h17.10.885,MST_task,2024.2.0,59.44105201797553,2026-01-16 15h17.29.343903 +0530,
,Objects\045a.jpg,23,0,24,,,,,,,j,2.480245399987325,0.13653570000315085,None,,,,,,24,0,23,267.1853540999873,,,,,,,,,,,,,,,,,,,,,,,,,,,,,,267.1686866999953,267.1853540999873,267.67032899998594,,,,,,,,,,,,,,,,,,,,,,,267.69311339998967,267.7038134999748,267.7038134999748,267.7038134999748,270.681062299991,j,2.480245399987325,0.13653570000315085,270.68111759997555,270.6811309999903,None,,,,,,,,,,,,,,,00036,001,2026-01-16_15h17.10.885,MST_task,2024.2.0,59.44105201797553,2026-01-16 15h17.29.343903 +0530,
,Objects\041a.jpg,24,0,25,,,,,,,f,2.151773299992783,0.09642110002459958,None,,,,,,25,0,24,270.6982355999935,,,,,,,,,,,,,,,,,,,,,,,,,,,,,,270.68124829998123,270.6982355999935,271.1827323999896,,,,,,,,,,,,,,,,,,,,,,,271.205761899997,271.2160301999829,271.2160301999829,271.2160301999829,274.19312099998933,f,2.151773299992783,0.09642110002459958,274.19317889999365,274.19319130000076,None,,,,,,,,,,,,,,,00036,001,2026-01-16_15h17.10.885,MST_task,2024.2.0,59.44105201797553,2026-01-16 15h17.29.343903 +0530,
,Objects\125a.jpg,25,0,26,,,,,,,j,1.3838132999953814,0.152427599998191,None,,,,,,26,0,25,274.21015939998324,,,,,,,,,,,,,,,,,,,,,,,,,,,,,,274.19329719999223,274.21015939998324,274.69491500000004,,,,,,,,,,,,,,,,,,,,,,,274.7176125999831,274.7285165999783,274.7285165999783,274.7285165999783,277.7055424999853,j,1.3838132999953814,0.152427599998191,277.70558509998955,277.7055968999921,None,,,,,,,,,,,,,,,00036,001,2026-01-16_15h17.10.885,MST_task,2024.2.0,59.44105201797553,2026-01-16 15h17.29.343903 +0530,
,Objects\051a.jpg,26,0,27,,,,,,,f,1.7998215999978129,0.12047850000089966,None,,,,,,27,0,26,277.7222479999764,,,,,,,,,,,,,,,,,,,,,,,,,,,,,,277.7057269999932,277.7222479999764,278.2071843999729,,,,,,,,,,,,,,,,,,,,,,,278.2292470999819,278.24069529998815,278.24069529998815,278.24069529998815,281.2180091999762,f,1.7998215999978129,0.12047850000089966,281.2180521999835,281.2180648999929,None,,,,,,,,,,,,,,,00036,001,2026-01-16_15h17.10.885,MST_task,2024.2.0,59.44105201797553,2026-01-16 15h17.29.343903 +0530,
,Objects\156a.jpg,27,0,28,,,,,,,f,2.5110328000155278,0.15229669999098405,None,,,,,,28,0,27,281.23503929999424,,,,,,,,,,,,,,,,,,,,,,,,,,,,,,281.2181354999775,281.23503929999424,281.71983309998177,,,,,,,,,,,,,,,,,,,,,,,281.74181069998303,281.75287329999264,281.75287329999264,281.75287329999264,284.73000909999246,f,2.5110328000155278,0.15229669999098405,284.730066499993,284.7300789000001,None,,,,,,,,,,,,,,,00036,001,2026-01-16_15h17.10.885,MST_task,2024.2.0,59.44105201797553,2026-01-16 15h17.29.343903 +0530,
,Scenes\144a.jpg,28,0,29,,,,,,,j,0.8783524000027683,0.11176679999334738,None,,,,,,29,0,28,284.7468546999735,,,,,,,,,,,,,,,,,,,,,,,,,,,,,,284.7302889999992,284.7468546999735,285.2318094999937,,,,,,,,,,,,,,,,,,,,,,,285.2563508999883,285.28201719999197,285.28201719999197,285.28201719999197,288.24243519999436,j,0.8783524000027683,0.11176679999334738,288.2442574999877,288.2442763999861,None,,,,,,,,,,,,,,,00036,001,2026-01-16_15h17.10.885,MST_task,2024.2.0,59.44105201797553,2026-01-16 15h17.29.343903 +0530,
,Scenes\124a.jpg,29,0,30,,,,,,,f,1.2387630000011995,0.12035420001484454,None,,,,,,30,0,29,288.2590175999794,,,,,,,,,,,,,,,,,,,,,,,,,,,,,,288.24438389998977,288.2590175999794,288.74481209999067,,,,,,,,,,,,,,,,,,,,,,,288.7679715999984,288.77702489998774,288.77702489998774,288.77702489998774,291.7549035999982,f,1.2387630000011995,0.12035420001484454,291.7549498999724,291.7549617999757,None,,,,,288.77702489998774,,,,,,,,,,00036,001,2026-01-16_15h17.10.885,MST_task,2024.2.0,59.44105201797553,2026-01-16 15h17.29.343903 +0530,
,Scenes\040a.jpg,30,0,31,,,,,,,f,2.0929811999958474,0.14380469999741763,None,,,,,,31,0,30,291.77159159997245,,,,,,,,,,,,,,,,,,,,,,,,,,,,,,291.7550660999841,291.77159159997245,292.25652369999443,,,,,,,,,,,,,,,,,,,,,,,292.28218179999385,292.306883799989,292.306883799989,292.306883799989,295.2670347999956,f,2.0929811999958474,0.14380469999741763,295.26707789997454,295.2670898999786,None,,,,,,,,,,,,,,,00036,001,2026-01-16_15h17.10.885,MST_task,2024.2.0,59.44105201797553,2026-01-16 15h17.29.343903 +0530,
,Scenes\172a.jpg,31,0,32,,,,,,,j,0.9895596000133082,0.13554230000590906,None,,,,,,32,0,31,295.28364829998463,,,,,,,,,,,,,,,,,,,,,,,,,,,,,,295.2671922999725,295.28364829998463,295.76883359998465,,,,,,,,,,,,,,,,,,,,,,,295.7936031999998,295.8192416999955,295.8192416999955,295.8192416999955,298.7792137999786,j,0.9895596000133082,0.13554230000590906,298.7792561999813,298.7792680999846,None,,,,,,,,,,,,,,,00036,001,2026-01-16_15h17.10.885,MST_task,2024.2.0,59.44105201797553,2026-01-16 15h17.29.343903 +0530,
,Scenes\161a.jpg,32,0,33,,,,,,,j,1.116957199992612,0.08791270002257079,None,,,,,,33,0,32,298.7960553999874,,,,,,,,,,,,,,,,,,,,,,,,,,,,,,298.7793632999819,298.7960553999874,299.2810005999927,,,,,,,,,,,,,,,,,,,,,,,299.30877649999456,299.3311947999755,299.3311947999755,299.3311947999755,302.29163149997476,j,1.116957199992612,0.08791270002257079,302.29167449998204,302.2916864999861,None,,,,,,,,,,,,,,,00036,001,2026-01-16_15h17.10.885,MST_task,2024.2.0,59.44105201797553,2026-01-16 15h17.29.343903 +0530,
,Scenes\147a.jpg,33,0,34,,,,,,,j,0.8056207000045106,0.1434878000000026,None,,,,,,34,0,33,302.3082415999961,,,,,,,,,,,,,,,,,,,,,,,,,,,,,,302.2917919999745,302.3082415999961,302.79344729997683,,,,,,,,,,,,,,,,,,,,,,,302.8145617999835,302.8267914999742,302.8267914999742,302.8267914999742,305.80395459997817,j,0.8056207000045106,0.1434878000000026,305.80399759998545,305.8040098999918,None,,,,,,,,,,,,,,,00036,001,2026-01-16_15h17.10.885,MST_task,2024.2.0,59.44105201797553,2026-01-16 15h17.29.343903 +0530,
,Scenes\085a.jpg,34,0,35,,,,,,,j,0.9883549000078347,0.15270399997825734,None,,,,,,35,0,34,305.820545799972,,,,,,,,,,,,,,,,,,,,,,,,,,,,,,305.80419039999833,305.820545799972,306.30572539998684,,,,,,,,,,,,,,,,,,,,,,,306.33166109997546,306.35582379999687,306.35582379999687,306.35582379999687,309.3161291999859,j,0.9883549000078347,0.15270399997825734,309.31617509998614,309.3161873999925,None,,,,,,,,,,,,,,,00036,001,2026-01-16_15h17.10.885,MST_task,2024.2.0,59.44105201797553,2026-01-16 15h17.29.343903 +0530,
,Objects\032a.jpg,35,0,36,,,,,,,f,2.036540300003253,0.07971240000915714,None,,,,,,36,0,35,309.33294909997494,,,,,,,,,,,,,,,,,,,,,,,,,,,,,,309.31647029999294,309.33294909997494,309.818057699973,,,,,,,,,,,,,,,,,,,,,,,309.84253460000036,309.8514796999807,309.8514796999807,309.8514796999807,312.82854689998203,f,2.036540300003253,0.07971240000915714,312.83021609997377,312.83023449999746,None,,,,,,,,,,,,,,,00036,001,2026-01-16_15h17.10.885,MST_task,2024.2.0,59.44105201797553,2026-01-16 15h17.29.343903 +0530,
,Objects\005a.jpg,36,0,37,,,,,,,f,1.9483174000051804,0.1205469999986235,None,,,,,,37,0,36,312.84514879999915,,,,,,,,,,,,,,,,,,,,,,,,,,,,,,312.83034089999273,312.84514879999915,313.3303207999852,,,,,,,,,,,,,,,,,,,,,,,313.35294709997834,313.36357549999957,313.36357549999957,313.36357549999957,316.34071349998703,f,1.9483174000051804,0.1205469999986235,316.3407637999917,316.3407784999872,None,,,,,,,,,,,,,,,00036,001,2026-01-16_15h17.10.885,MST_task,2024.2.0,59.44105201797553,2026-01-16 15h17.29.343903 +0530,
,Objects\070a.jpg,37,0,38,,,,,,,f,1.7565832000109367,0.12771649999194779,None,,,,,,38,0,37,316.3576280999987,,,,,,,,,,,,,,,,,,,,,,,,,,,,,,316.34089579997817,316.3576280999987,316.84251959997346,,,,,,,,,,,,,,,,,,,,,,,316.8659148000006,316.87600709998515,316.87600709998515,316.87600709998515,319.853303699987,f,1.7565832000109367,0.12771649999194779,319.85334599998896,319.8533577999915,None,,,,,,,,,,,,,,,00036,001,2026-01-16_15h17.10.885,MST_task,2024.2.0,59.44105201797553,2026-01-16 15h17.29.343903 +0530,
,Objects\114a.jpg,38,0,39,,,,,,,f,1.275988800014602,0.13642899997648783,None,,,,,,39,0,38,319.86989129998256,,,,,,,,,,,,,,,,,,,,,,,,,,,,,,319.8534273999976,319.86989129998256,320.35511419997783,,,,,,,,,,,,,,,,,,,,,,,320.37753589998465,320.3883246999758,320.3883246999758,320.3883246999758,323.3659509999852,f,1.275988800014602,0.13642899997648783,323.36599949997617,323.36601169998175,None,,,,,,,,,,,,,,,00036,001,2026-01-16_15h17.10.885,MST_task,2024.2.0,59.44105201797553,2026-01-16 15h17.29.343903 +0530,
,Objects\175a.jpg,39,0,40,,,,,,,j,2.8593150000087917,None,None,,,,,,40,0,39,323.38215859999764,,,,,,,,,,,,,,,,,,,,,,,,,,,,,,323.3660811999871,323.38215859999764,323.8672433999891,,,,,,,,,,,,,,,,,,,,,,,323.88968699998804,323.9007238999766,323.9007238999766,323.9007238999766,326.8777323999966,j,2.8593150000087917,None,326.87794939999003,326.87796769998386,None,,,,,,,,,,,,,,,00036,001,2026-01-16_15h17.10.885,MST_task,2024.2.0,59.44105201797553,2026-01-16 15h17.29.343903 +0530,
,Objects\117a.jpg,40,0,41,,,,,,,f,2.1388733999920078,0.12789239999256097,None,,,,,,41,0,40,326.89434119997895,,,,,,,,,,,,,,,,,,,,,,,,,,,,,,326.87804299997515,326.89434119997895,327.3797434999724,,,,,,,,,,,,,,,,,,,,,,,327.4025884999719,327.4129996999982,327.4129996999982,327.4129996999982,330.3900376999809,f,2.1388733999920078,0.12789239999256097,330.39023499999894,330.3902668999799,None,,,,,,,,,,,,,,,00036,001,2026-01-16_15h17.10.885,MST_task,2024.2.0,59.44105201797553,2026-01-16 15h17.29.343903 +0530,
,Objects\182a.jpg,41,0,42,,,,,,,f,0.9307635000150185,0.11253769998438656,None,,,,,,42,0,41,330.4073024999816,,,,,,,,,,,,,,,,,,,,,,,,,,,,,,330.39034649997484,330.4073024999816,330.8918520999723,,,,,,,,,,,,,,,,,,,,,,,330.91480519998004,330.92508459999226,330.92508459999226,330.92508459999226,333.9022316999908,f,0.9307635000150185,0.11253769998438656,333.9022779999941,333.9022901999997,None,,,,,,,,,,,,,,,00036,001,2026-01-16_15h17.10.885,MST_task,2024.2.0,59.44105201797553,2026-01-16 15h17.29.343903 +0530,
,Scenes\119a.jpg,42,0,43,,,,,,,j,0.9693070000212174,0.14483689999906346,None,,,,,,43,0,42,333.91906329998164,,,,,,,,,,,,,,,,,,,,,,,,,,,,,,333.90236329997424,333.91906329998164,334.40402529999847,,,,,,,,,,,,,,,,,,,,,,,334.43186329997843,334.45447159998,334.45447159998,334.45447159998,337.4145341999829,j,0.9693070000212174,0.14483689999906346,337.4159995999944,337.41601779998746,None,,,,,,,,,,,,,,,00036,001,2026-01-16_15h17.10.885,MST_task,2024.2.0,59.44105201797553,2026-01-16 15h17.29.343903 +0530,
,Scenes\109a.jpg,43,0,44,,,,,,,j,1.7289161999942735,0.10437529999762774,None,,,,,,44,0,43,337.43159209997975,,,,,,,,,,,,,,,,,,,,,,,,,,,,,,337.41614539999864,337.43159209997975,337.91632359998766,,,,,,,,,,,,,,,,,,,,,,,337.94182579999324,337.9671913999773,337.9671913999773,337.9671913999773,340.92693789998884,j,1.7289161999942735,0.10437529999762774,340.9269946999848,340.9270067999896,None,,,,,,,,,,,,,,,00036,001,2026-01-16_15h17.10.885,MST_task,2024.2.0,59.44105201797553,2026-01-16 15h17.29.343903 +0530,
,Scenes\074a.jpg,44,0,45,,,,,,,j,1.9376197000092361,0.1040019000065513,None,,,,,,45,0,44,340.94361849999405,,,,,,,,,,,,,,,,,,,,,,,,,,,,,,340.9270786999841,340.94361849999405,341.4307766999991,,,,,,,,,,,,,,,,,,,,,,,341.4593547999975,341.4788739999931,341.4788739999931,341.4788739999931,344.4392333999858,j,1.9376197000092361,0.1040019000065513,344.4392753999855,344.4392880999949,None,,,,,,,,,,,,,,,00036,001,2026-01-16_15h17.10.885,MST_task,2024.2.0,59.44105201797553,2026-01-16 15h17.29.343903 +0530,
,Scenes\004a.jpg,45,0,46,,,,,,,j,0.9850880999874789,0.144412800000282,None,,,,,,46,0,45,344.4559629999858,,,,,,,,,,,,,,,,,,,,,,,,,,,,,,344.43941289998475,344.4559629999858,344.94095150000066,,,,,,,,,,,,,,,,,,,,,,,344.96741119999206,344.99101089997566,344.99101089997566,344.99101089997566,347.95143409998855,j,0.9850880999874789,0.144412800000282,347.9514760999882,347.9514879999915,None,,,,,,,,,,,,,,,00036,001,2026-01-16_15h17.10.885,MST_task,2024.2.0,59.44105201797553,2026-01-16 15h17.29.343903 +0530,
,Scenes\162a.jpg,46,0,47,,,,,,,j,0.9224954999808688,0.12701890000607818,None,,,,,,47,0,46,347.96826449999935,,,,,,,,,,,,,,,,,,,,,,,,,,,,,,347.95159759998205,347.96826449999935,348.4532196999935,,,,,,,,,,,,,,,,,,,,,,,348.4744911999733,348.4865761999972,348.4865761999972,348.4865761999972,351.4637415999896,j,0.9224954999808688,0.12701890000607818,351.4637847999984,351.46379679997335,None,,,,,,,,,,,,,,,00036,001,2026-01-16_15h17.10.885,MST_task,2024.2.0,59.44105201797553,2026-01-16 15h17.29.343903 +0530,
,Scenes\051a.jpg,47,0,48,,,,,,,j,0.5208955999987666,0.11238360000425018,None,,,,,,48,0,47,351.48055579999345,,,,,,,,,,,,,,,,,,,,,,,,,,,,,,351.46390599998995,351.48055579999345,351.9655356000003,,,,,,,,,,,,,,,,,,,,,,,351.9870450999879,351.9989986999717,351.9989986999717,351.9989986999717,354.97619599997415,j,0.5208955999987666,0.11238360000425018,354.9762384999776,354.976251199987,None,,,,,,,,,,,,,,,00036,001,2026-01-16_15h17.10.885,MST_task,2024.2.0,59.44105201797553,2026-01-16 15h17.29.343903 +0530,
,Scenes\018a.jpg,48,0,49,,,,,,,j,1.377681299985852,0.15943669999251142,None,,,,,,49,0,48,354.99302329999045,,,,,,,,,,,,,,,,,,,,,,,,,,,,,,354.97635819998686,354.99302329999045,355.4780051999842,,,,,,,,,,,,,,,,,,,,,,,355.5002912999771,355.5107747000002,355.5107747000002,355.5107747000002,358.48847699997714,j,1.377681299985852,0.15943669999251142,358.4885187999753,358.4885308999801,None,,,,,,,,,,,,,,,00036,001,2026-01-16_15h17.10.885,MST_task,2024.2.0,59.44105201797553,2026-01-16 15h17.29.343903 +0530,
,Objects\190a.jpg,49,0,50,,,,,,,f,0.9685764000169002,0.10376729999552481,None,,,,,,50,0,49,358.50532319999184,,,,,,,,,,,,,,,,,,,,,,,,,,,,,,358.48859929997707,358.50532319999184,358.99013949997607,,,,,,,,,,,,,,,,,,,,,,,359.016251699999,359.0237461999932,359.0237461999932,359.0237461999932,362.00065209998866,f,0.9685764000169002,0.10376729999552481,362.0023530999897,362.0023722999904,None,,,,,,,,,,,,,,,00036,001,2026-01-16_15h17.10.885,MST_task,2024.2.0,59.44105201797553,2026-01-16 15h17.29.343903 +0530,
,Objects\013a.jpg,50,0,51,,,,,,,f,0.79979099999764,0.1769841000204906,None,,,,,,51,0,50,362.0174645999796,,,,,,,,,,,,,,,,,,,,,,,,,,,,,,362.0024562999897,362.0174645999796,362.5024065999896,,,,,,,,,,,,,,,,,,,,,,,362.5249910999846,362.5359023999772,362.5359023999772,362.5359023999772,365.5129324999871,f,0.79979099999764,0.1769841000204906,365.5129760999989,365.5129885999777,None,,,,,,,,,,,,,,,00036,001,2026-01-16_15h17.10.885,MST_task,2024.2.0,59.44105201797553,2026-01-16 15h17.29.343903 +0530,
,Objects\115a.jpg,51,0,52,,,,,,,f,0.9997888000216335,0.12820449998253025,None,,,,,,52,0,51,365.52989179998985,,,,,,,,,,,,,,,,,,,,,,,,,,,,,,365.51305929999216,365.52989179998985,366.0147142999922,,,,,,,,,,,,,,,,,,,,,,,366.0355502999737,366.0482778000005,366.0482778000005,366.0482778000005,369.02547529997537,f,0.9997888000216335,0.12820449998253025,369.02580109998235,369.02581999998074,None,,,,,,,,,,,,,,,00036,001,2026-01-16_15h17.10.885,MST_task,2024.2.0,59.44105201797553,2026-01-16 15h17.29.343903 +0530,
,Objects\085a.jpg,52,0,53,,,,,,,None,,,j,2.630479999992531,None,,,,53,0,52,369.0421443999803,,,,,,,,,,,,,,,,,,,,,,,,,,,,,,369.02593119998346,369.0421443999803,369.5272712999722,,,,,,,,,,,,,,,,,,,,,,,369.54998549999436,369.5603846999875,369.5603846999875,369.5603846999875,372.53789629999665,None,,,372.53794489998836,375.1975674999994,j,372.5543945999816,372.5543945999816,2.630479999992531,None,,,,,,,,,,,00036,001,2026-01-16_15h17.10.885,MST_task,2024.2.0,59.44105201797553,2026-01-16 15h17.29.343903 +0530,
,Objects\034a.jpg,53,0,54,,,,,,,f,1.292629699979443,0.143625400000019,None,,,,,,54,0,53,375.2135547999933,,,,,,,,,,,,,,,,,,,,,,,,,,,,,,375.19770739998785,375.2135547999933,375.6988921999873,,,,,,,,,,,,,,,,,,,,,,,375.7233496999834,375.7319892999949,375.7319892999949,375.7319892999949,378.7091519999958,f,1.292629699979443,0.143625400000019,378.709200399986,378.7092130999954,None,,,,,,,,,,,,,,,00036,001,2026-01-16_15h17.10.885,MST_task,2024.2.0,59.44105201797553,2026-01-16 15h17.29.343903 +0530,
,Objects\120a.jpg,54,0,55,,,,,,,f,0.8750643999956083,0.14448310001171194,None,,,,,,55,0,54,378.7259826999798,,,,,,,,,,,,,,,,,,,,,,,,,,,,,,378.7093470999971,378.7259826999798,379.2109245999891,,,,,,,,,,,,,,,,,,,,,,,379.23323229997186,379.2446704999893,379.2446704999893,379.2446704999893,382.22155419999035,f,0.8750643999956083,0.14448310001171194,382.22175319999224,382.22178579997853,None,,,,,,,,,,,,,,,00036,001,2026-01-16_15h17.10.885,MST_task,2024.2.0,59.44105201797553,2026-01-16 15h17.29.343903 +0530,
,Objects\092a.jpg,55,0,56,,,,,,,f,0.7555292000179179,0.14358609999180771,None,,,,,,56,0,55,382.2383678999904,,,,,,,,,,,,,,,,,,,,,,,,,,,,,,382.2218636999896,382.2383678999904,382.7234238999954,,,,,,,,,,,,,,,,,,,,,,,382.7462065999862,382.75660799999605,382.75660799999605,382.75660799999605,385.7337288999988,f,0.7555292000179179,0.14358609999180771,385.7337840999826,385.7337953999813,None,,,,,,,,,,,,,,,00036,001,2026-01-16_15h17.10.885,MST_task,2024.2.0,59.44105201797553,2026-01-16 15h17.29.343903 +0530,
,Scenes\117a.jpg,56,0,57,,,,,,,j,1.329402300005313,0.11930469999788329,None,,,,,,57,0,56,385.7505686999939,,,,,,,,,,,,,,,,,,,,,,,,,,,,,,385.73407239999506,385.7505686999939,386.2355441999971,,,,,,,,,,,,,,,,,,,,,,,386.2591790999868,386.2870738999918,386.2870738999918,386.2870738999918,389.2460303999833,j,1.329402300005313,0.11930469999788329,389.24756449999404,389.2475875999953,None,,,,,,,,,,,,,,,00036,001,2026-01-16_15h17.10.885,MST_task,2024.2.0,59.44105201797553,2026-01-16 15h17.29.343903 +0530,
,Scenes\095a.jpg,57,0,58,,,,,,,j,2.033163800020702,0.11983809998491779,None,,,,,,58,0,57,389.2628746999835,,,,,,,,,,,,,,,,,,,,,,,,,,,,,,389.2477042999817,389.2628746999835,389.7479614999902,,,,,,,,,,,,,,,,,,,,,,,389.7708796999941,389.7986753999721,389.7986753999721,389.7986753999721,392.75875409998116,j,2.033163800020702,0.11983809998491779,392.7587984999991,392.7588103999733,None,,,,,,,,,,,,,,,00036,001,2026-01-16_15h17.10.885,MST_task,2024.2.0,59.44105201797553,2026-01-16 15h17.29.343903 +0530,
,Scenes\105a.jpg,58,0,59,,,,,,,j,1.8885038000007626,0.1047559000144247,None,,,,,,59,0,58,392.7750470999745,,,,,,,,,,,,,,,,,,,,,,,,,,,,,,392.7589143999794,392.7750470999745,393.26036649997695,,,,,,,,,,,,,,,,,,,,,,,393.2887506999832,393.31122769997455,393.31122769997455,393.31122769997455,396.27064259999315,j,1.8885038000007626,0.1047559000144247,396.27069409997785,396.2707063999842,None,,,,,,,,,,,,,,,00036,001,2026-01-16_15h17.10.885,MST_task,2024.2.0,59.44105201797553,2026-01-16 15h17.29.343903 +0530,
,Scenes\073a.jpg,59,0,60,,,,,,,j,0.7778122000163421,0.14370049998979084,None,,,,,,60,0,59,396.2874746999878,,,,,,,,,,,,,,,,,,,,,,,,,,,,,,396.2708113999979,396.2874746999878,396.7724408999784,,,,,,,,,,,,,,,,,,,,,,,396.7965057999827,396.82251209998503,396.82251209998503,396.82251209998503,399.78305399999954,j,0.7778122000163421,0.14370049998979084,399.78309729998,399.7831094999856,None,,,,,,,,,,,,,,,00036,001,2026-01-16_15h17.10.885,MST_task,2024.2.0,59.44105201797553,2026-01-16 15h17.29.343903 +0530,
,Scenes\093a.jpg,60,0,61,,,,,,,f,1.1465330999926664,0.14328700001351535,None,,,,,,61,0,60,399.7996427999751,,,,,,,,,,,,,,,,,,,,,,,,,,,,,,399.7832147999725,399.7996427999751,400.2847360999731,,,,,,,,,,,,,,,,,,,,,,,400.31082749998313,400.33503029998974,400.33503029998974,400.33503029998974,403.29549639998004,f,1.1465330999926664,0.14328700001351535,403.2955424999818,403.29555479998817,None,,,,,,,,,,,,,,,00036,001,2026-01-16_15h17.10.885,MST_task,2024.2.0,59.44105201797553,2026-01-16 15h17.29.343903 +0530,
,Scenes\019a.jpg,61,0,62,,,,,,,j,1.2092988999793306,0.09596030000830069,None,,,,,,62,0,61,403.31198059997405,,,,,,,,,,,,,,,,,,,,,,,,,,,,,,403.29566069997963,403.31198059997405,403.7971825999848,,,,,,,,,,,,,,,,,,,,,,,403.8223762999987,403.84725149997394,403.84725149997394,403.84725149997394,406.80766249998123,j,1.2092988999793306,0.09596030000830069,406.8077091999876,406.8077217999962,None,,,,,,,,,,,,,,,00036,001,2026-01-16_15h17.10.885,MST_task,2024.2.0,59.44105201797553,2026-01-16 15h17.29.343903 +0530,
,Scenes\143a.jpg,62,0,63,,,,,,,j,0.8418114999949466,0.11239090000162832,None,,,,,,63,0,62,406.82437149999896,,,,,,,,,,,,,,,,,,,,,,,,,,,,,,406.80780969999614,406.82437149999896,407.30936259997543,,,,,,,,,,,,,,,,,,,,,,,407.3357609999948,407.35942249998334,407.35942249998334,407.35942249998334,410.3210693000001,j,0.8418114999949466,0.11239090000162832,410.32113559998106,410.32114799998817,None,,,,,,,,,,,,,,,00036,001,2026-01-16_15h17.10.885,MST_task,2024.2.0,59.44105201797553,2026-01-16 15h17.29.343903 +0530,
,Objects\037a.jpg,63,0,64,,,,,,,f,2.153185399976792,0.11183340000570752,None,,,,,,64,0,63,410.33732880000025,,,,,,,,,,,,,,,,,,,,,,,,,,,,,,410.32125439998345,410.33732880000025,410.8223263999971,,,,,,,,,,,,,,,,,,,,,,,410.8476391999866,410.855745799985,410.855745799985,410.855745799985,413.83224769998924,f,2.153185399976792,0.11183340000570752,413.8340844999766,413.8341046999849,None,,,,,,,,,,,,,,,00036,001,2026-01-16_15h17.10.885,MST_task,2024.2.0,59.44105201797553,2026-01-16 15h17.29.343903 +0530,
,Objects\126a.jpg,64,0,65,,,,,,,f,2.4007369999890216,0.15211240001372062,None,,,,,,65,0,64,413.84895879999385,,,,,,,,,,,,,,,,,,,,,,,,,,,,,,413.834228599997,413.84895879999385,414.3342932999949,,,,,,,,,,,,,,,,,,,,,,,414.3568650999805,414.3672963999852,414.3672963999852,414.3672963999852,417.34445149998646,f,2.4007369999890216,0.15211240001372062,417.3444938999892,417.344505999994,None,,,,,414.3672963999852,,,,,,,,,,00036,001,2026-01-16_15h17.10.885,MST_task,2024.2.0,59.44105201797553,2026-01-16 15h17.29.343903 +0530,
,Objects\103a.jpg,65,0,66,,,,,,,j,2.05747239998891,0.13516629999503493,None,,,,,,66,0,65,417.3612662999949,,,,,,,,,,,,,,,,,,,,,,,,,,,,,,417.3445915999764,417.3612662999949,417.84634259997983,,,,,,,,,,,,,,,,,,,,,,,417.86953629998607,417.8795918999822,417.8795918999822,417.8795918999822,420.85685999999987,j,2.05747239998891,0.13516629999503493,420.8569051999948,420.85691749997204,None,,,,,,,,,,,,,,,00036,001,2026-01-16_15h17.10.885,MST_task,2024.2.0,59.44105201797553,2026-01-16 15h17.29.343903 +0530,
,Objects\036a.jpg,66,0,67,,,,,,,f,2.063792900007684,0.1775232999934815,None,,,,,,67,0,66,420.8735241999966,,,,,,,,,,,,,,,,,,,,,,,,,,,,,,420.8570213999774,420.8735241999966,421.35875319998013,,,,,,,,,,,,,,,,,,,,,,,421.38166049998836,421.39216379998834,421.39216379998834,421.39216379998834,424.3691496999818,f,2.063792900007684,0.1775232999934815,424.36919169998146,424.36920309998095,None,,,,,,,,,,,,,,,00036,001,2026-01-16_15h17.10.885,MST_task,2024.2.0,59.44105201797553,2026-01-16 15h17.29.343903 +0530,
,Objects\054a.jpg,67,0,68,,,,,,,j,2.456265799992252,0.10394490000908263,None,,,,,,68,0,67,424.3858674999792,,,,,,,,,,,,,,,,,,,,,,,,,,,,,,424.36928429998807,424.3858674999792,424.87082399998326,,,,,,,,,,,,,,,,,,,,,,,424.8934810999781,424.9046010999882,424.9046010999882,424.9046010999882,427.88143719997606,j,2.456265799992252,0.10394490000908263,427.8816347999964,427.8816667999781,None,,,,,,,,,,,,,,,00036,001,2026-01-16_15h17.10.885,MST_task,2024.2.0,59.44105201797553,2026-01-16 15h17.29.343903 +0530,
,Objects\108a.jpg,68,0,69,,,,,,,j,2.447759100003168,0.14470119998441078,None,,,,,,69,0,68,427.89804619998904,,,,,,,,,,,,,,,,,,,,,,,,,,,,,,427.8817757999932,427.89804619998904,428.3832300999784,,,,,,,,,,,,,,,,,,,,,,,428.40583949998836,428.41648969997186,428.41648969997186,428.41648969997186,431.3936419999809,j,2.447759100003168,0.14470119998441078,431.3936880999827,431.3936998999852,None,,,,,,,,,,,,,,,00036,001,2026-01-16_15h17.10.885,MST_task,2024.2.0,59.44105201797553,2026-01-16 15h17.29.343903 +0530,
,Objects\040a.jpg,69,0,70,,,,,,,f,1.3280814999889117,0.1427599000162445,None,,,,,,70,0,69,431.41046759998426,,,,,,,,,,,,,,,,,,,,,,,,,,,,,,431.39380639998126,431.41046759998426,431.8954242999898,,,,,,,,,,,,,,,,,,,,,,,431.91833289997885,431.9289140999899,431.9289140999899,431.9289140999899,434.90593239999725,f,1.3280814999889117,0.1427599000162445,434.90598749998026,434.90599939998356,None,,,,,,,,,,,,,,,00036,001,2026-01-16_15h17.10.885,MST_task,2024.2.0,59.44105201797553,2026-01-16 15h17.29.343903 +0530,
,Scenes\191a.jpg,70,0,71,,,,,,,j,1.198797499993816,0.14385130000300705,None,,,,,,71,0,70,434.9227644999919,,,,,,,,,,,,,,,,,,,,,,,,,,,,,,434.9060732999933,434.9227644999919,435.4077139000001,,,,,,,,,,,,,,,,,,,,,,,435.43128479999723,435.441499699984,435.441499699984,435.441499699984,438.4185850999784,j,1.198797499993816,0.14385130000300705,438.4200369999744,438.42005859999335,None,,,,,,,,,,,,,,,00036,001,2026-01-16_15h17.10.885,MST_task,2024.2.0,59.44105201797553,2026-01-16 15h17.29.343903 +0530,
,Scenes\034a.jpg,71,0,72,,,,,,,f,1.3737619000021368,0.13575460002175532,None,,,,,,72,0,71,438.4349827999831,,,,,,,,,,,,,,,,,,,,,,,,,,,,,,438.42013699997915,438.4349827999831,438.9206814999925,,,,,,,,,,,,,,,,,,,,,,,438.9580518999719,438.97078589999,438.97078589999,438.97078589999,441.930544599978,f,1.3737619000021368,0.13575460002175532,441.9305865999777,441.9305986999825,None,,,,,,,,,,,,,,,00036,001,2026-01-16_15h17.10.885,MST_task,2024.2.0,59.44105201797553,2026-01-16 15h17.29.343903 +0530,
,Scenes\139a.jpg,72,0,73,,,,,,,j,1.445864499983145,0.12821389999589883,None,,,,,,73,0,72,441.9473732999759,,,,,,,,,,,,,,,,,,,,,,,,,,,,,,441.9307203999779,441.9473732999759,442.43233929999406,,,,,,,,,,,,,,,,,,,,,,,442.4548565999721,442.4658949000004,442.4658949000004,442.4658949000004,445.44283709998126,j,1.445864499983145,0.12821389999589883,445.4428817000007,445.4428941999795,None,,,,,,,,,,,,,,,00036,001,2026-01-16_15h17.10.885,MST_task,2024.2.0,59.44105201797553,2026-01-16 15h17.29.343903 +0530,
,Scenes\077a.jpg,73,0,74,,,,,,,f,1.4687557999859564,0.1601712999981828,None,,,,,,74,0,73,445.4596725999727,,,,,,,,,,,,,,,,,,,,,,,,,,,,,,445.44299879999016,445.4596725999727,445.9446172999742,,,,,,,,,,,,,,,,,,,,,,,445.9699537999986,445.99558519999846,445.99558519999846,445.99558519999846,448.9552423999994,f,1.4687557999859564,0.1601712999981828,448.95543839997845,448.9554697999847,None,,,,,,,,,,,,,,,00036,001,2026-01-16_15h17.10.885,MST_task,2024.2.0,59.44105201797553,2026-01-16 15h17.29.343903 +0530,
,Scenes\043a.jpg,74,0,75,,,,,,,j,0.8535269999993034,0.09530389998690225,None,,,,,,75,0,74,448.97186079999665,,,,,,,,,,,,,,,,,,,,,,,,,,,,,,448.9555456999806,448.97186079999665,449.4571313999768,,,,,,,,,,,,,,,,,,,,,,,449.48558290000074,449.50739739998244,449.50739739998244,449.50739739998244,452.46744119998766,j,0.8535269999993034,0.09530389998690225,452.4675003999728,452.46751259997836,None,,,,,,,,,,,,,,,00036,001,2026-01-16_15h17.10.885,MST_task,2024.2.0,59.44105201797553,2026-01-16 15h17.29.343903 +0530,
,Scenes\041a.jpg,75,0,76,,,,,,,j,1.2059582000074442,0.15055710001615807,None,,,,,,76,0,75,452.48440669997944,,,,,,,,,,,,,,,,,,,,,,,,,,,,,,452.46764019998955,452.48440669997944,452.9692242999736,,,,,,,,,,,,,,,,,,,,,,,452.9967821999744,453.0194628999743,453.0194628999743,453.0194628999743,455.97984379998525,j,1.2059582000074442,0.15055710001615807,455.9801566999813,455.9801840999862,None,,,,,,,,,,,,,,,00036,001,2026-01-16_15h17.10.885,MST_task,2024.2.0,59.44105201797553,2026-01-16 15h17.29.343903 +0530,
,Scenes\121a.jpg,76,0,77,,,,,,,j,0.8212531999743078,0.14354760001879185,None,,,,,,77,0,76,455.9964541999798,,,,,,,,,,,,,,,,,,,,,,,,,,,,,,455.9802599999821,455.9964541999798,456.48179099999834,,,,,,,,,,,,,,,,,,,,,,,456.5066517999803,456.5318000999978,456.5318000999978,456.5318000999978,459.4920301999955,j,0.8212531999743078,0.14354760001879185,459.49207199999364,459.4920841999992,None,,,,,,,,,,,,,,,00036,001,2026-01-16_15h17.10.885,MST_task,2024.2.0,59.44105201797553,2026-01-16 15h17.29.343903 +0530,
,Objects\009a.jpg,77,0,78,,,,,,,f,1.6848033000133,0.12818549998337403,None,,,,,,78,0,77,459.5088696999883,,,,,,,,,,,,,,,,,,,,,,,,,,,,,,459.4921875,459.5088696999883,459.9938208999811,,,,,,,,,,,,,,,,,,,,,,,460.0201197999995,460.0275739999779,460.0275739999779,460.0275739999779,463.0043247999856,f,1.6848033000133,0.12818549998337403,463.00616659998195,463.0061865999887,None,,,,,,,,,,,,,,,00036,001,2026-01-16_15h17.10.885,MST_task,2024.2.0,59.44105201797553,2026-01-16 15h17.29.343903 +0530,
,Objects\038a.jpg,78,0,79,,,,,,,f,1.1082290999765974,0.12000230001285672,None,,,,,,79,0,78,463.0211603999778,,,,,,,,,,,,,,,,,,,,,,,,,,,,,,463.00625919998856,463.0211603999778,463.5064453999803,,,,,,,,,,,,,,,,,,,,,,,463.52907659998164,463.5396068999835,463.5396068999835,463.5396068999835,466.51688329997705,f,1.1082290999765974,0.12000230001285672,466.5169265999866,466.5169393999968,None,,,,,463.5396068999835,,,,,,,,,,00036,001,2026-01-16_15h17.10.885,MST_task,2024.2.0,59.44105201797553,2026-01-16 15h17.29.343903 +0530,
,Objects\113a.jpg,79,0,80,,,,,,,f,0.9004734999907669,0.14372560000629164,None,,,,,,80,0,79,466.533351399994,,,,,,,,,,,,,,,,,,,,,,,,,,,,,,466.5170461999951,466.533351399994,467.01870369998505,,,,,,,,,,,,,,,,,,,,,,,467.0420196999912,467.05179089997546,467.05179089997546,467.05179089997546,470.02987139998004,f,0.9004734999907669,0.14372560000629164,470.0299226999923,470.02993579997565,None,,,,,,,,,,,,,,,00036,001,2026-01-16_15h17.10.885,MST_task,2024.2.0,59.44105201797553,2026-01-16 15h17.29.343903 +0530,
,Objects\110a.jpg,80,0,81,,,,,,,f,0.660332900006324,0.16002690000459552,None,,,,,,81,0,80,470.0456574999844,,,,,,,,,,,,,,,,,,,,,,,,,,,,,,470.030013599986,470.0456574999844,470.53087129999767,,,,,,,,,,,,,,,,,,,,,,,470.5528235999809,470.56410909999977,470.56410909999977,470.56410909999977,473.54121959998156,f,0.660332900006324,0.16002690000459552,473.54126329999417,473.5412810999842,None,,,,,,,,,,,,,,,00036,001,2026-01-16_15h17.10.885,MST_task,2024.2.0,59.44105201797553,2026-01-16 15h17.29.343903 +0530,
,Objects\159a.jpg,81,0,82,,,,,,,f,0.6597678000107408,0.14499359999899752,None,,,,,,82,0,81,473.55805549997604,,,,,,,,,,,,,,,,,,,,,,,,,,,,,,473.54134979998344,473.55805549997604,474.04302109999117,,,,,,,,,,,,,,,,,,,,,,,474.06605549997767,474.07654119998915,474.07654119998915,474.07654119998915,477.05365349998465,f,0.6597678000107408,0.14499359999899752,477.0536960999889,477.05370829999447,None,,,,,,,,,,,,,,,00036,001,2026-01-16_15h17.10.885,MST_task,2024.2.0,59.44105201797553,2026-01-16 15h17.29.343903 +0530,
,Objects\082a.jpg,82,0,83,,,,,,,j,1.2673540000105277,0.1037443999957759,None,,,,,,83,0,82,477.0702431999962,,,,,,,,,,,,,,,,,,,,,,,,,,,,,,477.0538126999745,477.0702431999962,477.55594629998086,,,,,,,,,,,,,,,,,,,,,,,477.5783360999776,477.5886869999813,477.5886869999813,477.5886869999813,480.5658599999733,j,1.2673540000105277,0.1037443999957759,480.565901999973,480.56591399997706,None,,,,,,,,,,,,,,,00036,001,2026-01-16_15h17.10.885,MST_task,2024.2.0,59.44105201797553,2026-01-16 15h17.29.343903 +0530,
,Objects\107a.jpg,83,0,84,,,,,,,f,1.1557047000096645,0.127413299982436,None,,,,,,84,0,83,480.582665199996,,,,,,,,,,,,,,,,,,,,,,,,,,,,,,480.56603279997944,480.582665199996,481.0676193999825,,,,,,,,,,,,,,,,,,,,,,,481.0894946999906,481.101101999986,481.101101999986,481.101101999986,484.0782408999803,f,1.1557047000096645,0.127413299982436,484.07847099998617,484.0784858999832,None,,,,,,,,,,,,,,,00036,001,2026-01-16_15h17.10.885,MST_task,2024.2.0,59.44105201797553,2026-01-16 15h17.29.343903 +0530,
,Scenes\142a.jpg,84,0,85,,,,,,,j,1.074007499992149,0.16044519998831674,None,,,,,,85,0,84,484.09483879999607,,,,,,,,,,,,,,,,,,,,,,,,,,,,,,484.0785942999937,484.09483879999607,484.5800548999978,,,,,,,,,,,,,,,,,,,,,,,484.6063830999774,484.63000909998664,484.63000909998664,484.63000909998664,487.590593299974,j,1.074007499992149,0.16044519998831674,487.5920069999993,487.5920257999969,None,,,,,,,,,,,,,,,00036,001,2026-01-16_15h17.10.885,MST_task,2024.2.0,59.44105201797553,2026-01-16 15h17.29.343903 +0530,
,Scenes\146a.jpg,85,0,86,,,,,,,j,0.9143390000099316,0.16000679999706335,None,,,,,,86,0,85,487.60714029998053,,,,,,,,,,,,,,,,,,,,,,,,,,,,,,487.59230899999966,487.60714029998053,488.0923290999781,,,,,,,,,,,,,,,,,,,,,,,488.1140283999848,488.12533649997204,488.12533649997204,488.12533649997204,491.1028558999824,j,0.9143390000099316,0.16000679999706335,491.1028990999912,491.1029104999907,None,,,,,,,,,,,,,,,00036,001,2026-01-16_15h17.10.885,MST_task,2024.2.0,59.44105201797553,2026-01-16 15h17.29.343903 +0530,
,Scenes\002a.jpg,86,0,87,,,,,,,j,0.688214900001185,0.20847740001045167,None,,,,,,87,0,86,491.11944759998005,,,,,,,,,,,,,,,,,,,,,,,,,,,,,,491.1030159999791,491.11944759998005,491.6046301999886,,,,,,,,,,,,,,,,,,,,,,,491.6335503999726,491.6558634999965,491.6558634999965,491.6558634999965,494.6150100999803,j,0.688214900001185,0.20847740001045167,494.6150498999923,494.6150627999741,None,,,,,,,,,,,,,,,00036,001,2026-01-16_15h17.10.885,MST_task,2024.2.0,59.44105201797553,2026-01-16 15h17.29.343903 +0530,
,Scenes\103a.jpg,87,0,88,,,,,,,j,1.0097286000091117,0.11278379999566823,None,,,,,,88,0,87,494.63185949999024,,,,,,,,,,,,,,,,,,,,,,,,,,,,,,494.6152143999934,494.63185949999024,495.1168718999834,,,,,,,,,,,,,,,,,,,,,,,495.14535129998694,495.16690679997555,495.16690679997555,495.16690679997555,498.1280267999973,j,1.0097286000091117,0.11278379999566823,498.12808129997575,498.1280950999935,None,,,,,,,,,,,,,,,00036,001,2026-01-16_15h17.10.885,MST_task,2024.2.0,59.44105201797553,2026-01-16 15h17.29.343903 +0530,
,Scenes\134a.jpg,88,0,89,,,,,,,j,0.7202596999995876,0.13570809998782352,None,,,,,,89,0,88,498.14432099999976,,,,,,,,,,,,,,,,,,,,,,,,,,,,,,498.12822049998795,498.14432099999976,498.6298042999988,,,,,,,,,,,,,,,,,,,,,,,498.65613139999914,498.68016369998804,498.68016369998804,498.68016369998804,501.63971389998915,j,0.7202596999995876,0.13570809998782352,501.63976199997705,501.6397755999933,None,,,,,,,,,,,,,,,00036,001,2026-01-16_15h17.10.885,MST_task,2024.2.0,59.44105201797553,2026-01-16 15h17.29.343903 +0530,
,Scenes\011a.jpg,89,0,90,,,,,,,j,1.961166900000535,0.12615379999624565,None,,,,,,90,0,89,501.656473799987,,,,,,,,,,,,,,,,,,,,,,,,,,,,,,501.63989059999585,501.656473799987,502.14144369997666,,,,,,,,,,,,,,,,,,,,,,,502.17361909998,502.19240089997766,502.19240089997766,502.19240089997766,505.15209159997175,j,1.961166900000535,0.12615379999624565,505.1521325999929,505.15214489999926,None,,,,,,,,,,,,,,,00036,001,2026-01-16_15h17.10.885,MST_task,2024.2.0,59.44105201797553,2026-01-16 15h17.29.343903 +0530,
,Scenes\153a.jpg,90,0,91,,,,,,,j,0.6977382999903057,0.14399609999964014,None,,,,,,91,0,90,505.16875849998905,,,,,,,,,,,,,,,,,,,,,,,,,,,,,,505.1522528999776,505.16875849998905,505.65383649998694,,,,,,,,,,,,,,,,,,,,,,,505.6761359999946,505.68678779999027,505.68678779999027,505.68678779999027,508.66422409997904,j,0.6977382999903057,0.14399609999964014,508.6642774999782,508.6642901999876,None,,,,,,,,,,,,,,,00036,001,2026-01-16_15h17.10.885,MST_task,2024.2.0,59.44105201797553,2026-01-16 15h17.29.343903 +0530,
,Objects\109a.jpg,91,0,92,,,,,,,j,1.5117750000208616,0.11165779997827485,None,,,,,,92,0,91,508.68105549999746,,,,,,,,,,,,,,,,,,,,,,,,,,,,,,508.6643992999743,508.68105549999746,509.16602529998636,,,,,,,,,,,,,,,,,,,,,,,509.1897123999952,509.2003990999947,509.2003990999947,509.2003990999947,512.176541999972,j,1.5117750000208616,0.11165779997827485,512.1781383999914,512.1781578999944,None,,,,,,,,,,,,,,,00036,001,2026-01-16_15h17.10.885,MST_task,2024.2.0,59.44105201797553,2026-01-16 15h17.29.343903 +0530,
,Objects\010a.jpg,92,0,93,,,,,,,f,1.0005534999945667,0.15979169998900034,None,,,,,,93,0,92,512.193442799995,,,,,,,,,,,,,,,,,,,,,,,,,,,,,,512.1782717999886,512.193442799995,512.6784959999786,,,,,,,,,,,,,,,,,,,,,,,512.7002056999772,512.7119752999861,512.7119752999861,512.7119752999861,515.689123499993,f,1.0005534999945667,0.15979169998900034,515.6891658999957,515.689178199973,None,,,,,,,,,,,,,,,00036,001,2026-01-16_15h17.10.885,MST_task,2024.2.0,59.44105201797553,2026-01-16 15h17.29.343903 +0530,
,Objects\028a.jpg,93,0,94,,,,,,,f,1.312269899994135,0.1356145000027027,None,,,,,,94,0,93,515.7055313999881,,,,,,,,,,,,,,,,,,,,,,,,,,,,,,515.6892482999829,515.7055313999881,516.190924399998,,,,,,,,,,,,,,,,,,,,,,,516.2126540999743,516.2241961999971,516.2241961999971,516.2241961999971,519.2013301999832,f,1.312269899994135,0.1356145000027027,519.201387499983,519.2013995999878,None,,,,,,,,,,,,,,,00036,001,2026-01-16_15h17.10.885,MST_task,2024.2.0,59.44105201797553,2026-01-16 15h17.29.343903 +0530,
,Objects\065a.jpg,94,0,95,,,,,,,f,2.4949534999905154,0.1443229999858886,None,,,,,,95,0,94,519.2181907999911,,,,,,,,,,,,,,,,,,,,,,,,,,,,,,519.2015077999968,519.2181907999911,519.7035013999848,,,,,,,,,,,,,,,,,,,,,,,519.7253263999883,519.7369158999936,519.7369158999936,519.7369158999936,522.7137163000007,f,2.4949534999905154,0.1443229999858886,522.7137978999817,522.713813099981,None,,,,,,,,,,,,,,,00036,001,2026-01-16_15h17.10.885,MST_task,2024.2.0,59.44105201797553,2026-01-16 15h17.29.343903 +0530,
,Objects\143a.jpg,95,0,96,,,,,,,f,1.3117229000199586,0.1362111999769695,None,,,,,,96,0,95,522.7302884999954,,,,,,,,,,,,,,,,,,,,,,,,,,,,,,522.7139269999752,522.7302884999954,523.2156481999846,,,,,,,,,,,,,,,,,,,,,,,523.238799099985,523.2487419999961,523.2487419999961,523.2487419999961,526.2257107999758,f,1.3117229000199586,0.1362111999769695,526.2257523000007,526.2257648999803,None,,,,,,,,,,,,,,,00036,001,2026-01-16_15h17.10.885,MST_task,2024.2.0,59.44105201797553,2026-01-16 15h17.29.343903 +0530,
,Objects\031a.jpg,96,0,97,,,,,,,j,0.9511743999901228,0.12005860000499524,None,,,,,,97,0,96,526.2425481999817,,,,,,,,,,,,,,,,,,,,,,,,,,,,,,526.2258487999788,526.2425481999817,526.7275133999938,,,,,,,,,,,,,,,,,,,,,,,526.7501588999876,526.7609959999972,526.7609959999972,526.7609959999972,529.7381450999819,j,0.9511743999901228,0.12005860000499524,529.7381883999915,529.7382000999933,None,,,,,,,,,,,,,,,00036,001,2026-01-16_15h17.10.885,MST_task,2024.2.0,59.44105201797553,2026-01-16 15h17.29.343903 +0530,
,Objects\137a.jpg,97,0,98,,,,,,,f,1.9504593000165187,0.1679825999890454,None,,,,,,98,0,97,529.7547515999759,,,,,,,,,,,,,,,,,,,,,,,,,,,,,,529.7383040999994,529.7547515999759,530.2399448999786,,,,,,,,,,,,,,,,,,,,,,,530.262378799991,530.2731754999841,530.2731754999841,530.2731754999841,533.2503441999725,f,1.9504593000165187,0.1679825999890454,533.2503849999921,533.2503968999954,None,,,,,,,,,,,,,,,00036,001,2026-01-16_15h17.10.885,MST_task,2024.2.0,59.44105201797553,2026-01-16 15h17.29.343903 +0530,
,Scenes\039a.jpg,98,0,99,,,,,,,j,1.5427335999847855,0.10500390001107007,None,,,,,,99,0,98,533.267169699975,,,,,,,,,,,,,,,,,,,,,,,,,,,,,,533.2504698999983,533.267169699975,533.7521240999922,,,,,,,,,,,,,,,,,,,,,,,533.7761791999801,533.78504409999,533.78504409999,533.78504409999,536.7627184999874,j,1.5427335999847855,0.10500390001107007,536.7644770999905,536.7645065999823,None,,,,,,,,,,,,,,,00036,001,2026-01-16_15h17.10.885,MST_task,2024.2.0,59.44105201797553,2026-01-16 15h17.29.343903 +0530,
,Scenes\128a.jpg,99,0,100,,,,,,,j,1.1890653999871574,0.09608710001339205,None,,,,,,100,0,99,536.7798236999952,,,,,,,,,,,,,,,,,,,,,,,,,,,,,,536.7646549999772,536.7798236999952,537.2647129999823,,,,,,,,,,,,,,,,,,,,,,,537.2914022999757,537.3147750999779,537.3147750999779,537.3147750999779,540.2750242999755,j,1.1890653999871574,0.09608710001339205,540.2752211999905,540.2752529999998,None,,,,,537.3147750999779,,,,,,,,,,00036,001,2026-01-16_15h17.10.885,MST_task,2024.2.0,59.44105201797553,2026-01-16 15h17.29.343903 +0530,
,Scenes\087a.jpg,100,0,101,,,,,,,j,0.6135416999750305,0.13579220001702197,None,,,,,,101,0,100,540.291622299992,,,,,,,,,,,,,,,,,,,,,,,,,,,,,,540.2753714999999,540.291622299992,540.7769682999933,,,,,,,,,,,,,,,,,,,,,,,540.7995795999886,540.810846599983,540.810846599983,540.810846599983,543.7875182999996,j,0.6135416999750305,0.13579220001702197,543.7875633999938,543.7875757999718,None,,,,,,,,,,,,,,,00036,001,2026-01-16_15h17.10.885,MST_task,2024.2.0,59.44105201797553,2026-01-16 15h17.29.343903 +0530,
,Scenes\088a.jpg,101,0,102,,,,,,,j,0.7319545999926049,0.17603760000201873,None,,,,,,102,0,101,543.803940599988,,,,,,,,,,,,,,,,,,,,,,,,,,,,,,543.787646599987,543.803940599988,544.2897311999986,,,,,,,,,,,,,,,,,,,,,,,544.3186924999754,544.3403281999927,544.3403281999927,544.3403281999927,547.2995088999742,j,0.7319545999926049,0.17603760000201873,547.2995521999837,547.2995647999924,None,,,,,,,,,,,,,,,00036,001,2026-01-16_15h17.10.885,MST_task,2024.2.0,59.44105201797553,2026-01-16 15h17.29.343903 +0530,
,Scenes\154a.jpg,102,0,103,,,,,,,j,0.8842184999957681,0.18439360000775196,None,,,,,,103,0,102,547.3163485999976,,,,,,,,,,,,,,,,,,,,,,,,,,,,,,547.2996726999991,547.3163485999976,547.8019061999803,,,,,,,,,,,,,,,,,,,,,,,547.8234964000003,547.83543929999,547.83543929999,547.83543929999,550.8122215999756,j,0.8842184999957681,0.18439360000775196,550.8122631000006,550.812275299977,None,,,,,,,,,,,,,,,00036,001,2026-01-16_15h17.10.885,MST_task,2024.2.0,59.44105201797553,2026-01-16 15h17.29.343903 +0530,
,Scenes\166a.jpg,103,0,104,,,,,,,j,1.1256596999883186,0.07954440001049079,None,,,,,,104,0,103,550.8291211999895,,,,,,,,,,,,,,,,,,,,,,,,,,,,,,550.8123848999967,550.8291211999895,551.3137406999886,,,,,,,,,,,,,,,,,,,,,,,551.3273118999787,551.3470352999866,551.3470352999866,551.3470352999866,554.3243079999811,j,1.1256596999883186,0.07954440001049079,554.3243597999972,554.3243720999744,None,,,,,,,,,,,,,,,00036,001,2026-01-16_15h17.10.885,MST_task,2024.2.0,59.44105201797553,2026-01-16 15h17.29.343903 +0530,
,Scenes\122a.jpg,104,0,105,,,,,,,f,1.0917448000109289,0.15257639999617822,None,,,,,,105,0,104,554.3410980999761,,,,,,,,,,,,,,,,,,,,,,,,,,,,,,554.3244683999801,554.3410980999761,554.8266918999725,,,,,,,,,,,,,,,,,,,,,,,554.8578636999882,554.8761768999975,554.8761768999975,554.8761768999975,557.8368148999871,f,1.0917448000109289,0.15257639999617822,557.8368590999744,557.8368714999815,None,,,,,,,,,,,,,,,00036,001,2026-01-16_15h17.10.885,MST_task,2024.2.0,59.44105201797553,2026-01-16 15h17.29.343903 +0530,
,Objects\134a.jpg,105,0,106,,,,,,,j,1.2586803000012878,0.1210181999776978,None,,,,,,106,0,105,557.8532956999843,,,,,,,,,,,,,,,,,,,,,,,,,,,,,,557.8370056999847,557.8532956999843,558.3384849999857,,,,,,,,,,,,,,,,,,,,,,,558.3658185999957,558.3894912999822,558.3894912999822,558.3894912999822,561.3491074999911,j,1.2586803000012878,0.1210181999776978,561.3506766999781,561.3506988999725,None,,,,,,,,,,,,,,,00036,001,2026-01-16_15h17.10.885,MST_task,2024.2.0,59.44105201797553,2026-01-16 15h17.29.343903 +0530,
,Objects\102a.jpg,106,0,107,,,,,,,f,0.9086347999982536,0.15106209999066778,None,,,,,,107,0,106,561.3657693999994,,,,,,,,,,,,,,,,,,,,,,,,,,,,,,561.3508231999876,561.3657693999994,561.8510124999739,,,,,,,,,,,,,,,,,,,,,,,561.8740900999983,561.8839909999806,561.8839909999806,561.8839909999806,564.8611318999901,f,0.9086347999982536,0.15106209999066778,564.861172999983,564.8611850999878,None,,,,,561.8839909999806,,,,,,,,,,00036,001,2026-01-16_15h17.10.885,MST_task,2024.2.0,59.44105201797553,2026-01-16 15h17.29.343903 +0530,
,Objects\154a.jpg,107,0,108,,,,,,,j,0.835720000002766,0.1926159999857191,None,,,,,,108,0,107,564.8777388999879,,,,,,,,,,,,,,,,,,,,,,,,,,,,,,564.8612544999924,564.8777388999879,565.3629254999978,,,,,,,,,,,,,,,,,,,,,,,565.3855159999803,565.3961579999886,565.3961579999886,565.3961579999886,568.3733175999951,j,0.835720000002766,0.1926159999857191,568.3733601999993,568.3733719999727,None,,,,,,,,,,,,,,,00036,001,2026-01-16_15h17.10.885,MST_task,2024.2.0,59.44105201797553,2026-01-16 15h17.29.343903 +0530,
,Objects\087a.jpg,108,0,109,,,,,,,j,1.5722857999789994,0.10342260001925752,None,,,,,,109,0,108,568.3901486999821,,,,,,,,,,,,,,,,,,,,,,,,,,,,,,568.3734785999986,568.3901486999821,568.8752553999948,,,,,,,,,,,,,,,,,,,,,,,568.8962516999745,568.9085879999911,568.9085879999911,568.9085879999911,571.8857399999979,j,1.5722857999789994,0.10342260001925752,571.885782599973,571.8857947999786,None,,,,,,,,,,,,,,,00036,001,2026-01-16_15h17.10.885,MST_task,2024.2.0,59.44105201797553,2026-01-16 15h17.29.343903 +0530,
,Objects\002a.jpg,109,0,110,,,,,,,f,0.9632902000157628,0.151561100006802,None,,,,,,110,0,109,571.902314499981,,,,,,,,,,,,,,,,,,,,,,,,,,,,,,571.8859195999976,571.902314499981,572.3877378999896,,,,,,,,,,,,,,,,,,,,,,,572.4102286999987,572.4207692999917,572.4207692999917,572.4207692999917,575.3980267999868,f,0.9632902000157628,0.151561100006802,575.3980686999857,575.398080599989,None,,,,,,,,,,,,,,,00036,001,2026-01-16_15h17.10.885,MST_task,2024.2.0,59.44105201797553,2026-01-16 15h17.29.343903 +0530,
,Objects\073a.jpg,110,0,111,,,,,,,f,1.0669535999768414,0.15991080002277158,None,,,,,,111,0,110,575.414764599991,,,,,,,,,,,,,,,,,,,,,,,,,,,,,,575.3981867999828,575.414764599991,575.8998103999766,,,,,,,,,,,,,,,,,,,,,,,575.9222092999844,575.933062199998,575.933062199998,575.933062199998,578.9101966999879,f,1.0669535999768414,0.15991080002277158,578.9102518,578.9102637999749,None,,,,,,,,,,,,,,,00036,001,2026-01-16_15h17.10.885,MST_task,2024.2.0,59.44105201797553,2026-01-16 15h17.29.343903 +0530,
,Objects\180a.jpg,111,0,112,,,,,,,f,0.7709737000113819,0.15981749998172745,None,,,,,,112,0,111,578.9270381999959,,,,,,,,,,,,,,,,,,,,,,,,,,,,,,578.910667899996,578.9270381999959,579.4120860999974,,,,,,,,,,,,,,,,,,,,,,,579.4347469999921,579.4454818999802,579.4454818999802,579.4454818999802,582.4227708999824,f,0.7709737000113819,0.15981749998172745,582.4228177999903,582.4228307999729,None,,,,,,,,,,,,,,,00036,001,2026-01-16_15h17.10.885,MST_task,2024.2.0,59.44105201797553,2026-01-16 15h17.29.343903 +0530,
,Scenes\175a.jpg,112,0,113,,,,,,,j,0.666499599989038,0.13594179999199696,None,,,,,,113,0,112,582.4393760999956,,,,,,,,,,,,,,,,,,,,,,,,,,,,,,582.4229041999788,582.4393760999956,582.9244057999749,,,,,,,,,,,,,,,,,,,,,,,582.946807899978,582.9579591999936,582.9579591999936,582.9579591999936,585.9348448999808,j,0.666499599989038,0.13594179999199696,585.9365146999771,585.9365342999808,None,,,,,,,,,,,,,,,00036,001,2026-01-16_15h17.10.885,MST_task,2024.2.0,59.44105201797553,2026-01-16 15h17.29.343903 +0530,
,Scenes\113a.jpg,113,0,114,,,,,,,j,1.0354534000216518,0.17546509997919202,None,,,,,,114,0,113,585.9516429999785,,,,,,,,,,,,,,,,,,,,,,,,,,,,,,585.9366079999891,585.9516429999785,586.4365890999907,,,,,,,,,,,,,,,,,,,,,,,586.4627157999785,586.4692443999811,586.4692443999811,586.4692443999811,589.4470988999819,j,1.0354534000216518,0.17546509997919202,589.4471465999959,589.4471589999739,None,,,,,,,,,,,,,,,00036,001,2026-01-16_15h17.10.885,MST_task,2024.2.0,59.44105201797553,2026-01-16 15h17.29.343903 +0530,
,Scenes\015a.jpg,114,0,115,,,,,,,j,0.8871333999850322,0.1440242000098806,None,,,,,,115,0,114,589.4639389999793,,,,,,,,,,,,,,,,,,,,,,,,,,,,,,589.4472649999952,589.4639389999793,589.9488955999841,,,,,,,,,,,,,,,,,,,,,,,589.9814541999949,590.0009953999834,590.0009953999834,590.0009953999834,592.9594265999913,j,0.8871333999850322,0.1440242000098806,592.9594671999803,592.9594793999859,None,,,,,,,,,,,,,,,00036,001,2026-01-16_15h17.10.885,MST_task,2024.2.0,59.44105201797553,2026-01-16 15h17.29.343903 +0530,
,Scenes\031a.jpg,115,0,116,,,,,,,f,1.3513722000061534,0.12015899998368695,None,,,,,,116,0,115,592.9762381999753,,,,,,,,,,,,,,,,,,,,,,,,,,,,,,592.9595864999865,592.9762381999753,593.4613323999802,,,,,,,,,,,,,,,,,,,,,,,593.4882177999825,593.5123580999789,593.5123580999789,593.5123580999789,596.4718789999897,f,1.3513722000061534,0.12015899998368695,596.4719207999879,596.4719332999957,None,,,,,,,,,,,,,,,00036,001,2026-01-16_15h17.10.885,MST_task,2024.2.0,59.44105201797553,2026-01-16 15h17.29.343903 +0530,
,Scenes\150a.jpg,116,0,117,,,,,,,j,1.8800322999886703,0.15976050001336262,None,,,,,,117,0,116,596.4884213999903,,,,,,,,,,,,,,,,,,,,,,,,,,,,,,596.4720559999987,596.4884213999903,596.9736176999868,,,,,,,,,,,,,,,,,,,,,,,596.998529399978,597.0238174999831,597.0238174999831,597.0238174999831,599.9839855999744,j,1.8800322999886703,0.15976050001336262,599.9840295999893,599.9840417999949,None,,,,,,,,,,,,,,,00036,001,2026-01-16_15h17.10.885,MST_task,2024.2.0,59.44105201797553,2026-01-16 15h17.29.343903 +0530,
,Scenes\168a.jpg,117,0,118,,,,,,,j,1.0083103000069968,0.15999789998750202,None,,,,,,118,0,117,600.0008261999756,,,,,,,,,,,,,,,,,,,,,,,,,,,,,,599.9843739999924,600.0008261999756,600.4858014999772,,,,,,,,,,,,,,,,,,,,,,,600.5077076999878,600.5200590999739,600.5200590999739,600.5200590999739,603.496325199987,j,1.0083103000069968,0.15999789998750202,603.4963690999721,603.4963809999754,None,,,,,,,,,,,,,,,00036,001,2026-01-16_15h17.10.885,MST_task,2024.2.0,59.44105201797553,2026-01-16 15h17.29.343903 +0530,
,Scenes\069a.jpg,118,0,119,,,,,,,j,0.8255434999882709,0.15099860000191256,None,,,,,,119,0,118,603.513377299998,,,,,,,,,,,,,,,,,,,,,,,,,,,,,,603.4964796999993,603.513377299998,603.9983565000002,,,,,,,,,,,,,,,,,,,,,,,604.021597199986,604.0313984999957,604.0313984999957,604.0313984999957,607.0085990999942,j,0.8255434999882709,0.15099860000191256,607.0086417999992,607.0086538999749,None,,,,,,,,,,,,,,,00036,001,2026-01-16_15h17.10.885,MST_task,2024.2.0,59.44105201797553,2026-01-16 15h17.29.343903 +0530,
,Objects\033a.jpg,119,0,120,,,,,,,f,1.431215999997221,0.16798140000901185,None,,,,,,120,0,119,607.025562099996,,,,,,,,,,,,,,,,,,,,,,,,,,,,,,607.0087575999787,607.025562099996,607.5104312999756,,,,,,,,,,,,,,,,,,,,,,,607.5362511999847,607.5444547999941,607.5444547999941,607.5444547999941,610.5211019999988,f,1.431215999997221,0.16798140000901185,610.5226178999874,610.522636299982,None,,,,,,,,,,,,,,,00036,001,2026-01-16_15h17.10.885,MST_task,2024.2.0,59.44105201797553,2026-01-16 15h17.29.343903 +0530,
,Objects\160a.jpg,120,0,121,,,,,,,f,0.9678627999965101,0.1376962999929674,None,,,,,,121,0,120,610.5376003999845,,,,,,,,,,,,,,,,,,,,,,,,,,,,,,610.5227064999926,610.5376003999845,611.0229469999904,,,,,,,,,,,,,,,,,,,,,,,611.0453847999743,611.0560635000002,611.0560635000002,611.0560635000002,614.0331947999948,f,0.9678627999965101,0.1376962999929674,614.0332379999745,614.0332513999892,None,,,,,,,,,,,,,,,00036,001,2026-01-16_15h17.10.885,MST_task,2024.2.0,59.44105201797553,2026-01-16 15h17.29.343903 +0530,
,Objects\095a.jpg,121,0,122,,,,,,,f,1.4961947999836411,0.1429407999967225,None,,,,,,122,0,121,614.0501694999984,,,,,,,,,,,,,,,,,,,,,,,,,,,,,,614.0333396999922,614.0501694999984,614.5351079999818,,,,,,,,,,,,,,,,,,,,,,,614.5576717999938,614.568477199995,614.568477199995,614.568477199995,617.5455920999811,f,1.4961947999836411,0.1429407999967225,617.545918799995,617.5459482999868,None,,,,,,,,,,,,,,,00036,001,2026-01-16_15h17.10.885,MST_task,2024.2.0,59.44105201797553,2026-01-16 15h17.29.343903 +0530,
,Objects\148a.jpg,122,0,123,,,,,,,f,1.623514700011583,0.16015390001120977,None,,,,,,123,0,122,617.5622019999719,,,,,,,,,,,,,,,,,,,,,,,,,,,,,,617.5460593999887,617.5622019999719,618.0474170999951,,,,,,,,,,,,,,,,,,,,,,,618.070802799979,618.0806606999831,618.0806606999831,618.0806606999831,621.0578024999995,f,1.623514700011583,0.16015390001120977,621.0578450999747,621.057857799984,None,,,,,,,,,,,,,,,00036,001,2026-01-16_15h17.10.885,MST_task,2024.2.0,59.44105201797553,2026-01-16 15h17.29.343903 +0530,
,Objects\066a.jpg,123,0,124,,,,,,,j,2.2468754000146873,0.183907900005579,None,,,,,,124,0,123,621.074632999982,,,,,,,,,,,,,,,,,,,,,,,,,,,,,,621.057946099987,621.074632999982,621.5596977999958,,,,,,,,,,,,,,,,,,,,,,,621.58445569998,621.5931281999801,621.5931281999801,621.5931281999801,624.5702134999738,j,2.2468754000146873,0.183907900005579,624.5704782999819,624.5704936999828,None,,,,,,,,,,,,,,,00036,001,2026-01-16_15h17.10.885,MST_task,2024.2.0,59.44105201797553,2026-01-16 15h17.29.343903 +0530,
,Objects\061a.jpg,124,0,125,,,,,,,j,2.1823366000026,0.12097469999571331,None,,,,,,125,0,124,624.5867989999824,,,,,,,,,,,,,,,,,,,,,,,,,,,,,,624.5705709999893,624.5867989999824,625.0720099999744,,,,,,,,,,,,,,,,,,,,,,,625.0947899999737,625.1053701999772,625.1053701999772,625.1053701999772,628.0823934999935,j,2.1823366000026,0.12097469999571331,628.0824364999717,628.0824485999765,None,,,,,,,,,,,,,,,00036,001,2026-01-16_15h17.10.885,MST_task,2024.2.0,59.44105201797553,2026-01-16 15h17.29.343903 +0530,
,Objects\021a.jpg,125,0,126,,,,,,,f,1.5181369000056293,0.13670380000257865,None,,,,,,126,0,125,628.0992368999869,,,,,,,,,,,,,,,,,,,,,,,,,,,,,,628.0825802999898,628.0992368999869,628.5841992999776,,,,,,,,,,,,,,,,,,,,,,,628.6065276999725,628.6176688999985,628.6176688999985,628.6176688999985,631.5948023999808,f,1.5181369000056293,0.13670380000257865,631.5949980999867,631.5950287999876,None,,,,,,,,,,,,,,,00036,001,2026-01-16_15h17.10.885,MST_task,2024.2.0,59.44105201797553,2026-01-16 15h17.29.343903 +0530,
,Scenes\032a.jpg,126,0,127,,,,,,,j,1.100705899996683,0.13555840001208708,None,,,,,,127,0,126,631.6113981999806,,,,,,,,,,,,,,,,,,,,,,,,,,,,,,631.595108199981,631.6113981999806,632.0966167000006,,,,,,,,,,,,,,,,,,,,,,,632.1296701999963,632.1476393999765,632.1476393999765,632.1476393999765,635.1070966999978,j,1.100705899996683,0.13555840001208708,635.1086706999922,635.1086890999868,None,,,,,,,,,,,,,,,00036,001,2026-01-16_15h17.10.885,MST_task,2024.2.0,59.44105201797553,2026-01-16 15h17.29.343903 +0530,
,Scenes\081a.jpg,127,0,128,,,,,,,j,1.5797508000105154,0.13613609998719767,None,,,,,,128,0,127,635.123700199998,,,,,,,,,,,,,,,,,,,,,,,,,,,,,,635.1087581999891,635.123700199998,635.6089042999956,,,,,,,,,,,,,,,,,,,,,,,635.6360541999748,635.6598802999943,635.6598802999943,635.6598802999943,638.6192818999989,j,1.5797508000105154,0.13613609998719767,638.6193366999796,638.6193488999852,None,,,,,,,,,,,,,,,00036,001,2026-01-16_15h17.10.885,MST_task,2024.2.0,59.44105201797553,2026-01-16 15h17.29.343903 +0530,
,Scenes\189a.jpg,128,0,129,,,,,,,j,1.1502228999743238,0.1037600000272505,None,,,,,,129,0,128,638.6362572999788,,,,,,,,,,,,,,,,,,,,,,,,,,,,,,638.6196271999797,638.6362572999788,639.121093099995,,,,,,,,,,,,,,,,,,,,,,,639.1407498999906,639.1544388999755,639.1544388999755,639.1544388999755,642.1315703999717,j,1.1502228999743238,0.1037600000272505,642.1316358999757,642.1316484999843,None,,,,,,,,,,,,,,,00036,001,2026-01-16_15h17.10.885,MST_task,2024.2.0,59.44105201797553,2026-01-16 15h17.29.343903 +0530,
,Scenes\165a.jpg,129,0,130,,,,,,,j,0.6855096999788657,0.11119880000478588,None,,,,,,130,0,129,642.1484325999918,,,,,,,,,,,,,,,,,,,,,,,,,,,,,,642.1318700999836,642.1484325999918,642.6333728999889,,,,,,,,,,,,,,,,,,,,,,,642.6523636999773,642.6669822999975,642.6669822999975,642.6669822999975,645.6438844999939,j,0.6855096999788657,0.11119880000478588,645.6439389000006,645.6439514999802,None,,,,,,,,,,,,,,,00036,001,2026-01-16_15h17.10.885,MST_task,2024.2.0,59.44105201797553,2026-01-16 15h17.29.343903 +0530,
,Scenes\185a.jpg,130,0,131,,,,,,,j,2.172826800000621,0.14427730001625605,None,,,,,,131,0,130,645.660845299979,,,,,,,,,,,,,,,,,,,,,,,,,,,,,,645.6440206999832,645.660845299979,646.1456915999879,,,,,,,,,,,,,,,,,,,,,,,646.1694646999822,646.1796388999792,646.1796388999792,646.1796388999792,649.1562173999846,j,2.172826800000621,0.14427730001625605,649.1562613999995,649.156273599976,None,,,,,,,,,,,,,,,00036,001,2026-01-16_15h17.10.885,MST_task,2024.2.0,59.44105201797553,2026-01-16 15h17.29.343903 +0530,
,Scenes\102a.jpg,131,0,132,,,,,,,f,1.0844212000083644,0.17604779999237508,None,,,,,,132,0,131,649.173026799981,,,,,,,,,,,,,,,,,,,,,,,,,,,,,,649.1563437999866,649.173026799981,649.6579765999923,,,,,,,,,,,,,,,,,,,,,,,649.6848594999756,649.7080753999762,649.7080753999762,649.7080753999762,652.6694044999895,f,1.0844212000083644,0.17604779999237508,652.6694470999937,652.6694598999748,None,,,,,,,,,,,,,,,00036,001,2026-01-16_15h17.10.885,MST_task,2024.2.0,59.44105201797553,2026-01-16 15h17.29.343903 +0530,
,Scenes\021a.jpg,132,0,133,,,,,,,j,2.3325279999990016,0.12819210000452586,None,,,,,,133,0,132,652.6859661999915,,,,,,,,,,,,,,,,,,,,,,,,,,,,,,652.6695774999971,652.6859661999915,653.170424699987,,,,,,,,,,,,,,,,,,,,,,,653.1884053999966,653.2036685999774,653.2036685999774,653.2036685999774,656.1809065999987,j,2.3325279999990016,0.12819210000452586,656.1809620999848,656.1809748999949,None,,,,,,,,,,,,,,,00036,001,2026-01-16_15h17.10.885,MST_task,2024.2.0,59.44105201797553,2026-01-16 15h17.29.343903 +0530,
,Objects\075a.jpg,133,0,134,,,,,,,f,1.2839558999985456,0.14376639999682084,None,,,,,,134,0,133,656.1975848999864,,,,,,,,,,,,,,,,,,,,,,,,,,,,,,656.1811875999847,656.1975848999864,656.6825976999826,,,,,,,,,,,,,,,,,,,,,,,656.7084238999814,656.7167606999865,656.7167606999865,656.7167606999865,659.6931014999864,f,1.2839558999985456,0.14376639999682084,659.6950164999871,659.6950366999954,None,,,,,,,,,,,,,,,00036,001,2026-01-16_15h17.10.885,MST_task,2024.2.0,59.44105201797553,2026-01-16 15h17.29.343903 +0530,
,Objects\006a.jpg,134,0,135,,,,,,,f,0.6354470000078436,0.12808189998031594,None,,,,,,135,0,134,659.7099303999858,,,,,,,,,,,,,,,,,,,,,,,,,,,,,,659.6951538999856,659.7099303999858,660.1950510999886,,,,,,,,,,,,,,,,,,,,,,,660.217489099974,660.2282544999907,660.2282544999907,660.2282544999907,663.2054934999906,f,0.6354470000078436,0.12808189998031594,663.2055365999986,663.2055480999989,None,,,,,660.2282544999907,,,,,,,,,,00036,001,2026-01-16_15h17.10.885,MST_task,2024.2.0,59.44105201797553,2026-01-16 15h17.29.343903 +0530,
,Objects\068a.jpg,135,0,136,,,,,,,f,0.7872123999986798,0.11297439999179915,None,,,,,,136,0,135,663.2220950999763,,,,,,,,,,,,,,,,,,,,,,,,,,,,,,663.2056171000004,663.2220950999763,663.7073177999991,,,,,,,,,,,,,,,,,,,,,,,663.7295377999835,663.7405405999743,663.7405405999743,663.7405405999743,666.7178321999963,f,0.7872123999986798,0.11297439999179915,666.7178871999786,666.7179007999948,None,,,,,,,,,,,,,,,00036,001,2026-01-16_15h17.10.885,MST_task,2024.2.0,59.44105201797553,2026-01-16 15h17.29.343903 +0530,
,Objects\127a.jpg,136,0,137,,,,,,,f,0.6990082999982405,0.14465309999650344,None,,,,,,137,0,136,666.7346515999816,,,,,,,,,,,,,,,,,,,,,,,,,,,,,,666.7179768999922,666.7346515999816,667.2194616999768,,,,,,,,,,,,,,,,,,,,,,,667.2428865999973,667.2531608999998,667.2531608999998,667.2531608999998,670.2304061999894,f,0.6990082999982405,0.14465309999650344,670.2304598999908,670.2304723999987,None,,,,,,,,,,,,,,,00036,001,2026-01-16_15h17.10.885,MST_task,2024.2.0,59.44105201797553,2026-01-16 15h17.29.343903 +0530,
,Objects\176a.jpg,137,0,138,,,,,,,j,1.5305968999746256,0.18427520000841469,None,,,,,,138,0,137,670.2467002999911,,,,,,,,,,,,,,,,,,,,,,,,,,,,,,670.2305503999814,670.2467002999911,670.7318997999828,,,,,,,,,,,,,,,,,,,,,,,670.7543402999872,670.7653825999878,670.7653825999878,670.7653825999878,673.7424376999843,j,1.5305968999746256,0.18427520000841469,673.7424818,673.7424940999772,None,,,,,,,,,,,,,,,00036,001,2026-01-16_15h17.10.885,MST_task,2024.2.0,59.44105201797553,2026-01-16 15h17.29.343903 +0530,
,Objects\080a.jpg,138,0,139,,,,,,,f,0.9066823000030126,0.11228760000085458,None,,,,,,139,0,138,673.7591160999727,,,,,,,,,,,,,,,,,,,,,,,,,,,,,,673.7426003999717,673.7591160999727,674.2440648999764,,,,,,,,,,,,,,,,,,,,,,,674.2682881999935,674.2777999999817,674.2777999999817,674.2777999999817,677.2546933999984,f,0.9066823000030126,0.11228760000085458,677.2547490999859,677.2547612999915,None,,,,,,,,,,,,,,,00036,001,2026-01-16_15h17.10.885,MST_task,2024.2.0,59.44105201797553,2026-01-16 15h17.29.343903 +0530,
,Objects\076a.jpg,139,0,140,,,,,,,f,0.8899241000181064,0.12001109999255277,None,,,,,,140,0,139,677.2712868999806,,,,,,,,,,,,,,,,,,,,,,,,,,,,,,677.254835699976,677.2712868999806,677.7564907999767,,,,,,,,,,,,,,,,,,,,,,,677.780294599972,677.7899616999784,677.7899616999784,677.7899616999784,680.7670269999944,f,0.8899241000181064,0.12001109999255277,680.7670726999932,680.7670851999719,None,,,,,,,,,,,,,,,00036,001,2026-01-16_15h17.10.885,MST_task,2024.2.0,59.44105201797553,2026-01-16 15h17.29.343903 +0530,
,Scenes\149a.jpg,140,0,141,,,,,,,f,0.8737332999880891,0.11243610002566129,None,,,,,,141,0,140,680.7837542999769,,,,,,,,,,,,,,,,,,,,,,,,,,,,,,680.7671942999878,680.7837542999769,681.268663099996,,,,,,,,,,,,,,,,,,,,,,,681.2965476999816,681.3190205999999,681.3190205999999,681.3190205999999,684.2791658999922,f,0.8737332999880891,0.11243610002566129,684.2804662999988,684.2804850999964,None,,,,,,,,,,,,,,,00036,001,2026-01-16_15h17.10.885,MST_task,2024.2.0,59.44105201797553,2026-01-16 15h17.29.343903 +0530,
,Scenes\007a.jpg,141,0,142,,,,,,,f,0.9605041999893729,0.13571249999222346,None,,,,,,142,0,141,684.2960254999925,,,,,,,,,,,,,,,,,,,,,,,,,,,,,,684.2805561999849,684.2960254999925,684.7809698999918,,,,,,,,,,,,,,,,,,,,,,,684.8058072999993,684.8318434999965,684.8318434999965,684.8318434999965,687.7916198999737,f,0.9605041999893729,0.13571249999222346,687.7916637999879,687.7916759999935,None,,,,,,,,,,,,,,,00036,001,2026-01-16_15h17.10.885,MST_task,2024.2.0,59.44105201797553,2026-01-16 15h17.29.343903 +0530,
,Scenes\042a.jpg,142,0,143,,,,,,,j,1.5767021999927238,0.16004610000527464,None,,,,,,143,0,142,687.8081836999918,,,,,,,,,,,,,,,,,,,,,,,,,,,,,,687.7917471999826,687.8081836999918,688.2933817999728,,,,,,,,,,,,,,,,,,,,,,,688.3171326999727,688.3434924999892,688.3434924999892,688.3434924999892,691.3037824999774,j,1.5767021999927238,0.16004610000527464,691.3038247999793,691.3038374999887,None,,,,,,,,,,,,,,,00036,001,2026-01-16_15h17.10.885,MST_task,2024.2.0,59.44105201797553,2026-01-16 15h17.29.343903 +0530,
,Scenes\097a.jpg,143,0,144,,,,,,,f,2.097086699999636,0.13576890001422726,None,,,,,,144,0,143,691.3206120999821,,,,,,,,,,,,,,,,,,,,,,,,,,,,,,691.3039324999845,691.3206120999821,691.8055633999757,,,,,,,,,,,,,,,,,,,,,,,691.8277901999827,691.839793399995,691.839793399995,691.839793399995,694.8160683999886,f,2.097086699999636,0.13576890001422726,694.8161129999789,694.8161250999838,None,,,,,,,,,,,,,,,00036,001,2026-01-16_15h17.10.885,MST_task,2024.2.0,59.44105201797553,2026-01-16 15h17.29.343903 +0530,
,Scenes\125a.jpg,144,0,145,,,,,,,j,0.7995685000205413,0.15388440000242554,None,,,,,,145,0,144,694.8328875999723,,,,,,,,,,,,,,,,,,,,,,,,,,,,,,694.8162316999806,694.8328875999723,695.3179303999932,,,,,,,,,,,,,,,,,,,,,,,695.3449682999926,695.3680599999789,695.3680599999789,695.3680599999789,698.3283704999776,j,0.7995685000205413,0.15388440000242554,698.328412199975,698.3284243999806,None,,,,,,,,,,,,,,,00036,001,2026-01-16_15h17.10.885,MST_task,2024.2.0,59.44105201797553,2026-01-16 15h17.29.343903 +0530,
,Scenes\111a.jpg,145,0,146,,,,,,,f,1.2663212000043131,0.15022439998574555,None,,,,,,146,0,145,698.3451971999893,,,,,,,,,,,,,,,,,,,,,,,,,,,,,,698.3285532999726,698.3451971999893,698.8302913999942,,,,,,,,,,,,,,,,,,,,,,,698.8535600999894,698.8631666999718,698.8631666999718,698.8631666999718,701.840845699975,f,1.2663212000043131,0.15022439998574555,701.8409601999738,701.8410013999965,None,,,,,,,,,,,,,,,00036,001,2026-01-16_15h17.10.885,MST_task,2024.2.0,59.44105201797553,2026-01-16 15h17.29.343903 +0530,
,Scenes\009a.jpg,146,0,147,,,,,,,j,1.0625123000063468,0.14390600001206622,None,,,,,,147,0,146,701.857508999994,,,,,,,,,,,,,,,,,,,,,,,,,,,,,,701.8412099999841,701.857508999994,702.3424496999942,,,,,,,,,,,,,,,,,,,,,,,702.3731221999915,702.3937321999983,702.3937321999983,702.3937321999983,705.3532554999983,j,1.0625123000063468,0.14390600001206622,705.3532964999904,705.3533089999983,None,,,,,,,,,,,,,,,00036,001,2026-01-16_15h17.10.885,MST_task,2024.2.0,59.44105201797553,2026-01-16 15h17.29.343903 +0530,
,Objects\131a.jpg,147,0,148,,,,,,,f,2.086543999990681,0.18363030001637526,None,,,,,,148,0,147,705.3698462999891,,,,,,,,,,,,,,,,,,,,,,,,,,,,,,705.3533790999791,705.3698462999891,705.8554047999787,,,,,,,,,,,,,,,,,,,,,,,705.8805681999947,705.889449099981,705.889449099981,705.889449099981,708.8653801999753,f,2.086543999990681,0.18363030001637526,708.8668201999972,708.8668392999971,None,,,,,,,,,,,,,,,00036,001,2026-01-16_15h17.10.885,MST_task,2024.2.0,59.44105201797553,2026-01-16 15h17.29.343903 +0530,
,Objects\153a.jpg,148,0,149,,,,,,,f,1.3911850999866147,0.13602649999666028,None,,,,,,149,0,148,708.8819809999841,,,,,,,,,,,,,,,,,,,,,,,,,,,,,,708.8669090999756,708.8819809999841,709.3689260999963,,,,,,,,,,,,,,,,,,,,,,,709.391608099977,709.4006528999889,709.4006528999889,709.4006528999889,712.3775884999777,f,1.3911850999866147,0.13602649999666028,712.3776350999833,712.3776476999919,None,,,,,,,,,,,,,,,00036,001,2026-01-16_15h17.10.885,MST_task,2024.2.0,59.44105201797553,2026-01-16 15h17.29.343903 +0530,
,Objects\111a.jpg,149,0,150,,,,,,,j,1.5511090999934822,0.15176639999845065,None,,,,,,150,0,149,712.3943990999833,,,,,,,,,,,,,,,,,,,,,,,,,,,,,,712.3777221999771,712.3943990999833,712.8794994999771,,,,,,,,,,,,,,,,,,,,,,,712.9031082999718,712.9128963999974,712.9128963999974,712.9128963999974,715.8898544999829,j,1.5511090999934822,0.15176639999845065,715.8898965999833,715.8899086999882,None,,,,,,,,,,,,,,,00036,001,2026-01-16_15h17.10.885,MST_task,2024.2.0,59.44105201797553,2026-01-16 15h17.29.343903 +0530,
,Objects\158a.jpg,150,0,151,,,,,,,f,0.9670645000005607,0.13708390001556836,None,,,,,,151,0,150,715.9068204999785,,,,,,,,,,,,,,,,,,,,,,,,,,,,,,715.8900143999781,715.9068204999785,716.3916466999799,,,,,,,,,,,,,,,,,,,,,,,716.414042999997,716.4251369999838,716.4251369999838,716.4251369999838,719.4022953999811,f,0.9670645000005607,0.13708390001556836,719.4023361,719.402348499978,None,,,,,,,,,,,,,,,00036,001,2026-01-16_15h17.10.885,MST_task,2024.2.0,59.44105201797553,2026-01-16 15h17.29.343903 +0530,
,Objects\016a.jpg,151,0,152,,,,,,,f,0.8949035999830812,0.16005229999427684,None,,,,,,152,0,151,719.4188831999782,,,,,,,,,,,,,,,,,,,,,,,,,,,,,,719.4024530999886,719.4188831999782,719.9040832999744,,,,,,,,,,,,,,,,,,,,,,,719.9259503999783,719.9373347999936,719.9373347999936,719.9373347999936,722.9144696999865,f,0.8949035999830812,0.16005229999427684,722.9145126999938,722.9145251999726,None,,,,,,,,,,,,,,,00036,001,2026-01-16_15h17.10.885,MST_task,2024.2.0,59.44105201797553,2026-01-16 15h17.29.343903 +0530,
,Objects\060a.jpg,152,0,153,,,,,,,f,1.5821643999952357,0.1363740999950096,None,,,,,,153,0,152,722.9312994999927,,,,,,,,,,,,,,,,,,,,,,,,,,,,,,722.9146293999802,722.9312994999927,723.4162683999748,,,,,,,,,,,,,,,,,,,,,,,723.4377166999911,723.4497324999829,723.4497324999829,723.4497324999829,726.427208499983,f,1.5821643999952357,0.1363740999950096,726.4272592999914,726.4272728999786,None,,,,,,,,,,,,,,,00036,001,2026-01-16_15h17.10.885,MST_task,2024.2.0,59.44105201797553,2026-01-16 15h17.29.343903 +0530,
,Objects\133a.jpg,153,0,154,,,,,,,f,2.8151555999938864,None,None,,,,,,154,0,153,726.4434832999832,,,,,,,,,,,,,,,,,,,,,,,,,,,,,,726.427349399979,726.4434832999832,726.9288260999892,,,,,,,,,,,,,,,,,,,,,,,726.9493444999971,726.9619196999993,726.9619196999993,726.9619196999993,729.9391863999772,f,2.8151555999938864,None,729.9392319999752,729.9392449999868,None,,,,,,,,,,,,,,,00036,001,2026-01-16_15h17.10.885,MST_task,2024.2.0,59.44105201797553,2026-01-16 15h17.29.343903 +0530,
,Scenes\186a.jpg,154,0,155,,,,,,,None,,,j,1.3959680999978445,None,,,,155,0,154,729.9559079999744,,,,,,,,,,,,,,,,,,,,,,,,,,,,,,729.9393146999937,729.9559079999744,730.4408560999727,,,,,,,,,,,,,,,,,,,,,,,730.4667420999904,730.491823999997,730.491823999997,730.491823999997,733.4513579999912,None,,,733.4528811999771,734.8738971999846,j,733.4681956999993,733.4681956999993,1.3959680999978445,None,,,,,,,,,,,00036,001,2026-01-16_15h17.10.885,MST_task,2024.2.0,59.44105201797553,2026-01-16 15h17.29.343903 +0530,
,Scenes\062a.jpg,155,0,156,,,,,,,j,1.0702122000220697,0.1761609999812208,None,,,,,,156,0,155,734.8897135999869,,,,,,,,,,,,,,,,,,,,,,,,,,,,,,734.8739886999829,734.8897135999869,735.3749163999746,,,,,,,,,,,,,,,,,,,,,,,735.4019373999909,735.4257566999877,735.4257566999877,735.4257566999877,738.3854616999743,j,1.0702122000220697,0.1761609999812208,738.3855176999932,738.3855314999819,None,,,,,,,,,,,,,,,00036,001,2026-01-16_15h17.10.885,MST_task,2024.2.0,59.44105201797553,2026-01-16 15h17.29.343903 +0530,
,Scenes\067a.jpg,156,0,157,,,,,,,f,0.6871370000008028,0.1359666000062134,None,,,,,,157,0,156,738.4023006999923,,,,,,,,,,,,,,,,,,,,,,,,,,,,,,738.3856368999986,738.4023006999923,738.8872678999905,,,,,,,,,,,,,,,,,,,,,,,738.9153155999957,738.9374872999906,738.9374872999906,738.9374872999906,741.8977032999974,f,0.6871370000008028,0.1359666000062134,741.8979222999769,741.8979407000006,None,,,,,,,,,,,,,,,00036,001,2026-01-16_15h17.10.885,MST_task,2024.2.0,59.44105201797553,2026-01-16 15h17.29.343903 +0530,
,Scenes\110a.jpg,157,0,158,,,,,,,j,0.7419774000009056,0.15194360000896268,None,,,,,,158,0,157,741.9144346999819,,,,,,,,,,,,,,,,,,,,,,,,,,,,,,741.8980630999722,741.9144346999819,742.3995091999823,,,,,,,,,,,,,,,,,,,,,,,742.4247404999915,742.4496042999963,742.4496042999963,742.4496042999963,745.4100778999855,j,0.7419774000009056,0.15194360000896268,745.4101197999844,745.41013199999,None,,,,,,,,,,,,,,,00036,001,2026-01-16_15h17.10.885,MST_task,2024.2.0,59.44105201797553,2026-01-16 15h17.29.343903 +0530,
,Scenes\160a.jpg,158,0,159,,,,,,,j,2.0382290999987163,0.11150099997757934,None,,,,,,159,0,158,745.4268986999814,,,,,,,,,,,,,,,,,,,,,,,,,,,,,,745.4102563999768,745.4268986999814,745.9117610999965,,,,,,,,,,,,,,,,,,,,,,,745.9362474999798,745.9617815999954,745.9617815999954,745.9617815999954,748.9224417999794,j,2.0382290999987163,0.11150099997757934,748.9224838999799,748.9224959999847,None,,,,,,,,,,,,,,,00036,001,2026-01-16_15h17.10.885,MST_task,2024.2.0,59.44105201797553,2026-01-16 15h17.29.343903 +0530,
,Scenes\136a.jpg,159,0,160,,,,,,,f,1.9758106999797747,0.12806149999960326,None,,,,,,160,0,159,748.9389145999739,,,,,,,,,,,,,,,,,,,,,,,,,,,,,,748.9225970999978,748.9389145999739,749.4240974999848,,,,,,,,,,,,,,,,,,,,,,,749.447525399999,749.4569469999988,749.4569469999988,749.4569469999988,752.434485899983,f,1.9758106999797747,0.12806149999960326,752.4345308999764,752.434543499985,None,,,,,,,,,,,,,,,00036,001,2026-01-16_15h17.10.885,MST_task,2024.2.0,59.44105201797553,2026-01-16 15h17.29.343903 +0530,
,Scenes\022a.jpg,160,0,161,,,,,,,j,1.701428100001067,0.1441684999736026,None,,,,,,161,0,160,752.4513251999742,,,,,,,,,,,,,,,,,,,,,,,,,,,,,,752.4350541999738,752.4513251999742,752.9363167999836,,,,,,,,,,,,,,,,,,,,,,,752.9554615999805,752.970757299976,752.970757299976,752.970757299976,755.9467868999927,j,1.701428100001067,0.1441684999736026,755.9468300999724,755.9468420999765,None,,,,,,,,,,,,,,,00036,001,2026-01-16_15h17.10.885,MST_task,2024.2.0,59.44105201797553,2026-01-16 15h17.29.343903 +0530,
,Objects\140a.jpg,161,0,162,,,,,,,f,1.7974272999854293,0.11335150001104921,None,,,,,,162,0,161,755.9636382999888,,,,,,,,,,,,,,,,,,,,,,,,,,,,,,755.9472466999723,755.9636382999888,756.4487226999772,,,,,,,,,,,,,,,,,,,,,,,756.4744235999824,756.4825533999829,756.4825533999829,756.4825533999829,759.4592656999885,f,1.7974272999854293,0.11335150001104921,759.460689199972,759.4607088999765,None,,,,,,,,,,,,,,,00036,001,2026-01-16_15h17.10.885,MST_task,2024.2.0,59.44105201797553,2026-01-16 15h17.29.343903 +0530,
,Objects\104a.jpg,162,0,163,,,,,,,f,0.5970975999953225,0.15259760001208633,None,,,,,,163,0,162,759.476222999976,,,,,,,,,,,,,,,,,,,,,,,,,,,,,,759.4607893999782,759.476222999976,759.961201099999,,,,,,,,,,,,,,,,,,,,,,,759.9834446999885,759.9945400999859,759.9945400999859,759.9945400999859,762.9716762999888,f,0.5970975999953225,0.15259760001208633,762.9717185999907,762.9717309999978,None,,,,,,,,,,,,,,,00036,001,2026-01-16_15h17.10.885,MST_task,2024.2.0,59.44105201797553,2026-01-16 15h17.29.343903 +0530,
,Objects\191a.jpg,163,0,164,,,,,,,f,0.6697816000087187,0.1282356999872718,None,,,,,,164,0,163,762.9882821999781,,,,,,,,,,,,,,,,,,,,,,,,,,,,,,762.9718358999817,762.9882821999781,763.4734522999788,,,,,,,,,,,,,,,,,,,,,,,763.4958490999998,763.5066248999792,763.5066248999792,763.5066248999792,766.4838465999928,f,0.6697816000087187,0.1282356999872718,766.4839017999766,766.4839138999814,None,,,,,,,,,,,,,,,00036,001,2026-01-16_15h17.10.885,MST_task,2024.2.0,59.44105201797553,2026-01-16 15h17.29.343903 +0530,
,Objects\166a.jpg,164,0,165,,,,,,,f,0.7085197999840602,0.13616460000048392,None,,,,,,165,0,164,766.5006840999995,,,,,,,,,,,,,,,,,,,,,,,,,,,,,,766.4840194999997,766.5006840999995,766.9856546999945,,,,,,,,,,,,,,,,,,,,,,,767.0092401999864,767.0194424999936,767.0194424999936,767.0194424999936,769.9962318999751,f,0.7085197999840602,0.13616460000048392,769.9962740999763,769.9962867999857,None,,,,,,,,,,,,,,,00036,001,2026-01-16_15h17.10.885,MST_task,2024.2.0,59.44105201797553,2026-01-16 15h17.29.343903 +0530,
,Objects\088a.jpg,165,0,166,,,,,,,j,1.101697099977173,0.15873029999784194,None,,,,,,166,0,165,770.0126942999777,,,,,,,,,,,,,,,,,,,,,,,,,,,,,,769.9964032999997,770.0126942999777,770.4979181999806,,,,,,,,,,,,,,,,,,,,,,,770.5206417999871,770.5312554999837,770.5312554999837,770.5312554999837,773.5090133999765,j,1.101697099977173,0.15873029999784194,773.5090597999806,773.5090730999946,None,,,,,,,,,,,,,,,00036,001,2026-01-16_15h17.10.885,MST_task,2024.2.0,59.44105201797553,2026-01-16 15h17.29.343903 +0530,
,Objects\145a.jpg,166,0,167,,,,,,,f,0.9399736999766901,0.13640200000372715,None,,,,,,167,0,166,773.5251387999742,,,,,,,,,,,,,,,,,,,,,,,,,,,,,,773.5091773999739,773.5251387999742,774.0102749999787,,,,,,,,,,,,,,,,,,,,,,,774.0323902999808,774.0437340999779,774.0437340999779,774.0437340999779,777.020710199984,f,0.9399736999766901,0.13640200000372715,777.020755799982,777.0207677999861,None,,,,,,,,,,,,,,,00036,001,2026-01-16_15h17.10.885,MST_task,2024.2.0,59.44105201797553,2026-01-16 15h17.29.343903 +0530,
,Objects\130a.jpg,167,0,168,,,,,,,f,1.0925150999973994,0.15172120000352152,None,,,,,,168,0,167,777.037312099972,,,,,,,,,,,,,,,,,,,,,,,,,,,,,,777.020873499976,777.037312099972,777.522499099985,,,,,,,,,,,,,,,,,,,,,,,777.5454029999964,777.5557353999757,777.5557353999757,777.5557353999757,780.5328899999731,f,1.0925150999973994,0.15172120000352152,780.5329321999743,780.5329441999784,None,,,,,,,,,,,,,,,00036,001,2026-01-16_15h17.10.885,MST_task,2024.2.0,59.44105201797553,2026-01-16 15h17.29.343903 +0530,
,Scenes\170a.jpg,168,0,169,,,,,,,j,0.6424553999968339,0.13602480001281947,None,,,,,,169,0,168,780.5497103999951,,,,,,,,,,,,,,,,,,,,,,,,,,,,,,780.5330137999845,780.5497103999951,781.0346925999911,,,,,,,,,,,,,,,,,,,,,,,781.0637812999776,781.0857724999951,781.0857724999951,781.0857724999951,784.0451674999786,j,0.6424553999968339,0.13602480001281947,784.0466308999748,784.0466531999991,None,,,,,,,,,,,,,,,00036,001,2026-01-16_15h17.10.885,MST_task,2024.2.0,59.44105201797553,2026-01-16 15h17.29.343903 +0530,
,Scenes\101a.jpg,169,0,170,,,,,,,j,1.6761195000144653,0.1358221999835223,None,,,,,,170,0,169,784.0620097999927,,,,,,,,,,,,,,,,,,,,,,,,,,,,,,784.0467354999855,784.0620097999927,784.5471010999754,,,,,,,,,,,,,,,,,,,,,,,784.5716052999778,784.5971865999745,784.5971865999745,784.5971865999745,787.5576040999731,j,1.6761195000144653,0.1358221999835223,787.557647699985,787.5576599999913,None,,,,,,,,,,,,,,,00036,001,2026-01-16_15h17.10.885,MST_task,2024.2.0,59.44105201797553,2026-01-16 15h17.29.343903 +0530,
,Scenes\173a.jpg,170,0,171,,,,,,,j,0.7481673000147566,0.12802839998039417,None,,,,,,171,0,170,787.5743250999949,,,,,,,,,,,,,,,,,,,,,,,,,,,,,,787.5577314999828,787.5743250999949,788.0593404999818,,,,,,,,,,,,,,,,,,,,,,,788.0828424999781,788.0921614999825,788.0921614999825,788.0921614999825,791.0700288999942,j,0.7481673000147566,0.12802839998039417,791.0700805999804,791.0700926999853,None,,,,,,,,,,,,,,,00036,001,2026-01-16_15h17.10.885,MST_task,2024.2.0,59.44105201797553,2026-01-16 15h17.29.343903 +0530,
,Scenes\013a.jpg,171,0,172,,,,,,,j,2.649727599986363,0.14420350000727922,None,,,,,,172,0,171,791.0868456999888,,,,,,,,,,,,,,,,,,,,,,,,,,,,,,791.0701614999853,791.0868456999888,791.5718313999823,,,,,,,,,,,,,,,,,,,,,,,791.5979935999785,791.6222797999799,791.6222797999799,791.6222797999799,794.5827748999873,j,2.649727599986363,0.14420350000727922,794.5828279999841,794.5828407999943,None,,,,,,,,,,,,,,,00036,001,2026-01-16_15h17.10.885,MST_task,2024.2.0,59.44105201797553,2026-01-16 15h17.29.343903 +0530,
,Scenes\127a.jpg,172,0,173,,,,,,,j,2.552670599980047,0.11253000001306646,None,,,,,,173,0,172,794.5989651999844,,,,,,,,,,,,,,,,,,,,,,,,,,,,,,794.5829574999807,794.5989651999844,795.0841548999888,,,,,,,,,,,,,,,,,,,,,,,795.1094256999786,795.1349574999767,795.1349574999767,795.1349574999767,798.0943853999779,j,2.552670599980047,0.11253000001306646,798.094428499986,798.0944411999953,None,,,,,,,,,,,,,,,00036,001,2026-01-16_15h17.10.885,MST_task,2024.2.0,59.44105201797553,2026-01-16 15h17.29.343903 +0530,
,Scenes\192a.jpg,173,0,174,,,,,,,j,0.7468840999936219,0.11159570000017993,None,,,,,,174,0,173,798.1113042999932,,,,,,,,,,,,,,,,,,,,,,,,,,,,,,798.0945715999987,798.1113042999932,798.5961686999945,,,,,,,,,,,,,,,,,,,,,,,798.6197365999979,798.6292258999893,798.6292258999893,798.6292258999893,801.6074785999954,j,0.7468840999936219,0.11159570000017993,801.6075306999846,801.6075449999771,None,,,,,,,,,,,,,,,00036,001,2026-01-16_15h17.10.885,MST_task,2024.2.0,59.44105201797553,2026-01-16 15h17.29.343903 +0530,
,Scenes\005a.jpg,174,0,175,,,,,,,f,0.6578696999931708,0.12792289999197237,None,,,,,,175,0,174,801.6237555999833,,,,,,,,,,,,,,,,,,,,,,,,,,,,,,801.6076248999743,801.6237555999833,802.1086779999896,,,,,,,,,,,,,,,,,,,,,,,802.135237999988,802.1586963999725,802.1586963999725,802.1586963999725,805.1194412999903,f,0.6578696999931708,0.12792289999197237,805.1194957999978,805.1195088999812,None,,,,,,,,,,,,,,,00036,001,2026-01-16_15h17.10.885,MST_task,2024.2.0,59.44105201797553,2026-01-16 15h17.29.343903 +0530,
,Objects\150a.jpg,175,0,176,,,,,,,f,1.9216128999833018,0.18399049999425188,None,,,,,,176,0,175,805.1362190999789,,,,,,,,,,,,,,,,,,,,,,,,,,,,,,805.1195900999883,805.1362190999789,805.6207773999777,,,,,,,,,,,,,,,,,,,,,,,805.6460337999742,805.6548981999804,805.6548981999804,805.6548981999804,808.6312681999989,f,1.9216128999833018,0.18399049999425188,808.6328843999945,808.6329024999868,None,,,,,,,,,,,,,,,00036,001,2026-01-16_15h17.10.885,MST_task,2024.2.0,59.44105201797553,2026-01-16 15h17.29.343903 +0530,
,Objects\089a.jpg,176,0,177,,,,,,,f,2.073514099989552,0.12832849999540485,None,,,,,,177,0,176,808.6481096999778,,,,,,,,,,,,,,,,,,,,,,,,,,,,,,808.6329860999831,808.6481096999778,809.1330766999745,,,,,,,,,,,,,,,,,,,,,,,809.1553595999721,809.1665460999939,809.1665460999939,809.1665460999939,812.1436777999916,f,2.073514099989552,0.12832849999540485,812.1438857999747,812.143903499993,None,,,,,,,,,,,,,,,00036,001,2026-01-16_15h17.10.885,MST_task,2024.2.0,59.44105201797553,2026-01-16 15h17.29.343903 +0530,
,Objects\096a.jpg,177,0,178,,,,,,,f,1.6248833000136074,0.16928139998344705,None,,,,,,178,0,177,812.1605098999862,,,,,,,,,,,,,,,,,,,,,,,,,,,,,,812.144012099976,812.1605098999862,812.6453804999765,,,,,,,,,,,,,,,,,,,,,,,812.667598,812.6788407999848,812.6788407999848,812.6788407999848,815.6559894999955,f,1.6248833000136074,0.16928139998344705,815.6562029999914,815.6562177999876,None,,,,,,,,,,,,,,,00036,001,2026-01-16_15h17.10.885,MST_task,2024.2.0,59.44105201797553,2026-01-16 15h17.29.343903 +0530,
,Objects\187a.jpg,178,0,179,,,,,,,f,0.9445521000016015,0.14425130002200603,None,,,,,,179,0,178,815.6725822999724,,,,,,,,,,,,,,,,,,,,,,,,,,,,,,815.6562962999742,815.6725822999724,816.1577699999907,,,,,,,,,,,,,,,,,,,,,,,816.1804796999786,816.191221599991,816.191221599991,816.191221599991,819.1682053999975,f,0.9445521000016015,0.14425130002200603,819.1682489999803,819.1682617999904,None,,,,,,,,,,,,,,,00036,001,2026-01-16_15h17.10.885,MST_task,2024.2.0,59.44105201797553,2026-01-16 15h17.29.343903 +0530,
,Objects\112a.jpg,179,0,180,,,,,,,f,0.9927937999891583,0.14505190000636503,None,,,,,,180,0,179,819.1854973999725,,,,,,,,,,,,,,,,,,,,,,,,,,,,,,819.1683982999821,819.1854973999725,819.6700904999743,,,,,,,,,,,,,,,,,,,,,,,819.692498999997,819.7033269999956,819.7033269999956,819.7033269999956,822.680467499973,f,0.9927937999891583,0.14505190000636503,822.6805090999987,822.6805208000005,None,,,,,,,,,,,,,,,00036,001,2026-01-16_15h17.10.885,MST_task,2024.2.0,59.44105201797553,2026-01-16 15h17.29.343903 +0530,
