thisN,thisTrialN,thisRepN,key_resp_3.keys,key_resp_3.rt,key_resp_3.duration,trials.thisRepN,trials.thisTrialN,trials.thisN,thisRow.t,notes,intro_page.started,text.started,key_resp.started,intro_page.stopped,key_resp.keys,key_resp.rt,key_resp.duration,instructions.started,text_2.started,key_resp_2.started,instructions.stopped,key_resp_2.keys,key_resp_2.rt,key_resp_2.duration,demo1.started,image_1.started,image_2.started,text_7.started,key_resp_6.started,text_9.started,demo1.stopped,key_resp_6.keys,key_resp_6.rt,key_resp_6.duration,demo2.started,image_5.started,image_6.started,text_11.started,text_12.started,key_resp_8.started,demo2.stopped,key_resp_8.keys,key_resp_8.rt,key_resp_8.duration,demo_conclusion.started,text_13.started,key_resp_9.started,demo_conclusion.stopped,key_resp_9.keys,key_resp_9.rt,key_resp_9.duration,start_test.started,text_6.started,key_resp_5.started,start_test.stopped,key_resp_5.keys,key_resp_5.rt,key_resp_5.duration,ISI.started,text_4.started,ISI.stopped,routine_1.started,image.started,text_3.started,key_resp_3.started,routine_1.stopped,image_path,position_of_stimuli,trials.key_resp_3.keys,trials.key_resp_3.rt,trials.key_resp_3.duration,End_page.started,text_5.started,key_resp_4.started,End_page.stopped,key_resp_4.keys,key_resp_4.rt,key_resp_4.duration,participant,session,date,expName,psychopyVersion,frameRate,expStart,
,,,,,,,,,,,0.012858200003392994,0.0293950000195764,0.0293950000195764,3.445252300007269,space,3.4092462999979034,None,,,,,,,,,,,,,,,,,,,,,,,,,,,,,,,,,,,,,,,,,,,,,,,,,,,,,,,,,,,,,,00036,001,2026-01-16_15h43.24.043,MST_test,2024.2.0,59.74536526181681,2026-01-16 15h43.48.039213 +0530,
,,,,,,,,,,,,,,,,,,3.4452860000019427,3.4761098000162747,3.4761098000162747,15.770413199992618,space,12.291112500010058,None,,,,,,,,,,,,,,,,,,,,,,,,,,,,,,,,,,,,,,,,,,,,,,,,,,,,,,,00036,001,2026-01-16_15h43.24.043,MST_test,2024.2.0,59.74536526181681,2026-01-16 15h43.48.039213 +0530,
,,,,,,,,,,,,,,,,,,,,,,,,,15.770445300004212,15.78633980001905,15.78633980001905,15.78633980001905,15.78633980001905,15.78633980001905,22.32607919999282,space,6.524946099991212,None,,,,,,,,,,,,,,,,,,,,,,,,,,,,,,,,,,,,,,,,,,,,,00036,001,2026-01-16_15h43.24.043,MST_test,2024.2.0,59.74536526181681,2026-01-16 15h43.48.039213 +0530,
,,,,,,,,,,,,,,,,,,,,,,,,,,,,,,,,,,,22.32610940001905,22.342401500005508,22.342401500005508,22.342401500005508,22.342401500005508,22.342401500005508,27.644948900007876,space,5.296570600010455,None,,,,,,,,,,,,,,,,,,,,,,,,,,,,,,,,,,,00036,001,2026-01-16_15h43.24.043,MST_test,2024.2.0,59.74536526181681,2026-01-16 15h43.48.039213 +0530,
,,,,,,,,,,,,,,,,,,,,,,,,,,,,,,,,,,,,,,,,,,,,,27.64497900000424,27.660905299999285,27.660905299999285,96.63700370001607,space,68.96230810001725,None,,,,,,,,,,,,,,,,,,,,,,,,,,,,00036,001,2026-01-16_15h43.24.043,MST_test,2024.2.0,59.74536526181681,2026-01-16 15h43.48.039213 +0530,
,,,,,,,,,,,,,,,,,,,,,,,,,,,,,,,,,,,,,,,,,,,,,,,,,,,,96.63704170001438,96.65298860002076,96.65298860002076,105.5846964000084,space,8.921851699997205,None,,,,,,,,,,,,,,,,,,,,,00036,001,2026-01-16_15h43.24.043,MST_test,2024.2.0,59.74536526181681,2026-01-16 15h43.48.039213 +0530,
0,0,1,n,2.2540348999900743,None,1,0,0,105.60094800000661,,,,,,,,,,,,,,,,,,,,,,,,,,,,,,,,,,,,,,,,,,,,,,,,,,105.58824929999537,105.60094800000661,106.0858705000137,106.10962590001873,106.12045020001824,106.12045020001824,106.12045020001824,108.37776480001048,Foils\057a.jpg,none,n,2.2540348999900743,None,,,,,,,,00036,001,2026-01-16_15h43.24.043,MST_test,2024.2.0,59.74536526181681,2026-01-16 15h43.48.039213 +0530,
1,0,2,n,2.5504454000038095,None,2,0,1,108.39383350001299,,,,,,,,,,,,,,,,,,,,,,,,,,,,,,,,,,,,,,,,,,,,,,,,,,108.3778622999962,108.39383350001299,108.8791624000005,108.89515460000257,108.9130597000185,108.9130597000185,108.9130597000185,111.47225520000211,Foils\scenes20.jpg,none,n,2.5504454000038095,None,,,,,,,,00036,001,2026-01-16_15h43.24.043,MST_test,2024.2.0,59.74536526181681,2026-01-16 15h43.48.039213 +0530,
2,0,3,s,2.695567899994785,None,3,0,2,111.48799970000982,,,,,,,,,,,,,,,,,,,,,,,,,,,,,,,,,,,,,,,,,,,,,,,,,,111.47234790000948,111.48799970000982,111.97331100000883,111.98727199999848,112.00736740001594,112.00736740001594,112.00736740001594,114.71634860002086,Scenes\186a.jpg,post,s,2.695567899994785,None,,,,,,,,00036,001,2026-01-16_15h43.24.043,MST_test,2024.2.0,59.74536526181681,2026-01-16 15h43.48.039213 +0530,
3,0,4,o,2.91474060001201,None,4,0,3,114.73258189999615,,,,,,,,,,,,,,,,,,,,,,,,,,,,,,,,,,,,,,,,,,,,,,,,,,114.71643990001758,114.73258189999615,115.21746610000264,115.23578710001311,115.2519847000076,115.2519847000076,115.2519847000076,118.17842870001914,Scenes\100a.jpg,post,o,2.91474060001201,None,,,,,,,,00036,001,2026-01-16_15h43.24.043,MST_test,2024.2.0,59.74536526181681,2026-01-16 15h43.48.039213 +0530,
4,0,5,s,2.2531122000073083,None,5,0,4,118.19464580001659,,,,,,,,,,,,,,,,,,,,,,,,,,,,,,,,,,,,,,,,,,,,,,,,,,118.1785283999925,118.19464580001659,118.6795834999939,118.70530480000889,118.71387480001431,118.71387480001431,118.71387480001431,120.97186980000697,Foils\105a.jpg,none,s,2.2531122000073083,None,,,,,,,,00036,001,2026-01-16_15h43.24.043,MST_test,2024.2.0,59.74536526181681,2026-01-16 15h43.48.039213 +0530,
5,0,6,s,2.4206656999886036,None,6,0,5,120.98766460001934,,,,,,,,,,,,,,,,,,,,,,,,,,,,,,,,,,,,,,,,,,,,,,,,,,120.97197280000546,120.98766460001934,121.4728477000026,121.48897970002145,121.50606960000005,121.50606960000005,121.50606960000005,123.93204040001729,Scenes\121a.jpg,pre,s,2.4206656999886036,None,,,,,,,,00036,001,2026-01-16_15h43.24.043,MST_test,2024.2.0,59.74536526181681,2026-01-16 15h43.48.039213 +0530,
6,0,7,s,3.6120223999896552,None,7,0,6,123.94799790001707,,,,,,,,,,,,,,,,,,,,,,,,,,,,,,,,,,,,,,,,,,,,,,,,,,123.93213709999691,123.94799790001707,124.43318829999771,124.45625109999673,124.46654910000507,124.46654910000507,124.46654910000507,128.08028449999983,Objects\129b.jpg,mid,s,3.6120223999896552,None,,,,,,,,00036,001,2026-01-16_15h43.24.043,MST_test,2024.2.0,59.74536526181681,2026-01-16 15h43.48.039213 +0530,
7,0,8,s,1.408452000003308,None,8,0,7,128.0958515999955,,,,,,,,,,,,,,,,,,,,,,,,,,,,,,,,,,,,,,,,,,,,,,,,,,128.0803819000139,128.0958515999955,128.5810551000177,128.59564060001867,128.6142908000038,128.6142908000038,128.6142908000038,130.03660220000893,Objects\130a.jpg,pre,s,1.408452000003308,None,,,,,,,,00036,001,2026-01-16_15h43.24.043,MST_test,2024.2.0,59.74536526181681,2026-01-16 15h43.48.039213 +0530,
8,0,9,s,1.8985626999929082,None,9,0,8,130.0529199000157,,,,,,,,,,,,,,,,,,,,,,,,,,,,,,,,,,,,,,,,,,,,,,,,,,130.03669870001613,130.0529199000157,130.53790480000316,130.55662550000125,130.57205670000985,130.57205670000985,130.57205670000985,132.4785177000158,Foils\scenes13.jpg,none,s,1.8985626999929082,None,,,,,,,,00036,001,2026-01-16_15h43.24.043,MST_test,2024.2.0,59.74536526181681,2026-01-16 15h43.48.039213 +0530,
9,0,10,o,1.7859252000052948,None,10,0,9,132.4947026000009,,,,,,,,,,,,,,,,,,,,,,,,,,,,,,,,,,,,,,,,,,,,,,,,,,132.47861170000397,132.4947026000009,132.97967689999496,133.00113700001384,133.01305450001382,133.01305450001382,133.01305450001382,134.80347549999715,Objects\021b.jpg,pre,o,1.7859252000052948,None,,,,,,,,00036,001,2026-01-16_15h43.24.043,MST_test,2024.2.0,59.74536526181681,2026-01-16 15h43.48.039213 +0530,
10,0,11,n,0.9970293000224046,None,11,0,10,134.81939129999955,,,,,,,,,,,,,,,,,,,,,,,,,,,,,,,,,,,,,,,,,,,,,,,,,,134.80356890000985,134.81939129999955,135.30478190002032,135.31891679999535,135.33783780000522,135.33783780000522,135.33783780000522,136.34236959999544,Objects\110a.jpg,mid,n,0.9970293000224046,None,,,,,,,,00036,001,2026-01-16_15h43.24.043,MST_test,2024.2.0,59.74536526181681,2026-01-16 15h43.48.039213 +0530,
11,0,12,s,1.7058224999927916,None,12,0,11,136.35873430001084,,,,,,,,,,,,,,,,,,,,,,,,,,,,,,,,,,,,,,,,,,,,,,,,,,136.34246650000568,136.35873430001084,136.84339280001586,136.86738040001364,136.8766811999958,136.8766811999958,136.8766811999958,138.58372890000464,Objects\150b.jpg,post,s,1.7058224999927916,None,,,,,,,,00036,001,2026-01-16_15h43.24.043,MST_test,2024.2.0,59.74536526181681,2026-01-16 15h43.48.039213 +0530,
12,0,13,o,1.4644044000015128,None,13,0,12,138.5993107999966,,,,,,,,,,,,,,,,,,,,,,,,,,,,,,,,,,,,,,,,,,,,,,,,,,138.58382180001354,138.5993107999966,139.0845188999956,139.1022762999928,139.11850890002097,139.11850890002097,139.11850890002097,140.59026359999552,Scenes\104a.jpg,post,o,1.4644044000015128,None,,,,,,,,00036,001,2026-01-16_15h43.24.043,MST_test,2024.2.0,59.74536526181681,2026-01-16 15h43.48.039213 +0530,
13,0,14,o,3.8579923000070266,None,14,0,13,140.60644689999754,,,,,,,,,,,,,,,,,,,,,,,,,,,,,,,,,,,,,,,,,,,,,,,,,,140.59036140001263,140.60644689999754,141.09143100000801,141.11469190000207,141.12477590001072,141.12477590001072,141.12477590001072,144.98910120001528,Objects\033b.jpg,post,o,3.8579923000070266,None,,,,,,,,00036,001,2026-01-16_15h43.24.043,MST_test,2024.2.0,59.74536526181681,2026-01-16 15h43.48.039213 +0530,
14,0,15,o,2.8116497000155505,None,15,0,14,145.00521890001255,,,,,,,,,,,,,,,,,,,,,,,,,,,,,,,,,,,,,,,,,,,,,,,,,,144.98919900000328,145.00521890001255,145.49129710000125,145.51424190000398,145.52367429999867,145.52367429999867,145.52367429999867,148.35068010000396,Objects\009b.jpg,post,o,2.8116497000155505,None,,,,,,,,00036,001,2026-01-16_15h43.24.043,MST_test,2024.2.0,59.74536526181681,2026-01-16 15h43.48.039213 +0530,
15,0,16,s,1.4974738000018988,None,16,0,15,148.36683390001417,,,,,,,,,,,,,,,,,,,,,,,,,,,,,,,,,,,,,,,,,,,,,,,,,,148.35077819999424,148.36683390001417,148.8522093000065,148.86912810002104,148.88527240001713,148.88527240001713,148.88527240001713,150.39108170001418,Scenes\149a.jpg,post,s,1.4974738000018988,None,,,,,,,,00036,001,2026-01-16_15h43.24.043,MST_test,2024.2.0,59.74536526181681,2026-01-16 15h43.48.039213 +0530,
16,0,17,s,1.377058299985947,None,17,0,16,150.4076127000153,,,,,,,,,,,,,,,,,,,,,,,,,,,,,,,,,,,,,,,,,,,,,,,,,,150.3911766000092,150.4076127000153,150.89257379999617,150.9073126000003,150.92592890001833,150.92592890001833,150.92592890001833,152.3148839000205,Objects\140a.jpg,post,s,1.377058299985947,None,,,,,,,,00036,001,2026-01-16_15h43.24.043,MST_test,2024.2.0,59.74536526181681,2026-01-16 15h43.48.039213 +0530,
17,0,18,n,1.1497000999806914,None,18,0,17,152.33081090002088,,,,,,,,,,,,,,,,,,,,,,,,,,,,,,,,,,,,,,,,,,,,,,,,,,152.31498860000283,152.33081090002088,152.81649920000928,152.83896880000248,152.84969420000562,152.84969420000562,152.84969420000562,154.00386440000148,Objects\131b.jpg,post,n,1.1497000999806914,None,,,,,,,,00036,001,2026-01-16_15h43.24.043,MST_test,2024.2.0,59.74536526181681,2026-01-16 15h43.48.039213 +0530,
18,0,19,o,1.3719603999925312,None,19,0,18,154.020265500003,,,,,,,,,,,,,,,,,,,,,,,,,,,,,,,,,,,,,,,,,,,,,,,,,,154.0039691000129,154.020265500003,154.5051567000046,154.51957130001392,154.53852030000417,154.53852030000417,154.53852030000417,155.92729210000834,Objects\025a.jpg,pre,o,1.3719603999925312,None,,,,,,,,00036,001,2026-01-16_15h43.24.043,MST_test,2024.2.0,59.74536526181681,2026-01-16 15h43.48.039213 +0530,
19,0,20,o,2.0881485999852885,None,20,0,19,155.94362370000454,,,,,,,,,,,,,,,,,,,,,,,,,,,,,,,,,,,,,,,,,,,,,,,,,,155.9273902999994,155.94362370000454,156.42844089999562,156.45101210000576,156.46274330001324,156.46274330001324,156.46274330001324,158.55317480000667,Scenes\191b.jpg,post,o,2.0881485999852885,None,,,,,,,,00036,001,2026-01-16_15h43.24.043,MST_test,2024.2.0,59.74536526181681,2026-01-16 15h43.48.039213 +0530,
20,0,21,o,1.0776914000161923,None,21,0,20,158.56935000000522,,,,,,,,,,,,,,,,,,,,,,,,,,,,,,,,,,,,,,,,,,,,,,,,,,158.55327730000135,158.56935000000522,159.0543209000025,159.07383760000812,159.08844570000656,159.08844570000656,159.08844570000656,160.1754009000142,Scenes\122a.jpg,pre,o,1.0776914000161923,None,,,,,,,,00036,001,2026-01-16_15h43.24.043,MST_test,2024.2.0,59.74536526181681,2026-01-16 15h43.48.039213 +0530,
21,0,22,s,1.4631718999880832,None,22,0,21,160.1915610000142,,,,,,,,,,,,,,,,,,,,,,,,,,,,,,,,,,,,,,,,,,,,,,,,,,160.17550670000492,160.1915610000142,160.67678219999652,160.69715340001858,160.7113551000075,160.7113551000075,160.7113551000075,162.1826973000134,Foils\scenes6.jpg,none,s,1.4631718999880832,None,,,,,,,,00036,001,2026-01-16_15h43.24.043,MST_test,2024.2.0,59.74536526181681,2026-01-16 15h43.48.039213 +0530,
22,0,23,s,1.5519116999930702,None,23,0,22,162.19861479999963,,,,,,,,,,,,,,,,,,,,,,,,,,,,,,,,,,,,,,,,,,,,,,,,,,162.18279000002076,162.19861479999963,162.68369370000437,162.71550510000088,162.7346503000008,162.7346503000008,162.7346503000008,164.2899044000078,Scenes\025b.jpg,mid,s,1.5519116999930702,None,,,,,,,,00036,001,2026-01-16_15h43.24.043,MST_test,2024.2.0,59.74536526181681,2026-01-16 15h43.48.039213 +0530,
23,0,24,o,1.1413605000125244,None,24,0,23,164.30610909999814,,,,,,,,,,,,,,,,,,,,,,,,,,,,,,,,,,,,,,,,,,,,,,,,,,164.2900030000019,164.30610909999814,164.79113170001074,164.81617150001694,164.825304900005,164.825304900005,164.825304900005,165.98010440001963,Objects\167b.jpg,post,o,1.1413605000125244,None,,,,,,,,00036,001,2026-01-16_15h43.24.043,MST_test,2024.2.0,59.74536526181681,2026-01-16 15h43.48.039213 +0530,
24,0,25,o,1.8800025999953505,None,25,0,24,165.99578910000855,,,,,,,,,,,,,,,,,,,,,,,,,,,,,,,,,,,,,,,,,,,,,,,,,,165.9802084999974,165.99578910000855,166.4812470000179,166.49616579999565,166.51423270002124,166.51423270002124,166.51423270002124,168.40438439999707,Objects\148a.jpg,mid,o,1.8800025999953505,None,,,,,,,,00036,001,2026-01-16_15h43.24.043,MST_test,2024.2.0,59.74536526181681,2026-01-16 15h43.48.039213 +0530,
25,0,26,o,1.0424292999960016,None,26,0,25,168.4208925999992,,,,,,,,,,,,,,,,,,,,,,,,,,,,,,,,,,,,,,,,,,,,,,,,,,168.40450629999395,168.4208925999992,168.90565369999968,168.93441839999286,168.95723580001504,168.95723580001504,168.95723580001504,170.00977550001699,Scenes\119b.jpg,post,o,1.0424292999960016,None,,,,,,,,00036,001,2026-01-16_15h43.24.043,MST_test,2024.2.0,59.74536526181681,2026-01-16 15h43.48.039213 +0530,
26,0,27,o,0.8940454999974463,None,27,0,26,170.0262619999994,,,,,,,,,,,,,,,,,,,,,,,,,,,,,,,,,,,,,,,,,,,,,,,,,,170.00987629999872,170.0262619999994,170.5112820000213,170.52533600002062,170.54469750000862,170.54469750000862,170.54469750000862,171.44825410001795,Objects\040a.jpg,pre,o,0.8940454999974463,None,,,,,,,,00036,001,2026-01-16_15h43.24.043,MST_test,2024.2.0,59.74536526181681,2026-01-16 15h43.48.039213 +0530,
27,0,28,o,0.6634842000203207,None,28,0,27,171.4643832000147,,,,,,,,,,,,,,,,,,,,,,,,,,,,,,,,,,,,,,,,,,,,,,,,,,171.44835000002058,171.4643832000147,171.94947630001116,171.97324220000883,171.98295740000322,171.98295740000322,171.98295740000322,172.65264630000456,Objects\180b.jpg,pre,o,0.6634842000203207,None,,,,,,,,00036,001,2026-01-16_15h43.24.043,MST_test,2024.2.0,59.74536526181681,2026-01-16 15h43.48.039213 +0530,
28,0,29,n,2.091410099994391,None,29,0,28,172.66871600001468,,,,,,,,,,,,,,,,,,,,,,,,,,,,,,,,,,,,,,,,,,,,,,,,,,172.65273850000813,172.66871600001468,173.15398530001403,173.1673085000075,173.18703940001433,173.18703940001433,173.18703940001433,175.2952163000009,Scenes\073a.jpg,mid,n,2.091410099994391,None,,,,,,,,00036,001,2026-01-16_15h43.24.043,MST_test,2024.2.0,59.74536526181681,2026-01-16 15h43.48.039213 +0530,
29,0,30,s,1.3514622999937274,None,30,0,29,175.31130430000485,,,,,,,,,,,,,,,,,,,,,,,,,,,,,,,,,,,,,,,,,,,,,,,,,,175.29531169999973,175.31130430000485,175.79645419999724,175.8322320000152,175.84725900000194,175.84725900000194,175.84725900000194,177.20180830001482,Scenes\018b.jpg,pre,s,1.3514622999937274,None,,,,,,,,00036,001,2026-01-16_15h43.24.043,MST_test,2024.2.0,59.74536526181681,2026-01-16 15h43.48.039213 +0530,
30,0,31,o,3.76592599999276,None,31,0,30,177.21802359999856,,,,,,,,,,,,,,,,,,,,,,,,,,,,,,,,,,,,,,,,,,,,,,,,,,177.20191269999486,177.21802359999856,177.7030708999955,177.72205880002002,177.73630310001317,177.73630310001317,177.73630310001317,181.51691950001987,Scenes\086a.jpg,pre,o,3.76592599999276,None,,,,,,,,00036,001,2026-01-16_15h43.24.043,MST_test,2024.2.0,59.74536526181681,2026-01-16 15h43.48.039213 +0530,
31,0,32,o,0.9131603999994695,None,32,0,31,181.53310770000098,,,,,,,,,,,,,,,,,,,,,,,,,,,,,,,,,,,,,,,,,,,,,,,,,,181.51701790001243,181.53310770000098,182.01863740000408,182.04316040000413,182.0692718999926,182.0692718999926,182.0692718999926,182.98871090001194,Scenes\005b.jpg,pre,o,0.9131603999994695,None,,,,,,,,00036,001,2026-01-16_15h43.24.043,MST_test,2024.2.0,59.74536526181681,2026-01-16 15h43.48.039213 +0530,
32,0,33,o,0.8671975999895949,None,33,0,32,183.00489890002063,,,,,,,,,,,,,,,,,,,,,,,,,,,,,,,,,,,,,,,,,,,,,,,,,,182.98880859999917,183.00489890002063,183.48999600001844,183.5091949000198,183.52414829999907,183.52414829999907,183.52414829999907,184.39379540001391,Scenes\066a.jpg,mid,o,0.8671975999895949,None,,,,,,,,00036,001,2026-01-16_15h43.24.043,MST_test,2024.2.0,59.74536526181681,2026-01-16 15h43.48.039213 +0530,
33,0,34,o,0.6537733000004664,None,34,0,33,184.40972710002097,,,,,,,,,,,,,,,,,,,,,,,,,,,,,,,,,,,,,,,,,,,,,,,,,,184.3938882999937,184.40972710002097,184.89497220001067,184.90826799999923,184.92917270000908,184.92917270000908,184.92917270000908,185.59789750000346,Scenes\039a.jpg,post,o,0.6537733000004664,None,,,,,,,,00036,001,2026-01-16_15h43.24.043,MST_test,2024.2.0,59.74536526181681,2026-01-16 15h43.48.039213 +0530,
34,0,35,s,1.7781038000248373,None,35,0,34,185.61392170001636,,,,,,,,,,,,,,,,,,,,,,,,,,,,,,,,,,,,,,,,,,,,,,,,,,185.5979949000175,185.61392170001636,186.09939509999822,186.11565340001835,186.1326476999966,186.1326476999966,186.1326476999966,187.92266949999612,Scenes\152a.jpg,pre,s,1.7781038000248373,None,,,,,,,,00036,001,2026-01-16_15h43.24.043,MST_test,2024.2.0,59.74536526181681,2026-01-16 15h43.48.039213 +0530,
35,0,36,n,3.1019063999992795,None,36,0,35,187.938850800012,,,,,,,,,,,,,,,,,,,,,,,,,,,,,,,,,,,,,,,,,,,,,,,,,,187.92276180000044,187.938850800012,188.42398160000448,188.75047830000403,188.77678810001817,188.77678810001817,188.77678810001817,191.88647230001516,Foils\scenes26.jpg,none,n,3.1019063999992795,None,,,,,,,,00036,001,2026-01-16_15h43.24.043,MST_test,2024.2.0,59.74536526181681,2026-01-16 15h43.48.039213 +0530,
36,0,37,s,2.7349036000086926,None,37,0,36,191.90282970000408,,,,,,,,,,,,,,,,,,,,,,,,,,,,,,,,,,,,,,,,,,,,,,,,,,191.88657810000586,191.90282970000408,192.3877032000164,192.44109820001177,192.45554480000283,192.45554480000283,192.45554480000283,195.19804200000362,Scenes\032b.jpg,post,s,2.7349036000086926,None,,,,,,,,00036,001,2026-01-16_15h43.24.043,MST_test,2024.2.0,59.74536526181681,2026-01-16 15h43.48.039213 +0530,
37,0,38,o,0.881314400001429,None,38,0,37,195.2142101000063,,,,,,,,,,,,,,,,,,,,,,,,,,,,,,,,,,,,,,,,,,,,,,,,,,195.19814150000457,195.2142101000063,195.69962530001067,195.71721430000616,195.7338071000122,195.7338071000122,195.7338071000122,196.61980310000945,Objects\041a.jpg,mid,o,0.881314400001429,None,,,,,,,,00036,001,2026-01-16_15h43.24.043,MST_test,2024.2.0,59.74536526181681,2026-01-16 15h43.48.039213 +0530,
38,0,39,s,2.6434334000223316,None,39,0,38,196.63597160001518,,,,,,,,,,,,,,,,,,,,,,,,,,,,,,,,,,,,,,,,,,,,,,,,,,196.61990010002046,196.63597160001518,197.1209652000107,197.16041840001708,197.17201660000137,197.17201660000137,197.17201660000137,199.83200610001222,Scenes\172b.jpg,mid,s,2.6434334000223316,None,,,,,,,,00036,001,2026-01-16_15h43.24.043,MST_test,2024.2.0,59.74536526181681,2026-01-16 15h43.48.039213 +0530,
39,0,40,o,1.2892476999841165,None,40,0,39,199.8473656999995,,,,,,,,,,,,,,,,,,,,,,,,,,,,,,,,,,,,,,,,,,,,,,,,,,199.83211320001283,199.8473656999995,200.3322090000147,200.35706219999702,200.36583029999747,200.36583029999747,200.36583029999747,201.67069810000248,Objects\156b.jpg,pre,o,1.2892476999841165,None,,,,,,,,00036,001,2026-01-16_15h43.24.043,MST_test,2024.2.0,59.74536526181681,2026-01-16 15h43.48.039213 +0530,
40,0,41,o,1.568816600018181,None,41,0,40,201.6870056000189,,,,,,,,,,,,,,,,,,,,,,,,,,,,,,,,,,,,,,,,,,,,,,,,,,201.67079210001975,201.6870056000189,202.17198450001888,202.18795839999802,202.20555740001146,202.20555740001146,202.20555740001146,203.77820420000353,Objects\144a.jpg,post,o,1.568816600018181,None,,,,,,,,00036,001,2026-01-16_15h43.24.043,MST_test,2024.2.0,59.74536526181681,2026-01-16 15h43.48.039213 +0530,
41,0,42,o,4.67837629999849,None,42,0,41,203.79426620001323,,,,,,,,,,,,,,,,,,,,,,,,,,,,,,,,,,,,,,,,,,,,,,,,,,203.77830010000616,203.79426620001323,204.2795175999927,204.3035230000096,204.31269910000265,204.31269910000265,204.31269910000265,208.99636780002038,Objects\090b.jpg,mid,o,4.67837629999849,None,,,,,,,,00036,001,2026-01-16_15h43.24.043,MST_test,2024.2.0,59.74536526181681,2026-01-16 15h43.48.039213 +0530,
42,0,43,o,2.2834972999989986,None,43,0,42,209.01254060000065,,,,,,,,,,,,,,,,,,,,,,,,,,,,,,,,,,,,,,,,,,,,,,,,,,208.9964645,209.01254060000065,209.49792960000923,209.5208135000139,209.53097920000437,209.53097920000437,209.53097920000437,211.82316930001252,Objects\107b.jpg,pre,o,2.2834972999989986,None,,,,,,,,00036,001,2026-01-16_15h43.24.043,MST_test,2024.2.0,59.74536526181681,2026-01-16 15h43.48.039213 +0530,
43,0,44,o,2.2561740999808535,None,44,0,43,211.83908200002043,,,,,,,,,,,,,,,,,,,,,,,,,,,,,,,,,,,,,,,,,,,,,,,,,,211.82326309999917,211.83908200002043,212.32435050001368,212.36300110002048,212.37427410000237,212.37427410000237,212.37427410000237,214.6331196000101,Scenes\068b.jpg,mid,o,2.2561740999808535,None,,,,,,,,00036,001,2026-01-16_15h43.24.043,MST_test,2024.2.0,59.74536526181681,2026-01-16 15h43.48.039213 +0530,
44,0,45,o,0.9738284999912139,None,45,0,44,214.64894879999338,,,,,,,,,,,,,,,,,,,,,,,,,,,,,,,,,,,,,,,,,,,,,,,,,,214.63321830000496,214.64894879999338,215.13435550002032,215.17195640000864,215.18497190001654,215.18497190001654,215.18497190001654,216.17153240001062,Scenes\110b.jpg,mid,o,0.9738284999912139,None,,,,,,,,00036,001,2026-01-16_15h43.24.043,MST_test,2024.2.0,59.74536526181681,2026-01-16 15h43.48.039213 +0530,
45,0,46,s,1.3544599000015296,None,46,0,45,216.18778390000807,,,,,,,,,,,,,,,,,,,,,,,,,,,,,,,,,,,,,,,,,,,,,,,,,,216.17162470001495,216.18778390000807,216.67289780001738,216.70790430001216,216.72364030001336,216.72364030001336,216.72364030001336,218.09501449999516,Scenes\038a.jpg,pre,s,1.3544599000015296,None,,,,,,,,00036,001,2026-01-16_15h43.24.043,MST_test,2024.2.0,59.74536526181681,2026-01-16 15h43.48.039213 +0530,
46,0,47,n,4.415883000008762,None,47,0,46,218.11169910000172,,,,,,,,,,,,,,,,,,,,,,,,,,,,,,,,,,,,,,,,,,,,,,,,,,218.09511160000693,218.11169910000172,218.5961492000206,218.6110142999969,218.6302920000162,218.6302920000162,218.6302920000162,223.06238129999838,Scenes\097a.jpg,mid,n,4.415883000008762,None,,,,,,,,00036,001,2026-01-16_15h43.24.043,MST_test,2024.2.0,59.74536526181681,2026-01-16 15h43.48.039213 +0530,
47,0,48,n,1.5604681000113487,None,48,0,47,223.0784616000019,,,,,,,,,,,,,,,,,,,,,,,,,,,,,,,,,,,,,,,,,,,,,,,,,,223.06247340000118,223.0784616000019,223.56363980000606,223.5918321000063,223.6145308999985,223.6145308999985,223.6145308999985,225.1867237999977,Scenes\061b.jpg,mid,n,1.5604681000113487,None,,,,,,,,00036,001,2026-01-16_15h43.24.043,MST_test,2024.2.0,59.74536526181681,2026-01-16 15h43.48.039213 +0530,
48,0,49,o,1.6185379000089597,None,49,0,48,225.2026875000156,,,,,,,,,,,,,,,,,,,,,,,,,,,,,,,,,,,,,,,,,,,,,,,,,,225.18681780001498,225.2026875000156,225.687822900014,225.7346233999997,225.75582660001237,225.75582660001237,225.75582660001237,227.37739999999758,Scenes\023b.jpg,mid,o,1.6185379000089597,None,,,,,,,,00036,001,2026-01-16_15h43.24.043,MST_test,2024.2.0,59.74536526181681,2026-01-16 15h43.48.039213 +0530,
49,0,50,o,1.3827337000111584,None,50,0,49,227.39398530000472,,,,,,,,,,,,,,,,,,,,,,,,,,,,,,,,,,,,,,,,,,,,,,,,,,227.37749710000935,227.39398530000472,227.87880140001653,227.8952391000057,227.9121543999936,227.9121543999936,227.9121543999936,229.30174819999957,Objects\137a.jpg,pre,o,1.3827337000111584,None,,,,,,,,00036,001,2026-01-16_15h43.24.043,MST_test,2024.2.0,59.74536526181681,2026-01-16 15h43.48.039213 +0530,
50,0,51,s,2.3623793000006117,None,51,0,50,229.3168355000089,,,,,,,,,,,,,,,,,,,,,,,,,,,,,,,,,,,,,,,,,,,,,,,,,,229.30188489999273,229.3168355000089,229.8021815000102,229.82608530001016,229.8357926000026,229.8357926000026,229.8357926000026,232.21117340002093,Objects\133b.jpg,pre,s,2.3623793000006117,None,,,,,,,,00036,001,2026-01-16_15h43.24.043,MST_test,2024.2.0,59.74536526181681,2026-01-16 15h43.48.039213 +0530,
51,0,52,s,2.227652500005206,None,52,0,51,232.2272719000175,,,,,,,,,,,,,,,,,,,,,,,,,,,,,,,,,,,,,,,,,,,,,,,,,,232.21126949999598,232.2272719000175,232.7122689000098,232.74542950000614,232.76321140001528,232.76321140001528,232.76321140001528,235.00405479999608,Scenes\077b.jpg,mid,s,2.227652500005206,None,,,,,,,,00036,001,2026-01-16_15h43.24.043,MST_test,2024.2.0,59.74536526181681,2026-01-16 15h43.48.039213 +0530,
52,0,53,o,2.2501304000033997,None,53,0,52,235.02027239999734,,,,,,,,,,,,,,,,,,,,,,,,,,,,,,,,,,,,,,,,,,,,,,,,,,235.0041504999972,235.02027239999734,235.50551069999347,235.53579049999826,235.5564194000035,235.5564194000035,235.5564194000035,237.8148862000089,Scenes\024a.jpg,post,o,2.2501304000033997,None,,,,,,,,00036,001,2026-01-16_15h43.24.043,MST_test,2024.2.0,59.74536526181681,2026-01-16 15h43.48.039213 +0530,
53,0,54,s,4.152821200026665,None,54,0,53,237.83041150000645,,,,,,,,,,,,,,,,,,,,,,,,,,,,,,,,,,,,,,,,,,,,,,,,,,237.814978600014,237.83041150000645,238.31538360001286,238.33983939999598,238.34933029999956,238.34933029999956,238.34933029999956,242.51381940001738,Foils\082a.jpg,none,s,4.152821200026665,None,,,,,,,,00036,001,2026-01-16_15h43.24.043,MST_test,2024.2.0,59.74536526181681,2026-01-16 15h43.48.039213 +0530,
54,0,55,o,1.197551699995529,None,55,0,54,242.52989679999882,,,,,,,,,,,,,,,,,,,,,,,,,,,,,,,,,,,,,,,,,,,,,,,,,,242.51391850001528,242.52989679999882,243.01509349999833,243.05180210000253,243.0652373000048,243.0652373000048,243.0652373000048,244.2700615999929,Scenes\021b.jpg,pre,o,1.197551699995529,None,,,,,,,,00036,001,2026-01-16_15h43.24.043,MST_test,2024.2.0,59.74536526181681,2026-01-16 15h43.48.039213 +0530,
55,0,56,s,1.4577327000151854,None,56,0,55,244.28620010000304,,,,,,,,,,,,,,,,,,,,,,,,,,,,,,,,,,,,,,,,,,,,,,,,,,244.27016040001763,244.28620010000304,244.77114190001157,244.79283980000764,244.8046114000026,244.8046114000026,244.8046114000026,246.27712680000695,Scenes\153a.jpg,pre,s,1.4577327000151854,None,,,,,,,,00036,001,2026-01-16_15h43.24.043,MST_test,2024.2.0,59.74536526181681,2026-01-16 15h43.48.039213 +0530,
56,0,57,o,1.1953594999795314,None,57,0,56,246.29319419999956,,,,,,,,,,,,,,,,,,,,,,,,,,,,,,,,,,,,,,,,,,,,,,,,,,246.27721970001585,246.29319419999956,246.77827660000185,246.7922424999997,246.8116452000104,246.8116452000104,246.8116452000104,248.01633179999772,Objects\169a.jpg,mid,o,1.1953594999795314,None,,,,,,,,00036,001,2026-01-16_15h43.24.043,MST_test,2024.2.0,59.74536526181681,2026-01-16 15h43.48.039213 +0530,
57,0,58,o,1.36553839998669,None,58,0,57,248.0325048000086,,,,,,,,,,,,,,,,,,,,,,,,,,,,,,,,,,,,,,,,,,,,,,,,,,248.01642960001482,248.0325048000086,248.5178431000095,248.5555097000033,248.56858019999345,248.56858019999345,248.56858019999345,249.94001140000182,Scenes\085b.jpg,pre,o,1.36553839998669,None,,,,,,,,00036,001,2026-01-16_15h43.24.043,MST_test,2024.2.0,59.74536526181681,2026-01-16 15h43.48.039213 +0530,
58,0,59,o,3.6684872999903746,None,59,0,58,249.9560371999978,,,,,,,,,,,,,,,,,,,,,,,,,,,,,,,,,,,,,,,,,,,,,,,,,,249.94010890001664,249.9560371999978,250.44098360001226,250.47377090001828,250.49131490002037,250.49131490002037,250.49131490002037,254.1713924999931,Scenes\044b.jpg,pre,o,3.6684872999903746,None,,,,,,,,00036,001,2026-01-16_15h43.24.043,MST_test,2024.2.0,59.74536526181681,2026-01-16 15h43.48.039213 +0530,
59,0,60,o,1.668749000004027,None,60,0,59,254.18740460000117,,,,,,,,,,,,,,,,,,,,,,,,,,,,,,,,,,,,,,,,,,,,,,,,,,254.17148790002102,254.18740460000117,254.67309389999718,254.68752370000584,254.7058309999993,254.7058309999993,254.7058309999993,256.3791046999977,Objects\084a.jpg,mid,o,1.668749000004027,None,,,,,,,,00036,001,2026-01-16_15h43.24.043,MST_test,2024.2.0,59.74536526181681,2026-01-16 15h43.48.039213 +0530,
60,0,61,s,1.2841360000020359,None,61,0,60,256.3952386000019,,,,,,,,,,,,,,,,,,,,,,,,,,,,,,,,,,,,,,,,,,,,,,,,,,256.37938500000746,256.3952386000019,256.8801986000035,256.9000297000166,256.91447320001316,256.91447320001316,256.91447320001316,258.20237460001954,Foils\scenes5.jpg,none,s,1.2841360000020359,None,,,,,,,,00036,001,2026-01-16_15h43.24.043,MST_test,2024.2.0,59.74536526181681,2026-01-16 15h43.48.039213 +0530,
61,0,62,n,0.8540485000121407,None,62,0,61,258.21829690001323,,,,,,,,,,,,,,,,,,,,,,,,,,,,,,,,,,,,,,,,,,,,,,,,,,258.2024692000123,258.21829690001323,258.7033411000157,258.7166164999944,258.7368583000207,258.7368583000207,258.7368583000207,259.60710560000734,Objects\123a.jpg,pre,n,0.8540485000121407,None,,,,,,,,00036,001,2026-01-16_15h43.24.043,MST_test,2024.2.0,59.74536526181681,2026-01-16 15h43.48.039213 +0530,
62,0,63,n,0.9908087000076193,None,63,0,62,259.62322290000156,,,,,,,,,,,,,,,,,,,,,,,,,,,,,,,,,,,,,,,,,,,,,,,,,,259.60720420000143,259.62322290000156,260.1083018000063,260.13915760000236,260.15989890001947,260.15989890001947,260.15989890001947,261.1623360000085,Scenes\114a.jpg,post,n,0.9908087000076193,None,,,,,,,,00036,001,2026-01-16_15h43.24.043,MST_test,2024.2.0,59.74536526181681,2026-01-16 15h43.48.039213 +0530,
63,0,64,n,1.037200999999186,None,64,0,63,261.1787018000032,,,,,,,,,,,,,,,,,,,,,,,,,,,,,,,,,,,,,,,,,,,,,,,,,,261.1624445000198,261.1787018000032,261.663675400021,261.6785441999964,261.6971021000063,261.6971021000063,261.6971021000063,262.73482640000293,Objects\004a.jpg,pre,n,1.037200999999186,None,,,,,,,,00036,001,2026-01-16_15h43.24.043,MST_test,2024.2.0,59.74536526181681,2026-01-16 15h43.48.039213 +0530,
64,0,65,n,1.1961722999985795,None,65,0,64,262.7507252000214,,,,,,,,,,,,,,,,,,,,,,,,,,,,,,,,,,,,,,,,,,,,,,,,,,262.73492099999567,262.7507252000214,263.23609459999716,263.3545260000101,263.37026339999284,263.37026339999284,263.37026339999284,264.57444840000244,Foils\scenes15.jpg,none,n,1.1961722999985795,None,,,,,,,,00036,001,2026-01-16_15h43.24.043,MST_test,2024.2.0,59.74536526181681,2026-01-16 15h43.48.039213 +0530,
65,0,66,n,1.6718337000056636,None,66,0,65,264.5905995000212,,,,,,,,,,,,,,,,,,,,,,,,,,,,,,,,,,,,,,,,,,,,,,,,,,264.5745453000127,264.5905995000212,265.0757153000159,265.1363579000172,265.1601198000135,265.1601198000135,265.1601198000135,266.8489356999926,Foils\scenes28.jpg,none,n,1.6718337000056636,None,,,,,,,,00036,001,2026-01-16_15h43.24.043,MST_test,2024.2.0,59.74536526181681,2026-01-16 15h43.48.039213 +0530,
66,0,67,o,1.4217727000068408,None,67,0,66,266.8651316000032,,,,,,,,,,,,,,,,,,,,,,,,,,,,,,,,,,,,,,,,,,,,,,,,,,266.84902920000604,266.8651316000032,267.3505128000106,267.3876086999953,267.4012136000092,267.4012136000092,267.4012136000092,268.8394849000033,Scenes\156b.jpg,pre,o,1.4217727000068408,None,,,,,,,,00036,001,2026-01-16_15h43.24.043,MST_test,2024.2.0,59.74536526181681,2026-01-16 15h43.48.039213 +0530,
67,0,68,s,1.430548300006194,None,68,0,67,268.855420900014,,,,,,,,,,,,,,,,,,,,,,,,,,,,,,,,,,,,,,,,,,,,,,,,,,268.8395767000038,268.855420900014,269.34063069999684,269.3875651000126,269.408282999997,269.408282999997,269.408282999997,270.8464934999938,Scenes\170b.jpg,post,s,1.430548300006194,None,,,,,,,,00036,001,2026-01-16_15h43.24.043,MST_test,2024.2.0,59.74536526181681,2026-01-16 15h43.48.039213 +0530,
68,0,69,o,0.9851749999797903,None,69,0,68,270.862438000011,,,,,,,,,,,,,,,,,,,,,,,,,,,,,,,,,,,,,,,,,,,,,,,,,,270.84659329999704,270.862438000011,271.3479370000132,271.3637224000122,271.3818765000033,271.3818765000033,271.3818765000033,272.3691472999926,Objects\098a.jpg,post,o,0.9851749999797903,None,,,,,,,,00036,001,2026-01-16_15h43.24.043,MST_test,2024.2.0,59.74536526181681,2026-01-16 15h43.48.039213 +0530,
69,0,70,o,1.1112797999812756,None,70,0,69,272.3856266000075,,,,,,,,,,,,,,,,,,,,,,,,,,,,,,,,,,,,,,,,,,,,,,,,,,272.36924289999297,272.3856266000075,272.8695403000165,272.8908278000017,272.9039835000003,272.9039835000003,272.9039835000003,274.0241517999966,Scenes\175a.jpg,post,o,1.1112797999812756,None,,,,,,,,00036,001,2026-01-16_15h43.24.043,MST_test,2024.2.0,59.74536526181681,2026-01-16 15h43.48.039213 +0530,
70,0,71,o,1.6488380999944638,None,71,0,70,274.04037410000456,,,,,,,,,,,,,,,,,,,,,,,,,,,,,,,,,,,,,,,,,,,,,,,,,,274.02425489999587,274.04037410000456,274.5253417000058,274.5484684999974,274.5587702000048,274.5587702000048,274.5587702000048,276.2151736000087,Objects\085b.jpg,mid,o,1.6488380999944638,None,,,,,,,,00036,001,2026-01-16_15h43.24.043,MST_test,2024.2.0,59.74536526181681,2026-01-16 15h43.48.039213 +0530,
71,0,72,o,2.711530300002778,None,72,0,71,276.23141269999905,,,,,,,,,,,,,,,,,,,,,,,,,,,,,,,,,,,,,,,,,,,,,,,,,,276.21526769999764,276.23141269999905,276.71654369999305,276.74497460000566,276.7676258000138,276.7676258000138,276.7676258000138,279.4933922000055,Scenes\013a.jpg,mid,o,2.711530300002778,None,,,,,,,,00036,001,2026-01-16_15h43.24.043,MST_test,2024.2.0,59.74536526181681,2026-01-16 15h43.48.039213 +0530,
72,0,73,o,3.2987913000106346,None,73,0,72,279.5095188000123,,,,,,,,,,,,,,,,,,,,,,,,,,,,,,,,,,,,,,,,,,,,,,,,,,279.4934884000104,279.5095188000123,279.994525600021,280.02956840000115,280.04456650000066,280.04456650000066,280.04456650000066,283.3568138999981,Scenes\028b.jpg,pre,o,3.2987913000106346,None,,,,,,,,00036,001,2026-01-16_15h43.24.043,MST_test,2024.2.0,59.74536526181681,2026-01-16 15h43.48.039213 +0530,
73,0,74,s,1.5223943000019062,None,74,0,73,283.3730399000051,,,,,,,,,,,,,,,,,,,,,,,,,,,,,,,,,,,,,,,,,,,,,,,,,,283.35690840001917,283.3730399000051,283.8580335000006,283.87837520000176,283.8923294999986,283.8923294999986,283.8923294999986,285.4307067000191,Foils\scenes7.jpg,none,s,1.5223943000019062,None,,,,,,,,00036,001,2026-01-16_15h43.24.043,MST_test,2024.2.0,59.74536526181681,2026-01-16 15h43.48.039213 +0530,
74,0,75,s,2.159733900014544,None,75,0,74,285.44774800000596,,,,,,,,,,,,,,,,,,,,,,,,,,,,,,,,,,,,,,,,,,,,,,,,,,285.43079840001883,285.44774800000596,285.9321195000084,285.9545971000043,285.9667110000155,285.9667110000155,285.9667110000155,288.1403380999982,Objects\114b.jpg,mid,s,2.159733900014544,None,,,,,,,,00036,001,2026-01-16_15h43.24.043,MST_test,2024.2.0,59.74536526181681,2026-01-16 15h43.48.039213 +0530,
75,0,76,o,1.0024074999964796,None,76,0,75,288.1563409999944,,,,,,,,,,,,,,,,,,,,,,,,,,,,,,,,,,,,,,,,,,,,,,,,,,288.1404409999959,288.1563409999944,288.6417228000064,288.66407190001337,288.67596399999456,288.67596399999456,288.67596399999456,289.679094000021,Scenes\179a.jpg,pre,o,1.0024074999964796,None,,,,,,,,00036,001,2026-01-16_15h43.24.043,MST_test,2024.2.0,59.74536526181681,2026-01-16 15h43.48.039213 +0530,
76,0,77,n,1.568493099999614,None,77,0,76,289.69547279999824,,,,,,,,,,,,,,,,,,,,,,,,,,,,,,,,,,,,,,,,,,,,,,,,,,289.6791860999947,289.69547279999824,290.18033060000744,290.20276450001984,290.2136754000094,290.2136754000094,290.2136754000094,291.7863367999962,Objects\075b.jpg,post,n,1.568493099999614,None,,,,,,,,00036,001,2026-01-16_15h43.24.043,MST_test,2024.2.0,59.74536526181681,2026-01-16 15h43.48.039213 +0530,
77,0,78,n,1.454157700005453,None,78,0,77,291.8026868000161,,,,,,,,,,,,,,,,,,,,,,,,,,,,,,,,,,,,,,,,,,,,,,,,,,291.7864331000019,291.8026868000161,292.2875301000022,292.309433300019,292.3209979000094,292.3209979000094,292.3209979000094,293.77685100000235,Foils\113a.jpg,none,n,1.454157700005453,None,,,,,,,,00036,001,2026-01-16_15h43.24.043,MST_test,2024.2.0,59.74536526181681,2026-01-16 15h43.48.039213 +0530,
78,0,79,o,0.967838100012159,None,79,0,78,293.79286200000206,,,,,,,,,,,,,,,,,,,,,,,,,,,,,,,,,,,,,,,,,,,,,,,,,,293.7769549000077,293.79286200000206,294.27842800001963,294.3019592000055,294.31154080000124,294.31154080000124,294.31154080000124,295.28196779999416,Scenes\079a.jpg,post,o,0.967838100012159,None,,,,,,,,00036,001,2026-01-16_15h43.24.043,MST_test,2024.2.0,59.74536526181681,2026-01-16 15h43.48.039213 +0530,
79,0,80,n,2.2147149999800604,None,80,0,79,295.298027700017,,,,,,,,,,,,,,,,,,,,,,,,,,,,,,,,,,,,,,,,,,,,,,,,,,295.28206019999925,295.298027700017,295.78310570001486,295.8060397999943,295.8164652000123,295.8164652000123,295.8164652000123,298.0416312000016,Foils\058a.jpg,none,n,2.2147149999800604,None,,,,,,,,00036,001,2026-01-16_15h43.24.043,MST_test,2024.2.0,59.74536526181681,2026-01-16 15h43.48.039213 +0530,
80,0,81,o,1.526169899996603,None,81,0,80,298.05781120000756,,,,,,,,,,,,,,,,,,,,,,,,,,,,,,,,,,,,,,,,,,,,,,,,,,298.04172410001047,298.05781120000756,298.5428118999989,298.55717859999277,298.576357700018,298.576357700018,298.576357700018,300.1162419000175,Objects\164a.jpg,post,o,1.526169899996603,None,,,,,,,,00036,001,2026-01-16_15h43.24.043,MST_test,2024.2.0,59.74536526181681,2026-01-16 15h43.48.039213 +0530,
81,0,82,s,0.9808399999747053,None,82,0,81,300.1316976000089,,,,,,,,,,,,,,,,,,,,,,,,,,,,,,,,,,,,,,,,,,,,,,,,,,300.116333700018,300.1316976000089,300.6168025000079,300.6393875000067,300.6500452000182,300.6500452000182,300.6500452000182,301.6375207999954,Foils\020b.jpg,none,s,0.9808399999747053,None,,,,,,,,00036,001,2026-01-16_15h43.24.043,MST_test,2024.2.0,59.74536526181681,2026-01-16 15h43.48.039213 +0530,
82,0,83,n,2.586526600003708,None,83,0,82,301.6535916000139,,,,,,,,,,,,,,,,,,,,,,,,,,,,,,,,,,,,,,,,,,,,,,,,,,301.63761120001436,301.6535916000139,302.13882019999437,302.16153310000664,302.1721580000012,302.1721580000012,302.1721580000012,304.76532810000936,Objects\189b.jpg,post,n,2.586526600003708,None,,,,,,,,00036,001,2026-01-16_15h43.24.043,MST_test,2024.2.0,59.74536526181681,2026-01-16 15h43.48.039213 +0530,
83,0,84,o,1.0361643999931403,None,84,0,83,304.781227200001,,,,,,,,,,,,,,,,,,,,,,,,,,,,,,,,,,,,,,,,,,,,,,,,,,304.7654209000175,304.781227200001,305.2665662000072,305.28058859999874,305.29974570000195,305.29974570000195,305.29974570000195,306.3376448000199,Objects\076a.jpg,pre,o,1.0361643999931403,None,,,,,,,,00036,001,2026-01-16_15h43.24.043,MST_test,2024.2.0,59.74536526181681,2026-01-16 15h43.48.039213 +0530,
84,0,85,o,1.8376738000079058,None,85,0,84,306.3535146000213,,,,,,,,,,,,,,,,,,,,,,,,,,,,,,,,,,,,,,,,,,,,,,,,,,306.3377344000037,306.3535146000213,306.8387272999971,306.87624509999296,306.88968340001884,306.88968340001884,306.88968340001884,308.72929370001657,Scenes\143b.jpg,pre,o,1.8376738000079058,None,,,,,,,,00036,001,2026-01-16_15h43.24.043,MST_test,2024.2.0,59.74536526181681,2026-01-16 15h43.48.039213 +0530,
85,0,86,o,0.7348017999902368,None,86,0,85,308.7451051000098,,,,,,,,,,,,,,,,,,,,,,,,,,,,,,,,,,,,,,,,,,,,,,,,,,308.7293860000209,308.7451051000098,309.23031109999283,309.2450327000115,309.2636596999946,309.2636596999946,309.2636596999946,310.00035770001705,Objects\166a.jpg,mid,o,0.7348017999902368,None,,,,,,,,00036,001,2026-01-16_15h43.24.043,MST_test,2024.2.0,59.74536526181681,2026-01-16 15h43.48.039213 +0530,
86,0,87,o,1.0556736999715213,None,87,0,86,310.0162268000131,,,,,,,,,,,,,,,,,,,,,,,,,,,,,,,,,,,,,,,,,,,,,,,,,,310.0004481000069,310.0162268000131,310.5014332999999,310.5314492000034,310.5513920999947,310.5513920999947,310.5513920999947,311.622489100002,Scenes\004a.jpg,mid,o,1.0556736999715213,None,,,,,,,,00036,001,2026-01-16_15h43.24.043,MST_test,2024.2.0,59.74536526181681,2026-01-16 15h43.48.039213 +0530,
87,0,88,o,0.7139423000044189,None,88,0,87,311.6386938999931,,,,,,,,,,,,,,,,,,,,,,,,,,,,,,,,,,,,,,,,,,,,,,,,,,311.62258910000673,311.6386938999931,312.12365029999637,312.13993720000144,312.15668220000225,312.15668220000225,312.15668220000225,312.87728370001423,Objects\037a.jpg,post,o,0.7139423000044189,None,,,,,,,,00036,001,2026-01-16_15h43.24.043,MST_test,2024.2.0,59.74536526181681,2026-01-16 15h43.48.039213 +0530,
88,0,89,n,0.9549419000104535,None,89,0,88,312.8939049000037,,,,,,,,,,,,,,,,,,,,,,,,,,,,,,,,,,,,,,,,,,,,,,,,,,312.87738250000984,312.8939049000037,313.3780716000183,313.3990754999977,313.4116036000196,313.4116036000196,313.4116036000196,314.38234490001923,Scenes\069a.jpg,pre,n,0.9549419000104535,None,,,,,,,,00036,001,2026-01-16_15h43.24.043,MST_test,2024.2.0,59.74536526181681,2026-01-16 15h43.48.039213 +0530,
89,0,90,n,2.1530756000138354,None,90,0,89,314.39822760000243,,,,,,,,,,,,,,,,,,,,,,,,,,,,,,,,,,,,,,,,,,,,,,,,,,314.38243769999826,314.39822760000243,314.883479000011,314.9198404000199,314.9333989000006,314.9333989000006,314.9333989000006,317.0919009000063,Scenes\183b.jpg,post,n,2.1530756000138354,None,,,,,,,,00036,001,2026-01-16_15h43.24.043,MST_test,2024.2.0,59.74536526181681,2026-01-16 15h43.48.039213 +0530,
90,0,91,n,1.3881930999923497,None,91,0,90,317.10784840001725,,,,,,,,,,,,,,,,,,,,,,,,,,,,,,,,,,,,,,,,,,,,,,,,,,317.0919927000068,317.10784840001725,317.5934033000085,317.6149795000092,317.6263143999968,317.6263143999968,317.6263143999968,319.0316396999988,Foils\049a.jpg,none,n,1.3881930999923497,None,,,,,,,,00036,001,2026-01-16_15h43.24.043,MST_test,2024.2.0,59.74536526181681,2026-01-16 15h43.48.039213 +0530,
91,0,92,o,0.8471238999918569,None,92,0,91,319.0485327000206,,,,,,,,,,,,,,,,,,,,,,,,,,,,,,,,,,,,,,,,,,,,,,,,,,319.031739500002,319.0485327000206,319.533082000009,319.5504635999969,319.56711550001637,319.56711550001637,319.56711550001637,320.42015170000377,Foils\scenes1.jpg,none,o,0.8471238999918569,None,,,,,,,,00036,001,2026-01-16_15h43.24.043,MST_test,2024.2.0,59.74536526181681,2026-01-16 15h43.48.039213 +0530,
92,0,93,n,1.4843874999787658,None,93,0,92,320.43604890001006,,,,,,,,,,,,,,,,,,,,,,,,,,,,,,,,,,,,,,,,,,,,,,,,,,320.42024410000886,320.43604890001006,320.9212525000039,320.94237659999635,320.95448660000693,320.95448660000693,320.95448660000693,322.44373880000785,Foils\scenes30.jpg,none,n,1.4843874999787658,None,,,,,,,,00036,001,2026-01-16_15h43.24.043,MST_test,2024.2.0,59.74536526181681,2026-01-16 15h43.48.039213 +0530,
93,0,94,o,1.1083814000012353,None,94,0,93,322.45979590000934,,,,,,,,,,,,,,,,,,,,,,,,,,,,,,,,,,,,,,,,,,,,,,,,,,322.44383920001565,322.45979590000934,322.9449983999948,322.96916510001756,322.97830570000224,322.97830570000224,322.97830570000224,324.09979710000334,Objects\092b.jpg,pre,o,1.1083814000012353,None,,,,,,,,00036,001,2026-01-16_15h43.24.043,MST_test,2024.2.0,59.74536526181681,2026-01-16 15h43.48.039213 +0530,
94,0,95,s,0.9802287000056822,None,95,0,94,324.11576360001345,,,,,,,,,,,,,,,,,,,,,,,,,,,,,,,,,,,,,,,,,,,,,,,,,,324.0998896000092,324.11576360001345,324.60094500001287,324.6236312999972,324.63403099999414,324.63403099999414,324.63403099999414,325.62153110001236,Objects\187b.jpg,mid,s,0.9802287000056822,None,,,,,,,,00036,001,2026-01-16_15h43.24.043,MST_test,2024.2.0,59.74536526181681,2026-01-16 15h43.48.039213 +0530,
95,0,96,o,0.9691444000054616,None,96,0,95,325.63771189999534,,,,,,,,,,,,,,,,,,,,,,,,,,,,,,,,,,,,,,,,,,,,,,,,,,325.6216246999975,325.63771189999534,326.12280169999576,326.1535933999985,326.17359900000156,326.17359900000156,326.17359900000156,327.143535900017,Scenes\159a.jpg,post,o,0.9691444000054616,None,,,,,,,,00036,001,2026-01-16_15h43.24.043,MST_test,2024.2.0,59.74536526181681,2026-01-16 15h43.48.039213 +0530,
96,0,97,o,1.040320200001588,None,97,0,96,327.1597824000055,,,,,,,,,,,,,,,,,,,,,,,,,,,,,,,,,,,,,,,,,,,,,,,,,,327.1436278000183,327.1597824000055,327.64476809999906,327.65870620001806,327.67826000001514,327.67826000001514,327.67826000001514,328.73242250000476,Objects\065a.jpg,mid,o,1.040320200001588,None,,,,,,,,00036,001,2026-01-16_15h43.24.043,MST_test,2024.2.0,59.74536526181681,2026-01-16 15h43.48.039213 +0530,
97,0,98,s,1.5157247000024654,None,98,0,97,328.74874480001745,,,,,,,,,,,,,,,,,,,,,,,,,,,,,,,,,,,,,,,,,,,,,,,,,,328.732565000013,328.74874480001745,329.2335690000036,329.2613348000159,329.28376570000546,329.28376570000546,329.28376570000546,330.8063389000017,Scenes\165a.jpg,mid,s,1.5157247000024654,None,,,,,,,,00036,001,2026-01-16_15h43.24.043,MST_test,2024.2.0,59.74536526181681,2026-01-16 15h43.48.039213 +0530,
98,0,99,o,3.593559599976288,None,99,0,98,330.8227653000213,,,,,,,,,,,,,,,,,,,,,,,,,,,,,,,,,,,,,,,,,,,,,,,,,,330.8064313000068,330.8227653000213,331.3076709000161,331.32216820001486,331.3412567000196,331.3412567000196,331.3412567000196,334.9375158000039,Objects\190a.jpg,post,o,3.593559599976288,None,,,,,,,,00036,001,2026-01-16_15h43.24.043,MST_test,2024.2.0,59.74536526181681,2026-01-16 15h43.48.039213 +0530,
99,0,100,o,2.406568500009598,None,100,0,99,334.95365060001495,,,,,,,,,,,,,,,,,,,,,,,,,,,,,,,,,,,,,,,,,,,,,,,,,,334.93760750000365,334.95365060001495,335.4386521000124,335.4624057000037,335.47210820001783,335.47210820001783,335.47210820001783,337.8811304999981,Objects\109b.jpg,post,o,2.406568500009598,None,,,,,,,,00036,001,2026-01-16_15h43.24.043,MST_test,2024.2.0,59.74536526181681,2026-01-16 15h43.48.039213 +0530,
100,0,101,o,1.1272215000062715,None,101,0,100,337.8971900000179,,,,,,,,,,,,,,,,,,,,,,,,,,,,,,,,,,,,,,,,,,,,,,,,,,337.88122430001386,337.8971900000179,338.38238160000765,338.40551380001125,338.41563520001364,338.41563520001364,338.41563520001364,339.5534539000073,Objects\053b.jpg,pre,o,1.1272215000062715,None,,,,,,,,00036,001,2026-01-16_15h43.24.043,MST_test,2024.2.0,59.74536526181681,2026-01-16 15h43.48.039213 +0530,
101,0,102,n,1.845122699975036,None,102,0,101,339.5698312000022,,,,,,,,,,,,,,,,,,,,,,,,,,,,,,,,,,,,,,,,,,,,,,,,,,339.55355420001433,339.5698312000022,340.05477790001896,340.07975229999283,340.08912590000546,340.08912590000546,340.08912590000546,341.9456339000026,Scenes\022b.jpg,pre,n,1.845122699975036,None,,,,,,,,00036,001,2026-01-16_15h43.24.043,MST_test,2024.2.0,59.74536526181681,2026-01-16 15h43.48.039213 +0530,
102,0,103,n,1.060956699977396,None,103,0,102,341.96171230002074,,,,,,,,,,,,,,,,,,,,,,,,,,,,,,,,,,,,,,,,,,,,,,,,,,341.94572760001756,341.96171230002074,342.44661579999956,342.4806879000098,342.4976554000168,342.4976554000168,342.4976554000168,343.5677799000114,Scenes\117b.jpg,post,n,1.060956699977396,None,,,,,,,,00036,001,2026-01-16_15h43.24.043,MST_test,2024.2.0,59.74536526181681,2026-01-16 15h43.48.039213 +0530,
103,0,104,s,0.9770826000021771,None,104,0,103,343.58391879999544,,,,,,,,,,,,,,,,,,,,,,,,,,,,,,,,,,,,,,,,,,,,,,,,,,343.5678714000096,343.58391879999544,344.069058699999,344.09375319999526,344.10221640000236,344.10221640000236,344.10221640000236,345.08977530000266,Foils\002a.jpg,none,s,0.9770826000021771,None,,,,,,,,00036,001,2026-01-16_15h43.24.043,MST_test,2024.2.0,59.74536526181681,2026-01-16 15h43.48.039213 +0530,
104,0,105,o,1.2923887000069954,None,105,0,104,345.1056951000064,,,,,,,,,,,,,,,,,,,,,,,,,,,,,,,,,,,,,,,,,,,,,,,,,,345.08987490000436,345.1056951000064,345.59096570001566,345.6216634000011,345.6417266000062,345.6417266000062,345.6417266000062,346.94625150001957,Scenes\031a.jpg,mid,o,1.2923887000069954,None,,,,,,,,00036,001,2026-01-16_15h43.24.043,MST_test,2024.2.0,59.74536526181681,2026-01-16 15h43.48.039213 +0530,
105,0,106,n,1.7580068999959622,None,106,0,105,346.96237950000796,,,,,,,,,,,,,,,,,,,,,,,,,,,,,,,,,,,,,,,,,,,,,,,,,,346.9463417000079,346.96237950000796,347.4473512000113,347.47109420000925,347.48082150000846,347.48082150000846,347.48082150000846,349.2542001999973,Foils\074a.jpg,none,n,1.7580068999959622,None,,,,,,,,00036,001,2026-01-16_15h43.24.043,MST_test,2024.2.0,59.74536526181681,2026-01-16 15h43.48.039213 +0530,
106,0,107,s,1.3993788000079803,None,107,0,106,349.27045559999533,,,,,,,,,,,,,,,,,,,,,,,,,,,,,,,,,,,,,,,,,,,,,,,,,,349.25430150001193,349.27045559999533,349.7556464000081,349.8017664999934,349.82333090002066,349.82333090002066,349.82333090002066,351.22789949999424,Scenes\009b.jpg,pre,s,1.3993788000079803,None,,,,,,,,00036,001,2026-01-16_15h43.24.043,MST_test,2024.2.0,59.74536526181681,2026-01-16 15h43.48.039213 +0530,
107,0,108,n,2.39455490000546,None,108,0,107,351.2442876000132,,,,,,,,,,,,,,,,,,,,,,,,,,,,,,,,,,,,,,,,,,,,,,,,,,351.22799620000296,351.2442876000132,351.7291433000064,351.75905480000074,351.77991640000255,351.77991640000255,351.77991640000255,354.18840000001364,Scenes\071b.jpg,mid,n,2.39455490000546,None,,,,,,,,00036,001,2026-01-16_15h43.24.043,MST_test,2024.2.0,59.74536526181681,2026-01-16 15h43.48.039213 +0530,
108,0,109,s,1.6112328000017442,None,109,0,108,354.20440430002054,,,,,,,,,,,,,,,,,,,,,,,,,,,,,,,,,,,,,,,,,,,,,,,,,,354.1885100000072,354.20440430002054,354.68953840000904,354.7117661999946,354.7238192000077,354.7238192000077,354.7238192000077,356.3458048000175,Objects\127b.jpg,mid,s,1.6112328000017442,None,,,,,,,,00036,001,2026-01-16_15h43.24.043,MST_test,2024.2.0,59.74536526181681,2026-01-16 15h43.48.039213 +0530,
109,0,110,n,2.157500200002687,None,110,0,109,356.3619613000192,,,,,,,,,,,,,,,,,,,,,,,,,,,,,,,,,,,,,,,,,,,,,,,,,,356.34590250000474,356.3619613000192,356.8472810999956,356.8615914999973,356.8815416000143,356.8815416000143,356.8815416000143,359.05516710001393,Scenes\033a.jpg,mid,n,2.157500200002687,None,,,,,,,,00036,001,2026-01-16_15h43.24.043,MST_test,2024.2.0,59.74536526181681,2026-01-16 15h43.48.039213 +0530,
110,0,111,o,1.2389496000250801,None,111,0,110,359.0713409000018,,,,,,,,,,,,,,,,,,,,,,,,,,,,,,,,,,,,,,,,,,,,,,,,,,359.0552599999937,359.0713409000018,359.55656440000166,359.586819499993,359.60729240000364,359.60729240000364,359.60729240000364,360.8616130000155,Scenes\112a.jpg,pre,o,1.2389496000250801,None,,,,,,,,00036,001,2026-01-16_15h43.24.043,MST_test,2024.2.0,59.74536526181681,2026-01-16 15h43.48.039213 +0530,
111,0,112,n,2.1860041999898385,None,112,0,111,360.87777389999246,,,,,,,,,,,,,,,,,,,,,,,,,,,,,,,,,,,,,,,,,,,,,,,,,,360.8617049000168,360.87777389999246,361.36285679999855,361.3827505999943,361.3969841999933,361.3969841999933,361.3969841999933,363.5883271000057,Foils\scenes29.jpg,none,n,2.1860041999898385,None,,,,,,,,00036,001,2026-01-16_15h43.24.043,MST_test,2024.2.0,59.74536526181681,2026-01-16 15h43.48.039213 +0530,
112,0,113,s,1.4833169000048656,None,113,0,112,363.60387380002066,,,,,,,,,,,,,,,,,,,,,,,,,,,,,,,,,,,,,,,,,,,,,,,,,,363.58841419999953,363.60387380002066,364.08907129999716,364.11489070000243,364.1232691000041,364.1232691000041,364.1232691000041,365.6116238000104,Objects\182b.jpg,pre,s,1.4833169000048656,None,,,,,,,,00036,001,2026-01-16_15h43.24.043,MST_test,2024.2.0,59.74536526181681,2026-01-16 15h43.48.039213 +0530,
113,0,114,s,1.5784192999999505,None,114,0,113,365.6276150000049,,,,,,,,,,,,,,,,,,,,,,,,,,,,,,,,,,,,,,,,,,,,,,,,,,365.61171399999876,365.6276150000049,366.11282520001987,366.1475566000154,366.163810500002,366.163810500002,366.163810500002,367.7523717000149,Foils\scenes27.jpg,none,s,1.5784192999999505,None,,,,,,,,00036,001,2026-01-16_15h43.24.043,MST_test,2024.2.0,59.74536526181681,2026-01-16 15h43.48.039213 +0530,
114,0,115,s,1.6567022999806795,None,115,0,114,367.76844859999255,,,,,,,,,,,,,,,,,,,,,,,,,,,,,,,,,,,,,,,,,,,,,,,,,,367.75246449999395,367.76844859999255,368.2536839999957,368.2762147000176,368.28701709999586,368.28701709999586,368.28701709999586,369.9601427000016,Objects\186b.jpg,post,s,1.6567022999806795,None,,,,,,,,00036,001,2026-01-16_15h43.24.043,MST_test,2024.2.0,59.74536526181681,2026-01-16 15h43.48.039213 +0530,
115,0,116,n,1.4228682999964803,None,116,0,115,369.97629920000327,,,,,,,,,,,,,,,,,,,,,,,,,,,,,,,,,,,,,,,,,,,,,,,,,,369.960235800012,369.97629920000327,370.461272000015,370.4943196999957,370.51248450001003,370.51248450001003,370.51248450001003,371.9503917999973,Scenes\084a.jpg,post,n,1.4228682999964803,None,,,,,,,,00036,001,2026-01-16_15h43.24.043,MST_test,2024.2.0,59.74536526181681,2026-01-16 15h43.48.039213 +0530,
116,0,117,s,2.055612999974983,None,117,0,116,371.9666983000061,,,,,,,,,,,,,,,,,,,,,,,,,,,,,,,,,,,,,,,,,,,,,,,,,,371.95048850000603,371.9666983000061,372.45169230000465,372.4932501000003,372.5025753999944,372.5025753999944,372.5025753999944,374.5597213000001,Scenes\142b.jpg,post,s,2.055612999974983,None,,,,,,,,00036,001,2026-01-16_15h43.24.043,MST_test,2024.2.0,59.74536526181681,2026-01-16 15h43.48.039213 +0530,
117,0,118,o,1.2963219000084791,None,118,0,117,374.5755921000091,,,,,,,,,,,,,,,,,,,,,,,,,,,,,,,,,,,,,,,,,,,,,,,,,,374.5598161999951,374.5755921000091,375.0610948000103,375.08669830000144,375.09498140000505,375.09498140000505,375.09498140000505,376.39952740000444,Objects\184b.jpg,post,o,1.2963219000084791,None,,,,,,,,00036,001,2026-01-16_15h43.24.043,MST_test,2024.2.0,59.74536526181681,2026-01-16 15h43.48.039213 +0530,
118,0,119,s,2.3751775000127964,None,119,0,118,376.4155727000034,,,,,,,,,,,,,,,,,,,,,,,,,,,,,,,,,,,,,,,,,,,,,,,,,,376.3996201000118,376.4155727000034,376.9013324000116,376.9368868000165,376.951519299997,376.951519299997,376.951519299997,379.34307740000077,Scenes\088a.jpg,mid,s,2.3751775000127964,None,,,,,,,,00036,001,2026-01-16_15h43.24.043,MST_test,2024.2.0,59.74536526181681,2026-01-16 15h43.48.039213 +0530,
119,0,120,n,1.5830436999967787,None,120,0,119,379.35914489999413,,,,,,,,,,,,,,,,,,,,,,,,,,,,,,,,,,,,,,,,,,,,,,,,,,379.34317450001254,379.35914489999413,379.8441308000183,379.8857330000028,379.8959788000211,379.8959788000211,379.8959788000211,381.483919100021,Scenes\103b.jpg,mid,n,1.5830436999967787,None,,,,,,,,00036,001,2026-01-16_15h43.24.043,MST_test,2024.2.0,59.74536526181681,2026-01-16 15h43.48.039213 +0530,
120,0,121,o,1.1471212999895215,None,121,0,120,381.4999777000048,,,,,,,,,,,,,,,,,,,,,,,,,,,,,,,,,,,,,,,,,,,,,,,,,,381.4840130000084,381.4999777000048,381.98510940000415,382.0007710000209,382.01924580000923,382.01924580000923,382.01924580000923,383.17360760000884,Objects\077a.jpg,post,o,1.1471212999895215,None,,,,,,,,00036,001,2026-01-16_15h43.24.043,MST_test,2024.2.0,59.74536526181681,2026-01-16 15h43.48.039213 +0530,
121,0,122,o,0.9708482999994885,None,122,0,121,383.1895124000148,,,,,,,,,,,,,,,,,,,,,,,,,,,,,,,,,,,,,,,,,,,,,,,,,,383.1737194000161,383.1895124000148,383.6742007000139,383.6891426999937,383.7077215000172,383.7077215000172,383.7077215000172,384.6952377000125,Objects\158a.jpg,mid,o,0.9708482999994885,None,,,,,,,,00036,001,2026-01-16_15h43.24.043,MST_test,2024.2.0,59.74536526181681,2026-01-16 15h43.48.039213 +0530,
122,0,123,s,3.3340097999898717,None,123,0,122,384.71123830002034,,,,,,,,,,,,,,,,,,,,,,,,,,,,,,,,,,,,,,,,,,,,,,,,,,384.6953313999984,384.71123830002034,385.1963958000124,385.25721209999756,385.2806642999931,385.2806642999931,385.2806642999931,388.62544410000555,Foils\scenes23.jpg,none,s,3.3340097999898717,None,,,,,,,,00036,001,2026-01-16_15h43.24.043,MST_test,2024.2.0,59.74536526181681,2026-01-16 15h43.48.039213 +0530,
123,0,124,n,2.358914399985224,None,124,0,123,388.641661200003,,,,,,,,,,,,,,,,,,,,,,,,,,,,,,,,,,,,,,,,,,,,,,,,,,388.6255443000118,388.641661200003,389.126860999997,389.1432902000088,389.1601045000134,389.1601045000134,389.1601045000134,391.53569580000476,Objects\087a.jpg,mid,n,2.358914399985224,None,,,,,,,,00036,001,2026-01-16_15h43.24.043,MST_test,2024.2.0,59.74536526181681,2026-01-16 15h43.48.039213 +0530,
124,0,125,o,0.823302100005094,None,125,0,124,391.55172680001124,,,,,,,,,,,,,,,,,,,,,,,,,,,,,,,,,,,,,,,,,,,,,,,,,,391.5357870000007,391.55172680001124,392.0372772999981,392.05259219999425,392.07102050000685,392.07102050000685,392.07102050000685,392.90715100002126,Objects\170a.jpg,pre,o,0.823302100005094,None,,,,,,,,00036,001,2026-01-16_15h43.24.043,MST_test,2024.2.0,59.74536526181681,2026-01-16 15h43.48.039213 +0530,
125,0,126,o,1.18160280000302,None,126,0,125,392.92331490002107,,,,,,,,,,,,,,,,,,,,,,,,,,,,,,,,,,,,,,,,,,,,,,,,,,392.9072459000163,392.92331490002107,393.4082926000119,393.4220608000178,393.4417597000138,393.4417597000138,393.4417597000138,394.6298767999979,Objects\134a.jpg,post,o,1.18160280000302,None,,,,,,,,00036,001,2026-01-16_15h43.24.043,MST_test,2024.2.0,59.74536526181681,2026-01-16 15h43.48.039213 +0530,
126,0,127,o,0.6427646999945864,None,127,0,126,394.64611610001884,,,,,,,,,,,,,,,,,,,,,,,,,,,,,,,,,,,,,,,,,,,,,,,,,,394.6299714000197,394.64611610001884,395.13100389999454,395.1467648000107,395.1644835000043,395.1644835000043,395.1644835000043,395.8173604000185,Objects\042a.jpg,pre,o,0.6427646999945864,None,,,,,,,,00036,001,2026-01-16_15h43.24.043,MST_test,2024.2.0,59.74536526181681,2026-01-16 15h43.48.039213 +0530,
127,0,128,o,0.7992411000013817,None,128,0,127,395.8335984000005,,,,,,,,,,,,,,,,,,,,,,,,,,,,,,,,,,,,,,,,,,,,,,,,,,395.8174532999983,395.8335984000005,396.3184725000174,396.3328720999998,396.35194370002137,396.35194370002137,396.35194370002137,397.15550419999636,Objects\161a.jpg,pre,o,0.7992411000013817,None,,,,,,,,00036,001,2026-01-16_15h43.24.043,MST_test,2024.2.0,59.74536526181681,2026-01-16 15h43.48.039213 +0530,
128,0,129,s,1.2973189000040293,None,129,0,128,397.171548000013,,,,,,,,,,,,,,,,,,,,,,,,,,,,,,,,,,,,,,,,,,,,,,,,,,397.1555933000054,397.171548000013,397.65660280000884,397.6747176000208,397.7251322999946,397.7251322999946,397.7251322999946,399.02841940001235,Foils\scenes2.jpg,none,s,1.2973189000040293,None,,,,,,,,00036,001,2026-01-16_15h43.24.043,MST_test,2024.2.0,59.74536526181681,2026-01-16 15h43.48.039213 +0530,
129,0,130,s,3.6992066000238992,None,130,0,129,399.044919500011,,,,,,,,,,,,,,,,,,,,,,,,,,,,,,,,,,,,,,,,,,,,,,,,,,399.0285128999967,399.044919500011,399.5298914000159,399.5525644000154,399.5633624000184,399.5633624000184,399.5633624000184,403.27679570001783,Objects\044b.jpg,mid,s,3.6992066000238992,None,,,,,,,,00036,001,2026-01-16_15h43.24.043,MST_test,2024.2.0,59.74536526181681,2026-01-16 15h43.48.039213 +0530,
130,0,131,s,1.3546272999956273,None,131,0,130,403.293007100001,,,,,,,,,,,,,,,,,,,,,,,,,,,,,,,,,,,,,,,,,,,,,,,,,,403.2768941000104,403.293007100001,403.77806470001815,403.8007342000201,403.81203130001086,403.81203130001086,403.81203130001086,405.18335579999257,Scenes\138a.jpg,post,s,1.3546272999956273,None,,,,,,,,00036,001,2026-01-16_15h43.24.043,MST_test,2024.2.0,59.74536526181681,2026-01-16 15h43.48.039213 +0530,
131,0,132,n,3.5354979999829084,None,132,0,131,405.19965690001845,,,,,,,,,,,,,,,,,,,,,,,,,,,,,,,,,,,,,,,,,,,,,,,,,,405.18345240000053,405.19965690001845,405.68460569999297,405.7231796999986,405.7356407000043,405.7356407000043,405.7356407000043,409.28123870000127,Scenes\027b.jpg,mid,n,3.5354979999829084,None,,,,,,,,00036,001,2026-01-16_15h43.24.043,MST_test,2024.2.0,59.74536526181681,2026-01-16 15h43.48.039213 +0530,
132,0,133,s,1.2621123999997508,None,133,0,132,409.2973343000049,,,,,,,,,,,,,,,,,,,,,,,,,,,,,,,,,,,,,,,,,,,,,,,,,,409.28132900001947,409.2973343000049,409.7823263000173,409.8064484000206,409.81657710002037,409.81657710002037,409.81657710002037,411.08760359999724,Objects\018b.jpg,post,s,1.2621123999997508,None,,,,,,,,00036,001,2026-01-16_15h43.24.043,MST_test,2024.2.0,59.74536526181681,2026-01-16 15h43.48.039213 +0530,
133,0,134,o,2.413816799991764,None,134,0,133,411.1036562999943,,,,,,,,,,,,,,,,,,,,,,,,,,,,,,,,,,,,,,,,,,,,,,,,,,411.08769570000004,411.1036562999943,411.5886165999982,411.6341708000109,411.6564489000011,411.6564489000011,411.6564489000011,414.08172479999484,Scenes\045b.jpg,mid,o,2.413816799991764,None,,,,,,,,00036,001,2026-01-16_15h43.24.043,MST_test,2024.2.0,59.74536526181681,2026-01-16 15h43.48.039213 +0530,
134,0,135,o,0.7754406000021845,None,135,0,134,414.09748460000264,,,,,,,,,,,,,,,,,,,,,,,,,,,,,,,,,,,,,,,,,,,,,,,,,,414.08200220001163,414.09748460000264,414.58248129999265,414.5996630000009,414.61578890000237,414.61578890000237,414.61578890000237,415.4029272000189,Objects\064a.jpg,mid,o,0.7754406000021845,None,,,,,,,,00036,001,2026-01-16_15h43.24.043,MST_test,2024.2.0,59.74536526181681,2026-01-16 15h43.48.039213 +0530,
135,0,136,n,6.381274000013946,None,136,0,135,415.41863950001425,,,,,,,,,,,,,,,,,,,,,,,,,,,,,,,,,,,,,,,,,,,,,,,,,,415.4030195999949,415.41863950001425,415.90385150001384,415.9267846000148,415.9370823999925,415.9370823999925,415.9370823999925,422.32669570000144,Foils\098a.jpg,none,n,6.381274000013946,None,,,,,,,,00036,001,2026-01-16_15h43.24.043,MST_test,2024.2.0,59.74536526181681,2026-01-16 15h43.48.039213 +0530,
136,0,137,n,1.3848747999873012,None,137,0,136,422.3431273000024,,,,,,,,,,,,,,,,,,,,,,,,,,,,,,,,,,,,,,,,,,,,,,,,,,422.32679140000255,422.3431273000024,422.8280986000027,422.8510588000063,422.86133260000497,422.86133260000497,422.86133260000497,424.2501742000168,Foils\086a.jpg,none,n,1.3848747999873012,None,,,,,,,,00036,001,2026-01-16_15h43.24.043,MST_test,2024.2.0,59.74536526181681,2026-01-16 15h43.48.039213 +0530,
137,0,138,n,0.6863597000192385,None,138,0,137,424.26640960000805,,,,,,,,,,,,,,,,,,,,,,,,,,,,,,,,,,,,,,,,,,,,,,,,,,424.25026590001653,424.26640960000805,424.7516347000201,424.77472380001564,424.7847257000103,424.7847257000103,424.7847257000103,425.4878230000031,Objects\106b.jpg,mid,n,0.6863597000192385,None,,,,,,,,00036,001,2026-01-16_15h43.24.043,MST_test,2024.2.0,59.74536526181681,2026-01-16 15h43.48.039213 +0530,
138,0,139,n,0.9187439000234008,None,139,0,138,425.5040779999981,,,,,,,,,,,,,,,,,,,,,,,,,,,,,,,,,,,,,,,,,,,,,,,,,,425.48791789999814,425.5040779999981,425.98904980000225,426.0082953000092,426.02332609999576,426.02332609999576,426.02332609999576,426.94333440001355,Foils\scenes16.jpg,none,n,0.9187439000234008,None,,,,,,,,00036,001,2026-01-16_15h43.24.043,MST_test,2024.2.0,59.74536526181681,2026-01-16 15h43.48.039213 +0530,
139,0,140,o,0.8652177999902051,None,140,0,139,426.9590564999962,,,,,,,,,,,,,,,,,,,,,,,,,,,,,,,,,,,,,,,,,,,,,,,,,,426.9434271999926,426.9590564999962,427.4442972000106,427.4676209000172,427.4775048000156,427.4775048000156,427.4775048000156,428.34794279999915,Foils\034a.jpg,none,o,0.8652177999902051,None,,,,,,,,00036,001,2026-01-16_15h43.24.043,MST_test,2024.2.0,59.74536526181681,2026-01-16 15h43.48.039213 +0530,
140,0,141,o,0.7393889999948442,None,141,0,140,428.3640970000124,,,,,,,,,,,,,,,,,,,,,,,,,,,,,,,,,,,,,,,,,,,,,,,,,,428.3480387000018,428.3640970000124,428.8492524000176,428.8641819000186,428.88264210001216,428.88264210001216,428.88264210001216,429.6358758000133,Objects\036a.jpg,mid,o,0.7393889999948442,None,,,,,,,,00036,001,2026-01-16_15h43.24.043,MST_test,2024.2.0,59.74536526181681,2026-01-16 15h43.48.039213 +0530,
141,0,142,s,1.0034780999994837,None,142,0,141,429.65192679999745,,,,,,,,,,,,,,,,,,,,,,,,,,,,,,,,,,,,,,,,,,,,,,,,,,429.63598510000156,429.65192679999745,430.1368843000091,430.1611358000082,430.1704929000116,430.1704929000116,430.1704929000116,431.1748053000192,Objects\063b.jpg,mid,s,1.0034780999994837,None,,,,,,,,00036,001,2026-01-16_15h43.24.043,MST_test,2024.2.0,59.74536526181681,2026-01-16 15h43.48.039213 +0530,
142,0,143,n,1.5441293000185397,None,143,0,142,431.1907535000064,,,,,,,,,,,,,,,,,,,,,,,,,,,,,,,,,,,,,,,,,,,,,,,,,,431.1748978999967,431.1907535000064,431.6759075000009,431.71184470001026,431.7264746000001,431.7264746000001,431.7264746000001,433.2819745000161,Scenes\083b.jpg,pre,n,1.5441293000185397,None,,,,,,,,00036,001,2026-01-16_15h43.24.043,MST_test,2024.2.0,59.74536526181681,2026-01-16 15h43.48.039213 +0530,
143,0,144,n,0.9640642999729607,None,144,0,143,433.29790830001,,,,,,,,,,,,,,,,,,,,,,,,,,,,,,,,,,,,,,,,,,,,,,,,,,433.2820786999946,433.29790830001,433.78329280001344,433.83475989999715,433.85076269999263,433.85076269999263,433.85076269999263,434.8205990999995,Foils\scenes22.jpg,none,n,0.9640642999729607,None,,,,,,,,00036,001,2026-01-16_15h43.24.043,MST_test,2024.2.0,59.74536526181681,2026-01-16 15h43.48.039213 +0530,
144,0,145,n,0.8431450999923982,None,145,0,144,434.83675340001355,,,,,,,,,,,,,,,,,,,,,,,,,,,,,,,,,,,,,,,,,,,,,,,,,,434.82069630001206,434.83675340001355,435.3217275000061,435.3555549000157,435.37182610001764,435.37182610001764,435.37182610001764,436.2255454999977,Scenes\144b.jpg,post,n,0.8431450999923982,None,,,,,,,,00036,001,2026-01-16_15h43.24.043,MST_test,2024.2.0,59.74536526181681,2026-01-16 15h43.48.039213 +0530,
145,0,146,n,0.7978427000052761,None,146,0,145,436.24156620001304,,,,,,,,,,,,,,,,,,,,,,,,,,,,,,,,,,,,,,,,,,,,,,,,,,436.2256403999927,436.24156620001304,436.72676180000417,436.74122960001114,436.76113650001935,436.76113650001935,436.76113650001935,437.5635533000168,Objects\086a.jpg,pre,n,0.7978427000052761,None,,,,,,,,00036,001,2026-01-16_15h43.24.043,MST_test,2024.2.0,59.74536526181681,2026-01-16 15h43.48.039213 +0530,
146,0,147,n,0.6778931000153534,None,147,0,146,437.5795919999946,,,,,,,,,,,,,,,,,,,,,,,,,,,,,,,,,,,,,,,,,,,,,,,,,,437.5636443000112,437.5795919999946,438.0648013000027,438.0881886999996,438.098023700004,438.098023700004,438.098023700004,438.7843842000002,Objects\032b.jpg,post,n,0.6778931000153534,None,,,,,,,,00036,001,2026-01-16_15h43.24.043,MST_test,2024.2.0,59.74536526181681,2026-01-16 15h43.48.039213 +0530,
147,0,148,n,1.8874279000156093,None,148,0,147,438.8005487000046,,,,,,,,,,,,,,,,,,,,,,,,,,,,,,,,,,,,,,,,,,,,,,,,,,438.78447800001595,438.8005487000046,439.2858858999971,439.47472749999724,439.48757319999277,439.48757319999277,439.48757319999277,441.3765968999942,Foils\scenes25.jpg,none,n,1.8874279000156093,None,,,,,,,,00036,001,2026-01-16_15h43.24.043,MST_test,2024.2.0,59.74536526181681,2026-01-16 15h43.48.039213 +0530,
148,0,149,s,1.1046550999744795,None,149,0,148,441.3932285000046,,,,,,,,,,,,,,,,,,,,,,,,,,,,,,,,,,,,,,,,,,,,,,,,,,441.3766954000166,441.3932285000046,441.8784300000116,441.9045429000107,441.9109228000161,441.9109228000161,441.9109228000161,443.0161072000046,Objects\171b.jpg,pre,s,1.1046550999744795,None,,,,,,,,00036,001,2026-01-16_15h43.24.043,MST_test,2024.2.0,59.74536526181681,2026-01-16 15h43.48.039213 +0530,
149,0,150,n,0.9982084000075702,None,150,0,149,443.03228820001823,,,,,,,,,,,,,,,,,,,,,,,,,,,,,,,,,,,,,,,,,,,,,,,,,,443.01620800001547,443.03228820001823,443.51726469999994,443.53759250001167,443.55201680000755,443.55201680000755,443.55201680000755,444.5545534999983,Foils\scenes11.jpg,none,n,0.9982084000075702,None,,,,,,,,00036,001,2026-01-16_15h43.24.043,MST_test,2024.2.0,59.74536526181681,2026-01-16 15h43.48.039213 +0530,
,,,,,,,,,,,,,,,,,,,,,,,,,,,,,,,,,,,,,,,,,,,,,,,,,,,,,,,,,,,,,,,,,,,,,,,,444.554621999996,444.57070280000335,444.57070280000335,445.8930284999951,space,1.315492900001118,None,00036,001,2026-01-16_15h43.24.043,MST_test,2024.2.0,59.74536526181681,2026-01-16 15h43.48.039213 +0530,
