thisN,thisTrialN,thisRepN,key_resp_3.keys,key_resp_3.rt,key_resp_3.duration,trials.thisRepN,trials.thisTrialN,trials.thisN,thisRow.t,notes,intro_page.started,text.started,key_resp.started,intro_page.stopped,key_resp.keys,key_resp.rt,key_resp.duration,instructions.started,text_2.started,key_resp_2.started,instructions.stopped,key_resp_2.keys,key_resp_2.rt,key_resp_2.duration,demo1.started,image_1.started,image_2.started,text_7.started,key_resp_6.started,text_9.started,demo1.stopped,key_resp_6.keys,key_resp_6.rt,key_resp_6.duration,demo2.started,image_5.started,image_6.started,text_11.started,text_12.started,key_resp_8.started,demo2.stopped,key_resp_8.keys,key_resp_8.rt,key_resp_8.duration,demo_conclusion.started,text_13.started,key_resp_9.started,demo_conclusion.stopped,key_resp_9.keys,key_resp_9.rt,key_resp_9.duration,start_test.started,text_6.started,key_resp_5.started,start_test.stopped,key_resp_5.keys,key_resp_5.rt,key_resp_5.duration,ISI.started,text_4.started,text_4.stopped,ISI.stopped,routine_1.started,image.started,text_3.started,key_resp_3.started,routine_1.stopped,image_path,position_of_stimuli,trials.key_resp_3.keys,trials.key_resp_3.rt,trials.key_resp_3.duration,End_page.started,text_5.started,key_resp_4.started,End_page.stopped,key_resp_4.keys,key_resp_4.rt,key_resp_4.duration,participant,session,date,expName,psychopyVersion,frameRate,expStart,
,,,,,,,,,,,0.0012043000024277717,0.0027362999971956015,0.0027362999971956015,2.0928447999904165,space,2.077917200003867,None,,,,,,,,,,,,,,,,,,,,,,,,,,,,,,,,,,,,,,,,,,,,,,,,,,,,,,,,,,,,,,,00033,001,2026-01-16_11h44.00.919,MST_test,2024.2.0,59.85189051445981,2026-01-16 11h44.09.231203 +0530,
,,,,,,,,,,,,,,,,,,2.0928825000009965,2.1074134999944363,2.1074134999944363,19.374559599993518,space,17.26067139999941,None,,,,,,,,,,,,,,,,,,,,,,,,,,,,,,,,,,,,,,,,,,,,,,,,,,,,,,,,00033,001,2026-01-16_11h44.00.919,MST_test,2024.2.0,59.85189051445981,2026-01-16 11h44.09.231203 +0530,
,,,,,,,,,,,,,,,,,,,,,,,,,19.37458639999386,19.391167199995834,19.391167199995834,19.391167199995834,19.391167199995834,19.391167199995834,26.60815040000307,space,7.2094783000065945,None,,,,,,,,,,,,,,,,,,,,,,,,,,,,,,,,,,,,,,,,,,,,,,00033,001,2026-01-16_11h44.00.919,MST_test,2024.2.0,59.85189051445981,2026-01-16 11h44.09.231203 +0530,
,,,,,,,,,,,,,,,,,,,,,,,,,,,,,,,,,,,26.608179200004088,26.624594799999613,26.624594799999613,26.624594799999613,26.624594799999613,26.624594799999613,29.758392399991862,space,3.120204400009243,None,,,,,,,,,,,,,,,,,,,,,,,,,,,,,,,,,,,,00033,001,2026-01-16_11h44.00.919,MST_test,2024.2.0,59.85189051445981,2026-01-16 11h44.09.231203 +0530,
,,,,,,,,,,,,,,,,,,,,,,,,,,,,,,,,,,,,,,,,,,,,,29.75842410000041,29.773972299997695,29.773972299997695,164.4579597999982,space,134.67577149999852,None,,,,,,,,,,,,,,,,,,,,,,,,,,,,,00033,001,2026-01-16_11h44.00.919,MST_test,2024.2.0,59.85189051445981,2026-01-16 11h44.09.231203 +0530,
,,,,,,,,,,,,,,,,,,,,,,,,,,,,,,,,,,,,,,,,,,,,,,,,,,,,164.45799629999965,164.47423069999786,164.47423069999786,172.52455709999776,space,8.045977500005392,None,,,,,,,,,,,,,,,,,,,,,,00033,001,2026-01-16_11h44.00.919,MST_test,2024.2.0,59.85189051445981,2026-01-16 11h44.09.231203 +0530,
0,0,1,s,11.319365199989988,None,1,0,0,172.5408565999969,,,,,,,,,,,,,,,,,,,,,,,,,,,,,,,,,,,,,,,,,,,,,,,,,,172.52882759999193,172.5408565999969,173.0494447999954,173.02428909999435,173.04721889999928,173.0494447999954,173.0494447999954,173.0494447999954,184.37454920000164,Foils\scenes27.jpg,none,s,11.319365199989988,None,,,,,,,,00033,001,2026-01-16_11h44.00.919,MST_test,2024.2.0,59.85189051445981,2026-01-16 11h44.09.231203 +0530,
1,0,2,s,55.94926900000428,None,2,0,1,184.39081650000298,,,,,,,,,,,,,,,,,,,,,,,,,,,,,,,,,,,,,,,,,,,,,,,,,,184.37464409999666,184.39081650000298,184.89132280000194,184.8742612999922,184.88402159999532,184.89132280000194,184.89132280000194,184.89132280000194,240.84138040000107,Scenes\122a.jpg,mid,s,55.94926900000428,None,,,,,,,,00033,001,2026-01-16_11h44.00.919,MST_test,2024.2.0,59.85189051445981,2026-01-16 11h44.09.231203 +0530,
2,0,3,o,2.1232592000014847,None,3,0,2,240.85744150000392,,,,,,,,,,,,,,,,,,,,,,,,,,,,,,,,,,,,,,,,,,,,,,,,,,240.84148479999567,240.85744150000392,241.35770419999608,241.3410625999968,241.35306239999773,241.35770419999608,241.35770419999608,241.35770419999608,243.4914168999967,Objects\149b.jpg,mid,o,2.1232592000014847,None,,,,,,,,00033,001,2026-01-16_11h44.00.919,MST_test,2024.2.0,59.85189051445981,2026-01-16 11h44.09.231203 +0530,
3,0,4,s,2.04110159999982,None,4,0,3,243.50754269999743,,,,,,,,,,,,,,,,,,,,,,,,,,,,,,,,,,,,,,,,,,,,,,,,,,243.49151449999772,243.50754269999743,244.00785500000347,243.99103879999893,243.99342590000015,244.00785500000347,244.00785500000347,244.00785500000347,246.05817000000388,Foils\scenes16.jpg,none,s,2.04110159999982,None,,,,,,,,00033,001,2026-01-16_11h44.00.919,MST_test,2024.2.0,59.85189051445981,2026-01-16 11h44.09.231203 +0530,
4,0,5,n,1.4855816999915987,None,5,0,4,246.07413429999724,,,,,,,,,,,,,,,,,,,,,,,,,,,,,,,,,,,,,,,,,,,,,,,,,,246.0582609999983,246.07413429999724,246.79584700000123,246.55780219999724,246.79163189999235,246.79584700000123,246.79584700000123,246.79584700000123,248.29157449999184,Foils\scenes26.jpg,none,n,1.4855816999915987,None,,,,,,,,00033,001,2026-01-16_11h44.00.919,MST_test,2024.2.0,59.85189051445981,2026-01-16 11h44.09.231203 +0530,
5,0,6,n,1.2408311999897705,None,6,0,5,248.30748219999077,,,,,,,,,,,,,,,,,,,,,,,,,,,,,,,,,,,,,,,,,,,,,,,,,,248.29166469999473,248.30748219999077,248.8315925999923,248.79109769999923,248.82966989999113,248.8315925999923,248.8315925999923,248.8315925999923,250.07478139999148,Foils\081a.jpg,none,n,1.2408311999897705,None,,,,,,,,00033,001,2026-01-16_11h44.00.919,MST_test,2024.2.0,59.85189051445981,2026-01-16 11h44.09.231203 +0530,
6,0,7,n,11.60951800001203,None,7,0,6,250.09085989999585,,,,,,,,,,,,,,,,,,,,,,,,,,,,,,,,,,,,,,,,,,,,,,,,,,250.07487409999885,250.09085989999585,250.5914003999933,250.5744854999939,250.58537109999452,250.5914003999933,250.5914003999933,250.5914003999933,262.20812539999315,Scenes\125b.jpg,post,n,11.60951800001203,None,,,,,,,,00033,001,2026-01-16_11h44.00.919,MST_test,2024.2.0,59.85189051445981,2026-01-16 11h44.09.231203 +0530,
7,0,8,o,3.0290276000014273,None,8,0,7,262.224120999992,,,,,,,,,,,,,,,,,,,,,,,,,,,,,,,,,,,,,,,,,,,,,,,,,,262.2082176999975,262.224120999992,262.72442719999526,262.7079123000003,262.7118611999904,262.72442719999526,262.72442719999526,262.72442719999526,265.75809200000367,Objects\063a.jpg,post,o,3.0290276000014273,None,,,,,,,,00033,001,2026-01-16_11h44.00.919,MST_test,2024.2.0,59.85189051445981,2026-01-16 11h44.09.231203 +0530,
8,0,9,o,0.9262719000107609,None,9,0,8,265.7742067999934,,,,,,,,,,,,,,,,,,,,,,,,,,,,,,,,,,,,,,,,,,,,,,,,,,265.7581819000043,265.7742067999934,266.27450050000334,266.25772850000067,266.26040400000056,266.27450050000334,266.27450050000334,266.27450050000334,267.2081903999933,Objects\023a.jpg,pre,o,0.9262719000107609,None,,,,,,,,00033,001,2026-01-16_11h44.00.919,MST_test,2024.2.0,59.85189051445981,2026-01-16 11h44.09.231203 +0530,
9,0,10,o,1.1562181000044802,None,10,0,9,267.22417990000395,,,,,,,,,,,,,,,,,,,,,,,,,,,,,,,,,,,,,,,,,,,,,,,,,,267.20828910000273,267.22417990000395,267.7246998000046,267.7077752000041,267.7171549999912,267.7246998000046,267.7246998000046,267.7246998000046,268.89137699999264,Scenes\035a.jpg,post,o,1.1562181000044802,None,,,,,,,,00033,001,2026-01-16_11h44.00.919,MST_test,2024.2.0,59.85189051445981,2026-01-16 11h44.09.231203 +0530,
10,0,11,o,0.8086532000015723,None,11,0,10,268.90755839999474,,,,,,,,,,,,,,,,,,,,,,,,,,,,,,,,,,,,,,,,,,,,,,,,,,268.89146840000467,268.90755839999474,269.4079219999985,269.39119100000244,269.3943445000041,269.4079219999985,269.4079219999985,269.4079219999985,270.22488670000166,Objects\115a.jpg,mid,o,0.8086532000015723,None,,,,,,,,00033,001,2026-01-16_11h44.00.919,MST_test,2024.2.0,59.85189051445981,2026-01-16 11h44.09.231203 +0530,
11,0,12,s,2.075807300003362,None,12,0,11,270.2408262999961,,,,,,,,,,,,,,,,,,,,,,,,,,,,,,,,,,,,,,,,,,,,,,,,,,270.2249773999938,270.2408262999961,270.7412755999976,270.7243986999965,270.7264961000037,270.7412755999976,270.7412755999976,270.7412755999976,272.8246972999914,Foils\scenes8.jpg,none,s,2.075807300003362,None,,,,,,,,00033,001,2026-01-16_11h44.00.919,MST_test,2024.2.0,59.85189051445981,2026-01-16 11h44.09.231203 +0530,
12,0,13,n,2.026948099999572,None,13,0,12,272.840909999999,,,,,,,,,,,,,,,,,,,,,,,,,,,,,,,,,,,,,,,,,,,,,,,,,,272.82478899999114,272.840909999999,273.3412848000007,273.324449599997,273.3274158999993,273.3412848000007,273.3412848000007,273.3412848000007,275.37463829999615,Foils\049a.jpg,none,n,2.026948099999572,None,,,,,,,,00033,001,2026-01-16_11h44.00.919,MST_test,2024.2.0,59.85189051445981,2026-01-16 11h44.09.231203 +0530,
13,0,14,o,1.3730674999969779,None,14,0,13,275.390922599996,,,,,,,,,,,,,,,,,,,,,,,,,,,,,,,,,,,,,,,,,,,,,,,,,,275.3747294999921,275.390922599996,275.8911786999961,275.87441509999917,275.8770383999945,275.8911786999961,275.8911786999961,275.8911786999961,277.2746250999917,Objects\192a.jpg,pre,o,1.3730674999969779,None,,,,,,,,00033,001,2026-01-16_11h44.00.919,MST_test,2024.2.0,59.85189051445981,2026-01-16 11h44.09.231203 +0530,
14,0,15,n,1.5373876999947242,None,15,0,14,277.2909071000031,,,,,,,,,,,,,,,,,,,,,,,,,,,,,,,,,,,,,,,,,,,,,,,,,,277.2747178999998,277.2909071000031,277.7910386000003,277.7743848999962,277.78459300000395,277.7910386000003,277.7910386000003,277.7910386000003,279.3414531000017,Foils\098a.jpg,none,n,1.5373876999947242,None,,,,,,,,00033,001,2026-01-16_11h44.00.919,MST_test,2024.2.0,59.85189051445981,2026-01-16 11h44.09.231203 +0530,
15,0,16,s,3.9353414999932284,None,16,0,15,279.3575393999927,,,,,,,,,,,,,,,,,,,,,,,,,,,,,,,,,,,,,,,,,,,,,,,,,,279.34154539999145,279.3575393999927,279.8577695999993,279.8411561999965,279.8442312999978,279.8577695999993,279.8577695999993,279.8577695999993,283.80827759999374,Foils\scenes11.jpg,none,s,3.9353414999932284,None,,,,,,,,00033,001,2026-01-16_11h44.00.919,MST_test,2024.2.0,59.85189051445981,2026-01-16 11h44.09.231203 +0530,
16,0,17,n,1.948634000000311,None,17,0,16,283.8241229999985,,,,,,,,,,,,,,,,,,,,,,,,,,,,,,,,,,,,,,,,,,,,,,,,,,283.8083686000027,283.8241229999985,284.32440060000226,284.3077723000024,284.3115426000004,284.32440060000226,284.32440060000226,284.32440060000226,286.2747842999961,Objects\058a.jpg,pre,n,1.948634000000311,None,,,,,,,,00033,001,2026-01-16_11h44.00.919,MST_test,2024.2.0,59.85189051445981,2026-01-16 11h44.09.231203 +0530,
17,0,18,o,1.8422481000015978,None,18,0,17,286.290897999992,,,,,,,,,,,,,,,,,,,,,,,,,,,,,,,,,,,,,,,,,,,,,,,,,,286.27488260000246,286.290897999992,286.7913711000001,286.7743840000039,286.78193389999797,286.7913711000001,286.7913711000001,286.7913711000001,288.6416070999985,Scenes\154a.jpg,post,o,1.8422481000015978,None,,,,,,,,00033,001,2026-01-16_11h44.00.919,MST_test,2024.2.0,59.85189051445981,2026-01-16 11h44.09.231203 +0530,
18,0,19,o,1.8829439999972237,None,19,0,18,288.65762220000033,,,,,,,,,,,,,,,,,,,,,,,,,,,,,,,,,,,,,,,,,,,,,,,,,,288.6417022999958,288.65762220000033,289.15803310000047,289.14114249999693,289.1447513000021,289.15803310000047,289.15803310000047,289.15803310000047,291.0416814999917,Objects\164a.jpg,mid,o,1.8829439999972237,None,,,,,,,,00033,001,2026-01-16_11h44.00.919,MST_test,2024.2.0,59.85189051445981,2026-01-16 11h44.09.231203 +0530,
19,0,20,s,5.194333599996753,None,20,0,19,291.05757409999205,,,,,,,,,,,,,,,,,,,,,,,,,,,,,,,,,,,,,,,,,,,,,,,,,,291.0417735999945,291.05757409999205,291.5578125000029,291.5410971999954,291.5507033000031,291.5578125000029,291.5578125000029,291.5578125000029,296.75806549999106,Objects\139b.jpg,post,s,5.194333599996753,None,,,,,,,,00033,001,2026-01-16_11h44.00.919,MST_test,2024.2.0,59.85189051445981,2026-01-16 11h44.09.231203 +0530,
20,0,21,o,1.2387721999984933,None,21,0,20,296.7739464999904,,,,,,,,,,,,,,,,,,,,,,,,,,,,,,,,,,,,,,,,,,,,,,,,,,296.7581607000029,296.7739464999904,297.27433620000375,297.25777499999094,297.2604464000033,297.27433620000375,297.27433620000375,297.27433620000375,298.5246017000027,Objects\169a.jpg,post,o,1.2387721999984933,None,,,,,,,,00033,001,2026-01-16_11h44.00.919,MST_test,2024.2.0,59.85189051445981,2026-01-16 11h44.09.231203 +0530,
21,0,22,s,1.3430212999955984,None,22,0,21,298.54083209999953,,,,,,,,,,,,,,,,,,,,,,,,,,,,,,,,,,,,,,,,,,,,,,,,,,298.52470029999677,298.54083209999953,299.0412337000016,299.02445169999555,299.03409159999865,299.0412337000016,299.0412337000016,299.0412337000016,300.39148629999545,Scenes\070a.jpg,mid,s,1.3430212999955984,None,,,,,,,,00033,001,2026-01-16_11h44.00.919,MST_test,2024.2.0,59.85189051445981,2026-01-16 11h44.09.231203 +0530,
22,0,23,o,1.500215300009586,None,23,0,22,300.4076028999989,,,,,,,,,,,,,,,,,,,,,,,,,,,,,,,,,,,,,,,,,,,,,,,,,,300.3915754000045,300.4076028999989,300.9080471999914,300.89116430000286,300.89397829999507,300.9080471999914,300.9080471999914,300.9080471999914,302.42459619999863,Objects\119a.jpg,pre,o,1.500215300009586,None,,,,,,,,00033,001,2026-01-16_11h44.00.919,MST_test,2024.2.0,59.85189051445981,2026-01-16 11h44.09.231203 +0530,
23,0,24,o,0.8672882000100799,None,24,0,23,302.44080419999955,,,,,,,,,,,,,,,,,,,,,,,,,,,,,,,,,,,,,,,,,,,,,,,,,,302.42468830000143,302.44080419999955,302.94097850000253,302.9242929000029,302.9342905999947,302.94097850000253,302.94097850000253,302.94097850000253,303.82462600000144,Objects\113b.jpg,pre,o,0.8672882000100799,None,,,,,,,,00033,001,2026-01-16_11h44.00.919,MST_test,2024.2.0,59.85189051445981,2026-01-16 11h44.09.231203 +0530,
24,0,25,n,3.55527370001073,None,25,0,24,303.8407952999987,,,,,,,,,,,,,,,,,,,,,,,,,,,,,,,,,,,,,,,,,,,,,,,,,,303.8247190999973,303.8407952999987,304.34101309999824,304.32435819999955,304.32681030000094,304.34101309999824,304.34101309999824,304.34101309999824,307.9079383999924,Foils\034a.jpg,none,n,3.55527370001073,None,,,,,,,,00033,001,2026-01-16_11h44.00.919,MST_test,2024.2.0,59.85189051445981,2026-01-16 11h44.09.231203 +0530,
25,0,26,o,1.215776500001084,None,26,0,25,307.92401360000076,,,,,,,,,,,,,,,,,,,,,,,,,,,,,,,,,,,,,,,,,,,,,,,,,,307.90802780000377,307.92401360000076,308.42444419999083,308.40775149999536,308.41558200000145,308.42444419999083,308.42444419999083,308.42444419999083,309.64145409999765,Scenes\074a.jpg,mid,o,1.215776500001084,None,,,,,,,,00033,001,2026-01-16_11h44.00.919,MST_test,2024.2.0,59.85189051445981,2026-01-16 11h44.09.231203 +0530,
26,0,27,n,1.4824793000007048,None,27,0,26,309.6573946999997,,,,,,,,,,,,,,,,,,,,,,,,,,,,,,,,,,,,,,,,,,,,,,,,,,309.6415446000028,309.6573946999997,310.1579001999926,310.14106199999515,310.1440803000005,310.1579001999926,310.1579001999926,310.1579001999926,311.64133559999755,Foils\093b.jpg,none,n,1.4824793000007048,None,,,,,,,,00033,001,2026-01-16_11h44.00.919,MST_test,2024.2.0,59.85189051445981,2026-01-16 11h44.09.231203 +0530,
27,0,28,s,1.5868986999994377,None,28,0,27,311.6574929999915,,,,,,,,,,,,,,,,,,,,,,,,,,,,,,,,,,,,,,,,,,,,,,,,,,311.6414373000007,311.6574929999915,312.1576745999919,312.1410809999943,312.1521137999953,312.1576745999919,312.1576745999919,312.1576745999919,313.7580395999976,Objects\068b.jpg,pre,s,1.5868986999994377,None,,,,,,,,00033,001,2026-01-16_11h44.00.919,MST_test,2024.2.0,59.85189051445981,2026-01-16 11h44.09.231203 +0530,
28,0,29,s,1.3185748999967473,None,29,0,28,313.77407729999686,,,,,,,,,,,,,,,,,,,,,,,,,,,,,,,,,,,,,,,,,,,,,,,,,,313.7581299000012,313.77407729999686,314.27441369999724,314.257935200003,314.26737069999217,314.27441369999724,314.27441369999724,314.27441369999724,315.60801929999434,Scenes\013a.jpg,post,s,1.3185748999967473,None,,,,,,,,00033,001,2026-01-16_11h44.00.919,MST_test,2024.2.0,59.85189051445981,2026-01-16 11h44.09.231203 +0530,
29,0,30,n,4.474721799997496,None,30,0,29,315.6239992999908,,,,,,,,,,,,,,,,,,,,,,,,,,,,,,,,,,,,,,,,,,,,,,,,,,315.6081173999992,315.6239992999908,316.1262038999994,316.1077305999934,316.12402089999523,316.1262038999994,316.1262038999994,316.1262038999994,320.60809799999697,Scenes\167b.jpg,mid,n,4.474721799997496,None,,,,,,,,00033,001,2026-01-16_11h44.00.919,MST_test,2024.2.0,59.85189051445981,2026-01-16 11h44.09.231203 +0530,
30,0,31,o,1.9966015000100015,None,31,0,30,320.62399110000115,,,,,,,,,,,,,,,,,,,,,,,,,,,,,,,,,,,,,,,,,,,,,,,,,,320.6081897999975,320.62399110000115,321.12449649999326,321.10778469999786,321.11080260000017,321.12449649999326,321.12449649999326,321.12449649999326,323.12461600000097,Objects\143a.jpg,pre,o,1.9966015000100015,None,,,,,,,,00033,001,2026-01-16_11h44.00.919,MST_test,2024.2.0,59.85189051445981,2026-01-16 11h44.09.231203 +0530,
31,0,32,o,2.136515899997903,None,32,0,31,323.14080749999266,,,,,,,,,,,,,,,,,,,,,,,,,,,,,,,,,,,,,,,,,,,,,,,,,,323.1247124999936,323.14080749999266,323.641034100001,323.62432499999704,323.6341728999978,323.641034100001,323.641034100001,323.641034100001,325.79137959999207,Objects\090b.jpg,mid,o,2.136515899997903,None,,,,,,,,00033,001,2026-01-16_11h44.00.919,MST_test,2024.2.0,59.85189051445981,2026-01-16 11h44.09.231203 +0530,
32,0,33,s,2.380958499998087,None,33,0,32,325.80748029999086,,,,,,,,,,,,,,,,,,,,,,,,,,,,,,,,,,,,,,,,,,,,,,,,,,325.79148069999064,325.80748029999086,326.3079807000031,326.29117589999805,326.30084660000284,326.3079807000031,326.3079807000031,326.3079807000031,328.691402299999,Scenes\059a.jpg,pre,s,2.380958499998087,None,,,,,,,,00033,001,2026-01-16_11h44.00.919,MST_test,2024.2.0,59.85189051445981,2026-01-16 11h44.09.231203 +0530,
33,0,34,o,1.6963348999997834,None,34,0,33,328.7074714000046,,,,,,,,,,,,,,,,,,,,,,,,,,,,,,,,,,,,,,,,,,,,,,,,,,328.6914987999917,328.7074714000046,329.2079665999918,329.1910397000029,329.2012415999925,329.2079665999918,329.2079665999918,329.2079665999918,330.90795599999547,Objects\117b.jpg,post,o,1.6963348999997834,None,,,,,,,,00033,001,2026-01-16_11h44.00.919,MST_test,2024.2.0,59.85189051445981,2026-01-16 11h44.09.231203 +0530,
34,0,35,n,3.408692400000291,None,35,0,34,330.92404669999087,,,,,,,,,,,,,,,,,,,,,,,,,,,,,,,,,,,,,,,,,,,,,,,,,,330.90804480000224,330.92404669999087,331.4246060000005,331.4078284999996,331.41745169999194,331.4246060000005,331.4246060000005,331.4246060000005,334.84140900000057,Scenes\134a.jpg,pre,n,3.408692400000291,None,,,,,,,,00033,001,2026-01-16_11h44.00.919,MST_test,2024.2.0,59.85189051445981,2026-01-16 11h44.09.231203 +0530,
35,0,36,n,1.5383223000098951,None,36,0,35,334.8574021999957,,,,,,,,,,,,,,,,,,,,,,,,,,,,,,,,,,,,,,,,,,,,,,,,,,334.8415046000009,334.8574021999957,335.3580539999966,335.34104309999384,335.3508293999912,335.3580539999966,335.3580539999966,335.3580539999966,336.9079619999975,Scenes\012a.jpg,post,n,1.5383223000098951,None,,,,,,,,00033,001,2026-01-16_11h44.00.919,MST_test,2024.2.0,59.85189051445981,2026-01-16 11h44.09.231203 +0530,
36,0,37,n,1.0718988000007812,None,37,0,36,336.92408470000373,,,,,,,,,,,,,,,,,,,,,,,,,,,,,,,,,,,,,,,,,,,,,,,,,,336.90805559999717,336.92408470000373,337.4245026999997,337.40769849999924,337.4106963999948,337.4245026999997,337.4245026999997,337.4245026999997,338.5080287000019,Objects\043b.jpg,mid,n,1.0718988000007812,None,,,,,,,,00033,001,2026-01-16_11h44.00.919,MST_test,2024.2.0,59.85189051445981,2026-01-16 11h44.09.231203 +0530,
37,0,38,s,1.944839999996475,None,38,0,37,338.52409959999204,,,,,,,,,,,,,,,,,,,,,,,,,,,,,,,,,,,,,,,,,,,,,,,,,,338.5081235999969,338.52409959999204,339.0244518999971,339.0077636999922,339.01554490000126,339.0244518999971,339.0244518999971,339.0244518999971,340.97461789999215,Scenes\184a.jpg,pre,s,1.944839999996475,None,,,,,,,,00033,001,2026-01-16_11h44.00.919,MST_test,2024.2.0,59.85189051445981,2026-01-16 11h44.09.231203 +0530,
38,0,39,o,1.9214132999914,None,39,0,38,340.9908190999995,,,,,,,,,,,,,,,,,,,,,,,,,,,,,,,,,,,,,,,,,,,,,,,,,,340.9747095999919,340.9908190999995,341.49678109999513,341.4742025000014,341.49461399999564,341.49678109999513,341.49678109999513,341.49678109999513,343.4246967999934,Scenes\034b.jpg,pre,o,1.9214132999914,None,,,,,,,,00033,001,2026-01-16_11h44.00.919,MST_test,2024.2.0,59.85189051445981,2026-01-16 11h44.09.231203 +0530,
39,0,40,n,3.4031310999998823,None,40,0,39,343.440870099992,,,,,,,,,,,,,,,,,,,,,,,,,,,,,,,,,,,,,,,,,,,,,,,,,,343.4247974000027,343.440870099992,343.9415299999964,343.92423819999385,343.9339936000033,343.9415299999964,343.9415299999964,343.9415299999964,347.35802060000424,Objects\183b.jpg,pre,n,3.4031310999998823,None,,,,,,,,00033,001,2026-01-16_11h44.00.919,MST_test,2024.2.0,59.85189051445981,2026-01-16 11h44.09.231203 +0530,
40,0,41,n,1.2483374000003096,None,41,0,40,347.3740558999998,,,,,,,,,,,,,,,,,,,,,,,,,,,,,,,,,,,,,,,,,,,,,,,,,,347.3581131999963,347.3740558999998,347.8800026999961,347.85777580000286,347.87791310000466,347.8800026999961,347.8800026999961,347.8800026999961,349.1413640999963,Scenes\089b.jpg,mid,n,1.2483374000003096,None,,,,,,,,00033,001,2026-01-16_11h44.00.919,MST_test,2024.2.0,59.85189051445981,2026-01-16 11h44.09.231203 +0530,
41,0,42,n,0.8943224999966333,None,42,0,41,349.15747140000167,,,,,,,,,,,,,,,,,,,,,,,,,,,,,,,,,,,,,,,,,,,,,,,,,,349.141461399995,349.15747140000167,349.6580006000004,349.6410567999992,349.65099219999684,349.6580006000004,349.6580006000004,349.6580006000004,350.5579399999988,Objects\156b.jpg,mid,n,0.8943224999966333,None,,,,,,,,00033,001,2026-01-16_11h44.00.919,MST_test,2024.2.0,59.85189051445981,2026-01-16 11h44.09.231203 +0530,
42,0,43,n,6.878977799991844,None,43,0,42,350.57402379999985,,,,,,,,,,,,,,,,,,,,,,,,,,,,,,,,,,,,,,,,,,,,,,,,,,350.5580321000016,350.57402379999985,351.07424159999937,351.05774809999275,351.0669101999956,351.07424159999937,351.07424159999937,351.07424159999937,357.9580577000015,Objects\159b.jpg,mid,n,6.878977799991844,None,,,,,,,,00033,001,2026-01-16_11h44.00.919,MST_test,2024.2.0,59.85189051445981,2026-01-16 11h44.09.231203 +0530,
43,0,44,n,2.214207900004112,None,44,0,43,357.97397789999377,,,,,,,,,,,,,,,,,,,,,,,,,,,,,,,,,,,,,,,,,,,,,,,,,,357.9581588000001,357.97397789999377,358.4744260000007,358.458049199995,358.46073179999075,358.4744260000007,358.4744260000007,358.4744260000007,360.6913002999936,Objects\064a.jpg,post,n,2.214207900004112,None,,,,,,,,00033,001,2026-01-16_11h44.00.919,MST_test,2024.2.0,59.85189051445981,2026-01-16 11h44.09.231203 +0530,
44,0,45,o,1.9054748999915319,None,45,0,44,360.70748599999934,,,,,,,,,,,,,,,,,,,,,,,,,,,,,,,,,,,,,,,,,,,,,,,,,,360.69139089999953,360.70748599999934,361.20784139999887,361.19119050000154,361.1996875000041,361.20784139999887,361.20784139999887,361.20784139999887,363.12461610000173,Objects\040b.jpg,post,o,1.9054748999915319,None,,,,,,,,00033,001,2026-01-16_11h44.00.919,MST_test,2024.2.0,59.85189051445981,2026-01-16 11h44.09.231203 +0530,
45,0,46,n,1.359226900007343,None,46,0,45,363.14075500000035,,,,,,,,,,,,,,,,,,,,,,,,,,,,,,,,,,,,,,,,,,,,,,,,,,363.1247086999938,363.14075500000035,363.64102009999624,363.62439379999705,363.6268715000042,363.64102009999624,363.64102009999624,363.64102009999624,365.00826469999447,Foils\018a.jpg,none,n,1.359226900007343,None,,,,,,,,00033,001,2026-01-16_11h44.00.919,MST_test,2024.2.0,59.85189051445981,2026-01-16 11h44.09.231203 +0530,
46,0,47,n,1.0519846999959555,None,47,0,46,365.02417499999865,,,,,,,,,,,,,,,,,,,,,,,,,,,,,,,,,,,,,,,,,,,,,,,,,,365.00835519999964,365.02417499999865,365.5242756999942,365.5078238999995,365.5193506999931,365.5242756999942,365.5242756999942,365.5242756999942,366.59151840000413,Foils\009a.jpg,none,n,1.0519846999959555,None,,,,,,,,00033,001,2026-01-16_11h44.00.919,MST_test,2024.2.0,59.85189051445981,2026-01-16 11h44.09.231203 +0530,
47,0,48,n,0.5884686000063084,None,48,0,47,366.6076311999932,,,,,,,,,,,,,,,,,,,,,,,,,,,,,,,,,,,,,,,,,,,,,,,,,,366.59161160000076,366.6076311999932,367.1077949000028,367.09115959999326,367.10189530000207,367.1077949000028,367.1077949000028,367.1077949000028,367.70810679999704,Foils\042a.jpg,none,n,0.5884686000063084,None,,,,,,,,00033,001,2026-01-16_11h44.00.919,MST_test,2024.2.0,59.85189051445981,2026-01-16 11h44.09.231203 +0530,
48,0,49,n,4.327304399994318,None,49,0,48,367.72422239999287,,,,,,,,,,,,,,,,,,,,,,,,,,,,,,,,,,,,,,,,,,,,,,,,,,367.70819910000137,367.72422239999287,368.22487649999675,368.2077874999959,368.2147053999943,368.22487649999675,368.22487649999675,368.22487649999675,372.55816040000354,Scenes\163a.jpg,mid,n,4.327304399994318,None,,,,,,,,00033,001,2026-01-16_11h44.00.919,MST_test,2024.2.0,59.85189051445981,2026-01-16 11h44.09.231203 +0530,
49,0,50,s,2.3901819000020623,None,50,0,49,372.5741352999903,,,,,,,,,,,,,,,,,,,,,,,,,,,,,,,,,,,,,,,,,,,,,,,,,,372.5582512999972,372.5741352999903,373.07467489999544,373.0578833000036,373.061363899993,373.07467489999544,373.07467489999544,373.07467489999544,375.47457170000416,Objects\089b.jpg,mid,s,2.3901819000020623,None,,,,,,,,00033,001,2026-01-16_11h44.00.919,MST_test,2024.2.0,59.85189051445981,2026-01-16 11h44.09.231203 +0530,
50,0,51,s,1.097735699993791,None,51,0,50,375.49082229999476,,,,,,,,,,,,,,,,,,,,,,,,,,,,,,,,,,,,,,,,,,,,,,,,,,375.47466559999157,375.49082229999476,375.9910658000008,375.9745081000001,375.9771599999949,375.9910658000008,375.9910658000008,375.9910658000008,377.09144340000057,Objects\018a.jpg,mid,s,1.097735699993791,None,,,,,,,,00033,001,2026-01-16_11h44.00.919,MST_test,2024.2.0,59.85189051445981,2026-01-16 11h44.09.231203 +0530,
51,0,52,s,2.1602309000008972,None,52,0,51,377.10770500000217,,,,,,,,,,,,,,,,,,,,,,,,,,,,,,,,,,,,,,,,,,,,,,,,,,377.0915396999917,377.10770500000217,377.60802440000407,377.5912776000041,377.5987479000032,377.60802440000407,377.60802440000407,377.60802440000407,379.77473720000125,Scenes\067a.jpg,pre,s,2.1602309000008972,None,,,,,,,,00033,001,2026-01-16_11h44.00.919,MST_test,2024.2.0,59.85189051445981,2026-01-16 11h44.09.231203 +0530,
52,0,53,s,1.245468000008259,None,53,0,52,379.7909389999986,,,,,,,,,,,,,,,,,,,,,,,,,,,,,,,,,,,,,,,,,,,,,,,,,,379.7748298999941,379.7909389999986,380.29135600000154,380.2745428999915,380.28466639999533,380.29135600000154,380.29135600000154,380.29135600000154,381.54158190000453,Objects\013b.jpg,pre,s,1.245468000008259,None,,,,,,,,00033,001,2026-01-16_11h44.00.919,MST_test,2024.2.0,59.85189051445981,2026-01-16 11h44.09.231203 +0530,
53,0,54,s,2.911220099995262,None,54,0,53,381.55747610000253,,,,,,,,,,,,,,,,,,,,,,,,,,,,,,,,,,,,,,,,,,,,,,,,,,381.5416869000037,381.55747610000253,382.0577504999965,382.04118309999467,382.0509650000022,382.0577504999965,382.0577504999965,382.0577504999965,384.97494200000074,Objects\182b.jpg,pre,s,2.911220099995262,None,,,,,,,,00033,001,2026-01-16_11h44.00.919,MST_test,2024.2.0,59.85189051445981,2026-01-16 11h44.09.231203 +0530,
54,0,55,o,1.2531169000139926,None,55,0,54,384.9909179999959,,,,,,,,,,,,,,,,,,,,,,,,,,,,,,,,,,,,,,,,,,,,,,,,,,384.97503190000134,384.9909179999959,385.4911401999998,385.4745649999968,385.477555999998,385.4911401999998,385.4911401999998,385.4911401999998,386.75824699999066,Objects\099b.jpg,pre,o,1.2531169000139926,None,,,,,,,,00033,001,2026-01-16_11h44.00.919,MST_test,2024.2.0,59.85189051445981,2026-01-16 11h44.09.231203 +0530,
55,0,56,n,1.895238299999619,None,56,0,55,386.77415779999865,,,,,,,,,,,,,,,,,,,,,,,,,,,,,,,,,,,,,,,,,,,,,,,,,,386.7583381000004,386.77415779999865,387.2743483999948,387.25791949999984,387.2608765000041,387.2743483999948,387.2743483999948,387.2743483999948,389.1748804999952,Foils\002a.jpg,none,n,1.895238299999619,None,,,,,,,,00033,001,2026-01-16_11h44.00.919,MST_test,2024.2.0,59.85189051445981,2026-01-16 11h44.09.231203 +0530,
56,0,57,n,0.925913600003696,None,57,0,56,389.1909864999907,,,,,,,,,,,,,,,,,,,,,,,,,,,,,,,,,,,,,,,,,,,,,,,,,,389.1749715999904,389.1909864999907,389.69110229999933,389.6744960999931,389.68386190000456,389.69110229999933,389.69110229999933,389.69110229999933,390.6246883999993,Objects\151b.jpg,mid,n,0.925913600003696,None,,,,,,,,00033,001,2026-01-16_11h44.00.919,MST_test,2024.2.0,59.85189051445981,2026-01-16 11h44.09.231203 +0530,
57,0,58,s,2.603764700004831,None,58,0,57,390.64081939999596,,,,,,,,,,,,,,,,,,,,,,,,,,,,,,,,,,,,,,,,,,,,,,,,,,390.62478450000344,390.64081939999596,391.1411512999912,391.12428449999425,391.1332851999905,391.1411512999912,391.1411512999912,391.1411512999912,393.7580624999973,Objects\105b.jpg,pre,s,2.603764700004831,None,,,,,,,,00033,001,2026-01-16_11h44.00.919,MST_test,2024.2.0,59.85189051445981,2026-01-16 11h44.09.231203 +0530,
58,0,59,o,1.6059723000071244,None,59,0,58,393.7740383999917,,,,,,,,,,,,,,,,,,,,,,,,,,,,,,,,,,,,,,,,,,,,,,,,,,393.7581535999925,393.7740383999917,394.2742947999941,394.25774689999525,394.26016569999047,394.2742947999941,394.2742947999941,394.2742947999941,395.89143659999536,Foils\057a.jpg,none,o,1.6059723000071244,None,,,,,,,,00033,001,2026-01-16_11h44.00.919,MST_test,2024.2.0,59.85189051445981,2026-01-16 11h44.09.231203 +0530,
59,0,60,o,1.8891250000015134,None,60,0,59,395.90743429999566,,,,,,,,,,,,,,,,,,,,,,,,,,,,,,,,,,,,,,,,,,,,,,,,,,395.89152760000434,395.90743429999566,396.40774519999104,396.3910537999909,396.40028509999684,396.40774519999104,396.40774519999104,396.40774519999104,398.30818480000016,Objects\077b.jpg,mid,o,1.8891250000015134,None,,,,,,,,00033,001,2026-01-16_11h44.00.919,MST_test,2024.2.0,59.85189051445981,2026-01-16 11h44.09.231203 +0530,
60,0,61,o,1.000011700001778,None,61,0,60,398.32427660000394,,,,,,,,,,,,,,,,,,,,,,,,,,,,,,,,,,,,,,,,,,,,,,,,,,398.3082798999967,398.32427660000394,398.8241844000004,398.8078467000014,398.8103487999906,398.8241844000004,398.8241844000004,398.8241844000004,399.8248520999914,Objects\134b.jpg,pre,o,1.000011700001778,None,,,,,,,,00033,001,2026-01-16_11h44.00.919,MST_test,2024.2.0,59.85189051445981,2026-01-16 11h44.09.231203 +0530,
61,0,62,n,1.1240090999926906,None,62,0,61,399.8408327999932,,,,,,,,,,,,,,,,,,,,,,,,,,,,,,,,,,,,,,,,,,,,,,,,,,399.82494189999125,399.8408327999932,400.3410975000006,400.32426559999294,400.33353659999557,400.3410975000006,400.3410975000006,400.3410975000006,401.47463489999063,Objects\069b.jpg,post,n,1.1240090999926906,None,,,,,,,,00033,001,2026-01-16_11h44.00.919,MST_test,2024.2.0,59.85189051445981,2026-01-16 11h44.09.231203 +0530,
62,0,63,s,1.9368195999995805,None,63,0,62,401.49082069999713,,,,,,,,,,,,,,,,,,,,,,,,,,,,,,,,,,,,,,,,,,,,,,,,,,401.474724899992,401.49082069999713,401.99141819999204,401.9743973000004,401.98210259999905,401.99141819999204,401.99141819999204,401.99141819999204,403.94140080000216,Scenes\155a.jpg,post,s,1.9368195999995805,None,,,,,,,,00033,001,2026-01-16_11h44.00.919,MST_test,2024.2.0,59.85189051445981,2026-01-16 11h44.09.231203 +0530,
63,0,64,o,1.1189282999985153,None,64,0,63,403.95743290000246,,,,,,,,,,,,,,,,,,,,,,,,,,,,,,,,,,,,,,,,,,,,,,,,,,403.9414902999997,403.95743290000246,404.45791860000463,404.44099570000253,404.4440927999967,404.45791860000463,404.45791860000463,404.45791860000463,405.5913159000047,Objects\056a.jpg,post,o,1.1189282999985153,None,,,,,,,,00033,001,2026-01-16_11h44.00.919,MST_test,2024.2.0,59.85189051445981,2026-01-16 11h44.09.231203 +0530,
64,0,65,n,1.0131735000031767,None,65,0,64,405.60749450000003,,,,,,,,,,,,,,,,,,,,,,,,,,,,,,,,,,,,,,,,,,,,,,,,,,405.5914061999938,405.60749450000003,406.10775450000074,406.09109790000366,406.09360809999635,406.10775450000074,406.10775450000074,406.10775450000074,407.12468510000326,Objects\166a.jpg,post,n,1.0131735000031767,None,,,,,,,,00033,001,2026-01-16_11h44.00.919,MST_test,2024.2.0,59.85189051445981,2026-01-16 11h44.09.231203 +0530,
65,0,66,n,1.0539903000026243,None,66,0,65,407.1408892000036,,,,,,,,,,,,,,,,,,,,,,,,,,,,,,,,,,,,,,,,,,,,,,,,,,407.1247759999969,407.1408892000036,407.6428148999985,407.62427869999374,407.6407767999917,407.6428148999985,407.6428148999985,407.6428148999985,408.7081315999967,Scenes\072b.jpg,pre,n,1.0539903000026243,None,,,,,,,,00033,001,2026-01-16_11h44.00.919,MST_test,2024.2.0,59.85189051445981,2026-01-16 11h44.09.231203 +0530,
66,0,67,s,1.8293987999932142,None,67,0,66,408.72406700000283,,,,,,,,,,,,,,,,,,,,,,,,,,,,,,,,,,,,,,,,,,,,,,,,,,408.7082281000039,408.72406700000283,409.22850169999583,409.2077449999924,409.22629489999963,409.22850169999583,409.22850169999583,409.22850169999583,411.0744827000017,Scenes\142b.jpg,pre,s,1.8293987999932142,None,,,,,,,,00033,001,2026-01-16_11h44.00.919,MST_test,2024.2.0,59.85189051445981,2026-01-16 11h44.09.231203 +0530,
67,0,68,n,1.681489299997338,None,68,0,67,411.0908364999923,,,,,,,,,,,,,,,,,,,,,,,,,,,,,,,,,,,,,,,,,,,,,,,,,,411.07457389999763,411.0908364999923,411.5913314999925,411.5743350999983,411.57800749999296,411.5913314999925,411.5913314999925,411.5913314999925,413.27448949999234,Foils\073a.jpg,none,n,1.681489299997338,None,,,,,,,,00033,001,2026-01-16_11h44.00.919,MST_test,2024.2.0,59.85189051445981,2026-01-16 11h44.09.231203 +0530,
68,0,69,n,0.9532933000009507,None,69,0,68,413.29144479999377,,,,,,,,,,,,,,,,,,,,,,,,,,,,,,,,,,,,,,,,,,,,,,,,,,413.2745816999959,413.29144479999377,413.7909998999967,413.77418749999197,413.776612799993,413.7909998999967,413.7909998999967,413.7909998999967,414.7579828000016,Objects\150a.jpg,post,n,0.9532933000009507,None,,,,,,,,00033,001,2026-01-16_11h44.00.919,MST_test,2024.2.0,59.85189051445981,2026-01-16 11h44.09.231203 +0530,
69,0,70,s,2.3419782999990275,None,70,0,69,414.7741055999941,,,,,,,,,,,,,,,,,,,,,,,,,,,,,,,,,,,,,,,,,,,,,,,,,,414.7580730000045,414.7741055999941,415.2743646000017,415.25781549999374,415.26053139999567,415.2743646000017,415.2743646000017,415.2743646000017,417.62478929999634,Objects\133a.jpg,post,s,2.3419782999990275,None,,,,,,,,00033,001,2026-01-16_11h44.00.919,MST_test,2024.2.0,59.85189051445981,2026-01-16 11h44.09.231203 +0530,
70,0,71,s,2.531601299997419,None,71,0,70,417.6409006000031,,,,,,,,,,,,,,,,,,,,,,,,,,,,,,,,,,,,,,,,,,,,,,,,,,417.62492600000405,417.6409006000031,418.1413745000027,418.12424789999204,418.13066969999636,418.1413745000027,418.1413745000027,418.1413745000027,420.67451929999515,Scenes\051a.jpg,pre,s,2.531601299997419,None,,,,,,,,00033,001,2026-01-16_11h44.00.919,MST_test,2024.2.0,59.85189051445981,2026-01-16 11h44.09.231203 +0530,
71,0,72,s,4.1455464999889955,None,72,0,71,420.6908410000033,,,,,,,,,,,,,,,,,,,,,,,,,,,,,,,,,,,,,,,,,,,,,,,,,,420.6746137000009,420.6908410000033,421.19143749999057,421.17434030000004,421.1833425999939,421.19143749999057,421.19143749999057,421.19143749999057,425.34144659999583,Scenes\038a.jpg,mid,s,4.1455464999889955,None,,,,,,,,00033,001,2026-01-16_11h44.00.919,MST_test,2024.2.0,59.85189051445981,2026-01-16 11h44.09.231203 +0530,
72,0,73,o,1.238538999998127,None,73,0,72,425.35751059999166,,,,,,,,,,,,,,,,,,,,,,,,,,,,,,,,,,,,,,,,,,,,,,,,,,425.34153890000016,425.35751059999166,425.8581650999986,425.8414472000004,425.84667929999705,425.8581650999986,425.8581650999986,425.8581650999986,427.1080266999925,Scenes\123a.jpg,pre,o,1.238538999998127,None,,,,,,,,00033,001,2026-01-16_11h44.00.919,MST_test,2024.2.0,59.85189051445981,2026-01-16 11h44.09.231203 +0530,
73,0,74,n,1.3357167999929516,None,74,0,73,427.1240933999943,,,,,,,,,,,,,,,,,,,,,,,,,,,,,,,,,,,,,,,,,,,,,,,,,,427.10811859999376,427.1240933999943,427.6246031000046,427.607746099995,427.6109206999972,427.6246031000046,427.6246031000046,427.6246031000046,428.97467539999343,Foils\065a.jpg,none,n,1.3357167999929516,None,,,,,,,,00033,001,2026-01-16_11h44.00.919,MST_test,2024.2.0,59.85189051445981,2026-01-16 11h44.09.231203 +0530,
74,0,75,s,9.02131240000017,None,75,0,74,428.99083319999045,,,,,,,,,,,,,,,,,,,,,,,,,,,,,,,,,,,,,,,,,,,,,,,,,,428.9747672999947,428.99083319999045,429.4910314000008,429.4742729999998,429.4767209999991,429.4910314000008,429.4910314000008,429.4910314000008,438.5246635999938,Objects\049a.jpg,pre,s,9.02131240000017,None,,,,,,,,00033,001,2026-01-16_11h44.00.919,MST_test,2024.2.0,59.85189051445981,2026-01-16 11h44.09.231203 +0530,
75,0,76,n,1.2550594000058481,None,76,0,75,438.5408205999993,,,,,,,,,,,,,,,,,,,,,,,,,,,,,,,,,,,,,,,,,,,,,,,,,,438.52475509999203,438.5408205999993,439.0413422999991,439.02440029999707,439.03413569999975,439.0413422999991,439.0413422999991,439.0413422999991,440.3080704000022,Scenes\084a.jpg,post,n,1.2550594000058481,None,,,,,,,,00033,001,2026-01-16_11h44.00.919,MST_test,2024.2.0,59.85189051445981,2026-01-16 11h44.09.231203 +0530,
76,0,77,n,1.0237098999932641,None,77,0,76,440.32409929999267,,,,,,,,,,,,,,,,,,,,,,,,,,,,,,,,,,,,,,,,,,,,,,,,,,440.3081628999935,440.32409929999267,440.82456860000093,440.807753400004,440.8101530999993,440.82456860000093,440.82456860000093,440.82456860000093,441.85801979999815,Foils\scenes6.jpg,none,n,1.0237098999932641,None,,,,,,,,00033,001,2026-01-16_11h44.00.919,MST_test,2024.2.0,59.85189051445981,2026-01-16 11h44.09.231203 +0530,
77,0,78,n,0.754224600008456,None,78,0,77,441.87401440000394,,,,,,,,,,,,,,,,,,,,,,,,,,,,,,,,,,,,,,,,,,,,,,,,,,441.85811190000095,441.87401440000394,442.3743981000007,442.35768030000327,442.36543189999065,442.3743981000007,442.3743981000007,442.3743981000007,443.1413096000033,Scenes\164a.jpg,mid,n,0.754224600008456,None,,,,,,,,00033,001,2026-01-16_11h44.00.919,MST_test,2024.2.0,59.85189051445981,2026-01-16 11h44.09.231203 +0530,
78,0,79,o,1.0951878999912878,None,79,0,78,443.15751309999905,,,,,,,,,,,,,,,,,,,,,,,,,,,,,,,,,,,,,,,,,,,,,,,,,,443.14140110000153,443.15751309999905,443.6580160000012,443.6410102999944,443.64692189999914,443.6580160000012,443.6580160000012,443.6580160000012,444.7580963999935,Scenes\079a.jpg,pre,o,1.0951878999912878,None,,,,,,,,00033,001,2026-01-16_11h44.00.919,MST_test,2024.2.0,59.85189051445981,2026-01-16 11h44.09.231203 +0530,
79,0,80,n,1.143848399995477,None,80,0,79,444.7739964999928,,,,,,,,,,,,,,,,,,,,,,,,,,,,,,,,,,,,,,,,,,,,,,,,,,444.75819009999395,444.7739964999928,445.2809012999933,445.2577633000037,445.27864219999174,445.2809012999933,445.2809012999933,445.2809012999933,446.4413315999991,Scenes\003b.jpg,post,n,1.143848399995477,None,,,,,,,,00033,001,2026-01-16_11h44.00.919,MST_test,2024.2.0,59.85189051445981,2026-01-16 11h44.09.231203 +0530,
80,0,81,n,2.6426424000092084,None,81,0,80,446.4574767000013,,,,,,,,,,,,,,,,,,,,,,,,,,,,,,,,,,,,,,,,,,,,,,,,,,446.44142619999184,446.4574767000013,446.9580575,446.94107780000195,446.94589370000176,446.9580575,446.9580575,446.9580575,449.60818739999377,Scenes\113b.jpg,pre,n,2.6426424000092084,None,,,,,,,,00033,001,2026-01-16_11h44.00.919,MST_test,2024.2.0,59.85189051445981,2026-01-16 11h44.09.231203 +0530,
81,0,82,n,1.0289400999899954,None,82,0,81,449.62403659999836,,,,,,,,,,,,,,,,,,,,,,,,,,,,,,,,,,,,,,,,,,,,,,,,,,449.60827620000055,449.62403659999836,450.1245748999936,450.10773989999143,450.11825719999615,450.1245748999936,450.1245748999936,450.1245748999936,451.1580030999903,Foils\010a.jpg,none,n,1.0289400999899954,None,,,,,,,,00033,001,2026-01-16_11h44.00.919,MST_test,2024.2.0,59.85189051445981,2026-01-16 11h44.09.231203 +0530,
82,0,83,n,1.4068833000055747,None,83,0,82,451.17408869999053,,,,,,,,,,,,,,,,,,,,,,,,,,,,,,,,,,,,,,,,,,,,,,,,,,451.1580943000008,451.17408869999053,451.6742052000045,451.65774120000424,451.66016579999996,451.6742052000045,451.6742052000045,451.6742052000045,453.09136740000395,Objects\071a.jpg,post,n,1.4068833000055747,None,,,,,,,,00033,001,2026-01-16_11h44.00.919,MST_test,2024.2.0,59.85189051445981,2026-01-16 11h44.09.231203 +0530,
83,0,84,n,1.1215379999921424,None,84,0,83,453.10749829999986,,,,,,,,,,,,,,,,,,,,,,,,,,,,,,,,,,,,,,,,,,,,,,,,,,453.09145849999913,453.10749829999986,453.6077230999945,453.591022099994,453.59355750000395,453.6077230999945,453.6077230999945,453.6077230999945,454.74144339999475,Foils\101b.jpg,none,n,1.1215379999921424,None,,,,,,,,00033,001,2026-01-16_11h44.00.919,MST_test,2024.2.0,59.85189051445981,2026-01-16 11h44.09.231203 +0530,
84,0,85,n,0.9029666999995243,None,85,0,84,454.7574392999959,,,,,,,,,,,,,,,,,,,,,,,,,,,,,,,,,,,,,,,,,,,,,,,,,,454.74153329999535,454.7574392999959,455.2579717000044,455.241142999992,455.2546871999948,455.2579717000044,455.2579717000044,455.2579717000044,456.17527559999144,Scenes\152b.jpg,post,n,0.9029666999995243,None,,,,,,,,00033,001,2026-01-16_11h44.00.919,MST_test,2024.2.0,59.85189051445981,2026-01-16 11h44.09.231203 +0530,
85,0,86,s,1.5975922000070568,None,86,0,85,456.1909878000006,,,,,,,,,,,,,,,,,,,,,,,,,,,,,,,,,,,,,,,,,,,,,,,,,,456.1753718999971,456.1909878000006,456.6912811999937,456.6743392999924,456.67738599999575,456.6912811999937,456.6912811999937,456.6912811999937,458.29149039999174,Foils\050a.jpg,none,s,1.5975922000070568,None,,,,,,,,00033,001,2026-01-16_11h44.00.919,MST_test,2024.2.0,59.85189051445981,2026-01-16 11h44.09.231203 +0530,
86,0,87,n,1.6011604999948759,None,87,0,86,458.3075031000044,,,,,,,,,,,,,,,,,,,,,,,,,,,,,,,,,,,,,,,,,,,,,,,,,,458.29158269999607,458.3075031000044,458.80772899999283,458.79116789999534,458.79353110000375,458.80772899999283,458.80772899999283,458.80772899999283,460.42460080000455,Objects\019b.jpg,post,n,1.6011604999948759,None,,,,,,,,00033,001,2026-01-16_11h44.00.919,MST_test,2024.2.0,59.85189051445981,2026-01-16 11h44.09.231203 +0530,
87,0,88,s,3.1314592999988236,None,88,0,87,460.4408720999927,,,,,,,,,,,,,,,,,,,,,,,,,,,,,,,,,,,,,,,,,,,,,,,,,,460.4246926999913,460.4408720999927,460.94139559999167,460.92426509999495,460.9339898000035,460.94139559999167,460.94139559999167,460.94139559999167,464.07450809999136,Scenes\170a.jpg,pre,s,3.1314592999988236,None,,,,,,,,00033,001,2026-01-16_11h44.00.919,MST_test,2024.2.0,59.85189051445981,2026-01-16 11h44.09.231203 +0530,
88,0,89,s,2.3532296999910614,None,89,0,88,464.0908708999923,,,,,,,,,,,,,,,,,,,,,,,,,,,,,,,,,,,,,,,,,,,,,,,,,,464.0745984999958,464.0908708999923,464.5913192000007,464.5742998999922,464.5834573000029,464.5913192000007,464.5913192000007,464.5913192000007,466.9580675000034,Objects\154b.jpg,post,s,2.3532296999910614,None,,,,,,,,00033,001,2026-01-16_11h44.00.919,MST_test,2024.2.0,59.85189051445981,2026-01-16 11h44.09.231203 +0530,
89,0,90,n,2.030453800005489,None,90,0,89,466.97410589999345,,,,,,,,,,,,,,,,,,,,,,,,,,,,,,,,,,,,,,,,,,,,,,,,,,466.9581576999917,466.97410589999345,467.4743172000017,467.45768490000046,467.46025999999256,467.4743172000017,467.4743172000017,467.4743172000017,469.5081008999987,Objects\050a.jpg,mid,n,2.030453800005489,None,,,,,,,,00033,001,2026-01-16_11h44.00.919,MST_test,2024.2.0,59.85189051445981,2026-01-16 11h44.09.231203 +0530,
90,0,91,n,1.8174908999935724,None,91,0,90,469.52408099999593,,,,,,,,,,,,,,,,,,,,,,,,,,,,,,,,,,,,,,,,,,,,,,,,,,469.5081902999955,469.52408099999593,470.0246283000015,470.0078294999985,470.0215324000019,470.0246283000015,470.0246283000015,470.0246283000015,471.8581208999967,Scenes\178b.jpg,post,n,1.8174908999935724,None,,,,,,,,00033,001,2026-01-16_11h44.00.919,MST_test,2024.2.0,59.85189051445981,2026-01-16 11h44.09.231203 +0530,
91,0,92,n,1.178554099999019,None,92,0,91,471.87401139999565,,,,,,,,,,,,,,,,,,,,,,,,,,,,,,,,,,,,,,,,,,,,,,,,,,471.85821189999115,471.87401139999565,472.37456199999724,472.35775149999245,472.36098800000036,472.37456199999724,472.37456199999724,472.37456199999724,473.55813760000456,Foils\121a.jpg,none,n,1.178554099999019,None,,,,,,,,00033,001,2026-01-16_11h44.00.919,MST_test,2024.2.0,59.85189051445981,2026-01-16 11h44.09.231203 +0530,
92,0,93,n,0.8543701000016881,None,93,0,92,473.57401889999164,,,,,,,,,,,,,,,,,,,,,,,,,,,,,,,,,,,,,,,,,,,,,,,,,,473.55822679999983,473.57401889999164,474.074179999996,474.05781990000105,474.0603291000007,474.074179999996,474.074179999996,474.074179999996,474.9413085999986,Objects\112b.jpg,post,n,0.8543701000016881,None,,,,,,,,00033,001,2026-01-16_11h44.00.919,MST_test,2024.2.0,59.85189051445981,2026-01-16 11h44.09.231203 +0530,
93,0,94,o,2.407094000009238,None,94,0,93,474.9575033000001,,,,,,,,,,,,,,,,,,,,,,,,,,,,,,,,,,,,,,,,,,,,,,,,,,474.9413996999938,474.9575033000001,475.45804539999517,475.44109729999036,475.45197909999115,475.45804539999517,475.45804539999517,475.45804539999517,477.8747759999969,Scenes\045a.jpg,mid,o,2.407094000009238,None,,,,,,,,00033,001,2026-01-16_11h44.00.919,MST_test,2024.2.0,59.85189051445981,2026-01-16 11h44.09.231203 +0530,
94,0,95,s,2.3209803000063403,None,95,0,94,477.8908467000001,,,,,,,,,,,,,,,,,,,,,,,,,,,,,,,,,,,,,,,,,,,,,,,,,,477.87487109999347,477.8908467000001,478.3913775999972,478.37428170000203,478.3872888999904,478.3913775999972,478.3913775999972,478.3913775999972,480.72475919999124,Objects\137b.jpg,pre,s,2.3209803000063403,None,,,,,,,,00033,001,2026-01-16_11h44.00.919,MST_test,2024.2.0,59.85189051445981,2026-01-16 11h44.09.231203 +0530,
95,0,96,n,1.095301900000777,None,96,0,95,480.7408417999977,,,,,,,,,,,,,,,,,,,,,,,,,,,,,,,,,,,,,,,,,,,,,,,,,,480.7248519999994,480.7408417999977,481.2415508999984,481.2245647999953,481.2372230000037,481.2415508999984,481.2415508999984,481.2415508999984,482.3416201999935,Scenes\117b.jpg,pre,n,1.095301900000777,None,,,,,,,,00033,001,2026-01-16_11h44.00.919,MST_test,2024.2.0,59.85189051445981,2026-01-16 11h44.09.231203 +0530,
96,0,97,o,1.5674650000000838,None,97,0,96,482.35792349999247,,,,,,,,,,,,,,,,,,,,,,,,,,,,,,,,,,,,,,,,,,,,,,,,,,482.34171849999984,482.35792349999247,482.85815939999884,482.8412244999927,482.8446819999954,482.85815939999884,482.85815939999884,482.85815939999884,484.4415428999928,Objects\066a.jpg,mid,o,1.5674650000000838,None,,,,,,,,00033,001,2026-01-16_11h44.00.919,MST_test,2024.2.0,59.85189051445981,2026-01-16 11h44.09.231203 +0530,
97,0,98,n,1.6191878999961773,None,98,0,97,484.45759809999436,,,,,,,,,,,,,,,,,,,,,,,,,,,,,,,,,,,,,,,,,,,,,,,,,,484.44163429999026,484.45759809999436,484.95835230000375,484.94119669999054,484.9562659999938,484.95835230000375,484.95835230000375,484.95835230000375,486.5915072999924,Scenes\073b.jpg,mid,n,1.6191878999961773,None,,,,,,,,00033,001,2026-01-16_11h44.00.919,MST_test,2024.2.0,59.85189051445981,2026-01-16 11h44.09.231203 +0530,
98,0,99,n,1.764839999988908,None,99,0,98,486.6076238999958,,,,,,,,,,,,,,,,,,,,,,,,,,,,,,,,,,,,,,,,,,,,,,,,,,486.5916006999905,486.6076238999958,487.10808689999976,487.0911374999996,487.10256220000156,487.10808689999976,487.10808689999976,487.10808689999976,488.87474060000386,Objects\081b.jpg,post,n,1.764839999988908,None,,,,,,,,00033,001,2026-01-16_11h44.00.919,MST_test,2024.2.0,59.85189051445981,2026-01-16 11h44.09.231203 +0530,
99,0,100,n,1.5779121000086889,None,100,0,99,488.8909447000042,,,,,,,,,,,,,,,,,,,,,,,,,,,,,,,,,,,,,,,,,,,,,,,,,,488.8748411999986,488.8909447000042,489.3910923999938,489.3745120999956,489.37679349999235,489.3910923999938,489.3910923999938,489.3910923999938,490.9749340999988,Objects\051a.jpg,post,n,1.5779121000086889,None,,,,,,,,00033,001,2026-01-16_11h44.00.919,MST_test,2024.2.0,59.85189051445981,2026-01-16 11h44.09.231203 +0530,
100,0,101,n,1.2050325000018347,None,101,0,100,490.99097790000087,,,,,,,,,,,,,,,,,,,,,,,,,,,,,,,,,,,,,,,,,,,,,,,,,,490.9750272999954,490.99097790000087,491.49126460000116,491.47457730000315,491.4838144999958,491.49126460000116,491.49126460000116,491.49126460000116,492.7081109999999,Objects\116b.jpg,mid,n,1.2050325000018347,None,,,,,,,,00033,001,2026-01-16_11h44.00.919,MST_test,2024.2.0,59.85189051445981,2026-01-16 11h44.09.231203 +0530,
101,0,102,n,1.08776019999641,None,102,0,101,492.7242561000021,,,,,,,,,,,,,,,,,,,,,,,,,,,,,,,,,,,,,,,,,,,,,,,,,,492.7081996999914,492.7242561000021,493.2247806999949,493.2077738999942,493.21524320000026,493.2247806999949,493.2247806999949,493.2247806999949,494.32484359999944,Scenes\110a.jpg,post,n,1.08776019999641,None,,,,,,,,00033,001,2026-01-16_11h44.00.919,MST_test,2024.2.0,59.85189051445981,2026-01-16 11h44.09.231203 +0530,
102,0,103,n,0.8306503000058001,None,103,0,102,494.34088439999323,,,,,,,,,,,,,,,,,,,,,,,,,,,,,,,,,,,,,,,,,,,,,,,,,,494.3249339000031,494.34088439999323,494.8416839999991,494.8245548999985,494.8382444000017,494.8416839999991,494.8416839999991,494.8416839999991,495.6749661999929,Scenes\116b.jpg,mid,n,0.8306503000058001,None,,,,,,,,00033,001,2026-01-16_11h44.00.919,MST_test,2024.2.0,59.85189051445981,2026-01-16 11h44.09.231203 +0530,
103,0,104,n,1.4257379000046058,None,104,0,103,495.69090249999135,,,,,,,,,,,,,,,,,,,,,,,,,,,,,,,,,,,,,,,,,,,,,,,,,,495.67507260000275,495.69090249999135,496.1915497000009,496.1745533999929,496.1860432999965,496.1915497000009,496.1915497000009,496.1915497000009,497.6247693999903,Scenes\061b.jpg,post,n,1.4257379000046058,None,,,,,,,,00033,001,2026-01-16_11h44.00.919,MST_test,2024.2.0,59.85189051445981,2026-01-16 11h44.09.231203 +0530,
104,0,105,n,1.3635845000098925,None,105,0,104,497.6409638999903,,,,,,,,,,,,,,,,,,,,,,,,,,,,,,,,,,,,,,,,,,,,,,,,,,497.6248615999939,497.6409638999903,498.14150430000154,498.1246763999952,498.13521959999343,498.14150430000154,498.14150430000154,498.14150430000154,499.508299299996,Scenes\062a.jpg,pre,n,1.3635845000098925,None,,,,,,,,00033,001,2026-01-16_11h44.00.919,MST_test,2024.2.0,59.85189051445981,2026-01-16 11h44.09.231203 +0530,
105,0,106,n,1.079576600008295,None,106,0,105,499.5245477999997,,,,,,,,,,,,,,,,,,,,,,,,,,,,,,,,,,,,,,,,,,,,,,,,,,499.5083988999977,499.5245477999997,500.0247909000027,500.0078624000016,500.02253709999786,500.0247909000027,500.0247909000027,500.0247909000027,501.10816079999495,Scenes\137b.jpg,post,n,1.079576600008295,None,,,,,,,,00033,001,2026-01-16_11h44.00.919,MST_test,2024.2.0,59.85189051445981,2026-01-16 11h44.09.231203 +0530,
106,0,107,n,0.8317346000112593,None,107,0,106,501.124270100001,,,,,,,,,,,,,,,,,,,,,,,,,,,,,,,,,,,,,,,,,,,,,,,,,,501.1082516000024,501.124270100001,501.62481199999456,501.60792680000304,501.6136397999944,501.62481199999456,501.62481199999456,501.62481199999456,502.4582725999935,Scenes\087a.jpg,mid,n,0.8317346000112593,None,,,,,,,,00033,001,2026-01-16_11h44.00.919,MST_test,2024.2.0,59.85189051445981,2026-01-16 11h44.09.231203 +0530,
107,0,108,n,1.0455574999941746,None,108,0,107,502.4742727999983,,,,,,,,,,,,,,,,,,,,,,,,,,,,,,,,,,,,,,,,,,,,,,,,,,502.4583678999916,502.4742727999983,502.9792935000005,502.9579090999905,502.97713230000227,502.9792935000005,502.9792935000005,502.9792935000005,504.0415417999902,Scenes\102b.jpg,post,n,1.0455574999941746,None,,,,,,,,00033,001,2026-01-16_11h44.00.919,MST_test,2024.2.0,59.85189051445981,2026-01-16 11h44.09.231203 +0530,
108,0,109,n,0.9385526000114623,None,109,0,108,504.0576285999996,,,,,,,,,,,,,,,,,,,,,,,,,,,,,,,,,,,,,,,,,,,,,,,,,,504.0416314000031,504.0576285999996,504.5580806999933,504.54136689999723,504.5505783999979,504.5580806999933,504.5580806999933,504.5580806999933,505.50819279999996,Foils\scenes18.jpg,none,n,0.9385526000114623,None,,,,,,,,00033,001,2026-01-16_11h44.00.919,MST_test,2024.2.0,59.85189051445981,2026-01-16 11h44.09.231203 +0530,
109,0,110,n,0.8322725000034552,None,110,0,109,505.52408200000355,,,,,,,,,,,,,,,,,,,,,,,,,,,,,,,,,,,,,,,,,,,,,,,,,,505.50829549999617,505.52408200000355,506.0246311999945,506.0078630999924,506.0112555999949,506.0246311999945,506.0246311999945,506.0246311999945,506.8584028999903,Foils\058a.jpg,none,n,0.8322725000034552,None,,,,,,,,00033,001,2026-01-16_11h44.00.919,MST_test,2024.2.0,59.85189051445981,2026-01-16 11h44.09.231203 +0530,
110,0,111,n,0.8352578999911202,None,111,0,110,506.8742763999908,,,,,,,,,,,,,,,,,,,,,,,,,,,,,,,,,,,,,,,,,,,,,,,,,,506.85849469999084,506.8742763999908,507.374553799993,507.3579485999944,507.3602017999947,507.374553799993,507.374553799993,507.374553799993,508.22487730000285,Objects\106a.jpg,mid,n,0.8352578999911202,None,,,,,,,,00033,001,2026-01-16_11h44.00.919,MST_test,2024.2.0,59.85189051445981,2026-01-16 11h44.09.231203 +0530,
111,0,112,n,0.818776699990849,None,112,0,111,508.24090360000264,,,,,,,,,,,,,,,,,,,,,,,,,,,,,,,,,,,,,,,,,,,,,,,,,,508.2249709000025,508.24090360000264,508.74152880000474,508.72461150000163,508.73299899999984,508.74152880000474,508.74152880000474,508.74152880000474,509.5747311000014,Scenes\100a.jpg,pre,n,0.818776699990849,None,,,,,,,,00033,001,2026-01-16_11h44.00.919,MST_test,2024.2.0,59.85189051445981,2026-01-16 11h44.09.231203 +0530,
112,0,113,n,2.3710146000084933,None,113,0,112,509.5909790000005,,,,,,,,,,,,,,,,,,,,,,,,,,,,,,,,,,,,,,,,,,,,,,,,,,509.574821599992,509.5909790000005,510.11774980000337,510.0746031000017,510.1149652000022,510.11774980000337,510.11774980000337,510.11774980000337,512.4914796999947,Foils\scenes15.jpg,none,n,2.3710146000084933,None,,,,,,,,00033,001,2026-01-16_11h44.00.919,MST_test,2024.2.0,59.85189051445981,2026-01-16 11h44.09.231203 +0530,
113,0,114,n,1.1033399000007194,None,114,0,113,512.5076256000029,,,,,,,,,,,,,,,,,,,,,,,,,,,,,,,,,,,,,,,,,,,,,,,,,,512.4915706000029,512.5076256000029,513.0091934999946,512.9912137999927,513.0026921999961,513.0091934999946,513.0091934999946,513.0091934999946,514.1248592000047,Foils\097a.jpg,none,n,1.1033399000007194,None,,,,,,,,00033,001,2026-01-16_11h44.00.919,MST_test,2024.2.0,59.85189051445981,2026-01-16 11h44.09.231203 +0530,
114,0,115,s,3.879898500003037,None,115,0,114,514.1407880000042,,,,,,,,,,,,,,,,,,,,,,,,,,,,,,,,,,,,,,,,,,,,,,,,,,514.1249498999969,514.1407880000042,514.6412052999949,514.6245321000024,514.6340874000016,514.6412052999949,514.6412052999949,514.6412052999949,518.5247238000011,Objects\001b.jpg,pre,s,3.879898500003037,None,,,,,,,,00033,001,2026-01-16_11h44.00.919,MST_test,2024.2.0,59.85189051445981,2026-01-16 11h44.09.231203 +0530,
115,0,116,o,1.8148757000017213,None,116,0,115,518.5409710999957,,,,,,,,,,,,,,,,,,,,,,,,,,,,,,,,,,,,,,,,,,,,,,,,,,518.5248182999931,518.5409710999957,519.0414434999984,519.0244698000024,519.0345968000038,519.0414434999984,519.0414434999984,519.0414434999984,520.8582664999994,Scenes\103a.jpg,pre,o,1.8148757000017213,None,,,,,,,,00033,001,2026-01-16_11h44.00.919,MST_test,2024.2.0,59.85189051445981,2026-01-16 11h44.09.231203 +0530,
116,0,117,n,1.0816229000047315,None,117,0,116,520.8742192999925,,,,,,,,,,,,,,,,,,,,,,,,,,,,,,,,,,,,,,,,,,,,,,,,,,520.8583540999971,520.8742192999925,521.3746773000021,521.3578740999947,521.3677106999967,521.3746773000021,521.3746773000021,521.3746773000021,522.4581261999992,Foils\106a.jpg,none,n,1.0816229000047315,None,,,,,,,,00033,001,2026-01-16_11h44.00.919,MST_test,2024.2.0,59.85189051445981,2026-01-16 11h44.09.231203 +0530,
117,0,118,n,0.8662921999930404,None,118,0,117,522.4742225999944,,,,,,,,,,,,,,,,,,,,,,,,,,,,,,,,,,,,,,,,,,,,,,,,,,522.4582328999968,522.4742225999944,522.9747486999986,522.9578699999984,522.9674457999936,522.9747486999986,522.9747486999986,522.9747486999986,523.8417103999964,Scenes\009a.jpg,post,n,0.8662921999930404,None,,,,,,,,00033,001,2026-01-16_11h44.00.919,MST_test,2024.2.0,59.85189051445981,2026-01-16 11h44.09.231203 +0530,
118,0,119,n,0.8182238999870606,None,119,0,118,523.8576342000015,,,,,,,,,,,,,,,,,,,,,,,,,,,,,,,,,,,,,,,,,,,,,,,,,,523.8417999999947,523.8576342000015,524.3580800999916,524.3413298999949,524.343623599998,524.3580800999916,524.3580800999916,524.3580800999916,525.1916388999962,Foils\scenes20.jpg,none,n,0.8182238999870606,None,,,,,,,,00033,001,2026-01-16_11h44.00.919,MST_test,2024.2.0,59.85189051445981,2026-01-16 11h44.09.231203 +0530,
119,0,120,n,1.1474096999882022,None,120,0,119,525.2076113999938,,,,,,,,,,,,,,,,,,,,,,,,,,,,,,,,,,,,,,,,,,,,,,,,,,525.1917374999903,525.2076113999938,525.7104843999987,525.6911850000033,525.7084943999944,525.7104843999987,525.7104843999987,525.7104843999987,526.8585211000027,Scenes\040b.jpg,pre,n,1.1474096999882022,None,,,,,,,,00033,001,2026-01-16_11h44.00.919,MST_test,2024.2.0,59.85189051445981,2026-01-16 11h44.09.231203 +0530,
120,0,121,s,3.59357280000404,None,121,0,120,526.8742809999967,,,,,,,,,,,,,,,,,,,,,,,,,,,,,,,,,,,,,,,,,,,,,,,,,,526.858613599994,526.8742809999967,527.3747390999924,527.3578804999997,527.3690958999941,527.3747390999924,527.3747390999924,527.3747390999924,530.9748095999967,Scenes\014b.jpg,mid,s,3.59357280000404,None,,,,,,,,00033,001,2026-01-16_11h44.00.919,MST_test,2024.2.0,59.85189051445981,2026-01-16 11h44.09.231203 +0530,
121,0,122,s,4.1010497999959625,None,122,0,121,530.990976999994,,,,,,,,,,,,,,,,,,,,,,,,,,,,,,,,,,,,,,,,,,,,,,,,,,530.9749066999939,530.990976999994,531.491320400004,531.4748661999911,531.4820143999968,531.491320400004,531.491320400004,531.491320400004,535.608095299991,Scenes\028a.jpg,mid,s,4.1010497999959625,None,,,,,,,,00033,001,2026-01-16_11h44.00.919,MST_test,2024.2.0,59.85189051445981,2026-01-16 11h44.09.231203 +0530,
122,0,123,o,1.6594341000018176,None,123,0,122,535.6242746999924,,,,,,,,,,,,,,,,,,,,,,,,,,,,,,,,,,,,,,,,,,,,,,,,,,535.6081857999961,535.6242746999924,536.1249007000006,536.107866899998,536.1176165999932,536.1249007000006,536.1249007000006,536.1249007000006,537.7916936999973,Scenes\094b.jpg,mid,o,1.6594341000018176,None,,,,,,,,00033,001,2026-01-16_11h44.00.919,MST_test,2024.2.0,59.85189051445981,2026-01-16 11h44.09.231203 +0530,
123,0,124,n,1.6054077000007965,None,124,0,123,537.8075555999967,,,,,,,,,,,,,,,,,,,,,,,,,,,,,,,,,,,,,,,,,,,,,,,,,,537.7917879000015,537.8075555999967,538.3082028999925,538.2912791999988,538.3045532999968,538.3082028999925,538.3082028999925,538.3082028999925,539.9248348999972,Scenes\118b.jpg,pre,n,1.6054077000007965,None,,,,,,,,00033,001,2026-01-16_11h44.00.919,MST_test,2024.2.0,59.85189051445981,2026-01-16 11h44.09.231203 +0530,
124,0,125,n,2.743711599992821,None,125,0,124,539.9409610000002,,,,,,,,,,,,,,,,,,,,,,,,,,,,,,,,,,,,,,,,,,,,,,,,,,539.924923700004,539.9409610000002,540.4413993999915,540.4244809999946,540.4333075000031,540.4413993999915,540.4413993999915,540.4413993999915,543.191453499996,Scenes\058a.jpg,mid,n,2.743711599992821,None,,,,,,,,00033,001,2026-01-16_11h44.00.919,MST_test,2024.2.0,59.85189051445981,2026-01-16 11h44.09.231203 +0530,
125,0,126,n,1.0371755999949528,None,126,0,125,543.2075330999942,,,,,,,,,,,,,,,,,,,,,,,,,,,,,,,,,,,,,,,,,,,,,,,,,,543.1915443000034,543.2075330999942,543.7079978999973,543.6911401999969,543.6942798999953,543.7079978999973,543.7079978999973,543.7079978999973,544.7580487999949,Objects\004a.jpg,pre,n,1.0371755999949528,None,,,,,,,,00033,001,2026-01-16_11h44.00.919,MST_test,2024.2.0,59.85189051445981,2026-01-16 11h44.09.231203 +0530,
126,0,127,n,0.8981713999964995,None,127,0,126,544.7740243000007,,,,,,,,,,,,,,,,,,,,,,,,,,,,,,,,,,,,,,,,,,,,,,,,,,544.7581505999988,544.7740243000007,545.3428344999993,545.2577927999955,545.3398659999948,545.3428344999993,545.3428344999993,545.3428344999993,546.2417625999951,Foils\scenes25.jpg,none,n,0.8981713999964995,None,,,,,,,,00033,001,2026-01-16_11h44.00.919,MST_test,2024.2.0,59.85189051445981,2026-01-16 11h44.09.231203 +0530,
127,0,128,s,14.858050199996796,None,128,0,127,546.2575300000026,,,,,,,,,,,,,,,,,,,,,,,,,,,,,,,,,,,,,,,,,,,,,,,,,,546.2418529999995,546.2575300000026,546.7591160000011,546.7411561999907,546.7504494000023,546.7591160000011,546.7591160000011,546.7591160000011,561.6245793999988,Objects\132b.jpg,mid,s,14.858050199996796,None,,,,,,,,00033,001,2026-01-16_11h44.00.919,MST_test,2024.2.0,59.85189051445981,2026-01-16 11h44.09.231203 +0530,
128,0,129,n,2.4526956000045175,None,129,0,128,561.6408732999989,,,,,,,,,,,,,,,,,,,,,,,,,,,,,,,,,,,,,,,,,,,,,,,,,,561.6246802999958,561.6408732999989,562.141401300003,562.124387399992,562.1363797999948,562.141401300003,562.141401300003,562.141401300003,564.6081619000033,Scenes\032a.jpg,pre,n,2.4526956000045175,None,,,,,,,,00033,001,2026-01-16_11h44.00.919,MST_test,2024.2.0,59.85189051445981,2026-01-16 11h44.09.231203 +0530,
129,0,130,s,1.4044319999957224,None,130,0,129,564.6240364999976,,,,,,,,,,,,,,,,,,,,,,,,,,,,,,,,,,,,,,,,,,,,,,,,,,564.608258399996,564.6240364999976,565.1247038000001,565.1080251999956,565.1114362999942,565.1247038000001,565.1247038000001,565.1247038000001,566.5413964000036,Objects\161a.jpg,pre,s,1.4044319999957224,None,,,,,,,,00033,001,2026-01-16_11h44.00.919,MST_test,2024.2.0,59.85189051445981,2026-01-16 11h44.09.231203 +0530,
130,0,131,s,5.0470460999931674,None,131,0,130,566.5575461999979,,,,,,,,,,,,,,,,,,,,,,,,,,,,,,,,,,,,,,,,,,,,,,,,,,566.5414871999965,566.5575461999979,567.0579188999982,567.0411832999962,567.0527507999941,567.0579188999982,567.0579188999982,567.0579188999982,572.1084984999907,Scenes\097b.jpg,post,s,5.0470460999931674,None,,,,,,,,00033,001,2026-01-16_11h44.00.919,MST_test,2024.2.0,59.85189051445981,2026-01-16 11h44.09.231203 +0530,
131,0,132,n,1.0799567999929423,None,132,0,131,572.1241111999989,,,,,,,,,,,,,,,,,,,,,,,,,,,,,,,,,,,,,,,,,,,,,,,,,,572.1085938000033,572.1241111999989,572.6245113999903,572.6078533999971,572.6179437999963,572.6245113999903,572.6245113999903,572.6245113999903,573.708075100003,Objects\065b.jpg,pre,n,1.0799567999929423,None,,,,,,,,00033,001,2026-01-16_11h44.00.919,MST_test,2024.2.0,59.85189051445981,2026-01-16 11h44.09.231203 +0530,
132,0,133,o,1.496123599994462,None,133,0,132,573.7241350999975,,,,,,,,,,,,,,,,,,,,,,,,,,,,,,,,,,,,,,,,,,,,,,,,,,573.7081656999944,573.7241350999975,574.2243848999933,574.2078386999929,574.210279699997,574.2243848999933,574.2243848999933,574.2243848999933,575.7247842999932,Objects\011a.jpg,post,o,1.496123599994462,None,,,,,,,,00033,001,2026-01-16_11h44.00.919,MST_test,2024.2.0,59.85189051445981,2026-01-16 11h44.09.231203 +0530,
133,0,134,n,1.016613600004348,None,134,0,133,575.7408125999937,,,,,,,,,,,,,,,,,,,,,,,,,,,,,,,,,,,,,,,,,,,,,,,,,,575.7248739999923,575.7408125999937,576.2410803999956,576.2244421999931,576.2336202000006,576.2410803999956,576.2410803999956,576.2410803999956,577.2581480999943,Objects\076b.jpg,post,n,1.016613600004348,None,,,,,,,,00033,001,2026-01-16_11h44.00.919,MST_test,2024.2.0,59.85189051445981,2026-01-16 11h44.09.231203 +0530,
134,0,135,n,2.786371900001541,None,135,0,134,577.2741357999912,,,,,,,,,,,,,,,,,,,,,,,,,,,,,,,,,,,,,,,,,,,,,,,,,,577.2582408000017,577.2741357999912,577.7742360999982,577.7578722000035,577.7672755999956,577.7742360999982,577.7742360999982,577.7742360999982,580.5746626000036,Objects\061b.jpg,pre,n,2.786371900001541,None,,,,,,,,00033,001,2026-01-16_11h44.00.919,MST_test,2024.2.0,59.85189051445981,2026-01-16 11h44.09.231203 +0530,
135,0,136,o,1.2772885000013048,None,136,0,135,580.590895100002,,,,,,,,,,,,,,,,,,,,,,,,,,,,,,,,,,,,,,,,,,,,,,,,,,580.5747685999959,580.590895100002,581.091319500003,581.0742921999918,581.0806378999987,581.091319500003,581.091319500003,581.091319500003,582.3747115000006,Scenes\141a.jpg,post,o,1.2772885000013048,None,,,,,,,,00033,001,2026-01-16_11h44.00.919,MST_test,2024.2.0,59.85189051445981,2026-01-16 11h44.09.231203 +0530,
136,0,137,s,1.9895594999979949,None,137,0,136,582.3908203000028,,,,,,,,,,,,,,,,,,,,,,,,,,,,,,,,,,,,,,,,,,,,,,,,,,582.3748073000024,582.3908203000028,582.8913624999986,582.8743288999976,582.8807930000039,582.8913624999986,582.8913624999986,582.8913624999986,584.8915089999937,Scenes\050b.jpg,post,s,1.9895594999979949,None,,,,,,,,00033,001,2026-01-16_11h44.00.919,MST_test,2024.2.0,59.85189051445981,2026-01-16 11h44.09.231203 +0530,
137,0,138,n,1.0809244999982184,None,138,0,137,584.9075363000011,,,,,,,,,,,,,,,,,,,,,,,,,,,,,,,,,,,,,,,,,,,,,,,,,,584.8916014999995,584.9075363000011,585.4081129999977,585.3912534999981,585.4005135000043,585.4081129999977,585.4081129999977,585.4081129999977,586.4914630999992,Scenes\041a.jpg,post,n,1.0809244999982184,None,,,,,,,,00033,001,2026-01-16_11h44.00.919,MST_test,2024.2.0,59.85189051445981,2026-01-16 11h44.09.231203 +0530,
138,0,139,o,1.7211728999973275,None,139,0,138,586.5075093999912,,,,,,,,,,,,,,,,,,,,,,,,,,,,,,,,,,,,,,,,,,,,,,,,,,586.4915558999928,586.5075093999912,587.0081186000025,586.9910645999917,586.997715999998,587.0081186000025,587.0081186000025,587.0081186000025,588.7418065999955,Scenes\186a.jpg,mid,o,1.7211728999973275,None,,,,,,,,00033,001,2026-01-16_11h44.00.919,MST_test,2024.2.0,59.85189051445981,2026-01-16 11h44.09.231203 +0530,
139,0,140,o,1.1422774999955436,None,140,0,139,588.7574809999933,,,,,,,,,,,,,,,,,,,,,,,,,,,,,,,,,,,,,,,,,,,,,,,,,,588.7418974000029,588.7574809999933,589.258148199995,589.2411270000011,589.251374600004,589.258148199995,589.258148199995,589.258148199995,590.4084411999938,Scenes\174a.jpg,mid,o,1.1422774999955436,None,,,,,,,,00033,001,2026-01-16_11h44.00.919,MST_test,2024.2.0,59.85189051445981,2026-01-16 11h44.09.231203 +0530,
140,0,141,s,1.7245619999885093,None,141,0,140,590.4242488000018,,,,,,,,,,,,,,,,,,,,,,,,,,,,,,,,,,,,,,,,,,,,,,,,,,590.4085400999902,590.4242488000018,590.9246525999915,590.9078173000016,590.9109641999967,590.9246525999915,590.9246525999915,590.9246525999915,592.6579528000002,Objects\188a.jpg,mid,s,1.7245619999885093,None,,,,,,,,00033,001,2026-01-16_11h44.00.919,MST_test,2024.2.0,59.85189051445981,2026-01-16 11h44.09.231203 +0530,
141,0,142,o,4.234882899996592,None,142,0,141,592.6740198999905,,,,,,,,,,,,,,,,,,,,,,,,,,,,,,,,,,,,,,,,,,,,,,,,,,592.658047799996,592.6740198999905,593.1743447999906,593.1578118000034,593.1599872999941,593.1743447999906,593.1743447999906,593.1743447999906,597.4246971999964,Objects\172b.jpg,post,o,4.234882899996592,None,,,,,,,,00033,001,2026-01-16_11h44.00.919,MST_test,2024.2.0,59.85189051445981,2026-01-16 11h44.09.231203 +0530,
142,0,143,n,0.9561320000066189,None,143,0,142,597.4408808000007,,,,,,,,,,,,,,,,,,,,,,,,,,,,,,,,,,,,,,,,,,,,,,,,,,597.4247884999932,597.4408808000007,597.9412329999905,597.9243533999979,597.9278028999979,597.9412329999905,597.9412329999905,597.9412329999905,598.9079983999982,Foils\105a.jpg,none,n,0.9561320000066189,None,,,,,,,,00033,001,2026-01-16_11h44.00.919,MST_test,2024.2.0,59.85189051445981,2026-01-16 11h44.09.231203 +0530,
143,0,144,n,1.8720049999974435,None,144,0,143,598.9241397000005,,,,,,,,,,,,,,,,,,,,,,,,,,,,,,,,,,,,,,,,,,,,,,,,,,598.908087799995,598.9241397000005,599.4245446999994,599.4077149999939,599.421007099998,599.4245446999994,599.4245446999994,599.4245446999994,601.3082083000045,Scenes\147b.jpg,post,n,1.8720049999974435,None,,,,,,,,00033,001,2026-01-16_11h44.00.919,MST_test,2024.2.0,59.85189051445981,2026-01-16 11h44.09.231203 +0530,
144,0,145,o,1.3998260999942431,None,145,0,144,601.3243224000034,,,,,,,,,,,,,,,,,,,,,,,,,,,,,,,,,,,,,,,,,,,,,,,,,,601.3083010999981,601.3243224000034,601.8247704999958,601.8079493999976,601.8183031999943,601.8247704999958,601.8247704999958,601.8247704999958,603.2415386999928,Objects\129b.jpg,mid,o,1.3998260999942431,None,,,,,,,,00033,001,2026-01-16_11h44.00.919,MST_test,2024.2.0,59.85189051445981,2026-01-16 11h44.09.231203 +0530,
145,0,146,s,4.019901499996195,None,146,0,145,603.2575723999907,,,,,,,,,,,,,,,,,,,,,,,,,,,,,,,,,,,,,,,,,,,,,,,,,,603.241629199998,603.2575723999907,603.7582815999922,603.7411451999942,603.7506373999931,603.7582815999922,603.7582815999922,603.7582815999922,607.7915384999942,Scenes\145a.jpg,mid,s,4.019901499996195,None,,,,,,,,00033,001,2026-01-16_11h44.00.919,MST_test,2024.2.0,59.85189051445981,2026-01-16 11h44.09.231203 +0530,
146,0,147,o,1.1940008999954443,None,147,0,146,607.8078584000032,,,,,,,,,,,,,,,,,,,,,,,,,,,,,,,,,,,,,,,,,,,,,,,,,,607.7916319999931,607.8078584000032,608.310253299991,608.2912018999923,608.3080512000015,608.310253299991,608.310253299991,608.310253299991,609.508274199994,Scenes\077b.jpg,pre,o,1.1940008999954443,None,,,,,,,,00033,001,2026-01-16_11h44.00.919,MST_test,2024.2.0,59.85189051445981,2026-01-16 11h44.09.231203 +0530,
147,0,148,n,1.1034164000011515,None,148,0,147,609.5242262999964,,,,,,,,,,,,,,,,,,,,,,,,,,,,,,,,,,,,,,,,,,,,,,,,,,609.5083654999908,609.5242262999964,610.0249397000007,610.0080238999944,610.0183155999985,610.0249397000007,610.0249397000007,610.0249397000007,611.1416712999926,Objects\024b.jpg,mid,n,1.1034164000011515,None,,,,,,,,00033,001,2026-01-16_11h44.00.919,MST_test,2024.2.0,59.85189051445981,2026-01-16 11h44.09.231203 +0530,
148,0,149,o,1.2865693000057945,None,149,0,148,611.1576285000046,,,,,,,,,,,,,,,,,,,,,,,,,,,,,,,,,,,,,,,,,,,,,,,,,,611.1417623000016,611.1576285000046,611.6578198999923,611.6411915999925,611.6501854999951,611.6578198999923,611.6578198999923,611.6578198999923,612.9581653999921,Objects\030b.jpg,mid,o,1.2865693000057945,None,,,,,,,,00033,001,2026-01-16_11h44.00.919,MST_test,2024.2.0,59.85189051445981,2026-01-16 11h44.09.231203 +0530,
149,0,150,n,1.3815346999908797,None,150,0,149,612.9743042000046,,,,,,,,,,,,,,,,,,,,,,,,,,,,,,,,,,,,,,,,,,,,,,,,,,612.9582557999966,612.9743042000046,613.4747814000002,613.4579936999944,613.4706238999934,613.4747814000002,613.4747814000002,613.4747814000002,614.858296099992,Scenes\162b.jpg,mid,n,1.3815346999908797,None,,,,,,,,00033,001,2026-01-16_11h44.00.919,MST_test,2024.2.0,59.85189051445981,2026-01-16 11h44.09.231203 +0530,
,,,,,,,,,,,,,,,,,,,,,,,,,,,,,,,,,,,,,,,,,,,,,,,,,,,,,,,,,,,,,,,,,,,,,,,,,614.8583603000006,614.8743239000032,614.8743239000032,616.4581501999928,space,1.5745183999970322,None,00033,001,2026-01-16_11h44.00.919,MST_test,2024.2.0,59.85189051445981,2026-01-16 11h44.09.231203 +0530,
