thisN,thisTrialN,thisRepN,key_resp_3.keys,key_resp_3.rt,key_resp_3.duration,trials.thisRepN,trials.thisTrialN,trials.thisN,thisRow.t,notes,intro_page.started,text.started,key_resp.started,intro_page.stopped,key_resp.keys,key_resp.rt,key_resp.duration,instructions.started,text_2.started,key_resp_2.started,instructions.stopped,key_resp_2.keys,key_resp_2.rt,key_resp_2.duration,demo1.started,image_1.started,image_2.started,text_7.started,key_resp_6.started,text_9.started,demo1.stopped,key_resp_6.keys,key_resp_6.rt,key_resp_6.duration,demo2.started,image_5.started,image_6.started,text_11.started,text_12.started,key_resp_8.started,demo2.stopped,key_resp_8.keys,key_resp_8.rt,key_resp_8.duration,demo_conclusion.started,text_13.started,key_resp_9.started,demo_conclusion.stopped,key_resp_9.keys,key_resp_9.rt,key_resp_9.duration,start_test.started,text_6.started,key_resp_5.started,start_test.stopped,key_resp_5.keys,key_resp_5.rt,key_resp_5.duration,ISI.started,text_4.started,text_4.stopped,ISI.stopped,routine_1.started,image.started,text_3.started,key_resp_3.started,routine_1.stopped,image_path,position_of_stimuli,trials.key_resp_3.keys,trials.key_resp_3.rt,trials.key_resp_3.duration,End_page.started,text_5.started,key_resp_4.started,End_page.stopped,key_resp_4.keys,key_resp_4.rt,key_resp_4.duration,participant,session,date,expName,psychopyVersion,frameRate,expStart,
,,,,,,,,,,,0.001754899974912405,0.003929099999368191,0.003929099999368191,4.6631342000328,space,4.644557300023735,None,,,,,,,,,,,,,,,,,,,,,,,,,,,,,,,,,,,,,,,,,,,,,,,,,,,,,,,,,,,,,,,00031,001,2025-11-21_16h33.17.994,MST_test,2024.2.0,59.97976282754257,2025-11-21 16h33.23.676055 +0530,
,,,,,,,,,,,,,,,,,,4.663189799990505,4.6772228999761865,4.6772228999761865,16.992118800000753,space,12.307425900013186,None,,,,,,,,,,,,,,,,,,,,,,,,,,,,,,,,,,,,,,,,,,,,,,,,,,,,,,,,00031,001,2025-11-21_16h33.17.994,MST_test,2024.2.0,59.97976282754257,2025-11-21 16h33.23.676055 +0530,
,,,,,,,,,,,,,,,,,,,,,,,,,16.992219100007787,17.00835299998289,17.00835299998289,17.00835299998289,17.00835299998289,17.00835299998289,24.42685230000643,space,7.408709999988787,None,,,,,,,,,,,,,,,,,,,,,,,,,,,,,,,,,,,,,,,,,,,,,,00031,001,2025-11-21_16h33.17.994,MST_test,2024.2.0,59.97976282754257,2025-11-21 16h33.23.676055 +0530,
,,,,,,,,,,,,,,,,,,,,,,,,,,,,,,,,,,,24.42698480002582,24.441536300000735,24.441536300000735,24.441536300000735,24.441536300000735,24.441536300000735,28.109717699990142,space,3.6626199000165798,None,,,,,,,,,,,,,,,,,,,,,,,,,,,,,,,,,,,,00031,001,2025-11-21_16h33.17.994,MST_test,2024.2.0,59.97976282754257,2025-11-21 16h33.23.676055 +0530,
,,,,,,,,,,,,,,,,,,,,,,,,,,,,,,,,,,,,,,,,,,,,,28.10981440002797,28.124096099985763,28.124096099985763,39.543088699982036,space,11.412840700009838,None,,,,,,,,,,,,,,,,,,,,,,,,,,,,,00031,001,2025-11-21_16h33.17.994,MST_test,2024.2.0,59.97976282754257,2025-11-21 16h33.23.676055 +0530,
,,,,,,,,,,,,,,,,,,,,,,,,,,,,,,,,,,,,,,,,,,,,,,,,,,,,39.54321630002232,39.55750659998739,39.55750659998739,64.6931096999906,space,25.13127070001792,None,,,,,,,,,,,,,,,,,,,,,,00031,001,2025-11-21_16h33.17.994,MST_test,2024.2.0,59.97976282754257,2025-11-21 16h33.23.676055 +0530,
0,0,1,n,4.089384100050665,None,1,0,0,64.70714030001545,,,,,,,,,,,,,,,,,,,,,,,,,,,,,,,,,,,,,,,,,,,,,,,,,,64.70099320000736,64.70714030001545,65.2233335999772,65.19230499997502,65.22052799997618,65.2233335999772,65.2233335999772,65.2233335999772,69.32603440003004,Scenes\131b.jpg,pre,n,4.089384100050665,None,,,,,,,,00031,001,2025-11-21_16h33.17.994,MST_test,2024.2.0,59.97976282754257,2025-11-21 16h33.23.676055 +0530,
1,0,2,o,3.2320594000048004,None,2,0,1,69.34077780001098,,,,,,,,,,,,,,,,,,,,,,,,,,,,,,,,,,,,,,,,,,,,,,,,,,69.32640170003287,69.34077780001098,69.84841759997653,69.82486079999944,69.84608960000332,69.84841759997653,69.84841759997653,69.84841759997653,73.0933407000266,Objects\030b.jpg,post,o,3.2320594000048004,None,,,,,,,,00031,001,2025-11-21_16h33.17.994,MST_test,2024.2.0,59.97976282754257,2025-11-21 16h33.23.676055 +0530,
2,0,3,s,2.3499653000035323,None,3,0,2,73.10735920001753,,,,,,,,,,,,,,,,,,,,,,,,,,,,,,,,,,,,,,,,,,,,,,,,,,73.09368779999204,73.10735920001753,73.6107865999802,73.59160560002783,73.60846449999372,73.6107865999802,73.6107865999802,73.6107865999802,75.97637039999245,Objects\029b.jpg,mid,s,2.3499653000035323,None,,,,,,,,00031,001,2025-11-21_16h33.17.994,MST_test,2024.2.0,59.97976282754257,2025-11-21 16h33.23.676055 +0530,
3,0,4,s,1.9566486999974586,None,4,0,3,75.99078200000804,,,,,,,,,,,,,,,,,,,,,,,,,,,,,,,,,,,,,,,,,,,,,,,,,,75.97677160002058,75.99078200000804,76.49176800000714,76.47501729999203,76.48884820000967,76.49176800000714,76.49176800000714,76.49176800000714,78.45920689997729,Scenes\165a.jpg,mid,s,1.9566486999974586,None,,,,,,,,00031,001,2025-11-21_16h33.17.994,MST_test,2024.2.0,59.97976282754257,2025-11-21 16h33.23.676055 +0530,
4,0,5,s,2.714883800013922,None,5,0,4,78.47380999999586,,,,,,,,,,,,,,,,,,,,,,,,,,,,,,,,,,,,,,,,,,,,,,,,,,78.45959699997911,78.47380999999586,78.98961609997787,78.95871869998518,78.98650850000558,78.98961609997787,78.98961609997787,78.98961609997787,81.70981049997499,Scenes\088b.jpg,pre,s,2.714883800013922,None,,,,,,,,00031,001,2025-11-21_16h33.17.994,MST_test,2024.2.0,59.97976282754257,2025-11-21 16h33.23.676055 +0530,
5,0,6,o,2.5922827000031248,None,6,0,5,81.72412369999802,,,,,,,,,,,,,,,,,,,,,,,,,,,,,,,,,,,,,,,,,,,,,,,,,,81.7101405999856,81.72412369999802,82.22484979999717,82.2083575000288,82.22040130000096,82.22484979999717,82.22484979999717,82.22484979999717,84.82646329997806,Scenes\092a.jpg,pre,o,2.5922827000031248,None,,,,,,,,00031,001,2025-11-21_16h33.17.994,MST_test,2024.2.0,59.97976282754257,2025-11-21 16h33.23.676055 +0530,
6,0,7,s,2.4351481999619864,None,7,0,6,84.84066330001224,,,,,,,,,,,,,,,,,,,,,,,,,,,,,,,,,,,,,,,,,,,,,,,,,,84.82680999999866,84.84066330001224,85.34143580001546,85.32495859998744,85.33379689999856,85.34143580001546,85.34143580001546,85.34143580001546,87.79289610002888,Scenes\061a.jpg,mid,s,2.4351481999619864,None,,,,,,,,00031,001,2025-11-21_16h33.17.994,MST_test,2024.2.0,59.97976282754257,2025-11-21 16h33.23.676055 +0530,
7,0,8,o,4.052610599959735,None,8,0,7,87.80739159998484,,,,,,,,,,,,,,,,,,,,,,,,,,,,,,,,,,,,,,,,,,,,,,,,,,87.7932204999961,87.80739159998484,88.30797700001858,88.29185039998265,88.30166080000345,88.30797700001858,88.30797700001858,88.30797700001858,92.37603779998608,Scenes\132a.jpg,mid,o,4.052610599959735,None,,,,,,,,00031,001,2025-11-21_16h33.17.994,MST_test,2024.2.0,59.97976282754257,2025-11-21 16h33.23.676055 +0530,
8,0,9,o,1.4768916000030003,None,9,0,8,92.39075319998665,,,,,,,,,,,,,,,,,,,,,,,,,,,,,,,,,,,,,,,,,,,,,,,,,,92.37642360001337,92.39075319998665,92.89138869999442,92.8750964999781,92.88341770000989,92.89138869999442,92.89138869999442,92.89138869999442,94.37652530003106,Objects\095a.jpg,post,o,1.4768916000030003,None,,,,,,,,00031,001,2025-11-21_16h33.17.994,MST_test,2024.2.0,59.97976282754257,2025-11-21 16h33.23.676055 +0530,
9,0,10,o,3.8003216999932192,None,10,0,9,94.390604300017,,,,,,,,,,,,,,,,,,,,,,,,,,,,,,,,,,,,,,,,,,,,,,,,,,94.37693209998542,94.390604300017,94.89611999999033,94.87496590003138,94.89345119998325,94.89611999999033,94.89611999999033,94.89611999999033,98.70953009999357,Objects\182b.jpg,mid,o,3.8003216999932192,None,,,,,,,,00031,001,2025-11-21_16h33.17.994,MST_test,2024.2.0,59.97976282754257,2025-11-21 16h33.23.676055 +0530,
10,0,11,s,1.7160506999935023,None,11,0,10,98.72383670002455,,,,,,,,,,,,,,,,,,,,,,,,,,,,,,,,,,,,,,,,,,,,,,,,,,98.70993230002932,98.72383670002455,99.22891080001136,99.20873880002182,99.22630500001833,99.22891080001136,99.22891080001136,99.22891080001136,100.95980459998827,Objects\139b.jpg,mid,s,1.7160506999935023,None,,,,,,,,00031,001,2025-11-21_16h33.17.994,MST_test,2024.2.0,59.97976282754257,2025-11-21 16h33.23.676055 +0530,
11,0,12,s,1.497810600034427,None,12,0,11,100.97407350002322,,,,,,,,,,,,,,,,,,,,,,,,,,,,,,,,,,,,,,,,,,,,,,,,,,100.9601713999873,100.97407350002322,101.47911650000606,101.45852059999015,101.47642870002892,101.47911650000606,101.47911650000606,101.47911650000606,102.99290329997893,Objects\034b.jpg,mid,s,1.497810600034427,None,,,,,,,,00031,001,2025-11-21_16h33.17.994,MST_test,2024.2.0,59.97976282754257,2025-11-21 16h33.23.676055 +0530,
12,0,13,s,2.905741400027182,None,13,0,12,103.00734429998556,,,,,,,,,,,,,,,,,,,,,,,,,,,,,,,,,,,,,,,,,,,,,,,,,,102.99325310002314,103.00734429998556,103.51057400001446,103.4918897000025,103.50824490003288,103.51057400001446,103.51057400001446,103.51057400001446,106.42626510001719,Foils\018a.jpg,none,s,2.905741400027182,None,,,,,,,,00031,001,2025-11-21_16h33.17.994,MST_test,2024.2.0,59.97976282754257,2025-11-21 16h33.23.676055 +0530,
13,0,14,s,1.4936027000076137,None,14,0,13,106.44072680000681,,,,,,,,,,,,,,,,,,,,,,,,,,,,,,,,,,,,,,,,,,,,,,,,,,106.42662540002493,106.44072680000681,106.94662380003138,106.9249457999831,106.94424590002745,106.94662380003138,106.94662380003138,106.94662380003138,108.44301180000184,Objects\014b.jpg,post,s,1.4936027000076137,None,,,,,,,,00031,001,2025-11-21_16h33.17.994,MST_test,2024.2.0,59.97976282754257,2025-11-21 16h33.23.676055 +0530,
14,0,15,s,1.4187065999722108,None,15,0,14,108.45757159998175,,,,,,,,,,,,,,,,,,,,,,,,,,,,,,,,,,,,,,,,,,,,,,,,,,108.44330649997573,108.45757159998175,108.96626040001865,108.94194480002625,108.96336669998709,108.96626040001865,108.96626040001865,108.96626040001865,110.39246290002484,Scenes\141b.jpg,mid,s,1.4187065999722108,None,,,,,,,,00031,001,2025-11-21_16h33.17.994,MST_test,2024.2.0,59.97976282754257,2025-11-21 16h33.23.676055 +0530,
15,0,16,s,1.774779999977909,None,16,0,15,110.40740129997721,,,,,,,,,,,,,,,,,,,,,,,,,,,,,,,,,,,,,,,,,,,,,,,,,,110.39274119999027,110.40740129997721,110.91397729999153,110.89208690001396,110.91098410001723,110.91397729999153,110.91397729999153,110.91397729999153,112.69324410002446,Scenes\067b.jpg,mid,s,1.774779999977909,None,,,,,,,,00031,001,2025-11-21_16h33.17.994,MST_test,2024.2.0,59.97976282754257,2025-11-21 16h33.23.676055 +0530,
16,0,17,s,1.5427144999848679,None,17,0,16,112.70742170000449,,,,,,,,,,,,,,,,,,,,,,,,,,,,,,,,,,,,,,,,,,,,,,,,,,112.6936074999976,112.70742170000449,113.20986840000842,113.19191220001085,113.20685560000129,113.20986840000842,113.20986840000842,113.20986840000842,114.76022539997939,Scenes\029a.jpg,post,s,1.5427144999848679,None,,,,,,,,00031,001,2025-11-21_16h33.17.994,MST_test,2024.2.0,59.97976282754257,2025-11-21 16h33.23.676055 +0530,
17,0,18,n,1.9013422999996692,None,18,0,17,114.77381620003143,,,,,,,,,,,,,,,,,,,,,,,,,,,,,,,,,,,,,,,,,,,,,,,,,,114.76061170001049,114.77381620003143,115.27489250001963,115.25837840000167,115.2700376000139,115.27489250001963,115.27489250001963,115.27489250001963,117.19328800000949,Scenes\164a.jpg,pre,n,1.9013422999996692,None,,,,,,,,00031,001,2025-11-21_16h33.17.994,MST_test,2024.2.0,59.97976282754257,2025-11-21 16h33.23.676055 +0530,
18,0,19,s,1.6299178999615833,None,19,0,18,117.20758280000882,,,,,,,,,,,,,,,,,,,,,,,,,,,,,,,,,,,,,,,,,,,,,,,,,,117.19364479999058,117.20758280000882,117.71475600003032,117.69194829999469,117.71190890000435,117.71475600003032,117.71475600003032,117.71475600003032,119.3598864999949,Objects\092b.jpg,pre,s,1.6299178999615833,None,,,,,,,,00031,001,2025-11-21_16h33.17.994,MST_test,2024.2.0,59.97976282754257,2025-11-21 16h33.23.676055 +0530,
19,0,20,n,1.8973031000350602,None,20,0,19,119.3740479000262,,,,,,,,,,,,,,,,,,,,,,,,,,,,,,,,,,,,,,,,,,,,,,,,,,119.36023460002616,119.3740479000262,119.87955040001543,119.85865200002445,119.87699700001394,119.87955040001543,119.87955040001543,119.87955040001543,121.79276779998327,Foils\086a.jpg,none,n,1.8973031000350602,None,,,,,,,,00031,001,2025-11-21_16h33.17.994,MST_test,2024.2.0,59.97976282754257,2025-11-21 16h33.23.676055 +0530,
20,0,21,n,2.024059400020633,None,21,0,20,121.80743659997825,,,,,,,,,,,,,,,,,,,,,,,,,,,,,,,,,,,,,,,,,,,,,,,,,,121.79309589997865,121.80743659997825,122.31217679998372,122.29165050003212,122.30967099999543,122.31217679998372,122.31217679998372,122.31217679998372,124.34266070002923,Foils\081a.jpg,none,n,2.024059400020633,None,,,,,,,,00031,001,2025-11-21_16h33.17.994,MST_test,2024.2.0,59.97976282754257,2025-11-21 16h33.23.676055 +0530,
21,0,22,o,2.3907574999611825,None,22,0,21,124.35744649998378,,,,,,,,,,,,,,,,,,,,,,,,,,,,,,,,,,,,,,,,,,,,,,,,,,124.34290849999525,124.35744649998378,124.85802949999925,124.84213489998365,124.85078779998003,124.85802949999925,124.85802949999925,124.85802949999925,127.25969969999278,Scenes\024a.jpg,post,o,2.3907574999611825,None,,,,,,,,00031,001,2025-11-21_16h33.17.994,MST_test,2024.2.0,59.97976282754257,2025-11-21 16h33.23.676055 +0530,
22,0,23,s,3.3906014999956824,None,23,0,22,127.27401350002037,,,,,,,,,,,,,,,,,,,,,,,,,,,,,,,,,,,,,,,,,,,,,,,,,,127.26007999997819,127.27401350002037,127.77831480000168,127.75890409998829,127.77544759999728,127.77831480000168,127.77831480000168,127.77831480000168,131.1766317000147,Objects\021b.jpg,pre,s,3.3906014999956824,None,,,,,,,,00031,001,2025-11-21_16h33.17.994,MST_test,2024.2.0,59.97976282754257,2025-11-21 16h33.23.676055 +0530,
23,0,24,n,1.8472718000411987,None,24,0,23,131.19072900002357,,,,,,,,,,,,,,,,,,,,,,,,,,,,,,,,,,,,,,,,,,,,,,,,,,131.17697800003225,131.19072900002357,131.6971730000223,131.6748919999809,131.69482670002617,131.6971730000223,131.6971730000223,131.6971730000223,133.55906479997793,Foils\105a.jpg,none,n,1.8472718000411987,None,,,,,,,,00031,001,2025-11-21_16h33.17.994,MST_test,2024.2.0,59.97976282754257,2025-11-21 16h33.23.676055 +0530,
24,0,25,s,3.5100821999949403,None,25,0,24,133.57387730001938,,,,,,,,,,,,,,,,,,,,,,,,,,,,,,,,,,,,,,,,,,,,,,,,,,133.559342499997,133.57387730001938,134.0825919000199,134.05850779998582,134.07941730000312,134.0825919000199,134.0825919000199,134.0825919000199,137.60966810001992,Scenes\149b.jpg,post,s,3.5100821999949403,None,,,,,,,,00031,001,2025-11-21_16h33.17.994,MST_test,2024.2.0,59.97976282754257,2025-11-21 16h33.23.676055 +0530,
25,0,26,o,1.442378900013864,None,26,0,25,137.62419489998138,,,,,,,,,,,,,,,,,,,,,,,,,,,,,,,,,,,,,,,,,,,,,,,,,,137.61003229999915,137.62419489998138,138.12643030000618,138.10875439998927,138.1230083000264,138.12643030000618,138.12643030000618,138.12643030000618,139.57631169998785,Scenes\087a.jpg,pre,o,1.442378900013864,None,,,,,,,,00031,001,2025-11-21_16h33.17.994,MST_test,2024.2.0,59.97976282754257,2025-11-21 16h33.23.676055 +0530,
26,0,27,s,2.597330200020224,None,27,0,26,139.5907810999779,,,,,,,,,,,,,,,,,,,,,,,,,,,,,,,,,,,,,,,,,,,,,,,,,,139.57667209999636,139.5907810999779,140.09171190002235,140.07526620000135,140.08588620001683,140.09171190002235,140.09171190002235,140.09171190002235,142.69292350002797,Scenes\177a.jpg,post,s,2.597330200020224,None,,,,,,,,00031,001,2025-11-21_16h33.17.994,MST_test,2024.2.0,59.97976282754257,2025-11-21 16h33.23.676055 +0530,
27,0,28,s,1.4389516999945045,None,28,0,27,142.7072095000185,,,,,,,,,,,,,,,,,,,,,,,,,,,,,,,,,,,,,,,,,,,,,,,,,,142.6931964000105,142.7072095000185,143.20939460000955,143.19171400001505,143.20642669999506,143.20939460000955,143.20939460000955,143.20939460000955,144.65935279999394,Objects\104b.jpg,mid,s,1.4389516999945045,None,,,,,,,,00031,001,2025-11-21_16h33.17.994,MST_test,2024.2.0,59.97976282754257,2025-11-21 16h33.23.676055 +0530,
28,0,29,s,3.162503800005652,None,29,0,28,144.67413759999909,,,,,,,,,,,,,,,,,,,,,,,,,,,,,,,,,,,,,,,,,,,,,,,,,,144.65969840000616,144.67413759999909,145.1820688000298,145.15870810003253,145.17927369999234,145.1820688000298,145.1820688000298,145.1820688000298,148.35981719999108,Scenes\158b.jpg,post,s,3.162503800005652,None,,,,,,,,00031,001,2025-11-21_16h33.17.994,MST_test,2024.2.0,59.97976282754257,2025-11-21 16h33.23.676055 +0530,
29,0,30,n,1.785526999970898,None,30,0,29,148.37414269999135,,,,,,,,,,,,,,,,,,,,,,,,,,,,,,,,,,,,,,,,,,,,,,,,,,148.36021910002455,148.37414269999135,148.87908019998576,148.8583895000047,148.87635610002326,148.87908019998576,148.87908019998576,148.87908019998576,150.6762731000199,Foils\scenes4.jpg,none,n,1.785526999970898,None,,,,,,,,00031,001,2025-11-21_16h33.17.994,MST_test,2024.2.0,59.97976282754257,2025-11-21 16h33.23.676055 +0530,
30,0,31,n,1.230431400006637,None,31,0,30,150.69081439997535,,,,,,,,,,,,,,,,,,,,,,,,,,,,,,,,,,,,,,,,,,,,,,,,,,150.67659069999354,150.69081439997535,151.19425990001764,151.17501200002152,151.19170060002944,151.19425990001764,151.19425990001764,151.19425990001764,152.4266014000168,Foils\049a.jpg,none,n,1.230431400006637,None,,,,,,,,00031,001,2025-11-21_16h33.17.994,MST_test,2024.2.0,59.97976282754257,2025-11-21 16h33.23.676055 +0530,
31,0,32,n,1.2272923000273295,None,32,0,31,152.44079510000302,,,,,,,,,,,,,,,,,,,,,,,,,,,,,,,,,,,,,,,,,,,,,,,,,,152.4270128000062,152.44079510000302,152.94096320000244,152.92405420000432,152.93406090000644,152.94096320000244,152.94096320000244,152.94096320000244,154.17626310000196,Foils\010a.jpg,none,n,1.2272923000273295,None,,,,,,,,00031,001,2025-11-21_16h33.17.994,MST_test,2024.2.0,59.97976282754257,2025-11-21 16h33.23.676055 +0530,
32,0,33,s,1.9781029000296257,None,33,0,32,154.19073909998406,,,,,,,,,,,,,,,,,,,,,,,,,,,,,,,,,,,,,,,,,,,,,,,,,,154.1766097000218,154.19073909998406,154.69477120001102,154.6752994999988,154.6923806000268,154.69477120001102,154.69477120001102,154.69477120001102,156.67615259997547,Objects\050b.jpg,pre,s,1.9781029000296257,None,,,,,,,,00031,001,2025-11-21_16h33.17.994,MST_test,2024.2.0,59.97976282754257,2025-11-21 16h33.23.676055 +0530,
33,0,34,o,1.968628800008446,None,34,0,33,156.69078619999345,,,,,,,,,,,,,,,,,,,,,,,,,,,,,,,,,,,,,,,,,,,,,,,,,,156.67647910001688,156.69078619999345,157.20052600000054,157.17535949999,157.19767189997947,157.20052600000054,157.20052600000054,157.20052600000054,159.17644499999005,Scenes\026b.jpg,mid,o,1.968628800008446,None,,,,,,,,00031,001,2025-11-21_16h33.17.994,MST_test,2024.2.0,59.97976282754257,2025-11-21 16h33.23.676055 +0530,
34,0,35,n,1.8415492000058293,None,35,0,34,159.19074500002898,,,,,,,,,,,,,,,,,,,,,,,,,,,,,,,,,,,,,,,,,,,,,,,,,,159.17680409998866,159.19074500002898,159.69552980002481,159.67513099999633,159.69256539997878,159.69552980002481,159.69552980002481,159.69552980002481,161.54351609997684,Foils\scenes5.jpg,none,n,1.8415492000058293,None,,,,,,,,00031,001,2025-11-21_16h33.17.994,MST_test,2024.2.0,59.97976282754257,2025-11-21 16h33.23.676055 +0530,
35,0,36,s,1.1832483999896795,None,36,0,35,161.55746739997994,,,,,,,,,,,,,,,,,,,,,,,,,,,,,,,,,,,,,,,,,,,,,,,,,,161.54389410000294,161.55746739997994,162.05787520000013,162.04192799999146,162.04802390001714,162.05787520000013,162.05787520000013,162.05787520000013,163.24327510001604,Objects\190a.jpg,pre,s,1.1832483999896795,None,,,,,,,,00031,001,2025-11-21_16h33.17.994,MST_test,2024.2.0,59.97976282754257,2025-11-21 16h33.23.676055 +0530,
36,0,37,o,2.268479300022591,None,37,0,36,163.25739220000105,,,,,,,,,,,,,,,,,,,,,,,,,,,,,,,,,,,,,,,,,,,,,,,,,,163.24366310000187,163.25739220000105,163.7576842000126,163.7419241000316,163.75018610002007,163.7576842000126,163.7576842000126,163.7576842000126,166.04317449999508,Objects\019a.jpg,pre,o,2.268479300022591,None,,,,,,,,00031,001,2025-11-21_16h33.17.994,MST_test,2024.2.0,59.97976282754257,2025-11-21 16h33.23.676055 +0530,
37,0,38,o,1.9789184000110254,None,38,0,37,166.05752329999814,,,,,,,,,,,,,,,,,,,,,,,,,,,,,,,,,,,,,,,,,,,,,,,,,,166.0435399999842,166.05752329999814,166.55789599998388,166.54209860000992,166.55166980001377,166.55789599998388,166.55789599998388,166.55789599998388,168.54267290001735,Objects\007a.jpg,pre,o,1.9789184000110254,None,,,,,,,,00031,001,2025-11-21_16h33.17.994,MST_test,2024.2.0,59.97976282754257,2025-11-21 16h33.23.676055 +0530,
38,0,39,o,1.5903120000148192,None,39,0,38,168.55767010001,,,,,,,,,,,,,,,,,,,,,,,,,,,,,,,,,,,,,,,,,,,,,,,,,,168.54294040001696,168.55767010001,169.0581732999999,169.04212990001542,169.05248900002334,169.0581732999999,169.0581732999999,169.0581732999999,170.65992760000518,Scenes\153a.jpg,mid,o,1.5903120000148192,None,,,,,,,,00031,001,2025-11-21_16h33.17.994,MST_test,2024.2.0,59.97976282754257,2025-11-21 16h33.23.676055 +0530,
39,0,40,n,2.2131564000155777,None,40,0,39,170.6741442999919,,,,,,,,,,,,,,,,,,,,,,,,,,,,,,,,,,,,,,,,,,,,,,,,,,170.66028660000302,170.6741442999919,171.18699950003065,171.15869710000698,171.1838181000203,171.18699950003065,171.18699950003065,171.18699950003065,173.40888629999245,Scenes\086b.jpg,pre,n,2.2131564000155777,None,,,,,,,,00031,001,2025-11-21_16h33.17.994,MST_test,2024.2.0,59.97976282754257,2025-11-21 16h33.23.676055 +0530,
40,0,41,n,5.154155399999581,None,41,0,40,173.42385680001462,,,,,,,,,,,,,,,,,,,,,,,,,,,,,,,,,,,,,,,,,,,,,,,,,,173.40909590001684,173.42385680001462,173.9264164000051,173.90843690000474,173.92327670002123,173.9264164000051,173.9264164000051,173.9264164000051,179.09332109999377,Foils\scenes7.jpg,none,n,5.154155399999581,None,,,,,,,,00031,001,2025-11-21_16h33.17.994,MST_test,2024.2.0,59.97976282754257,2025-11-21 16h33.23.676055 +0530,
41,0,42,s,3.3843939999933355,None,42,0,41,179.1077677999856,,,,,,,,,,,,,,,,,,,,,,,,,,,,,,,,,,,,,,,,,,,,,,,,,,179.09374340000795,179.1077677999856,179.60788540000794,179.5917658000253,179.60105130000738,179.60788540000794,179.60788540000794,179.60788540000794,183.0095231999876,Objects\155a.jpg,mid,s,3.3843939999933355,None,,,,,,,,00031,001,2025-11-21_16h33.17.994,MST_test,2024.2.0,59.97976282754257,2025-11-21 16h33.23.676055 +0530,
42,0,43,n,2.5390631000045687,None,43,0,42,183.0239767000312,,,,,,,,,,,,,,,,,,,,,,,,,,,,,,,,,,,,,,,,,,,,,,,,,,183.00982189999195,183.0239767000312,183.5258685000008,183.5083212000318,183.52298429998336,183.5258685000008,183.5258685000008,183.5258685000008,186.07604660000652,Foils\scenes20.jpg,none,n,2.5390631000045687,None,,,,,,,,00031,001,2025-11-21_16h33.17.994,MST_test,2024.2.0,59.97976282754257,2025-11-21 16h33.23.676055 +0530,
43,0,44,n,1.5450746000278741,None,44,0,43,186.09072929999093,,,,,,,,,,,,,,,,,,,,,,,,,,,,,,,,,,,,,,,,,,,,,,,,,,186.07644219999202,186.09072929999093,186.59125549998134,186.57513810001547,186.58595959999366,186.59125549998134,186.59125549998134,186.59125549998134,188.1430096999975,Scenes\147a.jpg,mid,n,1.5450746000278741,None,,,,,,,,00031,001,2025-11-21_16h33.17.994,MST_test,2024.2.0,59.97976282754257,2025-11-21 16h33.23.676055 +0530,
44,0,45,n,1.9380140000139363,None,45,0,44,188.15753800002858,,,,,,,,,,,,,,,,,,,,,,,,,,,,,,,,,,,,,,,,,,,,,,,,,,188.14335060003214,188.15753800002858,188.94277399999555,188.64211379998596,188.936652400007,188.94277399999555,188.94277399999555,188.94277399999555,190.89286329998868,Foils\scenes26.jpg,none,n,1.9380140000139363,None,,,,,,,,00031,001,2025-11-21_16h33.17.994,MST_test,2024.2.0,59.97976282754257,2025-11-21 16h33.23.676055 +0530,
45,0,46,o,2.4156709000235423,None,46,0,45,190.90739790000953,,,,,,,,,,,,,,,,,,,,,,,,,,,,,,,,,,,,,,,,,,,,,,,,,,190.8932172000059,190.90739790000953,191.4419254999957,191.39171870000428,191.43932060000952,191.4419254999957,191.4419254999957,191.4419254999957,193.859724799986,Objects\133a.jpg,mid,o,2.4156709000235423,None,,,,,,,,00031,001,2025-11-21_16h33.17.994,MST_test,2024.2.0,59.97976282754257,2025-11-21 16h33.23.676055 +0530,
46,0,47,n,3.2467345999903046,None,47,0,46,193.87407670001267,,,,,,,,,,,,,,,,,,,,,,,,,,,,,,,,,,,,,,,,,,,,,,,,,,193.86000350001268,193.87407670001267,194.38648129999638,194.35841119999532,194.38353619998088,194.38648129999638,194.38648129999638,194.38648129999638,197.64273919997504,Scenes\011b.jpg,pre,n,3.2467345999903046,None,,,,,,,,00031,001,2025-11-21_16h33.17.994,MST_test,2024.2.0,59.97976282754257,2025-11-21 16h33.23.676055 +0530,
47,0,48,s,1.393367400043644,None,48,0,47,197.6573149000178,,,,,,,,,,,,,,,,,,,,,,,,,,,,,,,,,,,,,,,,,,,,,,,,,,197.6430511000217,197.6573149000178,198.15890779998153,198.14198080002097,198.15615940000862,198.15890779998153,198.15890779998153,198.15890779998153,199.55928109999513,Objects\159b.jpg,pre,s,1.393367400043644,None,,,,,,,,00031,001,2025-11-21_16h33.17.994,MST_test,2024.2.0,59.97976282754257,2025-11-21 16h33.23.676055 +0530,
48,0,49,s,1.3435086999670602,None,49,0,48,199.57411749998573,,,,,,,,,,,,,,,,,,,,,,,,,,,,,,,,,,,,,,,,,,,,,,,,,,199.55955559998984,199.57411749998573,200.07430320000276,200.05837610003073,200.06589169998188,200.07430320000276,200.07430320000276,200.07430320000276,201.4264164000051,Objects\011a.jpg,mid,s,1.3435086999670602,None,,,,,,,,00031,001,2025-11-21_16h33.17.994,MST_test,2024.2.0,59.97976282754257,2025-11-21 16h33.23.676055 +0530,
49,0,50,o,2.12418120005168,None,50,0,49,201.44075110001722,,,,,,,,,,,,,,,,,,,,,,,,,,,,,,,,,,,,,,,,,,,,,,,,,,201.4267691000132,201.44075110001722,201.94096239999635,201.9253489000257,201.93192719999934,201.94096239999635,201.94096239999635,201.94096239999635,204.07472139998572,Objects\153a.jpg,pre,o,2.12418120005168,None,,,,,,,,00031,001,2025-11-21_16h33.17.994,MST_test,2024.2.0,59.97976282754257,2025-11-21 16h33.23.676055 +0530,
50,0,51,o,1.7941628000116907,None,51,0,50,204.09073370002443,,,,,,,,,,,,,,,,,,,,,,,,,,,,,,,,,,,,,,,,,,,,,,,,,,204.07485269999597,204.09073370002443,204.59094219998224,204.5752026999835,204.58150179998484,204.59094219998224,204.59094219998224,204.59094219998224,206.39271520002512,Objects\149a.jpg,mid,o,1.7941628000116907,None,,,,,,,,00031,001,2025-11-21_16h33.17.994,MST_test,2024.2.0,59.97976282754257,2025-11-21 16h33.23.676055 +0530,
51,0,52,n,1.2580143000232056,None,52,0,51,206.40732469997602,,,,,,,,,,,,,,,,,,,,,,,,,,,,,,,,,,,,,,,,,,,,,,,,,,206.39302020001924,206.40732469997602,206.91030849999515,206.8921652000281,206.90803930000402,206.91030849999515,206.91030849999515,206.91030849999515,208.1756322000292,Foils\098a.jpg,none,n,1.2580143000232056,None,,,,,,,,00031,001,2025-11-21_16h33.17.994,MST_test,2024.2.0,59.97976282754257,2025-11-21 16h33.23.676055 +0530,
52,0,53,s,1.3521986000123434,None,53,0,52,208.1908843999845,,,,,,,,,,,,,,,,,,,,,,,,,,,,,,,,,,,,,,,,,,,,,,,,,,208.17582130001392,208.1908843999845,208.69658480002545,208.675276199996,208.69424149999395,208.69658480002545,208.69658480002545,208.69658480002545,210.05960959999356,Objects\080b.jpg,mid,s,1.3521986000123434,None,,,,,,,,00031,001,2025-11-21_16h33.17.994,MST_test,2024.2.0,59.97976282754257,2025-11-21 16h33.23.676055 +0530,
53,0,54,s,1.0238515000091866,None,54,0,53,210.0740361000062,,,,,,,,,,,,,,,,,,,,,,,,,,,,,,,,,,,,,,,,,,,,,,,,,,210.05993019999005,210.0740361000062,210.57693009998184,210.55844230001094,210.57454000000143,210.57693009998184,210.57693009998184,210.57693009998184,211.6098458999768,Objects\058b.jpg,pre,s,1.0238515000091866,None,,,,,,,,00031,001,2025-11-21_16h33.17.994,MST_test,2024.2.0,59.97976282754257,2025-11-21 16h33.23.676055 +0530,
54,0,55,s,1.7479964999947697,None,55,0,54,211.62414239998907,,,,,,,,,,,,,,,,,,,,,,,,,,,,,,,,,,,,,,,,,,,,,,,,,,211.61024060001364,211.62414239998907,212.12429970002268,212.10853159998078,212.11535530001856,212.12429970002268,212.12429970002268,212.12429970002268,213.87660449999385,Objects\026a.jpg,post,s,1.7479964999947697,None,,,,,,,,00031,001,2025-11-21_16h33.17.994,MST_test,2024.2.0,59.97976282754257,2025-11-21 16h33.23.676055 +0530,
55,0,56,o,1.2173329999786802,None,56,0,55,213.89078960003098,,,,,,,,,,,,,,,,,,,,,,,,,,,,,,,,,,,,,,,,,,,,,,,,,,213.87697270000353,213.89078960003098,214.391179200029,214.3755034999922,214.38375680003082,214.391179200029,214.391179200029,214.391179200029,215.62617429997772,Objects\176a.jpg,pre,o,1.2173329999786802,None,,,,,,,,00031,001,2025-11-21_16h33.17.994,MST_test,2024.2.0,59.97976282754257,2025-11-21 16h33.23.676055 +0530,
56,0,57,s,1.073417299950961,None,57,0,56,215.64077649998944,,,,,,,,,,,,,,,,,,,,,,,,,,,,,,,,,,,,,,,,,,,,,,,,,,215.62655200000154,215.64077649998944,216.14385360002052,216.12557760003256,216.14150740002515,216.14385360002052,216.14385360002052,216.14385360002052,217.22647360002156,Foils\074a.jpg,none,s,1.073417299950961,None,,,,,,,,00031,001,2025-11-21_16h33.17.994,MST_test,2024.2.0,59.97976282754257,2025-11-21 16h33.23.676055 +0530,
57,0,58,s,1.0044508999562822,None,58,0,57,217.24073800002225,,,,,,,,,,,,,,,,,,,,,,,,,,,,,,,,,,,,,,,,,,,,,,,,,,217.22687930002576,217.24073800002225,217.7410587000195,217.72553220001282,217.73305699997582,217.7410587000195,217.7410587000195,217.7410587000195,218.75971369998297,Objects\056a.jpg,post,s,1.0044508999562822,None,,,,,,,,00031,001,2025-11-21_16h33.17.994,MST_test,2024.2.0,59.97976282754257,2025-11-21 16h33.23.676055 +0530,
58,0,59,o,1.94254550000187,None,59,0,58,218.77404039999237,,,,,,,,,,,,,,,,,,,,,,,,,,,,,,,,,,,,,,,,,,,,,,,,,,218.7600179000292,218.77404039999237,219.27445339999394,219.2584075999912,219.26493330002995,219.27445339999394,219.27445339999394,219.27445339999394,221.22626179998042,Objects\013a.jpg,mid,o,1.94254550000187,None,,,,,,,,00031,001,2025-11-21_16h33.17.994,MST_test,2024.2.0,59.97976282754257,2025-11-21 16h33.23.676055 +0530,
59,0,60,s,1.3440075000398792,None,60,0,59,221.24078250001185,,,,,,,,,,,,,,,,,,,,,,,,,,,,,,,,,,,,,,,,,,,,,,,,,,221.22658130002674,221.24078250001185,221.7449687999906,221.72539079998387,221.7425024000113,221.7449687999906,221.7449687999906,221.7449687999906,223.09308850002708,Objects\037b.jpg,mid,s,1.3440075000398792,None,,,,,,,,00031,001,2025-11-21_16h33.17.994,MST_test,2024.2.0,59.97976282754257,2025-11-21 16h33.23.676055 +0530,
60,0,61,o,1.4565774000366218,None,61,0,60,223.10728739999468,,,,,,,,,,,,,,,,,,,,,,,,,,,,,,,,,,,,,,,,,,,,,,,,,,223.09345540002687,223.10728739999468,223.6158024999895,223.59231630002614,223.61273940000683,223.6158024999895,223.6158024999895,223.6158024999895,225.07569520000834,Scenes\073b.jpg,pre,o,1.4565774000366218,None,,,,,,,,00031,001,2025-11-21_16h33.17.994,MST_test,2024.2.0,59.97976282754257,2025-11-21 16h33.23.676055 +0530,
61,0,62,s,1.977509199990891,None,62,0,61,225.09075049997773,,,,,,,,,,,,,,,,,,,,,,,,,,,,,,,,,,,,,,,,,,,,,,,,,,225.07592879998265,225.09075049997773,225.59142860001884,225.57501550001325,225.58306089998223,225.59142860001884,225.59142860001884,225.59142860001884,227.5767156999791,Objects\096a.jpg,mid,s,1.977509199990891,None,,,,,,,,00031,001,2025-11-21_16h33.17.994,MST_test,2024.2.0,59.97976282754257,2025-11-21 16h33.23.676055 +0530,
62,0,63,n,1.5376266000093892,None,63,0,62,227.59072019997984,,,,,,,,,,,,,,,,,,,,,,,,,,,,,,,,,,,,,,,,,,,,,,,,,,227.57712159998482,227.59072019997984,228.10311780002667,228.07506499998271,228.10024459997658,228.10311780002667,228.10311780002667,228.10311780002667,229.64349899999797,Scenes\082b.jpg,mid,n,1.5376266000093892,None,,,,,,,,00031,001,2025-11-21_16h33.17.994,MST_test,2024.2.0,59.97976282754257,2025-11-21 16h33.23.676055 +0530,
63,0,64,n,1.4857682000147179,None,64,0,63,229.65753660001792,,,,,,,,,,,,,,,,,,,,,,,,,,,,,,,,,,,,,,,,,,,,,,,,,,229.64383309998084,229.65753660001792,230.1629179000156,230.1420285999775,230.1600868999958,230.1629179000156,230.1629179000156,230.1629179000156,231.65953110001283,Scenes\188b.jpg,post,n,1.4857682000147179,None,,,,,,,,00031,001,2025-11-21_16h33.17.994,MST_test,2024.2.0,59.97976282754257,2025-11-21 16h33.23.676055 +0530,
64,0,65,s,1.9928211999940686,None,65,0,64,231.67409919999773,,,,,,,,,,,,,,,,,,,,,,,,,,,,,,,,,,,,,,,,,,,,,,,,,,231.65991759998724,231.67409919999773,232.18435220001265,232.158751400013,232.18124419997912,232.18435220001265,232.18435220001265,232.18435220001265,234.19380399998045,Scenes\144b.jpg,post,s,1.9928211999940686,None,,,,,,,,00031,001,2025-11-21_16h33.17.994,MST_test,2024.2.0,59.97976282754257,2025-11-21 16h33.23.676055 +0530,
65,0,66,o,3.324090600013733,None,66,0,65,234.2073269999819,,,,,,,,,,,,,,,,,,,,,,,,,,,,,,,,,,,,,,,,,,,,,,,,,,234.19414700003108,234.2073269999819,234.70832560001872,234.69245550001506,234.70303750003222,234.70832560001872,234.70832560001872,234.70832560001872,238.0429756999947,Scenes\111a.jpg,post,o,3.324090600013733,None,,,,,,,,00031,001,2025-11-21_16h33.17.994,MST_test,2024.2.0,59.97976282754257,2025-11-21 16h33.23.676055 +0530,
66,0,67,n,1.9548441999941133,None,67,0,66,238.0574955000193,,,,,,,,,,,,,,,,,,,,,,,,,,,,,,,,,,,,,,,,,,,,,,,,,,238.0432276999927,238.0574955000193,238.5574934000033,238.54068269999698,238.5533887000056,238.5574934000033,238.5574934000033,238.5574934000033,240.52617149997968,Scenes\118b.jpg,post,n,1.9548441999941133,None,,,,,,,,00031,001,2025-11-21_16h33.17.994,MST_test,2024.2.0,59.97976282754257,2025-11-21 16h33.23.676055 +0530,
67,0,68,s,2.61352120002266,None,68,0,67,240.54102370003238,,,,,,,,,,,,,,,,,,,,,,,,,,,,,,,,,,,,,,,,,,,,,,,,,,240.52661549998447,240.54102370003238,241.04281449998962,241.02513620001264,241.03989080002066,241.04281449998962,241.04281449998962,241.04281449998962,243.65951929998118,Scenes\009a.jpg,pre,s,2.61352120002266,None,,,,,,,,00031,001,2025-11-21_16h33.17.994,MST_test,2024.2.0,59.97976282754257,2025-11-21 16h33.23.676055 +0530,
68,0,69,o,2.489457499992568,None,69,0,68,243.6741029000259,,,,,,,,,,,,,,,,,,,,,,,,,,,,,,,,,,,,,,,,,,,,,,,,,,243.6598635999835,243.6741029000259,244.1749162999913,244.1588105999981,244.1678742999793,244.1749162999913,244.1749162999913,244.1749162999913,246.67482770001516,Objects\094a.jpg,pre,o,2.489457499992568,None,,,,,,,,00031,001,2025-11-21_16h33.17.994,MST_test,2024.2.0,59.97976282754257,2025-11-21 16h33.23.676055 +0530,
69,0,70,s,1.4299656000221148,None,70,0,69,246.6906958000036,,,,,,,,,,,,,,,,,,,,,,,,,,,,,,,,,,,,,,,,,,,,,,,,,,246.67493380000815,246.6906958000036,247.1949067999958,247.17544040002394,247.1924652000307,247.1949067999958,247.1949067999958,247.1949067999958,248.6268512000097,Objects\132b.jpg,pre,s,1.4299656000221148,None,,,,,,,,00031,001,2025-11-21_16h33.17.994,MST_test,2024.2.0,59.97976282754257,2025-11-21 16h33.23.676055 +0530,
70,0,71,n,2.5624209999805316,None,71,0,70,248.64092869998422,,,,,,,,,,,,,,,,,,,,,,,,,,,,,,,,,,,,,,,,,,,,,,,,,,248.62720570003148,248.64092869998422,249.14991719997488,249.12536489998456,249.14714660000755,249.14991719997488,249.14991719997488,249.14991719997488,251.72611059999326,Foils\scenes16.jpg,none,n,2.5624209999805316,None,,,,,,,,00031,001,2025-11-21_16h33.17.994,MST_test,2024.2.0,59.97976282754257,2025-11-21 16h33.23.676055 +0530,
71,0,72,s,3.03529480000725,None,72,0,71,251.7408305000281,,,,,,,,,,,,,,,,,,,,,,,,,,,,,,,,,,,,,,,,,,,,,,,,,,251.7264167999965,251.7408305000281,252.24557560001267,252.22531529999105,252.24306649999926,252.24557560001267,252.24557560001267,252.24557560001267,255.29279510001652,Objects\069b.jpg,pre,s,3.03529480000725,None,,,,,,,,00031,001,2025-11-21_16h33.17.994,MST_test,2024.2.0,59.97976282754257,2025-11-21 16h33.23.676055 +0530,
72,0,73,s,1.5528564999694936,None,73,0,72,255.30733209999744,,,,,,,,,,,,,,,,,,,,,,,,,,,,,,,,,,,,,,,,,,,,,,,,,,255.29316860000836,255.30733209999744,255.80751990003046,255.79218009999022,255.79760520003038,255.80751990003046,255.80751990003046,255.80751990003046,257.37631449999753,Objects\083a.jpg,mid,s,1.5528564999694936,None,,,,,,,,00031,001,2025-11-21_16h33.17.994,MST_test,2024.2.0,59.97976282754257,2025-11-21 16h33.23.676055 +0530,
73,0,74,s,2.690149800037034,None,74,0,73,257.39079540001694,,,,,,,,,,,,,,,,,,,,,,,,,,,,,,,,,,,,,,,,,,,,,,,,,,257.3766313000233,257.39079540001694,257.89426720002666,257.87574909999967,257.8918586000218,257.89426720002666,257.89426720002666,257.89426720002666,260.59312640002463,Objects\181b.jpg,post,s,2.690149800037034,None,,,,,,,,00031,001,2025-11-21_16h33.17.994,MST_test,2024.2.0,59.97976282754257,2025-11-21 16h33.23.676055 +0530,
74,0,75,o,1.8876483000349253,None,75,0,74,260.6073063000222,,,,,,,,,,,,,,,,,,,,,,,,,,,,,,,,,,,,,,,,,,,,,,,,,,260.593475200003,260.6073063000222,261.1132190999924,261.0920586999855,261.1108467000304,261.1132190999924,261.1132190999924,261.1132190999924,263.0096272000228,Objects\178b.jpg,post,o,1.8876483000349253,None,,,,,,,,00031,001,2025-11-21_16h33.17.994,MST_test,2024.2.0,59.97976282754257,2025-11-21 16h33.23.676055 +0530,
75,0,76,s,3.339848500036169,None,76,0,75,263.0240903000231,,,,,,,,,,,,,,,,,,,,,,,,,,,,,,,,,,,,,,,,,,,,,,,,,,263.00993990001734,263.0240903000231,263.52483369997935,263.50814099999843,263.5214763000258,263.52483369997935,263.52483369997935,263.52483369997935,266.87670379999327,Scenes\143a.jpg,pre,s,3.339848500036169,None,,,,,,,,00031,001,2025-11-21_16h33.17.994,MST_test,2024.2.0,59.97976282754257,2025-11-21 16h33.23.676055 +0530,
76,0,77,n,1.3295825000386685,None,77,0,76,266.89092650002567,,,,,,,,,,,,,,,,,,,,,,,,,,,,,,,,,,,,,,,,,,,,,,,,,,266.87703760003205,266.89092650002567,267.3915068000206,267.3745376000297,267.38701280002715,267.3915068000206,267.3915068000206,267.3915068000206,268.72645289998036,Foils\scenes3.jpg,none,n,1.3295825000386685,None,,,,,,,,00031,001,2025-11-21_16h33.17.994,MST_test,2024.2.0,59.97976282754257,2025-11-21 16h33.23.676055 +0530,
77,0,78,s,2.2196511999936774,None,78,0,77,268.74076080002123,,,,,,,,,,,,,,,,,,,,,,,,,,,,,,,,,,,,,,,,,,,,,,,,,,268.7268010000116,268.74076080002123,269.24526310001966,269.2253338000155,269.24252189998515,269.24526310001966,269.24526310001966,269.24526310001966,271.4754207999795,Scenes\160b.jpg,mid,s,2.2196511999936774,None,,,,,,,,00031,001,2025-11-21_16h33.17.994,MST_test,2024.2.0,59.97976282754257,2025-11-21 16h33.23.676055 +0530,
78,0,79,o,3.9030056999763474,None,79,0,78,271.490833799995,,,,,,,,,,,,,,,,,,,,,,,,,,,,,,,,,,,,,,,,,,,,,,,,,,271.47559009998804,271.490833799995,271.9939639000222,271.97533370001474,271.9909373000264,271.9939639000222,271.9939639000222,271.9939639000222,275.9099927999778,Scenes\102a.jpg,mid,o,3.9030056999763474,None,,,,,,,,00031,001,2025-11-21_16h33.17.994,MST_test,2024.2.0,59.97976282754257,2025-11-21 16h33.23.676055 +0530,
79,0,80,s,1.7090829000226222,None,80,0,79,275.9243476000265,,,,,,,,,,,,,,,,,,,,,,,,,,,,,,,,,,,,,,,,,,,,,,,,,,275.91037110000616,275.9243476000265,276.42749309999635,276.4084494999843,276.4244142000098,276.42749309999635,276.42749309999635,276.42749309999635,278.14341010001954,Objects\022b.jpg,post,s,1.7090829000226222,None,,,,,,,,00031,001,2025-11-21_16h33.17.994,MST_test,2024.2.0,59.97976282754257,2025-11-21 16h33.23.676055 +0530,
80,0,81,o,1.3991973000229336,None,81,0,80,278.1574173999834,,,,,,,,,,,,,,,,,,,,,,,,,,,,,,,,,,,,,,,,,,,,,,,,,,278.14382820000174,278.1574173999834,278.6576675000251,278.64086109999334,278.6442918999819,278.6576675000251,278.6576675000251,278.6576675000251,280.0598521999782,Objects\042a.jpg,post,o,1.3991973000229336,None,,,,,,,,00031,001,2025-11-21_16h33.17.994,MST_test,2024.2.0,59.97976282754257,2025-11-21 16h33.23.676055 +0530,
81,0,82,n,3.160269399988465,None,82,0,81,280.0742739000125,,,,,,,,,,,,,,,,,,,,,,,,,,,,,,,,,,,,,,,,,,,,,,,,,,280.0601820999873,280.0742739000125,280.57664929999737,280.558780500025,280.5737403000239,280.57664929999737,280.57664929999737,280.57664929999737,283.74198200000683,Scenes\025a.jpg,mid,n,3.160269399988465,None,,,,,,,,00031,001,2025-11-21_16h33.17.994,MST_test,2024.2.0,59.97976282754257,2025-11-21 16h33.23.676055 +0530,
82,0,83,n,1.044632199977059,None,83,0,82,283.7574603999965,,,,,,,,,,,,,,,,,,,,,,,,,,,,,,,,,,,,,,,,,,,,,,,,,,283.7421828000224,283.7574603999965,284.26835760002723,284.24212140002055,284.26510199997574,284.26835760002723,284.26835760002723,284.26835760002723,285.3267511000158,Scenes\167b.jpg,pre,n,1.044632199977059,None,,,,,,,,00031,001,2025-11-21_16h33.17.994,MST_test,2024.2.0,59.97976282754257,2025-11-21 16h33.23.676055 +0530,
83,0,84,n,1.4788208999671042,None,84,0,83,285.3408921000082,,,,,,,,,,,,,,,,,,,,,,,,,,,,,,,,,,,,,,,,,,,,,,,,,,285.3271453999914,285.3408921000082,285.8415761999786,285.8253515000106,285.83364379999693,285.8415761999786,285.8415761999786,285.8415761999786,287.326579399989,Objects\152a.jpg,post,n,1.4788208999671042,None,,,,,,,,00031,001,2025-11-21_16h33.17.994,MST_test,2024.2.0,59.97976282754257,2025-11-21 16h33.23.676055 +0530,
84,0,85,o,1.9336450999835506,None,85,0,84,287.3409081000136,,,,,,,,,,,,,,,,,,,,,,,,,,,,,,,,,,,,,,,,,,,,,,,,,,287.32698160002474,287.3409081000136,287.84266480000224,287.8248595999903,287.8396715000272,287.84266480000224,287.84266480000224,287.84266480000224,289.79334720002953,Scenes\023a.jpg,mid,o,1.9336450999835506,None,,,,,,,,00031,001,2025-11-21_16h33.17.994,MST_test,2024.2.0,59.97976282754257,2025-11-21 16h33.23.676055 +0530,
85,0,86,o,1.3159549999982119,None,86,0,85,289.8075450999895,,,,,,,,,,,,,,,,,,,,,,,,,,,,,,,,,,,,,,,,,,,,,,,,,,289.79373630002374,289.8075450999895,290.30844559997786,290.2920510999975,290.29876430000877,290.30844559997786,290.30844559997786,290.30844559997786,291.6268560999888,Objects\110a.jpg,post,o,1.3159549999982119,None,,,,,,,,00031,001,2025-11-21_16h33.17.994,MST_test,2024.2.0,59.97976282754257,2025-11-21 16h33.23.676055 +0530,
86,0,87,o,1.8429082999937236,None,87,0,86,291.64112990000285,,,,,,,,,,,,,,,,,,,,,,,,,,,,,,,,,,,,,,,,,,,,,,,,,,291.62718220002716,291.64112990000285,292.1414997000247,292.1255549999769,292.1381131000235,292.1414997000247,292.1414997000247,292.1414997000247,293.99334390001604,Scenes\126a.jpg,post,o,1.8429082999937236,None,,,,,,,,00031,001,2025-11-21_16h33.17.994,MST_test,2024.2.0,59.97976282754257,2025-11-21 16h33.23.676055 +0530,
87,0,88,s,2.0360784999793395,None,88,0,87,294.00742709997576,,,,,,,,,,,,,,,,,,,,,,,,,,,,,,,,,,,,,,,,,,,,,,,,,,293.9936936000013,294.00742709997576,294.50810600002296,294.492416699999,294.4990702000214,294.50810600002296,294.50810600002296,294.50810600002296,296.55995919997804,Objects\100a.jpg,pre,s,2.0360784999793395,None,,,,,,,,00031,001,2025-11-21_16h33.17.994,MST_test,2024.2.0,59.97976282754257,2025-11-21 16h33.23.676055 +0530,
88,0,89,o,3.1396656000288203,None,89,0,88,296.5742693999782,,,,,,,,,,,,,,,,,,,,,,,,,,,,,,,,,,,,,,,,,,,,,,,,,,296.56036250002217,296.5742693999782,297.0766816000105,297.0587945000152,297.0738001000136,297.0766816000105,297.0766816000105,297.0766816000105,300.2267831999925,Scenes\001a.jpg,post,o,3.1396656000288203,None,,,,,,,,00031,001,2025-11-21_16h33.17.994,MST_test,2024.2.0,59.97976282754257,2025-11-21 16h33.23.676055 +0530,
89,0,90,o,1.2110767000121996,None,90,0,89,300.2409368000226,,,,,,,,,,,,,,,,,,,,,,,,,,,,,,,,,,,,,,,,,,,,,,,,,,300.22713110002223,300.2409368000226,300.74217129999306,300.7254018000094,300.7390923000057,300.74217129999306,300.74217129999306,300.74217129999306,301.9595072999946,Scenes\058a.jpg,pre,o,1.2110767000121996,None,,,,,,,,00031,001,2025-11-21_16h33.17.994,MST_test,2024.2.0,59.97976282754257,2025-11-21 16h33.23.676055 +0530,
90,0,91,s,1.496372799971141,None,91,0,90,301.9741023000097,,,,,,,,,,,,,,,,,,,,,,,,,,,,,,,,,,,,,,,,,,,,,,,,,,301.9598732999875,301.9741023000097,302.4804891999811,302.45885100000305,302.47756849997677,302.4804891999811,302.4804891999811,302.4804891999811,303.9929763000109,Scenes\181b.jpg,mid,s,1.496372799971141,None,,,,,,,,00031,001,2025-11-21_16h33.17.994,MST_test,2024.2.0,59.97976282754257,2025-11-21 16h33.23.676055 +0530,
91,0,92,o,1.908054900006391,None,92,0,91,304.00726980000036,,,,,,,,,,,,,,,,,,,,,,,,,,,,,,,,,,,,,,,,,,,,,,,,,,303.9933258999954,304.00726980000036,304.5081770999823,304.49182589998236,304.50117010000395,304.5081770999823,304.5081770999823,304.5081770999823,306.42644449998625,Objects\113a.jpg,post,o,1.908054900006391,None,,,,,,,,00031,001,2025-11-21_16h33.17.994,MST_test,2024.2.0,59.97976282754257,2025-11-21 16h33.23.676055 +0530,
92,0,93,n,2.698445999994874,None,93,0,92,306.4408085999894,,,,,,,,,,,,,,,,,,,,,,,,,,,,,,,,,,,,,,,,,,,,,,,,,,306.42682849999983,306.4408085999894,306.9426591999945,306.92560030001914,306.93986669997685,306.9426591999945,306.9426591999945,306.9426591999945,309.6433430000325,Scenes\068a.jpg,mid,n,2.698445999994874,None,,,,,,,,00031,001,2025-11-21_16h33.17.994,MST_test,2024.2.0,59.97976282754257,2025-11-21 16h33.23.676055 +0530,
93,0,94,s,2.921758199983742,None,94,0,93,309.6573840000201,,,,,,,,,,,,,,,,,,,,,,,,,,,,,,,,,,,,,,,,,,,,,,,,,,309.6436972999945,309.6573840000201,310.1668321000179,310.1419685999863,310.1637923999806,310.1668321000179,310.1668321000179,310.1668321000179,313.09309690003283,Scenes\184b.jpg,pre,s,2.921758199983742,None,,,,,,,,00031,001,2025-11-21_16h33.17.994,MST_test,2024.2.0,59.97976282754257,2025-11-21 16h33.23.676055 +0530,
94,0,95,s,1.5966778000001796,None,95,0,94,313.1073327999911,,,,,,,,,,,,,,,,,,,,,,,,,,,,,,,,,,,,,,,,,,,,,,,,,,313.0934253000305,313.1073327999911,313.62027529999614,313.59181850001914,313.61722130002454,313.62027529999614,313.62027529999614,313.62027529999614,315.2262288000202,Scenes\045b.jpg,pre,s,1.5966778000001796,None,,,,,,,,00031,001,2025-11-21_16h33.17.994,MST_test,2024.2.0,59.97976282754257,2025-11-21 16h33.23.676055 +0530,
95,0,96,s,1.146975299983751,None,96,0,95,315.24072890001116,,,,,,,,,,,,,,,,,,,,,,,,,,,,,,,,,,,,,,,,,,,,,,,,,,315.22652249998646,315.24072890001116,315.7417927000206,315.7251951000071,315.7320398000302,315.7417927000206,315.7417927000206,315.7417927000206,316.8930567000061,Objects\174a.jpg,pre,s,1.146975299983751,None,,,,,,,,00031,001,2025-11-21_16h33.17.994,MST_test,2024.2.0,59.97976282754257,2025-11-21 16h33.23.676055 +0530,
96,0,97,o,1.5371299999533221,None,97,0,96,316.90729429997737,,,,,,,,,,,,,,,,,,,,,,,,,,,,,,,,,,,,,,,,,,,,,,,,,,316.893363900017,316.90729429997737,317.40790990000824,317.39175399998203,317.3990320999874,317.40790990000824,317.40790990000824,317.40790990000824,318.95950220001396,Scenes\037a.jpg,pre,o,1.5371299999533221,None,,,,,,,,00031,001,2025-11-21_16h33.17.994,MST_test,2024.2.0,59.97976282754257,2025-11-21 16h33.23.676055 +0530,
97,0,98,o,0.8606197999906726,None,98,0,97,318.97429749998264,,,,,,,,,,,,,,,,,,,,,,,,,,,,,,,,,,,,,,,,,,,,,,,,,,318.9598216000013,318.97429749998264,319.4766548000043,319.4587849000236,319.47377430001507,319.4766548000043,319.4766548000043,319.4766548000043,320.3428549999953,Scenes\053b.jpg,post,o,0.8606197999906726,None,,,,,,,,00031,001,2025-11-21_16h33.17.994,MST_test,2024.2.0,59.97976282754257,2025-11-21 16h33.23.676055 +0530,
98,0,99,o,1.379944999993313,None,99,0,98,320.3573413999984,,,,,,,,,,,,,,,,,,,,,,,,,,,,,,,,,,,,,,,,,,,,,,,,,,320.3431611999986,320.3573413999984,320.8606422999874,320.84216489997925,320.85778959997697,320.8606422999874,320.8606422999874,320.8606422999874,322.243810200016,Scenes\032a.jpg,post,o,1.379944999993313,None,,,,,,,,00031,001,2025-11-21_16h33.17.994,MST_test,2024.2.0,59.97976282754257,2025-11-21 16h33.23.676055 +0530,
99,0,100,o,0.9944928999757394,None,100,0,99,322.25736250000773,,,,,,,,,,,,,,,,,,,,,,,,,,,,,,,,,,,,,,,,,,,,,,,,,,322.24444059998496,322.25736250000773,322.75829979998525,322.74228700000094,322.7500236000051,322.75829979998525,322.75829979998525,322.75829979998525,323.759924300015,Scenes\066a.jpg,pre,o,0.9944928999757394,None,,,,,,,,00031,001,2025-11-21_16h33.17.994,MST_test,2024.2.0,59.97976282754257,2025-11-21 16h33.23.676055 +0530,
100,0,101,o,0.93614120001439,None,101,0,100,323.77416670002276,,,,,,,,,,,,,,,,,,,,,,,,,,,,,,,,,,,,,,,,,,,,,,,,,,323.7602914000163,323.77416670002276,324.2801424000063,324.258578900015,324.27747889998136,324.2801424000063,324.2801424000063,324.2801424000063,325.22638820001157,Objects\031b.jpg,pre,o,0.93614120001439,None,,,,,,,,00031,001,2025-11-21_16h33.17.994,MST_test,2024.2.0,59.97976282754257,2025-11-21 16h33.23.676055 +0530,
101,0,102,n,1.317101199994795,None,102,0,101,325.2410426000133,,,,,,,,,,,,,,,,,,,,,,,,,,,,,,,,,,,,,,,,,,,,,,,,,,325.2267743999837,325.2410426000133,325.81156429997645,325.7256040999782,325.80750470003113,325.81156429997645,325.81156429997645,325.81156429997645,327.14351850003004,Foils\scenes25.jpg,none,n,1.317101199994795,None,,,,,,,,00031,001,2025-11-21_16h33.17.994,MST_test,2024.2.0,59.97976282754257,2025-11-21 16h33.23.676055 +0530,
102,0,103,n,0.9210613999748603,None,103,0,102,327.15749720000895,,,,,,,,,,,,,,,,,,,,,,,,,,,,,,,,,,,,,,,,,,,,,,,,,,327.1439115999965,327.15749720000895,327.66451259999303,327.64205349999247,327.6591671999777,327.66451259999303,327.66451259999303,327.66451259999303,328.5934546000208,Foils\082a.jpg,none,n,0.9210613999748603,None,,,,,,,,00031,001,2025-11-21_16h33.17.994,MST_test,2024.2.0,59.97976282754257,2025-11-21 16h33.23.676055 +0530,
103,0,104,o,1.7570245999959297,None,104,0,103,328.6073437000159,,,,,,,,,,,,,,,,,,,,,,,,,,,,,,,,,,,,,,,,,,,,,,,,,,328.5938369000214,328.6073437000159,329.10766049998347,329.09206609998364,329.1001161999884,329.10766049998347,329.10766049998347,329.10766049998347,330.876543099992,Objects\147a.jpg,pre,o,1.7570245999959297,None,,,,,,,,00031,001,2025-11-21_16h33.17.994,MST_test,2024.2.0,59.97976282754257,2025-11-21 16h33.23.676055 +0530,
104,0,105,s,1.8586910999729298,None,105,0,104,330.8910816999851,,,,,,,,,,,,,,,,,,,,,,,,,,,,,,,,,,,,,,,,,,,,,,,,,,330.8769999999786,330.8910816999851,331.39764949999517,331.3753095000284,331.395180099993,331.39764949999517,331.39764949999517,331.39764949999517,333.25992689997656,Objects\077b.jpg,mid,s,1.8586910999729298,None,,,,,,,,00031,001,2025-11-21_16h33.17.994,MST_test,2024.2.0,59.97976282754257,2025-11-21 16h33.23.676055 +0530,
105,0,106,n,1.2717163999914192,None,106,0,105,333.2741404999979,,,,,,,,,,,,,,,,,,,,,,,,,,,,,,,,,,,,,,,,,,,,,,,,,,333.26026329997694,333.2741404999979,333.77729009999894,333.7586530999979,333.7743313999963,333.77729009999894,333.77729009999894,333.77729009999894,335.0598611999885,Scenes\096b.jpg,post,n,1.2717163999914192,None,,,,,,,,00031,001,2025-11-21_16h33.17.994,MST_test,2024.2.0,59.97976282754257,2025-11-21 16h33.23.676055 +0530,
106,0,107,o,2.953814800013788,None,107,0,106,335.074099200021,,,,,,,,,,,,,,,,,,,,,,,,,,,,,,,,,,,,,,,,,,,,,,,,,,335.0602318000165,335.074099200021,335.57588770001894,335.55857110000215,335.57284630002687,335.57588770001894,335.57588770001894,335.57588770001894,338.5429583999794,Scenes\171a.jpg,mid,o,2.953814800013788,None,,,,,,,,00031,001,2025-11-21_16h33.17.994,MST_test,2024.2.0,59.97976282754257,2025-11-21 16h33.23.676055 +0530,
107,0,108,o,3.6412918000132777,None,108,0,107,338.5574636000092,,,,,,,,,,,,,,,,,,,,,,,,,,,,,,,,,,,,,,,,,,,,,,,,,,338.543307200016,338.5574636000092,339.06377409998095,339.0417438999866,339.0604845000198,339.06377409998095,339.06377409998095,339.06377409998095,342.7096405000193,Scenes\006b.jpg,pre,o,3.6412918000132777,None,,,,,,,,00031,001,2025-11-21_16h33.17.994,MST_test,2024.2.0,59.97976282754257,2025-11-21 16h33.23.676055 +0530,
108,0,109,o,1.0954937000060454,None,109,0,108,342.7241824999801,,,,,,,,,,,,,,,,,,,,,,,,,,,,,,,,,,,,,,,,,,,,,,,,,,342.7100026999833,342.7241824999801,343.2250385999796,343.20864189998247,343.22020879999036,343.2250385999796,343.2250385999796,343.2250385999796,344.3263173000305,Scenes\172a.jpg,post,o,1.0954937000060454,None,,,,,,,,00031,001,2025-11-21_16h33.17.994,MST_test,2024.2.0,59.97976282754257,2025-11-21 16h33.23.676055 +0530,
109,0,110,o,1.1385294999927282,None,110,0,109,344.3408498999779,,,,,,,,,,,,,,,,,,,,,,,,,,,,,,,,,,,,,,,,,,,,,,,,,,344.3267375000287,344.3408498999779,344.84628589998465,344.82513680000557,344.8433504999848,344.84628589998465,344.84628589998465,344.84628589998465,345.99350119999144,Scenes\089a.jpg,pre,o,1.1385294999927282,None,,,,,,,,00031,001,2025-11-21_16h33.17.994,MST_test,2024.2.0,59.97976282754257,2025-11-21 16h33.23.676055 +0530,
110,0,111,s,1.1291199999977835,None,111,0,110,346.00735650002025,,,,,,,,,,,,,,,,,,,,,,,,,,,,,,,,,,,,,,,,,,,,,,,,,,345.99388510000426,346.00735650002025,346.5121273000259,346.492245499976,346.50910339999245,346.5121273000259,346.5121273000259,346.5121273000259,347.6436523000011,Foils\065a.jpg,none,s,1.1291199999977835,None,,,,,,,,00031,001,2025-11-21_16h33.17.994,MST_test,2024.2.0,59.97976282754257,2025-11-21 16h33.23.676055 +0530,
111,0,112,s,2.2162783999810927,None,112,0,111,347.6574052000069,,,,,,,,,,,,,,,,,,,,,,,,,,,,,,,,,,,,,,,,,,,,,,,,,,347.64399549999507,347.6574052000069,348.1601426000125,348.14196789998095,348.15769359999103,348.1601426000125,348.1601426000125,348.1601426000125,350.39285870001186,Objects\109b.jpg,post,s,2.2162783999810927,None,,,,,,,,00031,001,2025-11-21_16h33.17.994,MST_test,2024.2.0,59.97976282754257,2025-11-21 16h33.23.676055 +0530,
112,0,113,n,3.085204300004989,None,113,0,112,350.4074711999856,,,,,,,,,,,,,,,,,,,,,,,,,,,,,,,,,,,,,,,,,,,,,,,,,,350.39326290000463,350.4074711999856,350.9150661000167,350.8923279999872,350.9121957999887,350.9150661000167,350.9150661000167,350.9150661000167,354.0093838000321,Scenes\182b.jpg,mid,n,3.085204300004989,None,,,,,,,,00031,001,2025-11-21_16h33.17.994,MST_test,2024.2.0,59.97976282754257,2025-11-21 16h33.23.676055 +0530,
113,0,114,o,1.2042408999986947,None,114,0,113,354.0242206000257,,,,,,,,,,,,,,,,,,,,,,,,,,,,,,,,,,,,,,,,,,,,,,,,,,354.0097296999884,354.0242206000257,354.52500139997574,354.5083633000031,354.51574569998775,354.52500139997574,354.52500139997574,354.52500139997574,355.74323389999336,Scenes\179a.jpg,post,o,1.2042408999986947,None,,,,,,,,00031,001,2025-11-21_16h33.17.994,MST_test,2024.2.0,59.97976282754257,2025-11-21 16h33.23.676055 +0530,
114,0,115,o,1.2790925999870524,None,115,0,114,355.7575961999828,,,,,,,,,,,,,,,,,,,,,,,,,,,,,,,,,,,,,,,,,,,,,,,,,,355.7435703999945,355.7575961999828,356.2651435000007,356.24177319998853,356.2621883000247,356.2651435000007,356.2651435000007,356.2651435000007,357.55932689999463,Scenes\078b.jpg,post,o,1.2790925999870524,None,,,,,,,,00031,001,2025-11-21_16h33.17.994,MST_test,2024.2.0,59.97976282754257,2025-11-21 16h33.23.676055 +0530,
115,0,116,s,1.344473699980881,None,116,0,115,357.57423309999285,,,,,,,,,,,,,,,,,,,,,,,,,,,,,,,,,,,,,,,,,,,,,,,,,,357.5596734000137,357.57423309999285,358.08054290001746,358.0588308000006,358.07751350000035,358.08054290001746,358.08054290001746,358.08054290001746,359.426909300033,Scenes\185b.jpg,mid,s,1.344473699980881,None,,,,,,,,00031,001,2025-11-21_16h33.17.994,MST_test,2024.2.0,59.97976282754257,2025-11-21 16h33.23.676055 +0530,
116,0,117,n,1.8011108000064269,None,117,0,116,359.4409060999751,,,,,,,,,,,,,,,,,,,,,,,,,,,,,,,,,,,,,,,,,,,,,,,,,,359.42730889999075,359.4409060999751,359.94396130001405,359.9256647999864,359.94110420002835,359.94396130001405,359.94396130001405,359.94396130001405,361.75952020002296,Foils\scenes30.jpg,none,n,1.8011108000064269,None,,,,,,,,00031,001,2025-11-21_16h33.17.994,MST_test,2024.2.0,59.97976282754257,2025-11-21 16h33.23.676055 +0530,
117,0,118,n,2.2015128000057302,None,118,0,117,361.77412020001793,,,,,,,,,,,,,,,,,,,,,,,,,,,,,,,,,,,,,,,,,,,,,,,,,,361.759933000023,361.77412020001793,362.2799083000282,362.2586265000282,362.2771043999819,362.2799083000282,362.2799083000282,362.2799083000282,364.4930570999859,Foils\093b.jpg,none,n,2.2015128000057302,None,,,,,,,,00031,001,2025-11-21_16h33.17.994,MST_test,2024.2.0,59.97976282754257,2025-11-21 16h33.23.676055 +0530,
118,0,119,s,1.329336900031194,None,119,0,118,364.507431200007,,,,,,,,,,,,,,,,,,,,,,,,,,,,,,,,,,,,,,,,,,,,,,,,,,364.4934222000302,364.507431200007,365.00773990002926,364.99209660000633,364.99982989998534,365.00773990002926,365.00773990002926,365.00773990002926,366.34316280001076,Objects\036a.jpg,post,s,1.329336900031194,None,,,,,,,,00031,001,2025-11-21_16h33.17.994,MST_test,2024.2.0,59.97976282754257,2025-11-21 16h33.23.676055 +0530,
119,0,120,o,2.175131500000134,None,120,0,119,366.3574434000184,,,,,,,,,,,,,,,,,,,,,,,,,,,,,,,,,,,,,,,,,,,,,,,,,,366.3435239000246,366.3574434000184,366.8576571000158,366.8421269999817,366.8498979000142,366.8576571000158,366.8576571000158,366.8576571000158,369.0427153999917,Objects\009a.jpg,mid,o,2.175131500000134,None,,,,,,,,00031,001,2025-11-21_16h33.17.994,MST_test,2024.2.0,59.97976282754257,2025-11-21 16h33.23.676055 +0530,
120,0,121,s,2.240408900019247,None,121,0,120,369.05728830001317,,,,,,,,,,,,,,,,,,,,,,,,,,,,,,,,,,,,,,,,,,,,,,,,,,369.04309769999236,369.05728830001317,369.5603833000059,369.5418156000087,369.55792709998786,369.5603833000059,369.5603833000059,369.5603833000059,371.8096148999757,Objects\124b.jpg,post,s,2.240408900019247,None,,,,,,,,00031,001,2025-11-21_16h33.17.994,MST_test,2024.2.0,59.97976282754257,2025-11-21 16h33.23.676055 +0530,
121,0,122,s,1.7652523999568075,None,122,0,121,371.8241421999992,,,,,,,,,,,,,,,,,,,,,,,,,,,,,,,,,,,,,,,,,,,,,,,,,,371.810011100024,371.8241421999992,372.3317929999903,372.3085166999954,372.3287682000082,372.3317929999903,372.3317929999903,372.3317929999903,374.1100065999781,Scenes\176b.jpg,mid,s,1.7652523999568075,None,,,,,,,,00031,001,2025-11-21_16h33.17.994,MST_test,2024.2.0,59.97976282754257,2025-11-21 16h33.23.676055 +0530,
122,0,123,o,1.20784280000953,None,123,0,122,374.1243077000254,,,,,,,,,,,,,,,,,,,,,,,,,,,,,,,,,,,,,,,,,,,,,,,,,,374.11040360003244,374.1243077000254,374.62477330002,374.6088671000325,374.61758499999996,374.62477330002,374.62477330002,374.62477330002,375.8437468999764,Objects\099a.jpg,pre,o,1.20784280000953,None,,,,,,,,00031,001,2025-11-21_16h33.17.994,MST_test,2024.2.0,59.97976282754257,2025-11-21 16h33.23.676055 +0530,
123,0,124,o,1.3546863999799825,None,124,0,123,375.85746289999224,,,,,,,,,,,,,,,,,,,,,,,,,,,,,,,,,,,,,,,,,,,,,,,,,,375.8441508000251,375.85746289999224,376.35762999998406,376.34214389999397,376.3490963000222,376.35762999998406,376.35762999998406,376.35762999998406,377.72518780000973,Objects\192a.jpg,post,o,1.3546863999799825,None,,,,,,,,00031,001,2025-11-21_16h33.17.994,MST_test,2024.2.0,59.97976282754257,2025-11-21 16h33.23.676055 +0530,
124,0,125,s,1.699344199965708,None,125,0,124,377.7406387000228,,,,,,,,,,,,,,,,,,,,,,,,,,,,,,,,,,,,,,,,,,,,,,,,,,377.72532229998615,377.7406387000228,378.24567089998163,378.22529410000425,378.24298039998394,378.24567089998163,378.24567089998163,378.24567089998163,379.9599468000233,Foils\scenes18.jpg,none,s,1.699344199965708,None,,,,,,,,00031,001,2025-11-21_16h33.17.994,MST_test,2024.2.0,59.97976282754257,2025-11-21 16h33.23.676055 +0530,
125,0,126,s,1.0547588999615982,None,126,0,125,379.97412259998964,,,,,,,,,,,,,,,,,,,,,,,,,,,,,,,,,,,,,,,,,,,,,,,,,,379.9603531000321,379.97412259998964,380.5062518999912,380.4587128999992,380.50302050000755,380.5062518999912,380.5062518999912,380.5062518999912,381.5763903000043,Objects\003b.jpg,pre,s,1.0547588999615982,None,,,,,,,,00031,001,2025-11-21_16h33.17.994,MST_test,2024.2.0,59.97976282754257,2025-11-21 16h33.23.676055 +0530,
126,0,127,n,1.1386347999796271,None,127,0,126,381.59080760000506,,,,,,,,,,,,,,,,,,,,,,,,,,,,,,,,,,,,,,,,,,,,,,,,,,381.5767863999936,381.59080760000506,382.0938418000005,382.07540620001964,382.09154190000845,382.0938418000005,382.0938418000005,382.0938418000005,383.24322489998303,Foils\scenes13.jpg,none,n,1.1386347999796271,None,,,,,,,,00031,001,2025-11-21_16h33.17.994,MST_test,2024.2.0,59.97976282754257,2025-11-21 16h33.23.676055 +0530,
127,0,128,s,1.083368599996902,None,128,0,127,383.2574975999887,,,,,,,,,,,,,,,,,,,,,,,,,,,,,,,,,,,,,,,,,,,,,,,,,,383.24360420001904,383.2574975999887,383.75783900002716,383.7408780999831,383.75312110001687,383.75783900002716,383.75783900002716,383.75783900002716,384.8435633999761,Objects\040b.jpg,mid,s,1.083368599996902,None,,,,,,,,00031,001,2025-11-21_16h33.17.994,MST_test,2024.2.0,59.97976282754257,2025-11-21 16h33.23.676055 +0530,
128,0,129,o,1.9273975000251085,None,129,0,128,384.857460899977,,,,,,,,,,,,,,,,,,,,,,,,,,,,,,,,,,,,,,,,,,,,,,,,,,384.8438804000034,384.857460899977,385.3690227000043,385.3420976999914,385.36607099999674,385.3690227000043,385.3690227000043,385.3690227000043,387.3095564999967,Scenes\105b.jpg,post,o,1.9273975000251085,None,,,,,,,,00031,001,2025-11-21_16h33.17.994,MST_test,2024.2.0,59.97976282754257,2025-11-21 16h33.23.676055 +0530,
129,0,130,n,1.8116278999950737,None,130,0,129,387.32401480001863,,,,,,,,,,,,,,,,,,,,,,,,,,,,,,,,,,,,,,,,,,,,,,,,,,387.309954700002,387.32401480001863,387.82893419999164,387.8090173000237,387.82617249997566,387.82893419999164,387.82893419999164,387.82893419999164,389.6433421000256,Foils\058a.jpg,none,n,1.8116278999950737,None,,,,,,,,00031,001,2025-11-21_16h33.17.994,MST_test,2024.2.0,59.97976282754257,2025-11-21 16h33.23.676055 +0530,
130,0,131,s,2.004908400005661,None,131,0,130,389.65759140002774,,,,,,,,,,,,,,,,,,,,,,,,,,,,,,,,,,,,,,,,,,,,,,,,,,389.64374480000697,389.65759140002774,390.1635448000161,390.142068199988,390.16028000001097,390.1635448000161,390.1635448000161,390.1635448000161,392.1765741999843,Objects\051b.jpg,mid,s,2.004908400005661,None,,,,,,,,00031,001,2025-11-21_16h33.17.994,MST_test,2024.2.0,59.97976282754257,2025-11-21 16h33.23.676055 +0530,
131,0,132,n,1.9838115000166,None,132,0,131,392.1910070999875,,,,,,,,,,,,,,,,,,,,,,,,,,,,,,,,,,,,,,,,,,,,,,,,,,392.17688380001346,392.1910070999875,392.6965309000225,392.67546699999366,392.693134000001,392.6965309000225,392.6965309000225,392.6965309000225,394.6936200999771,Scenes\049b.jpg,pre,n,1.9838115000166,None,,,,,,,,00031,001,2025-11-21_16h33.17.994,MST_test,2024.2.0,59.97976282754257,2025-11-21 16h33.23.676055 +0530,
132,0,133,n,1.5163399000302888,None,133,0,132,394.7075876999879,,,,,,,,,,,,,,,,,,,,,,,,,,,,,,,,,,,,,,,,,,,,,,,,,,394.6939307000139,394.7075876999879,395.21212879999075,395.19217070000013,395.2092737000203,395.21212879999075,395.21212879999075,395.21212879999075,396.7432136000134,Foils\scenes6.jpg,none,n,1.5163399000302888,None,,,,,,,,00031,001,2025-11-21_16h33.17.994,MST_test,2024.2.0,59.97976282754257,2025-11-21 16h33.23.676055 +0530,
133,0,134,s,1.5842835999792442,None,134,0,133,396.7576965999906,,,,,,,,,,,,,,,,,,,,,,,,,,,,,,,,,,,,,,,,,,,,,,,,,,396.7436056000297,396.7576965999906,397.2646684999927,397.24202330003027,397.2620888000238,397.2646684999927,397.2646684999927,397.2646684999927,398.85966590000317,Objects\144b.jpg,mid,s,1.5842835999792442,None,,,,,,,,00031,001,2025-11-21_16h33.17.994,MST_test,2024.2.0,59.97976282754257,2025-11-21 16h33.23.676055 +0530,
134,0,135,o,2.126323600008618,None,135,0,134,398.8742292000097,,,,,,,,,,,,,,,,,,,,,,,,,,,,,,,,,,,,,,,,,,,,,,,,,,398.8600800000131,398.8742292000097,399.3781128000119,399.3589006999973,399.3750284999842,399.3781128000119,399.3781128000119,399.3781128000119,401.5093721000012,Scenes\112b.jpg,post,o,2.126323600008618,None,,,,,,,,00031,001,2025-11-21_16h33.17.994,MST_test,2024.2.0,59.97976282754257,2025-11-21 16h33.23.676055 +0530,
135,0,136,n,1.3268492000061087,None,136,0,135,401.52413720003096,,,,,,,,,,,,,,,,,,,,,,,,,,,,,,,,,,,,,,,,,,,,,,,,,,401.50960719998693,401.52413720003096,402.04946110001765,402.00860070000635,402.0462472999934,402.04946110001765,402.04946110001765,402.04946110001765,403.39305409998633,Foils\026a.jpg,none,n,1.3268492000061087,None,,,,,,,,00031,001,2025-11-21_16h33.17.994,MST_test,2024.2.0,59.97976282754257,2025-11-21 16h33.23.676055 +0530,
136,0,137,s,2.0885416999808513,None,137,0,136,403.4076550999889,,,,,,,,,,,,,,,,,,,,,,,,,,,,,,,,,,,,,,,,,,,,,,,,,,403.3933813999756,403.4076550999889,403.9121317000245,403.8920458999928,403.90961440000683,403.9121317000245,403.9121317000245,403.9121317000245,406.00999420002336,Objects\045b.jpg,post,s,2.0885416999808513,None,,,,,,,,00031,001,2025-11-21_16h33.17.994,MST_test,2024.2.0,59.97976282754257,2025-11-21 16h33.23.676055 +0530,
137,0,138,o,1.5078346999944188,None,138,0,137,406.02424100000644,,,,,,,,,,,,,,,,,,,,,,,,,,,,,,,,,,,,,,,,,,,,,,,,,,406.01038960000733,406.02424100000644,406.52438200003235,406.5085551000084,406.5140687000239,406.52438200003235,406.52438200003235,406.52438200003235,408.04297980002593,Objects\010a.jpg,post,o,1.5078346999944188,None,,,,,,,,00031,001,2025-11-21_16h33.17.994,MST_test,2024.2.0,59.97976282754257,2025-11-21 16h33.23.676055 +0530,
138,0,139,o,3.1655011999537237,None,139,0,138,408.05761930003064,,,,,,,,,,,,,,,,,,,,,,,,,,,,,,,,,,,,,,,,,,,,,,,,,,408.0433575999923,408.05761930003064,408.5712851000135,408.54240430000937,408.5681149000302,408.5712851000135,408.5712851000135,408.5712851000135,411.7437613999937,Scenes\002b.jpg,pre,o,3.1655011999537237,None,,,,,,,,00031,001,2025-11-21_16h33.17.994,MST_test,2024.2.0,59.97976282754257,2025-11-21 16h33.23.676055 +0530,
139,0,140,o,1.1339261999819428,None,140,0,139,411.7576241000206,,,,,,,,,,,,,,,,,,,,,,,,,,,,,,,,,,,,,,,,,,,,,,,,,,411.74414149997756,411.7576241000206,412.25850840000203,412.2426080000005,412.2547505000257,412.25850840000203,412.25850840000203,412.25850840000203,413.4096013000235,Scenes\124a.jpg,mid,o,1.1339261999819428,None,,,,,,,,00031,001,2025-11-21_16h33.17.994,MST_test,2024.2.0,59.97976282754257,2025-11-21 16h33.23.676055 +0530,
140,0,141,o,1.618313200015109,None,141,0,140,413.4242481000256,,,,,,,,,,,,,,,,,,,,,,,,,,,,,,,,,,,,,,,,,,,,,,,,,,413.40991059999214,413.4242481000256,413.93430800002534,413.9088395999861,413.9311566000106,413.93430800002534,413.93430800002534,413.93430800002534,415.56092469999567,Scenes\003b.jpg,post,o,1.618313200015109,None,,,,,,,,00031,001,2025-11-21_16h33.17.994,MST_test,2024.2.0,59.97976282754257,2025-11-21 16h33.23.676055 +0530,
141,0,142,n,1.1052517999778502,None,142,0,141,415.57419349998236,,,,,,,,,,,,,,,,,,,,,,,,,,,,,,,,,,,,,,,,,,,,,,,,,,415.5614668999915,415.57419349998236,416.0789760000189,416.058884500002,416.07612209999934,416.0789760000189,416.0789760000189,416.0789760000189,417.19304879999254,Foils\scenes14.jpg,none,n,1.1052517999778502,None,,,,,,,,00031,001,2025-11-21_16h33.17.994,MST_test,2024.2.0,59.97976282754257,2025-11-21 16h33.23.676055 +0530,
142,0,143,s,1.4025609999662265,None,143,0,142,417.20779279997805,,,,,,,,,,,,,,,,,,,,,,,,,,,,,,,,,,,,,,,,,,,,,,,,,,417.19335980003234,417.20779279997805,417.7102830000222,417.69198519998463,417.7077120000031,417.7102830000222,417.7102830000222,417.7102830000222,419.12664460000815,Objects\143b.jpg,post,s,1.4025609999662265,None,,,,,,,,00031,001,2025-11-21_16h33.17.994,MST_test,2024.2.0,59.97976282754257,2025-11-21 16h33.23.676055 +0530,
143,0,144,o,1.7434018999920227,None,144,0,143,419.1410291999928,,,,,,,,,,,,,,,,,,,,,,,,,,,,,,,,,,,,,,,,,,,,,,,,,,419.1270657000132,419.1410291999928,419.64105849998305,419.6251376,419.63272410002537,419.64105849998305,419.64105849998305,419.64105849998305,421.39352470001904,Objects\180a.jpg,mid,o,1.7434018999920227,None,,,,,,,,00031,001,2025-11-21_16h33.17.994,MST_test,2024.2.0,59.97976282754257,2025-11-21 16h33.23.676055 +0530,
144,0,145,n,1.4410238999989815,None,145,0,144,421.4077437000233,,,,,,,,,,,,,,,,,,,,,,,,,,,,,,,,,,,,,,,,,,,,,,,,,,421.3939147000201,421.4077437000233,421.94364130002214,421.8920857000048,421.9397382999887,421.94364130002214,421.94364130002214,421.94364130002214,423.3932988999877,Foils\scenes15.jpg,none,n,1.4410238999989815,None,,,,,,,,00031,001,2025-11-21_16h33.17.994,MST_test,2024.2.0,59.97976282754257,2025-11-21 16h33.23.676055 +0530,
145,0,146,o,1.7708415999659337,None,146,0,145,423.4076788999955,,,,,,,,,,,,,,,,,,,,,,,,,,,,,,,,,,,,,,,,,,,,,,,,,,423.39369420002913,423.4076788999955,423.91007689997787,423.89207120001083,423.90221169998404,423.91007689997787,423.91007689997787,423.91007689997787,425.69330520002404,Objects\129a.jpg,pre,o,1.7708415999659337,None,,,,,,,,00031,001,2025-11-21_16h33.17.994,MST_test,2024.2.0,59.97976282754257,2025-11-21 16h33.23.676055 +0530,
146,0,147,s,1.688994999974966,None,147,0,146,425.70768589997897,,,,,,,,,,,,,,,,,,,,,,,,,,,,,,,,,,,,,,,,,,,,,,,,,,425.693717200018,425.70768589997897,426.2077483999892,426.192029799975,426.19932259997586,426.2077483999892,426.2077483999892,426.2077483999892,427.90980090002995,Objects\115a.jpg,post,s,1.688994999974966,None,,,,,,,,00031,001,2025-11-21_16h33.17.994,MST_test,2024.2.0,59.97976282754257,2025-11-21 16h33.23.676055 +0530,
147,0,148,n,1.3254863999900408,None,148,0,147,427.9243694000179,,,,,,,,,,,,,,,,,,,,,,,,,,,,,,,,,,,,,,,,,,,,,,,,,,427.9101757000317,427.9243694000179,428.42722299997695,428.40887540002586,428.42488850001246,428.42722299997695,428.42722299997695,428.42722299997695,429.76014710002346,Foils\050a.jpg,none,n,1.3254863999900408,None,,,,,,,,00031,001,2025-11-21_16h33.17.994,MST_test,2024.2.0,59.97976282754257,2025-11-21 16h33.23.676055 +0530,
148,0,149,n,2.274177099985536,None,149,0,148,429.7743148999871,,,,,,,,,,,,,,,,,,,,,,,,,,,,,,,,,,,,,,,,,,,,,,,,,,429.76053889998,429.7743148999871,430.27901890000794,430.2588564000325,430.27644739998505,430.27901890000794,430.27901890000794,430.27901890000794,432.55959979997715,Foils\042a.jpg,none,n,2.274177099985536,None,,,,,,,,00031,001,2025-11-21_16h33.17.994,MST_test,2024.2.0,59.97976282754257,2025-11-21 16h33.23.676055 +0530,
149,0,150,n,1.0258728999760933,None,150,0,149,432.57403279998107,,,,,,,,,,,,,,,,,,,,,,,,,,,,,,,,,,,,,,,,,,,,,,,,,,432.5598951000138,432.57403279998107,433.0788398000295,433.05898199998774,433.07652619999135,433.0788398000295,433.0788398000295,433.0788398000295,434.1084173999843,Foils\034a.jpg,none,n,1.0258728999760933,None,,,,,,,,00031,001,2025-11-21_16h33.17.994,MST_test,2024.2.0,59.97976282754257,2025-11-21 16h33.23.676055 +0530,
,,,,,,,,,,,,,,,,,,,,,,,,,,,,,,,,,,,,,,,,,,,,,,,,,,,,,,,,,,,,,,,,,,,,,,,,,434.10852489998797,434.1240308000124,434.1240308000124,436.24308490002295,space,2.109010500018485,None,00031,001,2025-11-21_16h33.17.994,MST_test,2024.2.0,59.97976282754257,2025-11-21 16h33.23.676055 +0530,
