Sl_no,image_path,thisN,thisTrialN,thisRepN,key_resp_5.keys,key_resp_5.rt,key_resp_5.duration,key_resp_7.keys,key_resp_7.rt,key_resp_7.duration,key_resp_9.keys,key_resp_9.rt,key_resp_9.duration,key_resp_8.keys,key_resp_8.rt,key_resp_8.duration,practice.thisRepN,practice.thisTrialN,practice.thisN,trials.thisRepN,trials.thisTrialN,trials.thisN,thisRow.t,notes,welcome_page.started,text.started,key_resp.started,welcome_page.stopped,key_resp.keys,key_resp.rt,key_resp.duration,instructions.started,ins.started,key_resp_2.started,instructions.stopped,key_resp_2.keys,key_resp_2.rt,key_resp_2.duration,instructions_2.started,text_10.started,key_resp_10.started,instructions_2.stopped,key_resp_10.keys,key_resp_10.rt,key_resp_10.duration,objects_only_instruction.started,text_3.started,key_resp_3.started,objects_only_instruction.stopped,key_resp_3.keys,key_resp_3.rt,key_resp_3.duration,ISI.started,text_4.started,text_4.stopped,ISI.stopped,practice_block.started,image.started,text_5.started,key_resp_5.started,practice_block.stopped,practice.key_resp_5.keys,practice.key_resp_5.rt,practice.key_resp_5.duration,indoor_outdoor.started,indoor_outdoor.stopped,practice.key_resp_7.keys,image.stopped,text_5.stopped,key_resp_5.stopped,text_7.started,key_resp_7.started,practice.key_resp_7.rt,practice.key_resp_7.duration,practice_to_main.started,text_2.started,key_resp_4.started,practice_to_main.stopped,key_resp_4.keys,key_resp_4.rt,key_resp_4.duration,objects.started,image_2.started,text_9.started,key_resp_9.started,image_2.stopped,text_9.stopped,key_resp_9.stopped,objects.stopped,trials.key_resp_9.keys,trials.key_resp_9.rt,trials.key_resp_9.duration,encoding_task.started,encoding_task.stopped,trials.key_resp_8.keys,text_8.started,key_resp_8.started,trials.key_resp_8.rt,trials.key_resp_8.duration,end_experiment.started,text_6.started,key_resp_6.started,end_experiment.stopped,key_resp_6.keys,key_resp_6.rt,key_resp_6.duration,list_of_stimuli,encoding_task_accuracy,participant,session,date,expName,psychopyVersion,frameRate,expStart,
,,,,,,,,,,,,,,,,,,,,,,,,,0.0013734999956795946,0.0029031000012764707,0.0029031000012764707,14.421975699995528,space,14.414294100002735,None,,,,,,,,,,,,,,,,,,,,,,,,,,,,,,,,,,,,,,,,,,,,,,,,,,,,,,,,,,,,,,,,,,,,,,,,,,,,,,00033,001,2026-01-16_11h18.29.757,MST_task,2024.2.0,60.17060773913705,2026-01-16 11h18.37.958526 +0530,
,,,,,,,,,,,,,,,,,,,,,,,,,,,,,,,,14.422007999994094,14.43681430000288,14.43681430000288,33.22050989999843,space,18.780005600012373,None,,,,,,,,,,,,,,,,,,,,,,,,,,,,,,,,,,,,,,,,,,,,,,,,,,,,,,,,,,,,,,,,,,,,,,,00033,001,2026-01-16_11h18.29.757,MST_task,2024.2.0,60.17060773913705,2026-01-16 11h18.37.958526 +0530,
,,,,,,,,,,,,,,,,,,,,,,,,,,,,,,,,,,,,,,,33.22053629999573,33.236752400000114,33.236752400000114,48.13746270000411,space,14.892279500010773,None,,,,,,,,,,,,,,,,,,,,,,,,,,,,,,,,,,,,,,,,,,,,,,,,,,,,,,,,,,,,,,,,00033,001,2026-01-16_11h18.29.757,MST_task,2024.2.0,60.17060773913705,2026-01-16 11h18.37.958526 +0530,
,,,,,,,,,,,,,,,,,,,,,,,,,,,,,,,,,,,,,,,,,,,,,,48.13749310000276,48.15341699999408,48.15341699999408,69.83738100000483,space,21.678782100003446,None,,,,,,,,,,,,,,,,,,,,,,,,,,,,,,,,,,,,,,,,,,,,,,,,,,,,,,,,,00033,001,2026-01-16_11h18.29.757,MST_task,2024.2.0,60.17060773913705,2026-01-16 11h18.37.958526 +0530,
2,practice_images/031a.jpg,0,0,1,f,2.8218283000023803,0.15999479999300092,None,,,,,,,,,1,0,0,,,,69.85339099999692,,,,,,,,,,,,,,,,,,,,,,,,,,,,,,69.84108620000188,69.85339099999692,70.35484630000428,70.33699949999573,70.34413430000131,70.35484630000428,70.35484630000428,70.35484630000428,73.35367490000499,f,2.8218283000023803,0.15999479999300092,73.35544270000537,73.3554618999915,None,,,,,,,,,,,,,,,,,,,,,,,,,,,,,,,,,,,,,,,,,,00033,001,2026-01-16_11h18.29.757,MST_task,2024.2.0,60.17060773913705,2026-01-16 11h18.37.958526 +0530,
1,practice_images/013a.jpg,1,1,1,j,1.7384306999883847,0.09602680000534747,None,,,,,,,,,1,1,1,,,,73.36998869999661,,,,,,,,,,,,,,,,,,,,,,,,,,,,,,73.3555297999992,73.36998869999661,73.87012369999138,73.85380080000323,73.85544460000528,73.87012369999138,73.87012369999138,73.87012369999138,76.85376670000551,j,1.7384306999883847,0.09602680000534747,76.85380409999925,76.85381600000255,None,76.87001400000008,76.87001400000008,76.87001400000008,,,,,,,,,,,,,,,,,,,,,,,,,,,,,,,,,,,,,,,00033,001,2026-01-16_11h18.29.757,MST_task,2024.2.0,60.17060773913705,2026-01-16 11h18.37.958526 +0530,
6,practice_images/158a.jpg,2,2,1,j,1.2060622999997577,0.12772840000980068,None,,,,,,,,,1,2,2,,,,76.87001400000008,,,,,,,,,,,,,,,,,,,,,,,,,,,,,,76.85388579999562,76.87001400000008,77.37021759999334,77.35366239999712,77.35509300000558,77.37021759999334,77.37021759999334,77.37021759999334,80.35375019999628,j,1.2060622999997577,0.12772840000980068,80.3537886999984,80.35380110000551,None,80.3699115000054,80.3699115000054,80.3699115000054,,,,,,,,,,,,,,,,,,,,,,,,,,,,,,,,,,,,,,,00033,001,2026-01-16_11h18.29.757,MST_task,2024.2.0,60.17060773913705,2026-01-16 11h18.37.958526 +0530,
8,practice_images/178a.jpg,3,3,1,f,1.2820075000054203,0.1284756999957608,None,,,,,,,,,1,3,3,,,,80.3699115000054,,,,,,,,,,,,,,,,,,,,,,,,,,,,,,80.35386329999892,80.3699115000054,80.87008880000212,80.85385939999833,80.8554609999992,80.87008880000212,80.87008880000212,80.87008880000212,83.85382020000543,f,1.2820075000054203,0.1284756999957608,83.85385879999376,83.85387170000467,None,83.86991860000126,83.86991860000126,83.86991860000126,,,,,,,,,,,,,,,,,,,,,,,,,,,,,,,,,,,,,,,00033,001,2026-01-16_11h18.29.757,MST_task,2024.2.0,60.17060773913705,2026-01-16 11h18.37.958526 +0530,
10,practice_images/182a.jpg,4,4,1,f,0.8059781000047224,0.11235300000407733,None,,,,,,,,,1,4,4,,,,83.86991860000126,,,,,,,,,,,,,,,,,,,,,,,,,,,,,,83.85394349999842,83.86991860000126,84.37018480000552,84.35360239999136,84.35500529999263,84.37018480000552,84.37018480000552,84.37018480000552,87.35385990000213,f,0.8059781000047224,0.11235300000407733,87.3539019000018,87.35391520000121,None,87.36995179999212,87.36995179999212,87.36995179999212,,,,,,,,,,,,,,,,,,,,,,,,,,,,,,,,,,,,,,,00033,001,2026-01-16_11h18.29.757,MST_task,2024.2.0,60.17060773913705,2026-01-16 11h18.37.958526 +0530,
7,practice_images/166a.jpg,5,5,1,None,,,j,2.1142967000050703,None,,,,,,,1,5,5,,,,87.36995179999212,,,,,,,,,,,,,,,,,,,,,,,,,,,,,,87.35398149999673,87.36995179999212,87.87002810000558,87.85365839999577,87.85906639999303,87.87002810000558,87.87002810000558,87.87002810000558,90.85385509999469,None,,,90.85654730000533,92.98734179999155,j,90.86997109999356,90.86997109999356,90.86997109999356,90.86997109999356,90.86997109999356,2.1142967000050703,None,,,,,,,,,,,,,,,,,,,,,,,,,,,,,,,,,,,00033,001,2026-01-16_11h18.29.757,MST_task,2024.2.0,60.17060773913705,2026-01-16 11h18.37.958526 +0530,
4,practice_images/002b.jpg,6,6,1,j,1.7212441000010585,0.11996000001090579,None,,,,,,,,,1,6,6,,,,93.00344430000405,,,,,,,,,,,,,,,,,,,,,,,,,,,,,,92.98742619999393,93.00344430000405,93.50364179999451,93.48718440000084,93.48896809999133,93.50364179999451,93.50364179999451,93.50364179999451,96.48713779999525,j,1.7212441000010585,0.11996000001090579,96.4871756999928,96.48719709999568,None,96.5033773000032,96.5033773000032,96.5033773000032,,,,,,,,,,,,,,,,,,,,,,,,,,,,,,,,,,,,,,,00033,001,2026-01-16_11h18.29.757,MST_task,2024.2.0,60.17060773913705,2026-01-16 11h18.37.958526 +0530,
5,practice_images/139a.jpg,7,7,1,f,2.220548899989808,0.12836510001216084,None,,,,,,,,,1,7,7,,,,96.5033773000032,,,,,,,,,,,,,,,,,,,,,,,,,,,,,,96.48726239999814,96.5033773000032,97.0036672999995,96.98707970000396,96.98854259999644,97.0036672999995,97.0036672999995,97.0036672999995,99.9872108999989,f,2.220548899989808,0.12836510001216084,99.98724869999569,99.98726120000356,None,100.00352739999653,100.00352739999653,100.00352739999653,,,,,,,,,,,,,,,,,,,,,,,,,,,,,,,,,,,,,,,00033,001,2026-01-16_11h18.29.757,MST_task,2024.2.0,60.17060773913705,2026-01-16 11h18.37.958526 +0530,
3,practice_images/037a.jpg,8,8,1,f,1.4088786999927834,0.08799870000802912,None,,,,,,,,,1,8,8,,,,100.00352739999653,,,,,,,,,,,,,,,,,,,,,,,,,,,,,,99.98732260000543,100.00352739999653,100.50362970000424,100.4870571999927,100.48841180000454,100.50362970000424,100.50362970000424,100.50362970000424,103.4872469999973,f,1.4088786999927834,0.08799870000802912,103.48728489999485,103.48729760000424,None,103.50352159999602,103.50352159999602,103.50352159999602,,,,,,,,,,,,,,,,,,,,,,,,,,,,,,,,,,,,,,,00033,001,2026-01-16_11h18.29.757,MST_task,2024.2.0,60.17060773913705,2026-01-16 11h18.37.958526 +0530,
9,practice_images/180a.jpg,9,9,1,j,1.5324206999939634,0.12790180000592954,None,,,,,,,,,1,9,9,,,,103.50352159999602,,,,,,,,,,,,,,,,,,,,,,,,,,,,,,103.48736210000061,103.50352159999602,104.00371069999528,103.98713029999635,103.98855589999584,104.00371069999528,104.00371069999528,104.00371069999528,106.98722860000271,j,1.5324206999939634,0.12790180000592954,106.98726520000491,106.98727729999518,None,107.0035574999929,107.0035574999929,107.0035574999929,,,,,,,,,,,,,,,,,,,,,,,,,,,,,,,,,,,,,,,00033,001,2026-01-16_11h18.29.757,MST_task,2024.2.0,60.17060773913705,2026-01-16 11h18.37.958526 +0530,
,,,,,,,,,,,,,,,,,,,,,,,,,,,,,,,,,,,,,,,,,,,,,,,,,,,,,,,,,,,,,,,,,,,,,,,,,,,106.98731949999637,107.0035574999929,107.0035574999929,135.6371405999962,space,28.620978499995545,None,,,,,,,,,,,,,,,,,,,,,,,,,,,,00033,001,2026-01-16_11h18.29.757,MST_task,2024.2.0,60.17060773913705,2026-01-16 11h18.37.958526 +0530,
,Objects\019a.jpg,0,0,1,,,,,,,j,2.6303027999965707,0.09631280000030529,None,,,,,,1,0,0,135.65344169999298,,,,,,,,,,,,,,,,,,,,,,,,,,,,,,135.637896500004,135.65344169999298,136.1537093999941,136.13693929999135,,,,,,,,,,,,,,,,,,,,,,,,,,136.14274700000533,136.1537093999941,136.1537093999941,136.1537093999941,139.15342259999306,139.15342259999306,139.15342259999306,139.13724569999613,j,2.6303027999965707,0.09631280000030529,139.1404493000009,139.1404668000032,None,,,,,,,,,,,,,,00033,001,2026-01-16_11h18.29.757,MST_task,2024.2.0,60.17060773913705,2026-01-16 11h18.37.958526 +0530,
,Objects\028a.jpg,1,0,2,,,,,,,None,,,j,0.3947330999944825,None,,,,2,0,1,139.15342259999306,,,,,,,,,,,,,,,,,,,,,,,,,,,,,,139.14053489999787,139.15342259999306,139.65371919999598,139.63701669999864,,,,,,,,,,,,,,,,,,,,,,,,,,139.64657609999995,139.65371919999598,139.65371919999598,139.65371919999598,142.6534537999978,142.6534537999978,142.6534537999978,142.63732989999698,None,,,142.63736969999445,143.0537320000003,j,142.6534537999978,142.6534537999978,0.3947330999944825,None,,,,,,,,,,00033,001,2026-01-16_11h18.29.757,MST_task,2024.2.0,60.17060773913705,2026-01-16 11h18.37.958526 +0530,
,Objects\176a.jpg,2,0,3,,,,,,,j,1.8942925000010291,0.09650159999728203,None,,,,,,3,0,2,143.07000649999827,,,,,,,,,,,,,,,,,,,,,,,,,,,,,,143.05384920000506,143.07000649999827,143.5701218000031,143.55370659999608,,,,,,,,,,,,,,,,,,,,,,,,,,143.55666139999812,143.5701218000031,143.5701218000031,143.5701218000031,146.57005890000437,146.57005890000437,146.57005890000437,146.5541368999984,j,1.8942925000010291,0.09650159999728203,146.5541802999942,146.554192399999,None,,,,,,,,,,,,,,00033,001,2026-01-16_11h18.29.757,MST_task,2024.2.0,60.17060773913705,2026-01-16 11h18.37.958526 +0530,
,Objects\066a.jpg,3,0,4,,,,,,,f,1.1460392000008142,0.11347999999998137,None,,,,,,4,0,3,146.57005890000437,,,,,,,,,,,,,,,,,,,,,,,,,,,,,,146.55429440000444,146.57005890000437,147.07020020000346,147.05364230000123,,,,,,,,,,,,,,,,,,,,,,,,,,147.05666810000548,147.07020020000346,147.07020020000346,147.07020020000346,150.06994600000326,150.06994600000326,150.06994600000326,150.0541707999946,f,1.1460392000008142,0.11347999999998137,150.05421819999174,150.05422979999275,None,,,,,,,,,,,,,,00033,001,2026-01-16_11h18.29.757,MST_task,2024.2.0,60.17060773913705,2026-01-16 11h18.37.958526 +0530,
,Objects\162a.jpg,4,0,5,,,,,,,f,1.846439899993129,0.08794060000218451,None,,,,,,5,0,4,150.06994600000326,,,,,,,,,,,,,,,,,,,,,,,,,,,,,,150.05429780000122,150.06994600000326,150.57031450000068,150.55367589999514,,,,,,,,,,,,,,,,,,,,,,,,,,150.56532379999408,150.57031450000068,150.57031450000068,150.57031450000068,153.5700000999932,153.5700000999932,153.5700000999932,153.5539254000032,f,1.846439899993129,0.08794060000218451,153.55396649999602,153.55397759999323,None,,,,,,,,,,,,,,00033,001,2026-01-16_11h18.29.757,MST_task,2024.2.0,60.17060773913705,2026-01-16 11h18.37.958526 +0530,
,Objects\021a.jpg,5,0,6,,,,,,,f,2.0825745000038296,0.11184099999081809,None,,,,,,6,0,5,153.5700000999932,,,,,,,,,,,,,,,,,,,,,,,,,,,,,,153.55404380000255,153.5700000999932,154.07022949999373,154.05377800000133,,,,,,,,,,,,,,,,,,,,,,,,,,154.05659469999955,154.07022949999373,154.07022949999373,154.07022949999373,,,,157.05452689999947,f,2.0825745000038296,0.11184099999081809,157.05457089999982,157.05458280000312,None,,,,,,,,,,,,,,00033,001,2026-01-16_11h18.29.757,MST_task,2024.2.0,60.17060773913705,2026-01-16 11h18.37.958526 +0530,
,Objects\049a.jpg,6,0,7,,,,,,,f,0.9669399999984307,0.09492590000445489,None,,,,,,7,0,6,157.06994159999886,,,,,,,,,,,,,,,,,,,,,,,,,,,,,,157.05465219999314,157.06994159999886,157.57025069999509,157.55371100000048,,,,,,,,,,,,,,,,,,,,,,,,,,157.5562632999936,157.57025069999509,157.57025069999509,157.57025069999509,160.56996639999852,160.56996639999852,160.56996639999852,160.55404689999705,f,0.9669399999984307,0.09492590000445489,160.55409340000188,160.55410490000213,None,,,,,,,,,,,,,,00033,001,2026-01-16_11h18.29.757,MST_task,2024.2.0,60.17060773913705,2026-01-16 11h18.37.958526 +0530,
,Scenes\012a.jpg,7,0,8,,,,,,,f,1.409118399998988,0.08799369999906048,None,,,,,,8,0,7,160.56996639999852,,,,,,,,,,,,,,,,,,,,,,,,,,,,,,160.55417119999765,160.56996639999852,161.0709177999961,161.0536640999926,,,,,,,,,,,,,,,,,,,,,,,,,,161.0661637000012,161.0709177999961,161.0709177999961,161.0709177999961,164.06995409999217,164.06995409999217,164.06995409999217,164.0540622999979,f,1.409118399998988,0.08799369999906048,164.05573880000156,164.05575689999387,None,,,,,,,,,,,,,,00033,001,2026-01-16_11h18.29.757,MST_task,2024.2.0,60.17060773913705,2026-01-16 11h18.37.958526 +0530,
,Scenes\109a.jpg,8,0,9,,,,,,,j,1.7903306000080192,0.11185600000317208,None,,,,,,9,0,8,164.06995409999217,,,,,,,,,,,,,,,,,,,,,,,,,,,,,,164.05585689999862,164.06995409999217,164.57061789999716,164.55374859999574,,,,,,,,,,,,,,,,,,,,,,,,,,164.5622260999953,164.57061789999716,164.57061789999716,164.57061789999716,167.56989610000164,167.56989610000164,167.56989610000164,167.55414019999444,j,1.7903306000080192,0.11185600000317208,167.5541818000056,167.5541932999913,None,,,,,,,,,,,,,,00033,001,2026-01-16_11h18.29.757,MST_task,2024.2.0,60.17060773913705,2026-01-16 11h18.37.958526 +0530,
,Scenes\143a.jpg,9,0,10,,,,,,,j,1.5384291999944253,0.13600070000393316,None,,,,,,10,0,9,167.56989610000164,,,,,,,,,,,,,,,,,,,,,,,,,,,,,,167.55426079999597,167.56989610000164,168.07053879999148,168.05363870000292,,,,,,,,,,,,,,,,,,,,,,,,,,168.06282189999183,168.07053879999148,168.07053879999148,168.07053879999148,171.0699725000013,171.0699725000013,171.0699725000013,171.0540689000045,j,1.5384291999944253,0.13600070000393316,171.05411090000416,171.05412149999756,None,,,,,,,,,,,,,,00033,001,2026-01-16_11h18.29.757,MST_task,2024.2.0,60.17060773913705,2026-01-16 11h18.37.958526 +0530,
,Scenes\014a.jpg,10,0,11,,,,,,,j,1.062169199998607,0.13642419999814592,None,,,,,,11,0,10,171.0699725000013,,,,,,,,,,,,,,,,,,,,,,,,,,,,,,171.05421770000248,171.0699725000013,171.57043449999765,171.55381270000362,,,,,,,,,,,,,,,,,,,,,,,,,,171.56832900000154,171.57043449999765,171.57043449999765,171.57043449999765,174.57004140000208,174.57004140000208,174.57004140000208,174.55411569999706,j,1.062169199998607,0.13642419999814592,174.5541641000018,174.55417570000282,None,,,,,,,,,,,,,,00033,001,2026-01-16_11h18.29.757,MST_task,2024.2.0,60.17060773913705,2026-01-16 11h18.37.958526 +0530,
,Scenes\153a.jpg,11,0,12,,,,,,,j,1.1783166000095662,0.08797599999525119,None,,,,,,12,0,11,174.57004140000208,,,,,,,,,,,,,,,,,,,,,,,,,,,,,,174.55424369999673,174.57004140000208,175.07050129999698,175.05370839999523,,,,,,,,,,,,,,,,,,,,,,,,,,175.05912259999604,175.07050129999698,175.07050129999698,175.07050129999698,178.0699550999998,178.0699550999998,178.0699550999998,178.05401439999696,j,1.1783166000095662,0.08797599999525119,178.05405809999502,178.05406959999527,None,,,,,,,,,,,,,,00033,001,2026-01-16_11h18.29.757,MST_task,2024.2.0,60.17060773913705,2026-01-16 11h18.37.958526 +0530,
,Scenes\165a.jpg,12,0,13,,,,,,,j,1.1784670000051847,0.14392590000352357,None,,,,,,13,0,12,178.0699550999998,,,,,,,,,,,,,,,,,,,,,,,,,,,,,,178.05417390000366,178.0699550999998,178.57434069999726,178.5536262999958,,,,,,,,,,,,,,,,,,,,,,,,,,178.57196719999774,178.57434069999726,178.57434069999726,178.57434069999726,,,,181.57028770000034,j,1.1784670000051847,0.14392590000352357,181.57032899999467,181.57034089999797,None,,,,,,,,,,,,,,00033,001,2026-01-16_11h18.29.757,MST_task,2024.2.0,60.17060773913705,2026-01-16 11h18.37.958526 +0530,
,Scenes\170a.jpg,13,0,14,,,,,,,j,1.4140810999961104,0.1282781000045361,None,,,,,,14,0,13,181.58685819999664,,,,,,,,,,,,,,,,,,,,,,,,,,,,,,181.57041030000255,181.58685819999664,182.0904947999952,182.07024570000067,,,,,,,,,,,,,,,,,,,,,,,,,,182.08838509999623,182.0904947999952,182.0904947999952,182.0904947999952,,,,185.08703429999878,j,1.4140810999961104,0.1282781000045361,185.08708490000572,185.08709739999904,None,,,,,,,,,,,,,,00033,001,2026-01-16_11h18.29.757,MST_task,2024.2.0,60.17060773913705,2026-01-16 11h18.37.958526 +0530,
,Objects\064a.jpg,14,0,15,,,,,,,f,1.5974582000053488,0.1269010999967577,None,,,,,,15,0,14,185.10337830000208,,,,,,,,,,,,,,,,,,,,,,,,,,,,,,185.087171399995,185.10337830000208,185.6039257999946,185.58697979999124,,,,,,,,,,,,,,,,,,,,,,,,,,185.59917929999938,185.6039257999946,185.6039257999946,185.6039257999946,188.60344479999912,188.60344479999912,188.60344479999912,188.58726869999373,f,1.5974582000053488,0.1269010999967577,188.58932909999567,188.58934829999635,None,,,,,,,,,,,,,,00033,001,2026-01-16_11h18.29.757,MST_task,2024.2.0,60.17060773913705,2026-01-16 11h18.37.958526 +0530,
,Objects\002a.jpg,15,0,16,,,,,,,f,1.1209089000039967,0.08826169998792466,None,,,,,,16,0,15,188.60344479999912,,,,,,,,,,,,,,,,,,,,,,,,,,,,,,188.58945119999407,188.60344479999912,189.10370259999763,189.0872015999921,,,,,,,,,,,,,,,,,,,,,,,,,,189.090028599996,189.10370259999763,189.10370259999763,189.10370259999763,192.10344209999312,192.10344209999312,192.10344209999312,192.08734009999898,f,1.1209089000039967,0.08826169998792466,192.08738240000093,192.08739329999662,None,,,,,,,,,,,,,,00033,001,2026-01-16_11h18.29.757,MST_task,2024.2.0,60.17060773913705,2026-01-16 11h18.37.958526 +0530,
,Objects\100a.jpg,16,0,17,,,,,,,f,0.7338436999998521,0.08699830000114162,None,,,,,,17,0,16,192.10344209999312,,,,,,,,,,,,,,,,,,,,,,,,,,,,,,192.08748990000458,192.10344209999312,192.6036044999928,192.58695149999403,,,,,,,,,,,,,,,,,,,,,,,,,,192.58951190000516,192.6036044999928,192.6036044999928,192.6036044999928,195.60345140000572,195.60345140000572,195.60345140000572,195.58723580000515,f,0.7338436999998521,0.08699830000114162,195.5872759000049,195.5872870000021,None,,,,,,,,,,,,,,00033,001,2026-01-16_11h18.29.757,MST_task,2024.2.0,60.17060773913705,2026-01-16 11h18.37.958526 +0530,
,Objects\129a.jpg,17,0,18,,,,,,,f,1.0644669000030262,0.06399260000034701,None,,,,,,18,0,17,195.60345140000572,,,,,,,,,,,,,,,,,,,,,,,,,,,,,,195.58735349999915,195.60345140000572,196.1036679999961,196.0870256000053,,,,,,,,,,,,,,,,,,,,,,,,,,196.08972479999647,196.1036679999961,196.1036679999961,196.1036679999961,199.10358880000422,199.10358880000422,199.10358880000422,199.08733409999695,f,1.0644669000030262,0.06399260000034701,199.08737700000347,199.08738759999687,None,,,,,,,,,,,,,,00033,001,2026-01-16_11h18.29.757,MST_task,2024.2.0,60.17060773913705,2026-01-16 11h18.37.958526 +0530,
,Objects\186a.jpg,18,0,19,,,,,,,f,1.468660100013949,0.09663219998765271,None,,,,,,19,0,18,199.10358880000422,,,,,,,,,,,,,,,,,,,,,,,,,,,,,,199.08748459999333,199.10358880000422,199.60360049999144,199.58702949999133,,,,,,,,,,,,,,,,,,,,,,,,,,199.58978670000215,199.60360049999144,199.60360049999144,199.60360049999144,202.6034437999915,202.6034437999915,202.6034437999915,202.587311700001,f,1.468660100013949,0.09663219998765271,202.5873547999945,202.58736520000093,None,,,,,,,,,,,,,,00033,001,2026-01-16_11h18.29.757,MST_task,2024.2.0,60.17060773913705,2026-01-16 11h18.37.958526 +0530,
,Objects\031a.jpg,19,0,20,,,,,,,j,1.7286323000007542,0.10401229999843054,None,,,,,,20,0,19,202.6034437999915,,,,,,,,,,,,,,,,,,,,,,,,,,,,,,202.58743200000026,202.6034437999915,203.10362100000202,203.08699609999894,,,,,,,,,,,,,,,,,,,,,,,,,,203.08978829999978,203.10362100000202,203.10362100000202,203.10362100000202,206.103409000003,206.103409000003,206.103409000003,206.08737179999298,j,1.7286323000007542,0.10401229999843054,206.0874174000055,206.08742899999197,None,,,,,,,,,,,,,,00033,001,2026-01-16_11h18.29.757,MST_task,2024.2.0,60.17060773913705,2026-01-16 11h18.37.958526 +0530,
,Objects\183a.jpg,20,0,21,,,,,,,j,1.3809286000032444,0.08795790000294801,None,,,,,,21,0,20,206.103409000003,,,,,,,,,,,,,,,,,,,,,,,,,,,,,,206.08753449999494,206.103409000003,206.6038161000033,206.58726469999237,,,,,,,,,,,,,,,,,,,,,,,,,,206.5903399999952,206.6038161000033,206.6038161000033,206.6038161000033,209.60342509999464,209.60342509999464,209.60342509999464,209.58739729999797,j,1.3809286000032444,0.08795790000294801,209.5874393999984,209.58745089999866,None,,,,,,,,,,,,,,00033,001,2026-01-16_11h18.29.757,MST_task,2024.2.0,60.17060773913705,2026-01-16 11h18.37.958526 +0530,
,Scenes\003a.jpg,21,0,22,,,,,,,f,1.8796782999997959,0.08000310001079924,None,,,,,,22,0,21,209.60342509999464,,,,,,,,,,,,,,,,,,,,,,,,,,,,,,209.58755019999808,209.60342509999464,210.10443789999408,210.08704220000072,,,,,,,,,,,,,,,,,,,,,,,,,,210.09957370000484,210.10443789999408,210.10443789999408,210.10443789999408,213.1036000000022,213.1036000000022,213.1036000000022,213.0878415000043,f,1.8796782999997959,0.08000310001079924,213.08934779999254,213.0893628000049,None,,,,,,,,,,,,,,00033,001,2026-01-16_11h18.29.757,MST_task,2024.2.0,60.17060773913705,2026-01-16 11h18.37.958526 +0530,
,Scenes\187a.jpg,22,0,23,,,,,,,j,1.0602592000068398,0.07997019999311306,None,,,,,,23,0,22,213.1036000000022,,,,,,,,,,,,,,,,,,,,,,,,,,,,,,213.08946730000025,213.1036000000022,213.60423509999237,213.58711229999608,,,,,,,,,,,,,,,,,,,,,,,,,,213.59607349999715,213.60423509999237,213.60423509999237,213.60423509999237,216.60356329999922,216.60356329999922,216.60356329999922,216.58731350000016,j,1.0602592000068398,0.07997019999311306,216.58735590000288,216.58736649999628,None,,,,,,,,,,,,,,00033,001,2026-01-16_11h18.29.757,MST_task,2024.2.0,60.17060773913705,2026-01-16 11h18.37.958526 +0530,
,Scenes\192a.jpg,23,0,24,,,,,,,j,2.056398699991405,0.09644910000497475,None,,,,,,24,0,23,216.60356329999922,,,,,,,,,,,,,,,,,,,,,,,,,,,,,,216.58743159999722,216.60356329999922,217.10402899999463,217.08719639999617,,,,,,,,,,,,,,,,,,,,,,,,,,217.0939156999957,217.10402899999463,217.10402899999463,217.10402899999463,220.10351440000522,220.10351440000522,220.10351440000522,220.0877307000046,j,2.056398699991405,0.09644910000497475,220.08778109999548,220.08779229999345,None,,,,,,,,,,,,,,00033,001,2026-01-16_11h18.29.757,MST_task,2024.2.0,60.17060773913705,2026-01-16 11h18.37.958526 +0530,
,Scenes\164a.jpg,24,0,25,,,,,,,f,2.105281299998751,0.14505210000788793,None,,,,,,25,0,24,220.10351440000522,,,,,,,,,,,,,,,,,,,,,,,,,,,,,,220.08786139999575,220.10351440000522,220.60678079999343,220.58708680000564,,,,,,,,,,,,,,,,,,,,,,,,,,220.60427840000193,220.60678079999343,220.60678079999343,220.60678079999343,,,,223.6038084000029,f,2.105281299998751,0.14505210000788793,223.60385040000256,223.60386210000433,None,,,,,,,,,,,,,,00033,001,2026-01-16_11h18.29.757,MST_task,2024.2.0,60.17060773913705,2026-01-16 11h18.37.958526 +0530,
,Scenes\044a.jpg,25,0,26,,,,,,,f,2.144022300009965,0.09597799999755807,None,,,,,,26,0,25,223.6201255999913,,,,,,,,,,,,,,,,,,,,,,,,,,,,,,223.60393959999783,223.6201255999913,224.12082630000077,224.1037900999945,,,,,,,,,,,,,,,,,,,,,,,,,,224.11721409999882,224.12082630000077,224.12082630000077,224.12082630000077,,,,227.10414039999887,f,2.144022300009965,0.09597799999755807,227.10418149999168,227.10419369999727,None,,,,,,,,,,,,,,00033,001,2026-01-16_11h18.29.757,MST_task,2024.2.0,60.17060773913705,2026-01-16 11h18.37.958526 +0530,
,Scenes\053a.jpg,26,0,27,,,,,,,j,0.8754009999975096,0.0965479000005871,None,,,,,,27,0,26,227.12018929999613,,,,,,,,,,,,,,,,,,,,,,,,,,,,,,227.10426979999465,227.12018929999613,227.62067180000304,227.6038183000055,,,,,,,,,,,,,,,,,,,,,,,,,,227.6065088000032,227.62067180000304,227.62067180000304,227.62067180000304,230.62016940000467,230.62016940000467,230.62016940000467,230.60412950000318,j,0.8754009999975096,0.0965479000005871,230.60417180000513,230.6041824999993,None,,,,,,,,,,,,,,00033,001,2026-01-16_11h18.29.757,MST_task,2024.2.0,60.17060773913705,2026-01-16 11h18.37.958526 +0530,
,Scenes\062a.jpg,27,0,28,,,,,,,j,2.7606578999984777,0.09488869999768212,None,,,,,,28,0,27,230.62016940000467,,,,,,,,,,,,,,,,,,,,,,,,,,,,,,230.6042798999988,230.62016940000467,231.12062240000523,231.10382469999604,,,,,,,,,,,,,,,,,,,,,,,,,,231.11415059999854,231.12062240000523,231.12062240000523,231.12062240000523,234.12019810000493,234.12019810000493,234.12019810000493,234.10403819999192,j,2.7606578999984777,0.09488869999768212,234.10407960000157,234.10409049999726,None,,,,,,,,,,,,,,00033,001,2026-01-16_11h18.29.757,MST_task,2024.2.0,60.17060773913705,2026-01-16 11h18.37.958526 +0530,
,Objects\166a.jpg,28,0,29,,,,,,,f,2.515906000000541,0.07970460000797175,None,,,,,,29,0,28,234.12019810000493,,,,,,,,,,,,,,,,,,,,,,,,,,,,,,234.10422700000345,234.12019810000493,234.6209927000018,234.60378639999544,,,,,,,,,,,,,,,,,,,,,,,,,,234.61652850000246,234.6209927000018,234.6209927000018,234.6209927000018,237.62020340000163,237.62020340000163,237.62020340000163,237.60400910000317,f,2.515906000000541,0.07970460000797175,237.6060245999979,237.60604240000248,None,,,,,,,,,,,,,,00033,001,2026-01-16_11h18.29.757,MST_task,2024.2.0,60.17060773913705,2026-01-16 11h18.37.958526 +0530,
,Objects\102a.jpg,29,0,30,,,,,,,f,2.0478661000088323,0.07999640000343788,None,,,,,,30,0,29,237.62020340000163,,,,,,,,,,,,,,,,,,,,,,,,,,,,,,237.60614540000097,237.62020340000163,238.12043559999438,238.10375369999383,,,,,,,,,,,,,,,,,,,,,,,,,,238.11332259999472,238.12043559999438,238.12043559999438,238.12043559999438,241.12023119999503,241.12023119999503,241.12023119999503,241.10408960000495,f,2.0478661000088323,0.07999640000343788,241.1041336999915,241.10414460000175,None,,,,,,,,,,,,,,00033,001,2026-01-16_11h18.29.757,MST_task,2024.2.0,60.17060773913705,2026-01-16 11h18.37.958526 +0530,
,Objects\179a.jpg,30,0,31,,,,,,,f,0.8599346999981208,0.10392449999926612,None,,,,,,31,0,30,241.12023119999503,,,,,,,,,,,,,,,,,,,,,,,,,,,,,,241.10421019999194,241.12023119999503,241.6202021999925,241.60392649999994,,,,,,,,,,,,,,,,,,,,,,,,,,241.60685840000224,241.6202021999925,241.6202021999925,241.6202021999925,244.62024750000273,244.62024750000273,244.62024750000273,244.6041297000047,f,0.8599346999981208,0.10392449999926612,244.6041724999959,244.60418349999236,None,,,,,,,,,,,,,,00033,001,2026-01-16_11h18.29.757,MST_task,2024.2.0,60.17060773913705,2026-01-16 11h18.37.958526 +0530,
,Objects\050a.jpg,31,0,32,,,,,,,f,1.256184600002598,0.1199956999917049,None,,,,,,32,0,31,244.62024750000273,,,,,,,,,,,,,,,,,,,,,,,,,,,,,,244.604282100001,244.62024750000273,245.12042490000022,245.10370720000356,,,,,,,,,,,,,,,,,,,,,,,,,,245.11320859999978,245.12042490000022,245.12042490000022,245.12042490000022,248.12021269999968,248.12021269999968,248.12021269999968,248.10399469999538,f,1.256184600002598,0.1199956999917049,248.10403509999742,248.10404570000537,None,,,,,,,,,,,,,,00033,001,2026-01-16_11h18.29.757,MST_task,2024.2.0,60.17060773913705,2026-01-16 11h18.37.958526 +0530,
,Objects\184a.jpg,32,0,33,,,,,,,j,1.812855700001819,0.127424999998766,None,,,,,,33,0,32,248.12021269999968,,,,,,,,,,,,,,,,,,,,,,,,,,,,,,248.1041114999971,248.12021269999968,248.6205159999954,248.60383469999942,,,,,,,,,,,,,,,,,,,,,,,,,,248.6138326999935,248.6205159999954,248.6205159999954,248.6205159999954,251.62023359999876,251.62023359999876,251.62023359999876,251.6039940000046,j,1.812855700001819,0.127424999998766,251.60403610000503,251.60404700000072,None,,,,,,,,,,,,,,00033,001,2026-01-16_11h18.29.757,MST_task,2024.2.0,60.17060773913705,2026-01-16 11h18.37.958526 +0530,
,Objects\148a.jpg,33,0,34,,,,,,,j,1.2964252000092529,0.12007679999805987,None,,,,,,34,0,33,251.62023359999876,,,,,,,,,,,,,,,,,,,,,,,,,,,,,,251.6041425000003,251.62023359999876,252.12042320000182,252.10373829999298,,,,,,,,,,,,,,,,,,,,,,,,,,252.10646539999289,252.12042320000182,252.12042320000182,252.12042320000182,255.12018339999486,255.12018339999486,255.12018339999486,255.10451170000306,j,1.2964252000092529,0.12007679999805987,255.10456059999706,255.10457260000112,None,,,,,,,,,,,,,,00033,001,2026-01-16_11h18.29.757,MST_task,2024.2.0,60.17060773913705,2026-01-16 11h18.37.958526 +0530,
,Objects\058a.jpg,34,0,35,,,,,,,None,,,f,0.4205892000027234,None,,,,35,0,34,255.12018339999486,,,,,,,,,,,,,,,,,,,,,,,,,,,,,,255.10464499999944,255.12018339999486,255.62045699999726,255.603812500005,,,,,,,,,,,,,,,,,,,,,,,,,,255.60645730000397,255.62045699999726,255.62045699999726,255.62045699999726,258.62025079999876,258.62025079999876,258.62025079999876,258.6040323999914,None,,,258.6040704000043,259.0540328999923,f,258.62025079999876,258.62025079999876,0.4205892000027234,None,,,,,,,,,,00033,001,2026-01-16_11h18.29.757,MST_task,2024.2.0,60.17060773913705,2026-01-16 11h18.37.958526 +0530,
,Scenes\137a.jpg,35,0,36,,,,,,,j,1.0617100000090431,0.10500650000176392,None,,,,,,36,0,35,259.0701984000043,,,,,,,,,,,,,,,,,,,,,,,,,,,,,,259.05412079999223,259.0701984000043,259.5705820000003,259.55391699999745,,,,,,,,,,,,,,,,,,,,,,,,,,259.56206919999386,259.5705820000003,259.5705820000003,259.5705820000003,262.5701484000019,262.5701484000019,262.5701484000019,262.5541280000034,j,1.0617100000090431,0.10500650000176392,262.55576689999725,262.55578460000106,None,,,,,,,,,,,,,,00033,001,2026-01-16_11h18.29.757,MST_task,2024.2.0,60.17060773913705,2026-01-16 11h18.37.958526 +0530,
,Scenes\078a.jpg,36,0,37,,,,,,,j,1.3197319000028074,0.12000709999119863,None,,,,,,37,0,36,262.5701484000019,,,,,,,,,,,,,,,,,,,,,,,,,,,,,,262.55589509999845,262.5701484000019,263.07297819999803,263.05392009999196,,,,,,,,,,,,,,,,,,,,,,,,,,263.0704607999942,263.07297819999803,263.07297819999803,263.07297819999803,,,,266.07049499999266,j,1.3197319000028074,0.12000709999119863,266.0705452999973,266.0705567999976,None,,,,,,,,,,,,,,00033,001,2026-01-16_11h18.29.757,MST_task,2024.2.0,60.17060773913705,2026-01-16 11h18.37.958526 +0530,
,Scenes\131a.jpg,37,0,38,,,,,,,j,0.8022874999878695,0.07996060000732541,None,,,,,,38,0,37,266.0868330999947,,,,,,,,,,,,,,,,,,,,,,,,,,,,,,266.0706541999971,266.0868330999947,266.589788199999,266.57040029999916,,,,,,,,,,,,,,,,,,,,,,,,,,266.5876963000046,266.589788199999,266.589788199999,266.589788199999,,,,269.58718529999896,j,0.8022874999878695,0.07996060000732541,269.58723619999364,269.5872492000053,None,,,,,,,,,,,,,,00033,001,2026-01-16_11h18.29.757,MST_task,2024.2.0,60.17060773913705,2026-01-16 11h18.37.958526 +0530,
,Scenes\167a.jpg,38,0,39,,,,,,,f,1.1678356000047643,0.07997489999979734,None,,,,,,39,0,38,269.60355840000557,,,,,,,,,,,,,,,,,,,,,,,,,,,,,,269.58732740000414,269.60355840000557,270.1042529999977,270.08716149999236,,,,,,,,,,,,,,,,,,,,,,,,,,270.0972136000055,270.1042529999977,270.1042529999977,270.1042529999977,273.1034101999976,273.1034101999976,273.1034101999976,273.08727449999424,f,1.1678356000047643,0.07997489999979734,273.08731740000076,273.0873322999978,None,,,,,,,,,,,,,,00033,001,2026-01-16_11h18.29.757,MST_task,2024.2.0,60.17060773913705,2026-01-16 11h18.37.958526 +0530,
,Scenes\082a.jpg,39,0,40,,,,,,,f,2.83630070000072,0.08817260000796523,None,,,,,,40,0,39,273.1034101999976,,,,,,,,,,,,,,,,,,,,,,,,,,,,,,273.08743250000407,273.1034101999976,273.60405910000554,273.58708460000344,,,,,,,,,,,,,,,,,,,,,,,,,,273.59815530000196,273.60405910000554,273.60405910000554,273.60405910000554,276.6035237000033,276.6035237000033,276.6035237000033,276.5872740999912,f,2.83630070000072,0.08817260000796523,276.5873169999977,276.5873285999987,None,,,,,,,,,,,,,,00033,001,2026-01-16_11h18.29.757,MST_task,2024.2.0,60.17060773913705,2026-01-16 11h18.37.958526 +0530,
,Scenes\124a.jpg,40,0,41,,,,,,,f,1.9607115000108024,0.07198919999063946,None,,,,,,41,0,40,276.6035237000033,,,,,,,,,,,,,,,,,,,,,,,,,,,,,,276.58742670000356,276.6035237000033,277.10400720000325,277.08704569999827,,,,,,,,,,,,,,,,,,,,,,,,,,277.0936340000044,277.10400720000325,277.10400720000325,277.10400720000325,280.10344399999303,280.10344399999303,280.10344399999303,280.0873741999967,f,1.9607115000108024,0.07198919999063946,280.087417799994,280.0874291999935,None,,,,,,,,,,,,,,00033,001,2026-01-16_11h18.29.757,MST_task,2024.2.0,60.17060773913705,2026-01-16 11h18.37.958526 +0530,
,Scenes\079a.jpg,41,0,42,,,,,,,j,1.556443900000886,0.08002100000157952,None,,,,,,42,0,41,280.10344399999303,,,,,,,,,,,,,,,,,,,,,,,,,,,,,,280.0875276000006,280.10344399999303,280.6040151000052,280.58705020000343,,,,,,,,,,,,,,,,,,,,,,,,,,280.6001763999957,280.6040151000052,280.6040151000052,280.6040151000052,283.6034804999945,283.6034804999945,283.6034804999945,283.5872607000056,j,1.556443900000886,0.08002100000157952,283.5873034999968,283.58731469999475,None,,,,,,,,,,,,,,00033,001,2026-01-16_11h18.29.757,MST_task,2024.2.0,60.17060773913705,2026-01-16 11h18.37.958526 +0530,
,Objects\051a.jpg,42,0,43,,,,,,,f,0.8727480999950785,0.07999019999988377,None,,,,,,43,0,42,283.6034804999945,,,,,,,,,,,,,,,,,,,,,,,,,,,,,,283.5874107999989,283.6034804999945,284.1039363000018,284.0870850999927,,,,,,,,,,,,,,,,,,,,,,,,,,284.09233010000025,284.1039363000018,284.1039363000018,284.1039363000018,287.10348499999964,287.10348499999964,287.10348499999964,287.0874713999947,f,0.8727480999950785,0.07999019999988377,287.08949389999907,287.0895115000021,None,,,,,,,,,,,,,,00033,001,2026-01-16_11h18.29.757,MST_task,2024.2.0,60.17060773913705,2026-01-16 11h18.37.958526 +0530,
,Objects\098a.jpg,43,0,44,,,,,,,f,0.7168101999995997,0.06404080000356771,None,,,,,,44,0,43,287.10348499999964,,,,,,,,,,,,,,,,,,,,,,,,,,,,,,287.089581799999,287.10348499999964,287.60363640000287,287.5869878999947,,,,,,,,,,,,,,,,,,,,,,,,,,287.5896419000055,287.60363640000287,287.60363640000287,287.60363640000287,290.60348570000497,290.60348570000497,290.60348570000497,290.58733529999154,f,0.7168101999995997,0.06404080000356771,290.58738240000093,290.5873930999951,None,,,,,,,,,,,,,,00033,001,2026-01-16_11h18.29.757,MST_task,2024.2.0,60.17060773913705,2026-01-16 11h18.37.958526 +0530,
,Objects\140a.jpg,44,0,45,,,,,,,f,1.6334283999894978,0.064048800006276,None,,,,,,45,0,44,290.60348570000497,,,,,,,,,,,,,,,,,,,,,,,,,,,,,,290.5874999999942,290.60348570000497,291.10369089999585,291.0870872999949,,,,,,,,,,,,,,,,,,,,,,,,,,291.08962749999773,291.10369089999585,291.10369089999585,291.10369089999585,294.10348299999896,294.10348299999896,294.10348299999896,294.0873324999993,f,1.6334283999894978,0.064048800006276,294.08737480000127,294.08738569999696,None,,,,,,,,,,,,,,00033,001,2026-01-16_11h18.29.757,MST_task,2024.2.0,60.17060773913705,2026-01-16 11h18.37.958526 +0530,
,Objects\156a.jpg,45,0,46,,,,,,,j,2.93327359999239,None,None,,,,,,46,0,45,294.10348299999896,,,,,,,,,,,,,,,,,,,,,,,,,,,,,,294.087463399992,294.10348299999896,294.6036888999952,294.58707340000547,,,,,,,,,,,,,,,,,,,,,,,,,,294.589770999999,294.6036888999952,294.6036888999952,294.6036888999952,297.6034898999933,297.6034898999933,297.6034898999933,297.5874779000005,j,2.93327359999239,None,297.58752479999384,297.5875359000056,None,,,,,,,,,,,,,,00033,001,2026-01-16_11h18.29.757,MST_task,2024.2.0,60.17060773913705,2026-01-16 11h18.37.958526 +0530,
,Objects\039a.jpg,46,0,47,,,,,,,None,,,f,0.45720790000632405,None,,,,47,0,46,297.6034898999933,,,,,,,,,,,,,,,,,,,,,,,,,,,,,,297.5876040000003,297.6034898999933,298.1037071000028,298.0870828000043,,,,,,,,,,,,,,,,,,,,,,,,,,298.0898368999915,298.1037071000028,298.1037071000028,298.1037071000028,301.1034853000019,301.1034853000019,301.1034853000019,301.08731380000245,None,,,301.0873520000023,301.57050469999376,f,301.1034853000019,301.1034853000019,0.45720790000632405,None,,,,,,,,,,00033,001,2026-01-16_11h18.29.757,MST_task,2024.2.0,60.17060773913705,2026-01-16 11h18.37.958526 +0530,
,Objects\171a.jpg,47,0,48,,,,,,,j,1.0495577999972738,0.08092160000524018,None,,,,,,48,0,47,301.58676459999697,,,,,,,,,,,,,,,,,,,,,,,,,,,,,,301.5706338000018,301.58676459999697,302.08702579999226,302.0703179999982,,,,,,,,,,,,,,,,,,,,,,,,,,302.07286109999404,302.08702579999226,302.08702579999226,302.08702579999226,305.0868003999931,305.0868003999931,305.0868003999931,305.0705578000052,j,1.0495577999972738,0.08092160000524018,305.07059899999877,305.0706102999975,None,,,,,,,,,,,,,,00033,001,2026-01-16_11h18.29.757,MST_task,2024.2.0,60.17060773913705,2026-01-16 11h18.37.958526 +0530,
,Objects\119a.jpg,48,0,49,,,,,,,f,1.2458825999929104,0.08726810000371188,None,,,,,,49,0,48,305.0868003999931,,,,,,,,,,,,,,,,,,,,,,,,,,,,,,305.07070539999404,305.0868003999931,305.5869764999952,305.57029570000304,,,,,,,,,,,,,,,,,,,,,,,,,,305.5728259000025,305.5869764999952,305.5869764999952,305.5869764999952,308.5867942000041,308.5867942000041,308.5867942000041,308.57053820000147,f,1.2458825999929104,0.08726810000371188,308.5705818999995,308.5705927999952,None,,,,,,,,,,,,,,00033,001,2026-01-16_11h18.29.757,MST_task,2024.2.0,60.17060773913705,2026-01-16 11h18.37.958526 +0530,
,Scenes\110a.jpg,49,0,50,,,,,,,j,0.8901212000055239,0.08000009998795576,None,,,,,,50,0,49,308.5867942000041,,,,,,,,,,,,,,,,,,,,,,,,,,,,,,308.5706954999914,308.5867942000041,309.0872481999977,309.07029899999907,,,,,,,,,,,,,,,,,,,,,,,,,,309.08049229999597,309.0872481999977,309.0872481999977,309.0872481999977,312.0868175999931,312.0868175999931,312.0868175999931,312.0705062999914,j,0.8901212000055239,0.08000009998795576,312.0720833999949,312.07210019999184,None,,,,,,,,,,,,,,00033,001,2026-01-16_11h18.29.757,MST_task,2024.2.0,60.17060773913705,2026-01-16 11h18.37.958526 +0530,
,Scenes\111a.jpg,50,0,51,,,,,,,j,0.6375726999976905,0.07915620000858326,None,,,,,,51,0,50,312.0868175999931,,,,,,,,,,,,,,,,,,,,,,,,,,,,,,312.07219979999354,312.0868175999931,312.58735299999535,312.570338000005,,,,,,,,,,,,,,,,,,,,,,,,,,312.5772588999971,312.58735299999535,312.58735299999535,312.58735299999535,315.58681920000527,315.58681920000527,315.58681920000527,315.57073859999946,j,0.6375726999976905,0.07915620000858326,315.57078710000496,315.57080020000285,None,,,,,,,,,,,,,,00033,001,2026-01-16_11h18.29.757,MST_task,2024.2.0,60.17060773913705,2026-01-16 11h18.37.958526 +0530,
,Scenes\180a.jpg,51,0,52,,,,,,,j,0.841906800007564,0.07999559999734629,None,,,,,,52,0,51,315.58681920000527,,,,,,,,,,,,,,,,,,,,,,,,,,,,,,315.5708711000043,315.58681920000527,316.08705349999946,316.07031120000465,,,,,,,,,,,,,,,,,,,,,,,,,,316.07652780000353,316.08705349999946,316.08705349999946,316.08705349999946,319.08675960000255,319.08675960000255,319.08675960000255,319.0707182000042,j,0.841906800007564,0.07999559999734629,319.07075970000005,319.07077029999346,None,,,,,,,,,,,,,,00033,001,2026-01-16_11h18.29.757,MST_task,2024.2.0,60.17060773913705,2026-01-16 11h18.37.958526 +0530,
,Scenes\028a.jpg,52,0,53,,,,,,,j,0.6776960999995936,0.07997079999768175,None,,,,,,53,0,52,319.08675960000255,,,,,,,,,,,,,,,,,,,,,,,,,,,,,,319.07083599999896,319.08675960000255,319.58737069999916,319.5702722999995,,,,,,,,,,,,,,,,,,,,,,,,,,319.5774609999935,319.58737069999916,319.58737069999916,319.58737069999916,322.5868355999992,322.5868355999992,322.5868355999992,322.5705916000006,j,0.6776960999995936,0.07997079999768175,322.57063489999564,322.57064599999285,None,,,,,,,,,,,,,,00033,001,2026-01-16_11h18.29.757,MST_task,2024.2.0,60.17060773913705,2026-01-16 11h18.37.958526 +0530,
,Scenes\160a.jpg,53,0,54,,,,,,,j,0.5210356000025058,0.08799719999660738,None,,,,,,54,0,53,322.5868355999992,,,,,,,,,,,,,,,,,,,,,,,,,,,,,,322.5707451999915,322.5868355999992,323.08733189999475,323.0703399000049,,,,,,,,,,,,,,,,,,,,,,,,,,323.07752710000204,323.08733189999475,323.08733189999475,323.08733189999475,326.08682159999444,326.08682159999444,326.08682159999444,326.0706702000025,j,0.5210356000025058,0.08799719999660738,326.070710999993,326.0707224999933,None,,,,,,,,,,,,,,00033,001,2026-01-16_11h18.29.757,MST_task,2024.2.0,60.17060773913705,2026-01-16 11h18.37.958526 +0530,
,Scenes\054a.jpg,54,0,55,,,,,,,j,0.5408856999856653,0.0639981000131229,None,,,,,,55,0,54,326.08682159999444,,,,,,,,,,,,,,,,,,,,,,,,,,,,,,326.0708200999943,326.08682159999444,326.5874238999968,326.5703862999944,,,,,,,,,,,,,,,,,,,,,,,,,,326.58151380000345,326.5874238999968,326.5874238999968,326.5874238999968,329.58684170000197,329.58684170000197,329.58684170000197,329.57075270000496,j,0.5408856999856653,0.0639981000131229,329.57079630000226,329.57080739999947,None,,,,,,,,,,,,,,00033,001,2026-01-16_11h18.29.757,MST_task,2024.2.0,60.17060773913705,2026-01-16 11h18.37.958526 +0530,
,Scenes\184a.jpg,55,0,56,,,,,,,j,0.7048316000000341,0.10393660000409,None,,,,,,56,0,55,329.58684170000197,,,,,,,,,,,,,,,,,,,,,,,,,,,,,,329.57090730000346,329.58684170000197,330.08738680000533,330.07028240000363,,,,,,,,,,,,,,,,,,,,,,,,,,330.07716970000183,330.08738680000533,330.08738680000533,330.08738680000533,333.0869290999981,333.0869290999981,333.0869290999981,333.07079749999684,j,0.7048316000000341,0.10393660000409,333.0708397999988,333.07085099999676,None,,,,,,,,,,,,,,00033,001,2026-01-16_11h18.29.757,MST_task,2024.2.0,60.17060773913705,2026-01-16 11h18.37.958526 +0530,
,Objects\040a.jpg,56,0,57,,,,,,,f,0.6864649999915855,0.0869855000055395,None,,,,,,57,0,56,333.0869290999981,,,,,,,,,,,,,,,,,,,,,,,,,,,,,,333.0709213999944,333.0869290999981,333.5873527999938,333.5704126999917,,,,,,,,,,,,,,,,,,,,,,,,,,333.5842522000021,333.5873527999938,333.5873527999938,333.5873527999938,336.5868946999981,336.5868946999981,336.5868946999981,336.57081940000353,f,0.6864649999915855,0.0869855000055395,336.5728123000008,336.572828999997,None,,,,,,,,,,,,,,00033,001,2026-01-16_11h18.29.757,MST_task,2024.2.0,60.17060773913705,2026-01-16 11h18.37.958526 +0530,
,Objects\009a.jpg,57,0,58,,,,,,,f,2.0575717999890912,0.11987420001241844,None,,,,,,58,0,57,336.5868946999981,,,,,,,,,,,,,,,,,,,,,,,,,,,,,,336.5728991999931,336.5868946999981,337.08711959999346,337.07050750000053,,,,,,,,,,,,,,,,,,,,,,,,,,337.0732779999962,337.08711959999346,337.08711959999346,337.08711959999346,340.0869731999992,340.0869731999992,340.0869731999992,340.0710238000029,f,2.0575717999890912,0.11987420001241844,340.0710812000034,340.07109240000136,None,,,,,,,,,,,,,,00033,001,2026-01-16_11h18.29.757,MST_task,2024.2.0,60.17060773913705,2026-01-16 11h18.37.958526 +0530,
,Objects\054a.jpg,58,0,59,,,,,,,j,0.772923600001377,0.11200510000344366,None,,,,,,59,0,58,340.0869731999992,,,,,,,,,,,,,,,,,,,,,,,,,,,,,,340.07116649999807,340.0869731999992,340.58717759999854,340.57044250000035,,,,,,,,,,,,,,,,,,,,,,,,,,340.57319189999544,340.58717759999854,340.58717759999854,340.58717759999854,343.5869126000034,343.5869126000034,343.5869126000034,343.5708519000036,j,0.772923600001377,0.11200510000344366,343.5708949999971,343.5709055000043,None,,,,,,,,,,,,,,00033,001,2026-01-16_11h18.29.757,MST_task,2024.2.0,60.17060773913705,2026-01-16 11h18.37.958526 +0530,
,Objects\077a.jpg,59,0,60,,,,,,,j,0.8809212000051048,0.1280026999884285,None,,,,,,60,0,59,343.5869126000034,,,,,,,,,,,,,,,,,,,,,,,,,,,,,,343.5710009000031,343.5869126000034,344.0872301000054,344.0713184999913,,,,,,,,,,,,,,,,,,,,,,,,,,344.080907800002,344.0872301000054,344.0872301000054,344.0872301000054,347.08688780000375,347.08688780000375,347.08688780000375,347.0708306000015,j,0.8809212000051048,0.1280026999884285,347.07087120000506,347.0708813999954,None,,,,,,,,,,,,,,00033,001,2026-01-16_11h18.29.757,MST_task,2024.2.0,60.17060773913705,2026-01-16 11h18.37.958526 +0530,
,Objects\078a.jpg,60,0,61,,,,,,,j,1.5333992000087164,0.0886395999987144,None,,,,,,61,0,60,347.08688780000375,,,,,,,,,,,,,,,,,,,,,,,,,,,,,,347.070976300005,347.08688780000375,347.5871400000033,347.57053850000375,,,,,,,,,,,,,,,,,,,,,,,,,,347.5732672000013,347.5871400000033,347.5871400000033,347.5871400000033,350.5870642999944,350.5870642999944,350.5870642999944,350.5708497000014,j,1.5333992000087164,0.0886395999987144,350.5708922000049,350.57090370000515,None,,,,,,,,,,,,,,00033,001,2026-01-16_11h18.29.757,MST_task,2024.2.0,60.17060773913705,2026-01-16 11h18.37.958526 +0530,
,Objects\177a.jpg,61,0,62,,,,,,,j,0.9854380999895511,0.09600330000102986,None,,,,,,62,0,61,350.5870642999944,,,,,,,,,,,,,,,,,,,,,,,,,,,,,,350.57097060000524,350.5870642999944,351.08715979999397,351.0705017,,,,,,,,,,,,,,,,,,,,,,,,,,351.07303339999635,351.08715979999397,351.08715979999397,351.08715979999397,354.0868799000018,354.0868799000018,354.0868799000018,354.0706955999922,j,0.9854380999895511,0.09600330000102986,354.07074860000284,354.0707598000008,None,,,,,,,,,,,,,,00033,001,2026-01-16_11h18.29.757,MST_task,2024.2.0,60.17060773913705,2026-01-16 11h18.37.958526 +0530,
,Objects\001a.jpg,62,0,63,,,,,,,f,0.701917800004594,0.09490729999379255,None,,,,,,63,0,62,354.0868799000018,,,,,,,,,,,,,,,,,,,,,,,,,,,,,,354.0708617000055,354.0868799000018,354.58727029999136,354.5705167999986,,,,,,,,,,,,,,,,,,,,,,,,,,354.57983319999767,354.58727029999136,354.58727029999136,354.58727029999136,357.5868854,357.5868854,357.5868854,357.5707858999958,f,0.701917800004594,0.09490729999379255,357.57082629999786,357.5708375999966,None,,,,,,,,,,,,,,00033,001,2026-01-16_11h18.29.757,MST_task,2024.2.0,60.17060773913705,2026-01-16 11h18.37.958526 +0530,
,Scenes\178a.jpg,63,0,64,,,,,,,j,1.3277611999947112,0.08803179999813437,None,,,,,,64,0,63,357.5868854,,,,,,,,,,,,,,,,,,,,,,,,,,,,,,357.57090489999973,357.5868854,358.08835059999547,358.0706322000042,,,,,,,,,,,,,,,,,,,,,,,,,,358.08605280000484,358.08835059999547,358.08835059999547,358.08835059999547,,,,361.08717230000184,j,1.3277611999947112,0.08803179999813437,361.0887758000026,361.0887941999972,None,,,,,,,,,,,,,,00033,001,2026-01-16_11h18.29.757,MST_task,2024.2.0,60.17060773913705,2026-01-16 11h18.37.958526 +0530,
,Scenes\114a.jpg,64,0,65,,,,,,,f,1.8601751999958651,0.11257100000511855,None,,,,,,65,0,64,361.1039651000028,,,,,,,,,,,,,,,,,,,,,,,,,,,,,,361.0888796999934,361.1039651000028,361.60419060000277,361.58724639999855,,,,,,,,,,,,,,,,,,,,,,,,,,361.59858999999415,361.60419060000277,361.60419060000277,361.60419060000277,364.6035426000017,364.6035426000017,364.6035426000017,364.58755850000307,f,1.8601751999958651,0.11257100000511855,364.58760519999487,364.58761639999284,None,,,,,,,,,,,,,,00033,001,2026-01-16_11h18.29.757,MST_task,2024.2.0,60.17060773913705,2026-01-16 11h18.37.958526 +0530,
,Scenes\083a.jpg,65,0,66,,,,,,,j,0.5527556000015466,0.09598430000187363,None,,,,,,66,0,65,364.6035426000017,,,,,,,,,,,,,,,,,,,,,,,,,,,,,,364.58772840000165,364.6035426000017,365.10391069999605,365.08721339999465,,,,,,,,,,,,,,,,,,,,,,,,,,365.09441360000346,365.10391069999605,365.10391069999605,365.10391069999605,368.1035356999928,368.1035356999928,368.1035356999928,368.0874973000027,j,0.5527556000015466,0.09598430000187363,368.0875362999941,368.087546499999,None,,,,,,,,,,,,,,00033,001,2026-01-16_11h18.29.757,MST_task,2024.2.0,60.17060773913705,2026-01-16 11h18.37.958526 +0530,
,Scenes\089a.jpg,66,0,67,,,,,,,j,0.6923929000040516,0.08802619999914896,None,,,,,,67,0,66,368.1035356999928,,,,,,,,,,,,,,,,,,,,,,,,,,,,,,368.08764379999775,368.1035356999928,368.6041317000054,368.58717699999397,,,,,,,,,,,,,,,,,,,,,,,,,,368.5989210999978,368.6041317000054,368.6041317000054,368.6041317000054,371.6036099000048,371.6036099000048,371.6036099000048,371.5875461999967,j,0.6923929000040516,0.08802619999914896,371.5875894000055,371.58760050000274,None,,,,,,,,,,,,,,00033,001,2026-01-16_11h18.29.757,MST_task,2024.2.0,60.17060773913705,2026-01-16 11h18.37.958526 +0530,
,Scenes\015a.jpg,67,0,68,,,,,,,j,0.523870100005297,0.10397479998937342,None,,,,,,68,0,67,371.6036099000048,,,,,,,,,,,,,,,,,,,,,,,,,,,,,,371.5876672000013,371.6036099000048,372.1089120999968,372.0871440000046,,,,,,,,,,,,,,,,,,,,,,,,,,372.1064161999966,372.1089120999968,372.1089120999968,372.1089120999968,,,,375.1038450000051,j,0.523870100005297,0.10397479998937342,375.1038871000055,375.1038988999935,None,,,,,,,,,,,,,,00033,001,2026-01-16_11h18.29.757,MST_task,2024.2.0,60.17060773913705,2026-01-16 11h18.37.958526 +0530,
,Scenes\189a.jpg,68,0,69,,,,,,,j,0.6529889999947045,0.11900530000275467,None,,,,,,69,0,68,375.12026690000494,,,,,,,,,,,,,,,,,,,,,,,,,,,,,,375.1039979000052,375.12026690000494,375.6208742000017,375.603878599999,,,,,,,,,,,,,,,,,,,,,,,,,,375.61376769999333,375.6208742000017,375.6208742000017,375.6208742000017,378.6202462999936,378.6202462999936,378.6202462999936,378.60403499999666,j,0.6529889999947045,0.11900530000275467,378.6040769999963,378.60408829999506,None,,,,,,,,,,,,,,00033,001,2026-01-16_11h18.29.757,MST_task,2024.2.0,60.17060773913705,2026-01-16 11h18.37.958526 +0530,
,Scenes\077a.jpg,69,0,70,,,,,,,j,0.6389023000083398,0.08800550000160001,None,,,,,,70,0,69,378.6202462999936,,,,,,,,,,,,,,,,,,,,,,,,,,,,,,378.60415569999896,378.6202462999936,379.12195509999583,379.10385299999325,,,,,,,,,,,,,,,,,,,,,,,,,,379.11950689999503,379.12195509999583,379.12195509999583,379.12195509999583,,,,382.1041819999955,j,0.6389023000083398,0.08800550000160001,382.1042373999953,382.10425000000396,None,,,,,,,,,,,,,,00033,001,2026-01-16_11h18.29.757,MST_task,2024.2.0,60.17060773913705,2026-01-16 11h18.37.958526 +0530,
,Objects\139a.jpg,70,0,71,,,,,,,f,0.6437817999976687,0.08822629999485798,None,,,,,,71,0,70,382.1201097000012,,,,,,,,,,,,,,,,,,,,,,,,,,,,,,382.10433089999424,382.1201097000012,382.62058079999406,382.6038677000033,,,,,,,,,,,,,,,,,,,,,,,,,,382.60951009999553,382.62058079999406,382.62058079999406,382.62058079999406,385.6203056999948,385.6203056999948,385.6203056999948,385.60422349999135,f,0.6437817999976687,0.08822629999485798,385.6062874999916,385.6063060000015,None,,,,,,,,,,,,,,00033,001,2026-01-16_11h18.29.757,MST_task,2024.2.0,60.17060773913705,2026-01-16 11h18.37.958526 +0530,
,Objects\190a.jpg,71,0,72,,,,,,,f,0.600178099994082,0.0878934000065783,None,,,,,,72,0,71,385.6203056999948,,,,,,,,,,,,,,,,,,,,,,,,,,,,,,385.6063775999937,385.6203056999948,386.1205190000037,386.10386489999655,,,,,,,,,,,,,,,,,,,,,,,,,,386.10644829999364,386.1205190000037,386.1205190000037,386.1205190000037,389.1202701000002,389.1202701000002,389.1202701000002,389.1041444000002,f,0.600178099994082,0.0878934000065783,389.1041858999961,389.1041964000033,None,,,,,,,,,,,,,,00033,001,2026-01-16_11h18.29.757,MST_task,2024.2.0,60.17060773913705,2026-01-16 11h18.37.958526 +0530,
,Objects\125a.jpg,72,0,73,,,,,,,j,1.3636998000001768,0.11200959999405313,None,,,,,,73,0,72,389.1202701000002,,,,,,,,,,,,,,,,,,,,,,,,,,,,,,389.104261600005,389.1202701000002,389.6204179000051,389.6038608999952,,,,,,,,,,,,,,,,,,,,,,,,,,389.6151516999962,389.6204179000051,389.6204179000051,389.6204179000051,392.62004100000195,392.62004100000195,392.62004100000195,392.6040854000021,j,1.3636998000001768,0.11200959999405313,392.60412980000547,392.6041408000019,None,,,,,,,,,,,,,,00033,001,2026-01-16_11h18.29.757,MST_task,2024.2.0,60.17060773913705,2026-01-16 11h18.37.958526 +0530,
,Objects\164a.jpg,73,0,74,,,,,,,f,0.7687275000062073,0.07950229999551084,None,,,,,,74,0,73,392.62004100000195,,,,,,,,,,,,,,,,,,,,,,,,,,,,,,392.604242100002,392.62004100000195,393.120330699996,393.10376189999806,,,,,,,,,,,,,,,,,,,,,,,,,,393.106641499995,393.120330699996,393.120330699996,393.120330699996,396.1200547000044,396.1200547000044,396.1200547000044,396.1039482999913,f,0.7687275000062073,0.07950229999551084,396.1039920000039,396.10400360000494,None,,,,,,,,,,,,,,00033,001,2026-01-16_11h18.29.757,MST_task,2024.2.0,60.17060773913705,2026-01-16 11h18.37.958526 +0530,
,Objects\060a.jpg,74,0,75,,,,,,,f,0.7004782000003615,0.07954079999763053,None,,,,,,75,0,74,396.1200547000044,,,,,,,,,,,,,,,,,,,,,,,,,,,,,,396.1041031999921,396.1200547000044,396.62025559999165,396.60374690000026,,,,,,,,,,,,,,,,,,,,,,,,,,396.60648210000363,396.62025559999165,396.62025559999165,396.62025559999165,399.6201066999929,399.6201066999929,399.6201066999929,399.6039607999992,f,0.7004782000003615,0.07954079999763053,399.6040012000012,399.60401199999615,None,,,,,,,,,,,,,,00033,001,2026-01-16_11h18.29.757,MST_task,2024.2.0,60.17060773913705,2026-01-16 11h18.37.958526 +0530,
,Objects\152a.jpg,75,0,76,,,,,,,f,0.6560575000039535,0.07201380000333302,None,,,,,,76,0,75,399.6201066999929,,,,,,,,,,,,,,,,,,,,,,,,,,,,,,399.604090599998,399.6201066999929,400.1204468999931,400.1037276999996,,,,,,,,,,,,,,,,,,,,,,,,,,400.10661839999375,400.1204468999931,400.1204468999931,400.1204468999931,403.12005379999755,403.12005379999755,403.12005379999755,403.1041433999926,f,0.6560575000039535,0.07201380000333302,403.1041855999938,403.10419670000556,None,,,,,,,,,,,,,,00033,001,2026-01-16_11h18.29.757,MST_task,2024.2.0,60.17060773913705,2026-01-16 11h18.37.958526 +0530,
,Objects\013a.jpg,76,0,77,,,,,,,j,0.8453508999955375,0.11891419999301434,None,,,,,,77,0,76,403.12005379999755,,,,,,,,,,,,,,,,,,,,,,,,,,,,,,403.1042943999928,403.12005379999755,403.6202099999937,403.60386099999596,,,,,,,,,,,,,,,,,,,,,,,,,,403.60674590000417,403.6202099999937,403.6202099999937,403.6202099999937,406.62020170000324,406.62020170000324,406.62020170000324,406.6039880000026,j,0.8453508999955375,0.11891419999301434,406.6040304000053,406.604041700004,None,,,,,,,,,,,,,,00033,001,2026-01-16_11h18.29.757,MST_task,2024.2.0,60.17060773913705,2026-01-16 11h18.37.958526 +0530,
,Scenes\013a.jpg,77,0,78,,,,,,,j,0.7595608999981778,0.09698180000123102,None,,,,,,78,0,77,406.62020170000324,,,,,,,,,,,,,,,,,,,,,,,,,,,,,,406.60410909999337,406.62020170000324,407.12060629999905,407.1038356999925,,,,,,,,,,,,,,,,,,,,,,,,,,407.11554479999177,407.12060629999905,407.12060629999905,407.12060629999905,410.1200156999985,410.1200156999985,410.1200156999985,410.10401899999124,j,0.7595608999981778,0.09698180000123102,410.10561820000294,410.1056358999922,None,,,,,,,,,,,,,,00033,001,2026-01-16_11h18.29.757,MST_task,2024.2.0,60.17060773913705,2026-01-16 11h18.37.958526 +0530,
,Scenes\183a.jpg,78,0,79,,,,,,,f,1.3235302999964915,0.07998680000309832,None,,,,,,79,0,78,410.1200156999985,,,,,,,,,,,,,,,,,,,,,,,,,,,,,,410.10573670000304,410.1200156999985,410.6206469000026,410.6037049000006,,,,,,,,,,,,,,,,,,,,,,,,,,410.6132734999992,410.6206469000026,410.6206469000026,410.6206469000026,413.6201940000028,413.6201940000028,413.6201940000028,413.6042035999999,f,1.3235302999964915,0.07998680000309832,413.60424369999964,413.60425479999685,None,,,,,,,,,,,,,,00033,001,2026-01-16_11h18.29.757,MST_task,2024.2.0,60.17060773913705,2026-01-16 11h18.37.958526 +0530,
,Scenes\075a.jpg,79,0,80,,,,,,,j,1.015643500009901,0.12108919999445789,None,,,,,,80,0,79,413.6201940000028,,,,,,,,,,,,,,,,,,,,,,,,,,,,,,413.6043522999971,413.6201940000028,414.12072759999137,414.1037057999929,,,,,,,,,,,,,,,,,,,,,,,,,,414.11090899999544,414.12072759999137,414.12072759999137,414.12072759999137,417.1200081999996,417.1200081999996,417.1200081999996,417.1040353999997,j,1.015643500009901,0.12108919999445789,417.10411469999235,417.10412600000564,None,,,,,,,,,,,,,,00033,001,2026-01-16_11h18.29.757,MST_task,2024.2.0,60.17060773913705,2026-01-16 11h18.37.958526 +0530,
,Scenes\073a.jpg,80,0,81,,,,,,,j,0.6282713999971747,0.14421529999526683,None,,,,,,81,0,80,417.1200081999996,,,,,,,,,,,,,,,,,,,,,,,,,,,,,,417.1042230000021,417.1200081999996,417.6206050000037,417.60388070000045,,,,,,,,,,,,,,,,,,,,,,,,,,417.610981299993,417.6206050000037,417.6206050000037,417.6206050000037,420.6201222999953,420.6201222999953,420.6201222999953,420.60399089999555,j,0.6282713999971747,0.14421529999526683,420.60403279999446,420.6040437000047,None,,,,,,,,,,,,,,00033,001,2026-01-16_11h18.29.757,MST_task,2024.2.0,60.17060773913705,2026-01-16 11h18.37.958526 +0530,
,Scenes\158a.jpg,81,0,82,,,,,,,j,2.959504600003129,None,None,,,,,,82,0,81,420.6201222999953,,,,,,,,,,,,,,,,,,,,,,,,,,,,,,420.604141799995,420.6201222999953,421.1206669999956,421.10369279999577,,,,,,,,,,,,,,,,,,,,,,,,,,421.1136276000034,421.1206669999956,421.1206669999956,421.1206669999956,424.1200211999967,424.1200211999967,424.1200211999967,424.1041244999942,j,2.959504600003129,None,424.1041663999931,424.1041775000049,None,,,,,,,,,,,,,,00033,001,2026-01-16_11h18.29.757,MST_task,2024.2.0,60.17060773913705,2026-01-16 11h18.37.958526 +0530,
,Scenes\177a.jpg,82,0,83,,,,,,,j,0.7225574000040069,0.12004989999695681,None,,,,,,83,0,82,424.1200211999967,,,,,,,,,,,,,,,,,,,,,,,,,,,,,,424.1042441000027,424.1200211999967,424.6219413999934,424.6037195999961,,,,,,,,,,,,,,,,,,,,,,,,,,424.6196387999953,424.6219413999934,424.6219413999934,424.6219413999934,,,,427.62035689999175,j,0.7225574000040069,0.12004989999695681,427.62039929999446,427.62041099999624,None,,,,,,,,,,,,,,00033,001,2026-01-16_11h18.29.757,MST_task,2024.2.0,60.17060773913705,2026-01-16 11h18.37.958526 +0530,
,Scenes\118a.jpg,83,0,84,,,,,,,j,0.5669775999995181,0.10419169999659061,None,,,,,,84,0,83,427.6368478999939,,,,,,,,,,,,,,,,,,,,,,,,,,,,,,427.6204801999993,427.6368478999939,428.1371535999933,428.1203147000051,,,,,,,,,,,,,,,,,,,,,,,,,,428.132806900001,428.1371535999933,428.1371535999933,428.1371535999933,431.1367928999971,431.1367928999971,431.1367928999971,431.120660200002,j,0.5669775999995181,0.10419169999659061,431.1207007000048,431.1207112999982,None,,,,,,,,,,,,,,00033,001,2026-01-16_11h18.29.757,MST_task,2024.2.0,60.17060773913705,2026-01-16 11h18.37.958526 +0530,
,Objects\172a.jpg,84,0,85,,,,,,,j,1.6514542999939295,0.13603550000698306,None,,,,,,85,0,84,431.1367928999971,,,,,,,,,,,,,,,,,,,,,,,,,,,,,,431.1208086999977,431.1367928999971,431.6373029999959,431.6205559999944,,,,,,,,,,,,,,,,,,,,,,,,,,431.62632949999534,431.6373029999959,431.6373029999959,431.6373029999959,434.63686009999947,434.63686009999947,434.63686009999947,434.62069429999974,j,1.6514542999939295,0.13603550000698306,434.622755999997,434.6227721000032,None,,,,,,,,,,,,,,00033,001,2026-01-16_11h18.29.757,MST_task,2024.2.0,60.17060773913705,2026-01-16 11h18.37.958526 +0530,
,Objects\109a.jpg,85,0,86,,,,,,,j,1.048078899999382,0.08868480000819545,None,,,,,,86,0,85,434.63686009999947,,,,,,,,,,,,,,,,,,,,,,,,,,,,,,434.6228708999988,434.63686009999947,435.13700610000524,435.1203012000042,,,,,,,,,,,,,,,,,,,,,,,,,,435.1229878000013,435.13700610000524,435.13700610000524,435.13700610000524,438.13685349999287,438.13685349999287,438.13685349999287,438.12050259999523,j,1.048078899999382,0.08868480000819545,438.12054410000565,438.1205547999998,None,,,,,,,,,,,,,,00033,001,2026-01-16_11h18.29.757,MST_task,2024.2.0,60.17060773913705,2026-01-16 11h18.37.958526 +0530,
,Objects\108a.jpg,86,0,87,,,,,,,j,0.8355613999883644,0.10424590000184253,None,,,,,,87,0,86,438.13685349999287,,,,,,,,,,,,,,,,,,,,,,,,,,,,,,438.1206525000016,438.13685349999287,438.63708380000025,438.6203475999937,,,,,,,,,,,,,,,,,,,,,,,,,,438.62305809999816,438.63708380000025,438.63708380000025,438.63708380000025,441.63684379999177,441.63684379999177,441.63684379999177,441.62068409999483,j,0.8355613999883644,0.10424590000184253,441.6207282999967,441.6207390000054,None,,,,,,,,,,,,,,00033,001,2026-01-16_11h18.29.757,MST_task,2024.2.0,60.17060773913705,2026-01-16 11h18.37.958526 +0530,
,Objects\159a.jpg,87,0,88,,,,,,,f,1.4795612999878358,0.11198780000268016,None,,,,,,88,0,87,441.63684379999177,,,,,,,,,,,,,,,,,,,,,,,,,,,,,,441.6208351999958,441.63684379999177,442.13713790000475,442.12055859999964,,,,,,,,,,,,,,,,,,,,,,,,,,442.12356490000093,442.13713790000475,442.13713790000475,442.13713790000475,445.1369424000004,445.1369424000004,445.1369424000004,445.12086029999773,f,1.4795612999878358,0.11198780000268016,445.12090749999334,445.12091909999435,None,,,,,,,,,,,,,,00033,001,2026-01-16_11h18.29.757,MST_task,2024.2.0,60.17060773913705,2026-01-16 11h18.37.958526 +0530,
,Objects\016a.jpg,88,0,89,,,,,,,f,1.2600808999995934,0.09601150000526104,None,,,,,,89,0,88,445.1369424000004,,,,,,,,,,,,,,,,,,,,,,,,,,,,,,445.1210360999976,445.1369424000004,445.6370542999939,445.62028809999174,,,,,,,,,,,,,,,,,,,,,,,,,,445.6299260999949,445.6370542999939,445.6370542999939,445.6370542999939,448.6367881000042,448.6367881000042,448.6367881000042,448.6206899999961,f,1.2600808999995934,0.09601150000526104,448.6207332000049,448.62074389999907,None,,,,,,,,,,,,,,00033,001,2026-01-16_11h18.29.757,MST_task,2024.2.0,60.17060773913705,2026-01-16 11h18.37.958526 +0530,
,Objects\180a.jpg,89,0,90,,,,,,,f,1.0238752000004752,0.09601259999908507,None,,,,,,90,0,89,448.6367881000042,,,,,,,,,,,,,,,,,,,,,,,,,,,,,,448.62084160000086,448.6367881000042,449.1371024999971,449.1203477999952,,,,,,,,,,,,,,,,,,,,,,,,,,449.13176429999294,449.1371024999971,449.1371024999971,449.1371024999971,452.1368567000027,452.1368567000027,452.1368567000027,452.1206747999968,f,1.0238752000004752,0.09601259999908507,452.1207163999934,452.12072769999213,None,,,,,,,,,,,,,,00033,001,2026-01-16_11h18.29.757,MST_task,2024.2.0,60.17060773913705,2026-01-16 11h18.37.958526 +0530,
,Objects\105a.jpg,90,0,91,,,,,,,f,0.70689560000028,0.08006259999820031,None,,,,,,91,0,90,452.1368567000027,,,,,,,,,,,,,,,,,,,,,,,,,,,,,,452.12079420000373,452.1368567000027,452.63728779999656,452.6204989999969,,,,,,,,,,,,,,,,,,,,,,,,,,452.63040490000276,452.63728779999656,452.63728779999656,452.63728779999656,455.63694339999347,455.63694339999347,455.63694339999347,455.6209338000044,f,0.70689560000028,0.08006259999820031,455.62097489999724,455.6209852000029,None,,,,,,,,,,,,,,00033,001,2026-01-16_11h18.29.757,MST_task,2024.2.0,60.17060773913705,2026-01-16 11h18.37.958526 +0530,
,Scenes\141a.jpg,91,0,92,,,,,,,j,0.9118678999948315,0.12688429999980144,None,,,,,,92,0,91,455.63694339999347,,,,,,,,,,,,,,,,,,,,,,,,,,,,,,455.6210518000007,455.63694339999347,456.137464200001,456.12056529999245,,,,,,,,,,,,,,,,,,,,,,,,,,456.1281453999982,456.137464200001,456.137464200001,456.137464200001,459.13698670000304,459.13698670000304,459.13698670000304,459.12077530000533,j,0.9118678999948315,0.12688429999980144,459.12240870000096,459.1224254999979,None,,,,,,,,,,,,,,00033,001,2026-01-16_11h18.29.757,MST_task,2024.2.0,60.17060773913705,2026-01-16 11h18.37.958526 +0530,
,Scenes\156a.jpg,92,0,93,,,,,,,j,1.2749504999956116,0.1123933000053512,None,,,,,,93,0,92,459.13698670000304,,,,,,,,,,,,,,,,,,,,,,,,,,,,,,459.1225278000056,459.13698670000304,459.6375093999959,459.6205320000008,,,,,,,,,,,,,,,,,,,,,,,,,,459.6286720999924,459.6375093999959,459.6375093999959,459.6375093999959,462.63697039999533,462.63697039999533,462.63697039999533,462.6206755000021,j,1.2749504999956116,0.1123933000053512,462.6207163999934,462.62072789999365,None,,,,,,,,,,,,,,00033,001,2026-01-16_11h18.29.757,MST_task,2024.2.0,60.17060773913705,2026-01-16 11h18.37.958526 +0530,
,Scenes\120a.jpg,93,0,94,,,,,,,j,0.8466429999971297,0.07999650000419933,None,,,,,,94,0,93,462.63697039999533,,,,,,,,,,,,,,,,,,,,,,,,,,,,,,462.6208251999924,462.63697039999533,463.1374858000054,463.1205326999916,,,,,,,,,,,,,,,,,,,,,,,,,,463.1303578999941,463.1374858000054,463.1374858000054,463.1374858000054,466.1370192000031,466.1370192000031,466.1370192000031,466.12094700000307,j,0.8466429999971297,0.07999650000419933,466.12098789999436,466.1209985000023,None,,,,,,,,,,,,,,00033,001,2026-01-16_11h18.29.757,MST_task,2024.2.0,60.17060773913705,2026-01-16 11h18.37.958526 +0530,
,Scenes\122a.jpg,94,0,95,,,,,,,f,2.634613000001991,0.10398559999885038,None,,,,,,95,0,94,466.1370192000031,,,,,,,,,,,,,,,,,,,,,,,,,,,,,,466.1210964000056,466.1370192000031,466.6375284999958,466.6204227999988,,,,,,,,,,,,,,,,,,,,,,,,,,466.6301123000012,466.6375284999958,466.6375284999958,466.6375284999958,469.6369420999981,469.6369420999981,469.6369420999981,469.6207805000013,f,2.634613000001991,0.10398559999885038,469.6208256999962,469.62083669999265,None,,,,,,,,,,,,,,00033,001,2026-01-16_11h18.29.757,MST_task,2024.2.0,60.17060773913705,2026-01-16 11h18.37.958526 +0530,
,Scenes\086a.jpg,95,0,96,,,,,,,j,0.7586542000062764,0.12056769999617245,None,,,,,,96,0,95,469.6369420999981,,,,,,,,,,,,,,,,,,,,,,,,,,,,,,469.6209358999913,469.6369420999981,470.1375129999942,470.1204541000043,,,,,,,,,,,,,,,,,,,,,,,,,,470.130969299993,470.1375129999942,470.1375129999942,470.1375129999942,473.1374169000046,473.1374169000046,473.1374169000046,473.12102449999657,j,0.7586542000062764,0.12056769999617245,473.1210659999924,473.12107619999733,None,,,,,,,,,,,,,,00033,001,2026-01-16_11h18.29.757,MST_task,2024.2.0,60.17060773913705,2026-01-16 11h18.37.958526 +0530,
,Scenes\104a.jpg,96,0,97,,,,,,,j,1.0506253000057768,0.1039833999966504,None,,,,,,97,0,96,473.1374169000046,,,,,,,,,,,,,,,,,,,,,,,,,,,,,,473.12114329999895,473.1374169000046,473.6375981000019,473.62043110000377,,,,,,,,,,,,,,,,,,,,,,,,,,473.6298758000048,473.6375981000019,473.6375981000019,473.6375981000019,476.6369788000011,476.6369788000011,476.6369788000011,476.6207011999941,j,1.0506253000057768,0.1039833999966504,476.62074559999746,476.6207563999924,None,,,,,,,,,,,,,,00033,001,2026-01-16_11h18.29.757,MST_task,2024.2.0,60.17060773913705,2026-01-16 11h18.37.958526 +0530,
,Scenes\059a.jpg,97,0,98,,,,,,,j,0.48333329999877606,0.10399920000054408,None,,,,,,98,0,97,476.6369788000011,,,,,,,,,,,,,,,,,,,,,,,,,,,,,,476.6208231000055,476.6369788000011,477.1413363000029,477.1204977000016,,,,,,,,,,,,,,,,,,,,,,,,,,477.1389036000037,477.1413363000029,477.1413363000029,477.1413363000029,,,,480.13713239999197,j,0.48333329999877606,0.10399920000054408,480.13718239999434,480.13719480000145,None,,,,,,,,,,,,,,00033,001,2026-01-16_11h18.29.757,MST_task,2024.2.0,60.17060773913705,2026-01-16 11h18.37.958526 +0530,
,Objects\056a.jpg,98,0,99,,,,,,,f,1.1223528999980772,0.06398550000449177,None,,,,,,99,0,98,480.1535961000045,,,,,,,,,,,,,,,,,,,,,,,,,,,,,,480.1373048999958,480.1535961000045,480.6541421000002,480.6371927,,,,,,,,,,,,,,,,,,,,,,,,,,480.6425043999916,480.6541421000002,480.6541421000002,480.6541421000002,483.6535472999967,483.6535472999967,483.6535472999967,483.63754319999134,f,1.1223528999980772,0.06398550000449177,483.6395569000015,483.63957389999996,None,,,,,,,,,,,,,,00033,001,2026-01-16_11h18.29.757,MST_task,2024.2.0,60.17060773913705,2026-01-16 11h18.37.958526 +0530,
,Objects\034a.jpg,99,0,100,,,,,,,f,0.598413999992772,0.07200210000155494,None,,,,,,100,0,99,483.6535472999967,,,,,,,,,,,,,,,,,,,,,,,,,,,,,,483.6396444999991,483.6535472999967,484.1537240000034,484.13714099999925,,,,,,,,,,,,,,,,,,,,,,,,,,484.14011399999436,484.1537240000034,484.1537240000034,484.1537240000034,487.1534767999983,487.1534767999983,487.1534767999983,487.13747590000276,f,0.598413999992772,0.07200210000155494,487.1375177000009,487.13752839999506,None,,,,,,,,,,,,,,00033,001,2026-01-16_11h18.29.757,MST_task,2024.2.0,60.17060773913705,2026-01-16 11h18.37.958526 +0530,
,Objects\130a.jpg,100,0,101,,,,,,,j,2.09076809999533,0.12804949999554083,None,,,,,,101,0,100,487.1534767999983,,,,,,,,,,,,,,,,,,,,,,,,,,,,,,487.13762439999846,487.1534767999983,487.6538927999936,487.63719989999663,,,,,,,,,,,,,,,,,,,,,,,,,,487.63998439999705,487.6538927999936,487.6538927999936,487.6538927999936,490.6534829000011,490.6534829000011,490.6534829000011,490.63750090000394,j,2.09076809999533,0.12804949999554083,490.637541899996,490.63755250000395,None,,,,,,,,,,,,,,00033,001,2026-01-16_11h18.29.757,MST_task,2024.2.0,60.17060773913705,2026-01-16 11h18.37.958526 +0530,
,Objects\106a.jpg,101,0,102,,,,,,,f,0.6702831000002334,0.0800079999899026,None,,,,,,102,0,101,490.6534829000011,,,,,,,,,,,,,,,,,,,,,,,,,,,,,,490.63761779999186,490.6534829000011,491.1538770000043,491.1371097999945,,,,,,,,,,,,,,,,,,,,,,,,,,491.1395642999996,491.1538770000043,491.1538770000043,491.1538770000043,494.15349060000153,494.15349060000153,494.15349060000153,494.1374153999932,f,0.6702831000002334,0.0800079999899026,494.13745599999675,494.13746650000394,None,,,,,,,,,,,,,,00033,001,2026-01-16_11h18.29.757,MST_task,2024.2.0,60.17060773913705,2026-01-16 11h18.37.958526 +0530,
,Objects\128a.jpg,102,0,103,,,,,,,f,1.5554312000022037,0.08752950000052806,None,,,,,,103,0,102,494.15349060000153,,,,,,,,,,,,,,,,,,,,,,,,,,,,,,494.1375632999989,494.15349060000153,494.65380390000064,494.63727199999266,,,,,,,,,,,,,,,,,,,,,,,,,,494.6400660999934,494.65380390000064,494.65380390000064,494.65380390000064,497.6535121999914,497.6535121999914,497.6535121999914,497.63742460000503,f,1.5554312000022037,0.08752950000052806,497.6374652999948,497.637476399992,None,,,,,,,,,,,,,,00033,001,2026-01-16_11h18.29.757,MST_task,2024.2.0,60.17060773913705,2026-01-16 11h18.37.958526 +0530,
,Objects\107a.jpg,103,0,104,,,,,,,j,1.3828426000109175,0.14402049999625888,None,,,,,,104,0,103,497.6535121999914,,,,,,,,,,,,,,,,,,,,,,,,,,,,,,497.6375415999937,497.6535121999914,498.15376729999844,498.13733119999233,,,,,,,,,,,,,,,,,,,,,,,,,,498.1471526999958,498.15376729999844,498.15376729999844,498.15376729999844,501.1535481000028,501.1535481000028,501.1535481000028,501.1374097999942,j,1.3828426000109175,0.14402049999625888,501.1374511000031,501.137461899998,None,,,,,,,,,,,,,,00033,001,2026-01-16_11h18.29.757,MST_task,2024.2.0,60.17060773913705,2026-01-16 11h18.37.958526 +0530,
,Objects\099a.jpg,104,0,105,,,,,,,f,2.3231077999953413,0.1119821000029333,None,,,,,,105,0,104,501.1535481000028,,,,,,,,,,,,,,,,,,,,,,,,,,,,,,501.13756030000513,501.1535481000028,501.6537152999954,501.6370292999927,,,,,,,,,,,,,,,,,,,,,,,,,,501.63989229999424,501.6537152999954,501.6537152999954,501.6537152999954,504.653550899995,504.653550899995,504.653550899995,504.63742109999293,f,2.3231077999953413,0.1119821000029333,504.63746129999345,504.63747180000064,None,,,,,,,,,,,,,,00033,001,2026-01-16_11h18.29.757,MST_task,2024.2.0,60.17060773913705,2026-01-16 11h18.37.958526 +0530,
,Scenes\125a.jpg,105,0,106,,,,,,,j,0.6142502000002423,0.13591689999157097,None,,,,,,106,0,105,504.653550899995,,,,,,,,,,,,,,,,,,,,,,,,,,,,,,504.6375384999992,504.653550899995,505.15434949999326,505.1371056999924,,,,,,,,,,,,,,,,,,,,,,,,,,505.1496482999937,505.15434949999326,505.15434949999326,505.15434949999326,508.1535879000003,508.1535879000003,508.1535879000003,508.13738669999293,j,0.6142502000002423,0.13591689999157097,508.1390237000014,508.1390406999999,None,,,,,,,,,,,,,,00033,001,2026-01-16_11h18.29.757,MST_task,2024.2.0,60.17060773913705,2026-01-16 11h18.37.958526 +0530,
,Scenes\019a.jpg,106,0,107,,,,,,,f,2.9744938000076218,None,None,,,,,,107,0,106,508.1535879000003,,,,,,,,,,,,,,,,,,,,,,,,,,,,,,508.13914189999923,508.1535879000003,508.6576511000021,508.63711820000026,,,,,,,,,,,,,,,,,,,,,,,,,,508.65527139999904,508.6576511000021,508.6576511000021,508.6576511000021,,,,511.6537743999943,f,2.9744938000076218,None,511.6538150999986,511.65382659999887,None,,,,,,,,,,,,,,00033,001,2026-01-16_11h18.29.757,MST_task,2024.2.0,60.17060773913705,2026-01-16 11h18.37.958526 +0530,
,Scenes\025a.jpg,107,0,108,,,,,,,j,1.565668100010953,0.10386529999959748,None,,,,,,108,0,107,511.6700404000003,,,,,,,,,,,,,,,,,,,,,,,,,,,,,,511.6538933999982,511.6700404000003,512.1705971000047,512.1538765000005,,,,,,,,,,,,,,,,,,,,,,,,,,512.1647246999928,512.1705971000047,512.1705971000047,512.1705971000047,515.1700274000032,515.1700274000032,515.1700274000032,515.1540779999923,j,1.565668100010953,0.10386529999959748,515.1541192000004,515.1541302999976,None,,,,,,,,,,,,,,00033,001,2026-01-16_11h18.29.757,MST_task,2024.2.0,60.17060773913705,2026-01-16 11h18.37.958526 +0530,
,Scenes\038a.jpg,108,0,109,,,,,,,j,0.7458149000012781,0.06398409999383148,None,,,,,,109,0,108,515.1700274000032,,,,,,,,,,,,,,,,,,,,,,,,,,,,,,515.1541972999985,515.1700274000032,515.6707675999933,515.6537610999949,,,,,,,,,,,,,,,,,,,,,,,,,,515.663238699999,515.6707675999933,515.6707675999933,515.6707675999933,518.6701639999956,518.6701639999956,518.6701639999956,518.6540242000046,j,0.7458149000012781,0.06398409999383148,518.6540658000013,518.6540768999985,None,,,,,,,,,,,,,,00033,001,2026-01-16_11h18.29.757,MST_task,2024.2.0,60.17060773913705,2026-01-16 11h18.37.958526 +0530,
,Scenes\023a.jpg,109,0,110,,,,,,,f,1.934120100006112,0.06416700000409037,None,,,,,,110,0,109,518.6701639999956,,,,,,,,,,,,,,,,,,,,,,,,,,,,,,518.654174700001,518.6701639999956,519.1707794999966,519.1537797000055,,,,,,,,,,,,,,,,,,,,,,,,,,519.1659096999938,519.1707794999966,519.1707794999966,519.1707794999966,522.1701470999978,522.1701470999978,522.1701470999978,522.1542294999963,f,1.934120100006112,0.06416700000409037,522.1542792999971,522.1542922999943,None,,,,,,,,,,,,,,00033,001,2026-01-16_11h18.29.757,MST_task,2024.2.0,60.17060773913705,2026-01-16 11h18.37.958526 +0530,
,Scenes\173a.jpg,110,0,111,,,,,,,j,1.2021521999995457,0.10399590000452008,None,,,,,,111,0,110,522.1701470999978,,,,,,,,,,,,,,,,,,,,,,,,,,,,,,522.1544103000051,522.1701470999978,522.6708883999963,522.6537237000011,,,,,,,,,,,,,,,,,,,,,,,,,,522.6602476999979,522.6708883999963,522.6708883999963,522.6708883999963,525.670205699993,525.670205699993,525.670205699993,525.6542307000054,j,1.2021521999995457,0.10399590000452008,525.654288699996,525.6542998999939,None,,,,,,,,,,,,,,00033,001,2026-01-16_11h18.29.757,MST_task,2024.2.0,60.17060773913705,2026-01-16 11h18.37.958526 +0530,
,Scenes\134a.jpg,111,0,112,,,,,,,j,0.6306442000059178,0.07888739999907557,None,,,,,,112,0,111,525.670205699993,,,,,,,,,,,,,,,,,,,,,,,,,,,,,,525.6543702000054,525.670205699993,526.1706930999935,526.153824699999,,,,,,,,,,,,,,,,,,,,,,,,,,526.1636127999955,526.1706930999935,526.1706930999935,526.1706930999935,529.1700464000023,529.1700464000023,529.1700464000023,529.1540176999988,j,0.6306442000059178,0.07888739999907557,529.1540605000046,529.154108200004,None,,,,,,,,,,,,,,00033,001,2026-01-16_11h18.29.757,MST_task,2024.2.0,60.17060773913705,2026-01-16 11h18.37.958526 +0530,
,Objects\011a.jpg,112,0,113,,,,,,,f,0.6979671000008238,0.1200024999998277,None,,,,,,113,0,112,529.1700464000023,,,,,,,,,,,,,,,,,,,,,,,,,,,,,,529.1542113000032,529.1700464000023,529.6707061000052,529.6538905999914,,,,,,,,,,,,,,,,,,,,,,,,,,529.6593464000034,529.6707061000052,529.6707061000052,529.6707061000052,532.6701636999933,532.6701636999933,532.6701636999933,532.6541353999928,f,0.6979671000008238,0.1200024999998277,532.656135600002,532.6561522999982,None,,,,,,,,,,,,,,00033,001,2026-01-16_11h18.29.757,MST_task,2024.2.0,60.17060773913705,2026-01-16 11h18.37.958526 +0530,
,Objects\073a.jpg,113,0,114,,,,,,,f,0.6063611999998102,0.08800509999855421,None,,,,,,114,0,113,532.6701636999933,,,,,,,,,,,,,,,,,,,,,,,,,,,,,,532.6562217000028,532.6701636999933,533.1703421999991,533.1538091999973,,,,,,,,,,,,,,,,,,,,,,,,,,533.1638267999951,533.1703421999991,533.1703421999991,533.1703421999991,536.1701192000037,536.1701192000037,536.1701192000037,536.1540018999949,f,0.6063611999998102,0.08800509999855421,536.1540433000046,536.154054300001,None,,,,,,,,,,,,,,00033,001,2026-01-16_11h18.29.757,MST_task,2024.2.0,60.17060773913705,2026-01-16 11h18.37.958526 +0530,
,Objects\181a.jpg,114,0,115,,,,,,,j,1.4103831999964314,0.15201420000812504,None,,,,,,115,0,114,536.1701192000037,,,,,,,,,,,,,,,,,,,,,,,,,,,,,,536.1541503000044,536.1701192000037,536.6703726999986,536.6537167999923,,,,,,,,,,,,,,,,,,,,,,,,,,536.656507599997,536.6703726999986,536.6703726999986,536.6703726999986,539.6701551000006,539.6701551000006,539.6701551000006,539.6540783999953,j,1.4103831999964314,0.15201420000812504,539.6541256000055,539.6541367000027,None,,,,,,,,,,,,,,00033,001,2026-01-16_11h18.29.757,MST_task,2024.2.0,60.17060773913705,2026-01-16 11h18.37.958526 +0530,
,Objects\024a.jpg,115,0,116,,,,,,,f,0.6945702000084566,0.09600989999307785,None,,,,,,116,0,115,539.6701551000006,,,,,,,,,,,,,,,,,,,,,,,,,,,,,,539.654205400002,539.6701551000006,540.1703620000044,540.153724799995,,,,,,,,,,,,,,,,,,,,,,,,,,540.1566463999916,540.1703620000044,540.1703620000044,540.1703620000044,543.1700773000048,543.1700773000048,543.1700773000048,543.1541257999925,f,0.6945702000084566,0.09600989999307785,543.1541665999976,543.1541778999963,None,,,,,,,,,,,,,,00033,001,2026-01-16_11h18.29.757,MST_task,2024.2.0,60.17060773913705,2026-01-16 11h18.37.958526 +0530,
,Objects\189a.jpg,116,0,117,,,,,,,j,1.426419800001895,0.13600020000012591,None,,,,,,117,0,116,543.1700773000048,,,,,,,,,,,,,,,,,,,,,,,,,,,,,,543.1542781000026,543.1700773000048,543.6703601000045,543.6539035000023,,,,,,,,,,,,,,,,,,,,,,,,,,543.6568641000049,543.6703601000045,543.6703601000045,543.6703601000045,546.6700991999969,546.6700991999969,546.6700991999969,546.6541094999993,j,1.426419800001895,0.13600020000012591,546.6541555000003,546.6541664999968,None,,,,,,,,,,,,,,00033,001,2026-01-16_11h18.29.757,MST_task,2024.2.0,60.17060773913705,2026-01-16 11h18.37.958526 +0530,
,Objects\096a.jpg,117,0,118,,,,,,,j,1.1509326999948826,0.11097800001152791,None,,,,,,118,0,117,546.6700991999969,,,,,,,,,,,,,,,,,,,,,,,,,,,,,,546.6542632999917,546.6700991999969,547.1703794999921,547.1537745999958,,,,,,,,,,,,,,,,,,,,,,,,,,547.1566705000005,547.1703794999921,547.1703794999921,547.1703794999921,550.170056899995,550.170056899995,550.170056899995,550.154357899999,j,1.1509326999948826,0.11097800001152791,550.1544089999952,550.1544204999955,None,,,,,,,,,,,,,,00033,001,2026-01-16_11h18.29.757,MST_task,2024.2.0,60.17060773913705,2026-01-16 11h18.37.958526 +0530,
,Objects\065a.jpg,118,0,119,,,,,,,j,1.1298190999950748,0.10397470000316389,None,,,,,,119,0,118,550.170056899995,,,,,,,,,,,,,,,,,,,,,,,,,,,,,,550.1544963999913,550.170056899995,550.6703904000024,550.6537452000048,,,,,,,,,,,,,,,,,,,,,,,,,,550.6562934999965,550.6703904000024,550.6703904000024,550.6703904000024,553.6701041999913,553.6701041999913,553.6701041999913,553.6540120999998,j,1.1298190999950748,0.10397470000316389,553.6540540999995,553.6540645999921,None,,,,,,,,,,,,,,00033,001,2026-01-16_11h18.29.757,MST_task,2024.2.0,60.17060773913705,2026-01-16 11h18.37.958526 +0530,
,Scenes\084a.jpg,119,0,120,,,,,,,j,0.9746463000046788,0.1269266999879619,None,,,,,,120,0,119,553.6701041999913,,,,,,,,,,,,,,,,,,,,,,,,,,,,,,553.6541609999986,553.6701041999913,554.170658499992,554.1538222999952,,,,,,,,,,,,,,,,,,,,,,,,,,554.1656261000026,554.170658499992,554.170658499992,554.170658499992,557.1700928999926,557.1700928999926,557.1700928999926,557.154114399993,j,0.9746463000046788,0.1269266999879619,557.155711600004,557.1557287000032,None,,,,,,,,,,,,,,00033,001,2026-01-16_11h18.29.757,MST_task,2024.2.0,60.17060773913705,2026-01-16 11h18.37.958526 +0530,
,Scenes\042a.jpg,120,0,121,,,,,,,j,0.5537723000015831,0.10396720000426285,None,,,,,,121,0,120,557.1700928999926,,,,,,,,,,,,,,,,,,,,,,,,,,,,,,557.1558415000036,557.1700928999926,557.6706615000003,557.6537945000018,,,,,,,,,,,,,,,,,,,,,,,,,,557.6610972000053,557.6706615000003,557.6706615000003,557.6706615000003,560.6700683999952,560.6700683999952,560.6700683999952,560.6541332999914,j,0.5537723000015831,0.10396720000426285,560.654177999997,560.6541889999935,None,,,,,,,,,,,,,,00033,001,2026-01-16_11h18.29.757,MST_task,2024.2.0,60.17060773913705,2026-01-16 11h18.37.958526 +0530,
,Scenes\185a.jpg,121,0,122,,,,,,,j,0.6379358999984106,0.11199809999379795,None,,,,,,122,0,121,560.6700683999952,,,,,,,,,,,,,,,,,,,,,,,,,,,,,,560.654257400005,560.6700683999952,561.1705991999916,561.1537361999945,,,,,,,,,,,,,,,,,,,,,,,,,,561.168013100003,561.1705991999916,561.1705991999916,561.1705991999916,564.1701063999935,564.1701063999935,564.1701063999935,564.1540488000028,j,0.6379358999984106,0.11199809999379795,564.1540920999978,564.154103199995,None,,,,,,,,,,,,,,00033,001,2026-01-16_11h18.29.757,MST_task,2024.2.0,60.17060773913705,2026-01-16 11h18.37.958526 +0530,
,Scenes\045a.jpg,122,0,123,,,,,,,f,1.6661559000058332,0.10367090000363532,None,,,,,,123,0,122,564.1701063999935,,,,,,,,,,,,,,,,,,,,,,,,,,,,,,564.1541709000012,564.1701063999935,564.6706148999947,564.6538782999996,,,,,,,,,,,,,,,,,,,,,,,,,,564.6649613000045,564.6706148999947,564.6706148999947,564.6706148999947,567.6701592000027,567.6701592000027,567.6701592000027,567.6540950999915,f,1.6661559000058332,0.10367090000363532,567.6541370999912,567.6541483000037,None,,,,,,,,,,,,,,00033,001,2026-01-16_11h18.29.757,MST_task,2024.2.0,60.17060773913705,2026-01-16 11h18.37.958526 +0530,
,Scenes\085a.jpg,123,0,124,,,,,,,j,0.7666278999968199,0.17484419999527745,None,,,,,,124,0,123,567.6701592000027,,,,,,,,,,,,,,,,,,,,,,,,,,,,,,567.6542141999962,567.6701592000027,568.1707088999974,568.1538521000039,,,,,,,,,,,,,,,,,,,,,,,,,,568.1634726000048,568.1707088999974,568.1707088999974,568.1707088999974,571.1701528999984,571.1701528999984,571.1701528999984,571.1540442999976,j,0.7666278999968199,0.17484419999527745,571.1540874999919,571.1540984000021,None,,,,,,,,,,,,,,00033,001,2026-01-16_11h18.29.757,MST_task,2024.2.0,60.17060773913705,2026-01-16 11h18.37.958526 +0530,
,Scenes\011a.jpg,124,0,125,,,,,,,j,0.6363337999937357,0.14408470000489615,None,,,,,,125,0,124,571.1701528999984,,,,,,,,,,,,,,,,,,,,,,,,,,,,,,571.1541962000047,571.1701528999984,571.6766456000041,571.653782399997,,,,,,,,,,,,,,,,,,,,,,,,,,571.6741380000021,571.6766456000041,571.6766456000041,571.6766456000041,,,,574.6705763999926,j,0.6363337999937357,0.14408470000489615,574.6706163999916,574.6706283999956,None,,,,,,,,,,,,,,00033,001,2026-01-16_11h18.29.757,MST_task,2024.2.0,60.17060773913705,2026-01-16 11h18.37.958526 +0530,
,Scenes\051a.jpg,125,0,126,,,,,,,j,0.757099800001015,0.128013399997144,None,,,,,,126,0,125,574.6869914999988,,,,,,,,,,,,,,,,,,,,,,,,,,,,,,574.6707300999988,574.6869914999988,575.1875284999987,575.1708229999931,,,,,,,,,,,,,,,,,,,,,,,,,,575.1765283999994,575.1875284999987,575.1875284999987,575.1875284999987,578.1870452000003,578.1870452000003,578.1870452000003,578.170790499993,j,0.757099800001015,0.128013399997144,578.1708330999973,578.1708437999914,None,,,,,,,,,,,,,,00033,001,2026-01-16_11h18.29.757,MST_task,2024.2.0,60.17060773913705,2026-01-16 11h18.37.958526 +0530,
,Objects\169a.jpg,126,0,127,,,,,,,j,1.5696812000096543,0.15091539999411907,None,,,,,,127,0,126,578.1870452000003,,,,,,,,,,,,,,,,,,,,,,,,,,,,,,578.1709502000012,578.1870452000003,578.6875759999966,578.6705481999961,,,,,,,,,,,,,,,,,,,,,,,,,,578.6834636999993,578.6875759999966,578.6875759999966,578.6875759999966,581.6869771999918,581.6869771999918,581.6869771999918,581.6709604999924,j,1.5696812000096543,0.15091539999411907,581.6730158999999,581.6730332000006,None,,,,,,,,,,,,,,00033,001,2026-01-16_11h18.29.757,MST_task,2024.2.0,60.17060773913705,2026-01-16 11h18.37.958526 +0530,
,Objects\165a.jpg,127,0,128,,,,,,,f,0.5656180999940261,0.10402070000418462,None,,,,,,128,0,127,581.6869771999918,,,,,,,,,,,,,,,,,,,,,,,,,,,,,,581.6731026000052,581.6869771999918,582.1873094000039,582.1705142999999,,,,,,,,,,,,,,,,,,,,,,,,,,582.1800662000023,582.1873094000039,582.1873094000039,582.1873094000039,585.186962199994,585.186962199994,585.186962199994,585.1708552000055,f,0.5656180999940261,0.10402070000418462,585.1708974999929,585.1709083000023,None,,,,,,,,,,,,,,00033,001,2026-01-16_11h18.29.757,MST_task,2024.2.0,60.17060773913705,2026-01-16 11h18.37.958526 +0530,
,Objects\174a.jpg,128,0,129,,,,,,,f,0.881206200007,0.09602719999384135,None,,,,,,129,0,128,585.186962199994,,,,,,,,,,,,,,,,,,,,,,,,,,,,,,585.1710050999973,585.186962199994,585.6871462999989,585.6704959000053,,,,,,,,,,,,,,,,,,,,,,,,,,585.6730506000022,585.6871462999989,585.6871462999989,585.6871462999989,588.6869870999944,588.6869870999944,588.6869870999944,588.6707730999915,f,0.881206200007,0.09602719999384135,588.6708142999996,588.6708246999915,None,,,,,,,,,,,,,,00033,001,2026-01-16_11h18.29.757,MST_task,2024.2.0,60.17060773913705,2026-01-16 11h18.37.958526 +0530,
,Objects\043a.jpg,129,0,130,,,,,,,f,0.6051519000029657,0.09608079999452457,None,,,,,,130,0,129,588.6869870999944,,,,,,,,,,,,,,,,,,,,,,,,,,,,,,588.6709204999934,588.6869870999944,589.1872299999959,589.1705941999971,,,,,,,,,,,,,,,,,,,,,,,,,,589.1732731999946,589.1872299999959,589.1872299999959,589.1872299999959,592.1869705999998,592.1869705999998,592.1869705999998,592.1708411,f,0.6051519000029657,0.09608079999452457,592.1708823999943,592.170893699993,None,,,,,,,,,,,,,,00033,001,2026-01-16_11h18.29.757,MST_task,2024.2.0,60.17060773913705,2026-01-16 11h18.37.958526 +0530,
,Objects\088a.jpg,130,0,131,,,,,,,j,0.9866165999992518,0.14282900000398513,None,,,,,,131,0,130,592.1869705999998,,,,,,,,,,,,,,,,,,,,,,,,,,,,,,592.1709612999985,592.1869705999998,592.6872412999946,592.6704385000048,,,,,,,,,,,,,,,,,,,,,,,,,,592.6731919000013,592.6872412999946,592.6872412999946,592.6872412999946,595.6870020999922,595.6870020999922,595.6870020999922,595.6708634999959,j,0.9866165999992518,0.14282900000398513,595.6709045000025,595.6709150999959,None,,,,,,,,,,,,,,00033,001,2026-01-16_11h18.29.757,MST_task,2024.2.0,60.17060773913705,2026-01-16 11h18.37.958526 +0530,
,Objects\055a.jpg,131,0,132,,,,,,,f,0.7656263999961084,0.11195400000724476,None,,,,,,132,0,131,595.6870020999922,,,,,,,,,,,,,,,,,,,,,,,,,,,,,,595.6710093000002,595.6870020999922,596.1872962000052,596.1704833999975,,,,,,,,,,,,,,,,,,,,,,,,,,596.1731769000035,596.1872962000052,596.1872962000052,596.1872962000052,599.1869202999951,599.1869202999951,599.1869202999951,599.1708342999918,f,0.7656263999961084,0.11195400000724476,599.1708752999984,599.1708858999918,None,,,,,,,,,,,,,,00033,001,2026-01-16_11h18.29.757,MST_task,2024.2.0,60.17060773913705,2026-01-16 11h18.37.958526 +0530,
,Objects\113a.jpg,132,0,133,,,,,,,f,1.3449468000035267,0.0959757999953581,None,,,,,,133,0,132,599.1869202999951,,,,,,,,,,,,,,,,,,,,,,,,,,,,,,599.1709514999966,599.1869202999951,599.687230399999,599.6705434000032,,,,,,,,,,,,,,,,,,,,,,,,,,599.6734090999962,599.687230399999,599.687230399999,599.687230399999,602.6870067999989,602.6870067999989,602.6870067999989,602.6708682000026,f,1.3449468000035267,0.0959757999953581,602.6709106999915,602.6709211999987,None,,,,,,,,,,,,,,00033,001,2026-01-16_11h18.29.757,MST_task,2024.2.0,60.17060773913705,2026-01-16 11h18.37.958526 +0530,
,Scenes\155a.jpg,133,0,134,,,,,,,j,0.6854691999906208,0.10463240000535734,None,,,,,,134,0,133,602.6870067999989,,,,,,,,,,,,,,,,,,,,,,,,,,,,,,602.6709886000026,602.6870067999989,603.1874189999944,603.1705432000017,,,,,,,,,,,,,,,,,,,,,,,,,,603.1801125999918,603.1874189999944,603.1874189999944,603.1874189999944,606.1869219999935,606.1869219999935,606.1869219999935,606.1708991999913,j,0.6854691999906208,0.10463240000535734,606.1725503999915,606.1725805000024,None,,,,,,,,,,,,,,00033,001,2026-01-16_11h18.29.757,MST_task,2024.2.0,60.17060773913705,2026-01-16 11h18.37.958526 +0530,
,Scenes\046a.jpg,134,0,135,,,,,,,j,0.7150192999979481,0.09697139999479987,None,,,,,,135,0,134,606.1869219999935,,,,,,,,,,,,,,,,,,,,,,,,,,,,,,606.172696499998,606.1869219999935,606.6931521999941,606.6704838000005,,,,,,,,,,,,,,,,,,,,,,,,,,606.6905963000027,606.6931521999941,606.6931521999941,606.6931521999941,,,,609.6872388000047,j,0.7150192999979481,0.09697139999479987,609.6872848000057,609.6872979000036,None,,,,,,,,,,,,,,00033,001,2026-01-16_11h18.29.757,MST_task,2024.2.0,60.17060773913705,2026-01-16 11h18.37.958526 +0530,
,Scenes\127a.jpg,135,0,136,,,,,,,j,0.5721486999973422,0.10429750000184868,None,,,,,,136,0,135,609.7036014000041,,,,,,,,,,,,,,,,,,,,,,,,,,,,,,609.6873976999923,609.7036014000041,610.2041084999946,610.1872357999964,,,,,,,,,,,,,,,,,,,,,,,,,,610.1962273999961,610.2041084999946,610.2041084999946,610.2041084999946,613.2036226000055,613.2036226000055,613.2036226000055,613.1875823000009,j,0.5721486999973422,0.10429750000184868,613.1876235999953,613.1876341000025,None,,,,,,,,,,,,,,00033,001,2026-01-16_11h18.29.757,MST_task,2024.2.0,60.17060773913705,2026-01-16 11h18.37.958526 +0530,
,Scenes\087a.jpg,136,0,137,,,,,,,j,0.6959773000126006,0.12101389998861123,None,,,,,,137,0,136,613.2036226000055,,,,,,,,,,,,,,,,,,,,,,,,,,,,,,613.1877309999982,613.2036226000055,613.7042686999921,613.6872203999956,,,,,,,,,,,,,,,,,,,,,,,,,,613.6924621999933,613.7042686999921,613.7042686999921,613.7042686999921,616.703698199999,616.703698199999,616.703698199999,616.687678000002,j,0.6959773000126006,0.12101389998861123,616.6877243999916,616.6877361999941,None,,,,,,,,,,,,,,00033,001,2026-01-16_11h18.29.757,MST_task,2024.2.0,60.17060773913705,2026-01-16 11h18.37.958526 +0530,
,Scenes\166a.jpg,137,0,138,,,,,,,j,0.659936199997901,0.143963900001836,None,,,,,,138,0,137,616.703698199999,,,,,,,,,,,,,,,,,,,,,,,,,,,,,,616.6878042000026,616.703698199999,617.2042657999991,617.1871671999979,,,,,,,,,,,,,,,,,,,,,,,,,,617.1925926999975,617.2042657999991,617.2042657999991,617.2042657999991,620.2036684999912,620.2036684999912,620.2036684999912,620.187511600001,j,0.659936199997901,0.143963900001836,620.1875541000045,620.1875645999971,None,,,,,,,,,,,,,,00033,001,2026-01-16_11h18.29.757,MST_task,2024.2.0,60.17060773913705,2026-01-16 11h18.37.958526 +0530,
,Scenes\112a.jpg,138,0,139,,,,,,,j,0.6078464000020176,0.10490529998787679,None,,,,,,139,0,138,620.2036684999912,,,,,,,,,,,,,,,,,,,,,,,,,,,,,,620.1876313999965,620.2036684999912,620.7042628999916,620.6872121999913,,,,,,,,,,,,,,,,,,,,,,,,,,620.695699200005,620.7042628999916,620.7042628999916,620.7042628999916,623.7036280000029,623.7036280000029,623.7036280000029,623.6875738999952,j,0.6078464000020176,0.10490529998787679,623.6876145999995,623.6876254999952,None,,,,,,,,,,,,,,00033,001,2026-01-16_11h18.29.757,MST_task,2024.2.0,60.17060773913705,2026-01-16 11h18.37.958526 +0530,
,Scenes\142a.jpg,139,0,140,,,,,,,j,1.0580210000043735,0.11199780000606552,None,,,,,,140,0,139,623.7036280000029,,,,,,,,,,,,,,,,,,,,,,,,,,,,,,623.6876913000015,623.7036280000029,624.2067849000014,624.1871767999983,,,,,,,,,,,,,,,,,,,,,,,,,,624.2044077000028,624.2067849000014,624.2067849000014,624.2067849000014,,,,627.2038388999936,j,1.0580210000043735,0.11199780000606552,627.2038802000025,627.2038914000004,None,,,,,,,,,,,,,,00033,001,2026-01-16_11h18.29.757,MST_task,2024.2.0,60.17060773913705,2026-01-16 11h18.37.958526 +0530,
,Objects\081a.jpg,140,0,141,,,,,,,f,0.7915854000020772,0.10425830000895076,None,,,,,,141,0,140,627.2203201999946,,,,,,,,,,,,,,,,,,,,,,,,,,,,,,627.2039879999938,627.2203201999946,627.7208403999975,627.703891600002,,,,,,,,,,,,,,,,,,,,,,,,,,627.7093418000004,627.7208403999975,627.7208403999975,627.7208403999975,630.720247499994,630.720247499994,630.720247499994,630.7042342999921,f,0.7915854000020772,0.10425830000895076,630.7062660999945,630.7062823000015,None,,,,,,,,,,,,,,00033,001,2026-01-16_11h18.29.757,MST_task,2024.2.0,60.17060773913705,2026-01-16 11h18.37.958526 +0530,
,Objects\017a.jpg,141,0,142,,,,,,,f,1.5402628000010736,0.10401029999775346,None,,,,,,142,0,141,630.720247499994,,,,,,,,,,,,,,,,,,,,,,,,,,,,,,630.7063514000038,630.720247499994,631.2205814000044,631.2039471000026,,,,,,,,,,,,,,,,,,,,,,,,,,631.2065408000053,631.2205814000044,631.2205814000044,631.2205814000044,634.2201676999975,634.2201676999975,634.2201676999975,634.2040899999993,f,1.5402628000010736,0.10401029999775346,634.2041315999959,634.2041422000038,None,,,,,,,,,,,,,,00033,001,2026-01-16_11h18.29.757,MST_task,2024.2.0,60.17060773913705,2026-01-16 11h18.37.958526 +0530,
,Objects\147a.jpg,142,0,143,,,,,,,j,2.040366199988057,0.13577980000991374,None,,,,,,143,0,142,634.2201676999975,,,,,,,,,,,,,,,,,,,,,,,,,,,,,,634.2042081999971,634.2201676999975,634.7203987999965,634.7037619000039,,,,,,,,,,,,,,,,,,,,,,,,,,634.7066258999985,634.7203987999965,634.7203987999965,634.7203987999965,637.7201752999972,637.7201752999972,637.7201752999972,637.704064199992,j,2.040366199988057,0.13577980000991374,637.7041102999938,637.7041211000032,None,,,,,,,,,,,,,,00033,001,2026-01-16_11h18.29.757,MST_task,2024.2.0,60.17060773913705,2026-01-16 11h18.37.958526 +0530,
,Objects\089a.jpg,143,0,144,,,,,,,j,0.8447863000037614,0.13598249999631662,None,,,,,,144,0,143,637.7201752999972,,,,,,,,,,,,,,,,,,,,,,,,,,,,,,637.7041873999988,637.7201752999972,638.2202905000013,638.2037927000056,,,,,,,,,,,,,,,,,,,,,,,,,,638.2065227999992,638.2202905000013,638.2202905000013,638.2202905000013,641.2200719999964,641.2200719999964,641.2200719999964,641.2040399999969,j,0.8447863000037614,0.13598249999631662,641.2040825000004,641.204092999993,None,,,,,,,,,,,,,,00033,001,2026-01-16_11h18.29.757,MST_task,2024.2.0,60.17060773913705,2026-01-16 11h18.37.958526 +0530,
,Objects\041a.jpg,144,0,145,,,,,,,j,1.984754699995392,0.1119847999943886,None,,,,,,145,0,144,641.2200719999964,,,,,,,,,,,,,,,,,,,,,,,,,,,,,,641.204230599993,641.2200719999964,641.7202866000007,641.7037631999992,,,,,,,,,,,,,,,,,,,,,,,,,,641.7064395999914,641.7202866000007,641.7202866000007,641.7202866000007,644.7201728999935,644.7201728999935,644.7201728999935,644.7040249999991,j,1.984754699995392,0.1119847999943886,644.7040649999981,644.7040756999922,None,,,,,,,,,,,,,,00033,001,2026-01-16_11h18.29.757,MST_task,2024.2.0,60.17060773913705,2026-01-16 11h18.37.958526 +0530,
,Objects\101a.jpg,145,0,146,,,,,,,j,1.556531800000812,0.11999880000075791,None,,,,,,146,0,145,644.7201728999935,,,,,,,,,,,,,,,,,,,,,,,,,,,,,,644.7041687000019,644.7201728999935,645.2204100999952,645.2037964000046,,,,,,,,,,,,,,,,,,,,,,,,,,645.2064492999925,645.2204100999952,645.2204100999952,645.2204100999952,648.2201133999915,648.2201133999915,648.2201133999915,648.2041218999948,j,1.556531800000812,0.11999880000075791,648.204161799993,648.204172800004,None,,,,,,,,,,,,,,00033,001,2026-01-16_11h18.29.757,MST_task,2024.2.0,60.17060773913705,2026-01-16 11h18.37.958526 +0530,
,Objects\068a.jpg,146,0,147,,,,,,,f,0.5373142000025837,0.07848920000833459,None,,,,,,147,0,146,648.2201133999915,,,,,,,,,,,,,,,,,,,,,,,,,,,,,,648.204238899998,648.2201133999915,648.7205339999928,648.7038602999964,,,,,,,,,,,,,,,,,,,,,,,,,,648.7157713999914,648.7205339999928,648.7205339999928,648.7205339999928,651.7201008999982,651.7201008999982,651.7201008999982,651.7041051999986,f,0.5373142000025837,0.07848920000833459,651.7041477000021,651.7041589,None,,,,,,,,,,,,,,00033,001,2026-01-16_11h18.29.757,MST_task,2024.2.0,60.17060773913705,2026-01-16 11h18.37.958526 +0530,
,Scenes\102a.jpg,147,0,148,,,,,,,f,1.547868900001049,0.08907659999385942,None,,,,,,148,0,147,651.7201008999982,,,,,,,,,,,,,,,,,,,,,,,,,,,,,,651.704224000001,651.7201008999982,652.2206823000015,652.2038099000056,,,,,,,,,,,,,,,,,,,,,,,,,,652.2166905000049,652.2206823000015,652.2206823000015,652.2206823000015,655.2201160999975,655.2201160999975,655.2201160999975,655.2041295999952,f,1.547868900001049,0.08907659999385942,655.2057338000013,655.2057505999983,None,,,,,,,,,,,,,,00033,001,2026-01-16_11h18.29.757,MST_task,2024.2.0,60.17060773913705,2026-01-16 11h18.37.958526 +0530,
,Scenes\033a.jpg,148,0,149,,,,,,,j,0.928402500008815,0.13549829999101348,None,,,,,,149,0,148,655.2201160999975,,,,,,,,,,,,,,,,,,,,,,,,,,,,,,655.2058581000019,655.2201160999975,655.7206312999915,655.7038097000041,,,,,,,,,,,,,,,,,,,,,,,,,,655.707807800005,655.7206312999915,655.7206312999915,655.7206312999915,658.7201566000003,658.7201566000003,658.7201566000003,658.7041385000048,j,0.928402500008815,0.13549829999101348,658.7041800000006,658.7041907999956,None,,,,,,,,,,,,,,00033,001,2026-01-16_11h18.29.757,MST_task,2024.2.0,60.17060773913705,2026-01-16 11h18.37.958526 +0530,
,Scenes\018a.jpg,149,0,150,,,,,,,f,1.572169799997937,0.1039870999957202,None,,,,,,150,0,149,658.7201566000003,,,,,,,,,,,,,,,,,,,,,,,,,,,,,,658.7042600999994,658.7201566000003,659.2207563999982,659.2039332999993,,,,,,,,,,,,,,,,,,,,,,,,,,659.2102483999915,659.2207563999982,659.2207563999982,659.2207563999982,662.2201812999992,662.2201812999992,662.2201812999992,662.2041176000057,f,1.572169799997937,0.1039870999957202,662.2041595000046,662.204170500001,None,,,,,,,,,,,,,,00033,001,2026-01-16_11h18.29.757,MST_task,2024.2.0,60.17060773913705,2026-01-16 11h18.37.958526 +0530,
,Scenes\058a.jpg,150,0,151,,,,,,,f,1.1359049000020605,0.07159739999042358,None,,,,,,151,0,150,662.2201812999992,,,,,,,,,,,,,,,,,,,,,,,,,,,,,,662.2042380000057,662.2201812999992,662.7207501999947,662.7037438999978,,,,,,,,,,,,,,,,,,,,,,,,,,662.7127478000039,662.7207501999947,662.7207501999947,662.7207501999947,665.7200891999964,665.7200891999964,665.7200891999964,665.7040909999923,f,1.1359049000020605,0.07159739999042358,665.7041431999969,665.7041539000056,None,,,,,,,,,,,,,,00033,001,2026-01-16_11h18.29.757,MST_task,2024.2.0,60.17060773913705,2026-01-16 11h18.37.958526 +0530,
,Scenes\171a.jpg,151,0,152,,,,,,,f,1.0274193999939598,0.07245599999441765,None,,,,,,152,0,151,665.7200891999964,,,,,,,,,,,,,,,,,,,,,,,,,,,,,,665.7042519999959,665.7200891999964,666.2208123000019,666.2038194999914,,,,,,,,,,,,,,,,,,,,,,,,,,666.2147130999947,666.2208123000019,666.2208123000019,666.2208123000019,669.2201131000038,669.2201131000038,669.2201131000038,669.2041195000056,f,1.0274193999939598,0.07245599999441765,669.2041611000022,669.204172400001,None,,,,,,,,,,,,,,00033,001,2026-01-16_11h18.29.757,MST_task,2024.2.0,60.17060773913705,2026-01-16 11h18.37.958526 +0530,
,Scenes\095a.jpg,152,0,153,,,,,,,f,0.8398242999974173,0.08795220000320114,None,,,,,,153,0,152,669.2201131000038,,,,,,,,,,,,,,,,,,,,,,,,,,,,,,669.204269599999,669.2201131000038,669.7208148999925,669.7037751000025,,,,,,,,,,,,,,,,,,,,,,,,,,669.7117708000005,669.7208148999925,669.7208148999925,669.7208148999925,672.7201789999963,672.7201789999963,672.7201789999963,672.7040718999924,f,0.8398242999974173,0.08795220000320114,672.7041137000051,672.7041247000016,None,,,,,,,,,,,,,,00033,001,2026-01-16_11h18.29.757,MST_task,2024.2.0,60.17060773913705,2026-01-16 11h18.37.958526 +0530,
,Scenes\072a.jpg,153,0,154,,,,,,,j,0.6047486000024946,0.10290989998611622,None,,,,,,154,0,153,672.7201789999963,,,,,,,,,,,,,,,,,,,,,,,,,,,,,,672.7042220000003,672.7201789999963,673.2208310999995,673.2041239999962,,,,,,,,,,,,,,,,,,,,,,,,,,673.2146620999993,673.2208310999995,673.2208310999995,673.2208310999995,676.2201241000002,676.2201241000002,676.2201241000002,676.2043010000052,j,0.6047486000024946,0.10290989998611622,676.2043485000031,676.204359299998,None,,,,,,,,,,,,,,00033,001,2026-01-16_11h18.29.757,MST_task,2024.2.0,60.17060773913705,2026-01-16 11h18.37.958526 +0530,
,Objects\063a.jpg,154,0,155,,,,,,,f,0.7850818000006257,0.07998320000478998,None,,,,,,155,0,154,676.2201241000002,,,,,,,,,,,,,,,,,,,,,,,,,,,,,,676.2044717999961,676.2201241000002,676.7205907000025,676.703817200003,,,,,,,,,,,,,,,,,,,,,,,,,,676.7092694000021,676.7205907000025,676.7205907000025,676.7205907000025,679.7201301000023,679.7201301000023,679.7201301000023,679.7045437000052,f,0.7850818000006257,0.07998320000478998,679.7066678999981,679.7066852999997,None,,,,,,,,,,,,,,00033,001,2026-01-16_11h18.29.757,MST_task,2024.2.0,60.17060773913705,2026-01-16 11h18.37.958526 +0530,
,Objects\146a.jpg,155,0,156,,,,,,,j,1.1412254000024404,0.1349189999891678,None,,,,,,156,0,155,679.7201301000023,,,,,,,,,,,,,,,,,,,,,,,,,,,,,,679.7067945000017,679.7201301000023,680.2204836000019,680.2038421000034,,,,,,,,,,,,,,,,,,,,,,,,,,680.206526599999,680.2204836000019,680.2204836000019,680.2204836000019,683.2201397000026,683.2201397000026,683.2201397000026,683.2041926999955,j,1.1412254000024404,0.1349189999891678,683.204233299999,683.2042438999924,None,,,,,,,,,,,,,,00033,001,2026-01-16_11h18.29.757,MST_task,2024.2.0,60.17060773913705,2026-01-16 11h18.37.958526 +0530,
,Objects\187a.jpg,156,0,157,,,,,,,f,0.6564443999959622,0.11132630000065546,None,,,,,,157,0,156,683.2201397000026,,,,,,,,,,,,,,,,,,,,,,,,,,,,,,683.2043101000017,683.2201397000026,683.7204095999914,683.7038146999985,,,,,,,,,,,,,,,,,,,,,,,,,,683.7064475999941,683.7204095999914,683.7204095999914,683.7204095999914,686.7201190999913,686.7201190999913,686.7201190999913,686.7043641000055,f,0.6564443999959622,0.11132630000065546,686.704416499997,686.7044281999988,None,,,,,,,,,,,,,,00033,001,2026-01-16_11h18.29.757,MST_task,2024.2.0,60.17060773913705,2026-01-16 11h18.37.958526 +0530,
