Sl_no,image_path,thisN,thisTrialN,thisRepN,key_resp_5.keys,key_resp_5.rt,key_resp_5.duration,key_resp_7.keys,key_resp_7.rt,key_resp_7.duration,key_resp_9.keys,key_resp_8.keys,key_resp_8.rt,key_resp_8.duration,key_resp_9.rt,key_resp_9.duration,practice.thisRepN,practice.thisTrialN,practice.thisN,trials.thisRepN,trials.thisTrialN,trials.thisN,thisRow.t,notes,welcome_page.started,text.started,key_resp.started,welcome_page.stopped,key_resp.keys,key_resp.rt,key_resp.duration,instructions.started,ins.started,key_resp_2.started,instructions.stopped,key_resp_2.keys,key_resp_2.rt,key_resp_2.duration,instructions_2.started,text_10.started,key_resp_10.started,instructions_2.stopped,key_resp_10.keys,key_resp_10.rt,key_resp_10.duration,objects_only_instruction.started,text_3.started,key_resp_3.started,objects_only_instruction.stopped,key_resp_3.keys,key_resp_3.rt,key_resp_3.duration,ISI.started,text_4.started,ISI.stopped,practice_block.started,image.started,text_5.started,key_resp_5.started,practice_block.stopped,practice.key_resp_5.keys,practice.key_resp_5.rt,practice.key_resp_5.duration,indoor_outdoor.started,indoor_outdoor.stopped,practice.key_resp_7.keys,text_7.started,key_resp_7.started,practice.key_resp_7.rt,practice.key_resp_7.duration,practice_to_main.started,text_2.started,key_resp_4.started,practice_to_main.stopped,key_resp_4.keys,key_resp_4.rt,key_resp_4.duration,objects.started,image_2.started,text_9.started,key_resp_9.started,objects.stopped,trials.key_resp_9.keys,encoding_task.started,text_8.started,key_resp_8.started,encoding_task.stopped,trials.key_resp_8.keys,trials.key_resp_8.rt,trials.key_resp_8.duration,trials.key_resp_9.rt,trials.key_resp_9.duration,text_4.stopped,end_experiment.started,text_6.started,key_resp_6.started,end_experiment.stopped,key_resp_6.keys,key_resp_6.rt,key_resp_6.duration,list_of_stimuli,encoding_task_accuracy,participant,session,date,expName,psychopyVersion,frameRate,expStart,
,,,,,,,,,,,,,,,,,,,,,,,,,0.013237099978141487,0.029905600007623434,0.029905600007623434,24.68521209998289,space,24.596058499999344,None,,,,,,,,,,,,,,,,,,,,,,,,,,,,,,,,,,,,,,,,,,,,,,,,,,,,,,,,,,,,,,,,,,,,,,,,00039,001,2026-01-17_10h46.08.097,MST_task,2024.2.0,59.8120108458913,2026-01-17 10h46.27.936020 +0530,
,,,,,,,,,,,,,,,,,,,,,,,,,,,,,,,,24.68526549998205,24.718147100007627,24.718147100007627,50.24161099997582,space,25.514669199998025,None,,,,,,,,,,,,,,,,,,,,,,,,,,,,,,,,,,,,,,,,,,,,,,,,,,,,,,,,,,,,,,,,,00039,001,2026-01-17_10h46.08.097,MST_task,2024.2.0,59.8120108458913,2026-01-17 10h46.27.936020 +0530,
,,,,,,,,,,,,,,,,,,,,,,,,,,,,,,,,,,,,,,,50.24163849995239,50.2576098999707,50.2576098999707,75.56406089995289,space,25.295878700038884,None,,,,,,,,,,,,,,,,,,,,,,,,,,,,,,,,,,,,,,,,,,,,,,,,,,,,,,,,,,00039,001,2026-01-17_10h46.08.097,MST_task,2024.2.0,59.8120108458913,2026-01-17 10h46.27.936020 +0530,
,,,,,,,,,,,,,,,,,,,,,,,,,,,,,,,,,,,,,,,,,,,,,,75.56409729999723,75.57962029997725,75.57962029997725,96.15228789998218,space,20.566878999990877,None,,,,,,,,,,,,,,,,,,,,,,,,,,,,,,,,,,,,,,,,,,,,,,,,,,,00039,001,2026-01-17_10h46.08.097,MST_task,2024.2.0,59.8120108458913,2026-01-17 10h46.27.936020 +0530,
9,practice_images/180a.jpg,0,0,1,f,2.098771199991461,0.15151890000561252,None,,,,,,,,,1,0,0,,,,96.18575269996654,,,,,,,,,,,,,,,,,,,,,,,,,,,,,,96.1718375000055,96.18575269996654,96.65344859997276,96.66997609997634,96.68689769995399,96.68689769995399,96.68689769995399,99.66393579996657,f,2.098771199991461,0.15151890000561252,99.66521609999472,99.6652339999564,None,,,,,,,,,,,,,,,,,,,,,,,,,,,,,,,,,,,,,00039,001,2026-01-17_10h46.08.097,MST_task,2024.2.0,59.8120108458913,2026-01-17 10h46.27.936020 +0530,
3,practice_images/037a.jpg,1,1,1,f,2.754479299997911,0.18373729998711497,None,,,,,,,,,1,1,1,,,,99.68069929996273,,,,,,,,,,,,,,,,,,,,,,,,,,,,,,99.66530329996021,99.68069929996273,100.16568589996314,100.17400709999492,100.19930290000048,100.19930290000048,100.19930290000048,103.176627799985,f,2.754479299997911,0.18373729998711497,103.17666860000463,103.17668209999101,None,,,,,,,,,,,,,,,,,,,,,,,,,,,,,,,,,,,,,00039,001,2026-01-17_10h46.08.097,MST_task,2024.2.0,59.8120108458913,2026-01-17 10h46.27.936020 +0530,
7,practice_images/166a.jpg,2,2,1,f,2.499484099971596,0.1918314999784343,None,,,,,,,,,1,2,2,,,,103.19294829998398,,,,,,,,,,,,,,,,,,,,,,,,,,,,,,103.17674909997731,103.19294829998398,103.67809760000091,103.68648109998321,103.6941269999952,103.6941269999952,103.6941269999952,106.68893259996548,f,2.499484099971596,0.1918314999784343,106.68897309998283,106.6889860999654,None,,,,,,,,,,,,,,,,,,,,,,,,,,,,,,,,,,,,,00039,001,2026-01-17_10h46.08.097,MST_task,2024.2.0,59.8120108458913,2026-01-17 10h46.27.936020 +0530,
10,practice_images/182a.jpg,3,3,1,f,1.0991404000087641,0.19198770000366494,None,,,,,,,,,1,3,3,,,,106.70519449998392,,,,,,,,,,,,,,,,,,,,,,,,,,,,,,106.68905789998826,106.70519449998392,107.19040739996126,107.19869889999973,107.20622930000536,107.20622930000536,107.20622930000536,110.20110629999544,f,1.0991404000087641,0.19198770000366494,110.20114489999833,110.2011847999529,None,,,,,,,,,,,,,,,,,,,,,,,,,,,,,,,,,,,,,00039,001,2026-01-17_10h46.08.097,MST_task,2024.2.0,59.8120108458913,2026-01-17 10h46.27.936020 +0530,
8,practice_images/178a.jpg,4,4,1,j,1.8264831000124104,0.16826750000473112,None,,,,,,,,,1,4,4,,,,110.21820439997828,,,,,,,,,,,,,,,,,,,,,,,,,,,,,,110.20126149995485,110.21820439997828,110.70286039996427,110.71113640000112,110.7187447999604,110.7187447999604,110.7187447999604,113.71324819995789,j,1.8264831000124104,0.16826750000473112,113.71328769996762,113.71330040000612,None,,,,,,,,,,,,,,,,,,,,,,,,,,,,,,,,,,,,,00039,001,2026-01-17_10h46.08.097,MST_task,2024.2.0,59.8120108458913,2026-01-17 10h46.27.936020 +0530,
2,practice_images/031a.jpg,5,5,1,None,,,j,1.1429980000248179,None,,,,,,,1,5,5,,,,113.72980709996773,,,,,,,,,,,,,,,,,,,,,,,,,,,,,,113.71337399998447,113.72980709996773,114.21526849997463,114.2255650999723,114.2317796999705,114.2317796999705,114.2317796999705,117.22544339997694,None,,,117.22745720000239,118.39684439997654,j,117.24221669998951,117.24221669998951,1.1429980000248179,None,,,,,,,,,,,,,,,,,,,,,,,,,,,,,,,,,00039,001,2026-01-17_10h46.08.097,MST_task,2024.2.0,59.8120108458913,2026-01-17 10h46.27.936020 +0530,
4,practice_images/002b.jpg,6,6,1,j,2.0465612999978475,0.1449556999723427,None,,,,,,,,,1,6,6,,,,118.41298019996611,,,,,,,,,,,,,,,,,,,,,,,,,,,,,,118.39693970000371,118.41298019996611,118.89793999999529,118.90637969999807,118.91407009999966,118.91407009999966,118.91407009999966,121.90848609997192,j,2.0465612999978475,0.1449556999723427,121.90853829996195,121.90856819995679,None,,,,,,,,,,,,,,,,,,,,,,,,,,,,,,,,,,,,,00039,001,2026-01-17_10h46.08.097,MST_task,2024.2.0,59.8120108458913,2026-01-17 10h46.27.936020 +0530,
1,practice_images/013a.jpg,7,7,1,j,2.5429948000237346,0.11110879998886958,None,,,,,,,,,1,7,7,,,,121.92517279996537,,,,,,,,,,,,,,,,,,,,,,,,,,,,,,121.9091409999528,121.92517279996537,122.4102925999905,122.41895899997326,122.42656999995233,122.42656999995233,122.42656999995233,125.42091469996376,j,2.5429948000237346,0.11110879998886958,125.42095529998187,125.42096779996064,None,,,,,,,,,,,,,,,,,,,,,,,,,,,,,,,,,,,,,00039,001,2026-01-17_10h46.08.097,MST_task,2024.2.0,59.8120108458913,2026-01-17 10h46.27.936020 +0530,
5,practice_images/139a.jpg,8,8,1,j,2.253034299996216,0.12732349999714643,None,,,,,,,,,1,8,8,,,,125.43772829999216,,,,,,,,,,,,,,,,,,,,,,,,,,,,,,125.42103919998044,125.43772829999216,125.92310409998754,125.93329029995948,125.95636849995935,125.95636849995935,125.95636849995935,128.93323729996337,j,2.253034299996216,0.12732349999714643,128.93327689997386,128.9332896999549,None,,,,,,,,,,,,,,,,,,,,,,,,,,,,,,,,,,,,,00039,001,2026-01-17_10h46.08.097,MST_task,2024.2.0,59.8120108458913,2026-01-17 10h46.27.936020 +0530,
6,practice_images/158a.jpg,9,9,1,f,1.2544668999616988,0.16818470001453534,None,,,,,,,,,1,9,9,,,,128.9498922000057,,,,,,,,,,,,,,,,,,,,,,,,,,,,,,128.9333582999534,128.9498922000057,129.43487100000493,129.44344389997423,129.45099709997885,129.45099709997885,129.45099709997885,132.44542129995534,f,1.2544668999616988,0.16818470001453534,132.44547479995526,132.44548729999224,None,,,,,,,,,,,,,,,,,,,,,,,,,,,,,,,,,,,,,00039,001,2026-01-17_10h46.08.097,MST_task,2024.2.0,59.8120108458913,2026-01-17 10h46.27.936020 +0530,
,,,,,,,,,,,,,,,,,,,,,,,,,,,,,,,,,,,,,,,,,,,,,,,,,,,,,,,,,,,,,,,,,,,,,,,132.44553299999097,132.46221599995624,132.46221599995624,142.33080729999347,space,9.859554299968295,None,,,,,,,,,,,,,,,,,,,,,,,,,,00039,001,2026-01-17_10h46.08.097,MST_task,2024.2.0,59.8120108458913,2026-01-17 10h46.27.936020 +0530,
,Objects\192a.jpg,0,0,1,,,,,,,None,f,0.45386549999238923,None,,,,,,1,0,0,142.34681929997168,,,,,,,,,,,,,,,,,,,,,,,,,,,,,,142.3315460999729,142.34681929997168,142.83181609999156,,,,,,,,,,,,,,,,,,,,,,,142.85697149997577,142.88278939999873,142.88278939999873,142.88278939999873,145.84244689997286,None,145.84567379998043,145.85898049996467,145.85898049996467,146.3280858999933,f,0.45386549999238923,None,,,,,,,,,,,,,00039,001,2026-01-17_10h46.08.097,MST_task,2024.2.0,59.8120108458913,2026-01-17 10h46.27.936020 +0530,
,Objects\102a.jpg,1,0,2,,,,,,,f,None,,,2.211149300041143,0.1588369999662973,,,,2,0,1,146.34413359995233,,,,,,,,,,,,,,,,,,,,,,,,,,,,,,146.32817729999078,146.34413359995233,146.82910440000705,,,,,,,,,,,,,,,,,,,,,,,146.83895669999765,146.86262699996587,146.86262699996587,146.86262699996587,149.83977510000113,f,149.8398206999991,,,149.83983329997864,None,,,2.211149300041143,0.1588369999662973,,,,,,,,,,,00039,001,2026-01-17_10h46.08.097,MST_task,2024.2.0,59.8120108458913,2026-01-17 10h46.27.936020 +0530,
,Objects\001a.jpg,2,0,3,,,,,,,f,None,,,1.9465518000070006,0.12004909996176139,,,,3,0,2,149.85642589995405,,,,,,,,,,,,,,,,,,,,,,,,,,,,,,149.83990489999996,149.85642589995405,150.34163839998655,,,,,,,,,,,,,,,,,,,,,,,150.35315039998386,150.37480009999126,150.37480009999126,150.37480009999126,153.35198669997044,f,153.35204490000615,,,153.35205739998491,None,,,1.9465518000070006,0.12004909996176139,,,,,,,,,,,00039,001,2026-01-17_10h46.08.097,MST_task,2024.2.0,59.8120108458913,2026-01-17 10h46.27.936020 +0530,
,Objects\123a.jpg,3,0,4,,,,,,,j,None,,,2.577940999995917,0.13698999996995553,,,,4,0,3,153.3687452999875,,,,,,,,,,,,,,,,,,,,,,,,,,,,,,153.35227099998156,153.3687452999875,153.8537204999593,,,,,,,,,,,,,,,,,,,,,,,153.8645155999693,153.88733050000155,153.88733050000155,153.88733050000155,156.86430719995406,j,156.8643660999951,,,156.86437909997767,None,,,2.577940999995917,0.13698999996995553,,,,,,,,,,,00039,001,2026-01-17_10h46.08.097,MST_task,2024.2.0,59.8120108458913,2026-01-17 10h46.27.936020 +0530,
,Objects\002a.jpg,4,0,5,,,,,,,f,None,,,1.410015299974475,0.19129710004199296,,,,5,0,4,156.8811811999767,,,,,,,,,,,,,,,,,,,,,,,,,,,,,,156.86459939996712,156.8811811999767,157.3662173000048,,,,,,,,,,,,,,,,,,,,,,,157.3754356999998,157.3995189999696,157.3995189999696,157.3995189999696,160.3769176999922,f,160.37696199998027,,,160.37697449995903,None,,,1.410015299974475,0.19129710004199296,,,,,,,,,,,00039,001,2026-01-17_10h46.08.097,MST_task,2024.2.0,59.8120108458913,2026-01-17 10h46.27.936020 +0530,
,Objects\091a.jpg,5,0,6,,,,,,,f,None,,,1.6418781999964267,0.16808140004286543,,,,6,0,5,160.3932212999789,,,,,,,,,,,,,,,,,,,,,,,,,,,,,,160.37708949996158,160.3932212999789,160.87843449995853,,,,,,,,,,,,,,,,,,,,,,,160.8896743999794,160.91170449997298,160.91170449997298,160.91170449997298,163.88917909999145,f,163.88937079999596,,,163.889383599977,None,,,1.6418781999964267,0.16808140004286543,,,,,,,,,,,00039,001,2026-01-17_10h46.08.097,MST_task,2024.2.0,59.8120108458913,2026-01-17 10h46.27.936020 +0530,
,Objects\191a.jpg,6,0,7,,,,,,,f,None,,,2.865446100011468,None,,,,7,0,6,163.90553649998037,,,,,,,,,,,,,,,,,,,,,,,,,,,,,,163.88949969998794,163.90553649998037,164.39073889999418,,,,,,,,,,,,,,,,,,,,,,,164.40047609998146,164.42392989998916,164.42392989998916,164.42392989998916,167.4013297999627,f,167.40139879996423,,,167.40141920000315,None,,,2.865446100011468,None,,,,,,,,,,,00039,001,2026-01-17_10h46.08.097,MST_task,2024.2.0,59.8120108458913,2026-01-17 10h46.27.936020 +0530,
,Scenes\085a.jpg,7,0,8,,,,,,,j,None,,,1.6950617000111379,0.13641020003706217,,,,8,0,7,167.41794009995647,,,,,,,,,,,,,,,,,,,,,,,,,,,,,,167.40157579997322,167.41794009995647,167.90309340000385,,,,,,,,,,,,,,,,,,,,,,,167.93882949999534,167.9542064999696,167.9542064999696,167.9542064999696,170.91347359999781,j,170.91552749997936,,,170.9155436999863,None,,,1.6950617000111379,0.13641020003706217,,,,,,,,,,,00039,001,2026-01-17_10h46.08.097,MST_task,2024.2.0,59.8120108458913,2026-01-17 10h46.27.936020 +0530,
,Scenes\053a.jpg,8,0,9,,,,,,,j,None,,,1.4330995000200346,0.14252910000504926,,,,9,0,8,170.93025939998915,,,,,,,,,,,,,,,,,,,,,,,,,,,,,,170.9156507999869,170.93025939998915,171.41578759998083,,,,,,,,,,,,,,,,,,,,,,,171.43476979999105,171.44942620000802,171.44942620000802,171.44942620000802,174.42576610000106,j,174.42585120000876,,,174.4258661000058,None,,,1.4330995000200346,0.14252910000504926,171.44942620000802,,,,,,,,,,00039,001,2026-01-17_10h46.08.097,MST_task,2024.2.0,59.8120108458913,2026-01-17 10h46.27.936020 +0530,
,Scenes\015a.jpg,9,0,10,,,,,,,j,None,,,1.278959599963855,0.12870360002852976,,,,10,0,9,174.4425532000023,,,,,,,,,,,,,,,,,,,,,,,,,,,,,,174.42628079996211,174.4425532000023,174.92766819999088,,,,,,,,,,,,,,,,,,,,,,,174.95825019996846,174.97857889998704,174.97857889998704,174.97857889998704,177.9380714999861,j,177.93811619997723,,,177.93812899995828,None,,,1.278959599963855,0.12870360002852976,,,,,,,,,,,00039,001,2026-01-17_10h46.08.097,MST_task,2024.2.0,59.8120108458913,2026-01-17 10h46.27.936020 +0530,
,Scenes\105a.jpg,10,0,11,,,,,,,j,None,,,1.4548333000275306,0.12006749998545274,,,,11,0,10,177.95482729998184,,,,,,,,,,,,,,,,,,,,,,,,,,,,,,177.9384292999748,177.95482729998184,178.44038339995313,,,,,,,,,,,,,,,,,,,,,,,178.46666809997987,178.49065019999398,178.49065019999398,178.49065019999398,181.45062419999158,j,181.45067259995267,,,181.45069719996536,None,,,1.4548333000275306,0.12006749998545274,,,,,,,,,,,00039,001,2026-01-17_10h46.08.097,MST_task,2024.2.0,59.8120108458913,2026-01-17 10h46.27.936020 +0530,
,Scenes\137a.jpg,11,0,12,,,,,,,j,None,,,1.3502146999817342,0.1592462999979034,,,,12,0,11,181.46719419996953,,,,,,,,,,,,,,,,,,,,,,,,,,,,,,181.45080210000742,181.46719419996953,181.95239239995135,,,,,,,,,,,,,,,,,,,,,,,181.97508770000422,182.0031556999893,182.0031556999893,182.0031556999893,184.96281719999388,j,184.96287210000446,,,184.96288419998018,None,,,1.3502146999817342,0.1592462999979034,,,,,,,,,,,00039,001,2026-01-17_10h46.08.097,MST_task,2024.2.0,59.8120108458913,2026-01-17 10h46.27.936020 +0530,
,Scenes\171a.jpg,12,0,13,,,,,,,f,None,,,1.750229400000535,0.14416279998840764,,,,13,0,12,184.9796218999545,,,,,,,,,,,,,,,,,,,,,,,,,,,,,,184.96299109997926,184.9796218999545,185.4645976999891,,,,,,,,,,,,,,,,,,,,,,,185.49353219999466,185.51524459995562,185.51524459995562,185.51524459995562,188.47580509999534,f,188.47584989998722,,,188.47586269996827,None,,,1.750229400000535,0.14416279998840764,,,,,,,,,,,00039,001,2026-01-17_10h46.08.097,MST_task,2024.2.0,59.8120108458913,2026-01-17 10h46.27.936020 +0530,
,Scenes\002a.jpg,13,0,14,,,,,,,j,None,,,1.022064600023441,0.1427269999985583,,,,14,0,13,188.4917939999723,,,,,,,,,,,,,,,,,,,,,,,,,,,,,,188.47597249998944,188.4917939999723,188.97787379997317,,,,,,,,,,,,,,,,,,,,,,,189.00740869995207,189.0280708000064,189.0280708000064,189.0280708000064,191.987280500005,j,191.9873298999737,,,191.98734239995247,None,,,1.022064600023441,0.1427269999985583,,,,,,,,,,,00039,001,2026-01-17_10h46.08.097,MST_task,2024.2.0,59.8120108458913,2026-01-17 10h46.27.936020 +0530,
,Objects\108a.jpg,14,0,15,,,,,,,j,None,,,1.708903899998404,0.1284694999922067,,,,15,0,14,192.0040482999757,,,,,,,,,,,,,,,,,,,,,,,,,,,,,,191.98758349998388,192.0040482999757,192.4890313000069,,,,,,,,,,,,,,,,,,,,,,,192.51675189996604,192.5402828999795,192.5402828999795,192.5402828999795,195.49971989996266,j,195.50113769999007,,,195.50115839997306,None,,,1.708903899998404,0.1284694999922067,,,,,,,,,,,00039,001,2026-01-17_10h46.08.097,MST_task,2024.2.0,59.8120108458913,2026-01-17 10h46.27.936020 +0530,
,Objects\178a.jpg,15,0,16,,,,,,,f,None,,,1.2064022999838926,0.16849339997861534,,,,16,0,15,195.51623710000422,,,,,,,,,,,,,,,,,,,,,,,,,,,,,,195.50127349997638,195.51623710000422,196.00156999996398,,,,,,,,,,,,,,,,,,,,,,,196.02545239997562,196.03482549998444,196.03482549998444,196.03482549998444,199.0124150000047,f,199.01246339996578,,,199.01247570000123,None,,,1.2064022999838926,0.16849339997861534,,,,,,,,,,,00039,001,2026-01-17_10h46.08.097,MST_task,2024.2.0,59.8120108458913,2026-01-17 10h46.27.936020 +0530,
,Objects\149a.jpg,16,0,17,,,,,,,j,None,,,2.0791069999686442,0.14295629999833182,,,,17,0,16,199.02853409998352,,,,,,,,,,,,,,,,,,,,,,,,,,,,,,199.01254480000352,199.02853409998352,199.51374759996543,,,,,,,,,,,,,,,,,,,,,,,199.53739169996697,199.54701199999545,199.54701199999545,199.54701199999545,202.5241953000077,j,202.52425139996922,,,202.5242639000062,None,,,2.0791069999686442,0.14295629999833182,,,,,,,,,,,00039,001,2026-01-17_10h46.08.097,MST_task,2024.2.0,59.8120108458913,2026-01-17 10h46.27.936020 +0530,
,Objects\155a.jpg,17,0,18,,,,,,,f,None,,,1.8358605000539683,0.1599294999614358,,,,18,0,17,202.54093949997332,,,,,,,,,,,,,,,,,,,,,,,,,,,,,,202.52465069998289,202.54093949997332,203.02657270000782,,,,,,,,,,,,,,,,,,,,,,,203.0521149999695,203.07688859995687,203.07688859995687,203.07688859995687,206.0365217999788,f,206.036575599981,,,206.03658839996206,None,,,1.8358605000539683,0.1599294999614358,,,,,,,,,,,00039,001,2026-01-17_10h46.08.097,MST_task,2024.2.0,59.8120108458913,2026-01-17 10h46.27.936020 +0530,
,Objects\047a.jpg,18,0,19,,,,,,,f,None,,,1.1259219000348821,0.1519292999873869,,,,19,0,18,206.05326359998435,,,,,,,,,,,,,,,,,,,,,,,,,,,,,,206.03696910000872,206.05326359998435,206.53822459996445,,,,,,,,,,,,,,,,,,,,,,,206.5623056999757,206.5717331999913,206.5717331999913,206.5717331999913,209.54901529999916,f,209.54906549997395,,,209.54909729998326,None,,,1.1259219000348821,0.1519292999873869,,,,,,,,,,,00039,001,2026-01-17_10h46.08.097,MST_task,2024.2.0,59.8120108458913,2026-01-17 10h46.27.936020 +0530,
,Objects\041a.jpg,19,0,20,,,,,,,j,None,,,2.9091188000165857,None,,,,20,0,19,209.5654358000029,,,,,,,,,,,,,,,,,,,,,,,,,,,,,,209.54931619996205,209.5654358000029,210.05093889997806,,,,,,,,,,,,,,,,,,,,,,,210.07407889998285,210.0839134999551,210.0839134999551,210.0839134999551,213.06107860000338,j,213.0611214999808,,,213.06113399995957,None,,,2.9091188000165857,None,,,,,,,,,,,00039,001,2026-01-17_10h46.08.097,MST_task,2024.2.0,59.8120108458913,2026-01-17 10h46.27.936020 +0530,
,Objects\034a.jpg,20,0,21,,,,,,,f,None,,,1.0609472999931313,0.16785590001381934,,,,21,0,20,213.0778505000053,,,,,,,,,,,,,,,,,,,,,,,,,,,,,,213.06123880000087,213.0778505000053,213.56303679995472,,,,,,,,,,,,,,,,,,,,,,,213.5852753999643,213.59650639997562,213.59650639997562,213.59650639997562,216.5736401999602,f,216.57368509995285,,,216.57369749998907,None,,,1.0609472999931313,0.16785590001381934,,,,,,,,,,,00039,001,2026-01-17_10h46.08.097,MST_task,2024.2.0,59.8120108458913,2026-01-17 10h46.27.936020 +0530,
,Scenes\071a.jpg,21,0,22,,,,,,,j,None,,,1.5389213999733329,0.09656590002123266,,,,22,0,21,216.59017809998477,,,,,,,,,,,,,,,,,,,,,,,,,,,,,,216.57380389998434,216.59017809998477,217.07595899997978,,,,,,,,,,,,,,,,,,,,,,,217.10213829996064,217.12583689996973,217.12583689996973,217.12583689996973,220.0854435999645,j,220.08675239997683,,,220.0867719000089,None,,,1.5389213999733329,0.09656590002123266,,,,,,,,,,,00039,001,2026-01-17_10h46.08.097,MST_task,2024.2.0,59.8120108458913,2026-01-17 10h46.27.936020 +0530,
,Scenes\039a.jpg,22,0,23,,,,,,,j,None,,,1.1234809000161476,0.12015610001981258,,,,23,0,22,220.10204279999016,,,,,,,,,,,,,,,,,,,,,,,,,,,,,,220.08684750000248,220.10204279999016,220.5874088999699,,,,,,,,,,,,,,,,,,,,,,,220.60763879999286,220.62130759999854,220.62130759999854,220.62130759999854,223.59784499998204,j,223.59789069998078,,,223.59790339996107,None,,,1.1234809000161476,0.12015610001981258,,,,,,,,,,,00039,001,2026-01-17_10h46.08.097,MST_task,2024.2.0,59.8120108458913,2026-01-17 10h46.27.936020 +0530,
,Scenes\012a.jpg,23,0,24,,,,,,,j,None,,,0.8595965999993496,0.07199899997795,,,,24,0,23,223.61434879997978,,,,,,,,,,,,,,,,,,,,,,,,,,,,,,223.59803259995533,223.61434879997978,224.09955199999968,,,,,,,,,,,,,,,,,,,,,,,224.12648989999434,224.1497173999669,224.1497173999669,224.1497173999669,227.1099716000026,j,227.11002789996564,,,227.1100398999988,None,,,0.8595965999993496,0.07199899997795,,,,,,,,,,,00039,001,2026-01-17_10h46.08.097,MST_task,2024.2.0,59.8120108458913,2026-01-17 10h46.27.936020 +0530,
,Scenes\149a.jpg,24,0,25,,,,,,,f,None,,,1.4752199000213295,0.18491979996906593,,,,25,0,24,227.1268798999954,,,,,,,,,,,,,,,,,,,,,,,,,,,,,,227.11014869995415,227.1268798999954,227.61183169996366,,,,,,,,,,,,,,,,,,,,,,,227.63678050000453,227.66197439999087,227.66197439999087,227.66197439999087,230.62238359998446,f,230.6224579999689,,,230.6224734999705,None,,,1.4752199000213295,0.18491979996906593,,,,,,,,,,,00039,001,2026-01-17_10h46.08.097,MST_task,2024.2.0,59.8120108458913,2026-01-17 10h46.27.936020 +0530,
,Scenes\189a.jpg,25,0,26,,,,,,,j,None,,,0.9712558999890462,0.12901649996638298,,,,26,0,25,230.63908649998484,,,,,,,,,,,,,,,,,,,,,,,,,,,,,,230.6225474999519,230.63908649998484,231.12430520000635,,,,,,,,,,,,,,,,,,,,,,,231.14213150000433,231.1576175999944,231.1576175999944,231.1576175999944,234.13455179997254,j,234.1345984999789,,,234.13461079995614,None,,,0.9712558999890462,0.12901649996638298,,,,,,,,,,,00039,001,2026-01-17_10h46.08.097,MST_task,2024.2.0,59.8120108458913,2026-01-17 10h46.27.936020 +0530,
,Scenes\011a.jpg,26,0,27,,,,,,,j,None,,,2.0185962000396103,0.10296569997444749,,,,27,0,26,234.1513721999945,,,,,,,,,,,,,,,,,,,,,,,,,,,,,,234.13494029996218,234.1513721999945,234.63632819999475,,,,,,,,,,,,,,,,,,,,,,,234.66532079997705,234.68705710000359,234.68705710000359,234.68705710000359,237.646966899978,j,237.64701179997064,,,237.64702479995321,None,,,2.0185962000396103,0.10296569997444749,,,,,,,,,,,00039,001,2026-01-17_10h46.08.097,MST_task,2024.2.0,59.8120108458913,2026-01-17 10h46.27.936020 +0530,
,Scenes\043a.jpg,27,0,28,,,,,,,j,None,,,0.9877468000049703,0.14312090002931654,,,,28,0,27,237.6635460999678,,,,,,,,,,,,,,,,,,,,,,,,,,,,,,237.64715589996194,237.6635460999678,238.14869060000638,,,,,,,,,,,,,,,,,,,,,,,238.17588019999675,238.1988374000066,238.1988374000066,238.1988374000066,241.15915409999434,j,241.15919939999003,,,241.1592115999665,None,,,0.9877468000049703,0.14312090002931654,,,,,,,,,,,00039,001,2026-01-17_10h46.08.097,MST_task,2024.2.0,59.8120108458913,2026-01-17 10h46.27.936020 +0530,
,Objects\151a.jpg,28,0,29,,,,,,,f,None,,,0.8415789999999106,0.1041628000093624,,,,29,0,28,241.17591980000725,,,,,,,,,,,,,,,,,,,,,,,,,,,,,,241.15937269997085,241.17591980000725,241.66094969998812,,,,,,,,,,,,,,,,,,,,,,,241.68561509996653,241.69507379998686,241.69507379998686,241.69507379998686,244.6714299999876,f,244.67311440000776,,,244.67313439998543,None,,,0.8415789999999106,0.1041628000093624,,,,,,,,,,,00039,001,2026-01-17_10h46.08.097,MST_task,2024.2.0,59.8120108458913,2026-01-17 10h46.27.936020 +0530,
,Objects\142a.jpg,29,0,30,,,,,,,f,None,,,0.8344557000091299,0.12808250001398847,,,,30,0,29,244.68827129999408,,,,,,,,,,,,,,,,,,,,,,,,,,,,,,244.67321059998358,244.68827129999408,245.17325130000245,,,,,,,,,,,,,,,,,,,,,,,245.19566709996434,245.2069016000023,245.2069016000023,245.2069016000023,248.1846231999807,f,248.1846796000027,,,248.1846940999967,None,,,0.8344557000091299,0.12808250001398847,,,,,,,,,,,00039,001,2026-01-17_10h46.08.097,MST_task,2024.2.0,59.8120108458913,2026-01-17 10h46.27.936020 +0530,
,Objects\079a.jpg,30,0,31,,,,,,,j,None,,,1.2104447999736294,0.1284826000337489,,,,31,0,30,248.20102039998164,,,,,,,,,,,,,,,,,,,,,,,,,,,,,,248.1848270999617,248.20102039998164,248.68595839996124,,,,,,,,,,,,,,,,,,,,,,,248.70650649996242,248.71889649995137,248.71889649995137,248.71889649995137,251.69665519997943,j,251.69671029999154,,,251.696724599984,None,,,1.2104447999736294,0.1284826000337489,,,,,,,,,,,00039,001,2026-01-17_10h46.08.097,MST_task,2024.2.0,59.8120108458913,2026-01-17 10h46.27.936020 +0530,
,Objects\013a.jpg,31,0,32,,,,,,,f,None,,,1.577882400015369,0.15218929998809472,,,,32,0,31,251.71385080000618,,,,,,,,,,,,,,,,,,,,,,,,,,,,,,251.69684459996643,251.71385080000618,252.1981193999527,,,,,,,,,,,,,,,,,,,,,,,252.21877679997124,252.23118729999987,252.23118729999987,252.23118729999987,255.20862910000142,f,255.2086738999933,,,255.2086862999713,None,,,1.577882400015369,0.15218929998809472,,,,,,,,,,,00039,001,2026-01-17_10h46.08.097,MST_task,2024.2.0,59.8120108458913,2026-01-17 10h46.27.936020 +0530,
,Objects\132a.jpg,32,0,33,,,,,,,f,None,,,0.9138357000192627,0.07216059998609126,,,,33,0,32,255.22505649999948,,,,,,,,,,,,,,,,,,,,,,,,,,,,,,255.20875739998883,255.22505649999948,255.710441800009,,,,,,,,,,,,,,,,,,,,,,,255.73223849997157,255.74395209999057,255.74395209999057,255.74395209999057,258.72095139999874,f,258.72099559998605,,,258.72100849996787,None,,,0.9138357000192627,0.07216059998609126,,,,,,,,,,,00039,001,2026-01-17_10h46.08.097,MST_task,2024.2.0,59.8120108458913,2026-01-17 10h46.27.936020 +0530,
,Objects\128a.jpg,33,0,34,,,,,,,j,None,,,1.4254585999879055,0.11968780000461265,,,,34,0,33,258.7377901999862,,,,,,,,,,,,,,,,,,,,,,,,,,,,,,258.72113759996137,258.7377901999862,259.22259819996543,,,,,,,,,,,,,,,,,,,,,,,259.2436716000084,259.256087799964,259.256087799964,259.256087799964,262.2332165999687,j,262.2332605999545,,,262.2332727999892,None,,,1.4254585999879055,0.11968780000461265,,,,,,,,,,,00039,001,2026-01-17_10h46.08.097,MST_task,2024.2.0,59.8120108458913,2026-01-17 10h46.27.936020 +0530,
,Objects\114a.jpg,34,0,35,,,,,,,f,None,,,0.7129986999789253,0.12899990001460537,,,,35,0,34,262.2497735999641,,,,,,,,,,,,,,,,,,,,,,,,,,,,,,262.23334310000064,262.2497735999641,262.7348688999773,,,,,,,,,,,,,,,,,,,,,,,262.7569935999927,262.76810009998735,262.76810009998735,262.76810009998735,265.7454011999653,f,265.7454691999592,,,265.7454856999684,None,,,0.7129986999789253,0.12899990001460537,,,,,,,,,,,00039,001,2026-01-17_10h46.08.097,MST_task,2024.2.0,59.8120108458913,2026-01-17 10h46.27.936020 +0530,
,Scenes\104a.jpg,35,0,36,,,,,,,j,None,,,2.398779899987858,0.11168580001685768,,,,36,0,35,265.7622386000003,,,,,,,,,,,,,,,,,,,,,,,,,,,,,,265.74557869997807,265.7622386000003,266.24721469997894,,,,,,,,,,,,,,,,,,,,,,,266.2719373999862,266.29876509995665,266.29876509995665,266.29876509995665,269.25782870000694,j,269.25912070000777,,,269.2591407999862,None,,,2.398779899987858,0.11168580001685768,,,,,,,,,,,00039,001,2026-01-17_10h46.08.097,MST_task,2024.2.0,59.8120108458913,2026-01-17 10h46.27.936020 +0530,
,Scenes\131a.jpg,36,0,37,,,,,,,j,None,,,1.1428111999994144,0.10416449996409938,,,,37,0,36,269.2747972999932,,,,,,,,,,,,,,,,,,,,,,,,,,,,,,269.2592128999531,269.2747972999932,269.7605041000061,,,,,,,,,,,,,,,,,,,,,,,269.7833424999844,269.8100594999851,269.8100594999851,269.8100594999851,272.770017599978,j,272.77006359997904,,,272.7700758999563,None,,,1.1428111999994144,0.10416449996409938,,,,,,,,,,,00039,001,2026-01-17_10h46.08.097,MST_task,2024.2.0,59.8120108458913,2026-01-17 10h46.27.936020 +0530,
,Scenes\007a.jpg,37,0,38,,,,,,,f,None,,,1.806366499979049,0.13717850000830367,,,,38,0,37,272.78737909998745,,,,,,,,,,,,,,,,,,,,,,,,,,,,,,272.77017149998574,272.78737909998745,273.27181389997713,,,,,,,,,,,,,,,,,,,,,,,273.2942839000025,273.3063825999852,273.3063825999852,273.3063825999852,276.2826771999826,f,276.28272169997217,,,276.2827342999517,None,,,1.806366499979049,0.13717850000830367,,,,,,,,,,,00039,001,2026-01-17_10h46.08.097,MST_task,2024.2.0,59.8120108458913,2026-01-17 10h46.27.936020 +0530,
,Scenes\022a.jpg,38,0,39,,,,,,,j,None,,,0.9021323999622837,0.08803340001031756,,,,39,0,38,276.2991511999862,,,,,,,,,,,,,,,,,,,,,,,,,,,,,,276.2828046999639,276.2991511999862,276.7839774999884,,,,,,,,,,,,,,,,,,,,,,,276.8022576000076,276.8189524000045,276.8189524000045,276.8189524000045,279.79443660000106,j,279.7944799999823,,,279.7944923999603,None,,,0.9021323999622837,0.08803340001031756,,,,,,,,,,,00039,001,2026-01-17_10h46.08.097,MST_task,2024.2.0,59.8120108458913,2026-01-17 10h46.27.936020 +0530,
,Scenes\094a.jpg,39,0,40,,,,,,,j,None,,,1.8864495999878272,0.11983889999100938,,,,40,0,39,279.8112655999721,,,,,,,,,,,,,,,,,,,,,,,,,,,,,,279.79459629999474,279.8112655999721,280.2964024999528,,,,,,,,,,,,,,,,,,,,,,,280.3239309999626,280.34688849997474,280.34688849997474,280.34688849997474,283.3068620999693,j,283.3070563999936,,,283.3070705999853,None,,,1.8864495999878272,0.11983889999100938,,,,,,,,,,,00039,001,2026-01-17_10h46.08.097,MST_task,2024.2.0,59.8120108458913,2026-01-17 10h46.27.936020 +0530,
,Scenes\121a.jpg,40,0,41,,,,,,,j,None,,,0.8952619999763556,0.08031839999603108,,,,41,0,40,283.3236157000065,,,,,,,,,,,,,,,,,,,,,,,,,,,,,,283.3071415000013,283.3236157000065,283.80865719995927,,,,,,,,,,,,,,,,,,,,,,,283.8236024999642,283.84201299998676,283.84201299998676,283.84201299998676,286.8191789999837,j,286.8192237999756,,,286.81923599995207,None,,,0.8952619999763556,0.08031839999603108,,,,,,,,,,,00039,001,2026-01-17_10h46.08.097,MST_task,2024.2.0,59.8120108458913,2026-01-17 10h46.27.936020 +0530,
,Scenes\001a.jpg,41,0,42,,,,,,,f,None,,,1.0689618000178598,0.12813979998463765,,,,42,0,41,286.8359257999691,,,,,,,,,,,,,,,,,,,,,,,,,,,,,,286.8193428000086,286.8359257999691,287.32115499995416,,,,,,,,,,,,,,,,,,,,,,,287.3545489999815,287.37205399997765,287.37205399997765,287.37205399997765,290.33136640000157,f,290.3314107999904,,,290.33142339996994,None,,,1.0689618000178598,0.12813979998463765,,,,,,,,,,,00039,001,2026-01-17_10h46.08.097,MST_task,2024.2.0,59.8120108458913,2026-01-17 10h46.27.936020 +0530,
,Objects\085a.jpg,42,0,43,,,,,,,j,None,,,1.5429419999709353,0.11097749997861683,,,,43,0,42,290.348171599966,,,,,,,,,,,,,,,,,,,,,,,,,,,,,,290.3318144999794,290.348171599966,290.8331918999902,,,,,,,,,,,,,,,,,,,,,,,290.8583327999804,290.8672108000028,290.8672108000028,290.8672108000028,293.8436542999698,j,293.8450899999589,,,293.84510949999094,None,,,1.5429419999709353,0.11097749997861683,,,,,,,,,,,00039,001,2026-01-17_10h46.08.097,MST_task,2024.2.0,59.8120108458913,2026-01-17 10h46.27.936020 +0530,
,Objects\010a.jpg,43,0,44,,,,,,,f,None,,,0.8781215000199154,0.13530819996958598,,,,44,0,43,293.86047549999785,,,,,,,,,,,,,,,,,,,,,,,,,,,,,,293.84522309998283,293.86047549999785,294.3454432999715,,,,,,,,,,,,,,,,,,,,,,,294.36933709995355,294.3791285000043,294.3791285000043,294.3791285000043,297.35610299999826,f,297.3561582999537,,,297.3561703999876,None,,,0.8781215000199154,0.13530819996958598,,,,,,,,,,,00039,001,2026-01-17_10h46.08.097,MST_task,2024.2.0,59.8120108458913,2026-01-17 10h46.27.936020 +0530,
,Objects\020a.jpg,44,0,45,,,,,,,f,None,,,1.4298423999571241,0.12059060001047328,,,,45,0,44,297.3728012999636,,,,,,,,,,,,,,,,,,,,,,,,,,,,,,297.35624369996367,297.3728012999636,297.8578738999786,,,,,,,,,,,,,,,,,,,,,,,297.8784850999946,297.8911054999917,297.8911054999917,297.8911054999917,300.86833709996426,f,300.8683817999554,,,300.8683943999931,None,,,1.4298423999571241,0.12059060001047328,,,,,,,,,,,00039,001,2026-01-17_10h46.08.097,MST_task,2024.2.0,59.8120108458913,2026-01-17 10h46.27.936020 +0530,
,Objects\125a.jpg,45,0,46,,,,,,,j,None,,,1.517716200032737,0.12023890001000836,,,,46,0,45,300.88509120000526,,,,,,,,,,,,,,,,,,,,,,,,,,,,,,300.8685043999576,300.88509120000526,301.3700517999823,,,,,,,,,,,,,,,,,,,,,,,301.3906904999749,301.40353690000484,301.40353690000484,301.40353690000484,304.3805602999637,j,304.3806035000016,,,304.3806153999758,None,,,1.517716200032737,0.12023890001000836,,,,,,,,,,,00039,001,2026-01-17_10h46.08.097,MST_task,2024.2.0,59.8120108458913,2026-01-17 10h46.27.936020 +0530,
,Objects\028a.jpg,46,0,47,,,,,,,j,None,,,1.7328304999973625,0.11244190001161769,,,,47,0,46,304.3974949999829,,,,,,,,,,,,,,,,,,,,,,,,,,,,,,304.38072259997716,304.3974949999829,304.88241129997186,,,,,,,,,,,,,,,,,,,,,,,304.9028732999577,304.9158386999625,304.9158386999625,304.9158386999625,307.8930632999982,j,307.8932839999907,,,307.8933019999531,None,,,1.7328304999973625,0.11244190001161769,,,,,,,,,,,00039,001,2026-01-17_10h46.08.097,MST_task,2024.2.0,59.8120108458913,2026-01-17 10h46.27.936020 +0530,
,Objects\053a.jpg,47,0,48,,,,,,,None,f,1.7639439000049606,None,,,,,,48,0,47,307.9095748999971,,,,,,,,,,,,,,,,,,,,,,,,,,,,,,307.89344319998054,307.9095748999971,308.3952533999691,,,,,,,,,,,,,,,,,,,,,,,308.4194718999788,308.4280109999818,308.4280109999818,308.4280109999818,311.40515730000334,None,311.40519739995943,311.4219892999972,311.4219892999972,313.1954354000045,f,1.7639439000049606,None,,,,,,,,,,,,,00039,001,2026-01-17_10h46.08.097,MST_task,2024.2.0,59.8120108458913,2026-01-17 10h46.27.936020 +0530,
,Objects\018a.jpg,48,0,49,,,,,,,j,None,,,2.4473666999838315,0.11204559996258467,,,,49,0,48,313.21146129997214,,,,,,,,,,,,,,,,,,,,,,,,,,,,,,313.19556520000333,313.21146129997214,313.6968213999644,,,,,,,,,,,,,,,,,,,,,,,313.71924919995945,313.7301768999896,313.7301768999896,313.7301768999896,316.7070726999664,j,316.7071180999628,,,316.70713100000285,None,,,2.4473666999838315,0.11204559996258467,,,,,,,,,,,00039,001,2026-01-17_10h46.08.097,MST_task,2024.2.0,59.8120108458913,2026-01-17 10h46.27.936020 +0530,
,Scenes\115a.jpg,49,0,50,,,,,,,j,None,,,1.1647820000071079,0.12056780001148582,,,,50,0,49,316.72388349997345,,,,,,,,,,,,,,,,,,,,,,,,,,,,,,316.7072032999713,316.72388349997345,317.2088508000015,,,,,,,,,,,,,,,,,,,,,,,317.2340440999833,317.25983639998594,317.25983639998594,317.25983639998594,320.21936689998256,j,320.2207439999911,,,320.22076329996344,None,,,1.1647820000071079,0.12056780001148582,,,,,,,,,,,00039,001,2026-01-17_10h46.08.097,MST_task,2024.2.0,59.8120108458913,2026-01-17 10h46.27.936020 +0530,
,Scenes\118a.jpg,50,0,51,,,,,,,j,None,,,1.9428229999612086,0.10360189998755231,,,,51,0,50,320.2363875999581,,,,,,,,,,,,,,,,,,,,,,,,,,,,,,320.2208349999855,320.2363875999581,320.72115860000486,,,,,,,,,,,,,,,,,,,,,,,320.74367659998825,320.7544916999759,320.7544916999759,320.7544916999759,323.7318372000009,j,323.7319080999587,,,323.7319209999987,None,,,1.9428229999612086,0.10360189998755231,,,,,,,,,,,00039,001,2026-01-17_10h46.08.097,MST_task,2024.2.0,59.8120108458913,2026-01-17 10h46.27.936020 +0530,
,Scenes\134a.jpg,51,0,52,,,,,,,j,None,,,1.5495582000003196,0.11129010003060102,,,,52,0,51,323.7486174000078,,,,,,,,,,,,,,,,,,,,,,,,,,,,,,323.73205329995835,323.7486174000078,324.2335594999604,,,,,,,,,,,,,,,,,,,,,,,324.2593518999638,324.2843081000028,324.2843081000028,324.2843081000028,327.2440805999795,j,327.2441247999668,,,327.2441378000076,None,,,1.5495582000003196,0.11129010003060102,,,,,,,,,,,00039,001,2026-01-17_10h46.08.097,MST_task,2024.2.0,59.8120108458913,2026-01-17 10h46.27.936020 +0530,
,Scenes\144a.jpg,52,0,53,,,,,,,j,None,,,1.2132692000013776,0.14340719999745488,,,,53,0,52,327.2606620999868,,,,,,,,,,,,,,,,,,,,,,,,,,,,,,327.24425769998925,327.2606620999868,327.74586769996677,,,,,,,,,,,,,,,,,,,,,,,327.76949149998836,327.7959476999822,327.7959476999822,327.7959476999822,330.756275599997,j,330.7563654999831,,,330.7563817999908,None,,,1.2132692000013776,0.14340719999745488,,,,,,,,,,,00039,001,2026-01-17_10h46.08.097,MST_task,2024.2.0,59.8120108458913,2026-01-17 10h46.27.936020 +0530,
,Scenes\025a.jpg,53,0,54,,,,,,,j,None,,,1.093110300018452,0.10355090000666678,,,,54,0,53,330.7730853999965,,,,,,,,,,,,,,,,,,,,,,,,,,,,,,330.7564932999667,330.7730853999965,331.2580603999668,,,,,,,,,,,,,,,,,,,,,,,331.2899768999778,331.3085820999695,331.3085820999695,331.3085820999695,334.2686810999876,j,334.26873039995553,,,334.2687436999986,None,,,1.093110300018452,0.10355090000666678,,,,,,,,,,,00039,001,2026-01-17_10h46.08.097,MST_task,2024.2.0,59.8120108458913,2026-01-17 10h46.27.936020 +0530,
,Scenes\066a.jpg,54,0,55,,,,,,,j,None,,,0.788492200023029,0.08802939997985959,,,,55,0,54,334.2852746999706,,,,,,,,,,,,,,,,,,,,,,,,,,,,,,334.26881619996857,334.2852746999706,334.7704781999928,,,,,,,,,,,,,,,,,,,,,,,334.79703189997235,334.80462919996353,334.80462919996353,334.80462919996353,337.7808579999837,j,337.7809133999981,,,337.78092649998143,None,,,0.788492200023029,0.08802939997985959,,,,,,,,,,,00039,001,2026-01-17_10h46.08.097,MST_task,2024.2.0,59.8120108458913,2026-01-17 10h46.27.936020 +0530,
,Scenes\178a.jpg,55,0,56,,,,,,,j,None,,,0.756973100011237,0.1278431999962777,,,,56,0,55,337.79773879999993,,,,,,,,,,,,,,,,,,,,,,,,,,,,,,337.781295599998,337.79773879999993,338.28272409999045,,,,,,,,,,,,,,,,,,,,,,,338.30424500000663,338.31661519996123,338.31661519996123,338.31661519996123,341.2932748000021,j,341.2933185999864,,,341.29333129996667,None,,,0.756973100011237,0.1278431999962777,,,,,,,,,,,00039,001,2026-01-17_10h46.08.097,MST_task,2024.2.0,59.8120108458913,2026-01-17 10h46.27.936020 +0530,
,Objects\005a.jpg,56,0,57,,,,,,,f,None,,,2.462261100008618,0.11799589998554438,,,,57,0,56,341.3100154999993,,,,,,,,,,,,,,,,,,,,,,,,,,,,,,341.2934538999689,341.3100154999993,341.79510960000334,,,,,,,,,,,,,,,,,,,,,,,341.81912429997465,341.8284344999702,341.8284344999702,341.8284344999702,344.80556760000763,f,344.8074438999756,,,344.8074597999803,None,,,2.462261100008618,0.11799589998554438,,,,,,,,,,,00039,001,2026-01-17_10h46.08.097,MST_task,2024.2.0,59.8120108458913,2026-01-17 10h46.27.936020 +0530,
,Objects\184a.jpg,57,0,58,,,,,,,j,None,,,0.8364409999921918,0.11202130001038313,,,,58,0,57,344.82217539998237,,,,,,,,,,,,,,,,,,,,,,,,,,,,,,344.8075654999702,344.82217539998237,345.3076030999655,,,,,,,,,,,,,,,,,,,,,,,345.33097629999975,345.34102859999985,345.34102859999985,345.34102859999985,348.31782810000004,j,348.3178759999573,,,348.3178886999958,None,,,0.8364409999921918,0.11202130001038313,345.34102859999985,,,,,,,,,,00039,001,2026-01-17_10h46.08.097,MST_task,2024.2.0,59.8120108458913,2026-01-17 10h46.27.936020 +0530,
,Objects\161a.jpg,58,0,59,,,,,,,f,None,,,0.8199740999843925,0.12100560002727434,,,,59,0,58,348.3346009000088,,,,,,,,,,,,,,,,,,,,,,,,,,,,,,348.3179978999542,348.3346009000088,348.8195540999877,,,,,,,,,,,,,,,,,,,,,,,348.84220289997756,348.85302549996413,348.85302549996413,348.85302549996413,351.83016389998375,f,351.83020969998324,,,351.83022209996125,None,,,0.8199740999843925,0.12100560002727434,,,,,,,,,,,00039,001,2026-01-17_10h46.08.097,MST_task,2024.2.0,59.8120108458913,2026-01-17 10h46.27.936020 +0530,
,Objects\050a.jpg,59,0,60,,,,,,,f,None,,,0.9081743999850005,0.11971140000969172,,,,60,0,59,351.84675989998505,,,,,,,,,,,,,,,,,,,,,,,,,,,,,,351.8302915999666,351.84675989998505,352.33198319998337,,,,,,,,,,,,,,,,,,,,,,,352.3546777999727,352.3651960999705,352.3651960999705,352.3651960999705,355.3425473999814,f,355.34259359998396,,,355.342606399965,None,,,0.9081743999850005,0.11971140000969172,,,,,,,,,,,00039,001,2026-01-17_10h46.08.097,MST_task,2024.2.0,59.8120108458913,2026-01-17 10h46.27.936020 +0530,
,Objects\121a.jpg,60,0,61,,,,,,,f,None,,,0.6680248999618925,0.17560300003970042,,,,61,0,60,355.35906849999446,,,,,,,,,,,,,,,,,,,,,,,,,,,,,,355.3427116999519,355.35906849999446,355.84428309998475,,,,,,,,,,,,,,,,,,,,,,,355.86582919996,355.8775272999774,355.8775272999774,355.8775272999774,358.85471669997787,f,358.85476379998727,,,358.8547766999691,None,,,0.6680248999618925,0.17560300003970042,,,,,,,,,,,00039,001,2026-01-17_10h46.08.097,MST_task,2024.2.0,59.8120108458913,2026-01-17 10h46.27.936020 +0530,
,Objects\062a.jpg,61,0,62,,,,,,,j,None,,,1.5712200999842025,0.11102399998344481,,,,62,0,61,358.8714839000022,,,,,,,,,,,,,,,,,,,,,,,,,,,,,,358.8551254000049,358.8714839000022,359.35666859999765,,,,,,,,,,,,,,,,,,,,,,,359.37829319998855,359.39060439995956,359.39060439995956,359.39060439995956,362.36707429995295,j,362.3671357999556,,,362.3671481999918,None,,,1.5712200999842025,0.11102399998344481,,,,,,,,,,,00039,001,2026-01-17_10h46.08.097,MST_task,2024.2.0,59.8120108458913,2026-01-17 10h46.27.936020 +0530,
,Objects\092a.jpg,62,0,63,,,,,,,f,None,,,0.9798539000330493,0.14338849997147918,,,,63,0,62,362.38365889998386,,,,,,,,,,,,,,,,,,,,,,,,,,,,,,362.3672263000044,362.38365889998386,362.86907869996503,,,,,,,,,,,,,,,,,,,,,,,362.8904016999877,362.9023240999668,362.9023240999668,362.9023240999668,365.8793328999891,f,365.87937699997565,,,365.87938919995213,None,,,0.9798539000330493,0.14338849997147918,,,,,,,,,,,00039,001,2026-01-17_10h46.08.097,MST_task,2024.2.0,59.8120108458913,2026-01-17 10h46.27.936020 +0530,
,Scenes\008a.jpg,63,0,64,,,,,,,f,None,,,2.730034100008197,0.11137860000599176,,,,64,0,63,365.89608320000116,,,,,,,,,,,,,,,,,,,,,,,,,,,,,,365.8794956000056,365.89608320000116,366.3810901999823,,,,,,,,,,,,,,,,,,,,,,,366.40614739997545,366.4319997999701,366.4319997999701,366.4319997999701,369.39155649999157,f,369.393648999976,,,369.3936716999742,None,,,2.730034100008197,0.11137860000599176,,,,,,,,,,,00039,001,2026-01-17_10h46.08.097,MST_task,2024.2.0,59.8120108458913,2026-01-17 10h46.27.936020 +0530,
,Scenes\128a.jpg,64,0,65,,,,,,,j,None,,,1.2331957000424154,0.10353879997273907,,,,65,0,64,369.40838119998807,,,,,,,,,,,,,,,,,,,,,,,,,,,,,,369.3937472999678,369.40838119998807,369.8937525000074,,,,,,,,,,,,,,,,,,,,,,,369.92227099998854,369.94462749996455,369.94462749996455,369.94462749996455,372.90384419995826,j,372.90388739999617,,,372.90389959997265,None,,,1.2331957000424154,0.10353879997273907,369.94462749996455,,,,,,,,,,00039,001,2026-01-17_10h46.08.097,MST_task,2024.2.0,59.8120108458913,2026-01-17 10h46.27.936020 +0530,
,Scenes\187a.jpg,65,0,66,,,,,,,j,None,,,1.0097994999960065,0.12738680001348257,,,,66,0,65,372.920822999964,,,,,,,,,,,,,,,,,,,,,,,,,,,,,,372.90405720000854,372.920822999964,373.4057635999634,,,,,,,,,,,,,,,,,,,,,,,373.4295426000026,373.45574129995657,373.45574129995657,373.45574129995657,376.41627409996,j,376.41631609998876,,,376.416328399966,None,,,1.0097994999960065,0.12738680001348257,,,,,,,,,,,00039,001,2026-01-17_10h46.08.097,MST_task,2024.2.0,59.8120108458913,2026-01-17 10h46.27.936020 +0530,
,Scenes\058a.jpg,66,0,67,,,,,,,f,None,,,1.473821899970062,0.15916979999747127,,,,67,0,66,376.4328550999635,,,,,,,,,,,,,,,,,,,,,,,,,,,,,,376.4164044999634,376.4328550999635,376.9182775999652,,,,,,,,,,,,,,,,,,,,,,,376.94307649997063,376.9681628999533,376.9681628999533,376.9681628999533,379.92843559995526,f,379.9284977999632,,,379.9285103000002,None,,,1.473821899970062,0.15916979999747127,,,,,,,,,,,00039,001,2026-01-17_10h46.08.097,MST_task,2024.2.0,59.8120108458913,2026-01-17 10h46.27.936020 +0530,
,Scenes\050a.jpg,67,0,68,,,,,,,j,None,,,0.7782418000278994,0.10311149997869506,,,,68,0,67,379.9454387999722,,,,,,,,,,,,,,,,,,,,,,,,,,,,,,379.9289037999697,379.9454387999722,380.43027109996183,,,,,,,,,,,,,,,,,,,,,,,380.45162419998087,380.46360789996106,380.46360789996106,380.46360789996106,383.4407666999614,j,383.4408102000016,,,383.44082349998644,None,,,0.7782418000278994,0.10311149997869506,,,,,,,,,,,00039,001,2026-01-17_10h46.08.097,MST_task,2024.2.0,59.8120108458913,2026-01-17 10h46.27.936020 +0530,
,Scenes\166a.jpg,68,0,69,,,,,,,j,None,,,0.7929955000290647,0.13703619997249916,,,,69,0,68,383.45759329997236,,,,,,,,,,,,,,,,,,,,,,,,,,,,,,383.44108709995635,383.45759329997236,383.9425720999716,,,,,,,,,,,,,,,,,,,,,,,383.96133530000225,383.97591399995144,383.97591399995144,383.97591399995144,386.9530587999616,j,386.95310129999416,,,386.9531137999729,None,,,0.7929955000290647,0.13703619997249916,,,,,,,,,,,00039,001,2026-01-17_10h46.08.097,MST_task,2024.2.0,59.8120108458913,2026-01-17 10h46.27.936020 +0530,
,Scenes\136a.jpg,69,0,70,,,,,,,f,None,,,2.3300140999490395,0.17524230002891272,,,,70,0,69,386.96988749998854,,,,,,,,,,,,,,,,,,,,,,,,,,,,,,386.95318439998664,386.96988749998854,387.45490339997923,,,,,,,,,,,,,,,,,,,,,,,387.4785007999744,387.488369699975,387.488369699975,387.488369699975,390.4655247000046,f,390.46557709999615,,,390.46559029998025,None,,,2.3300140999490395,0.17524230002891272,,,,,,,,,,,00039,001,2026-01-17_10h46.08.097,MST_task,2024.2.0,59.8120108458913,2026-01-17 10h46.27.936020 +0530,
,Objects\069a.jpg,70,0,71,,,,,,,j,None,,,1.3833808999625035,0.10478110000258312,,,,71,0,70,390.4820883999928,,,,,,,,,,,,,,,,,,,,,,,,,,,,,,390.46575739997206,390.4820883999928,390.96765700000105,,,,,,,,,,,,,,,,,,,,,,,390.9935648999526,391.0012227999978,391.0012227999978,391.0012227999978,393.9777720999555,j,393.97930539998924,,,393.9793238999555,None,,,1.3833808999625035,0.10478110000258312,,,,,,,,,,,00039,001,2026-01-17_10h46.08.097,MST_task,2024.2.0,59.8120108458913,2026-01-17 10h46.27.936020 +0530,
,Objects\156a.jpg,71,0,72,,,,,,,f,None,,,1.1213921000016853,0.1345444999751635,,,,72,0,71,393.99455730000045,,,,,,,,,,,,,,,,,,,,,,,,,,,,,,393.9794518999988,393.99455730000045,394.47968569997465,,,,,,,,,,,,,,,,,,,,,,,394.50208549998933,394.5129507999518,394.5129507999518,394.5129507999518,397.4900348999654,f,397.4900775999995,,,397.49009009997826,None,,,1.1213921000016853,0.1345444999751635,,,,,,,,,,,00039,001,2026-01-17_10h46.08.097,MST_task,2024.2.0,59.8120108458913,2026-01-17 10h46.27.936020 +0530,
,Objects\106a.jpg,72,0,73,,,,,,,f,None,,,2.2086094000260346,0.15275329997530207,,,,73,0,72,397.50679919996765,,,,,,,,,,,,,,,,,,,,,,,,,,,,,,397.4901590999798,397.50679919996765,397.99193229997763,,,,,,,,,,,,,,,,,,,,,,,398.01471570000285,398.0252291999641,398.0252291999641,398.0252291999641,401.0028142000083,f,401.00286399998004,,,401.0028785999748,None,,,2.2086094000260346,0.15275329997530207,,,,,,,,,,,00039,001,2026-01-17_10h46.08.097,MST_task,2024.2.0,59.8120108458913,2026-01-17 10h46.27.936020 +0530,
,Objects\131a.jpg,73,0,74,,,,,,,None,f,0.5105149000301026,None,,,,,,74,0,73,401.01898619998246,,,,,,,,,,,,,,,,,,,,,,,,,,,,,,401.00300289998995,401.01898619998246,401.50415759999305,,,,,,,,,,,,,,,,,,,,,,,401.52595059998566,401.53754240000853,401.53754240000853,401.53754240000853,404.51461809995817,None,404.5146735999733,404.5313917999738,404.5313917999738,405.0505145000061,f,0.5105149000301026,None,,,,,,,,,,,,,00039,001,2026-01-17_10h46.08.097,MST_task,2024.2.0,59.8120108458913,2026-01-17 10h46.27.936020 +0530,
,Objects\140a.jpg,74,0,75,,,,,,,f,None,,,1.4560191000346094,0.07220619998406619,,,,75,0,74,405.06673989997944,,,,,,,,,,,,,,,,,,,,,,,,,,,,,,405.05060550000053,405.06673989997944,405.55170710000675,,,,,,,,,,,,,,,,,,,,,,,405.57251470000483,405.58511489996454,405.58511489996454,405.58511489996454,408.56222979997983,f,408.56227299995953,,,408.5622854999965,None,,,1.4560191000346094,0.07220619998406619,,,,,,,,,,,00039,001,2026-01-17_10h46.08.097,MST_task,2024.2.0,59.8120108458913,2026-01-17 10h46.27.936020 +0530,
,Objects\063a.jpg,75,0,76,,,,,,,f,None,,,1.0083314999938011,0.1349741000449285,,,,76,0,75,408.57890279998537,,,,,,,,,,,,,,,,,,,,,,,,,,,,,,408.56250239996007,408.57890279998537,409.0638818999869,,,,,,,,,,,,,,,,,,,,,,,409.0862390999682,409.0973447999568,409.0973447999568,409.0973447999568,412.074504899967,f,412.0745493999566,,,412.07456169999205,None,,,1.0083314999938011,0.1349741000449285,,,,,,,,,,,00039,001,2026-01-17_10h46.08.097,MST_task,2024.2.0,59.8120108458913,2026-01-17 10h46.27.936020 +0530,
,Objects\073a.jpg,76,0,77,,,,,,,f,None,,,2.9198204000131227,None,,,,77,0,76,412.09107589995256,,,,,,,,,,,,,,,,,,,,,,,,,,,,,,412.0746864999528,412.09107589995256,412.5762686000089,,,,,,,,,,,,,,,,,,,,,,,412.59587969997665,412.6095231999643,412.6095231999643,412.6095231999643,415.58667679998325,f,415.58671999996295,,,415.5867324999999,None,,,2.9198204000131227,None,,,,,,,,,,,00039,001,2026-01-17_10h46.08.097,MST_task,2024.2.0,59.8120108458913,2026-01-17 10h46.27.936020 +0530,
,Scenes\163a.jpg,77,0,78,,,,,,,j,None,,,1.6231493999948725,0.12833060004049912,,,,78,0,77,415.60349789995234,,,,,,,,,,,,,,,,,,,,,,,,,,,,,,415.58698799996637,415.60349789995234,416.0885272999876,,,,,,,,,,,,,,,,,,,,,,,416.1109432000085,416.12183570000343,416.12183570000343,416.12183570000343,419.0990097000031,j,419.1009725999902,,,419.10099109995645,None,,,1.6231493999948725,0.12833060004049912,,,,,,,,,,,00039,001,2026-01-17_10h46.08.097,MST_task,2024.2.0,59.8120108458913,2026-01-17 10h46.27.936020 +0530,
,Scenes\165a.jpg,78,0,79,,,,,,,None,f,0.9570093000074849,None,,,,,,79,0,78,419.11591930000577,,,,,,,,,,,,,,,,,,,,,,,,,,,,,,419.10110239998903,419.11591930000577,419.6012752999668,,,,,,,,,,,,,,,,,,,,,,,419.6280356000061,419.6508380000014,419.6508380000014,419.6508380000014,422.61141799995676,None,422.6114605999901,422.62811049999436,422.62811049999436,423.5987281999551,f,0.9570093000074849,None,,,419.6508380000014,,,,,,,,,,00039,001,2026-01-17_10h46.08.097,MST_task,2024.2.0,59.8120108458913,2026-01-17 10h46.27.936020 +0530,
,Scenes\186a.jpg,79,0,80,,,,,,,j,None,,,2.0910085999639705,0.11239280004519969,,,,80,0,79,423.61500940000406,,,,,,,,,,,,,,,,,,,,,,,,,,,,,,423.5988199999556,423.61500940000406,424.0998781999806,,,,,,,,,,,,,,,,,,,,,,,424.1213800999685,424.13440899999114,424.13440899999114,424.13440899999114,427.11033339996357,j,427.1103915999993,,,427.1104038999765,None,,,2.0910085999639705,0.11239280004519969,,,,,,,,,,,00039,001,2026-01-17_10h46.08.097,MST_task,2024.2.0,59.8120108458913,2026-01-17 10h46.27.936020 +0530,
,Scenes\034a.jpg,80,0,81,,,,,,,f,None,,,1.4254817999899387,0.15995549998478964,,,,81,0,80,427.12729430000763,,,,,,,,,,,,,,,,,,,,,,,,,,,,,,427.11047259997576,427.12729430000763,427.6121509000077,,,,,,,,,,,,,,,,,,,,,,,427.64674609998474,427.66343879996566,427.66343879996566,427.66343879996566,430.6228817999945,f,430.62292589998106,,,430.6229379999568,None,,,1.4254817999899387,0.15995549998478964,,,,,,,,,,,00039,001,2026-01-17_10h46.08.097,MST_task,2024.2.0,59.8120108458913,2026-01-17 10h46.27.936020 +0530,
,Scenes\146a.jpg,81,0,82,,,,,,,j,None,,,0.8250587999937125,0.11179739999352023,,,,82,0,81,430.6393695999868,,,,,,,,,,,,,,,,,,,,,,,,,,,,,,430.6230613999651,430.6393695999868,431.12460039998405,,,,,,,,,,,,,,,,,,,,,,,431.1510353999911,431.17569339997135,431.17569339997135,431.17569339997135,434.13499940000474,j,434.13505579996854,,,434.13506770000095,None,,,0.8250587999937125,0.11179739999352023,,,,,,,,,,,00039,001,2026-01-17_10h46.08.097,MST_task,2024.2.0,59.8120108458913,2026-01-17 10h46.27.936020 +0530,
,Scenes\169a.jpg,82,0,83,,,,,,,j,None,,,0.7867671999847516,0.10509750002529472,,,,83,0,82,434.1517889999668,,,,,,,,,,,,,,,,,,,,,,,,,,,,,,434.13517839997075,434.1517889999668,434.63675979996333,,,,,,,,,,,,,,,,,,,,,,,434.6589316999889,434.67010309995385,434.67010309995385,434.67010309995385,437.64724849996855,j,437.647291900008,,,437.6473044999875,None,,,0.7867671999847516,0.10509750002529472,,,,,,,,,,,00039,001,2026-01-17_10h46.08.097,MST_task,2024.2.0,59.8120108458913,2026-01-17 10h46.27.936020 +0530,
,Scenes\154a.jpg,83,0,84,,,,,,,j,None,,,1.7627387000247836,0.1039454999845475,,,,84,0,83,437.6640820999746,,,,,,,,,,,,,,,,,,,,,,,,,,,,,,437.64737429999514,437.6640820999746,438.1490540999803,,,,,,,,,,,,,,,,,,,,,,,438.1615215999773,438.1825251999544,438.1825251999544,438.1825251999544,441.15991519996896,j,441.1599598999601,,,441.15997219999554,None,,,1.7627387000247836,0.1039454999845475,,,,,,,,,,,00039,001,2026-01-17_10h46.08.097,MST_task,2024.2.0,59.8120108458913,2026-01-17 10h46.27.936020 +0530,
,Objects\117a.jpg,84,0,85,,,,,,,f,None,,,1.8654538000118919,0.13585700001567602,,,,85,0,84,441.17628789995797,,,,,,,,,,,,,,,,,,,,,,,,,,,,,,441.1600955000031,441.17628789995797,441.6616428999696,,,,,,,,,,,,,,,,,,,,,,,441.6854154999601,441.6960313000018,441.6960313000018,441.6960313000018,444.6720756999566,f,444.67367950000335,,,444.6736961999559,None,,,1.8654538000118919,0.13585700001567602,,,,,,,,,,,00039,001,2026-01-17_10h46.08.097,MST_task,2024.2.0,59.8120108458913,2026-01-17 10h46.27.936020 +0530,
,Objects\176a.jpg,85,0,86,,,,,,,j,None,,,2.2583689999883063,0.11231210001278669,,,,86,0,85,444.688680799969,,,,,,,,,,,,,,,,,,,,,,,,,,,,,,444.67376739997417,444.688680799969,445.1739375999896,,,,,,,,,,,,,,,,,,,,,,,445.1969720000052,445.20712549996097,445.20712549996097,445.20712549996097,448.1846539999824,j,448.1846974999644,,,448.18470979999984,None,,,2.2583689999883063,0.11231210001278669,445.20712549996097,,,,,,,,,,00039,001,2026-01-17_10h46.08.097,MST_task,2024.2.0,59.8120108458913,2026-01-17 10h46.27.936020 +0530,
,Objects\152a.jpg,86,0,87,,,,,,,f,None,,,0.8822607000474818,0.08760099997743964,,,,87,0,86,448.2008691999945,,,,,,,,,,,,,,,,,,,,,,,,,,,,,,448.1848312999937,448.2008691999945,448.68606729997555,,,,,,,,,,,,,,,,,,,,,,,448.70983359997626,448.7194535000017,448.7194535000017,448.7194535000017,451.6964286000002,f,451.69647089997306,,,451.6964832000085,None,,,0.8822607000474818,0.08760099997743964,,,,,,,,,,,00039,001,2026-01-17_10h46.08.097,MST_task,2024.2.0,59.8120108458913,2026-01-17 10h46.27.936020 +0530,
,Objects\133a.jpg,87,0,88,,,,,,,j,None,,,1.7211580000002868,0.11995149997528642,,,,88,0,87,451.71328889997676,,,,,,,,,,,,,,,,,,,,,,,,,,,,,,451.6967367999605,451.71328889997676,452.19824060000246,,,,,,,,,,,,,,,,,,,,,,,452.2216116999625,452.2319164999644,452.2319164999644,452.2319164999644,455.2088694999693,j,455.2089144999627,,,455.2089274000027,None,,,1.7211580000002868,0.11995149997528642,,,,,,,,,,,00039,001,2026-01-17_10h46.08.097,MST_task,2024.2.0,59.8120108458913,2026-01-17 10h46.27.936020 +0530,
,Objects\007a.jpg,88,0,89,,,,,,,j,None,,,1.3052649999735877,0.12089870002819225,,,,89,0,88,455.2254920999985,,,,,,,,,,,,,,,,,,,,,,,,,,,,,,455.2089992999681,455.2254920999985,455.71091229998274,,,,,,,,,,,,,,,,,,,,,,,455.7340404999559,455.74390239996137,455.74390239996137,455.74390239996137,458.72105980000924,j,458.72110319999047,,,458.7211149999639,None,,,1.3052649999735877,0.12089870002819225,,,,,,,,,,,00039,001,2026-01-17_10h46.08.097,MST_task,2024.2.0,59.8120108458913,2026-01-17 10h46.27.936020 +0530,
,Objects\051a.jpg,89,0,90,,,,,,,j,None,,,1.7775166999781504,0.11949599999934435,,,,90,0,89,458.7378855999559,,,,,,,,,,,,,,,,,,,,,,,,,,,,,,458.7211853999761,458.7378855999559,459.22295109997503,,,,,,,,,,,,,,,,,,,,,,,459.24437410000246,459.2563178999699,459.2563178999699,459.2563178999699,462.2336577999522,j,462.2337023,,,462.23371459997725,None,,,1.7775166999781504,0.11949599999934435,,,,,,,,,,,00039,001,2026-01-17_10h46.08.097,MST_task,2024.2.0,59.8120108458913,2026-01-17 10h46.27.936020 +0530,
,Objects\025a.jpg,90,0,91,,,,,,,j,None,,,0.9923435000237077,0.13617120002163574,,,,91,0,90,462.2500710999593,,,,,,,,,,,,,,,,,,,,,,,,,,,,,,462.2337832999765,462.2500710999593,462.73586719995365,,,,,,,,,,,,,,,,,,,,,,,462.75749389996054,462.7685245999601,462.7685245999601,462.7685245999601,465.74565900000744,j,465.7457099999883,,,465.7457452999661,None,,,0.9923435000237077,0.13617120002163574,,,,,,,,,,,00039,001,2026-01-17_10h46.08.097,MST_task,2024.2.0,59.8120108458913,2026-01-17 10h46.27.936020 +0530,
,Scenes\061a.jpg,91,0,92,,,,,,,j,None,,,2.2225289000198245,0.12050879996968433,,,,92,0,91,465.76248809997924,,,,,,,,,,,,,,,,,,,,,,,,,,,,,,465.74585770000704,465.76248809997924,466.2474336999585,,,,,,,,,,,,,,,,,,,,,,,466.27406189998146,466.2984968999517,466.2984968999517,466.2984968999517,469.2579055999522,j,469.25935819995357,,,469.2593790999963,None,,,2.2225289000198245,0.12050879996968433,,,,,,,,,,,00039,001,2026-01-17_10h46.08.097,MST_task,2024.2.0,59.8120108458913,2026-01-17 10h46.27.936020 +0530,
,Scenes\183a.jpg,92,0,93,,,,,,,f,None,,,1.734815800038632,0.1274095000117086,,,,93,0,92,469.27497569995467,,,,,,,,,,,,,,,,,,,,,,,,,,,,,,469.2594948000042,469.27497569995467,469.7597393000033,,,,,,,,,,,,,,,,,,,,,,,469.784542599984,469.81086279999,469.81086279999,469.81086279999,472.7704265000066,f,472.770473499957,,,472.77048659999855,None,,,1.734815800038632,0.1274095000117086,,,,,,,,,,,00039,001,2026-01-17_10h46.08.097,MST_task,2024.2.0,59.8120108458913,2026-01-17 10h46.27.936020 +0530,
,Scenes\116a.jpg,93,0,94,,,,,,,j,None,,,0.7753871999448165,0.09618630004115403,,,,94,0,93,472.78709090000484,,,,,,,,,,,,,,,,,,,,,,,,,,,,,,472.77087549999123,472.78709090000484,473.2720633999561,,,,,,,,,,,,,,,,,,,,,,,473.2924907999695,473.305733199988,473.305733199988,473.305733199988,476.2827238999889,j,476.2827679999755,,,476.2827802999527,None,,,0.7753871999448165,0.09618630004115403,,,,,,,,,,,00039,001,2026-01-17_10h46.08.097,MST_task,2024.2.0,59.8120108458913,2026-01-17 10h46.27.936020 +0530,
,Scenes\035a.jpg,94,0,95,,,,,,,None,j,1.3892896000179462,None,,,,,,95,0,94,476.2998710999964,,,,,,,,,,,,,,,,,,,,,,,,,,,,,,476.2832378000021,476.2998710999964,476.7845210999949,,,,,,,,,,,,,,,,,,,,,,,476.81050429999596,476.8345912999939,476.8345912999939,476.8345912999939,479.79490599996643,None,479.7949481999967,479.81167119997554,479.81167119997554,481.216993799957,j,1.3892896000179462,None,,,,,,,,,,,,,00039,001,2026-01-17_10h46.08.097,MST_task,2024.2.0,59.8120108458913,2026-01-17 10h46.27.936020 +0530,
,Scenes\067a.jpg,95,0,96,,,,,,,f,None,,,2.3774163000052795,0.1370372999808751,,,,96,0,95,481.23322349996306,,,,,,,,,,,,,,,,,,,,,,,,,,,,,,481.2171409999719,481.23322349996306,481.7184058999992,,,,,,,,,,,,,,,,,,,,,,,481.74211599997943,481.7512496999698,481.7512496999698,481.7512496999698,484.7290361999767,f,484.7290808999678,,,484.72909399995115,None,,,2.3774163000052795,0.1370372999808751,,,,,,,,,,,00039,001,2026-01-17_10h46.08.097,MST_task,2024.2.0,59.8120108458913,2026-01-17 10h46.27.936020 +0530,
,Scenes\119a.jpg,96,0,97,,,,,,,j,None,,,0.6956196000101045,0.1285735000274144,,,,97,0,96,484.7456401999807,,,,,,,,,,,,,,,,,,,,,,,,,,,,,,484.72922280000057,484.7456401999807,485.2308231999632,,,,,,,,,,,,,,,,,,,,,,,485.25550269999076,485.28162550000707,485.28162550000707,485.28162550000707,488.24109500000486,j,488.24113819998456,,,488.2411504999618,None,,,0.6956196000101045,0.1285735000274144,,,,,,,,,,,00039,001,2026-01-17_10h46.08.097,MST_task,2024.2.0,59.8120108458913,2026-01-17 10h46.27.936020 +0530,
,Scenes\080a.jpg,97,0,98,,,,,,,j,None,,,1.8557437999988906,0.11986769997747615,,,,98,0,97,488.257935600006,,,,,,,,,,,,,,,,,,,,,,,,,,,,,,488.24142879998544,488.257935600006,488.7429493999807,,,,,,,,,,,,,,,,,,,,,,,488.76715259999037,488.79296759999124,488.79296759999124,488.79296759999124,491.75351439998485,j,491.75371409999207,,,491.7537269999739,None,,,1.8557437999988906,0.11986769997747615,,,,,,,,,,,00039,001,2026-01-17_10h46.08.097,MST_task,2024.2.0,59.8120108458913,2026-01-17 10h46.27.936020 +0530,
,Objects\060a.jpg,98,0,99,,,,,,,f,None,,,1.9847044000052847,0.11954719998175278,,,,99,0,98,491.7701124000014,,,,,,,,,,,,,,,,,,,,,,,,,,,,,,491.75384889997076,491.7701124000014,492.25531929999124,,,,,,,,,,,,,,,,,,,,,,,492.2820734999841,492.2885299999616,492.2885299999616,492.2885299999616,495.26604239997687,f,495.26746289996663,,,495.2674823999987,None,,,1.9847044000052847,0.11954719998175278,,,,,,,,,,,00039,001,2026-01-17_10h46.08.097,MST_task,2024.2.0,59.8120108458913,2026-01-17 10h46.27.936020 +0530,
,Objects\145a.jpg,99,0,100,,,,,,,f,None,,,1.3681771999690682,0.10432440001750365,,,,100,0,99,495.28258769999957,,,,,,,,,,,,,,,,,,,,,,,,,,,,,,495.2675592000014,495.28258769999957,495.76771849999204,,,,,,,,,,,,,,,,,,,,,,,495.7906652999809,495.8010498000076,495.8010498000076,495.8010498000076,498.77829240000574,f,498.77833609998925,,,498.7783490999718,None,,,1.3681771999690682,0.10432440001750365,,,,,,,,,,,00039,001,2026-01-17_10h46.08.097,MST_task,2024.2.0,59.8120108458913,2026-01-17 10h46.27.936020 +0530,
,Objects\027a.jpg,100,0,101,,,,,,,f,None,,,0.623917699966114,0.10387230000924319,,,,101,0,100,498.7947029999923,,,,,,,,,,,,,,,,,,,,,,,,,,,,,,498.7784714999725,498.7947029999923,499.27990500000305,,,,,,,,,,,,,,,,,,,,,,,499.30091049999464,499.3132246999885,499.3132246999885,499.3132246999885,502.29028409998864,f,502.2903396000038,,,502.29035209998256,None,,,0.623917699966114,0.10387230000924319,,,,,,,,,,,00039,001,2026-01-17_10h46.08.097,MST_task,2024.2.0,59.8120108458913,2026-01-17 10h46.27.936020 +0530,
,Objects\076a.jpg,101,0,102,,,,,,,f,None,,,0.8795051000197418,0.11302460002480075,,,,102,0,101,502.30712399998447,,,,,,,,,,,,,,,,,,,,,,,,,,,,,,502.29042149998713,502.30712399998447,502.79207729996415,,,,,,,,,,,,,,,,,,,,,,,502.8162269999739,502.8257395999972,502.8257395999972,502.8257395999972,505.8028771999525,f,505.8029214999988,,,505.8029340999783,None,,,0.8795051000197418,0.11302460002480075,,,,,,,,,,,00039,001,2026-01-17_10h46.08.097,MST_task,2024.2.0,59.8120108458913,2026-01-17 10h46.27.936020 +0530,
,Objects\088a.jpg,102,0,103,,,,,,,f,None,,,1.2389788000145927,0.15271900000516325,,,,103,0,102,505.8193021999905,,,,,,,,,,,,,,,,,,,,,,,,,,,,,,505.8030499999877,505.8193021999905,506.30455949995667,,,,,,,,,,,,,,,,,,,,,,,506.3263586999965,506.3378636999987,506.3378636999987,506.3378636999987,509.314886499953,f,509.31495669996366,,,509.31497299997136,None,,,1.2389788000145927,0.15271900000516325,,,,,,,,,,,00039,001,2026-01-17_10h46.08.097,MST_task,2024.2.0,59.8120108458913,2026-01-17 10h46.27.936020 +0530,
,Objects\045a.jpg,103,0,104,,,,,,,j,None,,,0.6237904999870807,0.11101729999063537,,,,104,0,103,509.3317222999758,,,,,,,,,,,,,,,,,,,,,,,,,,,,,,509.31508400000166,509.3317222999758,509.81668170000194,,,,,,,,,,,,,,,,,,,,,,,509.8377413999988,509.85015959996963,509.85015959996963,509.85015959996963,512.8273231000057,j,512.8273795999703,,,512.8274081999552,None,,,0.6237904999870807,0.11101729999063537,,,,,,,,,,,00039,001,2026-01-17_10h46.08.097,MST_task,2024.2.0,59.8120108458913,2026-01-17 10h46.27.936020 +0530,
,Objects\130a.jpg,104,0,105,,,,,,,f,None,,,1.2459035000065342,0.12858020002022386,,,,105,0,104,512.8440400999971,,,,,,,,,,,,,,,,,,,,,,,,,,,,,,512.8275350999902,512.8440400999971,513.3289815000026,,,,,,,,,,,,,,,,,,,,,,,513.3506177999661,513.3627345999703,513.3627345999703,513.3627345999703,516.3396081999526,f,516.3396505999845,,,516.339663199964,None,,,1.2459035000065342,0.12858020002022386,,,,,,,,,,,00039,001,2026-01-17_10h46.08.097,MST_task,2024.2.0,59.8120108458913,2026-01-17 10h46.27.936020 +0530,
,Scenes\075a.jpg,105,0,106,,,,,,,j,None,,,0.9269909000140615,0.1103175999596715,,,,106,0,105,516.3563563000062,,,,,,,,,,,,,,,,,,,,,,,,,,,,,,516.3397332999739,516.3563563000062,516.841411500005,,,,,,,,,,,,,,,,,,,,,,,516.8653597999946,516.8913633999764,516.8913633999764,516.8913633999764,519.8520363999996,j,519.8533231999609,,,519.8533418999868,None,,,0.9269909000140615,0.1103175999596715,,,,,,,,,,,00039,001,2026-01-17_10h46.08.097,MST_task,2024.2.0,59.8120108458913,2026-01-17 10h46.27.936020 +0530,
,Scenes\044a.jpg,106,0,107,,,,,,,j,None,,,1.8216293000150472,0.11249080003472045,,,,107,0,106,519.868509699998,,,,,,,,,,,,,,,,,,,,,,,,,,,,,,519.8534737000009,519.868509699998,520.3538887999603,,,,,,,,,,,,,,,,,,,,,,,520.3669537999667,520.3869429999613,520.3869429999613,520.3869429999613,523.3641525999992,j,523.364196599985,,,523.364208999963,None,,,1.8216293000150472,0.11249080003472045,,,,,,,,,,,00039,001,2026-01-17_10h46.08.097,MST_task,2024.2.0,59.8120108458913,2026-01-17 10h46.27.936020 +0530,
,Scenes\181a.jpg,107,0,108,,,,,,,f,None,,,1.532913599978201,0.10419630003161728,,,,108,0,107,523.3810451999889,,,,,,,,,,,,,,,,,,,,,,,,,,,,,,523.3642926999601,523.3810451999889,523.8664950999664,,,,,,,,,,,,,,,,,,,,,,,523.8938129000016,523.9160308999708,523.9160308999708,523.9160308999708,526.8766849999665,f,526.8767298999592,,,526.8767424999969,None,,,1.532913599978201,0.10419630003161728,,,,,,,,,,,00039,001,2026-01-17_10h46.08.097,MST_task,2024.2.0,59.8120108458913,2026-01-17 10h46.27.936020 +0530,
,Scenes\090a.jpg,108,0,109,,,,,,,j,None,,,1.1887101999600418,0.12809230003040284,,,,109,0,108,526.8932691999944,,,,,,,,,,,,,,,,,,,,,,,,,,,,,,526.8768145999638,526.8932691999944,527.3783042999567,,,,,,,,,,,,,,,,,,,,,,,527.4060483999783,527.4283848999767,527.4283848999767,527.4283848999767,530.3889456999605,j,530.3889904999523,,,530.3890032999916,None,,,1.1887101999600418,0.12809230003040284,,,,,,,,,,,00039,001,2026-01-17_10h46.08.097,MST_task,2024.2.0,59.8120108458913,2026-01-17 10h46.27.936020 +0530,
,Scenes\155a.jpg,109,0,110,,,,,,,j,None,,,0.8362962999963202,0.11313670000527054,,,,110,0,109,530.4061104999855,,,,,,,,,,,,,,,,,,,,,,,,,,,,,,530.3891117000021,530.4061104999855,530.8906113999547,,,,,,,,,,,,,,,,,,,,,,,530.9162482999964,530.9407018999918,530.9407018999918,530.9407018999918,533.9009859999642,j,533.901045400009,,,533.9010582999908,None,,,0.8362962999963202,0.11313670000527054,,,,,,,,,,,00039,001,2026-01-17_10h46.08.097,MST_task,2024.2.0,59.8120108458913,2026-01-17 10h46.27.936020 +0530,
,Scenes\046a.jpg,110,0,111,,,,,,,j,None,,,0.9638321999809705,0.09537699999054894,,,,111,0,110,533.9179097999586,,,,,,,,,,,,,,,,,,,,,,,,,,,,,,533.901183000009,533.9179097999586,534.4029056999716,,,,,,,,,,,,,,,,,,,,,,,534.4348683999851,534.4535239999532,534.4535239999532,534.4535239999532,537.4135153999669,j,537.4138233999838,,,537.4138374999748,None,,,0.9638321999809705,0.09537699999054894,,,,,,,,,,,00039,001,2026-01-17_10h46.08.097,MST_task,2024.2.0,59.8120108458913,2026-01-17 10h46.27.936020 +0530,
,Scenes\031a.jpg,111,0,112,,,,,,,None,f,0.15499149996321648,None,,,,,,112,0,111,537.4299949999549,,,,,,,,,,,,,,,,,,,,,,,,,,,,,,537.4139629999991,537.4299949999549,537.9152083999943,,,,,,,,,,,,,,,,,,,,,,,537.9406965000089,537.9652822999633,537.9652822999633,537.9652822999633,540.9255931999651,None,540.9256316999672,540.942410699965,540.942410699965,541.110124800005,f,0.15499149996321648,None,,,,,,,,,,,,,00039,001,2026-01-17_10h46.08.097,MST_task,2024.2.0,59.8120108458913,2026-01-17 10h46.27.936020 +0530,
,Objects\154a.jpg,112,0,113,,,,,,,j,None,,,1.196546200022567,0.11882309999782592,,,,113,0,112,541.1262767000007,,,,,,,,,,,,,,,,,,,,,,,,,,,,,,541.1102576999692,541.1262767000007,541.6116673999932,,,,,,,,,,,,,,,,,,,,,,,541.63676329999,541.6456714999513,541.6456714999513,541.6456714999513,544.6220708999899,j,544.6238735999796,,,544.6238927000086,None,,,1.196546200022567,0.11882309999782592,,,,,,,,,,,00039,001,2026-01-17_10h46.08.097,MST_task,2024.2.0,59.8120108458913,2026-01-17 10h46.27.936020 +0530,
,Objects\089a.jpg,113,0,114,,,,,,,j,None,,,1.3800905999960378,0.09538670000620186,,,,114,0,113,544.6387176999706,,,,,,,,,,,,,,,,,,,,,,,,,,,,,,544.6240049999906,544.6387176999706,545.1241057000007,,,,,,,,,,,,,,,,,,,,,,,545.1467643000069,545.157020499988,545.157020499988,545.157020499988,548.1343322999892,j,548.134406099969,,,548.1344213999691,None,,,1.3800905999960378,0.09538670000620186,545.157020499988,,,,,,,,,,00039,001,2026-01-17_10h46.08.097,MST_task,2024.2.0,59.8120108458913,2026-01-17 10h46.27.936020 +0530,
,Objects\119a.jpg,114,0,115,,,,,,,f,None,,,1.131914500030689,0.11122690001502633,,,,115,0,114,548.1510019999696,,,,,,,,,,,,,,,,,,,,,,,,,,,,,,548.1345425999607,548.1510019999696,548.6360116999713,,,,,,,,,,,,,,,,,,,,,,,548.6597111999872,548.6698023999925,548.6698023999925,548.6698023999925,551.6464561999892,f,551.6465046000085,,,551.6465173999895,None,,,1.131914500030689,0.11122690001502633,,,,,,,,,,,00039,001,2026-01-17_10h46.08.097,MST_task,2024.2.0,59.8120108458913,2026-01-17 10h46.27.936020 +0530,
,Objects\055a.jpg,115,0,116,,,,,,,f,None,,,0.6348658000351861,0.11304369999561459,,,,116,0,115,551.6632943999721,,,,,,,,,,,,,,,,,,,,,,,,,,,,,,551.6466237999848,551.6632943999721,552.148268799996,,,,,,,,,,,,,,,,,,,,,,,552.1718266999815,552.181742899993,552.181742899993,552.181742899993,555.1588858999894,f,555.1589305999805,,,555.1589426999562,None,,,0.6348658000351861,0.11304369999561459,,,,,,,,,,,00039,001,2026-01-17_10h46.08.097,MST_task,2024.2.0,59.8120108458913,2026-01-17 10h46.27.936020 +0530,
,Objects\003a.jpg,116,0,117,,,,,,,f,None,,,0.5229150000377558,0.11999569996260107,,,,117,0,116,555.175463099964,,,,,,,,,,,,,,,,,,,,,,,,,,,,,,555.1590185999521,555.175463099964,555.6606873999699,,,,,,,,,,,,,,,,,,,,,,,555.6846691999817,555.6943734999513,555.6943734999513,555.6943734999513,558.671283099975,f,558.6713431999669,,,558.6713564000092,None,,,0.5229150000377558,0.11999569996260107,,,,,,,,,,,00039,001,2026-01-17_10h46.08.097,MST_task,2024.2.0,59.8120108458913,2026-01-17 10h46.27.936020 +0530,
,Objects\141a.jpg,117,0,118,,,,,,,j,None,,,1.0669560999958776,0.12702569999964908,,,,118,0,117,558.6883592999657,,,,,,,,,,,,,,,,,,,,,,,,,,,,,,558.6714304999914,558.6883592999657,559.1730761000072,,,,,,,,,,,,,,,,,,,,,,,559.196178299957,559.2068234999897,559.2068234999897,559.2068234999897,562.1842805999913,j,562.1843252999824,,,562.184337899962,None,,,1.0669560999958776,0.12702569999964908,,,,,,,,,,,00039,001,2026-01-17_10h46.08.097,MST_task,2024.2.0,59.8120108458913,2026-01-17 10h46.27.936020 +0530,
,Objects\165a.jpg,118,0,119,,,,,,,f,None,,,2.466722099983599,0.11968920001527295,,,,119,0,118,562.200069799961,,,,,,,,,,,,,,,,,,,,,,,,,,,,,,562.1844085999765,562.200069799961,562.6854856999707,,,,,,,,,,,,,,,,,,,,,,,562.7060999999521,562.7186489999876,562.7186489999876,562.7186489999876,565.6957761999802,f,565.6958360999706,,,565.695849199954,None,,,2.466722099983599,0.11968920001527295,,,,,,,,,,,00039,001,2026-01-17_10h46.08.097,MST_task,2024.2.0,59.8120108458913,2026-01-17 10h46.27.936020 +0530,
,Scenes\157a.jpg,119,0,120,,,,,,,j,None,,,0.6085320999845862,0.10419149999506772,,,,120,0,119,565.71245739999,,,,,,,,,,,,,,,,,,,,,,,,,,,,,,565.6959637999535,565.71245739999,566.1980852999841,,,,,,,,,,,,,,,,,,,,,,,566.2221694999607,566.2484747999697,566.2484747999697,566.2484747999697,569.208077999996,j,569.2095363999833,,,569.2095554999541,None,,,0.6085320999845862,0.10419149999506772,,,,,,,,,,,00039,001,2026-01-17_10h46.08.097,MST_task,2024.2.0,59.8120108458913,2026-01-17 10h46.27.936020 +0530,
,Scenes\082a.jpg,120,0,121,,,,,,,j,None,,,1.1048885000054725,0.12696719996165484,,,,121,0,120,569.2246720999829,,,,,,,,,,,,,,,,,,,,,,,,,,,,,,569.2100826999522,569.2246720999829,569.7098720999784,,,,,,,,,,,,,,,,,,,,,,,569.7365790999611,569.7607065999764,569.7607065999764,569.7607065999764,572.7202955999528,j,572.7203422999592,,,572.7203548999969,None,,,1.1048885000054725,0.12696719996165484,,,,,,,,,,,00039,001,2026-01-17_10h46.08.097,MST_task,2024.2.0,59.8120108458913,2026-01-17 10h46.27.936020 +0530,
,Scenes\070a.jpg,121,0,122,,,,,,,f,None,,,1.545774900005199,0.12863110000034794,,,,122,0,121,572.7370994999656,,,,,,,,,,,,,,,,,,,,,,,,,,,,,,572.7206298999954,572.7370994999656,573.22220129997,,,,,,,,,,,,,,,,,,,,,,,573.2415774999536,573.2553975000046,573.2553975000046,573.2553975000046,576.2328134999843,f,576.2329237999511,,,576.2329367999919,None,,,1.545774900005199,0.12863110000034794,,,,,,,,,,,00039,001,2026-01-17_10h46.08.097,MST_task,2024.2.0,59.8120108458913,2026-01-17 10h46.27.936020 +0530,
,Scenes\014a.jpg,122,0,123,,,,,,,j,None,,,0.6878631000290625,0.14413450000574812,,,,123,0,122,576.2495606999728,,,,,,,,,,,,,,,,,,,,,,,,,,,,,,576.2330447999993,576.2495606999728,576.734524599975,,,,,,,,,,,,,,,,,,,,,,,576.7592782999855,576.7689038999961,576.7689038999961,576.7689038999961,579.745005099976,j,579.7450477999519,,,579.7450595999835,None,,,0.6878631000290625,0.14413450000574812,,,,,,,,,,,00039,001,2026-01-17_10h46.08.097,MST_task,2024.2.0,59.8120108458913,2026-01-17 10h46.27.936020 +0530,
,Scenes\016a.jpg,123,0,124,,,,,,,j,None,,,0.752545099996496,0.08832450001500547,,,,124,0,123,579.7618449999718,,,,,,,,,,,,,,,,,,,,,,,,,,,,,,579.7451290999888,579.7618449999718,580.2468377999612,,,,,,,,,,,,,,,,,,,,,,,580.2684409999638,580.2802966999589,580.2802966999589,580.2802966999589,583.2576215000008,j,583.2576745999977,,,583.2576874999795,None,,,0.752545099996496,0.08832450001500547,,,,,,,,,,,00039,001,2026-01-17_10h46.08.097,MST_task,2024.2.0,59.8120108458913,2026-01-17 10h46.27.936020 +0530,
,Scenes\041a.jpg,124,0,125,,,,,,,j,None,,,0.792053000011947,0.06348449998768046,,,,125,0,124,583.2740421000053,,,,,,,,,,,,,,,,,,,,,,,,,,,,,,583.257797600003,583.2740421000053,583.7592584999511,,,,,,,,,,,,,,,,,,,,,,,583.783382900001,583.8092053,583.8092053,583.8092053,586.769570000004,j,586.769613899989,,,586.7696260999655,None,,,0.792053000011947,0.06348449998768046,,,,,,,,,,,00039,001,2026-01-17_10h46.08.097,MST_task,2024.2.0,59.8120108458913,2026-01-17 10h46.27.936020 +0530,
,Scenes\160a.jpg,125,0,126,,,,,,,j,None,,,0.8484895000001416,0.12769110000226647,,,,126,0,125,586.786296599952,,,,,,,,,,,,,,,,,,,,,,,,,,,,,,586.769696399977,586.786296599952,587.2717917999835,,,,,,,,,,,,,,,,,,,,,,,587.2934700999758,587.3044881999958,587.3044881999958,587.3044881999958,590.2820391999558,j,590.2821166999638,,,590.2821301000076,None,,,0.8484895000001416,0.12769110000226647,,,,,,,,,,,00039,001,2026-01-17_10h46.08.097,MST_task,2024.2.0,59.8120108458913,2026-01-17 10h46.27.936020 +0530,
,Objects\093a.jpg,126,0,127,,,,,,,f,None,,,1.0073967999778688,0.23985210002865642,,,,127,0,126,590.2984889000072,,,,,,,,,,,,,,,,,,,,,,,,,,,,,,590.2822504999931,590.2984889000072,590.7838390999823,,,,,,,,,,,,,,,,,,,,,,,590.8073676999775,590.818014599965,590.818014599965,590.818014599965,593.7946433000034,f,593.7965187999653,,,593.7965398000088,None,,,1.0073967999778688,0.23985210002865642,,,,,,,,,,,00039,001,2026-01-17_10h46.08.097,MST_task,2024.2.0,59.8120108458913,2026-01-17 10h46.27.936020 +0530,
,Objects\137a.jpg,127,0,128,,,,,,,None,f,1.694053300016094,None,,,,,,128,0,127,593.8110419999575,,,,,,,,,,,,,,,,,,,,,,,,,,,,,,593.796624999959,593.8110419999575,594.2963365999749,,,,,,,,,,,,,,,,,,,,,,,594.3182364999666,594.3292027999996,594.3292027999996,594.3292027999996,597.3063436999801,None,597.3063833999913,597.3231763999793,597.3231763999793,599.0296731999842,f,1.694053300016094,None,,,594.3292027999996,,,,,,,,,,00039,001,2026-01-17_10h46.08.097,MST_task,2024.2.0,59.8120108458913,2026-01-17 10h46.27.936020 +0530,
,Objects\150a.jpg,128,0,129,,,,,,,f,None,,,0.996635299990885,0.09652520000236109,,,,129,0,128,599.045756699983,,,,,,,,,,,,,,,,,,,,,,,,,,,,,,599.0297709999722,599.045756699983,599.5309880999848,,,,,,,,,,,,,,,,,,,,,,,599.5546896999585,599.5642623999738,599.5642623999738,599.5642623999738,602.541473899968,f,602.5415195999667,,,602.541532400006,None,,,0.996635299990885,0.09652520000236109,,,,,,,,,,,00039,001,2026-01-17_10h46.08.097,MST_task,2024.2.0,59.8120108458913,2026-01-17 10h46.27.936020 +0530,
,Objects\129a.jpg,129,0,130,,,,,,,f,None,,,0.9081129999831319,0.1361872000270523,,,,130,0,129,602.5580820000032,,,,,,,,,,,,,,,,,,,,,,,,,,,,,,602.5416412999621,602.5580820000032,603.043382200005,,,,,,,,,,,,,,,,,,,,,,,603.0637200999772,603.0765091999783,603.0765091999783,603.0765091999783,606.0536564000067,f,606.0536990999826,,,606.0537111999583,None,,,0.9081129999831319,0.1361872000270523,,,,,,,,,,,00039,001,2026-01-17_10h46.08.097,MST_task,2024.2.0,59.8120108458913,2026-01-17 10h46.27.936020 +0530,
,Objects\029a.jpg,130,0,131,,,,,,,f,None,,,0.8928897999576293,0.11914980004075915,,,,131,0,130,606.0704902999569,,,,,,,,,,,,,,,,,,,,,,,,,,,,,,606.0542567999801,606.0704902999569,606.5554396999651,,,,,,,,,,,,,,,,,,,,,,,606.5785635999637,606.5889234999777,606.5889234999777,606.5889234999777,609.5662002000026,f,609.5663679999998,,,609.5663842000067,None,,,0.8928897999576293,0.11914980004075915,,,,,,,,,,,00039,001,2026-01-17_10h46.08.097,MST_task,2024.2.0,59.8120108458913,2026-01-17 10h46.27.936020 +0530,
,Objects\030a.jpg,131,0,132,,,,,,,f,None,,,0.9559981999918818,0.12890529999276623,,,,132,0,131,609.582798599964,,,,,,,,,,,,,,,,,,,,,,,,,,,,,,609.5665336999809,609.582798599964,610.0679145999602,,,,,,,,,,,,,,,,,,,,,,,610.0892913999851,610.1011866999906,610.1011866999906,610.1011866999906,613.078276699991,f,613.0783594999812,,,613.0783721999614,None,,,0.9559981999918818,0.12890529999276623,,,,,,,,,,,00039,001,2026-01-17_10h46.08.097,MST_task,2024.2.0,59.8120108458913,2026-01-17 10h46.27.936020 +0530,
,Objects\038a.jpg,132,0,133,,,,,,,f,None,,,0.5709906999836676,0.12790960003621876,,,,133,0,132,613.0950770999771,,,,,,,,,,,,,,,,,,,,,,,,,,,,,,613.0787626999663,613.0950770999771,613.5802545999759,,,,,,,,,,,,,,,,,,,,,,,613.6040979999816,613.613594800001,613.613594800001,613.613594800001,616.591104799998,f,616.5911470999708,,,616.5911599999527,None,,,0.5709906999836676,0.12790960003621876,,,,,,,,,,,00039,001,2026-01-17_10h46.08.097,MST_task,2024.2.0,59.8120108458913,2026-01-17 10h46.27.936020 +0530,
,Scenes\040a.jpg,133,0,134,,,,,,,f,None,,,1.122154499986209,0.11272319999989122,,,,134,0,133,616.6072726999992,,,,,,,,,,,,,,,,,,,,,,,,,,,,,,616.5912828999572,616.6072726999992,617.0926479999907,,,,,,,,,,,,,,,,,,,,,,,617.118817999959,617.1425533999573,617.1425533999573,617.1425533999573,620.1029055999825,f,620.1042188999709,,,620.1042391000083,None,,,1.122154499986209,0.11272319999989122,,,,,,,,,,,00039,001,2026-01-17_10h46.08.097,MST_task,2024.2.0,59.8120108458913,2026-01-17 10h46.27.936020 +0530,
,Scenes\122a.jpg,134,0,135,,,,,,,j,None,,,1.2420228999690153,0.12015010003233328,,,,135,0,134,620.1196927999845,,,,,,,,,,,,,,,,,,,,,,,,,,,,,,620.1043533000047,620.1196927999845,620.6048180999933,,,,,,,,,,,,,,,,,,,,,,,620.6328021999798,620.6549863999826,620.6549863999826,620.6549863999826,623.6154781999649,j,623.6155280999956,,,623.6155406999751,None,,,1.2420228999690153,0.12015010003233328,,,,,,,,,,,00039,001,2026-01-17_10h46.08.097,MST_task,2024.2.0,59.8120108458913,2026-01-17 10h46.27.936020 +0530,
,Scenes\032a.jpg,135,0,136,,,,,,,j,None,,,0.6888315999531187,0.07255159999476746,,,,136,0,135,623.6318739999551,,,,,,,,,,,,,,,,,,,,,,,,,,,,,,623.6156574999914,623.6318739999551,624.1170654000016,,,,,,,,,,,,,,,,,,,,,,,624.147980699956,624.167974299984,624.167974299984,624.167974299984,627.1275542000076,j,627.1275960999774,,,627.1276077000075,None,,,0.6888315999531187,0.07255159999476746,,,,,,,,,,,00039,001,2026-01-17_10h46.08.097,MST_task,2024.2.0,59.8120108458913,2026-01-17 10h46.27.936020 +0530,
,Scenes\089a.jpg,136,0,137,,,,,,,j,None,,,1.433588600018993,0.0805009999894537,,,,137,0,136,627.1442395999911,,,,,,,,,,,,,,,,,,,,,,,,,,,,,,627.1276823999942,627.1442395999911,627.6294926999835,,,,,,,,,,,,,,,,,,,,,,,627.6608652999857,627.6794432000024,627.6794432000024,627.6794432000024,630.6422023999621,j,630.6422697999515,,,630.6422844000044,None,,,1.433588600018993,0.0805009999894537,,,,,,,,,,,00039,001,2026-01-17_10h46.08.097,MST_task,2024.2.0,59.8120108458913,2026-01-17 10h46.27.936020 +0530,
,Scenes\185a.jpg,137,0,138,,,,,,,j,None,,,0.7134861999657005,0.07966250000754371,,,,138,0,137,630.6567130999756,,,,,,,,,,,,,,,,,,,,,,,,,,,,,,630.6423641999718,630.6567130999756,631.1420217999839,,,,,,,,,,,,,,,,,,,,,,,631.1634856999735,631.1755523000029,631.1755523000029,631.1755523000029,634.1520392999519,j,634.1520999000059,,,634.1521221000003,None,,,0.7134861999657005,0.07966250000754371,631.1755523000029,,,,,,,,,,00039,001,2026-01-17_10h46.08.097,MST_task,2024.2.0,59.8120108458913,2026-01-17 10h46.27.936020 +0530,
,Scenes\087a.jpg,138,0,139,,,,,,,j,None,,,1.1597584999981336,0.07968530000653118,,,,139,0,138,634.1688816999667,,,,,,,,,,,,,,,,,,,,,,,,,,,,,,634.1524796999875,634.1688816999667,634.6538685999694,,,,,,,,,,,,,,,,,,,,,,,634.6773436999647,634.7050152999582,634.7050152999582,634.7050152999582,637.6643395999563,j,637.6643816999858,,,637.6644174999674,None,,,1.1597584999981336,0.07968530000653118,,,,,,,,,,,00039,001,2026-01-17_10h46.08.097,MST_task,2024.2.0,59.8120108458913,2026-01-17 10h46.27.936020 +0530,
,Scenes\096a.jpg,139,0,140,,,,,,,j,None,,,0.7126026999903843,0.1040690999943763,,,,140,0,139,637.6811725999578,,,,,,,,,,,,,,,,,,,,,,,,,,,,,,637.6646486999816,637.6811725999578,638.1661373999668,,,,,,,,,,,,,,,,,,,,,,,638.1953380999621,638.217012899986,638.217012899986,638.217012899986,641.1767519999994,j,641.1767961999867,,,641.1768096999731,None,,,0.7126026999903843,0.1040690999943763,,,,,,,,,,,00039,001,2026-01-17_10h46.08.097,MST_task,2024.2.0,59.8120108458913,2026-01-17 10h46.27.936020 +0530,
,Objects\100a.jpg,140,0,141,,,,,,,f,None,,,0.8818786000483669,0.1431315999943763,,,,141,0,140,641.1933520999737,,,,,,,,,,,,,,,,,,,,,,,,,,,,,,641.1769194999943,641.1933520999737,641.6785461999825,,,,,,,,,,,,,,,,,,,,,,,641.7037481999723,641.7116636999999,641.7116636999999,641.7116636999999,644.6890009999624,f,644.6911185999634,,,644.6911387,None,,,0.8818786000483669,0.1431315999943763,,,,,,,,,,,00039,001,2026-01-17_10h46.08.097,MST_task,2024.2.0,59.8120108458913,2026-01-17 10h46.27.936020 +0530,
,Objects\087a.jpg,141,0,142,,,,,,,j,None,,,1.304983199981507,0.12001990003045648,,,,142,0,141,644.7057757999864,,,,,,,,,,,,,,,,,,,,,,,,,,,,,,644.6912116999738,644.7057757999864,645.1909824999748,,,,,,,,,,,,,,,,,,,,,,,645.2128007999854,645.2242135999841,645.2242135999841,645.2242135999841,648.2015576999984,j,648.2016027999925,,,648.2016151999705,None,,,1.304983199981507,0.12001990003045648,645.2242135999841,,,,,,,,,,00039,001,2026-01-17_10h46.08.097,MST_task,2024.2.0,59.8120108458913,2026-01-17 10h46.27.936020 +0530,
,Objects\080a.jpg,142,0,143,,,,,,,f,None,,,0.6885996999917552,0.12843510002130643,,,,143,0,142,648.2179486999521,,,,,,,,,,,,,,,,,,,,,,,,,,,,,,648.2017532999744,648.2179486999521,648.7031500999583,,,,,,,,,,,,,,,,,,,,,,,648.7257503999863,648.7364202999743,648.7364202999743,648.7364202999743,651.7135377999512,f,651.7135980000021,,,651.7136231999611,None,,,0.6885996999917552,0.12843510002130643,,,,,,,,,,,00039,001,2026-01-17_10h46.08.097,MST_task,2024.2.0,59.8120108458913,2026-01-17 10h46.27.936020 +0530,
,Objects\115a.jpg,143,0,144,,,,,,,f,None,,,0.7437783000059426,0.12038500001654029,,,,144,0,143,651.7303662999766,,,,,,,,,,,,,,,,,,,,,,,,,,,,,,651.7139644999988,651.7303662999766,652.2153414000059,,,,,,,,,,,,,,,,,,,,,,,652.2361176999984,652.2488147999975,652.2488147999975,652.2488147999975,655.2259427999961,f,655.2259983999538,,,655.22601079999,None,,,0.7437783000059426,0.12038500001654029,,,,,,,,,,,00039,001,2026-01-17_10h46.08.097,MST_task,2024.2.0,59.8120108458913,2026-01-17 10h46.27.936020 +0530,
,Objects\004a.jpg,144,0,145,,,,,,,j,None,,,1.5934501999872737,0.13475840003229678,,,,145,0,144,655.242668699997,,,,,,,,,,,,,,,,,,,,,,,,,,,,,,655.2261429000064,655.242668699997,655.7276402999996,,,,,,,,,,,,,,,,,,,,,,,655.7511521999841,655.7611111999722,655.7611111999722,655.7611111999722,658.7383860999835,j,658.7384314999799,,,658.7384440999595,None,,,1.5934501999872737,0.13475840003229678,,,,,,,,,,,00039,001,2026-01-17_10h46.08.097,MST_task,2024.2.0,59.8120108458913,2026-01-17 10h46.27.936020 +0530,
,Objects\078a.jpg,145,0,146,,,,,,,j,None,,,1.2393979000044055,0.11278640001546592,,,,146,0,145,658.7549743999843,,,,,,,,,,,,,,,,,,,,,,,,,,,,,,658.7385159999831,658.7549743999843,659.2400813999702,,,,,,,,,,,,,,,,,,,,,,,659.2634078999981,659.2732808999717,659.2732808999717,659.2732808999717,662.2504363000044,j,662.250493599975,,,662.2505093999789,None,,,1.2393979000044055,0.11278640001546592,,,,,,,,,,,00039,001,2026-01-17_10h46.08.097,MST_task,2024.2.0,59.8120108458913,2026-01-17 10h46.27.936020 +0530,
,Objects\138a.jpg,146,0,147,,,,,,,j,None,,,1.3513687000377104,0.12029039999470115,,,,147,0,146,662.2673861999647,,,,,,,,,,,,,,,,,,,,,,,,,,,,,,662.2505808999995,662.2673861999647,662.7523399000056,,,,,,,,,,,,,,,,,,,,,,,662.7744245000067,662.7856978999916,662.7856978999916,662.7856978999916,665.7628631999833,j,665.7629194000037,,,665.7629336999962,None,,,1.3513687000377104,0.12029039999470115,,,,,,,,,,,00039,001,2026-01-17_10h46.08.097,MST_task,2024.2.0,59.8120108458913,2026-01-17 10h46.27.936020 +0530,
,Scenes\029a.jpg,147,0,148,,,,,,,j,None,,,1.3177473000250757,0.1277851999620907,,,,148,0,147,665.7794509999803,,,,,,,,,,,,,,,,,,,,,,,,,,,,,,665.7630393999862,665.7794509999803,666.2646391000017,,,,,,,,,,,,,,,,,,,,,,,666.2935981999617,666.3154169999762,666.3154169999762,666.3154169999762,669.2755481000058,j,669.2769770000014,,,669.2769961999729,None,,,1.3177473000250757,0.1277851999620907,,,,,,,,,,,00039,001,2026-01-17_10h46.08.097,MST_task,2024.2.0,59.8120108458913,2026-01-17 10h46.27.936020 +0530,
,Scenes\127a.jpg,148,0,149,,,,,,,j,None,,,0.6387537999544293,0.11983890004921705,,,,149,0,148,669.2919412999763,,,,,,,,,,,,,,,,,,,,,,,,,,,,,,669.2771260999725,669.2919412999763,669.7771608000039,,,,,,,,,,,,,,,,,,,,,,,669.8000901999767,669.810212899989,669.810212899989,669.810212899989,672.7873549999786,j,672.7874106999952,,,672.787423599977,None,,,0.6387537999544293,0.11983890004921705,669.810212899989,,,,,,,,,,00039,001,2026-01-17_10h46.08.097,MST_task,2024.2.0,59.8120108458913,2026-01-17 10h46.27.936020 +0530,
,Scenes\140a.jpg,149,0,150,,,,,,,j,None,,,0.742136099957861,0.12811180000426248,,,,150,0,149,672.804160300002,,,,,,,,,,,,,,,,,,,,,,,,,,,,,,672.7876902999706,672.804160300002,673.2891613999964,,,,,,,,,,,,,,,,,,,,,,,673.3111447999836,673.3232100000023,673.3232100000023,673.3232100000023,676.2996425000019,j,676.2996859999839,,,676.2996992999688,None,,,0.742136099957861,0.12811180000426248,,,,,,,,,,,00039,001,2026-01-17_10h46.08.097,MST_task,2024.2.0,59.8120108458913,2026-01-17 10h46.27.936020 +0530,
,Scenes\042a.jpg,150,0,151,,,,,,,j,None,,,1.0279595999745652,0.0807504000258632,,,,151,0,150,676.316469399957,,,,,,,,,,,,,,,,,,,,,,,,,,,,,,676.2998198999558,676.316469399957,676.8014212999842,,,,,,,,,,,,,,,,,,,,,,,676.8261641999707,676.8525275999564,676.8525275999564,676.8525275999564,679.8123870999552,j,679.8124306999962,,,679.8124437999795,None,,,1.0279595999745652,0.0807504000258632,,,,,,,,,,,00039,001,2026-01-17_10h46.08.097,MST_task,2024.2.0,59.8120108458913,2026-01-17 10h46.27.936020 +0530,
,Scenes\109a.jpg,151,0,152,,,,,,,j,None,,,1.4545924999983981,0.09469090000493452,,,,152,0,151,679.8286365999957,,,,,,,,,,,,,,,,,,,,,,,,,,,,,,679.8125136999879,679.8286365999957,680.3138438999886,,,,,,,,,,,,,,,,,,,,,,,680.3340708999895,680.3475055999588,680.3475055999588,680.3475055999588,683.3242355999537,j,683.3242920999764,,,683.3243197999545,None,,,1.4545924999983981,0.09469090000493452,,,,,,,,,,,00039,001,2026-01-17_10h46.08.097,MST_task,2024.2.0,59.8120108458913,2026-01-17 10h46.27.936020 +0530,
,Scenes\068a.jpg,152,0,153,,,,,,,j,None,,,0.6282286999630742,0.11174840002786368,,,,153,0,152,683.3411949999863,,,,,,,,,,,,,,,,,,,,,,,,,,,,,,683.3243995999801,683.3411949999863,683.8264824000071,,,,,,,,,,,,,,,,,,,,,,,683.8508818999981,683.8768464999739,683.8768464999739,683.8768464999739,686.8366255000001,j,686.8366813999601,,,686.8366946000024,None,,,0.6282286999630742,0.11174840002786368,,,,,,,,,,,00039,001,2026-01-17_10h46.08.097,MST_task,2024.2.0,59.8120108458913,2026-01-17 10h46.27.936020 +0530,
,Scenes\147a.jpg,153,0,154,,,,,,,j,None,,,0.8607805999927223,0.12109999998938292,,,,154,0,153,686.853237000003,,,,,,,,,,,,,,,,,,,,,,,,,,,,,,686.8367981999763,686.853237000003,687.3387095999788,,,,,,,,,,,,,,,,,,,,,,,687.3583775999723,687.371788599994,687.371788599994,687.371788599994,690.3488417000044,j,690.3488851999864,,,690.3488986999728,None,,,0.8607805999927223,0.12109999998938292,,,,,,,,,,,00039,001,2026-01-17_10h46.08.097,MST_task,2024.2.0,59.8120108458913,2026-01-17 10h46.27.936020 +0530,
,Objects\168a.jpg,154,0,155,,,,,,,f,None,,,2.909502899972722,None,,,,155,0,154,690.3656722999876,,,,,,,,,,,,,,,,,,,,,,,,,,,,,,690.3490478000022,690.3656722999876,690.8506201999844,,,,,,,,,,,,,,,,,,,,,,,690.8768597999588,690.8841534999665,690.8841534999665,690.8841534999665,693.8611657999572,f,693.8633911999641,,,693.8634108999977,None,,,2.909502899972722,None,,,,,,,,,,,00039,001,2026-01-17_10h46.08.097,MST_task,2024.2.0,59.8120108458913,2026-01-17 10h46.27.936020 +0530,
,Objects\135a.jpg,155,0,156,,,,,,,f,None,,,0.6765800000284798,0.12083719996735454,,,,156,0,155,693.8779633999802,,,,,,,,,,,,,,,,,,,,,,,,,,,,,,693.8635216999683,693.8779633999802,694.3630953999818,,,,,,,,,,,,,,,,,,,,,,,694.3847178999567,694.3964121000026,694.3964121000026,694.3964121000026,697.373677800002,f,697.3737217999878,,,697.3737343999674,None,,,0.6765800000284798,0.12083719996735454,694.3964121000026,,,,,,,,,,00039,001,2026-01-17_10h46.08.097,MST_task,2024.2.0,59.8120108458913,2026-01-17 10h46.27.936020 +0530,
,Objects\144a.jpg,156,0,157,,,,,,,j,None,,,1.3723047000239603,0.12806089996593073,,,,157,0,156,697.3901491999859,,,,,,,,,,,,,,,,,,,,,,,,,,,,,,697.3738396999543,697.3901491999859,697.8753406999749,,,,,,,,,,,,,,,,,,,,,,,697.9000526999589,697.9086207000073,697.9086207000073,697.9086207000073,700.8857445999747,j,700.8857878999552,,,700.8858009999967,None,,,1.3723047000239603,0.12806089996593073,,,,,,,,,,,00039,001,2026-01-17_10h46.08.097,MST_task,2024.2.0,59.8120108458913,2026-01-17 10h46.27.936020 +0530,
,Objects\167a.jpg,157,0,158,,,,,,,f,None,,,0.9879354999866337,0.11206100002164021,,,,158,0,157,700.9025775999762,,,,,,,,,,,,,,,,,,,,,,,,,,,,,,700.8859097999521,700.9025775999762,701.3875477999682,,,,,,,,,,,,,,,,,,,,,,,701.4130284999846,701.4209957999992,701.4209957999992,701.4209957999992,704.3983301999979,f,704.3983973999857,,,704.3984103999683,None,,,0.9879354999866337,0.11206100002164021,,,,,,,,,,,00039,001,2026-01-17_10h46.08.097,MST_task,2024.2.0,59.8120108458913,2026-01-17 10h46.27.936020 +0530,
,Objects\105a.jpg,158,0,159,,,,,,,f,None,,,0.7317903999937698,0.09625520004192367,,,,159,0,158,704.4147438000073,,,,,,,,,,,,,,,,,,,,,,,,,,,,,,704.3984786999645,704.4147438000073,704.9001285999548,,,,,,,,,,,,,,,,,,,,,,,704.9225470999954,704.933373799955,704.933373799955,704.933373799955,707.9104606999899,f,707.910506699991,,,707.9105204999796,None,,,0.7317903999937698,0.09625520004192367,,,,,,,,,,,00039,001,2026-01-17_10h46.08.097,MST_task,2024.2.0,59.8120108458913,2026-01-17 10h46.27.936020 +0530,
,Objects\143a.jpg,159,0,160,,,,,,,j,None,,,1.1159023999935016,0.10422819998348132,,,,160,0,159,707.9270393999759,,,,,,,,,,,,,,,,,,,,,,,,,,,,,,707.910592900007,707.9270393999759,708.4122440000065,,,,,,,,,,,,,,,,,,,,,,,708.4335026000044,708.445479099988,708.445479099988,708.445479099988,711.4226287999772,j,711.4226714999531,,,711.4226844999939,None,,,1.1159023999935016,0.10422819998348132,,,,,,,,,,,00039,001,2026-01-17_10h46.08.097,MST_task,2024.2.0,59.8120108458913,2026-01-17 10h46.27.936020 +0530,
,Objects\082a.jpg,160,0,161,,,,,,,j,None,,,1.1071448999573477,0.08801290002884343,,,,161,0,160,711.4395430999575,,,,,,,,,,,,,,,,,,,,,,,,,,,,,,711.4227537999977,711.4395430999575,711.9244332999806,,,,,,,,,,,,,,,,,,,,,,,711.9482646999531,711.9579011999886,711.9579011999886,711.9579011999886,714.9350287999841,j,714.9350728999707,,,714.9350888999761,None,,,1.1071448999573477,0.08801290002884343,,,,,,,,,,,00039,001,2026-01-17_10h46.08.097,MST_task,2024.2.0,59.8120108458913,2026-01-17 10h46.27.936020 +0530,
,Scenes\024a.jpg,161,0,162,,,,,,,j,None,,,1.073725599970203,0.10444800002733245,,,,162,0,161,714.9516184999957,,,,,,,,,,,,,,,,,,,,,,,,,,,,,,714.9352133999928,714.9516184999957,715.4368405999849,,,,,,,,,,,,,,,,,,,,,,,715.4610125999898,715.4869717999827,715.4869717999827,715.4869717999827,718.4473127999809,j,718.4490466999705,,,718.449065599998,None,,,1.073725599970203,0.10444800002733245,,,,,,,,,,,00039,001,2026-01-17_10h46.08.097,MST_task,2024.2.0,59.8120108458913,2026-01-17 10h46.27.936020 +0530,
,Scenes\049a.jpg,162,0,163,,,,,,,j,None,,,1.2101486999890767,0.0723549000103958,,,,163,0,162,718.4639276999515,,,,,,,,,,,,,,,,,,,,,,,,,,,,,,718.4491737000062,718.4639276999515,718.9493519999669,,,,,,,,,,,,,,,,,,,,,,,718.9718271999736,718.9823883000063,718.9823883000063,718.9823883000063,721.9596273999778,j,721.9598203999922,,,721.9598348999862,None,,,1.2101486999890767,0.0723549000103958,,,,,,,,,,,00039,001,2026-01-17_10h46.08.097,MST_task,2024.2.0,59.8120108458913,2026-01-17 10h46.27.936020 +0530,
,Scenes\028a.jpg,163,0,164,,,,,,,j,None,,,0.6267696000286378,0.08755539997946471,,,,164,0,163,721.9762372999685,,,,,,,,,,,,,,,,,,,,,,,,,,,,,,721.9599597000051,721.9762372999685,722.4614426000044,,,,,,,,,,,,,,,,,,,,,,,722.4771682999562,722.4947931999923,722.4947931999923,722.4947931999923,725.4718421999714,j,725.4718971999828,,,725.4719496999751,None,,,0.6267696000286378,0.08755539997946471,,,,,,,,,,,00039,001,2026-01-17_10h46.08.097,MST_task,2024.2.0,59.8120108458913,2026-01-17 10h46.27.936020 +0530,
,Scenes\038a.jpg,164,0,165,,,,,,,j,None,,,0.7041296999668702,0.08863230003044009,,,,165,0,164,725.4886576999561,,,,,,,,,,,,,,,,,,,,,,,,,,,,,,725.4720647999784,725.4886576999561,725.9736219999613,,,,,,,,,,,,,,,,,,,,,,,725.9994776999811,726.024659799994,726.024659799994,726.024659799994,728.9842381000053,j,728.9845414999872,,,728.984558199998,None,,,0.7041296999668702,0.08863230003044009,,,,,,,,,,,00039,001,2026-01-17_10h46.08.097,MST_task,2024.2.0,59.8120108458913,2026-01-17 10h46.27.936020 +0530,
,Scenes\006a.jpg,165,0,166,,,,,,,j,None,,,1.6814046999788843,0.08864120004000142,,,,166,0,165,729.0009779999964,,,,,,,,,,,,,,,,,,,,,,,,,,,,,,728.9846692999708,729.0009779999964,729.4861711999984,,,,,,,,,,,,,,,,,,,,,,,729.5075726999785,729.5195328999544,729.5195328999544,729.5195328999544,732.4967955999891,j,732.4968501999974,,,732.4968629999785,None,,,1.6814046999788843,0.08864120004000142,,,,,,,,,,,00039,001,2026-01-17_10h46.08.097,MST_task,2024.2.0,59.8120108458913,2026-01-17 10h46.27.936020 +0530,
,Scenes\132a.jpg,166,0,167,,,,,,,j,None,,,1.1697062000166625,0.09565819997806102,,,,167,0,166,732.5136987000005,,,,,,,,,,,,,,,,,,,,,,,,,,,,,,732.4969329999876,732.5136987000005,732.9986146999872,,,,,,,,,,,,,,,,,,,,,,,733.0116226999671,733.0317273999681,733.0317273999681,733.0317273999681,736.0105692999787,j,736.0106331999996,,,736.0106567000039,None,,,1.1697062000166625,0.09565819997806102,,,,,,,,,,,00039,001,2026-01-17_10h46.08.097,MST_task,2024.2.0,59.8120108458913,2026-01-17 10h46.27.936020 +0530,
,Scenes\102a.jpg,167,0,168,,,,,,,f,None,,,1.2162268999963999,0.11224090005271137,,,,168,0,167,736.0261113999877,,,,,,,,,,,,,,,,,,,,,,,,,,,,,,736.0107476999983,736.0261113999877,736.5105370999663,,,,,,,,,,,,,,,,,,,,,,,736.542380800005,736.5605853999732,736.5605853999732,736.5605853999732,739.5211484999745,f,739.5211896999972,,,739.5212018999737,None,,,1.2162268999963999,0.11224090005271137,736.5605853999732,,,,,,,,,,00039,001,2026-01-17_10h46.08.097,MST_task,2024.2.0,59.8120108458913,2026-01-17 10h46.27.936020 +0530,
,Objects\019a.jpg,168,0,169,,,,,,,None,f,0.022622400021646172,None,,,,,,169,0,168,739.5378531999886,,,,,,,,,,,,,,,,,,,,,,,,,,,,,,739.5212995999609,739.5378531999886,740.0229851999902,,,,,,,,,,,,,,,,,,,,,,,740.0474244999932,740.0571743999608,740.0571743999608,740.0571743999608,743.0340875999536,None,743.0357083999552,743.0503892999841,743.0503892999841,743.0843129999703,f,0.022622400021646172,None,,,,,,,,,,,,,00039,001,2026-01-17_10h46.08.097,MST_task,2024.2.0,59.8120108458913,2026-01-17 10h46.27.936020 +0530,
,Objects\099a.jpg,169,0,170,,,,,,,f,None,,,2.2777093999902718,0.1049940999946557,,,,170,0,169,743.1002261999529,,,,,,,,,,,,,,,,,,,,,,,,,,,,,,743.0843988999841,743.1002261999529,743.5855829999782,,,,,,,,,,,,,,,,,,,,,,,743.6090689999983,743.6188818999799,743.6188818999799,743.6188818999799,746.5957962999819,f,746.59584059997,,,746.595853799954,None,,,2.2777093999902718,0.1049940999946557,,,,,,,,,,,00039,001,2026-01-17_10h46.08.097,MST_task,2024.2.0,59.8120108458913,2026-01-17 10h46.27.936020 +0530,
,Objects\016a.jpg,170,0,171,,,,,,,f,None,,,0.7101942999870516,0.1193286000052467,,,,171,0,170,746.6126218999852,,,,,,,,,,,,,,,,,,,,,,,,,,,,,,746.5959612999577,746.6126218999852,747.0976352999569,,,,,,,,,,,,,,,,,,,,,,,747.1185379999806,747.1310641999589,747.1310641999589,747.1310641999589,750.1082216000068,f,750.1083967000013,,,750.1084205000079,None,,,0.7101942999870516,0.1193286000052467,,,,,,,,,,,00039,001,2026-01-17_10h46.08.097,MST_task,2024.2.0,59.8120108458913,2026-01-17 10h46.27.936020 +0530,
,Objects\086a.jpg,171,0,172,,,,,,,j,None,,,2.7016176999895833,0.12779480003518984,,,,172,0,171,750.1248024999513,,,,,,,,,,,,,,,,,,,,,,,,,,,,,,750.10854809999,750.1248024999513,750.6101294999826,,,,,,,,,,,,,,,,,,,,,,,750.6328942999826,750.643324100005,750.643324100005,750.643324100005,753.620473899995,j,753.6205172999762,,,753.6205296999542,None,,,2.7016176999895833,0.12779480003518984,,,,,,,,,,,00039,001,2026-01-17_10h46.08.097,MST_task,2024.2.0,59.8120108458913,2026-01-17 10h46.27.936020 +0530,
,Objects\147a.jpg,172,0,173,,,,,,,f,None,,,1.3175000000046566,0.11997290002182126,,,,173,0,172,753.6372196999728,,,,,,,,,,,,,,,,,,,,,,,,,,,,,,753.6206367999548,753.6372196999728,754.1222229999839,,,,,,,,,,,,,,,,,,,,,,,754.1455511999666,754.1556485999608,754.1556485999608,754.1556485999608,757.1328705999767,f,757.1329137999564,,,757.1329260999919,None,,,1.3175000000046566,0.11997290002182126,,,,,,,,,,,00039,001,2026-01-17_10h46.08.097,MST_task,2024.2.0,59.8120108458913,2026-01-17 10h46.27.936020 +0530,
,Objects\068a.jpg,173,0,174,,,,,,,f,None,,,1.261611099995207,0.14311489998362958,,,,174,0,173,757.1494036999648,,,,,,,,,,,,,,,,,,,,,,,,,,,,,,757.1330217999639,757.1494036999648,757.6345932999975,,,,,,,,,,,,,,,,,,,,,,,757.6563582999515,757.6678433999768,757.6678433999768,757.6678433999768,760.6451186999911,f,760.6454269999522,,,760.6454397999914,None,,,1.261611099995207,0.14311489998362958,,,,,,,,,,,00039,001,2026-01-17_10h46.08.097,MST_task,2024.2.0,59.8120108458913,2026-01-17 10h46.27.936020 +0530,
,Objects\190a.jpg,174,0,175,,,,,,,f,None,,,0.7813741999561898,0.14312670001527295,,,,175,0,174,760.6618332999642,,,,,,,,,,,,,,,,,,,,,,,,,,,,,,760.6455089999945,760.6618332999642,761.1469174999511,,,,,,,,,,,,,,,,,,,,,,,761.1688541999902,761.1801364999847,761.1801364999847,761.1801364999847,764.1573100999813,f,764.1573539999663,,,764.1573667000048,None,,,0.7813741999561898,0.14312670001527295,,,,,,,,,,,00039,001,2026-01-17_10h46.08.097,MST_task,2024.2.0,59.8120108458913,2026-01-17 10h46.27.936020 +0530,
,Scenes\045a.jpg,175,0,176,,,,,,,j,None,,,0.7714477999834344,0.1361517000477761,,,,176,0,175,764.1741245999583,,,,,,,,,,,,,,,,,,,,,,,,,,,,,,764.1574363999534,764.1741245999583,764.6591731999652,,,,,,,,,,,,,,,,,,,,,,,764.6896402999992,764.7100605999585,764.7100605999585,764.7100605999585,767.6696796999895,j,767.6721086999751,,,767.6721282000071,None,,,0.7714477999834344,0.1361517000477761,,,,,,,,,,,00039,001,2026-01-17_10h46.08.097,MST_task,2024.2.0,59.8120108458913,2026-01-17 10h46.27.936020 +0530,
,Scenes\078a.jpg,176,0,177,,,,,,,j,None,,,2.1864194000372663,0.11194470000918955,,,,177,0,176,767.6864165999577,,,,,,,,,,,,,,,,,,,,,,,,,,,,,,767.6721996999695,767.6864165999577,768.171993499971,,,,,,,,,,,,,,,,,,,,,,,768.198018199997,768.2224887000048,768.2224887000048,768.2224887000048,771.1821563999983,j,771.1822002999834,,,771.1822129999637,None,,,2.1864194000372663,0.11194470000918955,768.2224887000048,,,,,,,,,,00039,001,2026-01-17_10h46.08.097,MST_task,2024.2.0,59.8120108458913,2026-01-17 10h46.27.936020 +0530,
,Scenes\143a.jpg,177,0,178,,,,,,,j,None,,,1.634811699972488,0.1283765000407584,,,,178,0,177,771.198746799957,,,,,,,,,,,,,,,,,,,,,,,,,,,,,,771.1823167999974,771.198746799957,771.6839987999992,,,,,,,,,,,,,,,,,,,,,,,771.7082898999797,771.734041699965,771.734041699965,771.734041699965,774.6944757999736,j,774.6945212999708,,,774.694534899958,None,,,1.634811699972488,0.1283765000407584,,,,,,,,,,,00039,001,2026-01-17_10h46.08.097,MST_task,2024.2.0,59.8120108458913,2026-01-17 10h46.27.936020 +0530,
,Scenes\188a.jpg,178,0,179,,,,,,,j,None,,,0.6970031000091694,0.10424060001969337,,,,179,0,178,774.7111671000021,,,,,,,,,,,,,,,,,,,,,,,,,,,,,,774.6946428999654,774.7111671000021,775.1961344999727,,,,,,,,,,,,,,,,,,,,,,,775.2201577000087,775.2476450999966,775.2476450999966,775.2476450999966,778.2067628999939,j,778.206804699963,,,778.2068167999969,None,,,0.6970031000091694,0.10424060001969337,,,,,,,,,,,00039,001,2026-01-17_10h46.08.097,MST_task,2024.2.0,59.8120108458913,2026-01-17 10h46.27.936020 +0530,
,Scenes\124a.jpg,179,0,180,,,,,,,f,None,,,1.139389400021173,0.12761179998051375,,,,180,0,179,778.2233577999868,,,,,,,,,,,,,,,,,,,,,,,,,,,,,,778.2068862000015,778.2233577999868,778.7089042000007,,,,,,,,,,,,,,,,,,,,,,,778.7308150999597,778.7415890999837,778.7415890999837,778.7415890999837,781.7191667999723,f,781.7192469000001,,,781.7192624000018,None,,,1.139389400021173,0.12761179998051375,,,,,,,,,,,00039,001,2026-01-17_10h46.08.097,MST_task,2024.2.0,59.8120108458913,2026-01-17 10h46.27.936020 +0530,
