Sl_no,image_path,thisN,thisTrialN,thisRepN,key_resp_5.keys,key_resp_7.keys,key_resp_7.rt,key_resp_7.duration,key_resp_5.rt,key_resp_5.duration,key_resp_9.keys,key_resp_9.rt,key_resp_9.duration,key_resp_8.keys,key_resp_8.rt,key_resp_8.duration,practice.thisRepN,practice.thisTrialN,practice.thisN,trials.thisRepN,trials.thisTrialN,trials.thisN,thisRow.t,notes,welcome_page.started,text.started,key_resp.started,welcome_page.stopped,key_resp.keys,key_resp.rt,key_resp.duration,instructions.started,ins.started,key_resp_2.started,instructions.stopped,key_resp_2.keys,key_resp_2.rt,key_resp_2.duration,instructions_2.started,text_10.started,key_resp_10.started,instructions_2.stopped,key_resp_10.keys,key_resp_10.rt,key_resp_10.duration,objects_only_instruction.started,text_3.started,key_resp_3.started,objects_only_instruction.stopped,key_resp_3.keys,key_resp_3.rt,key_resp_3.duration,ISI.started,text_4.started,text_4.stopped,ISI.stopped,practice_block.started,image.started,text_5.started,key_resp_5.started,practice_block.stopped,practice.key_resp_5.keys,indoor_outdoor.started,text_7.started,key_resp_7.started,indoor_outdoor.stopped,practice.key_resp_7.keys,practice.key_resp_7.rt,practice.key_resp_7.duration,image.stopped,text_5.stopped,key_resp_5.stopped,practice.key_resp_5.rt,practice.key_resp_5.duration,practice_to_main.started,text_2.started,key_resp_4.started,practice_to_main.stopped,key_resp_4.keys,key_resp_4.rt,key_resp_4.duration,objects.started,image_2.started,text_9.started,key_resp_9.started,image_2.stopped,text_9.stopped,key_resp_9.stopped,objects.stopped,trials.key_resp_9.keys,trials.key_resp_9.rt,trials.key_resp_9.duration,encoding_task.started,encoding_task.stopped,trials.key_resp_8.keys,text_8.started,key_resp_8.started,trials.key_resp_8.rt,trials.key_resp_8.duration,end_experiment.started,text_6.started,key_resp_6.started,end_experiment.stopped,key_resp_6.keys,key_resp_6.rt,key_resp_6.duration,list_of_stimuli,encoding_task_accuracy,participant,session,date,expName,psychopyVersion,frameRate,expStart,
,,,,,,,,,,,,,,,,,,,,,,,,,0.0014247000071918592,0.0028922000055899844,0.0028922000055899844,275.1901150000049,space,275.18093339999905,None,,,,,,,,,,,,,,,,,,,,,,,,,,,,,,,,,,,,,,,,,,,,,,,,,,,,,,,,,,,,,,,,,,,,,,,,,,,,,,00034,001,2026-01-16_11h55.32.155,MST_task,2024.2.0,59.942299544470025,2026-01-16 11h55.53.994690 +0530,
,,,,,,,,,,,,,,,,,,,,,,,,,,,,,,,,275.190154099997,275.204662300006,275.204662300006,326.8217585000093,space,51.61176310000883,None,,,,,,,,,,,,,,,,,,,,,,,,,,,,,,,,,,,,,,,,,,,,,,,,,,,,,,,,,,,,,,,,,,,,,,,00034,001,2026-01-16_11h55.32.155,MST_task,2024.2.0,59.942299544470025,2026-01-16 11h55.53.994690 +0530,
,,,,,,,,,,,,,,,,,,,,,,,,,,,,,,,,,,,,,,,326.8217854999966,326.8381001000089,326.8381001000089,345.7051424000092,space,18.8653204000002,None,,,,,,,,,,,,,,,,,,,,,,,,,,,,,,,,,,,,,,,,,,,,,,,,,,,,,,,,,,,,,,,,00034,001,2026-01-16_11h55.32.155,MST_task,2024.2.0,59.942299544470025,2026-01-16 11h55.53.994690 +0530,
,,,,,,,,,,,,,,,,,,,,,,,,,,,,,,,,,,,,,,,,,,,,,,345.70517420000397,345.7212523000053,345.7212523000053,391.7718622000102,space,46.03918249999697,None,,,,,,,,,,,,,,,,,,,,,,,,,,,,,,,,,,,,,,,,,,,,,,,,,,,,,,,,,00034,001,2026-01-16_11h55.32.155,MST_task,2024.2.0,59.942299544470025,2026-01-16 11h55.53.994690 +0530,
8,practice_images/178a.jpg,0,0,1,None,j,2.8785112999903504,None,,,,,,,,,1,0,0,,,,391.78822539999965,,,,,,,,,,,,,,,,,,,,,,,,,,,,,,391.7758848000085,391.78822539999965,392.2896341000014,392.27172180000343,392.278787800009,392.2896341000014,392.2896341000014,392.2896341000014,395.28830749999906,None,395.2901799000101,395.3047424999968,395.3047424999968,398.1885963000095,j,2.8785112999903504,None,,,,,,,,,,,,,,,,,,,,,,,,,,,,,,,,,,,,,,,,00034,001,2026-01-16_11h55.32.155,MST_task,2024.2.0,59.942299544470025,2026-01-16 11h55.53.994690 +0530,
4,practice_images/002b.jpg,1,1,1,f,None,,,1.6624343999865232,0.1999913000036031,,,,,,,1,1,1,,,,398.20497140000225,,,,,,,,,,,,,,,,,,,,,,,,,,,,,,398.18868200000725,398.20497140000225,398.70505460001004,398.6883564000018,398.69012569999904,398.70505460001004,398.70505460001004,398.70505460001004,401.688650600001,f,401.68869619999896,,,401.6887091999961,None,,,401.70484130000114,401.70484130000114,401.70484130000114,1.6624343999865232,0.1999913000036031,,,,,,,,,,,,,,,,,,,,,,,,,,,,,,,,,,,00034,001,2026-01-16_11h55.32.155,MST_task,2024.2.0,59.942299544470025,2026-01-16 11h55.53.994690 +0530,
9,practice_images/180a.jpg,2,2,1,f,None,,,1.938762300007511,0.27177629999641795,,,,,,,1,2,2,,,,401.70484130000114,,,,,,,,,,,,,,,,,,,,,,,,,,,,,,401.6887743999978,401.70484130000114,402.20495420000225,402.18844840000384,402.1898480000091,402.20495420000225,402.20495420000225,402.20495420000225,405.1886213999969,f,405.1886602000013,,,405.18867260000843,None,,,405.20478870000807,405.20478870000807,405.20478870000807,1.938762300007511,0.27177629999641795,,,,,,,,,,,,,,,,,,,,,,,,,,,,,,,,,,,00034,001,2026-01-16_11h55.32.155,MST_task,2024.2.0,59.942299544470025,2026-01-16 11h55.53.994690 +0530,
2,practice_images/031a.jpg,3,3,1,f,None,,,2.2790457000082824,0.2719269999943208,,,,,,,1,3,3,,,,405.20478870000807,,,,,,,,,,,,,,,,,,,,,,,,,,,,,,405.18873500000336,405.20478870000807,405.7050553000008,405.68843750000815,405.6898000000074,405.7050553000008,405.7050553000008,405.7050553000008,408.68850460000976,f,408.68854190000275,,,408.6885539000068,None,,,408.70481100000325,408.70481100000325,408.70481100000325,2.2790457000082824,0.2719269999943208,,,,,,,,,,,,,,,,,,,,,,,,,,,,,,,,,,,00034,001,2026-01-16_11h55.32.155,MST_task,2024.2.0,59.942299544470025,2026-01-16 11h55.53.994690 +0530,
6,practice_images/158a.jpg,4,4,1,j,None,,,1.6665195999958087,0.27262550000159536,,,,,,,1,4,4,,,,408.70481100000325,,,,,,,,,,,,,,,,,,,,,,,,,,,,,,408.68861540000944,408.70481100000325,409.20494419999886,409.18838030000916,409.1897319999989,409.20494419999886,409.20494419999886,409.20494419999886,412.1886436000059,j,412.1886827999988,,,412.1886950000044,None,,,412.2047112,412.2047112,412.2047112,1.6665195999958087,0.27262550000159536,,,,,,,,,,,,,,,,,,,,,,,,,,,,,,,,,,,00034,001,2026-01-16_11h55.32.155,MST_task,2024.2.0,59.942299544470025,2026-01-16 11h55.53.994690 +0530,
1,practice_images/013a.jpg,5,5,1,None,j,1.5425384999980452,None,,,,,,,,,1,5,5,,,,412.2047112,,,,,,,,,,,,,,,,,,,,,,,,,,,,,,412.1887624000083,412.2047112,412.70499169999675,412.68837590000476,412.6940689000039,412.70499169999675,412.70499169999675,412.70499169999675,415.6884499000007,None,415.6911039999977,415.70473130000755,415.70473130000755,417.2552386000025,j,1.5425384999980452,None,415.70473130000755,415.70473130000755,415.70473130000755,,,,,,,,,,,,,,,,,,,,,,,,,,,,,,,,,,,,,00034,001,2026-01-16_11h55.32.155,MST_task,2024.2.0,59.942299544470025,2026-01-16 11h55.53.994690 +0530,
3,practice_images/037a.jpg,6,6,1,None,f,0.17991919998894446,None,,,,,,,,,1,6,6,,,,417.27130180000677,,,,,,,,,,,,,,,,,,,,,,,,,,,,,,417.25532280000334,417.27130180000677,417.771524900003,417.7550809000095,417.7566627000051,417.771524900003,417.771524900003,417.771524900003,420.75518560000637,None,420.7552199000056,420.7714032000076,420.7714032000076,420.95515460000024,f,0.17991919998894446,None,420.7714032000076,420.7714032000076,420.7714032000076,,,,,,,,,,,,,,,,,,,,,,,,,,,,,,,,,,,,,00034,001,2026-01-16_11h55.32.155,MST_task,2024.2.0,59.942299544470025,2026-01-16 11h55.53.994690 +0530,
5,practice_images/139a.jpg,7,7,1,j,None,,,2.431988000011188,0.199973199996748,,,,,,,1,7,7,,,,420.9714135999966,,,,,,,,,,,,,,,,,,,,,,,,,,,,,,420.95523970000795,420.9714135999966,421.47154440000304,421.4549954999966,421.45633149999776,421.47154440000304,421.47154440000304,421.47154440000304,424.45540620000975,j,424.4554504999978,,,424.4554640999995,None,,,424.471314800001,424.471314800001,424.471314800001,2.431988000011188,0.199973199996748,,,,,,,,,,,,,,,,,,,,,,,,,,,,,,,,,,,00034,001,2026-01-16_11h55.32.155,MST_task,2024.2.0,59.942299544470025,2026-01-16 11h55.53.994690 +0530,
10,practice_images/182a.jpg,8,8,1,f,None,,,1.7165041999978712,0.20055199999478646,,,,,,,1,8,8,,,,424.471314800001,,,,,,,,,,,,,,,,,,,,,,,,,,,,,,424.455529800005,424.471314800001,424.9716194000066,424.95507290000387,424.95640190000995,424.9716194000066,424.9716194000066,424.9716194000066,427.95512870000675,f,427.9551674000104,,,427.9551799000037,None,,,427.97138400000404,427.97138400000404,427.97138400000404,1.7165041999978712,0.20055199999478646,,,,,,,,,,,,,,,,,,,,,,,,,,,,,,,,,,,00034,001,2026-01-16_11h55.32.155,MST_task,2024.2.0,59.942299544470025,2026-01-16 11h55.53.994690 +0530,
7,practice_images/166a.jpg,9,9,1,f,None,,,2.7280496999883326,0.23224200001277495,,,,,,,1,9,9,,,,427.97138400000404,,,,,,,,,,,,,,,,,,,,,,,,,,,,,,427.955243400007,427.97138400000404,428.471575100004,428.45503800000006,428.4563955000049,428.471575100004,428.471575100004,428.471575100004,431.4551853000012,f,431.45522390000406,,,431.4552360000089,None,,,431.47153180000896,431.47153180000896,431.47153180000896,2.7280496999883326,0.23224200001277495,,,,,,,,,,,,,,,,,,,,,,,,,,,,,,,,,,,00034,001,2026-01-16_11h55.32.155,MST_task,2024.2.0,59.942299544470025,2026-01-16 11h55.53.994690 +0530,
,,,,,,,,,,,,,,,,,,,,,,,,,,,,,,,,,,,,,,,,,,,,,,,,,,,,,,,,,,,,,,,,,,,,,,,,,,,431.4552776000055,431.47153180000896,431.47153180000896,492.438676500009,space,60.9519650000002,None,,,,,,,,,,,,,,,,,,,,,,,,,,,,00034,001,2026-01-16_11h55.32.155,MST_task,2024.2.0,59.942299544470025,2026-01-16 11h55.53.994690 +0530,
,Scenes\177a.jpg,0,0,1,,,,,,,j,2.508616199993412,0.20755500000086613,None,,,,,,1,0,0,492.4547134000022,,,,,,,,,,,,,,,,,,,,,,,,,,,,,,492.43947630000184,492.4547134000022,492.955226200007,492.9383963,,,,,,,,,,,,,,,,,,,,,,,,,,492.9474048999982,492.955226200007,492.955226200007,492.955226200007,495.9547362000012,495.9547362000012,495.9547362000012,495.9386766000098,j,2.508616199993412,0.20755500000086613,495.94034680000914,495.9403658000083,None,,,,,,,,,,,,,,00034,001,2026-01-16_11h55.32.155,MST_task,2024.2.0,59.942299544470025,2026-01-16 11h55.53.994690 +0530,
,Scenes\159a.jpg,1,0,2,,,,,,,j,1.9764084999915212,0.24036700000579003,None,,,,,,2,0,1,495.9547362000012,,,,,,,,,,,,,,,,,,,,,,,,,,,,,,495.9404440000071,495.9547362000012,496.46319599999697,496.43849610000325,,,,,,,,,,,,,,,,,,,,,,,,,,496.46054770000046,496.46319599999697,496.46319599999697,496.46319599999697,,,,499.45516599999974,j,1.9764084999915212,0.24036700000579003,499.4552112000092,499.45522280001023,None,,,,,,,,,,,,,,00034,001,2026-01-16_11h55.32.155,MST_task,2024.2.0,59.942299544470025,2026-01-16 11h55.53.994690 +0530,
,Scenes\046a.jpg,2,0,3,,,,,,,j,2.1404161999962525,0.25489970001217443,None,,,,,,3,0,2,499.47155770000245,,,,,,,,,,,,,,,,,,,,,,,,,,,,,,499.45531600000686,499.47155770000245,499.9721872000082,499.9551524999988,,,,,,,,,,,,,,,,,,,,,,,,,,499.96734030000516,499.9721872000082,499.9721872000082,499.9721872000082,502.97144330000447,502.97144330000447,502.97144330000447,502.9555735000031,j,2.1404161999962525,0.25489970001217443,502.95561859999725,502.955629700009,None,,,,,,,,,,,,,,00034,001,2026-01-16_11h55.32.155,MST_task,2024.2.0,59.942299544470025,2026-01-16 11h55.53.994690 +0530,
,Scenes\009a.jpg,3,0,4,,,,,,,f,1.7833911000052467,0.23210559999279212,None,,,,,,4,0,3,502.97144330000447,,,,,,,,,,,,,,,,,,,,,,,,,,,,,,502.9557258999994,502.97144330000447,503.47202280000784,503.45522030000575,,,,,,,,,,,,,,,,,,,,,,,,,,503.46502170000167,503.47202280000784,503.47202280000784,503.47202280000784,506.4714457000082,506.4714457000082,506.4714457000082,506.4556135000021,f,1.7833911000052467,0.23210559999279212,506.4556575000024,506.45566849999886,None,,,,,,,,,,,,,,00034,001,2026-01-16_11h55.32.155,MST_task,2024.2.0,59.942299544470025,2026-01-16 11h55.53.994690 +0530,
,Scenes\062a.jpg,4,0,5,,,,,,,j,2.507334699999774,0.2484149000083562,None,,,,,,5,0,4,506.4714457000082,,,,,,,,,,,,,,,,,,,,,,,,,,,,,,506.45573319999676,506.4714457000082,506.9721320999961,506.95506960000785,,,,,,,,,,,,,,,,,,,,,,,,,,506.9654833000095,506.9721320999961,506.9721320999961,506.9721320999961,509.9714660000027,509.9714660000027,509.9714660000027,509.95558439999877,j,2.507334699999774,0.2484149000083562,509.9556273000053,509.955638200001,None,,,,,,,,,,,,,,00034,001,2026-01-16_11h55.32.155,MST_task,2024.2.0,59.942299544470025,2026-01-16 11h55.53.994690 +0530,
,Scenes\178a.jpg,5,0,6,,,,,,,j,1.7432503000018187,0.28107420000014827,None,,,,,,6,0,5,509.9714660000027,,,,,,,,,,,,,,,,,,,,,,,,,,,,,,509.9557320000022,509.9714660000027,510.4720382000087,510.45517230000405,,,,,,,,,,,,,,,,,,,,,,,,,,510.4618641999987,510.4720382000087,510.4720382000087,510.4720382000087,513.4715736000071,513.4715736000071,513.4715736000071,513.4557687000051,j,1.7432503000018187,0.28107420000014827,513.455825099998,513.4558365999983,None,,,,,,,,,,,,,,00034,001,2026-01-16_11h55.32.155,MST_task,2024.2.0,59.942299544470025,2026-01-16 11h55.53.994690 +0530,
,Scenes\096a.jpg,6,0,7,,,,,,,j,2.619675100009772,0.23292209999635816,None,,,,,,7,0,6,513.4715736000071,,,,,,,,,,,,,,,,,,,,,,,,,,,,,,513.4559032999969,513.4715736000071,513.9716061000072,513.9552548000065,,,,,,,,,,,,,,,,,,,,,,,,,,513.9610601000022,513.9716061000072,513.9716061000072,513.9716061000072,516.9715236000047,516.9715236000047,516.9715236000047,516.9555185000063,j,2.619675100009772,0.23292209999635816,516.9555626000074,516.9555735000031,None,,,,,,,,,,,,,,00034,001,2026-01-16_11h55.32.155,MST_task,2024.2.0,59.942299544470025,2026-01-16 11h55.53.994690 +0530,
,Objects\177a.jpg,7,0,8,,,,,,,j,2.623587200010661,0.22398769999563228,None,,,,,,8,0,7,516.9715236000047,,,,,,,,,,,,,,,,,,,,,,,,,,,,,,516.9556681999966,516.9715236000047,517.4719794999983,517.4551894000033,,,,,,,,,,,,,,,,,,,,,,,,,,517.4602538000036,517.4719794999983,517.4719794999983,517.4719794999983,520.4714670999965,520.4714670999965,520.4714670999965,520.45545210001,j,2.623587200010661,0.22398769999563228,520.4585958000098,520.4586140000029,None,,,,,,,,,,,,,,00034,001,2026-01-16_11h55.32.155,MST_task,2024.2.0,59.942299544470025,2026-01-16 11h55.53.994690 +0530,
,Objects\172a.jpg,8,0,9,,,,,,,None,,,j,0.0444642000074964,None,,,,9,0,8,520.4714670999965,,,,,,,,,,,,,,,,,,,,,,,,,,,,,,520.4587175000052,520.4714670999965,520.9717384999967,520.9557491000014,,,,,,,,,,,,,,,,,,,,,,,,,,520.958652900008,520.9717384999967,520.9717384999967,520.9717384999967,523.9714464999997,523.9714464999997,523.9714464999997,523.9555705000093,None,,,523.9556094,524.022037600007,j,523.9714464999997,523.9714464999997,0.0444642000074964,None,,,,,,,,,,00034,001,2026-01-16_11h55.32.155,MST_task,2024.2.0,59.942299544470025,2026-01-16 11h55.53.994690 +0530,
,Objects\120a.jpg,9,0,10,,,,,,,f,1.4131098000070779,0.19205339999462012,None,,,,,,10,0,9,524.0381826000084,,,,,,,,,,,,,,,,,,,,,,,,,,,,,,524.0221610000008,524.0381826000084,524.5384134000051,524.5219375000015,,,,,,,,,,,,,,,,,,,,,,,,,,524.524416900007,524.5384134000051,524.5384134000051,524.5384134000051,527.5382086000027,527.5382086000027,527.5382086000027,527.5222052000026,f,1.4131098000070779,0.19205339999462012,527.5222786000086,527.5222915000049,None,,,,,,,,,,,,,,00034,001,2026-01-16_11h55.32.155,MST_task,2024.2.0,59.942299544470025,2026-01-16 11h55.53.994690 +0530,
,Objects\038a.jpg,10,0,11,,,,,,,f,1.5775422000006074,0.20008169999346137,None,,,,,,11,0,10,527.5382086000027,,,,,,,,,,,,,,,,,,,,,,,,,,,,,,527.522361700001,527.5382086000027,528.0384219999978,528.0217516999983,,,,,,,,,,,,,,,,,,,,,,,,,,528.02423000001,528.0384219999978,528.0384219999978,528.0384219999978,531.0381686000037,531.0381686000037,531.0381686000037,531.0221275000076,f,1.5775422000006074,0.20008169999346137,531.0221690000035,531.0221798999992,None,,,,,,,,,,,,,,00034,001,2026-01-16_11h55.32.155,MST_task,2024.2.0,59.942299544470025,2026-01-16 11h55.53.994690 +0530,
,Objects\173a.jpg,11,0,12,,,,,,,f,1.9579605000035372,0.19995519999065436,None,,,,,,12,0,11,531.0381686000037,,,,,,,,,,,,,,,,,,,,,,,,,,,,,,531.0222765000071,531.0381686000037,531.5384450999991,531.5218047000089,,,,,,,,,,,,,,,,,,,,,,,,,,531.5245093999984,531.5384450999991,531.5384450999991,531.5384450999991,534.5381300000008,534.5381300000008,534.5381300000008,534.521986000007,f,1.9579605000035372,0.19995519999065436,534.5220354000048,534.5220466000028,None,,,,,,,,,,,,,,00034,001,2026-01-16_11h55.32.155,MST_task,2024.2.0,59.942299544470025,2026-01-16 11h55.53.994690 +0530,
,Objects\131a.jpg,12,0,13,,,,,,,None,,,f,0.10548779999953695,None,,,,13,0,12,534.5381300000008,,,,,,,,,,,,,,,,,,,,,,,,,,,,,,534.5221540000057,534.5381300000008,535.0383176000032,535.0215409000084,,,,,,,,,,,,,,,,,,,,,,,,,,535.0244454000058,535.0383176000032,535.0383176000032,535.0383176000032,538.0383163000079,538.0383163000079,538.0383163000079,538.022203600005,None,,,538.0222469,538.1554866000079,f,538.0383163000079,538.0383163000079,0.10548779999953695,None,,,,,,,,,,00034,001,2026-01-16_11h55.32.155,MST_task,2024.2.0,59.942299544470025,2026-01-16 11h55.53.994690 +0530,
,Objects\028a.jpg,13,0,14,,,,,,,j,1.5516484999970999,0.2079756000021007,None,,,,,,14,0,13,538.1715621000039,,,,,,,,,,,,,,,,,,,,,,,,,,,,,,538.155574999997,538.1715621000039,538.6716730000044,538.6551743000018,,,,,,,,,,,,,,,,,,,,,,,,,,538.6578109999973,538.6716730000044,538.6716730000044,538.6716730000044,541.6714478000067,541.6714478000067,541.6714478000067,541.6554826000065,j,1.5516484999970999,0.2079756000021007,541.6555249000085,541.6555360000057,None,,,,,,,,,,,,,,00034,001,2026-01-16_11h55.32.155,MST_task,2024.2.0,59.942299544470025,2026-01-16 11h55.53.994690 +0530,
,Scenes\153a.jpg,14,0,15,,,,,,,j,2.1639194000017596,0.19999780000944156,None,,,,,,15,0,14,541.6714478000067,,,,,,,,,,,,,,,,,,,,,,,,,,,,,,541.6556320000091,541.6714478000067,542.1719508000097,542.1551437000016,,,,,,,,,,,,,,,,,,,,,,,,,,542.1635939999978,542.1719508000097,542.1719508000097,542.1719508000097,545.1715728999989,545.1715728999989,545.1715728999989,545.1553554999991,j,2.1639194000017596,0.19999780000944156,545.157006399997,545.1570244000031,None,,,,,,,,,,,,,,00034,001,2026-01-16_11h55.32.155,MST_task,2024.2.0,59.942299544470025,2026-01-16 11h55.53.994690 +0530,
,Scenes\089a.jpg,15,0,16,,,,,,,j,2.4957101000036346,0.2161991000029957,None,,,,,,16,0,15,545.1715728999989,,,,,,,,,,,,,,,,,,,,,,,,,,,,,,545.1571248999971,545.1715728999989,545.6721163000038,545.65512760001,,,,,,,,,,,,,,,,,,,,,,,,,,545.667953199998,545.6721163000038,545.6721163000038,545.6721163000038,548.6715740000072,548.6715740000072,548.6715740000072,548.6554670000041,j,2.4957101000036346,0.2161991000029957,548.6555127000029,548.6555240000016,None,,,,,,,,,,,,,,00034,001,2026-01-16_11h55.32.155,MST_task,2024.2.0,59.942299544470025,2026-01-16 11h55.53.994690 +0530,
,Scenes\063a.jpg,16,0,17,,,,,,,None,,,j,0.11657929999637417,None,,,,17,0,16,548.6715740000072,,,,,,,,,,,,,,,,,,,,,,,,,,,,,,548.6555891000025,548.6715740000072,549.1721184000053,549.1550831000059,,,,,,,,,,,,,,,,,,,,,,,,,,549.1640576000063,549.1721184000053,549.1721184000053,549.1721184000053,552.1715916000103,552.1715916000103,552.1715916000103,552.1554114000028,None,,,552.155450899998,552.2888287000096,j,552.1715916000103,552.1715916000103,0.11657929999637417,None,,,,,,,,,,00034,001,2026-01-16_11h55.32.155,MST_task,2024.2.0,59.942299544470025,2026-01-16 11h55.53.994690 +0530,
,Scenes\157a.jpg,17,0,18,,,,,,,j,1.9698461000079988,0.23997519999102224,None,,,,,,18,0,17,552.3048857999966,,,,,,,,,,,,,,,,,,,,,,,,,,,,,,552.288956999997,552.3048857999966,552.8054571999965,552.7885051000048,,,,,,,,,,,,,,,,,,,,,,,,,,552.7961696999992,552.8054571999965,552.8054571999965,552.8054571999965,555.8048525000049,555.8048525000049,555.8048525000049,555.788842599999,j,1.9698461000079988,0.23997519999102224,555.7888856000063,555.7888970000058,None,,,,,,,,,,,,,,00034,001,2026-01-16_11h55.32.155,MST_task,2024.2.0,59.942299544470025,2026-01-16 11h55.53.994690 +0530,
,Scenes\143a.jpg,18,0,19,,,,,,,j,1.7108729000028688,0.2230196999880718,None,,,,,,19,0,18,555.8048525000049,,,,,,,,,,,,,,,,,,,,,,,,,,,,,,555.7889931999962,555.8048525000049,556.3054078999994,556.288515799999,,,,,,,,,,,,,,,,,,,,,,,,,,556.2989637999999,556.3054078999994,556.3054078999994,556.3054078999994,559.3048431000061,559.3048431000061,559.3048431000061,559.288709600005,j,1.7108729000028688,0.2230196999880718,559.2887644000002,559.2887754999974,None,,,,,,,,,,,,,,00034,001,2026-01-16_11h55.32.155,MST_task,2024.2.0,59.942299544470025,2026-01-16 11h55.53.994690 +0530,
,Scenes\005a.jpg,19,0,20,,,,,,,f,1.8181550000008428,0.2815365999995265,None,,,,,,20,0,19,559.3048431000061,,,,,,,,,,,,,,,,,,,,,,,,,,,,,,559.2888744000084,559.3048431000061,559.80541120001,559.7883499000018,,,,,,,,,,,,,,,,,,,,,,,,,,559.7961122999986,559.80541120001,559.80541120001,559.80541120001,562.804819099998,562.804819099998,562.804819099998,562.7887967999995,f,1.8181550000008428,0.2815365999995265,562.7888387999992,562.7888492000056,None,,,,,,,,,,,,,,00034,001,2026-01-16_11h55.32.155,MST_task,2024.2.0,59.942299544470025,2026-01-16 11h55.53.994690 +0530,
,Scenes\045a.jpg,20,0,21,,,,,,,j,2.7426476999971783,None,None,,,,,,21,0,20,562.804819099998,,,,,,,,,,,,,,,,,,,,,,,,,,,,,,562.7889139000035,562.804819099998,563.3055364000029,563.2884038000047,,,,,,,,,,,,,,,,,,,,,,,,,,563.2998977000098,563.3055364000029,563.3055364000029,563.3055364000029,566.3048186000087,566.3048186000087,566.3048186000087,566.2890065999964,j,2.7426476999971783,None,566.2890514000028,566.2890627000015,None,,,,,,,,,,,,,,00034,001,2026-01-16_11h55.32.155,MST_task,2024.2.0,59.942299544470025,2026-01-16 11h55.53.994690 +0530,
,Objects\114a.jpg,21,0,22,,,,,,,f,1.7953366000001552,0.1669192999979714,None,,,,,,22,0,21,566.3048186000087,,,,,,,,,,,,,,,,,,,,,,,,,,,,,,566.2891386999981,566.3048186000087,566.8053931000031,566.7883795000089,,,,,,,,,,,,,,,,,,,,,,,,,,566.7938042000023,566.8053931000031,566.8053931000031,566.8053931000031,569.8048159000027,569.8048159000027,569.8048159000027,569.7886831000069,f,1.7953366000001552,0.1669192999979714,569.7907730000006,569.7907897999976,None,,,,,,,,,,,,,,00034,001,2026-01-16_11h55.32.155,MST_task,2024.2.0,59.942299544470025,2026-01-16 11h55.53.994690 +0530,
,Objects\055a.jpg,22,0,23,,,,,,,f,1.3344489000010071,0.17619119999289978,None,,,,,,23,0,22,569.8048159000027,,,,,,,,,,,,,,,,,,,,,,,,,,,,,,569.7908721999993,569.8048159000027,570.3050413000019,570.2883738000091,,,,,,,,,,,,,,,,,,,,,,,,,,570.2911227000004,570.3050413000019,570.3050413000019,570.3050413000019,573.3048249999993,573.3048249999993,573.3048249999993,573.2889062000031,f,1.3344489000010071,0.17619119999289978,573.2889496999996,573.2889606999961,None,,,,,,,,,,,,,,00034,001,2026-01-16_11h55.32.155,MST_task,2024.2.0,59.942299544470025,2026-01-16 11h55.53.994690 +0530,
,Objects\122a.jpg,23,0,24,,,,,,,None,,,f,0.15584819999639876,None,,,,24,0,23,573.3048249999993,,,,,,,,,,,,,,,,,,,,,,,,,,,,,,573.2890275999962,573.3048249999993,573.8050379000051,573.7885397000064,,,,,,,,,,,,,,,,,,,,,,,,,,573.7911212000035,573.8050379000051,573.8050379000051,573.8050379000051,576.8048451000068,576.8048451000068,576.8048451000068,576.7886701000098,None,,,576.788719300006,576.9718766000005,f,576.8048451000068,576.8048451000068,0.15584819999639876,None,,,,,,,,,,00034,001,2026-01-16_11h55.32.155,MST_task,2024.2.0,59.942299544470025,2026-01-16 11h55.53.994690 +0530,
,Objects\167a.jpg,24,0,25,,,,,,,None,,,f,0.576062499996624,None,,,,25,0,24,576.9882225000038,,,,,,,,,,,,,,,,,,,,,,,,,,,,,,576.9719659999973,576.9882225000038,577.4883296000044,577.4716607000009,,,,,,,,,,,,,,,,,,,,,,,,,,577.474721999999,577.4883296000044,577.4883296000044,577.4883296000044,580.4881289000041,580.4881289000041,580.4881289000041,580.4719787000067,None,,,580.4720178999996,581.0718409999972,f,580.4881289000041,580.4881289000041,0.576062499996624,None,,,,,,,,,,00034,001,2026-01-16_11h55.32.155,MST_task,2024.2.0,59.942299544470025,2026-01-16 11h55.53.994690 +0530,
,Objects\118a.jpg,25,0,26,,,,,,,f,1.7550384999922244,0.17599740000150632,None,,,,,,26,0,25,581.0882237000042,,,,,,,,,,,,,,,,,,,,,,,,,,,,,,581.071930200007,581.0882237000042,581.5883517000038,581.5718080000079,,,,,,,,,,,,,,,,,,,,,,,,,,581.5750426000013,581.5883517000038,581.5883517000038,581.5883517000038,584.5880926999962,584.5880926999962,584.5880926999962,584.5719976999972,f,1.7550384999922244,0.17599740000150632,584.5720412000082,584.5720520000032,None,,,,,,,,,,,,,,00034,001,2026-01-16_11h55.32.155,MST_task,2024.2.0,59.942299544470025,2026-01-16 11h55.53.994690 +0530,
,Objects\017a.jpg,26,0,27,,,,,,,f,2.3991775999893434,0.2159589000075357,None,,,,,,27,0,26,584.5880926999962,,,,,,,,,,,,,,,,,,,,,,,,,,,,,,584.5721220999985,584.5880926999962,585.0883890999976,585.0716724000085,,,,,,,,,,,,,,,,,,,,,,,,,,585.0741697000049,585.0883890999976,585.0883890999976,585.0883890999976,588.0883232000051,588.0883232000051,588.0883232000051,588.0721313999966,f,2.3991775999893434,0.2159589000075357,588.0721889999986,588.0722007000004,None,,,,,,,,,,,,,,00034,001,2026-01-16_11h55.32.155,MST_task,2024.2.0,59.942299544470025,2026-01-16 11h55.53.994690 +0530,
,Objects\109a.jpg,27,0,28,,,,,,,j,2.3391301999945426,0.22462590000941418,None,,,,,,28,0,27,588.0883232000051,,,,,,,,,,,,,,,,,,,,,,,,,,,,,,588.072271099998,588.0883232000051,588.5883696000092,588.5716793000029,,,,,,,,,,,,,,,,,,,,,,,,,,588.5742434999993,588.5883696000092,588.5883696000092,588.5883696000092,591.58817860001,591.58817860001,591.58817860001,591.5718770000094,j,2.3391301999945426,0.22462590000941418,591.5719203000044,591.5719312000001,None,,,,,,,,,,,,,,00034,001,2026-01-16_11h55.32.155,MST_task,2024.2.0,59.942299544470025,2026-01-16 11h55.53.994690 +0530,
,Scenes\021a.jpg,28,0,29,,,,,,,j,2.4000739000039175,0.23102819999621715,None,,,,,,29,0,28,591.58817860001,,,,,,,,,,,,,,,,,,,,,,,,,,,,,,591.5720440000005,591.58817860001,592.0886385000049,592.0716199000017,,,,,,,,,,,,,,,,,,,,,,,,,,592.0823820000078,592.0886385000049,592.0886385000049,592.0886385000049,595.0881653000106,595.0881653000106,595.0881653000106,595.0719767999981,j,2.4000739000039175,0.23102819999621715,595.073564899998,595.0735827000026,None,,,,,,,,,,,,,,00034,001,2026-01-16_11h55.32.155,MST_task,2024.2.0,59.942299544470025,2026-01-16 11h55.53.994690 +0530,
,Scenes\186a.jpg,29,0,30,,,,,,,None,,,j,0.595443999991403,None,,,,30,0,29,595.0881653000106,,,,,,,,,,,,,,,,,,,,,,,,,,,,,,595.0736518000049,595.0881653000106,595.5888066000043,595.5718065999972,,,,,,,,,,,,,,,,,,,,,,,,,,595.5783289999963,595.5888066000043,595.5888066000043,595.5888066000043,598.5881950000039,598.5881950000039,598.5881950000039,598.5718733000103,None,,,598.5719153999962,599.1885962000088,j,598.5881950000039,598.5881950000039,0.595443999991403,None,,,,,,,,,,00034,001,2026-01-16_11h55.32.155,MST_task,2024.2.0,59.942299544470025,2026-01-16 11h55.53.994690 +0530,
,Scenes\168a.jpg,30,0,31,,,,,,,j,1.3745313999970676,0.2085777999891434,None,,,,,,31,0,30,599.2047852999967,,,,,,,,,,,,,,,,,,,,,,,,,,,,,,599.1886945000006,599.2047852999967,599.7056769000046,599.6884457999986,,,,,,,,,,,,,,,,,,,,,,,,,,599.7033617999987,599.7056769000046,599.7056769000046,599.7056769000046,602.7048252000095,602.7048252000095,602.7048252000095,602.6886637999996,j,1.3745313999970676,0.2085777999891434,602.6887081000023,602.6887193000002,None,,,,,,,,,,,,,,00034,001,2026-01-16_11h55.32.155,MST_task,2024.2.0,59.942299544470025,2026-01-16 11h55.53.994690 +0530,
,Scenes\091a.jpg,31,0,32,,,,,,,j,2.098777199993492,0.2157541000051424,None,,,,,,32,0,31,602.7048252000095,,,,,,,,,,,,,,,,,,,,,,,,,,,,,,602.6887833000073,602.7048252000095,603.2053977000032,603.18855050001,,,,,,,,,,,,,,,,,,,,,,,,,,603.1949786000041,603.2053977000032,603.2053977000032,603.2053977000032,606.2048699000006,606.2048699000006,606.2048699000006,606.1886893000046,j,2.098777199993492,0.2157541000051424,606.1887348000018,606.188756100004,None,,,,,,,,,,,,,,00034,001,2026-01-16_11h55.32.155,MST_task,2024.2.0,59.942299544470025,2026-01-16 11h55.53.994690 +0530,
,Scenes\072a.jpg,32,0,33,,,,,,,j,2.262087800001609,0.2246294999931706,None,,,,,,33,0,32,606.2048699000006,,,,,,,,,,,,,,,,,,,,,,,,,,,,,,606.1888550000003,606.2048699000006,606.7054042000091,606.6885960000072,,,,,,,,,,,,,,,,,,,,,,,,,,606.6983619000093,606.7054042000091,606.7054042000091,606.7054042000091,609.7048348000098,609.7048348000098,609.7048348000098,609.6886132000072,j,2.262087800001609,0.2246294999931706,609.6886555000092,609.6886663000041,None,,,,,,,,,,,,,,00034,001,2026-01-16_11h55.32.155,MST_task,2024.2.0,59.942299544470025,2026-01-16 11h55.53.994690 +0530,
,Scenes\002a.jpg,33,0,34,,,,,,,None,,,j,0.21130579999589827,None,,,,34,0,33,609.7048348000098,,,,,,,,,,,,,,,,,,,,,,,,,,,,,,609.6887647999974,609.7048348000098,610.2056461000029,610.1883973000076,,,,,,,,,,,,,,,,,,,,,,,,,,610.1998944000079,610.2056461000029,610.2056461000029,610.2056461000029,613.2048426999972,613.2048426999972,613.2048426999972,613.1886185000039,None,,,613.1886571000068,613.4217369999969,j,613.2048426999972,613.2048426999972,0.21130579999589827,None,,,,,,,,,,00034,001,2026-01-16_11h55.32.155,MST_task,2024.2.0,59.942299544470025,2026-01-16 11h55.53.994690 +0530,
,Scenes\031a.jpg,34,0,35,,,,,,,f,2.7991834999993443,None,None,,,,,,35,0,34,613.4381844000018,,,,,,,,,,,,,,,,,,,,,,,,,,,,,,613.4218518999987,613.4381844000018,613.9387848000042,613.9215826,,,,,,,,,,,,,,,,,,,,,,,,,,613.9322831000027,613.9387848000042,613.9387848000042,613.9387848000042,,,,616.9218933000084,f,2.7991834999993443,None,616.9219760999986,616.9219918000017,None,,,,,,,,,,,,,,00034,001,2026-01-16_11h55.32.155,MST_task,2024.2.0,59.942299544470025,2026-01-16 11h55.53.994690 +0530,
,Objects\124a.jpg,35,0,36,,,,,,,j,1.9926618000026792,0.2319203000079142,None,,,,,,36,0,35,616.9381970000104,,,,,,,,,,,,,,,,,,,,,,,,,,,,,,616.9220945999987,616.9381970000104,617.4387323999981,617.4218389000016,,,,,,,,,,,,,,,,,,,,,,,,,,617.4345838000008,617.4387323999981,617.4387323999981,617.4387323999981,620.4383128000045,620.4383128000045,620.4383128000045,620.4221987000055,j,1.9926618000026792,0.2319203000079142,620.4247064000083,620.4247248000029,None,,,,,,,,,,,,,,00034,001,2026-01-16_11h55.32.155,MST_task,2024.2.0,59.942299544470025,2026-01-16 11h55.53.994690 +0530,
,Objects\043a.jpg,36,0,37,,,,,,,f,2.404855899992981,0.21596230000432115,None,,,,,,37,0,36,620.4383128000045,,,,,,,,,,,,,,,,,,,,,,,,,,,,,,620.4248269000091,620.4383128000045,620.9384921000019,620.9217046999984,,,,,,,,,,,,,,,,,,,,,,,,,,620.9244190000027,620.9384921000019,620.9384921000019,620.9384921000019,623.9382198000094,623.9382198000094,623.9382198000094,623.9221868000022,f,2.404855899992981,0.21596230000432115,623.9222298000095,623.9222407000052,None,,,,,,,,,,,,,,00034,001,2026-01-16_11h55.32.155,MST_task,2024.2.0,59.942299544470025,2026-01-16 11h55.53.994690 +0530,
,Objects\064a.jpg,37,0,38,,,,,,,f,0.9144073999923421,0.2310874000104377,None,,,,,,38,0,37,623.9382198000094,,,,,,,,,,,,,,,,,,,,,,,,,,,,,,623.92230440001,623.9382198000094,624.4384719000082,624.4218322000088,,,,,,,,,,,,,,,,,,,,,,,,,,624.4243140000035,624.4384719000082,624.4384719000082,624.4384719000082,627.4382962000091,627.4382962000091,627.4382962000091,627.4221112000087,f,0.9144073999923421,0.2310874000104377,627.4221553000098,627.4221661000047,None,,,,,,,,,,,,,,00034,001,2026-01-16_11h55.32.155,MST_task,2024.2.0,59.942299544470025,2026-01-16 11h55.53.994690 +0530,
,Objects\088a.jpg,38,0,39,,,,,,,f,2.6448176999983843,0.2087242999987211,None,,,,,,39,0,38,627.4382962000091,,,,,,,,,,,,,,,,,,,,,,,,,,,,,,627.4222614000028,627.4382962000091,627.9385093000019,627.9217130000034,,,,,,,,,,,,,,,,,,,,,,,,,,627.9244164999982,627.9385093000019,627.9385093000019,627.9385093000019,630.9382581999962,630.9382581999962,630.9382581999962,630.9221509000054,f,2.6448176999983843,0.2087242999987211,630.9221953000088,630.922206800009,None,,,,,,,,,,,,,,00034,001,2026-01-16_11h55.32.155,MST_task,2024.2.0,59.942299544470025,2026-01-16 11h55.53.994690 +0530,
,Objects\056a.jpg,39,0,40,,,,,,,None,,,f,0.1863249000016367,None,,,,40,0,39,630.9382581999962,,,,,,,,,,,,,,,,,,,,,,,,,,,,,,630.9223054000031,630.9382581999962,631.4385689000046,631.4220571000042,,,,,,,,,,,,,,,,,,,,,,,,,,631.4246996000002,631.4385689000046,631.4385689000046,631.4385689000046,634.4382985999982,634.4382985999982,634.4382985999982,634.4220309000084,None,,,634.4220701000013,634.6387260000047,f,634.4382985999982,634.4382985999982,0.1863249000016367,None,,,,,,,,,,00034,001,2026-01-16_11h55.32.155,MST_task,2024.2.0,59.942299544470025,2026-01-16 11h55.53.994690 +0530,
,Objects\170a.jpg,40,0,41,,,,,,,None,,,f,1.5169062999921152,None,,,,41,0,40,634.6550156000012,,,,,,,,,,,,,,,,,,,,,,,,,,,,,,634.6388103000063,634.6550156000012,635.1550371000048,635.138646300009,,,,,,,,,,,,,,,,,,,,,,,,,,635.1415565000061,635.1550371000048,635.1550371000048,635.1550371000048,638.1549509000033,638.1549509000033,638.1549509000033,638.1387552000087,None,,,638.1387946000032,639.689117300004,f,638.1549509000033,638.1549509000033,1.5169062999921152,None,,,,,,,,,,00034,001,2026-01-16_11h55.32.155,MST_task,2024.2.0,59.942299544470025,2026-01-16 11h55.53.994690 +0530,
,Objects\083a.jpg,41,0,42,,,,,,,f,0.9541831999958958,0.20101679999788757,None,,,,,,42,0,41,639.7048630000063,,,,,,,,,,,,,,,,,,,,,,,,,,,,,,639.6892168000049,639.7048630000063,640.2051550000033,640.1885614000057,,,,,,,,,,,,,,,,,,,,,,,,,,640.1913827999961,640.2051550000033,640.2051550000033,640.2051550000033,643.2048894000036,643.2048894000036,643.2048894000036,643.1887293000036,f,0.9541831999958958,0.20101679999788757,643.1887736000062,643.1887888000056,None,,,,,,,,,,,,,,00034,001,2026-01-16_11h55.32.155,MST_task,2024.2.0,59.942299544470025,2026-01-16 11h55.53.994690 +0530,
,Scenes\077a.jpg,42,0,43,,,,,,,j,1.5980969999945955,0.20795219999854453,None,,,,,,43,0,42,643.2048894000036,,,,,,,,,,,,,,,,,,,,,,,,,,,,,,643.188856000008,643.2048894000036,643.7054422000074,643.6885006000084,,,,,,,,,,,,,,,,,,,,,,,,,,643.6977093000023,643.7054422000074,643.7054422000074,643.7054422000074,,,,646.6889566000027,j,1.5980969999945955,0.20795219999854453,646.6907011000003,646.6907199999987,None,,,,,,,,,,,,,,00034,001,2026-01-16_11h55.32.155,MST_task,2024.2.0,59.942299544470025,2026-01-16 11h55.53.994690 +0530,
,Scenes\185a.jpg,43,0,44,,,,,,,j,2.8346853999973973,None,None,,,,,,44,0,43,646.705026399999,,,,,,,,,,,,,,,,,,,,,,,,,,,,,,646.6907901000086,646.705026399999,647.2055136999988,647.1885207000014,,,,,,,,,,,,,,,,,,,,,,,,,,647.1951881999994,647.2055136999988,647.2055136999988,647.2055136999988,650.2048874000029,650.2048874000029,650.2048874000029,650.1887424000015,j,2.8346853999973973,None,650.1887856999965,650.1887963000045,None,,,,,,,,,,,,,,00034,001,2026-01-16_11h55.32.155,MST_task,2024.2.0,59.942299544470025,2026-01-16 11h55.53.994690 +0530,
,Scenes\118a.jpg,44,0,45,,,,,,,j,1.4551283000037074,0.2308950000006007,None,,,,,,45,0,44,650.2048874000029,,,,,,,,,,,,,,,,,,,,,,,,,,,,,,650.1888585999986,650.2048874000029,650.7054419000051,650.6884720000089,,,,,,,,,,,,,,,,,,,,,,,,,,650.6943991000007,650.7054419000051,650.7054419000051,650.7054419000051,653.7049633999995,653.7049633999995,653.7049633999995,653.6887327000004,j,1.4551283000037074,0.2308950000006007,653.6887767000007,653.6887875000102,None,,,,,,,,,,,,,,00034,001,2026-01-16_11h55.32.155,MST_task,2024.2.0,59.942299544470025,2026-01-16 11h55.53.994690 +0530,
,Scenes\039a.jpg,45,0,46,,,,,,,j,1.3065613000071608,0.18355489999521524,None,,,,,,46,0,45,653.7049633999995,,,,,,,,,,,,,,,,,,,,,,,,,,,,,,653.688885399999,653.7049633999995,654.2052139000007,654.1885467000102,,,,,,,,,,,,,,,,,,,,,,,,,,654.1937420000031,654.2052139000007,654.2052139000007,654.2052139000007,657.204991000006,657.204991000006,657.204991000006,657.1888552000019,j,1.3065613000071608,0.18355489999521524,657.1888964999962,657.1889067000011,None,,,,,,,,,,,,,,00034,001,2026-01-16_11h55.32.155,MST_task,2024.2.0,59.942299544470025,2026-01-16 11h55.53.994690 +0530,
,Scenes\003a.jpg,46,0,47,,,,,,,f,2.278994699998293,0.19989519999944605,None,,,,,,47,0,46,657.204991000006,,,,,,,,,,,,,,,,,,,,,,,,,,,,,,657.1890023000014,657.204991000006,657.705532699998,657.688485599996,,,,,,,,,,,,,,,,,,,,,,,,,,657.6988390000042,657.705532699998,657.705532699998,657.705532699998,660.7049644000072,660.7049644000072,660.7049644000072,660.6888048999972,f,2.278994699998293,0.19989519999944605,660.6888483000075,660.6888591000024,None,,,,,,,,,,,,,,00034,001,2026-01-16_11h55.32.155,MST_task,2024.2.0,59.942299544470025,2026-01-16 11h55.53.994690 +0530,
,Scenes\128a.jpg,47,0,48,,,,,,,j,1.162162199994782,0.21588690001226496,None,,,,,,48,0,47,660.7049644000072,,,,,,,,,,,,,,,,,,,,,,,,,,,,,,660.688954600002,660.7049644000072,661.2053540000052,661.1885526999977,,,,,,,,,,,,,,,,,,,,,,,,,,661.1991404,661.2053540000052,661.2053540000052,661.2053540000052,664.2049523000023,664.2049523000023,664.2049523000023,664.1888066000101,j,1.162162199994782,0.21588690001226496,664.1888498000044,664.1888607000001,None,,,,,,,,,,,,,,00034,001,2026-01-16_11h55.32.155,MST_task,2024.2.0,59.942299544470025,2026-01-16 11h55.53.994690 +0530,
,Scenes\012a.jpg,48,0,49,,,,,,,j,1.061935200006701,0.20799899999110494,None,,,,,,49,0,48,664.2049523000023,,,,,,,,,,,,,,,,,,,,,,,,,,,,,,664.1889554000081,664.2049523000023,664.7054596000089,664.6885290000064,,,,,,,,,,,,,,,,,,,,,,,,,,664.6992379000003,664.7054596000089,664.7054596000089,664.7054596000089,667.7049417000089,667.7049417000089,667.7049417000089,667.6888754999964,j,1.061935200006701,0.20799899999110494,667.6889196999982,667.6889311999985,None,,,,,,,,,,,,,,00034,001,2026-01-16_11h55.32.155,MST_task,2024.2.0,59.942299544470025,2026-01-16 11h55.53.994690 +0530,
,Objects\089a.jpg,49,0,50,,,,,,,j,1.7778970999934245,0.19995980001112912,None,,,,,,50,0,49,667.7049417000089,,,,,,,,,,,,,,,,,,,,,,,,,,,,,,667.6890293000033,667.7049417000089,668.2054440000065,668.188550100007,,,,,,,,,,,,,,,,,,,,,,,,,,668.1937596000062,668.2054440000065,668.2054440000065,668.2054440000065,671.2048414000019,671.2048414000019,671.2048414000019,671.1888795999985,j,1.7778970999934245,0.19995980001112912,671.191037800003,671.1910556000075,None,,,,,,,,,,,,,,00034,001,2026-01-16_11h55.32.155,MST_task,2024.2.0,59.942299544470025,2026-01-16 11h55.53.994690 +0530,
,Objects\079a.jpg,50,0,51,,,,,,,j,1.5821470000082627,0.22483359999023378,None,,,,,,51,0,50,671.2048414000019,,,,,,,,,,,,,,,,,,,,,,,,,,,,,,671.1911596999998,671.2048414000019,671.7051925999986,671.6885933000012,,,,,,,,,,,,,,,,,,,,,,,,,,671.691406900005,671.7051925999986,671.7051925999986,671.7051925999986,674.7049733000022,674.7049733000022,674.7049733000022,674.6887406000023,j,1.5821470000082627,0.22483359999023378,674.6887837000104,674.6887946000061,None,,,,,,,,,,,,,,00034,001,2026-01-16_11h55.32.155,MST_task,2024.2.0,59.942299544470025,2026-01-16 11h55.53.994690 +0530,
,Objects\182a.jpg,51,0,52,,,,,,,f,1.698911200001021,0.2161021000065375,None,,,,,,52,0,51,674.7049733000022,,,,,,,,,,,,,,,,,,,,,,,,,,,,,,674.6888900000049,674.7049733000022,675.2050012999971,675.188704900007,,,,,,,,,,,,,,,,,,,,,,,,,,675.19146490001,675.2050012999971,675.2050012999971,675.2050012999971,678.2049323999963,678.2049323999963,678.2049323999963,678.1887261000084,f,1.698911200001021,0.2161021000065375,678.188790900007,678.1888023000065,None,,,,,,,,,,,,,,00034,001,2026-01-16_11h55.32.155,MST_task,2024.2.0,59.942299544470025,2026-01-16 11h55.53.994690 +0530,
,Objects\125a.jpg,52,0,53,,,,,,,j,1.3117725000047358,0.20828429999528453,None,,,,,,53,0,52,678.2049323999963,,,,,,,,,,,,,,,,,,,,,,,,,,,,,,678.1888696000096,678.2049323999963,678.7050023000047,678.6883709999966,,,,,,,,,,,,,,,,,,,,,,,,,,678.6909479000024,678.7050023000047,678.7050023000047,678.7050023000047,681.7048845999961,681.7048845999961,681.7048845999961,681.6887141000043,j,1.3117725000047358,0.20828429999528453,681.6887571999978,681.6887780999969,None,,,,,,,,,,,,,,00034,001,2026-01-16_11h55.32.155,MST_task,2024.2.0,59.942299544470025,2026-01-16 11h55.53.994690 +0530,
,Objects\077a.jpg,53,0,54,,,,,,,j,1.7863108000019565,0.23353070000302978,None,,,,,,54,0,53,681.7048845999961,,,,,,,,,,,,,,,,,,,,,,,,,,,,,,681.6888756999979,681.7048845999961,682.2051528000011,682.1885965999973,,,,,,,,,,,,,,,,,,,,,,,,,,682.1913870999997,682.2051528000011,682.2051528000011,682.2051528000011,685.2048471000016,685.2048471000016,685.2048471000016,685.1890142000047,j,1.7863108000019565,0.23353070000302978,685.1890641000064,685.1890749000013,None,,,,,,,,,,,,,,00034,001,2026-01-16_11h55.32.155,MST_task,2024.2.0,59.942299544470025,2026-01-16 11h55.53.994690 +0530,
,Objects\116a.jpg,54,0,55,,,,,,,f,1.1270301999902586,0.1998786000040127,None,,,,,,55,0,54,685.2048471000016,,,,,,,,,,,,,,,,,,,,,,,,,,,,,,685.1891854999994,685.2048471000016,685.7050130999996,685.6884021000005,,,,,,,,,,,,,,,,,,,,,,,,,,685.6910362000053,685.7050130999996,685.7050130999996,685.7050130999996,688.7048697999999,688.7048697999999,688.7048697999999,688.6886363000085,f,1.1270301999902586,0.1998786000040127,688.6886806999973,688.6886912000045,None,,,,,,,,,,,,,,00034,001,2026-01-16_11h55.32.155,MST_task,2024.2.0,59.942299544470025,2026-01-16 11h55.53.994690 +0530,
,Objects\036a.jpg,55,0,56,,,,,,,None,,,f,2.9066232000041055,None,,,,56,0,55,688.7048697999999,,,,,,,,,,,,,,,,,,,,,,,,,,,,,,688.6887854000088,688.7048697999999,689.2050120000058,689.1884261000087,,,,,,,,,,,,,,,,,,,,,,,,,,689.191376200004,689.2050120000058,689.2050120000058,689.2050120000058,692.2047988999984,692.2047988999984,692.2047988999984,692.1886407999991,None,,,692.1886917000083,695.1218406999978,f,692.2047988999984,692.2047988999984,2.9066232000041055,None,,,,,,,,,,00034,001,2026-01-16_11h55.32.155,MST_task,2024.2.0,59.942299544470025,2026-01-16 11h55.53.994690 +0530,
,Scenes\149a.jpg,56,0,57,,,,,,,f,2.4183516000048257,0.23916450000251643,None,,,,,,57,0,56,695.1381159000011,,,,,,,,,,,,,,,,,,,,,,,,,,,,,,695.1219268999994,695.1381159000011,695.6386455000029,695.6216421999998,,,,,,,,,,,,,,,,,,,,,,,,,,695.632786400005,695.6386455000029,695.6386455000029,695.6386455000029,698.6382389000064,698.6382389000064,698.6382389000064,698.6224745000072,f,2.4183516000048257,0.23916450000251643,698.6242297999997,698.624250599998,None,,,,,,,,,,,,,,00034,001,2026-01-16_11h55.32.155,MST_task,2024.2.0,59.942299544470025,2026-01-16 11h55.53.994690 +0530,
,Scenes\082a.jpg,57,0,58,,,,,,,f,1.9252316999918548,0.2090714000078151,None,,,,,,58,0,57,698.6382389000064,,,,,,,,,,,,,,,,,,,,,,,,,,,,,,698.6243224000063,698.6382389000064,699.1385484000057,699.1220372000098,,,,,,,,,,,,,,,,,,,,,,,,,,699.1322725000064,699.1385484000057,699.1385484000057,699.1385484000057,702.1382849000074,702.1382849000074,702.1382849000074,702.122249100008,f,1.9252316999918548,0.2090714000078151,702.1222933999961,702.1223043000064,None,,,,,,,,,,,,,,00034,001,2026-01-16_11h55.32.155,MST_task,2024.2.0,59.942299544470025,2026-01-16 11h55.53.994690 +0530,
,Scenes\025a.jpg,58,0,59,,,,,,,j,1.137200799988932,0.19997680000960827,None,,,,,,59,0,58,702.1382849000074,,,,,,,,,,,,,,,,,,,,,,,,,,,,,,702.1224023000104,702.1382849000074,702.638781600006,702.6215298000025,,,,,,,,,,,,,,,,,,,,,,,,,,702.6328825000091,702.638781600006,702.638781600006,702.638781600006,705.6381933000084,705.6381933000084,705.6381933000084,705.6219296000054,j,1.137200799988932,0.19997680000960827,705.6219717000058,705.6219826000015,None,,,,,,,,,,,,,,00034,001,2026-01-16_11h55.32.155,MST_task,2024.2.0,59.942299544470025,2026-01-16 11h55.53.994690 +0530,
,Scenes\162a.jpg,59,0,60,,,,,,,j,2.893172500000219,None,None,,,,,,60,0,59,705.6381933000084,,,,,,,,,,,,,,,,,,,,,,,,,,,,,,705.6220465000079,705.6381933000084,706.1387908000033,706.1216808000027,,,,,,,,,,,,,,,,,,,,,,,,,,706.1283167000074,706.1387908000033,706.1387908000033,706.1387908000033,709.1381956999976,709.1381956999976,709.1381956999976,709.1220099000057,j,2.893172500000219,None,709.1220527999976,709.1220635000063,None,,,,,,,,,,,,,,00034,001,2026-01-16_11h55.32.155,MST_task,2024.2.0,59.942299544470025,2026-01-16 11h55.53.994690 +0530,
,Scenes\084a.jpg,60,0,61,,,,,,,j,1.9772294999856967,0.2315270000108285,None,,,,,,61,0,60,709.1381956999976,,,,,,,,,,,,,,,,,,,,,,,,,,,,,,709.1221596999967,709.1381956999976,709.6387252999994,709.6217813999974,,,,,,,,,,,,,,,,,,,,,,,,,,709.6323550000088,709.6387252999994,709.6387252999994,709.6387252999994,712.638283799999,712.638283799999,712.638283799999,712.6222101000021,j,1.9772294999856967,0.2315270000108285,712.6222548000078,712.6222660000058,None,,,,,,,,,,,,,,00034,001,2026-01-16_11h55.32.155,MST_task,2024.2.0,59.942299544470025,2026-01-16 11h55.53.994690 +0530,
,Scenes\107a.jpg,61,0,62,,,,,,,j,1.8613225000008242,0.1839856000005966,None,,,,,,62,0,61,712.638283799999,,,,,,,,,,,,,,,,,,,,,,,,,,,,,,712.6223618000076,712.638283799999,713.1388777000102,713.1216983000049,,,,,,,,,,,,,,,,,,,,,,,,,,713.1291375000001,713.1388777000102,713.1388777000102,713.1388777000102,716.1381306999974,716.1381306999974,716.1381306999974,716.1219665999961,j,1.8613225000008242,0.1839856000005966,716.1220094000018,716.1220208000013,None,,,,,,,,,,,,,,00034,001,2026-01-16_11h55.32.155,MST_task,2024.2.0,59.942299544470025,2026-01-16 11h55.53.994690 +0530,
,Scenes\179a.jpg,62,0,63,,,,,,,j,1.6006619000108913,0.16937539998616558,None,,,,,,63,0,62,716.1381306999974,,,,,,,,,,,,,,,,,,,,,,,,,,,,,,716.1220886000083,716.1381306999974,716.6387126000045,716.621615600001,,,,,,,,,,,,,,,,,,,,,,,,,,716.6274546000059,716.6387126000045,716.6387126000045,716.6387126000045,719.6381891000055,719.6381891000055,719.6381891000055,719.6219867000036,j,1.6006619000108913,0.16937539998616558,719.6220285000018,719.6220392999967,None,,,,,,,,,,,,,,00034,001,2026-01-16_11h55.32.155,MST_task,2024.2.0,59.942299544470025,2026-01-16 11h55.53.994690 +0530,
,Objects\018a.jpg,63,0,64,,,,,,,None,,,f,1.110113500006264,None,,,,64,0,63,719.6381891000055,,,,,,,,,,,,,,,,,,,,,,,,,,,,,,719.6221042999969,719.6381891000055,720.1386881000071,720.1217068999977,,,,,,,,,,,,,,,,,,,,,,,,,,720.1273364000081,720.1386881000071,720.1386881000071,720.1386881000071,723.1382653000037,723.1382653000037,723.1382653000037,723.1219064000034,None,,,723.1240538999991,724.2552026000048,f,723.1382653000037,723.1382653000037,1.110113500006264,None,,,,,,,,,,00034,001,2026-01-16_11h55.32.155,MST_task,2024.2.0,59.942299544470025,2026-01-16 11h55.53.994690 +0530,
,Objects\129a.jpg,64,0,65,,,,,,,f,2.2840201999933925,0.19178390000888612,None,,,,,,65,0,64,724.271393700008,,,,,,,,,,,,,,,,,,,,,,,,,,,,,,724.2553006000089,724.271393700008,724.7716327000089,724.7550304000033,,,,,,,,,,,,,,,,,,,,,,,,,,724.7578025999974,724.7716327000089,724.7716327000089,724.7716327000089,727.7713623000018,727.7713623000018,727.7713623000018,727.755341600001,f,2.2840201999933925,0.19178390000888612,727.755384700009,727.7553954000032,None,,,,,,,,,,,,,,00034,001,2026-01-16_11h55.32.155,MST_task,2024.2.0,59.942299544470025,2026-01-16 11h55.53.994690 +0530,
,Objects\001a.jpg,65,0,66,,,,,,,f,1.3048039999994216,0.23210579999431502,None,,,,,,66,0,65,727.7713623000018,,,,,,,,,,,,,,,,,,,,,,,,,,,,,,727.7554942999996,727.7713623000018,728.2716908000002,728.2550709000061,,,,,,,,,,,,,,,,,,,,,,,,,,728.2575612000073,728.2716908000002,728.2716908000002,728.2716908000002,731.2714434000081,731.2714434000081,731.2714434000081,731.2554117999971,f,1.3048039999994216,0.23210579999431502,731.2554537999968,731.2554645000055,None,,,,,,,,,,,,,,00034,001,2026-01-16_11h55.32.155,MST_task,2024.2.0,59.942299544470025,2026-01-16 11h55.53.994690 +0530,
,Objects\178a.jpg,66,0,67,,,,,,,f,2.453536000000895,0.22302259999560192,None,,,,,,67,0,66,731.2714434000081,,,,,,,,,,,,,,,,,,,,,,,,,,,,,,731.2555288000003,731.2714434000081,731.7715384000039,731.7551471000043,,,,,,,,,,,,,,,,,,,,,,,,,,731.7581798000028,731.7715384000039,731.7715384000039,731.7715384000039,734.771465400001,734.771465400001,734.771465400001,734.7554030000028,f,2.453536000000895,0.22302259999560192,734.7554458000086,734.7554562000005,None,,,,,,,,,,,,,,00034,001,2026-01-16_11h55.32.155,MST_task,2024.2.0,59.942299544470025,2026-01-16 11h55.53.994690 +0530,
,Objects\011a.jpg,67,0,68,,,,,,,f,2.3853911999904085,0.23896360000071581,None,,,,,,68,0,67,734.771465400001,,,,,,,,,,,,,,,,,,,,,,,,,,,,,,734.7555225000106,734.771465400001,735.271544800009,735.2551133000088,,,,,,,,,,,,,,,,,,,,,,,,,,735.2576287999982,735.271544800009,735.271544800009,735.271544800009,738.2715177000064,738.2715177000064,738.2715177000064,738.2557048000017,f,2.3853911999904085,0.23896360000071581,738.2557495000074,738.2557607000053,None,,,,,,,,,,,,,,00034,001,2026-01-16_11h55.32.155,MST_task,2024.2.0,59.942299544470025,2026-01-16 11h55.53.994690 +0530,
,Objects\133a.jpg,68,0,69,,,,,,,j,2.251748900001985,0.1836877000023378,None,,,,,,69,0,68,738.2715177000064,,,,,,,,,,,,,,,,,,,,,,,,,,,,,,738.2558359999966,738.2715177000064,738.771860000008,738.7552591999993,,,,,,,,,,,,,,,,,,,,,,,,,,738.7581173000071,738.771860000008,738.771860000008,738.771860000008,741.7715958000044,741.7715958000044,741.7715958000044,741.755413100007,j,2.251748900001985,0.1836877000023378,741.7554563000012,741.7554674999992,None,,,,,,,,,,,,,,00034,001,2026-01-16_11h55.32.155,MST_task,2024.2.0,59.942299544470025,2026-01-16 11h55.53.994690 +0530,
,Objects\085a.jpg,69,0,70,,,,,,,j,1.6240681000053883,0.19999999999708962,None,,,,,,70,0,69,741.7715958000044,,,,,,,,,,,,,,,,,,,,,,,,,,,,,,741.7555328000017,741.7715958000044,742.2719631000073,742.2552190999995,,,,,,,,,,,,,,,,,,,,,,,,,,742.257989500009,742.2719631000073,742.2719631000073,742.2719631000073,745.271559300003,745.271559300003,745.271559300003,745.2554776000034,j,1.6240681000053883,0.19999999999708962,745.2555200000061,745.2555313000048,None,,,,,,,,,,,,,,00034,001,2026-01-16_11h55.32.155,MST_task,2024.2.0,59.942299544470025,2026-01-16 11h55.53.994690 +0530,
,Scenes\044a.jpg,70,0,71,,,,,,,None,,,j,1.8836111999989953,None,,,,71,0,70,745.271559300003,,,,,,,,,,,,,,,,,,,,,,,,,,,,,,745.255647900005,745.271559300003,745.7721181000088,745.7552675000043,,,,,,,,,,,,,,,,,,,,,,,,,,745.7639753999974,745.7721181000088,745.7721181000088,745.7721181000088,748.7716942999978,748.7716942999978,748.7716942999978,748.7557038000086,None,,,748.7572956000076,750.6719750000047,j,748.7716942999978,748.7716942999978,1.8836111999989953,None,,,,,,,,,,00034,001,2026-01-16_11h55.32.155,MST_task,2024.2.0,59.942299544470025,2026-01-16 11h55.53.994690 +0530,
,Scenes\154a.jpg,71,0,72,,,,,,,j,2.426929299996118,0.19310859999677632,None,,,,,,72,0,71,750.6883579999994,,,,,,,,,,,,,,,,,,,,,,,,,,,,,,750.6720620999986,750.6883579999994,751.1885696999962,751.1718758000061,,,,,,,,,,,,,,,,,,,,,,,,,,751.1777799999982,751.1885696999962,751.1885696999962,751.1885696999962,754.1881863000017,754.1881863000017,754.1881863000017,754.1721073000081,j,2.426929299996118,0.19310859999677632,754.1721506000031,754.1721619000018,None,,,,,,,,,,,,,,00034,001,2026-01-16_11h55.32.155,MST_task,2024.2.0,59.942299544470025,2026-01-16 11h55.53.994690 +0530,
,Scenes\088a.jpg,72,0,73,,,,,,,j,0.998724899996887,0.23208919999888167,None,,,,,,73,0,72,754.1881863000017,,,,,,,,,,,,,,,,,,,,,,,,,,,,,,754.1722604000097,754.1881863000017,754.6889805999963,754.6717863000085,,,,,,,,,,,,,,,,,,,,,,,,,,754.6845439000026,754.6889805999963,754.6889805999963,754.6889805999963,757.688324600007,757.688324600007,757.688324600007,757.6721716000029,j,0.998724899996887,0.23208919999888167,757.6722145000094,757.6722253000044,None,,,,,,,,,,,,,,00034,001,2026-01-16_11h55.32.155,MST_task,2024.2.0,59.942299544470025,2026-01-16 11h55.53.994690 +0530,
,Scenes\112a.jpg,73,0,74,,,,,,,j,1.4509240000043064,0.22402310000325087,None,,,,,,74,0,73,757.688324600007,,,,,,,,,,,,,,,,,,,,,,,,,,,,,,757.6723241,757.688324600007,758.1890058999998,758.1719083000062,,,,,,,,,,,,,,,,,,,,,,,,,,758.181219799997,758.1890058999998,758.1890058999998,758.1890058999998,761.1883234999987,761.1883234999987,761.1883234999987,761.1722594000021,j,1.4509240000043064,0.22402310000325087,761.1723015000025,761.1723166000011,None,,,,,,,,,,,,,,00034,001,2026-01-16_11h55.32.155,MST_task,2024.2.0,59.942299544470025,2026-01-16 11h55.53.994690 +0530,
,Scenes\163a.jpg,74,0,75,,,,,,,j,1.3272333999921102,0.2002790999977151,None,,,,,,75,0,74,761.1883234999987,,,,,,,,,,,,,,,,,,,,,,,,,,,,,,761.172381299999,761.1883234999987,761.6889034000051,761.6718190000101,,,,,,,,,,,,,,,,,,,,,,,,,,761.6778056000039,761.6889034000051,761.6889034000051,761.6889034000051,764.6883231000102,764.6883231000102,764.6883231000102,764.6720434000017,j,1.3272333999921102,0.2002790999977151,764.6720861000067,764.6720968000009,None,,,,,,,,,,,,,,00034,001,2026-01-16_11h55.32.155,MST_task,2024.2.0,59.942299544470025,2026-01-16 11h55.53.994690 +0530,
,Scenes\068a.jpg,75,0,76,,,,,,,j,2.811235699991812,None,None,,,,,,76,0,75,764.6883231000102,,,,,,,,,,,,,,,,,,,,,,,,,,,,,,764.6721942000004,764.6883231000102,765.1887741999963,765.171742999999,,,,,,,,,,,,,,,,,,,,,,,,,,765.1809891000012,765.1887741999963,765.1887741999963,765.1887741999963,768.1882105999975,768.1882105999975,768.1882105999975,768.1719946000085,j,2.811235699991812,None,768.1720362000051,768.1720472000015,None,,,,,,,,,,,,,,00034,001,2026-01-16_11h55.32.155,MST_task,2024.2.0,59.942299544470025,2026-01-16 11h55.53.994690 +0530,
,Scenes\110a.jpg,76,0,77,,,,,,,j,1.3995502999896416,0.2632255000062287,None,,,,,,77,0,76,768.1882105999975,,,,,,,,,,,,,,,,,,,,,,,,,,,,,,768.1721439999965,768.1882105999975,768.6888384000049,768.6716558000044,,,,,,,,,,,,,,,,,,,,,,,,,,768.6795249999996,768.6888384000049,768.6888384000049,768.6888384000049,771.6882127999997,771.6882127999997,771.6882127999997,771.6719731000048,j,1.3995502999896416,0.2632255000062287,771.6720142999984,771.6720254999964,None,,,,,,,,,,,,,,00034,001,2026-01-16_11h55.32.155,MST_task,2024.2.0,59.942299544470025,2026-01-16 11h55.53.994690 +0530,
,Objects\046a.jpg,77,0,78,,,,,,,None,,,f,0.49961090000579134,None,,,,78,0,77,771.6882127999997,,,,,,,,,,,,,,,,,,,,,,,,,,,,,,771.6721220000036,771.6882127999997,772.1888260999986,772.1716375999968,,,,,,,,,,,,,,,,,,,,,,,,,,772.1857769000053,772.1888260999986,772.1888260999986,772.1888260999986,775.1881740000099,775.1881740000099,775.1881740000099,775.1719655000052,None,,,775.174119400006,775.6885915000021,f,775.1881740000099,775.1881740000099,0.49961090000579134,None,,,,,,,,,,00034,001,2026-01-16_11h55.32.155,MST_task,2024.2.0,59.942299544470025,2026-01-16 11h55.53.994690 +0530,
,Objects\025a.jpg,78,0,79,,,,,,,j,1.8032923999999184,0.21551919999183156,None,,,,,,79,0,78,775.7049008000031,,,,,,,,,,,,,,,,,,,,,,,,,,,,,,775.6886787999974,775.7049008000031,776.2051107000007,776.1884801999986,,,,,,,,,,,,,,,,,,,,,,,,,,776.1910592000058,776.2051107000007,776.2051107000007,776.2051107000007,779.2048309000093,779.2048309000093,779.2048309000093,779.1887860999996,j,1.8032923999999184,0.21551919999183156,779.1888283000008,779.1888392999972,None,,,,,,,,,,,,,,00034,001,2026-01-16_11h55.32.155,MST_task,2024.2.0,59.942299544470025,2026-01-16 11h55.53.994690 +0530,
,Objects\068a.jpg,79,0,80,,,,,,,None,,,f,1.2070142000011401,None,,,,80,0,79,779.2048309000093,,,,,,,,,,,,,,,,,,,,,,,,,,,,,,779.1889351999998,779.2048309000093,779.7050932999991,779.688485599996,,,,,,,,,,,,,,,,,,,,,,,,,,779.6909214000043,779.7050932999991,779.7050932999991,779.7050932999991,782.7048990000039,782.7048990000039,782.7048990000039,782.6887608999969,None,,,782.6887981000036,783.9219195000042,f,782.7048990000039,782.7048990000039,1.2070142000011401,None,,,,,,,,,,00034,001,2026-01-16_11h55.32.155,MST_task,2024.2.0,59.942299544470025,2026-01-16 11h55.53.994690 +0530,
,Objects\144a.jpg,80,0,81,,,,,,,j,2.401146100004553,0.18402429998968728,None,,,,,,81,0,80,783.9381454000104,,,,,,,,,,,,,,,,,,,,,,,,,,,,,,783.9220052000019,783.9381454000104,784.4385642999987,784.4216250000027,,,,,,,,,,,,,,,,,,,,,,,,,,784.4330855000007,784.4385642999987,784.4385642999987,784.4385642999987,787.4382428000099,787.4382428000099,787.4382428000099,787.42197760001,j,2.401146100004553,0.18402429998968728,787.4220201999997,787.422032100003,None,,,,,,,,,,,,,,00034,001,2026-01-16_11h55.32.155,MST_task,2024.2.0,59.942299544470025,2026-01-16 11h55.53.994690 +0530,
,Objects\191a.jpg,81,0,82,,,,,,,f,2.5981056000018725,0.19100000000617,None,,,,,,82,0,81,787.4382428000099,,,,,,,,,,,,,,,,,,,,,,,,,,,,,,787.422129700004,787.4382428000099,787.9384445000032,787.9217514000047,,,,,,,,,,,,,,,,,,,,,,,,,,787.9244232000055,787.9384445000032,787.9384445000032,787.9384445000032,790.9381727,790.9381727,790.9381727,790.9222198000061,f,2.5981056000018725,0.19100000000617,790.922261300002,790.9222720999969,None,,,,,,,,,,,,,,00034,001,2026-01-16_11h55.32.155,MST_task,2024.2.0,59.942299544470025,2026-01-16 11h55.53.994690 +0530,
,Objects\108a.jpg,82,0,83,,,,,,,j,1.177510399997118,0.23194040000089444,None,,,,,,83,0,82,790.9381727,,,,,,,,,,,,,,,,,,,,,,,,,,,,,,790.9223713000101,790.9381727,791.4383914000064,791.4216868000076,,,,,,,,,,,,,,,,,,,,,,,,,,791.4244217000087,791.4383914000064,791.4383914000064,791.4383914000064,794.4381785000005,794.4381785000005,794.4381785000005,794.4221066000027,j,1.177510399997118,0.23194040000089444,794.422153499996,794.4221643000055,None,,,,,,,,,,,,,,00034,001,2026-01-16_11h55.32.155,MST_task,2024.2.0,59.942299544470025,2026-01-16 11h55.53.994690 +0530,
,Objects\067a.jpg,83,0,84,,,,,,,f,2.4774376999994274,0.2237868999945931,None,,,,,,84,0,83,794.4381785000005,,,,,,,,,,,,,,,,,,,,,,,,,,,,,,794.4222677000071,794.4381785000005,794.9384492999961,794.9219199000072,,,,,,,,,,,,,,,,,,,,,,,,,,794.9310918999981,794.9384492999961,794.9384492999961,794.9384492999961,797.938155900003,797.938155900003,797.938155900003,797.9220598999964,f,2.4774376999994274,0.2237868999945931,797.9221206000075,797.9221315000032,None,,,,,,,,,,,,,,00034,001,2026-01-16_11h55.32.155,MST_task,2024.2.0,59.942299544470025,2026-01-16 11h55.53.994690 +0530,
,Scenes\079a.jpg,84,0,85,,,,,,,j,1.7293645000027027,0.16801129998930264,None,,,,,,85,0,84,797.938155900003,,,,,,,,,,,,,,,,,,,,,,,,,,,,,,797.9222007000062,797.938155900003,798.4386934000067,798.4216381000006,,,,,,,,,,,,,,,,,,,,,,,,,,798.4292642000073,798.4386934000067,798.4386934000067,798.4386934000067,801.4382372999971,801.4382372999971,801.4382372999971,801.4220849999983,j,1.7293645000027027,0.16801129998930264,801.4237528000085,801.42377020001,None,,,,,,,,,,,,,,00034,001,2026-01-16_11h55.32.155,MST_task,2024.2.0,59.942299544470025,2026-01-16 11h55.53.994690 +0530,
,Scenes\078a.jpg,85,0,86,,,,,,,None,,,j,0.9256020999891916,None,,,,86,0,85,801.4382372999971,,,,,,,,,,,,,,,,,,,,,,,,,,,,,,801.4238709000056,801.4382372999971,801.9388658000098,801.9216480000032,,,,,,,,,,,,,,,,,,,,,,,,,,801.9312590000045,801.9388658000098,801.9388658000098,801.9388658000098,804.9382137000066,804.9382137000066,804.9382137000066,804.9220231000072,None,,,804.9220713999966,805.8718874000042,j,804.9382137000066,804.9382137000066,0.9256020999891916,None,,,,,,,,,,00034,001,2026-01-16_11h55.32.155,MST_task,2024.2.0,59.942299544470025,2026-01-16 11h55.53.994690 +0530,
,Scenes\047a.jpg,86,0,87,,,,,,,j,1.131028799994965,0.21798329999728594,None,,,,,,87,0,86,805.888214000006,,,,,,,,,,,,,,,,,,,,,,,,,,,,,,805.8720092000003,805.888214000006,806.3889172000054,806.3717522000079,,,,,,,,,,,,,,,,,,,,,,,,,,806.3815297999972,806.3889172000054,806.3889172000054,806.3889172000054,809.3882147999975,809.3882147999975,809.3882147999975,809.3721936000074,j,1.131028799994965,0.21798329999728594,809.3722410000046,809.3722522000025,None,,,,,,,,,,,,,,00034,001,2026-01-16_11h55.32.155,MST_task,2024.2.0,59.942299544470025,2026-01-16 11h55.53.994690 +0530,
,Scenes\051a.jpg,87,0,88,,,,,,,j,1.2945761000009952,0.20874950000143144,None,,,,,,88,0,87,809.3882147999975,,,,,,,,,,,,,,,,,,,,,,,,,,,,,,809.3723548999988,809.3882147999975,809.8888371000066,809.8717212000047,,,,,,,,,,,,,,,,,,,,,,,,,,809.8778512999997,809.8888371000066,809.8888371000066,809.8888371000066,812.8882675000059,812.8882675000059,812.8882675000059,812.8718653999968,j,1.2945761000009952,0.20874950000143144,812.871908000001,812.8719187000097,None,,,,,,,,,,,,,,00034,001,2026-01-16_11h55.32.155,MST_task,2024.2.0,59.942299544470025,2026-01-16 11h55.53.994690 +0530,
,Scenes\117a.jpg,88,0,89,,,,,,,j,1.2279869000049075,0.19206440000561997,None,,,,,,89,0,88,812.8882675000059,,,,,,,,,,,,,,,,,,,,,,,,,,,,,,812.8720143999963,812.8882675000059,813.388468899997,813.3717112000013,,,,,,,,,,,,,,,,,,,,,,,,,,813.3764035000058,813.388468899997,813.388468899997,813.388468899997,816.3881963000022,816.3881963000022,816.3881963000022,816.3720862000046,j,1.2279869000049075,0.19206440000561997,816.3721398000052,816.3721502999979,None,,,,,,,,,,,,,,00034,001,2026-01-16_11h55.32.155,MST_task,2024.2.0,59.942299544470025,2026-01-16 11h55.53.994690 +0530,
,Scenes\138a.jpg,89,0,90,,,,,,,j,1.1428760999988299,0.20029900000372436,None,,,,,,90,0,89,816.3881963000022,,,,,,,,,,,,,,,,,,,,,,,,,,,,,,816.3722485000035,816.3881963000022,816.8887608000077,816.8719676000037,,,,,,,,,,,,,,,,,,,,,,,,,,816.8787560000055,816.8887608000077,816.8887608000077,816.8887608000077,819.8882039000018,819.8882039000018,819.8882039000018,819.8720381000021,j,1.1428760999988299,0.20029900000372436,819.872105500006,819.8721172000078,None,,,,,,,,,,,,,,00034,001,2026-01-16_11h55.32.155,MST_task,2024.2.0,59.942299544470025,2026-01-16 11h55.53.994690 +0530,
,Scenes\074a.jpg,90,0,91,,,,,,,j,1.427253000001656,0.20014610000362154,None,,,,,,91,0,90,819.8882039000018,,,,,,,,,,,,,,,,,,,,,,,,,,,,,,819.8722156000003,819.8882039000018,820.3887909000041,820.3716950000089,,,,,,,,,,,,,,,,,,,,,,,,,,820.3806161999964,820.3887909000041,820.3887909000041,820.3887909000041,823.388259600004,823.388259600004,823.388259600004,823.372211000009,j,1.427253000001656,0.20014610000362154,823.3722647000104,823.3722764999984,None,,,,,,,,,,,,,,00034,001,2026-01-16_11h55.32.155,MST_task,2024.2.0,59.942299544470025,2026-01-16 11h55.53.994690 +0530,
,Objects\189a.jpg,91,0,92,,,,,,,j,2.2869950000022072,0.19969449999916833,None,,,,,,92,0,91,823.388259600004,,,,,,,,,,,,,,,,,,,,,,,,,,,,,,823.3723827000067,823.388259600004,823.8887572000094,823.8718770999985,,,,,,,,,,,,,,,,,,,,,,,,,,823.8778433999978,823.8887572000094,823.8887572000094,823.8887572000094,826.8882389000064,826.8882389000064,826.8882389000064,826.8719696000044,j,2.2869950000022072,0.19969449999916833,826.8740766999981,826.8740947000042,None,,,,,,,,,,,,,,00034,001,2026-01-16_11h55.32.155,MST_task,2024.2.0,59.942299544470025,2026-01-16 11h55.53.994690 +0530,
,Objects\156a.jpg,92,0,93,,,,,,,f,1.5390022000065073,0.20799179999448825,None,,,,,,93,0,92,826.8882389000064,,,,,,,,,,,,,,,,,,,,,,,,,,,,,,826.8741974000004,826.8882389000064,827.3884977999987,827.3719154999999,,,,,,,,,,,,,,,,,,,,,,,,,,827.3745785000065,827.3884977999987,827.3884977999987,827.3884977999987,830.3882616000046,830.3882616000046,830.3882616000046,830.3721252999967,f,1.5390022000065073,0.20799179999448825,830.3721702000039,830.3721814000019,None,,,,,,,,,,,,,,00034,001,2026-01-16_11h55.32.155,MST_task,2024.2.0,59.942299544470025,2026-01-16 11h55.53.994690 +0530,
,Objects\004a.jpg,93,0,94,,,,,,,j,2.287945399992168,0.19953510000777896,None,,,,,,94,0,93,830.3882616000046,,,,,,,,,,,,,,,,,,,,,,,,,,,,,,830.3722489000065,830.3882616000046,830.8884499999986,830.8716284999973,,,,,,,,,,,,,,,,,,,,,,,,,,830.8741821000003,830.8884499999986,830.8884499999986,830.8884499999986,833.8882185999973,833.8882185999973,833.8882185999973,833.8722899999993,j,2.287945399992168,0.19953510000777896,833.8723337999982,833.8723445000069,None,,,,,,,,,,,,,,00034,001,2026-01-16_11h55.32.155,MST_task,2024.2.0,59.942299544470025,2026-01-16 11h55.53.994690 +0530,
,Objects\112a.jpg,94,0,95,,,,,,,f,1.1073833999980707,0.12809460000426043,None,,,,,,95,0,94,833.8882185999973,,,,,,,,,,,,,,,,,,,,,,,,,,,,,,833.8724082999979,833.8882185999973,834.3884522000008,834.3717405000061,,,,,,,,,,,,,,,,,,,,,,,,,,834.3743726000102,834.3884522000008,834.3884522000008,834.3884522000008,837.3881720000063,837.3881720000063,837.3881720000063,837.3720724000013,f,1.1073833999980707,0.12809460000426043,837.3721149000048,837.3721259000013,None,,,,,,,,,,,,,,00034,001,2026-01-16_11h55.32.155,MST_task,2024.2.0,59.942299544470025,2026-01-16 11h55.53.994690 +0530,
,Objects\075a.jpg,95,0,96,,,,,,,f,0.9916729999968084,0.17591839999658987,None,,,,,,96,0,95,837.3881720000063,,,,,,,,,,,,,,,,,,,,,,,,,,,,,,837.3721901999961,837.3881720000063,837.8884477000101,837.8716631999996,,,,,,,,,,,,,,,,,,,,,,,,,,837.8741810000065,837.8884477000101,837.8884477000101,837.8884477000101,840.8882813000091,840.8882813000091,840.8882813000091,840.8722534999979,f,0.9916729999968084,0.17591839999658987,840.8723014999996,840.8723132000014,None,,,,,,,,,,,,,,00034,001,2026-01-16_11h55.32.155,MST_task,2024.2.0,59.942299544470025,2026-01-16 11h55.53.994690 +0530,
,Objects\141a.jpg,96,0,97,,,,,,,j,1.9951842999871587,0.17601640000066254,None,,,,,,97,0,96,840.8882813000091,,,,,,,,,,,,,,,,,,,,,,,,,,,,,,840.8724244000041,840.8882813000091,841.3885260000097,841.3717621000105,,,,,,,,,,,,,,,,,,,,,,,,,,841.3743775000039,841.3885260000097,841.3885260000097,841.3885260000097,844.3881700000056,844.3881700000056,844.3881700000056,844.3720342000015,j,1.9951842999871587,0.17601640000066254,844.3720759999997,844.3720866000076,None,,,,,,,,,,,,,,00034,001,2026-01-16_11h55.32.155,MST_task,2024.2.0,59.942299544470025,2026-01-16 11h55.53.994690 +0530,
,Objects\137a.jpg,97,0,98,,,,,,,None,,,f,3.783792500005802,None,,,,98,0,97,844.3881700000056,,,,,,,,,,,,,,,,,,,,,,,,,,,,,,844.3721499000094,844.3881700000056,844.8883995000069,844.871676499999,,,,,,,,,,,,,,,,,,,,,,,,,,844.8743341000081,844.8883995000069,844.8883995000069,844.8883995000069,847.8882053999987,847.8882053999987,847.8882053999987,847.8720274000079,None,,,847.8720773000096,851.6885583999974,f,847.8882053999987,847.8882053999987,3.783792500005802,None,,,,,,,,,,00034,001,2026-01-16_11h55.32.155,MST_task,2024.2.0,59.942299544470025,2026-01-16 11h55.53.994690 +0530,
,Scenes\125a.jpg,98,0,99,,,,,,,j,1.3384863000101177,0.2079706999938935,None,,,,,,99,0,98,851.7048881000082,,,,,,,,,,,,,,,,,,,,,,,,,,,,,,851.6886436000059,851.7048881000082,852.2053826000047,852.1884007000044,,,,,,,,,,,,,,,,,,,,,,,,,,852.2005574000068,852.2053826000047,852.2053826000047,852.2053826000047,855.2048330999969,855.2048330999969,855.2048330999969,855.1888952000008,j,1.3384863000101177,0.2079706999938935,855.1905134999979,855.1905316000048,None,,,,,,,,,,,,,,00034,001,2026-01-16_11h55.32.155,MST_task,2024.2.0,59.942299544470025,2026-01-16 11h55.53.994690 +0530,
,Scenes\028a.jpg,99,0,100,,,,,,,j,0.9825088000070537,0.17604489999939688,None,,,,,,100,0,99,855.2048330999969,,,,,,,,,,,,,,,,,,,,,,,,,,,,,,855.1906388000061,855.2048330999969,855.7054717999999,855.6884233000019,,,,,,,,,,,,,,,,,,,,,,,,,,855.6960446000012,855.7054717999999,855.7054717999999,855.7054717999999,858.7050032999978,858.7050032999978,858.7050032999978,858.6888627000008,j,0.9825088000070537,0.17604489999939688,858.6889032000036,858.6889136999962,None,,,,,,,,,,,,,,00034,001,2026-01-16_11h55.32.155,MST_task,2024.2.0,59.942299544470025,2026-01-16 11h55.53.994690 +0530,
,Scenes\094a.jpg,100,0,101,,,,,,,f,2.6344809000001987,0.18397769999864977,None,,,,,,101,0,100,858.7050032999978,,,,,,,,,,,,,,,,,,,,,,,,,,,,,,858.6890092999965,858.7050032999978,859.2056988999975,859.188648299998,,,,,,,,,,,,,,,,,,,,,,,,,,859.1995961000066,859.2056988999975,859.2056988999975,859.2056988999975,862.2049847000017,862.2049847000017,862.2049847000017,862.1887862000003,f,2.6344809000001987,0.18397769999864977,862.1888289000053,862.1888392999972,None,,,,,,,,,,,,,,00034,001,2026-01-16_11h55.32.155,MST_task,2024.2.0,59.942299544470025,2026-01-16 11h55.53.994690 +0530,
,Scenes\121a.jpg,101,0,102,,,,,,,j,1.1422677999944426,0.1839215000072727,None,,,,,,102,0,101,862.2049847000017,,,,,,,,,,,,,,,,,,,,,,,,,,,,,,862.1889044999989,862.2049847000017,862.7054409999982,862.6885582999967,,,,,,,,,,,,,,,,,,,,,,,,,,862.6970481000026,862.7054409999982,862.7054409999982,862.7054409999982,865.7050136000034,865.7050136000034,865.7050136000034,865.6888448999962,j,1.1422677999944426,0.1839215000072727,865.6889858000068,865.6889979999978,None,,,,,,,,,,,,,,00034,001,2026-01-16_11h55.32.155,MST_task,2024.2.0,59.942299544470025,2026-01-16 11h55.53.994690 +0530,
,Scenes\165a.jpg,102,0,103,,,,,,,f,1.3947824999922886,0.175656200008234,None,,,,,,103,0,102,865.7050136000034,,,,,,,,,,,,,,,,,,,,,,,,,,,,,,865.6890970000095,865.7050136000034,866.2052735000034,866.1885958000057,,,,,,,,,,,,,,,,,,,,,,,,,,866.1979594000004,866.2052735000034,866.2052735000034,866.2052735000034,869.2050211000023,869.2050211000023,869.2050211000023,869.1887864000018,f,1.3947824999922886,0.175656200008234,869.1888269000046,869.1888372999965,None,,,,,,,,,,,,,,00034,001,2026-01-16_11h55.32.155,MST_task,2024.2.0,59.942299544470025,2026-01-16 11h55.53.994690 +0530,
,Scenes\034a.jpg,103,0,104,,,,,,,f,1.7014964000118198,0.217637099995045,None,,,,,,104,0,103,869.2050211000023,,,,,,,,,,,,,,,,,,,,,,,,,,,,,,869.1889005999983,869.2050211000023,869.7058837000077,869.688504500009,,,,,,,,,,,,,,,,,,,,,,,,,,869.7020178000093,869.7058837000077,869.7058837000077,869.7058837000077,872.7050038000016,872.7050038000016,872.7050038000016,872.6888027000095,f,1.7014964000118198,0.217637099995045,872.6888461000053,872.6888569000002,None,,,,,,,,,,,,,,00034,001,2026-01-16_11h55.32.155,MST_task,2024.2.0,59.942299544470025,2026-01-16 11h55.53.994690 +0530,
,Scenes\093a.jpg,104,0,105,,,,,,,f,2.162041899995529,0.1599980000028154,None,,,,,,105,0,104,872.7050038000016,,,,,,,,,,,,,,,,,,,,,,,,,,,,,,872.6889557999966,872.7050038000016,873.2058311000001,873.1885602999973,,,,,,,,,,,,,,,,,,,,,,,,,,873.1982672000013,873.2058311000001,873.2058311000001,873.2058311000001,876.2049977999995,876.2049977999995,876.2049977999995,876.1888983999961,f,2.162041899995529,0.1599980000028154,876.188942000008,876.1889532000059,None,,,,,,,,,,,,,,00034,001,2026-01-16_11h55.32.155,MST_task,2024.2.0,59.942299544470025,2026-01-16 11h55.53.994690 +0530,
,Objects\041a.jpg,105,0,106,,,,,,,None,,,f,5.50312509998912,None,,,,106,0,105,876.2049977999995,,,,,,,,,,,,,,,,,,,,,,,,,,,,,,876.1890492000093,876.2049977999995,876.7055041999993,876.688581800001,,,,,,,,,,,,,,,,,,,,,,,,,,876.6938393000019,876.7055041999993,876.7055041999993,876.7055041999993,879.7050105000089,879.7050105000089,879.7050105000089,879.6888999000075,None,,,879.6909568999981,885.2221369000035,f,879.7050105000089,879.7050105000089,5.50312509998912,None,,,,,,,,,,00034,001,2026-01-16_11h55.32.155,MST_task,2024.2.0,59.942299544470025,2026-01-16 11h55.53.994690 +0530,
,Objects\190a.jpg,106,0,107,,,,,,,f,0.9168708999932278,0.17664930000319146,None,,,,,,107,0,106,885.2382604000013,,,,,,,,,,,,,,,,,,,,,,,,,,,,,,885.2222633000056,885.2382604000013,885.7386046000029,885.7219173000049,,,,,,,,,,,,,,,,,,,,,,,,,,885.7250369000103,885.7386046000029,885.7386046000029,885.7386046000029,888.7388421000069,888.7388421000069,888.7388421000069,888.7221666999976,f,0.9168708999932278,0.17664930000319146,888.7222107999987,888.7222215000074,None,,,,,,,,,,,,,,00034,001,2026-01-16_11h55.32.155,MST_task,2024.2.0,59.942299544470025,2026-01-16 11h55.53.994690 +0530,
,Objects\007a.jpg,107,0,108,,,,,,,None,,,j,2.6497919999965234,None,,,,108,0,107,888.7388421000069,,,,,,,,,,,,,,,,,,,,,,,,,,,,,,888.7222871999984,888.7388421000069,889.2385241000011,889.2218105000065,,,,,,,,,,,,,,,,,,,,,,,,,,889.2244797000021,889.2385241000011,889.2385241000011,889.2385241000011,892.2383648000105,892.2383648000105,892.2383648000105,892.222170100009,None,,,892.2223418000067,894.8887913000071,j,892.2383648000105,892.2383648000105,2.6497919999965234,None,,,,,,,,,,00034,001,2026-01-16_11h55.32.155,MST_task,2024.2.0,59.942299544470025,2026-01-16 11h55.53.994690 +0530,
,Objects\164a.jpg,108,0,109,,,,,,,f,1.1302617999899667,0.1919847000099253,None,,,,,,109,0,108,894.905012800009,,,,,,,,,,,,,,,,,,,,,,,,,,,,,,894.8888780999987,894.905012800009,895.4051645,895.3885219000076,,,,,,,,,,,,,,,,,,,,,,,,,,895.3915132999973,895.4051645,895.4051645,895.4051645,898.4050332000043,898.4050332000043,898.4050332000043,898.3888756000088,f,1.1302617999899667,0.1919847000099253,898.3889209000045,898.3889329000085,None,,,,,,,,,,,,,,00034,001,2026-01-16_11h55.32.155,MST_task,2024.2.0,59.942299544470025,2026-01-16 11h55.53.994690 +0530,
,Objects\057a.jpg,109,0,110,,,,,,,f,2.5024650000123074,0.20766149999690242,None,,,,,,110,0,109,898.4050332000043,,,,,,,,,,,,,,,,,,,,,,,,,,,,,,898.3890313000011,898.4050332000043,898.9052270000102,898.8885681000102,,,,,,,,,,,,,,,,,,,,,,,,,,898.8910793000105,898.9052270000102,898.9052270000102,898.9052270000102,901.9048989000003,901.9048989000003,901.9048989000003,901.8889822000056,f,2.5024650000123074,0.20766149999690242,901.8890317000041,901.8890434000059,None,,,,,,,,,,,,,,00034,001,2026-01-16_11h55.32.155,MST_task,2024.2.0,59.942299544470025,2026-01-16 11h55.53.994690 +0530,
,Objects\132a.jpg,110,0,111,,,,,,,f,0.9790215999964857,0.18306889999075793,None,,,,,,111,0,110,901.9048989000003,,,,,,,,,,,,,,,,,,,,,,,,,,,,,,901.889110700009,901.9048989000003,902.4052412000019,902.38853750001,,,,,,,,,,,,,,,,,,,,,,,,,,902.3910682999995,902.4052412000019,902.4052412000019,902.4052412000019,905.404946900002,905.404946900002,905.404946900002,905.388938300006,f,0.9790215999964857,0.18306889999075793,905.3889808000094,905.3889912000013,None,,,,,,,,,,,,,,00034,001,2026-01-16_11h55.32.155,MST_task,2024.2.0,59.942299544470025,2026-01-16 11h55.53.994690 +0530,
,Objects\161a.jpg,111,0,112,,,,,,,f,0.9263919000077294,0.18433119999826886,None,,,,,,112,0,111,905.404946900002,,,,,,,,,,,,,,,,,,,,,,,,,,,,,,905.3890889000031,905.404946900002,905.9052893000044,905.888578500002,,,,,,,,,,,,,,,,,,,,,,,,,,905.891094999999,905.9052893000044,905.9052893000044,905.9052893000044,908.9050259000069,908.9050259000069,908.9050259000069,908.8888555000012,f,0.9263919000077294,0.18433119999826886,908.8888982000062,908.8889091000019,None,,,,,,,,,,,,,,00034,001,2026-01-16_11h55.32.155,MST_task,2024.2.0,59.942299544470025,2026-01-16 11h55.53.994690 +0530,
,Scenes\155a.jpg,112,0,113,,,,,,,j,0.8983355999953346,0.1679285999998683,None,,,,,,113,0,112,908.9050259000069,,,,,,,,,,,,,,,,,,,,,,,,,,,,,,908.8889762000035,908.9050259000069,909.4055969000037,909.3887325000105,,,,,,,,,,,,,,,,,,,,,,,,,,909.3986675000051,909.4055969000037,909.4055969000037,909.4055969000037,912.405029600006,912.405029600006,912.405029600006,912.388943900005,j,0.8983355999953346,0.1679285999998683,912.3905632000096,912.3905816000042,None,,,,,,,,,,,,,,00034,001,2026-01-16_11h55.32.155,MST_task,2024.2.0,59.942299544470025,2026-01-16 11h55.53.994690 +0530,
,Scenes\066a.jpg,113,0,114,,,,,,,j,0.9910233999980846,0.20693430000392254,None,,,,,,114,0,113,912.405029600006,,,,,,,,,,,,,,,,,,,,,,,,,,,,,,912.3906817000097,912.405029600006,912.9054980000074,912.8884461999987,,,,,,,,,,,,,,,,,,,,,,,,,,912.8930373000039,912.9054980000074,912.9054980000074,912.9054980000074,915.9049264000059,915.9049264000059,915.9049264000059,915.8888347000029,j,0.9910233999980846,0.20693430000392254,915.8888767000026,915.8888873999967,None,,,,,,,,,,,,,,00034,001,2026-01-16_11h55.32.155,MST_task,2024.2.0,59.942299544470025,2026-01-16 11h55.53.994690 +0530,
,Scenes\023a.jpg,114,0,115,,,,,,,f,2.882401299997582,None,None,,,,,,115,0,114,915.9049264000059,,,,,,,,,,,,,,,,,,,,,,,,,,,,,,915.8889846000093,915.9049264000059,916.4054640999966,916.3884936000104,,,,,,,,,,,,,,,,,,,,,,,,,,916.4003538999968,916.4054640999966,916.4054640999966,916.4054640999966,919.4049605000037,919.4049605000037,919.4049605000037,919.3888122000062,f,2.882401299997582,None,919.3888641000085,919.3888745000004,None,,,,,,,,,,,,,,00034,001,2026-01-16_11h55.32.155,MST_task,2024.2.0,59.942299544470025,2026-01-16 11h55.53.994690 +0530,
,Scenes\189a.jpg,115,0,116,,,,,,,j,1.7420444999879692,0.17587830001139082,None,,,,,,116,0,115,919.4049605000037,,,,,,,,,,,,,,,,,,,,,,,,,,,,,,919.3889696999977,919.4049605000037,919.9055599999992,919.8886210000055,,,,,,,,,,,,,,,,,,,,,,,,,,919.89902170001,919.9055599999992,919.9055599999992,919.9055599999992,922.9048809000087,922.9048809000087,922.9048809000087,922.8888409000065,j,1.7420444999879692,0.17587830001139082,922.8888831000077,922.8888939000026,None,,,,,,,,,,,,,,00034,001,2026-01-16_11h55.32.155,MST_task,2024.2.0,59.942299544470025,2026-01-16 11h55.53.994690 +0530,
,Scenes\127a.jpg,116,0,117,,,,,,,j,2.138810000004014,0.17600300000049174,None,,,,,,117,0,116,922.9048809000087,,,,,,,,,,,,,,,,,,,,,,,,,,,,,,922.8889656999963,922.9048809000087,923.4054303000012,923.3884452000057,,,,,,,,,,,,,,,,,,,,,,,,,,923.3967368000012,923.4054303000012,923.4054303000012,923.4054303000012,926.4049167000048,926.4049167000048,926.4049167000048,926.3888275000063,j,2.138810000004014,0.17600300000049174,926.3888720999967,926.3888830000069,None,,,,,,,,,,,,,,00034,001,2026-01-16_11h55.32.155,MST_task,2024.2.0,59.942299544470025,2026-01-16 11h55.53.994690 +0530,
,Scenes\122a.jpg,117,0,118,,,,,,,f,2.726054300001124,0.18510689999675378,None,,,,,,118,0,117,926.4049167000048,,,,,,,,,,,,,,,,,,,,,,,,,,,,,,926.3889804000064,926.4049167000048,926.9054927999969,926.8884192999976,,,,,,,,,,,,,,,,,,,,,,,,,,926.8980598000053,926.9054927999969,926.9054927999969,926.9054927999969,929.904863600008,929.904863600008,929.904863600008,929.8888426000049,f,2.726054300001124,0.18510689999675378,929.8888847000053,929.888895600001,None,,,,,,,,,,,,,,00034,001,2026-01-16_11h55.32.155,MST_task,2024.2.0,59.942299544470025,2026-01-16 11h55.53.994690 +0530,
,Scenes\180a.jpg,118,0,119,,,,,,,None,,,j,0.0032377999887103215,None,,,,119,0,118,929.904863600008,,,,,,,,,,,,,,,,,,,,,,,,,,,,,,929.8889917000051,929.904863600008,930.4054602000106,930.3884491000063,,,,,,,,,,,,,,,,,,,,,,,,,,930.3954153000086,930.4054602000106,930.4054602000106,930.4054602000106,933.4049365999963,933.4049365999963,933.4049365999963,933.388872399999,None,,,933.3889136000071,933.4219452999969,j,933.4049365999963,933.4049365999963,0.0032377999887103215,None,,,,,,,,,,00034,001,2026-01-16_11h55.32.155,MST_task,2024.2.0,59.942299544470025,2026-01-16 11h55.53.994690 +0530,
,Objects\163a.jpg,119,0,120,,,,,,,None,,,j,2.629180899995845,None,,,,120,0,119,933.4382539000071,,,,,,,,,,,,,,,,,,,,,,,,,,,,,,933.422021300008,933.4382539000071,933.938722100007,933.9217528000008,,,,,,,,,,,,,,,,,,,,,,,,,,933.9274577000033,933.938722100007,933.938722100007,933.938722100007,936.938278200003,936.938278200003,936.938278200003,936.9220452000009,None,,,936.9240341999975,939.57182930001,j,936.938278200003,936.938278200003,2.629180899995845,None,,,,,,,,,,00034,001,2026-01-16_11h55.32.155,MST_task,2024.2.0,59.942299544470025,2026-01-16 11h55.53.994690 +0530,
,Objects\184a.jpg,120,0,121,,,,,,,j,1.2793363999953726,0.14462799999455456,None,,,,,,121,0,120,939.5882458999986,,,,,,,,,,,,,,,,,,,,,,,,,,,,,,939.5719171000092,939.5882458999986,940.0884714999993,940.071792200004,,,,,,,,,,,,,,,,,,,,,,,,,,940.074772699998,940.0884714999993,940.0884714999993,940.0884714999993,943.0882442000002,943.0882442000002,943.0882442000002,943.0720536000008,j,1.2793363999953726,0.14462799999455456,943.0721062000084,943.0721185000002,None,,,,,,,,,,,,,,00034,001,2026-01-16_11h55.32.155,MST_task,2024.2.0,59.942299544470025,2026-01-16 11h55.53.994690 +0530,
,Objects\006a.jpg,121,0,122,,,,,,,None,,,f,0.12410040000395384,None,,,,122,0,121,943.0882442000002,,,,,,,,,,,,,,,,,,,,,,,,,,,,,,943.0722176999989,943.0882442000002,943.588505599997,943.571764200009,,,,,,,,,,,,,,,,,,,,,,,,,,943.57424300001,943.588505599997,943.588505599997,943.588505599997,946.5882645000092,946.5882645000092,946.5882645000092,946.5719295000017,None,,,946.5719676000008,946.7220725000079,f,946.5882645000092,946.5882645000092,0.12410040000395384,None,,,,,,,,,,00034,001,2026-01-16_11h55.32.155,MST_task,2024.2.0,59.942299544470025,2026-01-16 11h55.53.994690 +0530,
,Objects\087a.jpg,122,0,123,,,,,,,None,,,j,0.16958049999084324,None,,,,123,0,122,946.7382371999993,,,,,,,,,,,,,,,,,,,,,,,,,,,,,,946.7221685999975,946.7382371999993,947.2384832000098,947.2217946000019,,,,,,,,,,,,,,,,,,,,,,,,,,947.224229200001,947.2384832000098,947.2384832000098,947.2384832000098,950.2382713999978,950.2382713999978,950.2382713999978,950.2221875999967,None,,,950.222228700004,950.4219222999964,j,950.2382713999978,950.2382713999978,0.16958049999084324,None,,,,,,,,,,00034,001,2026-01-16_11h55.32.155,MST_task,2024.2.0,59.942299544470025,2026-01-16 11h55.53.994690 +0530,
,Objects\034a.jpg,123,0,124,,,,,,,f,0.9341276999912225,0.1835475999978371,None,,,,,,124,0,123,950.4382180000102,,,,,,,,,,,,,,,,,,,,,,,,,,,,,,950.4220379000035,950.4382180000102,950.9385004000069,950.9218455000082,,,,,,,,,,,,,,,,,,,,,,,,,,950.9246149999963,950.9385004000069,950.9385004000069,950.9385004000069,953.9382656000089,953.9382656000089,953.9382656000089,953.9220342000044,f,0.9341276999912225,0.1835475999978371,953.9220766000071,953.9220875000028,None,,,,,,,,,,,,,,00034,001,2026-01-16_11h55.32.155,MST_task,2024.2.0,59.942299544470025,2026-01-16 11h55.53.994690 +0530,
,Objects\061a.jpg,124,0,125,,,,,,,None,,,f,0.5374213000031887,None,,,,125,0,124,953.9382656000089,,,,,,,,,,,,,,,,,,,,,,,,,,,,,,953.9221834000055,953.9382656000089,954.4384894000104,954.4217124999996,,,,,,,,,,,,,,,,,,,,,,,,,,954.4245926000003,954.4384894000104,954.4384894000104,954.4384894000104,957.4382740000001,957.4382740000001,957.4382740000001,957.421988800008,None,,,957.4220282000024,957.9889536999981,f,957.4382740000001,957.4382740000001,0.5374213000031887,None,,,,,,,,,,00034,001,2026-01-16_11h55.32.155,MST_task,2024.2.0,59.942299544470025,2026-01-16 11h55.53.994690 +0530,
,Objects\058a.jpg,125,0,126,,,,,,,f,1.9752824000024702,0.16803089999302756,None,,,,,,126,0,125,958.0049007000052,,,,,,,,,,,,,,,,,,,,,,,,,,,,,,957.9890818999993,958.0049007000052,958.5051623000036,958.4885757000011,,,,,,,,,,,,,,,,,,,,,,,,,,958.4916484999994,958.5051623000036,958.5051623000036,958.5051623000036,961.5049325,961.5049325,961.5049325,961.4889128000068,f,1.9752824000024702,0.16803089999302756,961.488955599998,961.4889668000105,None,,,,,,,,,,,,,,00034,001,2026-01-16_11h55.32.155,MST_task,2024.2.0,59.942299544470025,2026-01-16 11h55.53.994690 +0530,
,Scenes\124a.jpg,126,0,127,,,,,,,f,1.8582036000007065,0.18382890000066254,None,,,,,,127,0,126,961.5049325,,,,,,,,,,,,,,,,,,,,,,,,,,,,,,961.4890330000053,961.5049325,962.0054890000029,961.9886927000043,,,,,,,,,,,,,,,,,,,,,,,,,,961.9972933999961,962.0054890000029,962.0054890000029,962.0054890000029,965.004914899997,965.004914899997,965.004914899997,964.9890274000063,f,1.8582036000007065,0.18382890000066254,964.9906293000095,964.9906476000033,None,,,,,,,,,,,,,,00034,001,2026-01-16_11h55.32.155,MST_task,2024.2.0,59.942299544470025,2026-01-16 11h55.53.994690 +0530,
,Scenes\053a.jpg,127,0,128,,,,,,,j,0.8472953000018606,0.18400899998960085,None,,,,,,128,0,127,965.004914899997,,,,,,,,,,,,,,,,,,,,,,,,,,,,,,964.9907494000072,965.004914899997,965.505408099998,965.488511100004,,,,,,,,,,,,,,,,,,,,,,,,,,965.4913474000059,965.505408099998,965.505408099998,965.505408099998,968.5049360999983,968.5049360999983,968.5049360999983,968.4889003999997,j,0.8472953000018606,0.18400899998960085,968.4889432000055,968.4889535999973,None,,,,,,,,,,,,,,00034,001,2026-01-16_11h55.32.155,MST_task,2024.2.0,59.942299544470025,2026-01-16 11h55.53.994690 +0530,
,Scenes\114a.jpg,128,0,129,,,,,,,f,2.866758599993773,None,None,,,,,,129,0,128,968.5049360999983,,,,,,,,,,,,,,,,,,,,,,,,,,,,,,968.4890508999961,968.5049360999983,969.0053426000086,968.9886318000063,,,,,,,,,,,,,,,,,,,,,,,,,,968.9992171000049,969.0053426000086,969.0053426000086,969.0053426000086,972.0049170999991,972.0049170999991,972.0049170999991,971.9890874999983,f,2.866758599993773,None,971.9891321000032,971.989143800005,None,,,,,,,,,,,,,,00034,001,2026-01-16_11h55.32.155,MST_task,2024.2.0,59.942299544470025,2026-01-16 11h55.53.994690 +0530,
,Scenes\037a.jpg,129,0,130,,,,,,,j,1.3023439000098733,0.20063399999344256,None,,,,,,130,0,129,972.0049170999991,,,,,,,,,,,,,,,,,,,,,,,,,,,,,,971.989243700009,972.0049170999991,972.5054705000075,972.4885569000035,,,,,,,,,,,,,,,,,,,,,,,,,,972.4929300000076,972.5054705000075,972.5054705000075,972.5054705000075,975.5048823999969,975.5048823999969,975.5048823999969,975.4889041999995,j,1.3023439000098733,0.20063399999344256,975.4889464000007,975.4889572999964,None,,,,,,,,,,,,,,00034,001,2026-01-16_11h55.32.155,MST_task,2024.2.0,59.942299544470025,2026-01-16 11h55.53.994690 +0530,
,Scenes\109a.jpg,130,0,131,,,,,,,None,,,j,0.3229596000019228,None,,,,131,0,130,975.5048823999969,,,,,,,,,,,,,,,,,,,,,,,,,,,,,,975.4890260000102,975.5048823999969,976.0053972000023,975.9885135000077,,,,,,,,,,,,,,,,,,,,,,,,,,975.9962431000022,976.0053972000023,976.0053972000023,976.0053972000023,979.0051099999982,979.0051099999982,979.0051099999982,978.9891190000053,None,,,978.9891664000024,979.3387225000042,j,979.0051099999982,979.0051099999982,0.3229596000019228,None,,,,,,,,,,00034,001,2026-01-16_11h55.32.155,MST_task,2024.2.0,59.942299544470025,2026-01-16 11h55.53.994690 +0530,
,Scenes\049a.jpg,131,0,132,,,,,,,j,1.1917402999970363,0.1999653000093531,None,,,,,,132,0,131,979.3550223000057,,,,,,,,,,,,,,,,,,,,,,,,,,,,,,979.3388120000018,979.3550223000057,979.8557150999986,979.8386247000017,,,,,,,,,,,,,,,,,,,,,,,,,,979.8459715000063,979.8557150999986,979.8557150999986,979.8557150999986,982.8550537999981,982.8550537999981,982.8550537999981,982.8389400000015,j,1.1917402999970363,0.1999653000093531,982.8389833999972,982.8389938000037,None,,,,,,,,,,,,,,00034,001,2026-01-16_11h55.32.155,MST_task,2024.2.0,59.942299544470025,2026-01-16 11h55.53.994690 +0530,
,Scenes\101a.jpg,132,0,133,,,,,,,j,1.2121627000014996,0.19202149999910034,None,,,,,,133,0,132,982.8550537999981,,,,,,,,,,,,,,,,,,,,,,,,,,,,,,982.8390959999961,982.8550537999981,983.3553111000074,983.3386439000024,,,,,,,,,,,,,,,,,,,,,,,,,,983.3456505000067,983.3553111000074,983.3553111000074,983.3553111000074,986.3550391000026,986.3550391000026,986.3550391000026,986.3388599000027,j,1.2121627000014996,0.19202149999910034,986.3389018000016,986.3389124000096,None,,,,,,,,,,,,,,00034,001,2026-01-16_11h55.32.155,MST_task,2024.2.0,59.942299544470025,2026-01-16 11h55.53.994690 +0530,
,Objects\100a.jpg,133,0,134,,,,,,,f,1.2645302999881096,0.167985400010366,None,,,,,,134,0,133,986.3550391000026,,,,,,,,,,,,,,,,,,,,,,,,,,,,,,986.3389770000067,986.3550391000026,986.8555172000051,986.8387070000026,,,,,,,,,,,,,,,,,,,,,,,,,,986.8443098999996,986.8555172000051,986.8555172000051,986.8555172000051,989.8550706000096,989.8550706000096,989.8550706000096,989.8389390000084,f,1.2645302999881096,0.167985400010366,989.8409446000005,989.8409616999998,None,,,,,,,,,,,,,,00034,001,2026-01-16_11h55.32.155,MST_task,2024.2.0,59.942299544470025,2026-01-16 11h55.53.994690 +0530,
,Objects\042a.jpg,134,0,135,,,,,,,None,,,j,0.26053200000023935,None,,,,135,0,134,989.8550706000096,,,,,,,,,,,,,,,,,,,,,,,,,,,,,,989.8410313000059,989.8550706000096,990.3552066999982,990.3386823000037,,,,,,,,,,,,,,,,,,,,,,,,,,990.3485464999976,990.3552066999982,990.3552066999982,990.3552066999982,993.3550671999983,993.3550671999983,993.3550671999983,993.3391080000001,None,,,993.3391487000044,993.6219841999991,j,993.3550671999983,993.3550671999983,0.26053200000023935,None,,,,,,,,,,00034,001,2026-01-16_11h55.32.155,MST_task,2024.2.0,59.942299544470025,2026-01-16 11h55.53.994690 +0530,
,Objects\150a.jpg,135,0,136,,,,,,,f,1.7011725999909686,0.17601130000548437,None,,,,,,136,0,135,993.6383754999988,,,,,,,,,,,,,,,,,,,,,,,,,,,,,,993.6220720999991,993.6383754999988,994.1385280000104,994.1218013000034,,,,,,,,,,,,,,,,,,,,,,,,,,994.1243275000015,994.1385280000104,994.1385280000104,994.1385280000104,997.138383700003,997.138383700003,997.138383700003,997.1221106000012,f,1.7011725999909686,0.17601130000548437,997.1221593000082,997.1221707000077,None,,,,,,,,,,,,,,00034,001,2026-01-16_11h55.32.155,MST_task,2024.2.0,59.942299544470025,2026-01-16 11h55.53.994690 +0530,
,Objects\092a.jpg,136,0,137,,,,,,,f,0.929489600006491,0.21597029999247752,None,,,,,,137,0,136,997.138383700003,,,,,,,,,,,,,,,,,,,,,,,,,,,,,,997.1222355000064,997.138383700003,997.6387165000051,997.6220029999968,,,,,,,,,,,,,,,,,,,,,,,,,,997.6249021999975,997.6387165000051,997.6387165000051,997.6387165000051,1000.6384319000063,1000.6384319000063,1000.6384319000063,1000.6223583999963,f,0.929489600006491,0.21597029999247752,1000.6224060000095,1000.6224175000098,None,,,,,,,,,,,,,,00034,001,2026-01-16_11h55.32.155,MST_task,2024.2.0,59.942299544470025,2026-01-16 11h55.53.994690 +0530,
,Objects\048a.jpg,137,0,138,,,,,,,j,2.5735816000087652,0.19946519999939483,None,,,,,,138,0,137,1000.6384319000063,,,,,,,,,,,,,,,,,,,,,,,,,,,,,,1000.6225234000012,1000.6384319000063,1001.1386901000078,1001.1217895000009,,,,,,,,,,,,,,,,,,,,,,,,,,1001.1244111999986,1001.1386901000078,1001.1386901000078,1001.1386901000078,1004.13838270001,1004.13838270001,1004.13838270001,1004.1222392000054,j,2.5735816000087652,0.19946519999939483,1004.1222856000095,1004.1222964000044,None,,,,,,,,,,,,,,00034,001,2026-01-16_11h55.32.155,MST_task,2024.2.0,59.942299544470025,2026-01-16 11h55.53.994690 +0530,
,Objects\117a.jpg,138,0,139,,,,,,,f,1.944879900009255,0.18454109999584034,None,,,,,,139,0,138,1004.13838270001,,,,,,,,,,,,,,,,,,,,,,,,,,,,,,1004.1223609000008,1004.13838270001,1004.6386065999977,1004.6219742999965,,,,,,,,,,,,,,,,,,,,,,,,,,1004.6247544000071,1004.6386065999977,1004.6386065999977,1004.6386065999977,1007.6383842000068,1007.6383842000068,1007.6383842000068,1007.6220915000013,f,1.944879900009255,0.18454109999584034,1007.6221342000063,1007.6221449000004,None,,,,,,,,,,,,,,00034,001,2026-01-16_11h55.32.155,MST_task,2024.2.0,59.942299544470025,2026-01-16 11h55.53.994690 +0530,
,Objects\134a.jpg,139,0,140,,,,,,,j,1.2455394999997225,0.19963560000178404,None,,,,,,140,0,139,1007.6383842000068,,,,,,,,,,,,,,,,,,,,,,,,,,,,,,1007.6222099000006,1007.6383842000068,1008.1386157000088,1008.1218809999991,,,,,,,,,,,,,,,,,,,,,,,,,,1008.1246152000094,1008.1386157000088,1008.1386157000088,1008.1386157000088,1011.1383108000009,1011.1383108000009,1011.1383108000009,1011.1223033999995,j,1.2455394999997225,0.19963560000178404,1011.1223492999998,1011.1223610000015,None,,,,,,,,,,,,,,00034,001,2026-01-16_11h55.32.155,MST_task,2024.2.0,59.942299544470025,2026-01-16 11h55.53.994690 +0530,
,Scenes\060a.jpg,140,0,141,,,,,,,j,1.9685870999965118,0.20097659999737516,None,,,,,,141,0,140,1011.1383108000009,,,,,,,,,,,,,,,,,,,,,,,,,,,,,,1011.1224589000049,1011.1383108000009,1011.6388095000002,1011.6220043000067,,,,,,,,,,,,,,,,,,,,,,,,,,1011.6347257000016,1011.6388095000002,1011.6388095000002,1011.6388095000002,1014.6384214999998,1014.6384214999998,1014.6384214999998,1014.6224772999994,j,1.9685870999965118,0.20097659999737516,1014.6243508000043,1014.6243679000036,None,,,,,,,,,,,,,,00034,001,2026-01-16_11h55.32.155,MST_task,2024.2.0,59.942299544470025,2026-01-16 11h55.53.994690 +0530,
,Scenes\018a.jpg,141,0,142,,,,,,,f,1.621414499997627,0.14401999999245163,None,,,,,,142,0,141,1014.6384214999998,,,,,,,,,,,,,,,,,,,,,,,,,,,,,,1014.6244701999967,1014.6384214999998,1015.1388792000071,1015.1218698000011,,,,,,,,,,,,,,,,,,,,,,,,,,1015.1281693000055,1015.1388792000071,1015.1388792000071,1015.1388792000071,1018.1384270999988,1018.1384270999988,1018.1384270999988,1018.1223027000087,f,1.621414499997627,0.14401999999245163,1018.1223461000045,1018.1223567999987,None,,,,,,,,,,,,,,00034,001,2026-01-16_11h55.32.155,MST_task,2024.2.0,59.942299544470025,2026-01-16 11h55.53.994690 +0530,
,Scenes\081a.jpg,142,0,143,,,,,,,j,0.816423099997337,0.19998560000385623,None,,,,,,143,0,142,1018.1384270999988,,,,,,,,,,,,,,,,,,,,,,,,,,,,,,1018.1224215999973,1018.1384270999988,1018.6389330000093,1018.6220534000022,,,,,,,,,,,,,,,,,,,,,,,,,,1018.6326862999995,1018.6389330000093,1018.6389330000093,1018.6389330000093,1021.6383911000012,1021.6383911000012,1021.6383911000012,1021.6221512000047,j,0.816423099997337,0.19998560000385623,1021.6221925999998,1021.622203100007,None,,,,,,,,,,,,,,00034,001,2026-01-16_11h55.32.155,MST_task,2024.2.0,59.942299544470025,2026-01-16 11h55.53.994690 +0530,
,Scenes\097a.jpg,143,0,144,,,,,,,f,1.493025799994939,0.18410699999367353,None,,,,,,144,0,143,1021.6383911000012,,,,,,,,,,,,,,,,,,,,,,,,,,,,,,1021.6222979000013,1021.6383911000012,1022.1388746000011,1022.1219577000011,,,,,,,,,,,,,,,,,,,,,,,,,,1022.125323100001,1022.1388746000011,1022.1388746000011,1022.1388746000011,1025.13839990001,1025.13839990001,1025.13839990001,1025.122208700006,f,1.493025799994939,0.18410699999367353,1025.1222505000042,1025.1222613999998,None,,,,,,,,,,,,,,00034,001,2026-01-16_11h55.32.155,MST_task,2024.2.0,59.942299544470025,2026-01-16 11h55.53.994690 +0530,
,Scenes\026a.jpg,144,0,145,,,,,,,j,1.3138889000110794,0.14352969999890774,None,,,,,,145,0,144,1025.13839990001,,,,,,,,,,,,,,,,,,,,,,,,,,,,,,1025.122358499997,1025.13839990001,1025.6388571999996,1025.621837700004,,,,,,,,,,,,,,,,,,,,,,,,,,1025.6321430000098,1025.6388571999996,1025.6388571999996,1025.6388571999996,1028.6383983999986,1028.6383983999986,1028.6383983999986,1028.6219263000094,j,1.3138889000110794,0.14352969999890774,1028.6219676000037,1028.621978199997,None,,,,,,,,,,,,,,00034,001,2026-01-16_11h55.32.155,MST_task,2024.2.0,59.942299544470025,2026-01-16 11h55.53.994690 +0530,
,Scenes\173a.jpg,145,0,146,,,,,,,j,1.1408545000012964,0.19199370000569616,None,,,,,,146,0,145,1028.6383983999986,,,,,,,,,,,,,,,,,,,,,,,,,,,,,,1028.6220462000056,1028.6383983999986,1029.1390551000077,1029.121842499997,,,,,,,,,,,,,,,,,,,,,,,,,,1029.1288969000016,1029.1390551000077,1029.1390551000077,1029.1390551000077,1032.1384031000052,1032.1384031000052,1032.1384031000052,1032.1223908000102,j,1.1408545000012964,0.19199370000569616,1032.1224390999996,1032.1224497000076,None,,,,,,,,,,,,,,00034,001,2026-01-16_11h55.32.155,MST_task,2024.2.0,59.942299544470025,2026-01-16 11h55.53.994690 +0530,
,Scenes\073a.jpg,146,0,147,,,,,,,j,1.464476699999068,0.17688310000812635,None,,,,,,147,0,146,1032.1384031000052,,,,,,,,,,,,,,,,,,,,,,,,,,,,,,1032.1225177000015,1032.1384031000052,1032.6388517000014,1032.6218914000056,,,,,,,,,,,,,,,,,,,,,,,,,,1032.6291832999996,1032.6388517000014,1032.6388517000014,1032.6388517000014,1035.6383154000068,1035.6383154000068,1035.6383154000068,1035.62235830001,j,1.464476699999068,0.17688310000812635,1035.6224014000036,1035.6224120999977,None,,,,,,,,,,,,,,00034,001,2026-01-16_11h55.32.155,MST_task,2024.2.0,59.942299544470025,2026-01-16 11h55.53.994690 +0530,
,Objects\044a.jpg,147,0,148,,,,,,,f,2.5813285000040196,0.18446180000319146,None,,,,,,148,0,147,1035.6383154000068,,,,,,,,,,,,,,,,,,,,,,,,,,,,,,1035.6225121000025,1035.6383154000068,1036.1388013999967,1036.121874000004,,,,,,,,,,,,,,,,,,,,,,,,,,1036.1336491999973,1036.1388013999967,1036.1388013999967,1036.1388013999967,1039.1382440000016,1039.1382440000016,1039.1382440000016,1039.1220555000036,f,2.5813285000040196,0.18446180000319146,1039.124068899997,1039.1240865,None,,,,,,,,,,,,,,00034,001,2026-01-16_11h55.32.155,MST_task,2024.2.0,59.942299544470025,2026-01-16 11h55.53.994690 +0530,
,Objects\186a.jpg,148,0,149,,,,,,,f,1.442078699998092,0.1669712000002619,None,,,,,,149,0,148,1039.1382440000016,,,,,,,,,,,,,,,,,,,,,,,,,,,,,,1039.1241553,1039.1382440000016,1039.6384658000025,1039.6217521000071,,,,,,,,,,,,,,,,,,,,,,,,,,1039.6246437000082,1039.6384658000025,1039.6384658000025,1039.6384658000025,1042.6382998000045,1042.6382998000045,1042.6382998000045,1042.6220712000068,f,1.442078699998092,0.1669712000002619,1042.6221138999972,1042.6221240000013,None,,,,,,,,,,,,,,00034,001,2026-01-16_11h55.32.155,MST_task,2024.2.0,59.942299544470025,2026-01-16 11h55.53.994690 +0530,
,Objects\115a.jpg,149,0,150,,,,,,,f,0.9253305000020191,0.1839765000040643,None,,,,,,150,0,149,1042.6382998000045,,,,,,,,,,,,,,,,,,,,,,,,,,,,,,1042.6221903999976,1042.6382998000045,1043.1385095000005,1043.1217525999964,,,,,,,,,,,,,,,,,,,,,,,,,,1043.1245144999993,1043.1385095000005,1043.1385095000005,1043.1385095000005,1046.1382241000101,1046.1382241000101,1046.1382241000101,1046.1222903000016,f,0.9253305000020191,0.1839765000040643,1046.1223345000035,1046.12234490001,None,,,,,,,,,,,,,,00034,001,2026-01-16_11h55.32.155,MST_task,2024.2.0,59.942299544470025,2026-01-16 11h55.53.994690 +0530,
,Objects\095a.jpg,150,0,151,,,,,,,f,0.8971483999921475,0.17605000000912696,None,,,,,,151,0,150,1046.1382241000101,,,,,,,,,,,,,,,,,,,,,,,,,,,,,,1046.1224427999987,1046.1382241000101,1046.6385246999998,1046.621687100007,,,,,,,,,,,,,,,,,,,,,,,,,,1046.6317470000067,1046.6385246999998,1046.6385246999998,1046.6385246999998,1049.6382467000076,1049.6382467000076,1049.6382467000076,1049.6221196999977,f,0.8971483999921475,0.17605000000912696,1049.6221613000089,1049.622172000003,None,,,,,,,,,,,,,,00034,001,2026-01-16_11h55.32.155,MST_task,2024.2.0,59.942299544470025,2026-01-16 11h55.53.994690 +0530,
,Objects\086a.jpg,151,0,152,,,,,,,j,1.7491778999974485,0.17591810000885744,None,,,,,,152,0,151,1049.6382467000076,,,,,,,,,,,,,,,,,,,,,,,,,,,,,,1049.6222704000102,1049.6382467000076,1050.1385138000041,1050.1218003999966,,,,,,,,,,,,,,,,,,,,,,,,,,1050.1242517000064,1050.1385138000041,1050.1385138000041,1050.1385138000041,1053.138293099997,1053.138293099997,1053.138293099997,1053.1221954000066,j,1.7491778999974485,0.17591810000885744,1053.1222400999977,1053.1222513000102,None,,,,,,,,,,,,,,00034,001,2026-01-16_11h55.32.155,MST_task,2024.2.0,59.942299544470025,2026-01-16 11h55.53.994690 +0530,
,Objects\123a.jpg,152,0,153,,,,,,,j,2.4334841999952914,0.21606310000061058,None,,,,,,153,0,152,1053.138293099997,,,,,,,,,,,,,,,,,,,,,,,,,,,,,,1053.1223498000036,1053.138293099997,1053.6385042000038,1053.621768099998,,,,,,,,,,,,,,,,,,,,,,,,,,1053.6242828999966,1053.6385042000038,1053.6385042000038,1053.6385042000038,1056.6382838999998,1056.6382838999998,1056.6382838999998,1056.6220796999987,j,2.4334841999952914,0.21606310000061058,1056.6221253999975,1056.6221365000092,None,,,,,,,,,,,,,,00034,001,2026-01-16_11h55.32.155,MST_task,2024.2.0,59.942299544470025,2026-01-16 11h55.53.994690 +0530,
,Objects\009a.jpg,153,0,154,,,,,,,f,1.0054608999926131,0.1759582000086084,None,,,,,,154,0,153,1056.6382838999998,,,,,,,,,,,,,,,,,,,,,,,,,,,,,,1056.6222038999986,1056.6382838999998,1057.1385318000102,1057.1217187000002,,,,,,,,,,,,,,,,,,,,,,,,,,1057.1243611999962,1057.1385318000102,1057.1385318000102,1057.1385318000102,1060.1383101999963,1060.1383101999963,1060.1383101999963,1060.1220337999985,f,1.0054608999926131,0.1759582000086084,1060.1220756999974,1060.1220871999976,None,,,,,,,,,,,,,,00034,001,2026-01-16_11h55.32.155,MST_task,2024.2.0,59.942299544470025,2026-01-16 11h55.53.994690 +0530,
,Scenes\188a.jpg,154,0,155,,,,,,,j,0.7850440000038361,0.18471499999577645,None,,,,,,155,0,154,1060.1383101999963,,,,,,,,,,,,,,,,,,,,,,,,,,,,,,1060.12215190001,1060.1383101999963,1060.6388829000061,1060.6218104,,,,,,,,,,,,,,,,,,,,,,,,,,1060.6305121000041,1060.6388829000061,1060.6388829000061,1060.6388829000061,1063.6382789000054,1063.6382789000054,1063.6382789000054,1063.6225990000094,j,0.7850440000038361,0.18471499999577645,1063.6245158000092,1063.6245354999992,None,,,,,,,,,,,,,,00034,001,2026-01-16_11h55.32.155,MST_task,2024.2.0,59.942299544470025,2026-01-16 11h55.53.994690 +0530,
,Scenes\075a.jpg,155,0,156,,,,,,,j,1.6612337999977171,0.20803779999550898,None,,,,,,156,0,155,1063.6382789000054,,,,,,,,,,,,,,,,,,,,,,,,,,,,,,1063.6246068000037,1063.6382789000054,1064.138788700002,1064.1217310000065,,,,,,,,,,,,,,,,,,,,,,,,,,1064.1283170000097,1064.138788700002,1064.138788700002,1064.138788700002,1067.1382919000025,1067.1382919000025,1067.1382919000025,1067.1219650999992,j,1.6612337999977171,0.20803779999550898,1067.1220070999989,1067.122018199996,None,,,,,,,,,,,,,,00034,001,2026-01-16_11h55.32.155,MST_task,2024.2.0,59.942299544470025,2026-01-16 11h55.53.994690 +0530,
,Scenes\001a.jpg,156,0,157,,,,,,,f,2.601157900004182,0.1834448000008706,None,,,,,,157,0,156,1067.1382919000025,,,,,,,,,,,,,,,,,,,,,,,,,,,,,,1067.1221137000102,1067.1382919000025,1067.6389001000061,1067.6217404000054,,,,,,,,,,,,,,,,,,,,,,,,,,1067.6326351000025,1067.6389001000061,1067.6389001000061,1067.6389001000061,1070.6383034000028,1070.6383034000028,1070.6383034000028,1070.6219803999993,f,2.601157900004182,0.1834448000008706,1070.6220229000028,1070.622033599997,None,,,,,,,,,,,,,,00034,001,2026-01-16_11h55.32.155,MST_task,2024.2.0,59.942299544470025,2026-01-16 11h55.53.994690 +0530,
