thisN,thisTrialN,thisRepN,key_resp_3.keys,key_resp_3.rt,key_resp_3.duration,trials.thisRepN,trials.thisTrialN,trials.thisN,thisRow.t,notes,intro_page.started,text.started,key_resp.started,intro_page.stopped,key_resp.keys,key_resp.rt,key_resp.duration,instructions.started,text_2.started,key_resp_2.started,instructions.stopped,key_resp_2.keys,key_resp_2.rt,key_resp_2.duration,demo1.started,image_1.started,image_2.started,text_7.started,key_resp_6.started,text_9.started,demo1.stopped,key_resp_6.keys,key_resp_6.rt,key_resp_6.duration,demo2.started,image_5.started,image_6.started,text_11.started,text_12.started,key_resp_8.started,demo2.stopped,key_resp_8.keys,key_resp_8.rt,key_resp_8.duration,demo_conclusion.started,text_13.started,key_resp_9.started,demo_conclusion.stopped,key_resp_9.keys,key_resp_9.rt,key_resp_9.duration,start_test.started,text_6.started,key_resp_5.started,start_test.stopped,key_resp_5.keys,key_resp_5.rt,key_resp_5.duration,ISI.started,text_4.started,text_4.stopped,ISI.stopped,routine_1.started,image.started,text_3.started,key_resp_3.started,routine_1.stopped,image_path,position_of_stimuli,trials.key_resp_3.keys,trials.key_resp_3.rt,trials.key_resp_3.duration,End_page.started,text_5.started,key_resp_4.started,End_page.stopped,key_resp_4.keys,key_resp_4.rt,key_resp_4.duration,participant,session,date,expName,psychopyVersion,frameRate,expStart,
,,,,,,,,,,,0.0017427000002498971,0.003917400000318594,0.003917400000318594,4.64568170000075,space,4.623407199999747,None,,,,,,,,,,,,,,,,,,,,,,,,,,,,,,,,,,,,,,,,,,,,,,,,,,,,,,,,,,,,,,,00030,001,2025-11-18_16h42.15.702,MST_test,2024.2.0,60.00812509989834,2025-11-18 16h42.21.778469 +0530,
,,,,,,,,,,,,,,,,,,4.645732300000418,4.659878500000559,4.659878500000559,16.27654580000035,space,11.607808100000511,None,,,,,,,,,,,,,,,,,,,,,,,,,,,,,,,,,,,,,,,,,,,,,,,,,,,,,,,,00030,001,2025-11-18_16h42.15.702,MST_test,2024.2.0,60.00812509989834,2025-11-18 16h42.21.778469 +0530,
,,,,,,,,,,,,,,,,,,,,,,,,,16.27664460000051,16.292222000000038,16.292222000000038,16.292222000000038,16.292222000000038,16.292222000000038,25.89420980000068,space,9.599165999999968,None,,,,,,,,,,,,,,,,,,,,,,,,,,,,,,,,,,,,,,,,,,,,,,00030,001,2025-11-18_16h42.15.702,MST_test,2024.2.0,60.00812509989834,2025-11-18 16h42.21.778469 +0530,
,,,,,,,,,,,,,,,,,,,,,,,,,,,,,,,,,,,25.894341900000654,25.908906399999978,25.908906399999978,25.908906399999978,25.908906399999978,25.908906399999978,28.742406899999878,space,2.8299379999998564,None,,,,,,,,,,,,,,,,,,,,,,,,,,,,,,,,,,,,00030,001,2025-11-18_16h42.15.702,MST_test,2024.2.0,60.00812509989834,2025-11-18 16h42.21.778469 +0530,
,,,,,,,,,,,,,,,,,,,,,,,,,,,,,,,,,,,,,,,,,,,,,28.742438199999924,28.758083700000498,28.758083700000498,43.260001999999986,space,14.484766399999899,None,,,,,,,,,,,,,,,,,,,,,,,,,,,,,00030,001,2025-11-18_16h42.15.702,MST_test,2024.2.0,60.00812509989834,2025-11-18 16h42.21.778469 +0530,
,,,,,,,,,,,,,,,,,,,,,,,,,,,,,,,,,,,,,,,,,,,,,,,,,,,,43.260120500000085,43.27480760000071,43.27480760000071,87.95993630000066,space,44.6796104999994,None,,,,,,,,,,,,,,,,,,,,,,00030,001,2025-11-18_16h42.15.702,MST_test,2024.2.0,60.00812509989834,2025-11-18 16h42.21.778469 +0530,
0,0,1,s,10.817778399999952,None,1,0,0,87.97451679999995,,,,,,,,,,,,,,,,,,,,,,,,,,,,,,,,,,,,,,,,,,,,,,,,,,87.96812829999999,87.97451679999995,88.48151099999995,88.45966320000025,88.4785294000003,88.48151099999995,88.48151099999995,88.48151099999995,99.31060320000051,Scenes\040a.jpg,post,s,10.817778399999952,None,,,,,,,,00030,001,2025-11-18_16h42.15.702,MST_test,2024.2.0,60.00812509989834,2025-11-18 16h42.21.778469 +0530,
1,0,2,n,2.9391692000008334,None,2,0,1,99.32513569999992,,,,,,,,,,,,,,,,,,,,,,,,,,,,,,,,,,,,,,,,,,,,,,,,,,99.31094770000072,99.32513569999992,99.83204800000021,99.8095585000001,99.82941840000058,99.83204800000021,99.83204800000021,99.83204800000021,102.7756489000003,Objects\047b.jpg,mid,n,2.9391692000008334,None,,,,,,,,00030,001,2025-11-18_16h42.15.702,MST_test,2024.2.0,60.00812509989834,2025-11-18 16h42.21.778469 +0530,
2,0,3,n,2.3847858000008273,None,3,0,2,102.79137820000051,,,,,,,,,,,,,,,,,,,,,,,,,,,,,,,,,,,,,,,,,,,,,,,,,,102.77579160000005,102.79137820000051,103.29781810000077,103.27623820000008,103.29512109999996,103.29781810000077,103.29781810000077,103.29781810000077,105.69447910000054,Foils\106a.jpg,none,n,2.3847858000008273,None,,,,,,,,00030,001,2025-11-18_16h42.15.702,MST_test,2024.2.0,60.00812509989834,2025-11-18 16h42.21.778469 +0530,
3,0,4,n,5.324757700000191,None,4,0,3,105.7083704000006,,,,,,,,,,,,,,,,,,,,,,,,,,,,,,,,,,,,,,,,,,,,,,,,,,105.69487329999993,105.7083704000006,106.21459420000065,106.19314840000061,106.21159100000023,106.21459420000065,106.21459420000065,106.21459420000065,111.54425640000045,Scenes\003a.jpg,post,n,5.324757700000191,None,,,,,,,,00030,001,2025-11-18_16h42.15.702,MST_test,2024.2.0,60.00812509989834,2025-11-18 16h42.21.778469 +0530,
4,0,5,s,3.0951814000000013,None,5,0,4,111.55844840000009,,,,,,,,,,,,,,,,,,,,,,,,,,,,,,,,,,,,,,,,,,,,,,,,,,111.54464670000016,111.55844840000009,112.05928829999993,112.04302740000003,112.05091990000074,112.05928829999993,112.05928829999993,112.05928829999993,115.16027329999997,Objects\107a.jpg,pre,s,3.0951814000000013,None,,,,,,,,00030,001,2025-11-18_16h42.15.702,MST_test,2024.2.0,60.00812509989834,2025-11-18 16h42.21.778469 +0530,
5,0,6,o,5.312059199999567,None,6,0,5,115.17496180000035,,,,,,,,,,,,,,,,,,,,,,,,,,,,,,,,,,,,,,,,,,,,,,,,,,115.1605711000002,115.17496180000035,115.67538360000071,115.65978619999987,115.66740860000027,115.67538360000071,115.67538360000071,115.67538360000071,120.99383579999994,Objects\044a.jpg,mid,o,5.312059199999567,None,,,,,,,,00030,001,2025-11-18_16h42.15.702,MST_test,2024.2.0,60.00812509989834,2025-11-18 16h42.21.778469 +0530,
6,0,7,s,4.897351300000082,None,7,0,6,121.00821870000073,,,,,,,,,,,,,,,,,,,,,,,,,,,,,,,,,,,,,,,,,,,,,,,,,,120.99418210000022,121.00821870000073,121.5133037000005,121.49275650000072,121.51070720000007,121.5133037000005,121.5133037000005,121.5133037000005,126.42652710000038,Foils\scenes1.jpg,none,s,4.897351300000082,None,,,,,,,,00030,001,2025-11-18_16h42.15.702,MST_test,2024.2.0,60.00812509989834,2025-11-18 16h42.21.778469 +0530,
7,0,8,s,3.2221663000000262,None,8,0,7,126.44156700000076,,,,,,,,,,,,,,,,,,,,,,,,,,,,,,,,,,,,,,,,,,,,,,,,,,126.42680800000016,126.44156700000076,126.96431350000057,126.92572139999993,126.96159059999991,126.96431350000057,126.96431350000057,126.96431350000057,130.19404029999987,Objects\131b.jpg,post,s,3.2221663000000262,None,,,,,,,,00030,001,2025-11-18_16h42.15.702,MST_test,2024.2.0,60.00812509989834,2025-11-18 16h42.21.778469 +0530,
8,0,9,o,2.230449100000442,None,9,0,8,130.2083278,,,,,,,,,,,,,,,,,,,,,,,,,,,,,,,,,,,,,,,,,,,,,,,,,,130.19439740000053,130.2083278,130.70844470000065,130.69288300000062,130.70107090000056,130.70844470000065,130.70844470000065,130.70844470000065,132.9439996000001,Objects\010a.jpg,post,o,2.230449100000442,None,,,,,,,,00030,001,2025-11-18_16h42.15.702,MST_test,2024.2.0,60.00812509989834,2025-11-18 16h42.21.778469 +0530,
9,0,10,o,1.0563429000003453,None,10,0,9,132.95824859999993,,,,,,,,,,,,,,,,,,,,,,,,,,,,,,,,,,,,,,,,,,,,,,,,,,132.94439190000048,132.95824859999993,133.4585358000004,133.4427936000002,133.45103430000017,133.4585358000004,133.4585358000004,133.4585358000004,134.5268702000003,Objects\183a.jpg,pre,o,1.0563429000003453,None,,,,,,,,00030,001,2025-11-18_16h42.15.702,MST_test,2024.2.0,60.00812509989834,2025-11-18 16h42.21.778469 +0530,
10,0,11,o,1.8485518000006778,None,11,0,10,134.5415997,,,,,,,,,,,,,,,,,,,,,,,,,,,,,,,,,,,,,,,,,,,,,,,,,,134.52722080000058,134.5415997,135.04192150000017,135.02585050000016,135.03246450000006,135.04192150000017,135.04192150000017,135.04192150000017,136.89348750000045,Objects\172a.jpg,mid,o,1.8485518000006778,None,,,,,,,,00030,001,2025-11-18_16h42.15.702,MST_test,2024.2.0,60.00812509989834,2025-11-18 16h42.21.778469 +0530,
11,0,12,o,2.469274900000528,None,12,0,11,136.9084240000002,,,,,,,,,,,,,,,,,,,,,,,,,,,,,,,,,,,,,,,,,,,,,,,,,,136.8937544999999,136.9084240000002,137.42141680000077,137.39280450000024,137.41853680000077,137.42141680000077,137.42141680000077,137.42141680000077,139.89468280000074,Scenes\055b.jpg,mid,o,2.469274900000528,None,,,,,,,,00030,001,2025-11-18_16h42.15.702,MST_test,2024.2.0,60.00812509989834,2025-11-18 16h42.21.778469 +0530,
12,0,13,s,5.441917799999828,None,13,0,12,139.9084010000006,,,,,,,,,,,,,,,,,,,,,,,,,,,,,,,,,,,,,,,,,,,,,,,,,,139.8950633000004,139.9084010000006,140.40909180000017,140.39286750000065,140.4051081000007,140.40909180000017,140.40909180000017,140.40909180000017,145.86028280000028,Scenes\182a.jpg,post,s,5.441917799999828,None,,,,,,,,00030,001,2025-11-18_16h42.15.702,MST_test,2024.2.0,60.00812509989834,2025-11-18 16h42.21.778469 +0530,
13,0,14,o,1.5308424999993804,None,14,0,13,145.8748083999999,,,,,,,,,,,,,,,,,,,,,,,,,,,,,,,,,,,,,,,,,,,,,,,,,,145.86061380000046,145.8748083999999,146.3755557000004,146.35932090000006,146.3659121999999,146.3755557000004,146.3755557000004,146.3755557000004,147.91065890000027,Objects\163a.jpg,mid,o,1.5308424999993804,None,,,,,,,,00030,001,2025-11-18_16h42.15.702,MST_test,2024.2.0,60.00812509989834,2025-11-18 16h42.21.778469 +0530,
14,0,15,n,3.963817100000597,None,15,0,14,147.92477800000052,,,,,,,,,,,,,,,,,,,,,,,,,,,,,,,,,,,,,,,,,,,,,,,,,,147.9110212000005,147.92477800000052,148.43143580000014,148.40943640000023,148.4286376,148.43143580000014,148.43143580000014,148.43143580000014,152.41076860000067,Scenes\147b.jpg,post,n,3.963817100000597,None,,,,,,,,00030,001,2025-11-18_16h42.15.702,MST_test,2024.2.0,60.00812509989834,2025-11-18 16h42.21.778469 +0530,
15,0,16,o,1.985083399999894,None,16,0,15,152.4251735000007,,,,,,,,,,,,,,,,,,,,,,,,,,,,,,,,,,,,,,,,,,,,,,,,,,152.41116970000076,152.4251735000007,152.92928949999987,152.90984350000053,152.9261591000004,152.92928949999987,152.92928949999987,152.92928949999987,154.9264146000005,Scenes\139b.jpg,pre,o,1.985083399999894,None,,,,,,,,00030,001,2025-11-18_16h42.15.702,MST_test,2024.2.0,60.00812509989834,2025-11-18 16h42.21.778469 +0530,
16,0,17,n,6.887068099999851,None,17,0,16,154.94157950000044,,,,,,,,,,,,,,,,,,,,,,,,,,,,,,,,,,,,,,,,,,,,,,,,,,154.92666009999994,154.94157950000044,155.45212270000047,155.4261978000004,155.4489065000007,155.45212270000047,155.45212270000047,155.45212270000047,162.34367830000065,Foils\scenes22.jpg,none,n,6.887068099999851,None,,,,,,,,00030,001,2025-11-18_16h42.15.702,MST_test,2024.2.0,60.00812509989834,2025-11-18 16h42.21.778469 +0530,
17,0,18,n,3.8714934000008725,None,18,0,17,162.35824880000018,,,,,,,,,,,,,,,,,,,,,,,,,,,,,,,,,,,,,,,,,,,,,,,,,,162.3439397000002,162.35824880000018,162.85948670000016,162.84279200000037,162.85549119999996,162.85948670000016,162.85948670000016,162.85948670000016,166.74401500000022,Foils\074a.jpg,none,n,3.8714934000008725,None,,,,,,,,00030,001,2025-11-18_16h42.15.702,MST_test,2024.2.0,60.00812509989834,2025-11-18 16h42.21.778469 +0530,
18,0,19,n,4.493889700000182,None,19,0,18,166.7582407,,,,,,,,,,,,,,,,,,,,,,,,,,,,,,,,,,,,,,,,,,,,,,,,,,166.74444740000035,166.7582407,167.26941250000073,167.24255620000076,167.26659199999995,167.26941250000073,167.26941250000073,167.26941250000073,171.7771760000005,Scenes\190b.jpg,post,n,4.493889700000182,None,,,,,,,,00030,001,2025-11-18_16h42.15.702,MST_test,2024.2.0,60.00812509989834,2025-11-18 16h42.21.778469 +0530,
19,0,20,n,3.0362630999998146,None,20,0,19,171.79177320000053,,,,,,,,,,,,,,,,,,,,,,,,,,,,,,,,,,,,,,,,,,,,,,,,,,171.7776001000002,171.79177320000053,172.29456980000032,172.2755557999999,172.29131060000054,172.29456980000032,172.29456980000032,172.29456980000032,175.34393420000015,Objects\078b.jpg,pre,n,3.0362630999998146,None,,,,,,,,00030,001,2025-11-18_16h42.15.702,MST_test,2024.2.0,60.00812509989834,2025-11-18 16h42.21.778469 +0530,
20,0,21,n,4.8452426999992895,None,21,0,20,175.35827000000063,,,,,,,,,,,,,,,,,,,,,,,,,,,,,,,,,,,,,,,,,,,,,,,,,,175.34431790000053,175.35827000000063,175.86195810000027,175.84300729999995,175.8597273000005,175.86195810000027,175.86195810000027,175.86195810000027,180.71070650000001,Foils\086a.jpg,none,n,4.8452426999992895,None,,,,,,,,00030,001,2025-11-18_16h42.15.702,MST_test,2024.2.0,60.00812509989834,2025-11-18 16h42.21.778469 +0530,
21,0,22,s,3.539577200000167,None,22,0,21,180.72486000000026,,,,,,,,,,,,,,,,,,,,,,,,,,,,,,,,,,,,,,,,,,,,,,,,,,180.71106800000052,180.72486000000026,181.23106350000035,181.20957129999988,181.22808840000016,181.23106350000035,181.23106350000035,181.23106350000035,184.77742650000073,Scenes\123b.jpg,pre,s,3.539577200000167,None,,,,,,,,00030,001,2025-11-18_16h42.15.702,MST_test,2024.2.0,60.00812509989834,2025-11-18 16h42.21.778469 +0530,
22,0,23,o,1.2547082000000955,None,23,0,22,184.7918266000006,,,,,,,,,,,,,,,,,,,,,,,,,,,,,,,,,,,,,,,,,,,,,,,,,,184.7778618000002,184.7918266000006,185.29241920000004,185.2757571000002,185.28352010000071,185.29241920000004,185.29241920000004,185.29241920000004,186.56065110000054,Objects\098a.jpg,mid,o,1.2547082000000955,None,,,,,,,,00030,001,2025-11-18_16h42.15.702,MST_test,2024.2.0,60.00812509989834,2025-11-18 16h42.21.778469 +0530,
23,0,24,s,2.1792100000002392,None,24,0,23,186.57475980000072,,,,,,,,,,,,,,,,,,,,,,,,,,,,,,,,,,,,,,,,,,,,,,,,,,186.56105610000031,186.57475980000072,187.0799004999999,187.05978070000037,187.07740080000076,187.0799004999999,187.0799004999999,187.0799004999999,189.2611267000002,Foils\065a.jpg,none,s,2.1792100000002392,None,,,,,,,,00030,001,2025-11-18_16h42.15.702,MST_test,2024.2.0,60.00812509989834,2025-11-18 16h42.21.778469 +0530,
24,0,25,n,3.7523782000007486,None,25,0,24,189.27486430000044,,,,,,,,,,,,,,,,,,,,,,,,,,,,,,,,,,,,,,,,,,,,,,,,,,189.2615506000002,189.27486430000044,189.77876090000063,189.7594506000005,189.77628679999998,189.77876090000063,189.77876090000063,189.77876090000063,193.5439264000006,Foils\105a.jpg,none,n,3.7523782000007486,None,,,,,,,,00030,001,2025-11-18_16h42.15.702,MST_test,2024.2.0,60.00812509989834,2025-11-18 16h42.21.778469 +0530,
25,0,26,o,1.82188639999913,None,26,0,25,193.55841930000042,,,,,,,,,,,,,,,,,,,,,,,,,,,,,,,,,,,,,,,,,,,,,,,,,,193.54435300000023,193.55841930000042,194.06921620000048,194.0426938999999,194.0663822000006,194.06921620000048,194.06921620000048,194.06921620000048,195.89429100000052,Scenes\010b.jpg,post,o,1.82188639999913,None,,,,,,,,00030,001,2025-11-18_16h42.15.702,MST_test,2024.2.0,60.00812509989834,2025-11-18 16h42.21.778469 +0530,
26,0,27,s,4.520806799999264,None,27,0,26,195.9082554000006,,,,,,,,,,,,,,,,,,,,,,,,,,,,,,,,,,,,,,,,,,,,,,,,,,195.89463280000018,195.9082554000006,196.41040410000005,196.3926949000006,196.40750240000034,196.41040410000005,196.41040410000005,196.41040410000005,200.9424484000001,Objects\155b.jpg,pre,s,4.520806799999264,None,,,,,,,,00030,001,2025-11-18_16h42.15.702,MST_test,2024.2.0,60.00812509989834,2025-11-18 16h42.21.778469 +0530,
27,0,28,s,2.1327317999994193,None,28,0,27,200.9581164000001,,,,,,,,,,,,,,,,,,,,,,,,,,,,,,,,,,,,,,,,,,,,,,,,,,200.94259430000056,200.9581164000001,201.46198410000034,201.44271160000062,201.45905390000007,201.46198410000034,201.46198410000034,201.46198410000034,203.61034350000045,Scenes\004a.jpg,mid,s,2.1327317999994193,None,,,,,,,,00030,001,2025-11-18_16h42.15.702,MST_test,2024.2.0,60.00812509989834,2025-11-18 16h42.21.778469 +0530,
28,0,29,o,1.0477547999998933,None,29,0,28,203.62482290000025,,,,,,,,,,,,,,,,,,,,,,,,,,,,,,,,,,,,,,,,,,,,,,,,,,203.61067390000062,203.62482290000025,204.13117870000042,204.10951019999993,204.1280708000004,204.13117870000042,204.13117870000042,204.13117870000042,205.19371180000053,Objects\015b.jpg,pre,o,1.0477547999998933,None,,,,,,,,00030,001,2025-11-18_16h42.15.702,MST_test,2024.2.0,60.00812509989834,2025-11-18 16h42.21.778469 +0530,
29,0,30,s,1.9268175999995947,None,30,0,29,205.20835570000054,,,,,,,,,,,,,,,,,,,,,,,,,,,,,,,,,,,,,,,,,,,,,,,,,,205.19404080000004,205.20835570000054,205.70848960000058,205.69306790000064,205.70003140000063,205.70848960000058,205.70848960000058,205.70848960000058,207.6443149000006,Objects\036a.jpg,post,s,1.9268175999995947,None,,,,,,,,00030,001,2025-11-18_16h42.15.702,MST_test,2024.2.0,60.00812509989834,2025-11-18 16h42.21.778469 +0530,
30,0,31,s,5.425427400000444,None,31,0,30,207.65822209999988,,,,,,,,,,,,,,,,,,,,,,,,,,,,,,,,,,,,,,,,,,,,,,,,,,207.64470280000023,207.65822209999988,208.16997340000034,208.1429988,208.16697850000037,208.16997340000034,208.16997340000034,208.16997340000034,213.61077710000063,Scenes\149b.jpg,post,s,5.425427400000444,None,,,,,,,,00030,001,2025-11-18_16h42.15.702,MST_test,2024.2.0,60.00812509989834,2025-11-18 16h42.21.778469 +0530,
31,0,32,s,3.805313400000159,None,32,0,31,213.62493340000037,,,,,,,,,,,,,,,,,,,,,,,,,,,,,,,,,,,,,,,,,,,,,,,,,,213.61116610000045,213.62493340000037,214.1252497000005,214.10943880000013,214.1190501000001,214.1252497000005,214.1252497000005,214.1252497000005,217.94363440000052,Scenes\052a.jpg,mid,s,3.805313400000159,None,,,,,,,,00030,001,2025-11-18_16h42.15.702,MST_test,2024.2.0,60.00812509989834,2025-11-18 16h42.21.778469 +0530,
32,0,33,o,1.0396002000006774,None,33,0,32,217.95837460000075,,,,,,,,,,,,,,,,,,,,,,,,,,,,,,,,,,,,,,,,,,,,,,,,,,217.94399130000056,217.95837460000075,218.4591248000006,218.44300480000038,218.45006319999993,218.4591248000006,218.4591248000006,218.4591248000006,219.51027310000063,Objects\038a.jpg,mid,o,1.0396002000006774,None,,,,,,,,00030,001,2025-11-18_16h42.15.702,MST_test,2024.2.0,60.00812509989834,2025-11-18 16h42.21.778469 +0530,
33,0,34,n,2.97919550000006,None,34,0,33,219.52501089999987,,,,,,,,,,,,,,,,,,,,,,,,,,,,,,,,,,,,,,,,,,,,,,,,,,219.5106093000004,219.52501089999987,220.04736720000074,220.00954850000016,220.04477110000062,220.04736720000074,220.04736720000074,220.04736720000074,223.04398540000057,Foils\081a.jpg,none,n,2.97919550000006,None,,,,,,,,00030,001,2025-11-18_16h42.15.702,MST_test,2024.2.0,60.00812509989834,2025-11-18 16h42.21.778469 +0530,
34,0,35,n,2.9158980000001975,None,35,0,34,223.05847410000024,,,,,,,,,,,,,,,,,,,,,,,,,,,,,,,,,,,,,,,,,,,,,,,,,,223.04437580000013,223.05847410000024,223.55897910000022,223.5426911000004,223.55629060000047,223.55897910000022,223.55897910000022,223.55897910000022,226.4774821000001,Foils\scenes7.jpg,none,n,2.9158980000001975,None,,,,,,,,00030,001,2025-11-18_16h42.15.702,MST_test,2024.2.0,60.00812509989834,2025-11-18 16h42.21.778469 +0530,
35,0,36,o,1.418715599999814,None,36,0,35,226.4918243000002,,,,,,,,,,,,,,,,,,,,,,,,,,,,,,,,,,,,,,,,,,,,,,,,,,226.47782840000036,226.4918243000002,226.9920974000006,226.97594740000022,226.9830107000007,226.9920974000006,226.9920974000006,226.9920974000006,228.42742679999992,Objects\052a.jpg,pre,o,1.418715599999814,None,,,,,,,,00030,001,2025-11-18_16h42.15.702,MST_test,2024.2.0,60.00812509989834,2025-11-18 16h42.21.778469 +0530,
36,0,37,n,1.6772620000001552,None,37,0,36,228.4418327000003,,,,,,,,,,,,,,,,,,,,,,,,,,,,,,,,,,,,,,,,,,,,,,,,,,228.42775560000064,228.4418327000003,228.9493809000005,228.92627520000042,228.94642329999988,228.9493809000005,228.9493809000005,228.9493809000005,230.64358119999997,Scenes\186b.jpg,pre,n,1.6772620000001552,None,,,,,,,,00030,001,2025-11-18_16h42.15.702,MST_test,2024.2.0,60.00812509989834,2025-11-18 16h42.21.778469 +0530,
37,0,38,o,1.091335699999945,None,38,0,37,230.65833780000048,,,,,,,,,,,,,,,,,,,,,,,,,,,,,,,,,,,,,,,,,,,,,,,,,,230.64390410000033,230.65833780000048,231.15928260000055,231.14300989999992,231.15020189999996,231.15928260000055,231.15928260000055,231.15928260000055,232.26056830000016,Objects\121a.jpg,post,o,1.091335699999945,None,,,,,,,,00030,001,2025-11-18_16h42.15.702,MST_test,2024.2.0,60.00812509989834,2025-11-18 16h42.21.778469 +0530,
38,0,39,o,1.3283114999994723,None,39,0,38,232.27498360000027,,,,,,,,,,,,,,,,,,,,,,,,,,,,,,,,,,,,,,,,,,,,,,,,,,232.26091450000058,232.27498360000027,232.77826679999998,232.75972100000035,232.77575510000042,232.77826679999998,232.77826679999998,232.77826679999998,234.11119550000058,Objects\128b.jpg,pre,o,1.3283114999994723,None,,,,,,,,00030,001,2025-11-18_16h42.15.702,MST_test,2024.2.0,60.00812509989834,2025-11-18 16h42.21.778469 +0530,
39,0,40,n,2.9187933000002886,None,40,0,39,234.12499150000076,,,,,,,,,,,,,,,,,,,,,,,,,,,,,,,,,,,,,,,,,,,,,,,,,,234.11163360000046,234.12499150000076,234.62820170000032,234.6095677000003,234.6254869000004,234.62820170000032,234.62820170000032,234.62820170000032,237.56079110000064,Foils\049a.jpg,none,n,2.9187933000002886,None,,,,,,,,00030,001,2025-11-18_16h42.15.702,MST_test,2024.2.0,60.00812509989834,2025-11-18 16h42.21.778469 +0530,
40,0,41,n,1.3880569000002652,None,41,0,40,237.5750981000001,,,,,,,,,,,,,,,,,,,,,,,,,,,,,,,,,,,,,,,,,,,,,,,,,,237.5612052000006,237.5750981000001,238.0789678000001,238.0596144000001,238.07614060000014,238.0789678000001,238.0789678000001,238.0789678000001,239.4772436000003,Foils\097a.jpg,none,n,1.3880569000002652,None,,,,,,,,00030,001,2025-11-18_16h42.15.702,MST_test,2024.2.0,60.00812509989834,2025-11-18 16h42.21.778469 +0530,
41,0,42,n,3.3353038000004744,None,42,0,41,239.4917761000006,,,,,,,,,,,,,,,,,,,,,,,,,,,,,,,,,,,,,,,,,,,,,,,,,,239.47764600000028,239.4917761000006,239.99607450000076,239.97617190000074,239.99375680000048,239.99607450000076,239.99607450000076,239.99607450000076,243.3442296000003,Objects\141b.jpg,mid,n,3.3353038000004744,None,,,,,,,,00030,001,2025-11-18_16h42.15.702,MST_test,2024.2.0,60.00812509989834,2025-11-18 16h42.21.778469 +0530,
42,0,43,o,1.4164131999996243,None,43,0,42,243.35848570000053,,,,,,,,,,,,,,,,,,,,,,,,,,,,,,,,,,,,,,,,,,,,,,,,,,243.34462050000002,243.35848570000053,243.85846310000034,243.84205240000028,243.85488020000048,243.85846310000034,243.85846310000034,243.85846310000034,245.27764410000054,Objects\095b.jpg,mid,o,1.4164131999996243,None,,,,,,,,00030,001,2025-11-18_16h42.15.702,MST_test,2024.2.0,60.00812509989834,2025-11-18 16h42.21.778469 +0530,
43,0,44,s,1.6813491000002614,None,44,0,43,245.2915326000002,,,,,,,,,,,,,,,,,,,,,,,,,,,,,,,,,,,,,,,,,,,,,,,,,,245.27798580000035,245.2915326000002,245.7943361000007,245.7759304000001,245.79202310000073,245.7943361000007,245.7943361000007,245.7943361000007,247.47761739999987,Foils\026a.jpg,none,s,1.6813491000002614,None,,,,,,,,00030,001,2025-11-18_16h42.15.702,MST_test,2024.2.0,60.00812509989834,2025-11-18 16h42.21.778469 +0530,
44,0,45,s,2.2740193999998155,None,45,0,44,247.49163959999987,,,,,,,,,,,,,,,,,,,,,,,,,,,,,,,,,,,,,,,,,,,,,,,,,,247.47798010000042,247.49163959999987,247.9928501000004,247.9759229000001,247.98989750000055,247.9928501000004,247.9928501000004,247.9928501000004,250.27763210000012,Scenes\105a.jpg,post,s,2.2740193999998155,None,,,,,,,,00030,001,2025-11-18_16h42.15.702,MST_test,2024.2.0,60.00812509989834,2025-11-18 16h42.21.778469 +0530,
45,0,46,o,1.1647057999998651,None,46,0,45,250.29164320000018,,,,,,,,,,,,,,,,,,,,,,,,,,,,,,,,,,,,,,,,,,,,,,,,,,250.2780283000002,250.29164320000018,250.8144280000006,250.77618170000005,250.81131950000054,250.8144280000006,250.8144280000006,250.8144280000006,251.9941273000004,Objects\145b.jpg,pre,o,1.1647057999998651,None,,,,,,,,00030,001,2025-11-18_16h42.15.702,MST_test,2024.2.0,60.00812509989834,2025-11-18 16h42.21.778469 +0530,
46,0,47,n,2.585650799999712,None,47,0,46,252.00817570000072,,,,,,,,,,,,,,,,,,,,,,,,,,,,,,,,,,,,,,,,,,,,,,,,,,251.99453400000039,252.00817570000072,252.52120270000069,252.49302740000076,252.51823969999987,252.52120270000069,252.52120270000069,252.52120270000069,255.1107821000005,Scenes\029b.jpg,post,n,2.585650799999712,None,,,,,,,,00030,001,2025-11-18_16h42.15.702,MST_test,2024.2.0,60.00812509989834,2025-11-18 16h42.21.778469 +0530,
47,0,48,s,2.1614300999999614,None,48,0,47,255.12477900000067,,,,,,,,,,,,,,,,,,,,,,,,,,,,,,,,,,,,,,,,,,,,,,,,,,255.1111630000005,255.12477900000067,255.62559210000018,255.6093619000003,255.61540260000038,255.62559210000018,255.62559210000018,255.62559210000018,257.7929598999999,Objects\022a.jpg,pre,s,2.1614300999999614,None,,,,,,,,00030,001,2025-11-18_16h42.15.702,MST_test,2024.2.0,60.00812509989834,2025-11-18 16h42.21.778469 +0530,
48,0,49,s,1.4941968000002817,None,49,0,48,257.8081630000006,,,,,,,,,,,,,,,,,,,,,,,,,,,,,,,,,,,,,,,,,,,,,,,,,,257.79320610000013,257.8081630000006,258.30849900000067,258.2929047000007,258.29988330000015,258.30849900000067,258.30849900000067,258.30849900000067,259.8111183000001,Objects\168a.jpg,post,s,1.4941968000002817,None,,,,,,,,00030,001,2025-11-18_16h42.15.702,MST_test,2024.2.0,60.00812509989834,2025-11-18 16h42.21.778469 +0530,
49,0,50,s,2.6907768000000942,None,50,0,49,259.8249248000002,,,,,,,,,,,,,,,,,,,,,,,,,,,,,,,,,,,,,,,,,,,,,,,,,,259.8115172000007,259.8249248000002,260.3278525000005,260.3092956999999,260.3251258999999,260.3278525000005,260.3278525000005,260.3278525000005,263.02663740000025,Scenes\122a.jpg,mid,s,2.6907768000000942,None,,,,,,,,00030,001,2025-11-18_16h42.15.702,MST_test,2024.2.0,60.00812509989834,2025-11-18 16h42.21.778469 +0530,
50,0,51,s,3.2990546999999424,None,51,0,50,263.0415993000006,,,,,,,,,,,,,,,,,,,,,,,,,,,,,,,,,,,,,,,,,,,,,,,,,,263.02688240000043,263.0415993000006,263.5439556000001,263.52593180000076,263.54118460000063,263.5439556000001,263.5439556000001,263.5439556000001,266.8608242999999,Objects\160b.jpg,mid,s,3.2990546999999424,None,,,,,,,,00030,001,2025-11-18_16h42.15.702,MST_test,2024.2.0,60.00812509989834,2025-11-18 16h42.21.778469 +0530,
51,0,52,o,1.7316519999994853,None,52,0,51,266.8749228000006,,,,,,,,,,,,,,,,,,,,,,,,,,,,,,,,,,,,,,,,,,,,,,,,,,266.8612137,266.8749228000006,267.3750409000004,267.3592284000006,267.36777340000026,267.3750409000004,267.3750409000004,267.3750409000004,269.11076610000055,Objects\081a.jpg,post,o,1.7316519999994853,None,,,,,,,,00030,001,2025-11-18_16h42.15.702,MST_test,2024.2.0,60.00812509989834,2025-11-18 16h42.21.778469 +0530,
52,0,53,s,1.8202761000002283,None,53,0,52,269.1249209000007,,,,,,,,,,,,,,,,,,,,,,,,,,,,,,,,,,,,,,,,,,,,,,,,,,269.1110896,269.1249209000007,269.63064060000033,269.60970330000055,269.6281073,269.63064060000033,269.63064060000033,269.63064060000033,271.4604194000003,Objects\116b.jpg,pre,s,1.8202761000002283,None,,,,,,,,00030,001,2025-11-18_16h42.15.702,MST_test,2024.2.0,60.00812509989834,2025-11-18 16h42.21.778469 +0530,
53,0,54,s,2.4845265000003565,None,54,0,53,271.4748141,,,,,,,,,,,,,,,,,,,,,,,,,,,,,,,,,,,,,,,,,,,,,,,,,,271.4607732000004,271.4748141,271.9754670000002,271.9592932000005,271.9717448000001,271.9754670000002,271.9754670000002,271.9754670000002,274.47560950000025,Scenes\100a.jpg,pre,s,2.4845265000003565,None,,,,,,,,00030,001,2025-11-18_16h42.15.702,MST_test,2024.2.0,60.00812509989834,2025-11-18 16h42.21.778469 +0530,
54,0,55,n,1.9418283999993946,None,55,0,54,274.49161340000046,,,,,,,,,,,,,,,,,,,,,,,,,,,,,,,,,,,,,,,,,,,,,,,,,,274.4757491999999,274.49161340000046,274.9970234000002,274.97581190000074,274.99415750000026,274.9970234000002,274.9970234000002,274.9970234000002,276.94430530000045,Objects\184b.jpg,post,n,1.9418283999993946,None,,,,,,,,00030,001,2025-11-18_16h42.15.702,MST_test,2024.2.0,60.00812509989834,2025-11-18 16h42.21.778469 +0530,
55,0,56,s,1.7868329000002632,None,56,0,55,276.95840279999993,,,,,,,,,,,,,,,,,,,,,,,,,,,,,,,,,,,,,,,,,,,,,,,,,,276.9447313999999,276.95840279999993,277.46393780000017,277.44240010000067,277.4610564000004,277.46393780000017,277.46393780000017,277.46393780000017,279.26043350000054,Scenes\067b.jpg,mid,s,1.7868329000002632,None,,,,,,,,00030,001,2025-11-18_16h42.15.702,MST_test,2024.2.0,60.00812509989834,2025-11-18 16h42.21.778469 +0530,
56,0,57,s,1.8331162000004042,None,57,0,56,279.27498689999993,,,,,,,,,,,,,,,,,,,,,,,,,,,,,,,,,,,,,,,,,,,,,,,,,,279.26078170000073,279.27498689999993,279.7778136000006,279.75941690000036,279.7749496000006,279.7778136000006,279.7778136000006,279.7778136000006,281.6274970000004,Objects\040b.jpg,mid,s,1.8331162000004042,None,,,,,,,,00030,001,2025-11-18_16h42.15.702,MST_test,2024.2.0,60.00812509989834,2025-11-18 16h42.21.778469 +0530,
57,0,58,n,4.763160200000129,None,58,0,57,281.6415912000002,,,,,,,,,,,,,,,,,,,,,,,,,,,,,,,,,,,,,,,,,,,,,,,,,,281.62781799999993,281.6415912000002,282.1441961999999,282.1262789000002,282.14122210000005,282.1441961999999,282.1441961999999,282.1441961999999,286.91102219999993,Scenes\009a.jpg,post,n,4.763160200000129,None,,,,,,,,00030,001,2025-11-18_16h42.15.702,MST_test,2024.2.0,60.00812509989834,2025-11-18 16h42.21.778469 +0530,
58,0,59,n,3.7021021000000474,None,59,0,58,286.9248739000004,,,,,,,,,,,,,,,,,,,,,,,,,,,,,,,,,,,,,,,,,,,,,,,,,,286.9114090000003,286.9248739000004,287.42907820000073,287.40945660000034,287.4258761000001,287.42907820000073,287.42907820000073,287.42907820000073,291.1440368000003,Scenes\089a.jpg,pre,n,3.7021021000000474,None,,,,,,,,00030,001,2025-11-18_16h42.15.702,MST_test,2024.2.0,60.00812509989834,2025-11-18 16h42.21.778469 +0530,
59,0,60,n,2.2409363000006124,None,60,0,59,291.1584714999999,,,,,,,,,,,,,,,,,,,,,,,,,,,,,,,,,,,,,,,,,,,,,,,,,,291.14442600000075,291.1584714999999,291.66629770000054,291.64426320000075,291.6631924000003,291.66629770000054,291.66629770000054,291.66629770000054,293.9105666000005,Scenes\111b.jpg,post,n,2.2409363000006124,None,,,,,,,,00030,001,2025-11-18_16h42.15.702,MST_test,2024.2.0,60.00812509989834,2025-11-18 16h42.21.778469 +0530,
60,0,61,n,3.489530200000445,None,61,0,60,293.92484180000065,,,,,,,,,,,,,,,,,,,,,,,,,,,,,,,,,,,,,,,,,,,,,,,,,,293.9109289000007,293.92484180000065,294.4330372000004,294.40955340000073,294.4305123000004,294.4330372000004,294.4330372000004,294.4330372000004,297.92670670000007,Scenes\169b.jpg,mid,n,3.489530200000445,None,,,,,,,,00030,001,2025-11-18_16h42.15.702,MST_test,2024.2.0,60.00812509989834,2025-11-18 16h42.21.778469 +0530,
61,0,62,s,1.6771579999995083,None,62,0,61,297.94160160000047,,,,,,,,,,,,,,,,,,,,,,,,,,,,,,,,,,,,,,,,,,,,,,,,,,297.9269492000003,297.94160160000047,298.4458228000003,298.4262853,298.4427086000005,298.4458228000003,298.4458228000003,298.4458228000003,300.1272385000002,Scenes\081a.jpg,pre,s,1.6771579999995083,None,,,,,,,,00030,001,2025-11-18_16h42.15.702,MST_test,2024.2.0,60.00812509989834,2025-11-18 16h42.21.778469 +0530,
62,0,63,n,2.5718166999995447,None,63,0,62,300.1417930000007,,,,,,,,,,,,,,,,,,,,,,,,,,,,,,,,,,,,,,,,,,,,,,,,,,300.12758060000033,300.1417930000007,300.6547842,300.6261733000001,300.6517437000002,300.6547842,300.6547842,300.6547842,303.2434550000007,Scenes\131b.jpg,post,n,2.5718166999995447,None,,,,,,,,00030,001,2025-11-18_16h42.15.702,MST_test,2024.2.0,60.00812509989834,2025-11-18 16h42.21.778469 +0530,
63,0,64,s,1.6235957000008057,None,64,0,63,303.2583215000004,,,,,,,,,,,,,,,,,,,,,,,,,,,,,,,,,,,,,,,,,,,,,,,,,,303.2437737,303.2583215000004,303.76325739999993,303.7427236000003,303.7603730999999,303.76325739999993,303.76325739999993,303.76325739999993,305.3937401000003,Objects\075b.jpg,post,s,1.6235957000008057,None,,,,,,,,00030,001,2025-11-18_16h42.15.702,MST_test,2024.2.0,60.00812509989834,2025-11-18 16h42.21.778469 +0530,
64,0,65,s,1.7424867999998241,None,65,0,64,305.40832070000033,,,,,,,,,,,,,,,,,,,,,,,,,,,,,,,,,,,,,,,,,,,,,,,,,,305.39417030000004,305.40832070000033,305.9245768999999,305.89291090000006,305.9216606,305.9245768999999,305.9245768999999,305.9245768999999,307.67759340000066,Scenes\032b.jpg,pre,s,1.7424867999998241,None,,,,,,,,00030,001,2025-11-18_16h42.15.702,MST_test,2024.2.0,60.00812509989834,2025-11-18 16h42.21.778469 +0530,
65,0,66,n,1.497446200000013,None,66,0,65,307.69171800000004,,,,,,,,,,,,,,,,,,,,,,,,,,,,,,,,,,,,,,,,,,,,,,,,,,307.6780220999999,307.69171800000004,308.20148880000033,308.17623880000065,308.19840079999994,308.20148880000033,308.20148880000033,308.20148880000033,309.7110327999999,Foils\scenes27.jpg,none,n,1.497446200000013,None,,,,,,,,00030,001,2025-11-18_16h42.15.702,MST_test,2024.2.0,60.00812509989834,2025-11-18 16h42.21.778469 +0530,
66,0,67,s,1.6651989000001777,None,67,0,66,309.7248747000003,,,,,,,,,,,,,,,,,,,,,,,,,,,,,,,,,,,,,,,,,,,,,,,,,,309.7113435000001,309.7248747000003,310.225539,310.2093367000007,310.2156158000007,310.225539,310.225539,310.225539,311.89450920000036,Scenes\097a.jpg,pre,s,1.6651989000001777,None,,,,,,,,00030,001,2025-11-18_16h42.15.702,MST_test,2024.2.0,60.00812509989834,2025-11-18 16h42.21.778469 +0530,
67,0,68,n,2.9485305999996854,None,68,0,67,311.9082315000005,,,,,,,,,,,,,,,,,,,,,,,,,,,,,,,,,,,,,,,,,,,,,,,,,,311.8948607000002,311.9082315000005,312.4140952000007,312.3929530000005,312.4114345000007,312.4140952000007,312.4140952000007,312.4140952000007,315.37752830000045,Foils\042a.jpg,none,n,2.9485305999996854,None,,,,,,,,00030,001,2025-11-18_16h42.15.702,MST_test,2024.2.0,60.00812509989834,2025-11-18 16h42.21.778469 +0530,
68,0,69,n,1.092862999999852,None,69,0,68,315.3914682000004,,,,,,,,,,,,,,,,,,,,,,,,,,,,,,,,,,,,,,,,,,,,,,,,,,315.3779088000001,315.3914682000004,315.89434940000046,315.8759178,315.89203820000057,315.89434940000046,315.89434940000046,315.89434940000046,316.9938888000006,Foils\scenes17.jpg,none,n,1.092862999999852,None,,,,,,,,00030,001,2025-11-18_16h42.15.702,MST_test,2024.2.0,60.00812509989834,2025-11-18 16h42.21.778469 +0530,
69,0,70,s,1.4620109999996203,None,70,0,69,317.0084534000007,,,,,,,,,,,,,,,,,,,,,,,,,,,,,,,,,,,,,,,,,,,,,,,,,,316.99424720000025,317.0084534000007,317.5086491000002,317.49258460000055,317.50078590000066,317.5086491000002,317.5086491000002,317.5086491000002,318.9771202000002,Objects\008a.jpg,post,s,1.4620109999996203,None,,,,,,,,00030,001,2025-11-18_16h42.15.702,MST_test,2024.2.0,60.00812509989834,2025-11-18 16h42.21.778469 +0530,
70,0,71,s,2.7122337999999218,None,71,0,70,318.9916946000003,,,,,,,,,,,,,,,,,,,,,,,,,,,,,,,,,,,,,,,,,,,,,,,,,,318.9774324,318.9916946000003,319.49902530000054,319.4751234000005,319.49613040000077,319.49902530000054,319.49902530000054,319.49902530000054,322.2274339000005,Scenes\086b.jpg,mid,s,2.7122337999999218,None,,,,,,,,00030,001,2025-11-18_16h42.15.702,MST_test,2024.2.0,60.00812509989834,2025-11-18 16h42.21.778469 +0530,
71,0,72,o,2.2518043999998554,None,72,0,71,322.2417728999999,,,,,,,,,,,,,,,,,,,,,,,,,,,,,,,,,,,,,,,,,,,,,,,,,,322.22780930000044,322.2417728999999,322.74267640000016,322.72618930000044,322.7355711,322.74267640000016,322.74267640000016,322.74267640000016,325.0101985000001,Objects\108a.jpg,pre,o,2.2518043999998554,None,,,,,,,,00030,001,2025-11-18_16h42.15.702,MST_test,2024.2.0,60.00812509989834,2025-11-18 16h42.21.778469 +0530,
72,0,73,s,3.337364900000466,None,73,0,72,325.02492490000077,,,,,,,,,,,,,,,,,,,,,,,,,,,,,,,,,,,,,,,,,,,,,,,,,,325.01055610000003,325.02492490000077,325.53035870000076,325.50982620000013,325.52760209999997,325.53035870000076,325.53035870000076,325.53035870000076,328.87552420000065,Scenes\179b.jpg,mid,s,3.337364900000466,None,,,,,,,,00030,001,2025-11-18_16h42.15.702,MST_test,2024.2.0,60.00812509989834,2025-11-18 16h42.21.778469 +0530,
73,0,74,o,1.4104938000000402,None,74,0,73,328.89146530000016,,,,,,,,,,,,,,,,,,,,,,,,,,,,,,,,,,,,,,,,,,,,,,,,,,328.8756422000006,328.89146530000016,329.39228600000024,329.3755716000005,329.38189910000074,329.39228600000024,329.39228600000024,329.39228600000024,330.8104858000006,Objects\148a.jpg,mid,o,1.4104938000000402,None,,,,,,,,00030,001,2025-11-18_16h42.15.702,MST_test,2024.2.0,60.00812509989834,2025-11-18 16h42.21.778469 +0530,
74,0,75,s,1.4038706000001184,None,75,0,74,330.8250529000006,,,,,,,,,,,,,,,,,,,,,,,,,,,,,,,,,,,,,,,,,,,,,,,,,,330.8108338000002,330.8250529000006,331.3268267000003,331.3093413000006,331.3239848000003,331.3268267000003,331.3268267000003,331.3268267000003,332.74331340000026,Scenes\119a.jpg,post,s,1.4038706000001184,None,,,,,,,,00030,001,2025-11-18_16h42.15.702,MST_test,2024.2.0,60.00812509989834,2025-11-18 16h42.21.778469 +0530,
75,0,76,s,3.3633286000003864,None,76,0,75,332.75835520000055,,,,,,,,,,,,,,,,,,,,,,,,,,,,,,,,,,,,,,,,,,,,,,,,,,332.7435740000001,332.75835520000055,333.2631822000003,333.2429658000001,333.26036509999994,333.2631822000003,333.2631822000003,333.2631822000003,336.64383570000064,Scenes\126a.jpg,post,s,3.3633286000003864,None,,,,,,,,00030,001,2025-11-18_16h42.15.702,MST_test,2024.2.0,60.00812509989834,2025-11-18 16h42.21.778469 +0530,
76,0,77,s,0.9317382000008365,None,77,0,76,336.6583595000002,,,,,,,,,,,,,,,,,,,,,,,,,,,,,,,,,,,,,,,,,,,,,,,,,,336.6442098000007,336.6583595000002,337.15904690000025,337.14270280000073,337.15459180000016,337.15904690000025,337.15904690000025,337.15904690000025,338.09476189999987,Scenes\174a.jpg,pre,s,0.9317382000008365,None,,,,,,,,00030,001,2025-11-18_16h42.15.702,MST_test,2024.2.0,60.00812509989834,2025-11-18 16h42.21.778469 +0530,
77,0,78,o,1.2820692000004783,None,78,0,77,338.1083868000005,,,,,,,,,,,,,,,,,,,,,,,,,,,,,,,,,,,,,,,,,,,,,,,,,,338.09509980000075,338.1083868000005,338.6091317999999,338.5926328000005,338.60025680000035,338.6091317999999,338.6091317999999,338.6091317999999,339.8945134000005,Objects\011a.jpg,pre,o,1.2820692000004783,None,,,,,,,,00030,001,2025-11-18_16h42.15.702,MST_test,2024.2.0,60.00812509989834,2025-11-18 16h42.21.778469 +0530,
78,0,79,n,2.463742499999171,None,79,0,78,339.9083435000002,,,,,,,,,,,,,,,,,,,,,,,,,,,,,,,,,,,,,,,,,,,,,,,,,,339.89485440000044,339.9083435000002,340.41113270000005,340.3933192000004,340.4087921,340.41113270000005,340.41113270000005,340.41113270000005,342.8774368000004,Objects\151b.jpg,pre,n,2.463742499999171,None,,,,,,,,00030,001,2025-11-18_16h42.15.702,MST_test,2024.2.0,60.00812509989834,2025-11-18 16h42.21.778469 +0530,
79,0,80,n,1.867454899999757,None,80,0,79,342.89173290000053,,,,,,,,,,,,,,,,,,,,,,,,,,,,,,,,,,,,,,,,,,,,,,,,,,342.8777791000002,342.89173290000053,343.41511530000025,343.37611840000045,343.41194760000053,343.41511530000025,343.41511530000025,343.41511530000025,345.29407850000007,Scenes\163b.jpg,pre,n,1.867454899999757,None,,,,,,,,00030,001,2025-11-18_16h42.15.702,MST_test,2024.2.0,60.00812509989834,2025-11-18 16h42.21.778469 +0530,
80,0,81,o,1.1998437000002014,None,81,0,80,345.3083709000002,,,,,,,,,,,,,,,,,,,,,,,,,,,,,,,,,,,,,,,,,,,,,,,,,,345.29442480000034,345.3083709000002,345.8112791000003,345.7928388999999,345.8085469000007,345.8112791000003,345.8112791000003,345.8112791000003,347.0266464000006,Objects\037b.jpg,post,o,1.1998437000002014,None,,,,,,,,00030,001,2025-11-18_16h42.15.702,MST_test,2024.2.0,60.00812509989834,2025-11-18 16h42.21.778469 +0530,
81,0,82,s,2.5318920999998227,None,82,0,81,347.0417172000007,,,,,,,,,,,,,,,,,,,,,,,,,,,,,,,,,,,,,,,,,,,,,,,,,,347.0268829000006,347.0417172000007,347.5427221,347.5261166,347.53985980000016,347.5427221,347.5427221,347.5427221,350.0774973000007,Scenes\060a.jpg,mid,s,2.5318920999998227,None,,,,,,,,00030,001,2025-11-18_16h42.15.702,MST_test,2024.2.0,60.00812509989834,2025-11-18 16h42.21.778469 +0530,
82,0,83,s,1.4906444000007468,None,83,0,82,350.0918451000007,,,,,,,,,,,,,,,,,,,,,,,,,,,,,,,,,,,,,,,,,,,,,,,,,,350.0778999000004,350.0918451000007,350.59324820000074,350.57598550000057,350.5902558000007,350.59324820000074,350.59324820000074,350.59324820000074,352.0933945000006,Scenes\181a.jpg,mid,s,1.4906444000007468,None,,,,,,,,00030,001,2025-11-18_16h42.15.702,MST_test,2024.2.0,60.00812509989834,2025-11-18 16h42.21.778469 +0530,
83,0,84,s,2.1699195999999574,None,84,0,83,352.1083656999999,,,,,,,,,,,,,,,,,,,,,,,,,,,,,,,,,,,,,,,,,,,,,,,,,,352.0936711000004,352.1083656999999,352.60909450000054,352.5929984000004,352.6019844000002,352.60909450000054,352.60909450000054,352.60909450000054,354.7939761000007,Objects\041a.jpg,post,s,2.1699195999999574,None,,,,,,,,00030,001,2025-11-18_16h42.15.702,MST_test,2024.2.0,60.00812509989834,2025-11-18 16h42.21.778469 +0530,
84,0,85,n,1.8096222999993188,None,85,0,84,354.80846680000013,,,,,,,,,,,,,,,,,,,,,,,,,,,,,,,,,,,,,,,,,,,,,,,,,,354.7943088000002,354.80846680000013,355.3137230000002,355.29300500000045,355.3113555,355.3137230000002,355.3137230000002,355.3137230000002,357.1276410999999,Foils\010a.jpg,none,n,1.8096222999993188,None,,,,,,,,00030,001,2025-11-18_16h42.15.702,MST_test,2024.2.0,60.00812509989834,2025-11-18 16h42.21.778469 +0530,
85,0,86,n,1.0927811999999903,None,86,0,85,357.14167,,,,,,,,,,,,,,,,,,,,,,,,,,,,,,,,,,,,,,,,,,,,,,,,,,357.1279991000001,357.14167,357.6462065000005,357.6262934000006,357.64350710000053,357.6462065000005,357.6462065000005,357.6462065000005,358.74434310000015,Foils\scenes20.jpg,none,n,1.0927811999999903,None,,,,,,,,00030,001,2025-11-18_16h42.15.702,MST_test,2024.2.0,60.00812509989834,2025-11-18 16h42.21.778469 +0530,
86,0,87,n,0.9096213000002535,None,87,0,86,358.7584411000007,,,,,,,,,,,,,,,,,,,,,,,,,,,,,,,,,,,,,,,,,,,,,,,,,,358.7447077000006,358.7584411000007,359.2615485000006,359.24312760000066,359.25934600000073,359.2615485000006,359.2615485000006,359.2615485000006,360.17694420000043,Foils\scenes4.jpg,none,n,0.9096213000002535,None,,,,,,,,00030,001,2025-11-18_16h42.15.702,MST_test,2024.2.0,60.00812509989834,2025-11-18 16h42.21.778469 +0530,
87,0,88,n,2.027005900000404,None,88,0,87,360.19171950000054,,,,,,,,,,,,,,,,,,,,,,,,,,,,,,,,,,,,,,,,,,,,,,,,,,360.1773197000002,360.19171950000054,360.6961385000004,360.67611060000036,360.69356060000064,360.6961385000004,360.6961385000004,360.6961385000004,362.7274002000004,Scenes\016b.jpg,mid,n,2.027005900000404,None,,,,,,,,00030,001,2025-11-18_16h42.15.702,MST_test,2024.2.0,60.00812509989834,2025-11-18 16h42.21.778469 +0530,
88,0,89,n,4.388092600000164,None,89,0,88,362.7417083,,,,,,,,,,,,,,,,,,,,,,,,,,,,,,,,,,,,,,,,,,,,,,,,,,362.7277892000002,362.7417083,363.25510400000076,363.2258619000004,363.25218120000045,363.25510400000076,363.25510400000076,363.25510400000076,367.66077570000016,Scenes\001b.jpg,mid,n,4.388092600000164,None,,,,,,,,00030,001,2025-11-18_16h42.15.702,MST_test,2024.2.0,60.00812509989834,2025-11-18 16h42.21.778469 +0530,
89,0,90,o,1.4275779999998122,None,90,0,89,367.6749125000006,,,,,,,,,,,,,,,,,,,,,,,,,,,,,,,,,,,,,,,,,,,,,,,,,,367.6611092000003,367.6749125000006,368.17567020000024,368.15984320000007,368.1689227000006,368.17567020000024,368.17567020000024,368.17567020000024,369.6108892000002,Objects\117a.jpg,mid,o,1.4275779999998122,None,,,,,,,,00030,001,2025-11-18_16h42.15.702,MST_test,2024.2.0,60.00812509989834,2025-11-18 16h42.21.778469 +0530,
90,0,91,n,1.1579859000003125,None,91,0,90,369.62493090000044,,,,,,,,,,,,,,,,,,,,,,,,,,,,,,,,,,,,,,,,,,,,,,,,,,369.61117040000045,369.62493090000044,370.12540700000045,370.10899860000063,370.12180780000017,370.12540700000045,370.12540700000045,370.12540700000045,371.2940913000002,Foils\scenes12.jpg,none,n,1.1579859000003125,None,,,,,,,,00030,001,2025-11-18_16h42.15.702,MST_test,2024.2.0,60.00812509989834,2025-11-18 16h42.21.778469 +0530,
91,0,92,n,1.3522702000000208,None,92,0,91,371.30843520000053,,,,,,,,,,,,,,,,,,,,,,,,,,,,,,,,,,,,,,,,,,,,,,,,,,371.2944369000006,371.30843520000053,371.8192377000005,371.7930337000007,371.81659130000025,371.8192377000005,371.8192377000005,371.8192377000005,373.17710370000077,Scenes\027b.jpg,pre,n,1.3522702000000208,None,,,,,,,,00030,001,2025-11-18_16h42.15.702,MST_test,2024.2.0,60.00812509989834,2025-11-18 16h42.21.778469 +0530,
92,0,93,n,1.435787800000071,None,93,0,92,373.1916933000002,,,,,,,,,,,,,,,,,,,,,,,,,,,,,,,,,,,,,,,,,,,,,,,,,,373.1774761000006,373.1916933000002,373.69482570000037,373.6761277000005,373.6920495000004,373.69482570000037,373.69482570000037,373.69482570000037,375.1439263000002,Objects\048b.jpg,pre,n,1.435787800000071,None,,,,,,,,00030,001,2025-11-18_16h42.15.702,MST_test,2024.2.0,60.00812509989834,2025-11-18 16h42.21.778469 +0530,
93,0,94,n,1.160181599999305,None,94,0,93,375.1583625000003,,,,,,,,,,,,,,,,,,,,,,,,,,,,,,,,,,,,,,,,,,,,,,,,,,375.1442855000005,375.1583625000003,375.65933310000037,375.6430983,375.65668630000073,375.65933310000037,375.65933310000037,375.65933310000037,376.8278700999999,Foils\scenes8.jpg,none,n,1.160181599999305,None,,,,,,,,00030,001,2025-11-18_16h42.15.702,MST_test,2024.2.0,60.00812509989834,2025-11-18 16h42.21.778469 +0530,
94,0,95,s,2.8933249000001524,None,95,0,94,376.84168990000035,,,,,,,,,,,,,,,,,,,,,,,,,,,,,,,,,,,,,,,,,,,,,,,,,,376.8281998000002,376.84168990000035,377.3498661000003,377.3259920999999,377.3472565000002,377.3498661000003,377.3498661000003,377.3498661000003,380.2604897000001,Scenes\116b.jpg,post,s,2.8933249000001524,None,,,,,,,,00030,001,2025-11-18_16h42.15.702,MST_test,2024.2.0,60.00812509989834,2025-11-18 16h42.21.778469 +0530,
95,0,96,o,1.619067200000245,None,96,0,95,380.27494540000043,,,,,,,,,,,,,,,,,,,,,,,,,,,,,,,,,,,,,,,,,,,,,,,,,,380.2608227999999,380.27494540000043,380.7756003000004,380.7595615,380.7686289000003,380.7756003000004,380.7756003000004,380.7756003000004,382.41080070000044,Objects\017a.jpg,pre,o,1.619067200000245,None,,,,,,,,00030,001,2025-11-18_16h42.15.702,MST_test,2024.2.0,60.00812509989834,2025-11-18 16h42.21.778469 +0530,
96,0,97,n,1.1278211999997438,None,97,0,96,382.4249023000002,,,,,,,,,,,,,,,,,,,,,,,,,,,,,,,,,,,,,,,,,,,,,,,,,,382.4111883000005,382.4249023000002,382.93888510000033,382.9097361000004,382.9360789000002,382.93888510000033,382.93888510000033,382.93888510000033,384.0771568,Scenes\047b.jpg,mid,n,1.1278211999997438,None,,,,,,,,00030,001,2025-11-18_16h42.15.702,MST_test,2024.2.0,60.00812509989834,2025-11-18 16h42.21.778469 +0530,
97,0,98,o,2.0341318999999203,None,98,0,97,384.0917339000007,,,,,,,,,,,,,,,,,,,,,,,,,,,,,,,,,,,,,,,,,,,,,,,,,,384.07754230000046,384.0917339000007,384.5924199000001,384.5759314000006,384.5832491000001,384.5924199000001,384.5924199000001,384.5924199000001,386.64369930000066,Objects\134a.jpg,pre,o,2.0341318999999203,None,,,,,,,,00030,001,2025-11-18_16h42.15.702,MST_test,2024.2.0,60.00812509989834,2025-11-18 16h42.21.778469 +0530,
98,0,99,n,1.586972400000377,None,99,0,98,386.65832709999995,,,,,,,,,,,,,,,,,,,,,,,,,,,,,,,,,,,,,,,,,,,,,,,,,,386.64405590000024,386.65832709999995,387.16014710000036,387.1428153000006,387.15785920000053,387.16014710000036,387.16014710000036,387.16014710000036,388.76077410000016,Foils\113a.jpg,none,n,1.586972400000377,None,,,,,,,,00030,001,2025-11-18_16h42.15.702,MST_test,2024.2.0,60.00812509989834,2025-11-18 16h42.21.778469 +0530,
99,0,100,o,1.3446664000002784,None,100,0,99,388.77484790000017,,,,,,,,,,,,,,,,,,,,,,,,,,,,,,,,,,,,,,,,,,,,,,,,,,388.76111780000065,388.77484790000017,389.2750982000007,389.25973539999995,389.26856900000075,389.2750982000007,389.2750982000007,389.2750982000007,390.6269488000007,Objects\043a.jpg,post,o,1.3446664000002784,None,,,,,,,,00030,001,2025-11-18_16h42.15.702,MST_test,2024.2.0,60.00812509989834,2025-11-18 16h42.21.778469 +0530,
100,0,101,n,4.06857779999973,None,101,0,100,390.64171500000066,,,,,,,,,,,,,,,,,,,,,,,,,,,,,,,,,,,,,,,,,,,,,,,,,,390.6272744000007,390.64171500000066,391.1423712000005,391.1266740000001,391.13662340000064,391.1423712000005,391.1423712000005,391.1423712000005,395.22704990000057,Scenes\118a.jpg,mid,n,4.06857779999973,None,,,,,,,,00030,001,2025-11-18_16h42.15.702,MST_test,2024.2.0,60.00812509989834,2025-11-18 16h42.21.778469 +0530,
101,0,102,s,3.0195569999996223,None,102,0,101,395.24168270000064,,,,,,,,,,,,,,,,,,,,,,,,,,,,,,,,,,,,,,,,,,,,,,,,,,395.22743320000063,395.24168270000064,395.7436535000006,395.7260634000004,395.7407692000006,395.7436535000006,395.7436535000006,395.7436535000006,398.7771341000007,Scenes\072a.jpg,pre,s,3.0195569999996223,None,,,,,,,,00030,001,2025-11-18_16h42.15.702,MST_test,2024.2.0,60.00812509989834,2025-11-18 16h42.21.778469 +0530,
102,0,103,o,1.2526450999994267,None,103,0,102,398.79172430000017,,,,,,,,,,,,,,,,,,,,,,,,,,,,,,,,,,,,,,,,,,,,,,,,,,398.77752280000004,398.79172430000017,399.2945636000004,399.2762478000004,399.2916481000002,399.2945636000004,399.2945636000004,399.2945636000004,400.56102270000065,Scenes\114a.jpg,pre,o,1.2526450999994267,None,,,,,,,,00030,001,2025-11-18_16h42.15.702,MST_test,2024.2.0,60.00812509989834,2025-11-18 16h42.21.778469 +0530,
103,0,104,n,1.5848384999999325,None,104,0,103,400.57487070000025,,,,,,,,,,,,,,,,,,,,,,,,,,,,,,,,,,,,,,,,,,,,,,,,,,400.5614075000003,400.57487070000025,401.08317270000043,401.0598120000004,401.0801498999999,401.08317270000043,401.08317270000043,401.08317270000043,402.6774675000006,Scenes\075b.jpg,post,n,1.5848384999999325,None,,,,,,,,00030,001,2025-11-18_16h42.15.702,MST_test,2024.2.0,60.00812509989834,2025-11-18 16h42.21.778469 +0530,
104,0,105,n,1.0320522000001802,None,105,0,104,402.6917082,,,,,,,,,,,,,,,,,,,,,,,,,,,,,,,,,,,,,,,,,,,,,,,,,,402.6777686000005,402.6917082,403.19448080000075,403.1765939000006,403.1914231999999,403.19448080000075,403.19448080000075,403.19448080000075,404.2445211000004,Scenes\041a.jpg,pre,n,1.0320522000001802,None,,,,,,,,00030,001,2025-11-18_16h42.15.702,MST_test,2024.2.0,60.00812509989834,2025-11-18 16h42.21.778469 +0530,
105,0,106,o,1.571916599999895,None,106,0,105,404.25818400000026,,,,,,,,,,,,,,,,,,,,,,,,,,,,,,,,,,,,,,,,,,,,,,,,,,404.2448424000004,404.25818400000026,404.75909560000036,404.7428325000001,404.7505718000002,404.75909560000036,404.75909560000036,404.75909560000036,406.34366110000065,Objects\169a.jpg,pre,o,1.571916599999895,None,,,,,,,,00030,001,2025-11-18_16h42.15.702,MST_test,2024.2.0,60.00812509989834,2025-11-18 16h42.21.778469 +0530,
106,0,107,o,1.1416044000006877,None,107,0,106,406.35834310000064,,,,,,,,,,,,,,,,,,,,,,,,,,,,,,,,,,,,,,,,,,,,,,,,,,406.3439900000003,406.35834310000064,406.8615451000005,406.8430158000001,406.8590494,406.8615451000005,406.8615451000005,406.8615451000005,408.0107398,Objects\162b.jpg,mid,o,1.1416044000006877,None,,,,,,,,00030,001,2025-11-18_16h42.15.702,MST_test,2024.2.0,60.00812509989834,2025-11-18 16h42.21.778469 +0530,
107,0,108,n,1.1766324000000168,None,108,0,107,408.0249487000001,,,,,,,,,,,,,,,,,,,,,,,,,,,,,,,,,,,,,,,,,,,,,,,,,,408.01110719999997,408.0249487000001,408.5625465000003,408.5097669000006,408.5587335,408.5625465000003,408.5625465000003,408.5625465000003,409.7445486000006,Foils\scenes15.jpg,none,n,1.1766324000000168,None,,,,,,,,00030,001,2025-11-18_16h42.15.702,MST_test,2024.2.0,60.00812509989834,2025-11-18 16h42.21.778469 +0530,
108,0,109,n,1.2642074999994293,None,109,0,108,409.75837070000034,,,,,,,,,,,,,,,,,,,,,,,,,,,,,,,,,,,,,,,,,,,,,,,,,,409.7449512000003,409.75837070000034,410.26685180000004,410.2427424000007,410.2642730000007,410.26685180000004,410.26685180000004,410.26685180000004,411.5442928000002,Foils\050a.jpg,none,n,1.2642074999994293,None,,,,,,,,00030,001,2025-11-18_16h42.15.702,MST_test,2024.2.0,60.00812509989834,2025-11-18 16h42.21.778469 +0530,
109,0,110,n,0.9999490000000151,None,110,0,109,411.5585154999999,,,,,,,,,,,,,,,,,,,,,,,,,,,,,,,,,,,,,,,,,,,,,,,,,,411.54469210000025,411.5585154999999,412.06687500000044,412.04324429999997,412.0640467000003,412.06687500000044,412.06687500000044,412.06687500000044,413.07704620000004,Scenes\115b.jpg,mid,n,0.9999490000000151,None,,,,,,,,00030,001,2025-11-18_16h42.15.702,MST_test,2024.2.0,60.00812509989834,2025-11-18 16h42.21.778469 +0530,
110,0,111,s,1.770889100000204,None,111,0,110,413.0915425000003,,,,,,,,,,,,,,,,,,,,,,,,,,,,,,,,,,,,,,,,,,,,,,,,,,413.0774347000006,413.0915425000003,413.59233760000006,413.5761403000006,413.58447200000046,413.59233760000006,413.59233760000006,413.59233760000006,415.3769187000007,Objects\159a.jpg,pre,s,1.770889100000204,None,,,,,,,,00030,001,2025-11-18_16h42.15.702,MST_test,2024.2.0,60.00812509989834,2025-11-18 16h42.21.778469 +0530,
111,0,112,s,0.8727396000003864,None,112,0,111,415.39152210000066,,,,,,,,,,,,,,,,,,,,,,,,,,,,,,,,,,,,,,,,,,,,,,,,,,415.3772260000005,415.39152210000066,415.8984020000007,415.8762695000005,415.8960272000004,415.8984020000007,415.8984020000007,415.8984020000007,416.77755330000036,Objects\115b.jpg,pre,s,0.8727396000003864,None,,,,,,,,00030,001,2025-11-18_16h42.15.702,MST_test,2024.2.0,60.00812509989834,2025-11-18 16h42.21.778469 +0530,
112,0,113,s,2.165762600000562,None,113,0,112,416.7915616,,,,,,,,,,,,,,,,,,,,,,,,,,,,,,,,,,,,,,,,,,,,,,,,,,416.7779231000004,416.7915616,417.29340800000045,417.27647160000015,417.29026950000025,417.29340800000045,417.29340800000045,417.29340800000045,419.46085010000024,Scenes\140a.jpg,mid,s,2.165762600000562,None,,,,,,,,00030,001,2025-11-18_16h42.15.702,MST_test,2024.2.0,60.00812509989834,2025-11-18 16h42.21.778469 +0530,
113,0,114,s,0.7307995999999548,None,114,0,113,419.47499060000064,,,,,,,,,,,,,,,,,,,,,,,,,,,,,,,,,,,,,,,,,,,,,,,,,,419.4612141000007,419.47499060000064,419.97573009999996,419.95949270000074,419.9673016000006,419.97573009999996,419.97573009999996,419.97573009999996,420.7104706,Objects\156a.jpg,post,s,0.7307995999999548,None,,,,,,,,00030,001,2025-11-18_16h42.15.702,MST_test,2024.2.0,60.00812509989834,2025-11-18 16h42.21.778469 +0530,
114,0,115,n,2.0870961000000534,None,115,0,114,420.72502800000075,,,,,,,,,,,,,,,,,,,,,,,,,,,,,,,,,,,,,,,,,,,,,,,,,,420.7108158000001,420.72502800000075,421.2276117000001,421.2097285,421.2251859000007,421.2276117000001,421.2276117000001,421.2276117000001,423.3272964000007,Foils\033a.jpg,none,n,2.0870961000000534,None,,,,,,,,00030,001,2025-11-18_16h42.15.702,MST_test,2024.2.0,60.00812509989834,2025-11-18 16h42.21.778469 +0530,
115,0,116,o,1.5497887000001356,None,116,0,115,423.34159249999993,,,,,,,,,,,,,,,,,,,,,,,,,,,,,,,,,,,,,,,,,,,,,,,,,,423.32762810000077,423.34159249999993,423.84507740000026,423.82622850000007,423.84206580000046,423.84507740000026,423.84507740000026,423.84507740000026,425.4108148000005,Objects\157b.jpg,post,o,1.5497887000001356,None,,,,,,,,00030,001,2025-11-18_16h42.15.702,MST_test,2024.2.0,60.00812509989834,2025-11-18 16h42.21.778469 +0530,
116,0,117,n,9.389000000000124,None,117,0,116,425.42509860000064,,,,,,,,,,,,,,,,,,,,,,,,,,,,,,,,,,,,,,,,,,,,,,,,,,425.41120500000034,425.42509860000064,425.9257090000001,425.90952300000026,425.9223636000006,425.9257090000001,425.9257090000001,425.9257090000001,435.32721740000034,Scenes\024a.jpg,mid,n,9.389000000000124,None,,,,,,,,00030,001,2025-11-18_16h42.15.702,MST_test,2024.2.0,60.00812509989834,2025-11-18 16h42.21.778469 +0530,
117,0,118,n,4.056652700000086,None,118,0,117,435.34167849999994,,,,,,,,,,,,,,,,,,,,,,,,,,,,,,,,,,,,,,,,,,,,,,,,,,435.3275760000006,435.34167849999994,435.8421820000003,435.8264233,435.83695890000035,435.8421820000003,435.8421820000003,435.8421820000003,439.9105255000004,Foils\scenes19.jpg,none,n,4.056652700000086,None,,,,,,,,00030,001,2025-11-18_16h42.15.702,MST_test,2024.2.0,60.00812509989834,2025-11-18 16h42.21.778469 +0530,
118,0,119,n,2.1102153000001636,None,119,0,118,439.9250597,,,,,,,,,,,,,,,,,,,,,,,,,,,,,,,,,,,,,,,,,,,,,,,,,,439.9108237999999,439.9250597,440.4371495000005,440.40975190000063,440.43433300000015,440.4371495000005,440.4371495000005,440.4371495000005,442.56000570000015,Scenes\002b.jpg,post,n,2.1102153000001636,None,,,,,,,,00030,001,2025-11-18_16h42.15.702,MST_test,2024.2.0,60.00812509989834,2025-11-18 16h42.21.778469 +0530,
119,0,120,n,1.4886811000005764,None,120,0,119,442.5749962,,,,,,,,,,,,,,,,,,,,,,,,,,,,,,,,,,,,,,,,,,,,,,,,,,442.5602533000001,442.5749962,443.08212619999995,443.05955090000043,443.07908860000043,443.08212619999995,443.08212619999995,443.08212619999995,444.57647559999987,Objects\091b.jpg,pre,n,1.4886811000005764,None,,,,,,,,00030,001,2025-11-18_16h42.15.702,MST_test,2024.2.0,60.00812509989834,2025-11-18 16h42.21.778469 +0530,
120,0,121,s,2.4949029999997947,None,121,0,120,444.59152429999995,,,,,,,,,,,,,,,,,,,,,,,,,,,,,,,,,,,,,,,,,,,,,,,,,,444.5766822000005,444.59152429999995,445.1003845000005,445.0762666999999,445.09751570000026,445.1003845000005,445.1003845000005,445.1003845000005,447.61095750000004,Scenes\155b.jpg,pre,s,2.4949029999997947,None,,,,,,,,00030,001,2025-11-18_16h42.15.702,MST_test,2024.2.0,60.00812509989834,2025-11-18 16h42.21.778469 +0530,
121,0,122,o,3.381614400000217,None,122,0,121,447.6251167999999,,,,,,,,,,,,,,,,,,,,,,,,,,,,,,,,,,,,,,,,,,,,,,,,,,447.61134740000034,447.6251167999999,448.1257136000004,448.1095518000002,448.1177281,448.1257136000004,448.1257136000004,448.1257136000004,451.5112930000005,Objects\059a.jpg,post,o,3.381614400000217,None,,,,,,,,00030,001,2025-11-18_16h42.15.702,MST_test,2024.2.0,60.00812509989834,2025-11-18 16h42.21.778469 +0530,
122,0,123,n,1.471708000000035,None,123,0,122,451.5252279000006,,,,,,,,,,,,,,,,,,,,,,,,,,,,,,,,,,,,,,,,,,,,,,,,,,451.5116499000005,451.5252279000006,452.04294950000076,452.0095457000007,452.0396346000007,452.04294950000076,452.04294950000076,452.04294950000076,453.5271702,Foils\scenes23.jpg,none,n,1.471708000000035,None,,,,,,,,00030,001,2025-11-18_16h42.15.702,MST_test,2024.2.0,60.00812509989834,2025-11-18 16h42.21.778469 +0530,
123,0,124,s,3.1599714000003587,None,124,0,123,453.54185420000067,,,,,,,,,,,,,,,,,,,,,,,,,,,,,,,,,,,,,,,,,,,,,,,,,,453.52755330000036,453.54185420000067,454.04297640000004,454.0264627000006,454.0387395000007,454.04297640000004,454.04297640000004,454.04297640000004,457.21042920000036,Scenes\044a.jpg,pre,s,3.1599714000003587,None,,,,,,,,00030,001,2025-11-18_16h42.15.702,MST_test,2024.2.0,60.00812509989834,2025-11-18 16h42.21.778469 +0530,
124,0,125,s,1.010759699999653,None,125,0,124,457.22513830000025,,,,,,,,,,,,,,,,,,,,,,,,,,,,,,,,,,,,,,,,,,,,,,,,,,457.21068710000054,457.22513830000025,457.7285185999999,457.7097885000003,457.72561640000004,457.7285185999999,457.7285185999999,457.7285185999999,458.7442643000004,Foils\020b.jpg,none,s,1.010759699999653,None,,,,,,,,00030,001,2025-11-18_16h42.15.702,MST_test,2024.2.0,60.00812509989834,2025-11-18 16h42.21.778469 +0530,
125,0,126,s,2.136251799999627,None,126,0,125,458.75850470000023,,,,,,,,,,,,,,,,,,,,,,,,,,,,,,,,,,,,,,,,,,,,,,,,,,458.7446577999999,458.75850470000023,459.2587088999999,459.2431389000003,459.24986460000036,459.2587088999999,459.2587088999999,459.2587088999999,461.4111072000005,Objects\125a.jpg,mid,s,2.136251799999627,None,,,,,,,,00030,001,2025-11-18_16h42.15.702,MST_test,2024.2.0,60.00812509989834,2025-11-18 16h42.21.778469 +0530,
126,0,127,n,1.156875200000286,None,127,0,126,461.4251672999999,,,,,,,,,,,,,,,,,,,,,,,,,,,,,,,,,,,,,,,,,,,,,,,,,,461.41149399999995,461.4251672999999,461.92576439999993,461.9101025,461.9226412000007,461.92576439999993,461.92576439999993,461.92576439999993,463.0947907,Scenes\112a.jpg,mid,n,1.156875200000286,None,,,,,,,,00030,001,2025-11-18_16h42.15.702,MST_test,2024.2.0,60.00812509989834,2025-11-18 16h42.21.778469 +0530,
127,0,128,n,1.3276599999999235,None,128,0,127,463.10859359999995,,,,,,,,,,,,,,,,,,,,,,,,,,,,,,,,,,,,,,,,,,,,,,,,,,463.09514820000004,463.10859359999995,463.61896680000063,463.59296260000065,463.6156885999999,463.61896680000063,463.61896680000063,463.61896680000063,464.96124490000057,Scenes\017b.jpg,pre,n,1.3276599999999235,None,,,,,,,,00030,001,2025-11-18_16h42.15.702,MST_test,2024.2.0,60.00812509989834,2025-11-18 16h42.21.778469 +0530,
128,0,129,s,2.150945999999749,None,129,0,128,464.97517250000055,,,,,,,,,,,,,,,,,,,,,,,,,,,,,,,,,,,,,,,,,,,,,,,,,,464.96163070000057,464.97517250000055,465.47593210000014,465.4600736000002,465.4684569000001,465.47593210000014,465.47593210000014,465.47593210000014,467.64448300000004,Objects\171a.jpg,post,s,2.150945999999749,None,,,,,,,,00030,001,2025-11-18_16h42.15.702,MST_test,2024.2.0,60.00812509989834,2025-11-18 16h42.21.778469 +0530,
129,0,130,n,1.2101823000002696,None,130,0,129,467.6585425000003,,,,,,,,,,,,,,,,,,,,,,,,,,,,,,,,,,,,,,,,,,,,,,,,,,467.6448347000005,467.6585425000003,468.16100240000014,468.1428046000001,468.1582939,468.16100240000014,468.16100240000014,468.16100240000014,469.37752460000047,Foils\scenes29.jpg,none,n,1.2101823000002696,None,,,,,,,,00030,001,2025-11-18_16h42.15.702,MST_test,2024.2.0,60.00812509989834,2025-11-18 16h42.21.778469 +0530,
130,0,131,n,1.1790000999999393,None,131,0,130,469.3919067000006,,,,,,,,,,,,,,,,,,,,,,,,,,,,,,,,,,,,,,,,,,,,,,,,,,469.3778321,469.3919067000006,469.8961328000005,469.87641110000004,469.89353140000003,469.8961328000005,469.8961328000005,469.8961328000005,471.07749760000024,Foils\scenes30.jpg,none,n,1.1790000999999393,None,,,,,,,,00030,001,2025-11-18_16h42.15.702,MST_test,2024.2.0,60.00812509989834,2025-11-18 16h42.21.778469 +0530,
131,0,132,s,1.8918721999998525,None,132,0,131,471.09181570000055,,,,,,,,,,,,,,,,,,,,,,,,,,,,,,,,,,,,,,,,,,,,,,,,,,471.0778669000001,471.09181570000055,471.59880860000067,471.5764323000003,471.59590130000015,471.59880860000067,471.59880860000067,471.59880860000067,473.49425410000003,Objects\057b.jpg,mid,s,1.8918721999998525,None,,,,,,,,00030,001,2025-11-18_16h42.15.702,MST_test,2024.2.0,60.00812509989834,2025-11-18 16h42.21.778469 +0530,
132,0,133,s,3.058003699999972,None,133,0,132,473.50851280000006,,,,,,,,,,,,,,,,,,,,,,,,,,,,,,,,,,,,,,,,,,,,,,,,,,473.4945673000002,473.50851280000006,474.00864770000044,473.99306630000046,474.0001892999999,474.00864770000044,474.00864770000044,474.00864770000044,477.0772692999999,Objects\053a.jpg,mid,s,3.058003699999972,None,,,,,,,,00030,001,2025-11-18_16h42.15.702,MST_test,2024.2.0,60.00812509989834,2025-11-18 16h42.21.778469 +0530,
133,0,134,s,1.5125830000006317,None,134,0,133,477.0918104000002,,,,,,,,,,,,,,,,,,,,,,,,,,,,,,,,,,,,,,,,,,,,,,,,,,477.0776527000007,477.0918104000002,477.59500600000047,477.57653970000047,477.5923631000005,477.59500600000047,477.59500600000047,477.59500600000047,479.11114050000015,Objects\140b.jpg,mid,s,1.5125830000006317,None,,,,,,,,00030,001,2025-11-18_16h42.15.702,MST_test,2024.2.0,60.00812509989834,2025-11-18 16h42.21.778469 +0530,
134,0,135,n,2.11736639999981,None,135,0,134,479.1253348,,,,,,,,,,,,,,,,,,,,,,,,,,,,,,,,,,,,,,,,,,,,,,,,,,479.11158500000056,479.1253348,479.6299144000004,479.60996140000043,479.62699580000026,479.6299144000004,479.6299144000004,479.6299144000004,481.76057430000037,Scenes\023a.jpg,post,n,2.11736639999981,None,,,,,,,,00030,001,2025-11-18_16h42.15.702,MST_test,2024.2.0,60.00812509989834,2025-11-18 16h42.21.778469 +0530,
135,0,136,s,1.5848861000004035,None,136,0,135,481.7750481000003,,,,,,,,,,,,,,,,,,,,,,,,,,,,,,,,,,,,,,,,,,,,,,,,,,481.7609345000001,481.7750481000003,482.2816820000007,482.2598729000001,482.2784519000006,482.2816820000007,482.2816820000007,482.2816820000007,483.87771560000056,Objects\077b.jpg,post,s,1.5848861000004035,None,,,,,,,,00030,001,2025-11-18_16h42.15.702,MST_test,2024.2.0,60.00812509989834,2025-11-18 16h42.21.778469 +0530,
136,0,137,s,1.4441322999991826,None,137,0,136,483.8918323000007,,,,,,,,,,,,,,,,,,,,,,,,,,,,,,,,,,,,,,,,,,,,,,,,,,483.8781775000007,483.8918323000007,484.39192490000005,484.37639240000044,484.38379390000046,484.39192490000005,484.39192490000005,484.39192490000005,485.8437319000004,Objects\026a.jpg,mid,s,1.4441322999991826,None,,,,,,,,00030,001,2025-11-18_16h42.15.702,MST_test,2024.2.0,60.00812509989834,2025-11-18 16h42.21.778469 +0530,
137,0,138,n,1.498275900000408,None,138,0,137,485.85852479999994,,,,,,,,,,,,,,,,,,,,,,,,,,,,,,,,,,,,,,,,,,,,,,,,,,485.8440790000004,485.85852479999994,486.3606141,486.3430613999999,486.3582331000007,486.3606141,486.3606141,486.3606141,487.8609475000003,Objects\061b.jpg,mid,n,1.498275900000408,None,,,,,,,,00030,001,2025-11-18_16h42.15.702,MST_test,2024.2.0,60.00812509989834,2025-11-18 16h42.21.778469 +0530,
138,0,139,s,1.1925627000000532,None,139,0,138,487.8750639,,,,,,,,,,,,,,,,,,,,,,,,,,,,,,,,,,,,,,,,,,,,,,,,,,487.8613357000004,487.8750639,488.3786033000006,488.35967660000006,488.3760359000007,488.3786033000006,488.3786033000006,488.3786033000006,489.5774975000004,Objects\176b.jpg,post,s,1.1925627000000532,None,,,,,,,,00030,001,2025-11-18_16h42.15.702,MST_test,2024.2.0,60.00812509989834,2025-11-18 16h42.21.778469 +0530,
139,0,140,n,2.381771200000003,None,140,0,139,489.59179660000063,,,,,,,,,,,,,,,,,,,,,,,,,,,,,,,,,,,,,,,,,,,,,,,,,,489.5778078000003,489.59179660000063,490.10087830000066,490.0764143000006,490.0979270000007,490.10087830000066,490.10087830000066,490.10087830000066,492.4942890000002,Scenes\117b.jpg,post,n,2.381771200000003,None,,,,,,,,00030,001,2025-11-18_16h42.15.702,MST_test,2024.2.0,60.00812509989834,2025-11-18 16h42.21.778469 +0530,
140,0,141,s,2.3629611999995177,None,141,0,140,492.5086355000003,,,,,,,,,,,,,,,,,,,,,,,,,,,,,,,,,,,,,,,,,,,,,,,,,,492.49465970000074,492.5086355000003,493.0165065000001,492.9929546000003,493.01340100000016,493.0165065000001,493.0165065000001,493.0165065000001,495.3935121000004,Scenes\080b.jpg,pre,s,2.3629611999995177,None,,,,,,,,00030,001,2025-11-18_16h42.15.702,MST_test,2024.2.0,60.00812509989834,2025-11-18 16h42.21.778469 +0530,
141,0,142,s,3.1577282999996896,None,142,0,141,495.40848950000054,,,,,,,,,,,,,,,,,,,,,,,,,,,,,,,,,,,,,,,,,,,,,,,,,,495.3938545000001,495.40848950000054,495.9256363000004,495.8931138000007,495.92251300000044,495.9256363000004,495.9256363000004,495.9256363000004,499.09405850000076,Scenes\034b.jpg,mid,s,3.1577282999996896,None,,,,,,,,00030,001,2025-11-18_16h42.15.702,MST_test,2024.2.0,60.00812509989834,2025-11-18 16h42.21.778469 +0530,
142,0,143,o,1.4181164000001445,None,143,0,142,499.1086215000005,,,,,,,,,,,,,,,,,,,,,,,,,,,,,,,,,,,,,,,,,,,,,,,,,,499.0944653000006,499.1086215000005,499.6093258000001,499.59283330000017,499.6013425000001,499.6093258000001,499.6093258000001,499.6093258000001,501.0439993,Objects\020a.jpg,post,o,1.4181164000001445,None,,,,,,,,00030,001,2025-11-18_16h42.15.702,MST_test,2024.2.0,60.00812509989834,2025-11-18 16h42.21.778469 +0530,
143,0,144,o,1.3280562999998438,None,144,0,143,501.05842870000015,,,,,,,,,,,,,,,,,,,,,,,,,,,,,,,,,,,,,,,,,,,,,,,,,,501.04439,501.05842870000015,501.56297820000054,501.5426247000005,501.56043800000043,501.56297820000054,501.56297820000054,501.56297820000054,502.89399140000023,Objects\024b.jpg,mid,o,1.3280562999998438,None,,,,,,,,00030,001,2025-11-18_16h42.15.702,MST_test,2024.2.0,60.00812509989834,2025-11-18 16h42.21.778469 +0530,
144,0,145,n,1.2257073999999193,None,145,0,144,502.90834859999995,,,,,,,,,,,,,,,,,,,,,,,,,,,,,,,,,,,,,,,,,,,,,,,,,,502.8943159999999,502.90834859999995,503.4090236000002,503.39272979999987,503.3983990000006,503.4090236000002,503.4090236000002,503.4090236000002,504.64381330000015,Scenes\053a.jpg,pre,n,1.2257073999999193,None,,,,,,,,00030,001,2025-11-18_16h42.15.702,MST_test,2024.2.0,60.00812509989834,2025-11-18 16h42.21.778469 +0530,
145,0,146,n,1.3451013000003513,None,146,0,145,504.6583946999999,,,,,,,,,,,,,,,,,,,,,,,,,,,,,,,,,,,,,,,,,,,,,,,,,,504.6441328000001,504.6583946999999,505.16995680000036,505.14252450000004,505.1671171000007,505.16995680000036,505.16995680000036,505.16995680000036,506.5274177000001,Scenes\045b.jpg,post,n,1.3451013000003513,None,,,,,,,,00030,001,2025-11-18_16h42.15.702,MST_test,2024.2.0,60.00812509989834,2025-11-18 16h42.21.778469 +0530,
146,0,147,o,1.7365507000004072,None,147,0,146,506.5414797000003,,,,,,,,,,,,,,,,,,,,,,,,,,,,,,,,,,,,,,,,,,,,,,,,,,506.52781349999987,506.5414797000003,507.0425316000001,507.0259967000002,507.03783060000023,507.0425316000001,507.0425316000001,507.0425316000001,508.7942106999999,Scenes\136a.jpg,mid,o,1.7365507000004072,None,,,,,,,,00030,001,2025-11-18_16h42.15.702,MST_test,2024.2.0,60.00812509989834,2025-11-18 16h42.21.778469 +0530,
147,0,148,s,2.8036339999998745,None,148,0,147,508.8083460000007,,,,,,,,,,,,,,,,,,,,,,,,,,,,,,,,,,,,,,,,,,,,,,,,,,508.7945440000003,508.8083460000007,509.3197256000003,509.29275529999995,509.3167329000007,509.3197256000003,509.3197256000003,509.3197256000003,512.1276398,Scenes\109b.jpg,pre,s,2.8036339999998745,None,,,,,,,,00030,001,2025-11-18_16h42.15.702,MST_test,2024.2.0,60.00812509989834,2025-11-18 16h42.21.778469 +0530,
148,0,149,o,1.1552455000000919,None,149,0,148,512.1415303000003,,,,,,,,,,,,,,,,,,,,,,,,,,,,,,,,,,,,,,,,,,,,,,,,,,512.1279698000008,512.1415303000003,512.6481592,512.6263542000006,512.6453451000007,512.6481592,512.6481592,512.6481592,513.8103060000003,Objects\120b.jpg,post,o,1.1552455000000919,None,,,,,,,,00030,001,2025-11-18_16h42.15.702,MST_test,2024.2.0,60.00812509989834,2025-11-18 16h42.21.778469 +0530,
149,0,150,n,4.80518149999989,None,150,0,149,513.8250169000003,,,,,,,,,,,,,,,,,,,,,,,,,,,,,,,,,,,,,,,,,,,,,,,,,,513.8106179000006,513.8250169000003,514.3337506000007,514.3097329000002,514.3306137,514.3337506000007,514.3337506000007,514.3337506000007,519.1441838999999,Foils\scenes5.jpg,none,n,4.80518149999989,None,,,,,,,,00030,001,2025-11-18_16h42.15.702,MST_test,2024.2.0,60.00812509989834,2025-11-18 16h42.21.778469 +0530,
,,,,,,,,,,,,,,,,,,,,,,,,,,,,,,,,,,,,,,,,,,,,,,,,,,,,,,,,,,,,,,,,,,,,,,,,,519.1444068999999,519.1584948,519.1584948,521.0432707,space,1.8688529000000926,None,00030,001,2025-11-18_16h42.15.702,MST_test,2024.2.0,60.00812509989834,2025-11-18 16h42.21.778469 +0530,
