Sl_no,image_path,thisN,thisTrialN,thisRepN,key_resp_5.keys,key_resp_7.keys,key_resp_7.rt,key_resp_7.duration,key_resp_5.rt,key_resp_5.duration,key_resp_9.keys,key_resp_8.keys,key_resp_8.rt,key_resp_8.duration,key_resp_9.rt,key_resp_9.duration,practice.thisRepN,practice.thisTrialN,practice.thisN,trials.thisRepN,trials.thisTrialN,trials.thisN,thisRow.t,notes,welcome_page.started,text.started,key_resp.started,welcome_page.stopped,key_resp.keys,key_resp.rt,key_resp.duration,instructions.started,ins.started,key_resp_2.started,instructions.stopped,key_resp_2.keys,key_resp_2.rt,key_resp_2.duration,instructions_2.started,text_10.started,key_resp_10.started,instructions_2.stopped,key_resp_10.keys,key_resp_10.rt,key_resp_10.duration,objects_only_instruction.started,text_3.started,key_resp_3.started,objects_only_instruction.stopped,key_resp_3.keys,key_resp_3.rt,key_resp_3.duration,ISI.started,text_4.started,ISI.stopped,practice_block.started,image.started,text_5.started,key_resp_5.started,practice_block.stopped,practice.key_resp_5.keys,indoor_outdoor.started,text_7.started,key_resp_7.started,indoor_outdoor.stopped,practice.key_resp_7.keys,practice.key_resp_7.rt,practice.key_resp_7.duration,text_4.stopped,image.stopped,text_5.stopped,key_resp_5.stopped,practice.key_resp_5.rt,practice.key_resp_5.duration,practice_to_main.started,text_2.started,key_resp_4.started,practice_to_main.stopped,key_resp_4.keys,key_resp_4.rt,key_resp_4.duration,objects.started,image_2.started,text_9.started,key_resp_9.started,objects.stopped,trials.key_resp_9.keys,encoding_task.started,text_8.started,key_resp_8.started,encoding_task.stopped,trials.key_resp_8.keys,trials.key_resp_8.rt,trials.key_resp_8.duration,image_2.stopped,text_9.stopped,key_resp_9.stopped,trials.key_resp_9.rt,trials.key_resp_9.duration,end_experiment.started,text_6.started,key_resp_6.started,end_experiment.stopped,key_resp_6.keys,key_resp_6.rt,key_resp_6.duration,list_of_stimuli,encoding_task_accuracy,participant,session,date,expName,psychopyVersion,frameRate,expStart,
,,,,,,,,,,,,,,,,,,,,,,,,,0.0010834999848157167,0.0025422000035177916,0.0025422000035177916,368.87052779999794,space,368.8174190999998,None,,,,,,,,,,,,,,,,,,,,,,,,,,,,,,,,,,,,,,,,,,,,,,,,,,,,,,,,,,,,,,,,,,,,,,,,,,,,,,00037,001,2026-01-16_21h31.12.620,MST_task,2024.2.0,60.11436156797052,2026-01-16 21h31.24.554374 +0530,
,,,,,,,,,,,,,,,,,,,,,,,,,,,,,,,,368.87058009998873,368.8828383999935,368.8828383999935,369.9894778000016,space,1.1051444000040647,None,,,,,,,,,,,,,,,,,,,,,,,,,,,,,,,,,,,,,,,,,,,,,,,,,,,,,,,,,,,,,,,,,,,,,,,00037,001,2026-01-16_21h31.12.620,MST_task,2024.2.0,60.11436156797052,2026-01-16 21h31.24.554374 +0530,
,,,,,,,,,,,,,,,,,,,,,,,,,,,,,,,,,,,,,,,369.98950440000044,370.00592519997736,370.00592519997736,391.4230565999751,space,21.41375359997619,None,,,,,,,,,,,,,,,,,,,,,,,,,,,,,,,,,,,,,,,,,,,,,,,,,,,,,,,,,,,,,,,,00037,001,2026-01-16_21h31.12.620,MST_task,2024.2.0,60.11436156797052,2026-01-16 21h31.24.554374 +0530,
,,,,,,,,,,,,,,,,,,,,,,,,,,,,,,,,,,,,,,,,,,,,,,391.42308829998365,391.4391862999764,391.4391862999764,406.5564994000015,space,15.116182899975684,None,,,,,,,,,,,,,,,,,,,,,,,,,,,,,,,,,,,,,,,,,,,,,,,,,,,,,,,,,00037,001,2026-01-16_21h31.12.620,MST_task,2024.2.0,60.11436156797052,2026-01-16 21h31.24.554374 +0530,
4,practice_images/002b.jpg,0,0,1,None,j,5.969865699997172,None,,,,,,,,,1,0,0,,,,406.57763069999055,,,,,,,,,,,,,,,,,,,,,,,,,,,,,,406.5756435999938,406.57763069999055,407.0727576999925,407.0870950999961,407.0982490000024,407.0982490000024,407.0982490000024,410.07275910000317,None,410.0747541000019,410.0891740999941,410.0891740999941,416.07309550000355,j,5.969865699997172,None,,,,,,,,,,,,,,,,,,,,,,,,,,,,,,,,,,,,,,,,,00037,001,2026-01-16_21h31.12.620,MST_task,2024.2.0,60.11436156797052,2026-01-16 21h31.24.554374 +0530,
2,practice_images/031a.jpg,1,1,1,None,f,1.1016883999982383,None,,,,,,,,,1,1,1,,,,416.0893226999906,,,,,,,,,,,,,,,,,,,,,,,,,,,,,,416.07318269999814,416.0893226999906,416.57292320000124,416.5810946999991,416.58932069997536,416.58932069997536,416.58932069997536,419.5730629999889,None,419.57310009998037,419.5893542999984,419.5893542999984,420.70638709998457,f,1.1016883999982383,None,416.58932069997536,419.5893542999984,419.5893542999984,419.5893542999984,,,,,,,,,,,,,,,,,,,,,,,,,,,,,,,,,,,,,00037,001,2026-01-16_21h31.12.620,MST_task,2024.2.0,60.11436156797052,2026-01-16 21h31.24.554374 +0530,
6,practice_images/158a.jpg,2,2,1,j,None,,,2.228356099978555,0.1917857000080403,,,,,,,1,2,2,,,,420.7227112999826,,,,,,,,,,,,,,,,,,,,,,,,,,,,,,420.7064698000031,420.7227112999826,421.20622409999487,421.21420899999794,421.22279919998255,421.22279919998255,421.22279919998255,424.2064143999887,j,424.2064550999785,,,424.2064674999856,None,,,421.22279919998255,424.22262200000114,424.22262200000114,424.22262200000114,2.228356099978555,0.1917857000080403,,,,,,,,,,,,,,,,,,,,,,,,,,,,,,,,,,,00037,001,2026-01-16_21h31.12.620,MST_task,2024.2.0,60.11436156797052,2026-01-16 21h31.24.554374 +0530,
1,practice_images/013a.jpg,3,3,1,None,j,0.3928064999927301,None,,,,,,,,,1,3,3,,,,424.22262200000114,,,,,,,,,,,,,,,,,,,,,,,,,,,,,,424.2065354999795,424.22262200000114,424.70626119998633,424.71444569999585,424.7227813999925,424.7227813999925,424.7227813999925,427.7065142999927,None,427.7065491999965,427.72263799997745,427.72263799997745,428.12337739998475,j,0.3928064999927301,None,424.7227813999925,427.72263799997745,427.72263799997745,427.72263799997745,,,,,,,,,,,,,,,,,,,,,,,,,,,,,,,,,,,,,00037,001,2026-01-16_21h31.12.620,MST_task,2024.2.0,60.11436156797052,2026-01-16 21h31.24.554374 +0530,
5,practice_images/139a.jpg,4,4,1,j,None,,,1.4921890999830794,0.1762905000068713,,,,,,,1,4,4,,,,428.13911160000134,,,,,,,,,,,,,,,,,,,,,,,,,,,,,,428.1234698999906,428.13911160000134,428.62292669998715,428.6307886999857,428.63957829997526,428.63957829997526,428.63957829997526,431.62306620000163,j,431.623105799983,,,431.6231182999909,None,,,428.63957829997526,431.63935659997514,431.63935659997514,431.63935659997514,1.4921890999830794,0.1762905000068713,,,,,,,,,,,,,,,,,,,,,,,,,,,,,,,,,,,00037,001,2026-01-16_21h31.12.620,MST_task,2024.2.0,60.11436156797052,2026-01-16 21h31.24.554374 +0530,
3,practice_images/037a.jpg,5,5,1,j,None,,,0.04765849999967031,0.16000119998352602,,,,,,,1,5,5,,,,431.63935659997514,,,,,,,,,,,,,,,,,,,,,,,,,,,,,,431.6231868999894,431.63935659997514,432.1229437000002,432.1347661999753,432.13947739999276,432.13947739999276,432.13947739999276,435.1231004000001,j,435.1262208999833,,,435.1262397999817,None,,,432.13947739999276,435.139234399976,435.139234399976,435.139234399976,0.04765849999967031,0.16000119998352602,,,,,,,,,,,,,,,,,,,,,,,,,,,,,,,,,,,00037,001,2026-01-16_21h31.12.620,MST_task,2024.2.0,60.11436156797052,2026-01-16 21h31.24.554374 +0530,
7,practice_images/166a.jpg,6,6,1,f,None,,,0.012317100015934557,0.1922404000069946,,,,,,,1,6,6,,,,435.139234399976,,,,,,,,,,,,,,,,,,,,,,,,,,,,,,435.12630589999026,435.139234399976,435.62292259998503,435.6310331999848,435.6393455999787,435.6393455999787,435.6393455999787,438.6230085999996,f,438.6230486999848,,,438.6230608999904,None,,,435.6393455999787,438.63915629999246,438.63915629999246,438.63915629999246,0.012317100015934557,0.1922404000069946,,,,,,,,,,,,,,,,,,,,,,,,,,,,,,,,,,,00037,001,2026-01-16_21h31.12.620,MST_task,2024.2.0,60.11436156797052,2026-01-16 21h31.24.554374 +0530,
8,practice_images/178a.jpg,7,7,1,j,None,,,0.27175509999506176,0.18471679999493062,,,,,,,1,7,7,,,,438.63915629999246,,,,,,,,,,,,,,,,,,,,,,,,,,,,,,438.6231234000006,438.63915629999246,439.1227645999752,439.1305584999791,439.1392826999945,439.1392826999945,439.1392826999945,442.12294760000077,j,442.12298649997683,,,442.1229987999832,None,,,439.1392826999945,442.1390829999873,442.1390829999873,442.1390829999873,0.27175509999506176,0.18471679999493062,,,,,,,,,,,,,,,,,,,,,,,,,,,,,,,,,,,00037,001,2026-01-16_21h31.12.620,MST_task,2024.2.0,60.11436156797052,2026-01-16 21h31.24.554374 +0530,
9,practice_images/180a.jpg,8,8,1,f,None,,,2.2277882999915164,0.2164799000020139,,,,,,,1,8,8,,,,442.1390829999873,,,,,,,,,,,,,,,,,,,,,,,,,,,,,,442.1230622000003,442.1390829999873,442.62282550000236,442.63075129999197,442.6392433999863,442.6392433999863,442.6392433999863,445.622993899975,f,445.6230427999981,,,445.62305529997684,None,,,442.6392433999863,445.63910800000303,445.63910800000303,445.63910800000303,2.2277882999915164,0.2164799000020139,,,,,,,,,,,,,,,,,,,,,,,,,,,,,,,,,,,00037,001,2026-01-16_21h31.12.620,MST_task,2024.2.0,60.11436156797052,2026-01-16 21h31.24.554374 +0530,
10,practice_images/182a.jpg,9,9,1,f,None,,,1.3196776999975555,0.16799210000317544,,,,,,,1,9,9,,,,445.63910800000303,,,,,,,,,,,,,,,,,,,,,,,,,,,,,,445.6231199000031,445.63910800000303,446.1229948999826,446.13103910000063,446.13932109999587,446.13932109999587,446.13932109999587,449.1229093000002,f,449.12294790000306,,,449.12296079998487,None,,,446.13932109999587,449.1391618999769,449.1391618999769,449.1391618999769,1.3196776999975555,0.16799210000317544,,,,,,,,,,,,,,,,,,,,,,,,,,,,,,,,,,,00037,001,2026-01-16_21h31.12.620,MST_task,2024.2.0,60.11436156797052,2026-01-16 21h31.24.554374 +0530,
,,,,,,,,,,,,,,,,,,,,,,,,,,,,,,,,,,,,,,,,,,,,,,,,,,,,,,,,,,,,,,,,,,,,,,,,,,,449.123002599983,449.1391618999769,449.1391618999769,493.35669079999207,space,44.21693409999716,None,,,,,,,,,,,,,,,,,,,,,,,,,,,,00037,001,2026-01-16_21h31.12.620,MST_task,2024.2.0,60.11436156797052,2026-01-16 21h31.24.554374 +0530,
,Objects\019a.jpg,0,0,1,,,,,,,None,j,4.8099929000018165,None,,,,,,1,0,0,493.3725779999804,,,,,,,,,,,,,,,,,,,,,,,,,,,,,,493.3574706999934,493.3725779999804,493.85609960000147,,,,,,,,,,,,,,493.8791211999778,,,,,,,,,,,,,493.8760779000004,493.8791211999778,493.8791211999778,493.8791211999778,496.872858799994,None,496.87595609997516,496.8891126999806,496.8891126999806,501.7063825999794,j,4.8099929000018165,None,,,,,,,,,,,,,,,00037,001,2026-01-16_21h31.12.620,MST_task,2024.2.0,60.11436156797052,2026-01-16 21h31.24.554374 +0530,
,Objects\165a.jpg,1,0,2,,,,,,,f,None,,,2.0770986000134144,0.19200669997371733,,,,2,0,1,501.72257899999386,,,,,,,,,,,,,,,,,,,,,,,,,,,,,,501.70647279999685,501.72257899999386,502.2061034999788,,,,,,,,,,,,,,502.22275749998516,,,,,,,,,,,,,502.21542500000214,502.22275749998516,502.22275749998516,502.22275749998516,505.20646220000344,f,505.20650749999913,,,505.20651910000015,None,,,505.22259089999716,505.22259089999716,505.22259089999716,2.0770986000134144,0.19200669997371733,,,,,,,,,,00037,001,2026-01-16_21h31.12.620,MST_task,2024.2.0,60.11436156797052,2026-01-16 21h31.24.554374 +0530,
,Objects\089a.jpg,2,0,3,,,,,,,j,None,,,2.2580849999794737,0.16002400001161732,,,,3,0,2,505.22259089999716,,,,,,,,,,,,,,,,,,,,,,,,,,,,,,505.2066120999807,505.22259089999716,505.7061921999848,,,,,,,,,,,,,,505.7228117999912,,,,,,,,,,,,,505.71543789998395,505.7228117999912,505.7228117999912,505.7228117999912,508.7068927999935,j,508.7069396000006,,,508.7069510000001,None,,,508.72258519998286,508.72258519998286,508.72258519998286,2.2580849999794737,0.16002400001161732,,,,,,,,,,00037,001,2026-01-16_21h31.12.620,MST_task,2024.2.0,60.11436156797052,2026-01-16 21h31.24.554374 +0530,
,Objects\126a.jpg,3,0,4,,,,,,,None,f,None,None,,,,,,4,0,3,508.72258519998286,,,,,,,,,,,,,,,,,,,,,,,,,,,,,,508.70705080000334,508.72258519998286,509.206102999975,,,,,,,,,,,,,,509.22276609999244,,,,,,,,,,,,,509.2157160999777,509.22276609999244,509.22276609999244,509.22276609999244,512.2064966999751,None,512.2065368999902,512.2225420999748,512.2225420999748,512.3729106999817,f,None,None,512.2225420999748,512.2225420999748,512.2225420999748,,,,,,,,,,,,00037,001,2026-01-16_21h31.12.620,MST_task,2024.2.0,60.11436156797052,2026-01-16 21h31.24.554374 +0530,
,Objects\116a.jpg,4,0,5,,,,,,,None,f,0.4188125999935437,None,,,,,,5,0,4,512.3891585999809,,,,,,,,,,,,,,,,,,,,,,,,,,,,,,512.3729936000018,512.3891585999809,512.8728985999769,,,,,,,,,,,,,,512.8894920999883,,,,,,,,,,,,,512.8820782999974,512.8894920999883,512.8894920999883,512.8894920999883,515.8732393999817,None,515.8732809999783,515.8891473999829,515.8891473999829,516.3231562000001,f,0.4188125999935437,None,515.8891473999829,515.8891473999829,515.8891473999829,,,,,,,,,,,,00037,001,2026-01-16_21h31.12.620,MST_task,2024.2.0,60.11436156797052,2026-01-16 21h31.24.554374 +0530,
,Objects\077a.jpg,5,0,6,,,,,,,None,j,0.2932522000046447,None,,,,,,6,0,5,516.3392400000012,,,,,,,,,,,,,,,,,,,,,,,,,,,,,,516.3232917999849,516.3392400000012,516.8228759999911,,,,,,,,,,,,,,516.8395889999811,,,,,,,,,,,,,516.8320735000016,516.8395889999811,516.8395889999811,516.8395889999811,519.8230745999899,None,519.8231154999812,519.8391148999799,519.8391148999799,520.1395413999853,j,0.2932522000046447,None,519.8391148999799,519.8391148999799,519.8391148999799,,,,,,,,,,,,00037,001,2026-01-16_21h31.12.620,MST_task,2024.2.0,60.11436156797052,2026-01-16 21h31.24.554374 +0530,
,Objects\062a.jpg,6,0,7,,,,,,,None,f,1.0119587999943178,None,,,,,,7,0,6,520.1559273999883,,,,,,,,,,,,,,,,,,,,,,,,,,,,,,520.1396589999786,520.1559273999883,520.6393635999993,,,,,,,,,,,,,,520.6561095999787,,,,,,,,,,,,,520.6501053999818,520.6561095999787,520.6561095999787,520.6561095999787,523.6396320999775,None,523.6396711999842,523.6559721999802,523.6559721999802,524.6730096999963,f,1.0119587999943178,None,523.6559721999802,523.6559721999802,523.6559721999802,,,,,,,,,,,,00037,001,2026-01-16_21h31.12.620,MST_task,2024.2.0,60.11436156797052,2026-01-16 21h31.24.554374 +0530,
,Scenes\023a.jpg,7,0,8,,,,,,,None,j,0.7092322999960743,None,,,,,,8,0,7,524.6892265999923,,,,,,,,,,,,,,,,,,,,,,,,,,,,,,524.6730953999795,524.6892265999923,525.1728571999993,,,,,,,,,,,,,,525.2019937000005,,,,,,,,,,,,,525.1995051999984,525.2019937000005,525.2019937000005,525.2019937000005,528.1896271999867,None,528.1912826999906,528.2060236999823,528.2060236999823,528.923089399992,j,0.7092322999960743,None,,,,,,,,,,,,,,,00037,001,2026-01-16_21h31.12.620,MST_task,2024.2.0,60.11436156797052,2026-01-16 21h31.24.554374 +0530,
,Scenes\065a.jpg,8,0,9,,,,,,,None,j,0.37238769998657517,None,,,,,,9,0,8,528.9392128999752,,,,,,,,,,,,,,,,,,,,,,,,,,,,,,528.9232090000005,528.9392128999752,529.4229265000031,,,,,,,,,,,,,,529.4400552999869,,,,,,,,,,,,,529.4363723999995,529.4400552999869,529.4400552999869,529.4400552999869,532.4232806999935,None,532.4233192999964,532.4392651999951,532.4392651999951,532.8232737999933,j,0.37238769998657517,None,532.4392651999951,532.4392651999951,532.4392651999951,,,,,,,,,,,,00037,001,2026-01-16_21h31.12.620,MST_task,2024.2.0,60.11436156797052,2026-01-16 21h31.24.554374 +0530,
,Scenes\052a.jpg,9,0,10,,,,,,,None,j,0.16847480001160875,None,,,,,,10,0,9,532.839370200003,,,,,,,,,,,,,,,,,,,,,,,,,,,,,,532.8233944999811,532.839370200003,533.3229343999992,,,,,,,,,,,,,,533.3404795999813,,,,,,,,,,,,,533.3381698000012,533.3404795999813,533.3404795999813,533.3404795999813,536.323312499997,None,536.3233528999845,536.3393826999818,536.3393826999818,536.5231354999996,j,0.16847480001160875,None,536.3393826999818,536.3393826999818,536.3393826999818,,,,,,,,,,,,00037,001,2026-01-16_21h31.12.620,MST_task,2024.2.0,60.11436156797052,2026-01-16 21h31.24.554374 +0530,
,Scenes\016a.jpg,10,0,11,,,,,,,None,j,0.37288680000347085,None,,,,,,11,0,10,536.5393855999864,,,,,,,,,,,,,,,,,,,,,,,,,,,,,,536.5232253999857,536.5393855999864,537.0229811999889,,,,,,,,,,,,,,537.0396375999844,,,,,,,,,,,,,537.0345757999748,537.0396375999844,537.0396375999844,537.0396375999844,540.0233080000035,None,540.0233498000016,540.0393291999935,540.0393291999935,540.4232322000025,j,0.37288680000347085,None,540.0393291999935,540.0393291999935,540.0393291999935,,,,,,,,,,,,00037,001,2026-01-16_21h31.12.620,MST_task,2024.2.0,60.11436156797052,2026-01-16 21h31.24.554374 +0530,
,Scenes\002a.jpg,11,0,12,,,,,,,None,j,0.3286373000009917,None,,,,,,12,0,11,540.4393235000025,,,,,,,,,,,,,,,,,,,,,,,,,,,,,,540.423352199985,540.4393235000025,540.9229534999758,,,,,,,,,,,,,,540.9432692999835,,,,,,,,,,,,,540.9409209000005,540.9432692999835,540.9432692999835,540.9432692999835,543.9395544999861,None,543.939598099998,543.9559778999828,543.9559778999828,544.2898774999776,j,0.3286373000009917,None,,,,,,,,,,,,,,,00037,001,2026-01-16_21h31.12.620,MST_task,2024.2.0,60.11436156797052,2026-01-16 21h31.24.554374 +0530,
,Scenes\178a.jpg,12,0,13,,,,,,,None,j,0.3729094000009354,None,,,,,,13,0,12,544.3060606999788,,,,,,,,,,,,,,,,,,,,,,,,,,,,,,544.2900025999988,544.3060606999788,544.7896304999886,,,,,,,,,,,,,,544.8068379999895,,,,,,,,,,,,,544.8029465999862,544.8068379999895,544.8068379999895,544.8068379999895,547.7900640000007,None,547.7901058999996,547.8061195999908,547.8061195999908,548.1898606999894,j,0.3729094000009354,None,547.8061195999908,547.8061195999908,547.8061195999908,,,,,,,,,,,,00037,001,2026-01-16_21h31.12.620,MST_task,2024.2.0,60.11436156797052,2026-01-16 21h31.24.554374 +0530,
,Scenes\072a.jpg,13,0,14,,,,,,,None,j,0.3209674000099767,None,,,,,,14,0,13,548.206000199978,,,,,,,,,,,,,,,,,,,,,,,,,,,,,,548.1899513999815,548.206000199978,548.689579799975,,,,,,,,,,,,,,548.7088561999844,,,,,,,,,,,,,548.706406399986,548.7088561999844,548.7088561999844,548.7088561999844,551.7063476999756,None,551.7063878999907,551.7227564999775,551.7227564999775,552.0564714999928,j,0.3209674000099767,None,,,,,,,,,,,,,,,00037,001,2026-01-16_21h31.12.620,MST_task,2024.2.0,60.11436156797052,2026-01-16 21h31.24.554374 +0530,
,Objects\061a.jpg,14,0,15,,,,,,,None,j,1.3830233000044245,None,,,,,,15,0,14,552.0726684999827,,,,,,,,,,,,,,,,,,,,,,,,,,,,,,552.0565920999798,552.0726684999827,552.5562555999786,,,,,,,,,,,,,,552.5733196999936,,,,,,,,,,,,,552.5680806000018,552.5733196999936,552.5733196999936,552.5733196999936,555.5567024999764,None,555.5587061999831,555.5727312999952,555.5727312999952,556.9564588999783,j,1.3830233000044245,None,555.5727312999952,555.5727312999952,555.5727312999952,,,,,,,,,,,,00037,001,2026-01-16_21h31.12.620,MST_task,2024.2.0,60.11436156797052,2026-01-16 21h31.24.554374 +0530,
,Objects\013a.jpg,15,0,16,,,,,,,None,j,2.4743394999823067,None,,,,,,16,0,15,556.9726971999917,,,,,,,,,,,,,,,,,,,,,,,,,,,,,,556.9565834999958,556.9726971999917,557.4563722999883,,,,,,,,,,,,,,557.4728834999842,,,,,,,,,,,,,557.4659406999999,557.4728834999842,557.4728834999842,557.4728834999842,560.4564599999867,None,560.4565019999864,560.4727792999765,560.4727792999765,562.9565057999862,j,2.4743394999823067,None,560.4727792999765,560.4727792999765,560.4727792999765,,,,,,,,,,,,00037,001,2026-01-16_21h31.12.620,MST_task,2024.2.0,60.11436156797052,2026-01-16 21h31.24.554374 +0530,
,Objects\173a.jpg,16,0,17,,,,,,,f,None,,,2.7699353999923915,0.18487339999410324,,,,17,0,16,562.9727207999968,,,,,,,,,,,,,,,,,,,,,,,,,,,,,,562.9565942999907,562.9727207999968,563.4563138999802,,,,,,,,,,,,,,563.4730359999812,,,,,,,,,,,,,563.4657435999834,563.4730359999812,563.4730359999812,563.4730359999812,566.4565297999943,f,566.4565742999839,,,566.4565853999811,None,,,566.472706999979,566.472706999979,566.472706999979,2.7699353999923915,0.18487339999410324,,,,,,,,,,00037,001,2026-01-16_21h31.12.620,MST_task,2024.2.0,60.11436156797052,2026-01-16 21h31.24.554374 +0530,
,Objects\156a.jpg,17,0,18,,,,,,,None,f,0.38288079999620095,None,,,,,,18,0,17,566.472706999979,,,,,,,,,,,,,,,,,,,,,,,,,,,,,,566.456686199992,566.472706999979,566.9564496999956,,,,,,,,,,,,,,566.9729248999793,,,,,,,,,,,,,566.9663370999915,566.9729248999793,566.9729248999793,566.9729248999793,569.9565686999995,None,569.9566087999847,569.9726769999834,569.9726769999834,570.3564007999958,f,0.38288079999620095,None,569.9726769999834,569.9726769999834,569.9726769999834,,,,,,,,,,,,00037,001,2026-01-16_21h31.12.620,MST_task,2024.2.0,60.11436156797052,2026-01-16 21h31.24.554374 +0530,
,Objects\162a.jpg,18,0,19,,,,,,,None,f,0.29873029998270795,None,,,,,,19,0,18,570.3726905999938,,,,,,,,,,,,,,,,,,,,,,,,,,,,,,570.3564904999803,570.3726905999938,570.8563549999963,,,,,,,,,,,,,,570.8728977999999,,,,,,,,,,,,,570.8655132999993,570.8728977999999,570.8728977999999,570.8728977999999,573.8565534999943,None,573.8565952999925,573.8727280999883,573.8727280999883,574.1730181000021,f,0.29873029998270795,None,573.8727280999883,573.8727280999883,573.8727280999883,,,,,,,,,,,,00037,001,2026-01-16_21h31.12.620,MST_task,2024.2.0,60.11436156797052,2026-01-16 21h31.24.554374 +0530,
,Objects\024a.jpg,19,0,20,,,,,,,f,None,,,1.474320000008447,0.175268099992536,,,,20,0,19,574.1892148999905,,,,,,,,,,,,,,,,,,,,,,,,,,,,,,574.1731077999866,574.1892148999905,574.6730081999849,,,,,,,,,,,,,,574.6896086999914,,,,,,,,,,,,,574.6822705999948,574.6896086999914,574.6896086999914,574.6896086999914,577.6731725999853,f,577.6732177999802,,,577.6732291999797,None,,,577.6893658999761,577.6893658999761,577.6893658999761,1.474320000008447,0.175268099992536,,,,,,,,,,00037,001,2026-01-16_21h31.12.620,MST_task,2024.2.0,60.11436156797052,2026-01-16 21h31.24.554374 +0530,
,Objects\145a.jpg,20,0,21,,,,,,,f,None,,,1.7656980000028852,0.18436409998685122,,,,21,0,20,577.6893658999761,,,,,,,,,,,,,,,,,,,,,,,,,,,,,,577.6733290999837,577.6893658999761,578.1729482999945,,,,,,,,,,,,,,578.1896242999937,,,,,,,,,,,,,578.1820705999853,578.1896242999937,578.1896242999937,578.1896242999937,581.1735878000036,f,581.1736363999953,,,581.1736480999971,None,,,581.1893800999969,581.1893800999969,581.1893800999969,1.7656980000028852,0.18436409998685122,,,,,,,,,,00037,001,2026-01-16_21h31.12.620,MST_task,2024.2.0,60.11436156797052,2026-01-16 21h31.24.554374 +0530,
,Scenes\128a.jpg,21,0,22,,,,,,,None,j,0.2811975000076927,None,,,,,,22,0,21,581.1893800999969,,,,,,,,,,,,,,,,,,,,,,,,,,,,,,581.1737461999874,581.1893800999969,581.6728953999991,,,,,,,,,,,,,,581.695834299986,,,,,,,,,,,,,581.6936016999825,581.695834299986,581.695834299986,581.695834299986,584.6895679000008,None,584.6912312999775,584.7061151999806,584.7061151999806,584.9896331999917,j,0.2811975000076927,None,,,,,,,,,,,,,,,00037,001,2026-01-16_21h31.12.620,MST_task,2024.2.0,60.11436156797052,2026-01-16 21h31.24.554374 +0530,
,Scenes\014a.jpg,22,0,23,,,,,,,j,None,,,2.400463199999649,0.18437840000842698,,,,23,0,22,585.0060655999987,,,,,,,,,,,,,,,,,,,,,,,,,,,,,,584.9897520999948,585.0060655999987,585.489674899989,,,,,,,,,,,,,,585.5067867999896,,,,,,,,,,,,,585.5014751999988,585.5067867999896,585.5067867999896,585.5067867999896,588.4898163999896,j,588.4898611999815,,,588.4898728999833,None,,,588.5058866999752,588.5058866999752,588.5058866999752,2.400463199999649,0.18437840000842698,,,,,,,,,,00037,001,2026-01-16_21h31.12.620,MST_task,2024.2.0,60.11436156797052,2026-01-16 21h31.24.554374 +0530,
,Scenes\008a.jpg,23,0,24,,,,,,,j,None,,,1.869770299992524,0.1999937999935355,,,,24,0,23,588.5058866999752,,,,,,,,,,,,,,,,,,,,,,,,,,,,,,588.4899433999963,588.5058866999752,588.9894627999747,,,,,,,,,,,,,,589.0064742999966,,,,,,,,,,,,,589.0038094999909,589.0064742999966,589.0064742999966,589.0064742999966,591.9896829999925,j,591.9897282999882,,,591.9897396999877,None,,,592.0058901000011,592.0058901000011,592.0058901000011,1.869770299992524,0.1999937999935355,,,,,,,,,,00037,001,2026-01-16_21h31.12.620,MST_task,2024.2.0,60.11436156797052,2026-01-16 21h31.24.554374 +0530,
,Scenes\033a.jpg,24,0,25,,,,,,,None,j,0.48981200001435354,None,,,,,,25,0,24,592.0058901000011,,,,,,,,,,,,,,,,,,,,,,,,,,,,,,591.9898045999871,592.0058901000011,592.4893765999877,,,,,,,,,,,,,,592.5063836999761,,,,,,,,,,,,,592.4994611000002,592.5063836999761,592.5063836999761,592.5063836999761,595.4896519999893,None,595.4896906999929,595.5059608999873,595.5059608999873,596.0063130999915,j,0.48981200001435354,None,595.5059608999873,595.5059608999873,595.5059608999873,,,,,,,,,,,,00037,001,2026-01-16_21h31.12.620,MST_task,2024.2.0,60.11436156797052,2026-01-16 21h31.24.554374 +0530,
,Scenes\166a.jpg,25,0,26,,,,,,,None,j,0.15322929999092594,None,,,,,,26,0,25,596.0226170999813,,,,,,,,,,,,,,,,,,,,,,,,,,,,,,596.0063996999816,596.0226170999813,596.506237499998,,,,,,,,,,,,,,596.5231724999903,,,,,,,,,,,,,596.51878079999,596.5231724999903,596.5231724999903,596.5231724999903,599.5064399999974,None,599.5064808999887,599.5226265999954,599.5226265999954,599.6896994999843,j,0.15322929999092594,None,599.5226265999954,599.5226265999954,599.5226265999954,,,,,,,,,,,,00037,001,2026-01-16_21h31.12.620,MST_task,2024.2.0,60.11436156797052,2026-01-16 21h31.24.554374 +0530,
,Scenes\161a.jpg,26,0,27,,,,,,,None,j,0.4605662999965716,None,,,,,,27,0,26,599.7059443999897,,,,,,,,,,,,,,,,,,,,,,,,,,,,,,599.689822299988,599.7059443999897,600.1894823999901,,,,,,,,,,,,,,600.2087364999752,,,,,,,,,,,,,600.2064359999786,600.2087364999752,600.2087364999752,600.2087364999752,603.2062087999948,None,603.2062482999754,603.2226206999912,603.2226206999912,603.6895894999907,j,0.4605662999965716,None,,,,,,,,,,,,,,,00037,001,2026-01-16_21h31.12.620,MST_task,2024.2.0,60.11436156797052,2026-01-16 21h31.24.554374 +0530,
,Scenes\082a.jpg,27,0,28,,,,,,,f,None,,,2.883663399989018,None,,,,28,0,27,603.70607439999,,,,,,,,,,,,,,,,,,,,,,,,,,,,,,603.6897123999952,603.70607439999,604.1894066999957,,,,,,,,,,,,,,604.2089605999936,,,,,,,,,,,,,604.2067663999915,604.2089605999936,604.2089605999936,604.2089605999936,607.2062098000024,f,607.2062563999789,,,607.2062685999845,None,,,,,,2.883663399989018,None,,,,,,,,,,00037,001,2026-01-16_21h31.12.620,MST_task,2024.2.0,60.11436156797052,2026-01-16 21h31.24.554374 +0530,
,Objects\076a.jpg,28,0,29,,,,,,,f,None,,,2.7769217000168283,0.11115769998286851,,,,29,0,28,607.2226449000009,,,,,,,,,,,,,,,,,,,,,,,,,,,,,,607.2063674999808,607.2226449000009,607.7062131999992,,,,,,,,,,,,,,607.7230567999941,,,,,,,,,,,,,607.7180694999988,607.7230567999941,607.7230567999941,607.7230567999941,610.7065193000017,f,610.7085414999747,,,610.7085582999862,None,,,610.7226313999854,610.7226313999854,610.7226313999854,2.7769217000168283,0.11115769998286851,,,,,,,,,,00037,001,2026-01-16_21h31.12.620,MST_task,2024.2.0,60.11436156797052,2026-01-16 21h31.24.554374 +0530,
,Objects\100a.jpg,29,0,30,,,,,,,f,None,,,2.932745900005102,None,,,,30,0,29,610.7226313999854,,,,,,,,,,,,,,,,,,,,,,,,,,,,,,610.7086598000024,610.7226313999854,611.2061535999819,,,,,,,,,,,,,,611.2228888999962,,,,,,,,,,,,,611.2153654999856,611.2228888999962,611.2228888999962,611.2228888999962,614.2064854999771,f,614.2065277999791,,,614.2065384000016,None,,,614.2226324999938,614.2226324999938,614.2226324999938,2.932745900005102,None,,,,,,,,,,00037,001,2026-01-16_21h31.12.620,MST_task,2024.2.0,60.11436156797052,2026-01-16 21h31.24.554374 +0530,
,Objects\032a.jpg,30,0,31,,,,,,,j,None,,,1.7367769999837037,0.20019540001521818,,,,31,0,30,614.2226324999938,,,,,,,,,,,,,,,,,,,,,,,,,,,,,,614.2066017999896,614.2226324999938,614.7062267999863,,,,,,,,,,,,,,614.7228675999795,,,,,,,,,,,,,614.7152342999761,614.7228675999795,614.7228675999795,614.7228675999795,617.7065556999878,j,617.7066009999835,,,617.7066119999799,None,,,617.7225650999753,617.7225650999753,617.7225650999753,1.7367769999837037,0.20019540001521818,,,,,,,,,,00037,001,2026-01-16_21h31.12.620,MST_task,2024.2.0,60.11436156797052,2026-01-16 21h31.24.554374 +0530,
,Objects\143a.jpg,31,0,32,,,,,,,None,f,1.1814187999989372,None,,,,,,32,0,31,617.7225650999753,,,,,,,,,,,,,,,,,,,,,,,,,,,,,,617.7067110999778,617.7225650999753,618.2062068999803,,,,,,,,,,,,,,618.2228830999811,,,,,,,,,,,,,618.2156390000018,618.2228830999811,618.2228830999811,618.2228830999811,621.2065099999891,None,621.2065471999813,621.2225637999945,621.2225637999945,622.4064129999897,f,1.1814187999989372,None,621.2225637999945,621.2225637999945,621.2225637999945,,,,,,,,,,,,00037,001,2026-01-16_21h31.12.620,MST_task,2024.2.0,60.11436156797052,2026-01-16 21h31.24.554374 +0530,
,Objects\129a.jpg,32,0,33,,,,,,,None,f,0.3611967999895569,None,,,,,,33,0,32,622.4226345999923,,,,,,,,,,,,,,,,,,,,,,,,,,,,,,622.4064992999774,622.4226345999923,622.9062396999798,,,,,,,,,,,,,,622.9228535000002,,,,,,,,,,,,,622.9160789999878,622.9228535000002,622.9228535000002,622.9228535000002,625.9064268999791,None,625.9064693999826,625.9226493999886,625.9226493999886,626.2896827999793,f,0.3611967999895569,None,625.9226493999886,625.9226493999886,625.9226493999886,,,,,,,,,,,,00037,001,2026-01-16_21h31.12.620,MST_task,2024.2.0,60.11436156797052,2026-01-16 21h31.24.554374 +0530,
,Objects\128a.jpg,33,0,34,,,,,,,None,j,0.9580839000118431,None,,,,,,34,0,33,626.3059508999868,,,,,,,,,,,,,,,,,,,,,,,,,,,,,,626.2898179999902,626.3059508999868,626.7895189999836,,,,,,,,,,,,,,626.8062003999949,,,,,,,,,,,,,626.7985325999907,626.8062003999949,626.8062003999949,626.8062003999949,629.7896457999886,None,629.7896853999991,629.8059816999885,629.8059816999885,630.7734274999821,j,0.9580839000118431,None,629.8059816999885,629.8059816999885,629.8059816999885,,,,,,,,,,,,00037,001,2026-01-16_21h31.12.620,MST_task,2024.2.0,60.11436156797052,2026-01-16 21h31.24.554374 +0530,
,Objects\083a.jpg,34,0,35,,,,,,,f,None,,,2.1298207999789156,0.2240116000175476,,,,35,0,34,630.789063299977,,,,,,,,,,,,,,,,,,,,,,,,,,,,,,630.7735138999997,630.789063299977,631.2728690999793,,,,,,,,,,,,,,631.2893138999934,,,,,,,,,,,,,631.2819302999997,631.2893138999934,631.2893138999934,631.2893138999934,634.2731472000014,f,634.2731922999956,,,634.2732034999935,None,,,634.2891493999923,634.2891493999923,634.2891493999923,2.1298207999789156,0.2240116000175476,,,,,,,,,,00037,001,2026-01-16_21h31.12.620,MST_task,2024.2.0,60.11436156797052,2026-01-16 21h31.24.554374 +0530,
,Scenes\157a.jpg,35,0,36,,,,,,,None,j,1.998017300007632,None,,,,,,36,0,35,634.2891493999923,,,,,,,,,,,,,,,,,,,,,,,,,,,,,,634.2732698000036,634.2891493999923,634.7729560000007,,,,,,,,,,,,,,634.7915427999978,,,,,,,,,,,,,634.7889867999766,634.7915427999978,634.7915427999978,634.7915427999978,637.7894612999808,None,637.7912149999756,637.806010100001,637.806010100001,639.8064239999803,j,1.998017300007632,None,,,,,,,,,,,,,,,00037,001,2026-01-16_21h31.12.620,MST_task,2024.2.0,60.11436156797052,2026-01-16 21h31.24.554374 +0530,
,Scenes\088a.jpg,36,0,37,,,,,,,None,j,0.48023670000839047,None,,,,,,37,0,36,639.8226271999883,,,,,,,,,,,,,,,,,,,,,,,,,,,,,,639.806545999978,639.8226271999883,640.3062531999894,,,,,,,,,,,,,,640.3292786999955,,,,,,,,,,,,,640.3268666999938,640.3292786999955,640.3292786999955,640.3292786999955,643.3228791999863,None,643.3229194000014,643.339450999978,643.339450999978,643.823084899981,j,0.48023670000839047,None,,,,,,,,,,,,,,,00037,001,2026-01-16_21h31.12.620,MST_task,2024.2.0,60.11436156797052,2026-01-16 21h31.24.554374 +0530,
,Scenes\164a.jpg,37,0,38,,,,,,,None,j,0.5274011000001337,None,,,,,,38,0,37,643.8392423999903,,,,,,,,,,,,,,,,,,,,,,,,,,,,,,643.8232079999871,643.8392423999903,644.3228853999753,,,,,,,,,,,,,,644.3439778999891,,,,,,,,,,,,,644.3414537999779,644.3439778999891,644.3439778999891,644.3439778999891,647.3396491000021,None,647.3396911000018,647.3560792999924,647.3560792999924,647.889783599996,j,0.5274011000001337,None,,,,,,,,,,,,,,,00037,001,2026-01-16_21h31.12.620,MST_task,2024.2.0,60.11436156797052,2026-01-16 21h31.24.554374 +0530,
,Scenes\188a.jpg,38,0,39,,,,,,,None,j,0.46123739998438396,None,,,,,,39,0,38,647.9062913999951,,,,,,,,,,,,,,,,,,,,,,,,,,,,,,647.8898719999997,647.9062913999951,648.3898093999887,,,,,,,,,,,,,,648.4066209000011,,,,,,,,,,,,,648.4030528999865,648.4066209000011,648.4066209000011,648.4066209000011,651.3901197999949,None,651.3901675999805,651.4060259999824,651.4060259999824,651.8731686999963,j,0.46123739998438396,None,651.4060259999824,651.4060259999824,651.4060259999824,,,,,,,,,,,,00037,001,2026-01-16_21h31.12.620,MST_task,2024.2.0,60.11436156797052,2026-01-16 21h31.24.554374 +0530,
,Scenes\044a.jpg,39,0,40,,,,,,,None,f,0.19857690000208095,None,,,,,,40,0,39,651.8893195999844,,,,,,,,,,,,,,,,,,,,,,,,,,,,,,651.8732666999858,651.8893195999844,652.3729552000004,,,,,,,,,,,,,,652.3900093999982,,,,,,,,,,,,,652.3864304999879,652.3900093999982,652.3900093999982,652.3900093999982,655.3732850999804,None,655.3733296999999,655.3893330999999,655.3893330999999,655.589900299994,f,0.19857690000208095,None,655.3893330999999,655.3893330999999,655.3893330999999,,,,,,,,,,,,00037,001,2026-01-16_21h31.12.620,MST_task,2024.2.0,60.11436156797052,2026-01-16 21h31.24.554374 +0530,
,Scenes\090a.jpg,40,0,41,,,,,,,j,None,,,2.0631086999783292,0.16689940000651404,,,,41,0,40,655.6060127999808,,,,,,,,,,,,,,,,,,,,,,,,,,,,,,655.5899907999847,655.6060127999808,656.0897761999804,,,,,,,,,,,,,,656.1092069000006,,,,,,,,,,,,,656.1066644999955,656.1092069000006,656.1092069000006,656.1092069000006,659.1063722999825,j,659.1064160999958,,,659.1064272999938,None,,,,,,2.0631086999783292,0.16689940000651404,,,,,,,,,,00037,001,2026-01-16_21h31.12.620,MST_task,2024.2.0,60.11436156797052,2026-01-16 21h31.24.554374 +0530,
,Scenes\132a.jpg,41,0,42,,,,,,,None,j,0.38855460000922903,None,,,,,,42,0,41,659.1227428999846,,,,,,,,,,,,,,,,,,,,,,,,,,,,,,659.1065374999889,659.1227428999846,659.606362999999,,,,,,,,,,,,,,659.6234018999967,,,,,,,,,,,,,659.6185141000024,659.6234018999967,659.6234018999967,659.6234018999967,662.6066338999954,None,662.6066767000011,662.6226564999961,662.6226564999961,663.0231944999832,j,0.38855460000922903,None,662.6226564999961,662.6226564999961,662.6226564999961,,,,,,,,,,,,00037,001,2026-01-16_21h31.12.620,MST_task,2024.2.0,60.11436156797052,2026-01-16 21h31.24.554374 +0530,
,Objects\175a.jpg,42,0,43,,,,,,,f,None,,,2.1113283000013325,0.2559224999858998,,,,43,0,42,663.0393204999855,,,,,,,,,,,,,,,,,,,,,,,,,,,,,,663.0232943999872,663.0393204999855,663.5230958999891,,,,,,,,,,,,,,663.5397717999876,,,,,,,,,,,,,663.5345187999774,663.5397717999876,663.5397717999876,663.5397717999876,666.5232680999907,f,666.5252799000009,,,666.5252964999818,None,,,666.539409399993,666.539409399993,666.539409399993,2.1113283000013325,0.2559224999858998,,,,,,,,,,00037,001,2026-01-16_21h31.12.620,MST_task,2024.2.0,60.11436156797052,2026-01-16 21h31.24.554374 +0530,
,Objects\037a.jpg,43,0,44,,,,,,,f,None,,,1.6753278000105638,0.15198890000465326,,,,44,0,43,666.539409399993,,,,,,,,,,,,,,,,,,,,,,,,,,,,,,666.5253665999917,666.539409399993,667.0230682999827,,,,,,,,,,,,,,667.0397680999886,,,,,,,,,,,,,667.0327883999853,667.0397680999886,667.0397680999886,667.0397680999886,670.0232648999954,f,670.0233091999835,,,670.0233200999792,None,,,670.0394854999904,670.0394854999904,670.0394854999904,1.6753278000105638,0.15198890000465326,,,,,,,,,,00037,001,2026-01-16_21h31.12.620,MST_task,2024.2.0,60.11436156797052,2026-01-16 21h31.24.554374 +0530,
,Objects\130a.jpg,44,0,45,,,,,,,None,j,0.6004442000121344,None,,,,,,45,0,44,670.0394854999904,,,,,,,,,,,,,,,,,,,,,,,,,,,,,,670.0234167999879,670.0394854999904,670.522936399997,,,,,,,,,,,,,,670.5396650999901,,,,,,,,,,,,,670.5321085999894,670.5396650999901,670.5396650999901,670.5396650999901,673.5232314000023,None,673.5232714999875,673.539314499998,673.539314499998,674.1563366999908,j,0.6004442000121344,None,673.539314499998,673.539314499998,673.539314499998,,,,,,,,,,,,00037,001,2026-01-16_21h31.12.620,MST_task,2024.2.0,60.11436156797052,2026-01-16 21h31.24.554374 +0530,
,Objects\029a.jpg,45,0,46,,,,,,,f,None,,,2.354803499998525,0.23143569999956526,,,,46,0,45,674.1727871999901,,,,,,,,,,,,,,,,,,,,,,,,,,,,,,674.1564241999877,674.1727871999901,674.6562788999872,,,,,,,,,,,,,,674.673007299978,,,,,,,,,,,,,674.6656616999826,674.673007299978,674.673007299978,674.673007299978,677.6567968000018,f,677.6568412999914,,,677.6568535999977,None,,,,,,2.354803499998525,0.23143569999956526,,,,,,,,,,00037,001,2026-01-16_21h31.12.620,MST_task,2024.2.0,60.11436156797052,2026-01-16 21h31.24.554374 +0530,
,Objects\115a.jpg,46,0,47,,,,,,,f,None,,,2.5744994999840856,0.2403770000091754,,,,47,0,46,677.6726803999918,,,,,,,,,,,,,,,,,,,,,,,,,,,,,,677.6569535000017,677.6726803999918,678.156278599985,,,,,,,,,,,,,,678.1729564999987,,,,,,,,,,,,,678.1653214999824,678.1729564999987,678.1729564999987,678.1729564999987,681.1566700999974,f,681.1567147999885,,,681.156725799985,None,,,681.1726807999949,681.1726807999949,681.1726807999949,2.5744994999840856,0.2403770000091754,,,,,,,,,,00037,001,2026-01-16_21h31.12.620,MST_task,2024.2.0,60.11436156797052,2026-01-16 21h31.24.554374 +0530,
,Objects\068a.jpg,47,0,48,,,,,,,None,j,0.8109665999945719,None,,,,,,48,0,47,681.1726807999949,,,,,,,,,,,,,,,,,,,,,,,,,,,,,,681.1568228999968,681.1726807999949,681.6563873999985,,,,,,,,,,,,,,681.6729006999813,,,,,,,,,,,,,681.6656956999796,681.6729006999813,681.6729006999813,681.6729006999813,684.6565051999933,None,684.6565443,684.672773600003,684.672773600003,685.4898677000019,j,0.8109665999945719,None,684.672773600003,684.672773600003,684.672773600003,,,,,,,,,,,,00037,001,2026-01-16_21h31.12.620,MST_task,2024.2.0,60.11436156797052,2026-01-16 21h31.24.554374 +0530,
,Objects\117a.jpg,48,0,49,,,,,,,None,f,0.4210013000119943,None,,,,,,49,0,48,685.5060904999846,,,,,,,,,,,,,,,,,,,,,,,,,,,,,,685.4899560999766,685.5060904999846,685.9895790999872,,,,,,,,,,,,,,686.0062558999925,,,,,,,,,,,,,685.9989406999957,686.0062558999925,686.0062558999925,686.0062558999925,688.9905833999801,None,688.9906237999967,689.0061125999782,689.0061125999782,689.4397974000021,f,0.4210013000119943,None,,,,,,,,,,,,,,,00037,001,2026-01-16_21h31.12.620,MST_task,2024.2.0,60.11436156797052,2026-01-16 21h31.24.554374 +0530,
,Scenes\106a.jpg,49,0,50,,,,,,,None,j,0.278448600001866,None,,,,,,50,0,49,689.4560243999877,,,,,,,,,,,,,,,,,,,,,,,,,,,,,,689.4398829999845,689.4560243999877,689.9395916999783,,,,,,,,,,,,,,689.9603023999953,,,,,,,,,,,,,689.9579525000008,689.9603023999953,689.9603023999953,689.9603023999953,692.957313299994,None,692.9589067999914,692.9727743999974,692.9727743999974,693.2565838999872,j,0.278448600001866,None,,,,,,,,,,,,,,,00037,001,2026-01-16_21h31.12.620,MST_task,2024.2.0,60.11436156797052,2026-01-16 21h31.24.554374 +0530,
,Scenes\025a.jpg,50,0,51,,,,,,,None,j,0.09447169999475591,None,,,,,,51,0,50,693.2727936999872,,,,,,,,,,,,,,,,,,,,,,,,,,,,,,693.2567022999865,693.2727936999872,693.7563542999851,,,,,,,,,,,,,,693.7771417999757,,,,,,,,,,,,,693.7746890999842,693.7771417999757,693.7771417999757,693.7771417999757,696.772862199985,None,696.7729063000006,696.7891653999977,696.7891653999977,696.8898248999903,j,0.09447169999475591,None,,,,,,,,,,,,,,,00037,001,2026-01-16_21h31.12.620,MST_task,2024.2.0,60.11436156797052,2026-01-16 21h31.24.554374 +0530,
,Scenes\045a.jpg,51,0,52,,,,,,,None,j,0.36519899999257177,None,,,,,,52,0,51,696.9060966999969,,,,,,,,,,,,,,,,,,,,,,,,,,,,,,696.8899129999918,696.9060966999969,697.3897023999889,,,,,,,,,,,,,,697.4104541999986,,,,,,,,,,,,,697.4081004999753,697.4104541999986,697.4104541999986,697.4104541999986,700.4063590999867,None,700.4064001999795,700.4227380999946,700.4227380999946,700.7894739999902,j,0.36519899999257177,None,,,,,,,,,,,,,,,00037,001,2026-01-16_21h31.12.620,MST_task,2024.2.0,60.11436156797052,2026-01-16 21h31.24.554374 +0530,
,Scenes\183a.jpg,52,0,53,,,,,,,f,None,,,2.831618199998047,None,,,,53,0,52,700.8059970999893,,,,,,,,,,,,,,,,,,,,,,,,,,,,,,700.7895651999861,700.8059970999893,701.289621599979,,,,,,,,,,,,,,701.3080941999797,,,,,,,,,,,,,701.3057481999858,701.3080941999797,701.3080941999797,701.3080941999797,704.2897066999867,f,704.2897519999824,,,704.2897639999865,None,,,,,,2.831618199998047,None,,,,,,,,,,00037,001,2026-01-16_21h31.12.620,MST_task,2024.2.0,60.11436156797052,2026-01-16 21h31.24.554374 +0530,
,Scenes\155a.jpg,53,0,54,,,,,,,j,None,,,2.1299170999845956,0.15995689999544993,,,,54,0,53,704.3060446000018,,,,,,,,,,,,,,,,,,,,,,,,,,,,,,704.2898645999958,704.3060446000018,704.7897452999896,,,,,,,,,,,,,,704.8093075999932,,,,,,,,,,,,,704.8068275999976,704.8093075999932,704.8093075999932,704.8093075999932,707.8061575999891,j,707.8061999999918,,,707.8062118999951,None,,,,,,2.1299170999845956,0.15995689999544993,,,,,,,,,,00037,001,2026-01-16_21h31.12.620,MST_task,2024.2.0,60.11436156797052,2026-01-16 21h31.24.554374 +0530,
,Scenes\074a.jpg,54,0,55,,,,,,,j,None,,,2.4556986000097822,0.20091660000616685,,,,55,0,54,707.8226589999977,,,,,,,,,,,,,,,,,,,,,,,,,,,,,,707.8063104999892,707.8226589999977,708.306259999983,,,,,,,,,,,,,,708.3234242999752,,,,,,,,,,,,,708.3208812999947,708.3234242999752,708.3234242999752,708.3234242999752,711.3065574999782,j,711.3066027000023,,,711.306614000001,None,,,711.3226653999882,711.3226653999882,711.3226653999882,2.4556986000097822,0.20091660000616685,,,,,,,,,,00037,001,2026-01-16_21h31.12.620,MST_task,2024.2.0,60.11436156797052,2026-01-16 21h31.24.554374 +0530,
,Scenes\134a.jpg,55,0,56,,,,,,,j,None,,,2.5065735999960452,0.19191709998995066,,,,56,0,55,711.3226653999882,,,,,,,,,,,,,,,,,,,,,,,,,,,,,,711.3067106999806,711.3226653999882,711.8062555999786,,,,,,,,,,,,,,711.8253138999862,,,,,,,,,,,,,711.8229714999907,711.8253138999862,711.8253138999862,711.8253138999862,714.8229550999822,j,714.8229973999842,,,714.8230090999859,None,,,,,,2.5065735999960452,0.19191709998995066,,,,,,,,,,00037,001,2026-01-16_21h31.12.620,MST_task,2024.2.0,60.11436156797052,2026-01-16 21h31.24.554374 +0530,
,Objects\142a.jpg,56,0,57,,,,,,,f,None,,,2.2482041000039317,0.23197870000149123,,,,57,0,56,714.8392279999971,,,,,,,,,,,,,,,,,,,,,,,,,,,,,,714.823106099997,714.8392279999971,715.3230692999787,,,,,,,,,,,,,,715.339685199986,,,,,,,,,,,,,715.3353613999789,715.339685199986,715.339685199986,715.339685199986,718.3232526999782,f,718.3253697000036,,,718.3253869999899,None,,,718.3392799999856,718.3392799999856,718.3392799999856,2.2482041000039317,0.23197870000149123,,,,,,,,,,00037,001,2026-01-16_21h31.12.620,MST_task,2024.2.0,60.11436156797052,2026-01-16 21h31.24.554374 +0530,
,Objects\139a.jpg,57,0,58,,,,,,,f,None,,,2.020825399988098,0.1748684000049252,,,,58,0,57,718.3392799999856,,,,,,,,,,,,,,,,,,,,,,,,,,,,,,718.3254879000015,718.3392799999856,718.823212999996,,,,,,,,,,,,,,718.8395110999991,,,,,,,,,,,,,718.8332829999854,718.8395110999991,718.8395110999991,718.8395110999991,721.8234140999848,f,721.8234609999927,,,721.8234727999952,None,,,721.839213899977,721.839213899977,721.839213899977,2.020825399988098,0.1748684000049252,,,,,,,,,,00037,001,2026-01-16_21h31.12.620,MST_task,2024.2.0,60.11436156797052,2026-01-16 21h31.24.554374 +0530,
,Objects\120a.jpg,58,0,59,,,,,,,f,None,,,2.4735235999978613,0.16698740000720136,,,,59,0,58,721.839213899977,,,,,,,,,,,,,,,,,,,,,,,,,,,,,,721.8235437999829,721.839213899977,722.3231132999936,,,,,,,,,,,,,,722.3395695999789,,,,,,,,,,,,,722.3322093999886,722.3395695999789,722.3395695999789,722.3395695999789,725.323479499988,f,725.3235466999759,,,725.3235592999845,None,,,725.3392773999949,725.3392773999949,725.3392773999949,2.4735235999978613,0.16698740000720136,,,,,,,,,,00037,001,2026-01-16_21h31.12.620,MST_task,2024.2.0,60.11436156797052,2026-01-16 21h31.24.554374 +0530,
,Objects\160a.jpg,59,0,60,,,,,,,None,j,0.5881503999989945,None,,,,,,60,0,59,725.3392773999949,,,,,,,,,,,,,,,,,,,,,,,,,,,,,,725.3236285999883,725.3392773999949,725.8229719999945,,,,,,,,,,,,,,725.8394232999999,,,,,,,,,,,,,725.8321903999895,725.8394232999999,725.8394232999999,725.8394232999999,728.8231999999844,None,728.8232388999895,728.8391795999778,728.8391795999778,729.4396553999977,j,0.5881503999989945,None,728.8391795999778,728.8391795999778,728.8391795999778,,,,,,,,,,,,00037,001,2026-01-16_21h31.12.620,MST_task,2024.2.0,60.11436156797052,2026-01-16 21h31.24.554374 +0530,
,Objects\163a.jpg,60,0,61,,,,,,,f,None,,,2.2713922999973875,0.19202129999757744,,,,61,0,60,729.4560133999912,,,,,,,,,,,,,,,,,,,,,,,,,,,,,,729.439741899987,729.4560133999912,729.939492799982,,,,,,,,,,,,,,729.9561641999753,,,,,,,,,,,,,729.9487622999877,729.9561641999753,729.9561641999753,729.9561641999753,732.9399017999822,f,732.9399467999756,,,732.9399582999758,None,,,732.9559936999867,732.9559936999867,732.9559936999867,2.2713922999973875,0.19202129999757744,,,,,,,,,,00037,001,2026-01-16_21h31.12.620,MST_task,2024.2.0,60.11436156797052,2026-01-16 21h31.24.554374 +0530,
,Objects\135a.jpg,61,0,62,,,,,,,f,None,,,2.179374100000132,0.16856969997752458,,,,62,0,61,732.9559936999867,,,,,,,,,,,,,,,,,,,,,,,,,,,,,,732.9400239999813,732.9559936999867,733.4394682999991,,,,,,,,,,,,,,733.4562245999987,,,,,,,,,,,,,733.448574399983,733.4562245999987,733.4562245999987,733.4562245999987,736.4397263999854,f,736.4397694999934,,,736.4397803999891,None,,,736.4560037999763,736.4560037999763,736.4560037999763,2.179374100000132,0.16856969997752458,,,,,,,,,,00037,001,2026-01-16_21h31.12.620,MST_task,2024.2.0,60.11436156797052,2026-01-16 21h31.24.554374 +0530,
,Objects\065a.jpg,62,0,63,,,,,,,None,j,0.1277745999977924,None,,,,,,63,0,62,736.4560037999763,,,,,,,,,,,,,,,,,,,,,,,,,,,,,,736.43987989999,736.4560037999763,736.939549999981,,,,,,,,,,,,,,736.956183399976,,,,,,,,,,,,,736.9486662999843,736.956183399976,736.956183399976,736.956183399976,739.940033699997,None,739.9400758999982,739.9559913999983,739.9559913999983,740.0895867999934,j,0.1277745999977924,None,739.9559913999983,739.9559913999983,739.9559913999983,,,,,,,,,,,,00037,001,2026-01-16_21h31.12.620,MST_task,2024.2.0,60.11436156797052,2026-01-16 21h31.24.554374 +0530,
,Scenes\096a.jpg,63,0,64,,,,,,,j,None,,,2.8773252999817487,None,,,,64,0,63,740.1060217999911,,,,,,,,,,,,,,,,,,,,,,,,,,,,,,740.0897071999789,740.1060217999911,740.5894909999915,,,,,,,,,,,,,,740.6065127999755,,,,,,,,,,,,,740.6028884999978,740.6065127999755,740.6065127999755,740.6065127999755,743.5898503999924,j,743.5914202999847,,,743.5914380000031,None,,,743.6059384999971,743.6059384999971,743.6059384999971,2.8773252999817487,None,,,,,,,,,,00037,001,2026-01-16_21h31.12.620,MST_task,2024.2.0,60.11436156797052,2026-01-16 21h31.24.554374 +0530,
,Scenes\034a.jpg,64,0,65,,,,,,,f,None,,,2.9301742000097875,None,,,,65,0,64,743.6059384999971,,,,,,,,,,,,,,,,,,,,,,,,,,,,,,743.5915459999815,743.6059384999971,744.0894324999826,,,,,,,,,,,,,,744.1131772999943,,,,,,,,,,,,,744.1106198999914,744.1131772999943,744.1131772999943,744.1131772999943,747.1062328999978,f,747.1062733999861,,,747.1062845999841,None,,,,,,2.9301742000097875,None,,,,,,,,,,00037,001,2026-01-16_21h31.12.620,MST_task,2024.2.0,60.11436156797052,2026-01-16 21h31.24.554374 +0530,
,Scenes\006a.jpg,65,0,66,,,,,,,None,f,0.33336639998015016,None,,,,,,66,0,65,747.1225941999874,,,,,,,,,,,,,,,,,,,,,,,,,,,,,,747.106390699977,747.1225941999874,747.6062390999869,,,,,,,,,,,,,,747.6233979999961,,,,,,,,,,,,,747.6202849999827,747.6233979999961,747.6233979999961,747.6233979999961,750.6064568999864,None,750.6064964999969,750.6226696999802,750.6226696999802,750.9566864999942,f,0.33336639998015016,None,750.6226696999802,750.6226696999802,750.6226696999802,,,,,,,,,,,,00037,001,2026-01-16_21h31.12.620,MST_task,2024.2.0,60.11436156797052,2026-01-16 21h31.24.554374 +0530,
,Scenes\119a.jpg,66,0,67,,,,,,,None,j,0.530819400009932,None,,,,,,67,0,66,750.9726312999846,,,,,,,,,,,,,,,,,,,,,,,,,,,,,,750.9567742999934,750.9726312999846,751.4562913999835,,,,,,,,,,,,,,751.4739453999791,,,,,,,,,,,,,751.4713237999822,751.4739453999791,751.4739453999791,751.4739453999791,754.4728861999756,None,754.4729286999791,754.4892395999923,754.4892395999923,755.0231361999759,j,0.530819400009932,None,,,,,,,,,,,,,,,00037,001,2026-01-16_21h31.12.620,MST_task,2024.2.0,60.11436156797052,2026-01-16 21h31.24.554374 +0530,
,Scenes\078a.jpg,67,0,68,,,,,,,None,j,0.47174249999807216,None,,,,,,68,0,67,755.0391906999866,,,,,,,,,,,,,,,,,,,,,,,,,,,,,,755.0232555999828,755.0391906999866,755.5231692999951,,,,,,,,,,,,,,755.5428863999841,,,,,,,,,,,,,755.540211399988,755.5428863999841,755.5428863999841,755.5428863999841,758.5395282999962,None,758.5395793999778,758.5559579999826,758.5559579999826,759.0396935000026,j,0.47174249999807216,None,,,,,,,,,,,,,,,00037,001,2026-01-16_21h31.12.620,MST_task,2024.2.0,60.11436156797052,2026-01-16 21h31.24.554374 +0530,
,Scenes\114a.jpg,68,0,69,,,,,,,f,None,,,2.2101536999980453,0.25609199999598786,,,,69,0,68,759.055967399996,,,,,,,,,,,,,,,,,,,,,,,,,,,,,,759.0398142999911,759.055967399996,759.5395953999832,,,,,,,,,,,,,,759.5619145999954,,,,,,,,,,,,,759.5594469999778,759.5619145999954,759.5619145999954,759.5619145999954,762.5562590999762,f,762.556311399996,,,762.5563262999931,None,,,,,,2.2101536999980453,0.25609199999598786,,,,,,,,,,00037,001,2026-01-16_21h31.12.620,MST_task,2024.2.0,60.11436156797052,2026-01-16 21h31.24.554374 +0530,
,Scenes\144a.jpg,69,0,70,,,,,,,j,None,,,1.2104667999956291,0.20024600002216175,,,,70,0,69,762.5727451999846,,,,,,,,,,,,,,,,,,,,,,,,,,,,,,762.5564471999824,762.5727451999846,763.0562203000009,,,,,,,,,,,,,,763.0734110999911,,,,,,,,,,,,,763.0709988999879,763.0734110999911,763.0734110999911,763.0734110999911,766.0565533999761,j,766.0565949000011,,,766.056605699996,None,,,766.0726657999912,766.0726657999912,766.0726657999912,1.2104667999956291,0.20024600002216175,,,,,,,,,,00037,001,2026-01-16_21h31.12.620,MST_task,2024.2.0,60.11436156797052,2026-01-16 21h31.24.554374 +0530,
,Objects\170a.jpg,70,0,71,,,,,,,None,j,0.3830731000052765,None,,,,,,71,0,70,766.0726657999912,,,,,,,,,,,,,,,,,,,,,,,,,,,,,,766.0567025999771,766.0726657999912,766.5563756999909,,,,,,,,,,,,,,766.5732862000004,,,,,,,,,,,,,766.5682930999901,766.5732862000004,766.5732862000004,766.5732862000004,769.5569411999895,None,769.5590498999809,769.5726892999955,769.5726892999955,769.9564752999868,j,0.3830731000052765,None,769.5726892999955,769.5726892999955,769.5726892999955,,,,,,,,,,,,00037,001,2026-01-16_21h31.12.620,MST_task,2024.2.0,60.11436156797052,2026-01-16 21h31.24.554374 +0530,
,Objects\080a.jpg,71,0,72,,,,,,,f,None,,,2.54708920000121,0.20705110000562854,,,,72,0,71,769.9727439999988,,,,,,,,,,,,,,,,,,,,,,,,,,,,,,769.9565624999814,769.9727439999988,770.4563655999955,,,,,,,,,,,,,,770.4729016999772,,,,,,,,,,,,,770.4658371999976,770.4729016999772,770.4729016999772,770.4729016999772,773.4566760000016,f,773.4567261999764,,,773.4567381999805,None,,,773.4727004999877,773.4727004999877,773.4727004999877,2.54708920000121,0.20705110000562854,,,,,,,,,,00037,001,2026-01-16_21h31.12.620,MST_task,2024.2.0,60.11436156797052,2026-01-16 21h31.24.554374 +0530,
,Objects\158a.jpg,72,0,73,,,,,,,f,None,,,2.342703000002075,0.18421040000976063,,,,73,0,72,773.4727004999877,,,,,,,,,,,,,,,,,,,,,,,,,,,,,,773.4568059000012,773.4727004999877,773.9563716999837,,,,,,,,,,,,,,773.9729939999816,,,,,,,,,,,,,773.9661350999959,773.9729939999816,773.9729939999816,773.9729939999816,776.9566614999785,f,776.9567041999835,,,776.9567237999872,None,,,776.9728138999781,776.9728138999781,776.9728138999781,2.342703000002075,0.18421040000976063,,,,,,,,,,00037,001,2026-01-16_21h31.12.620,MST_task,2024.2.0,60.11436156797052,2026-01-16 21h31.24.554374 +0530,
,Objects\056a.jpg,73,0,74,,,,,,,None,f,0.3945316999743227,None,,,,,,74,0,73,776.9728138999781,,,,,,,,,,,,,,,,,,,,,,,,,,,,,,776.9568239999935,776.9728138999781,777.456681199983,,,,,,,,,,,,,,777.4729480999813,,,,,,,,,,,,,777.465598299983,777.4729480999813,777.4729480999813,777.4729480999813,780.45669609998,None,780.4567338999768,780.4727299999795,780.4727299999795,780.8732766999747,f,0.3945316999743227,None,780.4727299999795,780.4727299999795,780.4727299999795,,,,,,,,,,,,00037,001,2026-01-16_21h31.12.620,MST_task,2024.2.0,60.11436156797052,2026-01-16 21h31.24.554374 +0530,
,Objects\149a.jpg,74,0,75,,,,,,,j,None,,,2.517787499993574,0.24024130002362654,,,,75,0,74,780.8893590999942,,,,,,,,,,,,,,,,,,,,,,,,,,,,,,780.8733701999881,780.8893590999942,781.3730209999776,,,,,,,,,,,,,,781.3896112999937,,,,,,,,,,,,,781.3820571999822,781.3896112999937,781.3896112999937,781.3896112999937,784.3732345000026,j,784.3732778999838,,,784.3732890999818,None,,,784.389431699994,784.389431699994,784.389431699994,2.517787499993574,0.24024130002362654,,,,,,,,,,00037,001,2026-01-16_21h31.12.620,MST_task,2024.2.0,60.11436156797052,2026-01-16 21h31.24.554374 +0530,
,Objects\103a.jpg,75,0,76,,,,,,,j,None,,,2.2574409999942873,0.1839961000077892,,,,76,0,75,784.389431699994,,,,,,,,,,,,,,,,,,,,,,,,,,,,,,784.3733851999859,784.389431699994,784.8730304999917,,,,,,,,,,,,,,784.8896909999894,,,,,,,,,,,,,784.8822444999823,784.8896909999894,784.8896909999894,784.8896909999894,787.8733452000015,j,787.8733953999763,,,787.8734067999758,None,,,787.8892039999773,787.8892039999773,787.8892039999773,2.2574409999942873,0.1839961000077892,,,,,,,,,,00037,001,2026-01-16_21h31.12.620,MST_task,2024.2.0,60.11436156797052,2026-01-16 21h31.24.554374 +0530,
,Objects\131a.jpg,76,0,77,,,,,,,None,j,0.10171079999417998,None,,,,,,77,0,76,787.8892039999773,,,,,,,,,,,,,,,,,,,,,,,,,,,,,,787.8735138999764,787.8892039999773,788.373044899985,,,,,,,,,,,,,,788.3895541999955,,,,,,,,,,,,,788.3823851999769,788.3895541999955,788.3895541999955,788.3895541999955,791.3733622999862,None,791.3734016999952,791.3894413999806,791.3894413999806,791.5065162999963,j,0.10171079999417998,None,791.3894413999806,791.3894413999806,791.3894413999806,,,,,,,,,,,,00037,001,2026-01-16_21h31.12.620,MST_task,2024.2.0,60.11436156797052,2026-01-16 21h31.24.554374 +0530,
,Scenes\158a.jpg,77,0,78,,,,,,,j,None,,,1.9914579000032973,0.1680759000009857,,,,78,0,77,791.5227886999783,,,,,,,,,,,,,,,,,,,,,,,,,,,,,,791.5066055999778,791.5227886999783,792.0063680000021,,,,,,,,,,,,,,792.0278240999905,,,,,,,,,,,,,792.0254761999822,792.0278240999905,792.0278240999905,792.0278240999905,795.0231607999885,j,795.0247739999904,,,795.0247929999896,None,,,,,,1.9914579000032973,0.1680759000009857,,,,,,,,,,00037,001,2026-01-16_21h31.12.620,MST_task,2024.2.0,60.11436156797052,2026-01-16 21h31.24.554374 +0530,
,Scenes\083a.jpg,78,0,79,,,,,,,j,None,,,1.4711578999995254,0.20813379998435266,,,,79,0,78,795.0393872999994,,,,,,,,,,,,,,,,,,,,,,,,,,,,,,795.0248641999788,795.0393872999994,795.5233692999755,,,,,,,,,,,,,,795.5401595000003,,,,,,,,,,,,,795.5378863999795,795.5401595000003,795.5401595000003,795.5401595000003,798.523172199988,j,798.5232146999915,,,798.5232255999872,None,,,798.5392625999812,798.5392625999812,798.5392625999812,1.4711578999995254,0.20813379998435266,,,,,,,,,,00037,001,2026-01-16_21h31.12.620,MST_task,2024.2.0,60.11436156797052,2026-01-16 21h31.24.554374 +0530,
,Scenes\055a.jpg,79,0,80,,,,,,,j,None,,,1.8677798999997322,0.16889349999837577,,,,80,0,79,798.5392625999812,,,,,,,,,,,,,,,,,,,,,,,,,,,,,,798.5233214999898,798.5392625999812,799.0230991999852,,,,,,,,,,,,,,799.0397448999865,,,,,,,,,,,,,799.037762699998,799.0397448999865,799.0397448999865,799.0397448999865,802.0232317999762,j,802.0232773000025,,,802.0232883999997,None,,,802.0392962999758,802.0392962999758,802.0392962999758,1.8677798999997322,0.16889349999837577,,,,,,,,,,00037,001,2026-01-16_21h31.12.620,MST_task,2024.2.0,60.11436156797052,2026-01-16 21h31.24.554374 +0530,
,Scenes\105a.jpg,80,0,81,,,,,,,j,None,,,1.1974349000083748,0.19200859998818487,,,,81,0,80,802.0392962999758,,,,,,,,,,,,,,,,,,,,,,,,,,,,,,802.0233531999984,802.0392962999758,802.523056999984,,,,,,,,,,,,,,802.542993399984,,,,,,,,,,,,,802.5407166999939,802.542993399984,802.542993399984,802.542993399984,805.5394767999824,j,805.5395228999841,,,805.5395346999867,None,,,,,,1.1974349000083748,0.19200859998818487,,,,,,,,,,00037,001,2026-01-16_21h31.12.620,MST_task,2024.2.0,60.11436156797052,2026-01-16 21h31.24.554374 +0530,
,Scenes\066a.jpg,81,0,82,,,,,,,j,None,,,0.8745368999952916,0.16001789999427274,,,,82,0,81,805.5559497999784,,,,,,,,,,,,,,,,,,,,,,,,,,,,,,805.5396452999848,805.5559497999784,806.0395375999797,,,,,,,,,,,,,,806.0565651999786,,,,,,,,,,,,,806.0500229999889,806.0565651999786,806.0565651999786,806.0565651999786,809.0398349000025,j,809.0398776999791,,,809.0398886999756,None,,,809.0560221999767,809.0560221999767,809.0560221999767,0.8745368999952916,0.16001789999427274,,,,,,,,,,00037,001,2026-01-16_21h31.12.620,MST_task,2024.2.0,60.11436156797052,2026-01-16 21h31.24.554374 +0530,
,Scenes\087a.jpg,82,0,83,,,,,,,j,None,,,1.150417099997867,0.1693350999848917,,,,83,0,82,809.0560221999767,,,,,,,,,,,,,,,,,,,,,,,,,,,,,,809.0399842999759,809.0560221999767,809.5395443000016,,,,,,,,,,,,,,809.5566314999887,,,,,,,,,,,,,809.5509279999824,809.5566314999887,809.5566314999887,809.5566314999887,812.5400222000026,j,812.5400653999823,,,812.540076299978,None,,,812.5560955999827,812.5560955999827,812.5560955999827,1.150417099997867,0.1693350999848917,,,,,,,,,,00037,001,2026-01-16_21h31.12.620,MST_task,2024.2.0,60.11436156797052,2026-01-16 21h31.24.554374 +0530,
,Scenes\159a.jpg,83,0,84,,,,,,,j,None,,,2.4564274000003934,0.22348139999667183,,,,84,0,83,812.5560955999827,,,,,,,,,,,,,,,,,,,,,,,,,,,,,,812.5401413999789,812.5560955999827,813.0394706999941,,,,,,,,,,,,,,813.0599329999823,,,,,,,,,,,,,813.057562299975,813.0599329999823,813.0599329999823,813.0599329999823,816.0562033999886,j,816.0562455999898,,,816.0562567999878,None,,,,,,2.4564274000003934,0.22348139999667183,,,,,,,,,,00037,001,2026-01-16_21h31.12.620,MST_task,2024.2.0,60.11436156797052,2026-01-16 21h31.24.554374 +0530,
,Objects\053a.jpg,84,0,85,,,,,,,f,None,,,1.5034701999975368,0.19977919998927973,,,,85,0,84,816.0726795999799,,,,,,,,,,,,,,,,,,,,,,,,,,,,,,816.056354499975,816.0726795999799,816.5562750999816,,,,,,,,,,,,,,816.5732373999781,,,,,,,,,,,,,816.5685594999813,816.5732373999781,816.5732373999781,816.5732373999781,819.556915299996,f,819.558988099976,,,819.5590069000027,None,,,819.5726750000031,819.5726750000031,819.5726750000031,1.5034701999975368,0.19977919998927973,,,,,,,,,,00037,001,2026-01-16_21h31.12.620,MST_task,2024.2.0,60.11436156797052,2026-01-16 21h31.24.554374 +0530,
,Objects\161a.jpg,85,0,86,,,,,,,f,None,,,2.170194399979664,0.208006300003035,,,,86,0,85,819.5726750000031,,,,,,,,,,,,,,,,,,,,,,,,,,,,,,819.5591191999847,819.5726750000031,820.0564997999754,,,,,,,,,,,,,,820.0729188999976,,,,,,,,,,,,,820.0656963999791,820.0729188999976,820.0729188999976,820.0729188999976,823.0568088,f,823.056857299991,,,823.056868899992,None,,,823.0727622999984,823.0727622999984,823.0727622999984,2.170194399979664,0.208006300003035,,,,,,,,,,00037,001,2026-01-16_21h31.12.620,MST_task,2024.2.0,60.11436156797052,2026-01-16 21h31.24.554374 +0530,
,Objects\111a.jpg,86,0,87,,,,,,,j,None,,,2.190615200001048,0.2240192000172101,,,,87,0,86,823.0727622999984,,,,,,,,,,,,,,,,,,,,,,,,,,,,,,823.0569395999773,823.0727622999984,823.5562852000003,,,,,,,,,,,,,,823.5730203999847,,,,,,,,,,,,,823.567404899979,823.5730203999847,823.5730203999847,823.5730203999847,826.5566803999827,j,826.5567251999746,,,826.5567359999986,None,,,826.5727212999773,826.5727212999773,826.5727212999773,2.190615200001048,0.2240192000172101,,,,,,,,,,00037,001,2026-01-16_21h31.12.620,MST_task,2024.2.0,60.11436156797052,2026-01-16 21h31.24.554374 +0530,
,Objects\101a.jpg,87,0,88,,,,,,,None,f,0.0827139999892097,None,,,,,,88,0,87,826.5727212999773,,,,,,,,,,,,,,,,,,,,,,,,,,,,,,826.5568308999937,826.5727212999773,827.0563307999982,,,,,,,,,,,,,,827.0729341999977,,,,,,,,,,,,,827.0659635999764,827.0729341999977,827.0729341999977,827.0729341999977,830.0567103999783,None,830.0567572999862,830.0727129000006,830.0727129000006,830.1566737999965,f,0.0827139999892097,None,830.0727129000006,830.0727129000006,830.0727129000006,,,,,,,,,,,,00037,001,2026-01-16_21h31.12.620,MST_task,2024.2.0,60.11436156797052,2026-01-16 21h31.24.554374 +0530,
,Objects\153a.jpg,88,0,89,,,,,,,f,None,,,2.162426199996844,0.1926038000092376,,,,89,0,88,830.1726638999826,,,,,,,,,,,,,,,,,,,,,,,,,,,,,,830.1567654999963,830.1726638999826,830.6562475999817,,,,,,,,,,,,,,830.6729436999885,,,,,,,,,,,,,830.6657303999818,830.6729436999885,830.6729436999885,830.6729436999885,833.6565435999946,f,833.6565951999801,,,833.656608099991,None,,,833.6727078999975,833.6727078999975,833.6727078999975,2.162426199996844,0.1926038000092376,,,,,,,,,,00037,001,2026-01-16_21h31.12.620,MST_task,2024.2.0,60.11436156797052,2026-01-16 21h31.24.554374 +0530,
,Objects\181a.jpg,89,0,90,,,,,,,j,None,,,1.7909956999938004,0.21601880001253448,,,,90,0,89,833.6727078999975,,,,,,,,,,,,,,,,,,,,,,,,,,,,,,833.6566755999811,833.6727078999975,834.1562002999999,,,,,,,,,,,,,,834.1729367999942,,,,,,,,,,,,,834.1652523999801,834.1729367999942,834.1729367999942,834.1729367999942,837.1564745999931,j,837.156516899995,,,837.1565292000014,None,,,837.1726928999997,837.1726928999997,837.1726928999997,1.7909956999938004,0.21601880001253448,,,,,,,,,,00037,001,2026-01-16_21h31.12.620,MST_task,2024.2.0,60.11436156797052,2026-01-16 21h31.24.554374 +0530,
,Objects\155a.jpg,90,0,91,,,,,,,f,None,,,1.186344799993094,0.1766185000014957,,,,91,0,90,837.1726928999997,,,,,,,,,,,,,,,,,,,,,,,,,,,,,,837.1565924999886,837.1726928999997,837.6562471999787,,,,,,,,,,,,,,837.6729419999756,,,,,,,,,,,,,837.6653337999887,837.6729419999756,837.6729419999756,837.6729419999756,840.6565778999939,f,840.6566233999911,,,840.6566339999845,None,,,840.6726591999759,840.6726591999759,840.6726591999759,1.186344799993094,0.1766185000014957,,,,,,,,,,00037,001,2026-01-16_21h31.12.620,MST_task,2024.2.0,60.11436156797052,2026-01-16 21h31.24.554374 +0530,
,Scenes\145a.jpg,91,0,92,,,,,,,j,None,,,1.8408696000115015,0.19297619999269955,,,,92,0,91,840.6726591999759,,,,,,,,,,,,,,,,,,,,,,,,,,,,,,840.6567322999763,840.6726591999759,841.1562661999778,,,,,,,,,,,,,,841.1782725999947,,,,,,,,,,,,,841.1756412999821,841.1782725999947,841.1782725999947,841.1782725999947,844.1729321999883,j,844.1745228999935,,,844.1745419999934,None,,,,,,1.8408696000115015,0.19297619999269955,,,,,,,,,,00037,001,2026-01-16_21h31.12.620,MST_task,2024.2.0,60.11436156797052,2026-01-16 21h31.24.554374 +0530,
,Scenes\037a.jpg,92,0,93,,,,,,,None,j,0.5383223999815527,None,,,,,,93,0,92,844.1892597999831,,,,,,,,,,,,,,,,,,,,,,,,,,,,,,844.1746657999756,844.1892597999831,844.672980000003,,,,,,,,,,,,,,844.6898586000025,,,,,,,,,,,,,844.6835818999971,844.6898586000025,844.6898586000025,844.6898586000025,847.6732369999809,None,847.6732802999904,847.6893039999995,847.6893039999995,848.2397222,j,0.5383223999815527,None,847.6893039999995,847.6893039999995,847.6893039999995,,,,,,,,,,,,00037,001,2026-01-16_21h31.12.620,MST_task,2024.2.0,60.11436156797052,2026-01-16 21h31.24.554374 +0530,
,Scenes\035a.jpg,93,0,94,,,,,,,None,f,0.7438815000059549,None,,,,,,94,0,93,848.2559639999818,,,,,,,,,,,,,,,,,,,,,,,,,,,,,,848.2398104000022,848.2559639999818,848.7396758999967,,,,,,,,,,,,,,848.7584715999837,,,,,,,,,,,,,848.7562612999754,848.7584715999837,848.7584715999837,848.7584715999837,851.7562868999958,None,851.7563263999764,851.7727121999778,851.7727121999778,852.5231482999807,f,0.7438815000059549,None,,,,,,,,,,,,,,,00037,001,2026-01-16_21h31.12.620,MST_task,2024.2.0,60.11436156797052,2026-01-16 21h31.24.554374 +0530,
,Scenes\015a.jpg,94,0,95,,,,,,,j,None,,,1.2720658000034746,0.2313941999746021,,,,95,0,94,852.5392422000004,,,,,,,,,,,,,,,,,,,,,,,,,,,,,,852.5232384999981,852.5392422000004,853.0229554999969,,,,,,,,,,,,,,853.0437979999988,,,,,,,,,,,,,853.0414100999769,853.0437979999988,853.0437979999988,853.0437979999988,856.0394737999886,j,856.0395229999849,,,856.0395352999913,None,,,,,,1.2720658000034746,0.2313941999746021,,,,,,,,,,00037,001,2026-01-16_21h31.12.620,MST_task,2024.2.0,60.11436156797052,2026-01-16 21h31.24.554374 +0530,
,Scenes\077a.jpg,95,0,96,,,,,,,None,f,0.7267839999985881,None,,,,,,96,0,95,856.0561357999977,,,,,,,,,,,,,,,,,,,,,,,,,,,,,,856.0396477000031,856.0561357999977,856.5395521000028,,,,,,,,,,,,,,856.5574969000008,,,,,,,,,,,,,856.5549298999831,856.5574969000008,856.5574969000008,856.5574969000008,859.556211099989,None,859.5562484999828,859.5726944999769,859.5726944999769,860.3065762999759,f,0.7267839999985881,None,,,,,,,,,,,,,,,00037,001,2026-01-16_21h31.12.620,MST_task,2024.2.0,60.11436156797052,2026-01-16 21h31.24.554374 +0530,
,Scenes\185a.jpg,96,0,97,,,,,,,j,None,,,1.8765329000016209,0.17633280000882223,,,,97,0,96,860.3226350999903,,,,,,,,,,,,,,,,,,,,,,,,,,,,,,860.3066621999897,860.3226350999903,860.8063404999848,,,,,,,,,,,,,,860.8232063000032,,,,,,,,,,,,,860.8193825999915,860.8232063000032,860.8232063000032,860.8232063000032,863.8065939999942,j,863.8066381999815,,,863.8066493999795,None,,,863.8230625999859,863.8230625999859,863.8230625999859,1.8765329000016209,0.17633280000882223,,,,,,,,,,00037,001,2026-01-16_21h31.12.620,MST_task,2024.2.0,60.11436156797052,2026-01-16 21h31.24.554374 +0530,
,Scenes\146a.jpg,97,0,98,,,,,,,j,None,,,1.7270844999875408,0.17601140000624582,,,,98,0,97,863.8230625999859,,,,,,,,,,,,,,,,,,,,,,,,,,,,,,863.8067153999873,863.8230625999859,864.3063220999902,,,,,,,,,,,,,,864.3249548999884,,,,,,,,,,,,,864.3225567999762,864.3249548999884,864.3249548999884,864.3249548999884,867.3229351999762,j,867.3229791999911,,,867.3229954999988,None,,,,,,1.7270844999875408,0.17601140000624582,,,,,,,,,,00037,001,2026-01-16_21h31.12.620,MST_task,2024.2.0,60.11436156797052,2026-01-16 21h31.24.554374 +0530,
,Objects\096a.jpg,98,0,99,,,,,,,f,None,,,1.7723631000262685,0.1831559999845922,,,,99,0,98,867.3392708000029,,,,,,,,,,,,,,,,,,,,,,,,,,,,,,867.3230987999996,867.3392708000029,867.8228880999959,,,,,,,,,,,,,,867.8396892999881,,,,,,,,,,,,,867.834426299989,867.8396892999881,867.8396892999881,867.8396892999881,870.8233843999915,f,870.8254125999811,,,870.8254298999964,None,,,870.8391495999822,870.8391495999822,870.8391495999822,1.7723631000262685,0.1831559999845922,,,,,,,,,,00037,001,2026-01-16_21h31.12.620,MST_task,2024.2.0,60.11436156797052,2026-01-16 21h31.24.554374 +0530,
,Objects\093a.jpg,99,0,100,,,,,,,j,None,,,1.2085680999734905,0.19192030001431704,,,,100,0,99,870.8391495999822,,,,,,,,,,,,,,,,,,,,,,,,,,,,,,870.8254986999964,870.8391495999822,871.3231184000033,,,,,,,,,,,,,,871.3395250999893,,,,,,,,,,,,,871.3330392999924,871.3395250999893,871.3395250999893,871.3395250999893,874.3236542999803,j,874.3237070999749,,,874.3237182000012,None,,,874.3393486999848,874.3393486999848,874.3393486999848,1.2085680999734905,0.19192030001431704,,,,,,,,,,00037,001,2026-01-16_21h31.12.620,MST_task,2024.2.0,60.11436156797052,2026-01-16 21h31.24.554374 +0530,
,Objects\023a.jpg,100,0,101,,,,,,,None,f,0.1566375000111293,None,,,,,,101,0,100,874.3393486999848,,,,,,,,,,,,,,,,,,,,,,,,,,,,,,874.3237933999917,874.3393486999848,874.822957700002,,,,,,,,,,,,,,874.839401699981,,,,,,,,,,,,,874.8320635999844,874.839401699981,874.839401699981,874.839401699981,877.8233040999912,None,877.8233439000032,877.839312600001,877.839312600001,878.0064318999939,f,0.1566375000111293,None,877.839312600001,877.839312600001,877.839312600001,,,,,,,,,,,,00037,001,2026-01-16_21h31.12.620,MST_task,2024.2.0,60.11436156797052,2026-01-16 21h31.24.554374 +0530,
,Objects\028a.jpg,101,0,102,,,,,,,j,None,,,1.0167948000016622,0.19202260000747629,,,,102,0,101,878.0227115000016,,,,,,,,,,,,,,,,,,,,,,,,,,,,,,878.0065153999894,878.0227115000016,878.5062959999777,,,,,,,,,,,,,,878.5229965999897,,,,,,,,,,,,,878.5154100999935,878.5229965999897,878.5229965999897,878.5229965999897,881.5066284999775,j,881.5066721999901,,,881.5066834999889,None,,,881.5226408999879,881.5226408999879,881.5226408999879,1.0167948000016622,0.19202260000747629,,,,,,,,,,00037,001,2026-01-16_21h31.12.620,MST_task,2024.2.0,60.11436156797052,2026-01-16 21h31.24.554374 +0530,
,Objects\081a.jpg,102,0,103,,,,,,,None,j,1.684655399993062,None,,,,,,103,0,102,881.5226408999879,,,,,,,,,,,,,,,,,,,,,,,,,,,,,,881.5067794999923,881.5226408999879,882.006327799987,,,,,,,,,,,,,,882.0229335999757,,,,,,,,,,,,,882.0152352000005,882.0229335999757,882.0229335999757,882.0229335999757,885.0065431999974,None,885.0065812999965,885.0227213999897,885.0227213999897,886.7231133999885,j,1.684655399993062,None,885.0227213999897,885.0227213999897,885.0227213999897,,,,,,,,,,,,00037,001,2026-01-16_21h31.12.620,MST_task,2024.2.0,60.11436156797052,2026-01-16 21h31.24.554374 +0530,
,Objects\110a.jpg,103,0,104,,,,,,,f,None,,,2.4754658000019845,0.2400031000142917,,,,104,0,103,886.7394097999786,,,,,,,,,,,,,,,,,,,,,,,,,,,,,,886.7231994000031,886.7394097999786,887.2231201999821,,,,,,,,,,,,,,887.2397192999779,,,,,,,,,,,,,887.2341484999924,887.2397192999779,887.2397192999779,887.2397192999779,890.2234099999769,f,890.2234585999977,,,890.2234696999949,None,,,890.2394238999987,890.2394238999987,890.2394238999987,2.4754658000019845,0.2400031000142917,,,,,,,,,,00037,001,2026-01-16_21h31.12.620,MST_task,2024.2.0,60.11436156797052,2026-01-16 21h31.24.554374 +0530,
,Objects\086a.jpg,104,0,105,,,,,,,None,f,0.8958242000080645,None,,,,,,105,0,104,890.2394238999987,,,,,,,,,,,,,,,,,,,,,,,,,,,,,,890.2235373999865,890.2394238999987,890.7230848000036,,,,,,,,,,,,,,890.7396729000029,,,,,,,,,,,,,890.7330124999862,890.7396729000029,890.7396729000029,890.7396729000029,893.7233652999857,None,893.7234026999795,893.7393698999949,893.7393698999949,894.6397622999793,f,0.8958242000080645,None,893.7393698999949,893.7393698999949,893.7393698999949,,,,,,,,,,,,00037,001,2026-01-16_21h31.12.620,MST_task,2024.2.0,60.11436156797052,2026-01-16 21h31.24.554374 +0530,
,Scenes\091a.jpg,105,0,106,,,,,,,j,None,,,1.0945536000072025,0.2000183000054676,,,,106,0,105,894.656133099983,,,,,,,,,,,,,,,,,,,,,,,,,,,,,,894.6398807999794,894.656133099983,895.1396051999764,,,,,,,,,,,,,,895.1569612000021,,,,,,,,,,,,,895.1543065999867,895.1569612000021,895.1569612000021,895.1569612000021,898.140602999978,j,898.142228599987,,,898.1422471999831,None,,,,,,1.0945536000072025,0.2000183000054676,,,,,,,,,,00037,001,2026-01-16_21h31.12.620,MST_task,2024.2.0,60.11436156797052,2026-01-16 21h31.24.554374 +0530,
,Scenes\040a.jpg,106,0,107,,,,,,,None,f,1.8423963999957778,None,,,,,,107,0,106,898.156144299981,,,,,,,,,,,,,,,,,,,,,,,,,,,,,,898.1423539999814,898.156144299981,898.6396971999784,,,,,,,,,,,,,,898.6596434999956,,,,,,,,,,,,,898.6569935999869,898.6596434999956,898.6596434999956,898.6596434999956,901.6565723999811,None,901.6566143999808,901.6727522999863,901.6727522999863,903.523515799985,f,1.8423963999957778,None,,,,,,,,,,,,,,,00037,001,2026-01-16_21h31.12.620,MST_task,2024.2.0,60.11436156797052,2026-01-16 21h31.24.554374 +0530,
,Scenes\187a.jpg,107,0,108,,,,,,,j,None,,,0.8838697000173852,0.16715319998911582,,,,108,0,107,903.5393992000027,,,,,,,,,,,,,,,,,,,,,,,,,,,,,,903.5236356999958,903.5393992000027,904.0229882999847,,,,,,,,,,,,,,904.0401310999878,,,,,,,,,,,,,904.0376910999767,904.0401310999878,904.0401310999878,904.0401310999878,907.0232655,j,907.0233142999932,,,907.0233254999912,None,,,907.0394683999766,907.0394683999766,907.0394683999766,0.8838697000173852,0.16715319998911582,,,,,,,,,,00037,001,2026-01-16_21h31.12.620,MST_task,2024.2.0,60.11436156797052,2026-01-16 21h31.24.554374 +0530,
,Scenes\131a.jpg,108,0,109,,,,,,,j,None,,,1.431120799999917,0.16787899998598732,,,,109,0,108,907.0394683999766,,,,,,,,,,,,,,,,,,,,,,,,,,,,,,907.023391499999,907.0394683999766,907.5230498999881,,,,,,,,,,,,,,907.5409433000023,,,,,,,,,,,,,907.53841009998,907.5409433000023,907.5409433000023,907.5409433000023,910.5397975999804,j,910.5398450999928,,,910.5398566999938,None,,,,,,1.431120799999917,0.16787899998598732,,,,,,,,,,00037,001,2026-01-16_21h31.12.620,MST_task,2024.2.0,60.11436156797052,2026-01-16 21h31.24.554374 +0530,
,Scenes\062a.jpg,109,0,110,,,,,,,j,None,,,2.1187196999962907,0.20033809999586083,,,,110,0,109,910.5561447999789,,,,,,,,,,,,,,,,,,,,,,,,,,,,,,910.5399265000015,910.5561447999789,911.0398737999785,,,,,,,,,,,,,,911.0604463999916,,,,,,,,,,,,,911.0580688999908,911.0604463999916,911.0604463999916,911.0604463999916,914.0563550999796,j,914.0563979999861,,,914.0564093999856,None,,,,,,2.1187196999962907,0.20033809999586083,,,,,,,,,,00037,001,2026-01-16_21h31.12.620,MST_task,2024.2.0,60.11436156797052,2026-01-16 21h31.24.554374 +0530,
,Scenes\003a.jpg,110,0,111,,,,,,,f,None,,,1.4270485000160988,0.2080089999944903,,,,111,0,110,914.072820899979,,,,,,,,,,,,,,,,,,,,,,,,,,,,,,914.0565098999941,914.072820899979,914.5563554999826,,,,,,,,,,,,,,914.5762019999966,,,,,,,,,,,,,914.5737823999953,914.5762019999966,914.5762019999966,914.5762019999966,917.5729836999963,f,917.5730316999834,,,917.573044299992,None,,,,,,1.4270485000160988,0.2080089999944903,,,,,,,,,,00037,001,2026-01-16_21h31.12.620,MST_task,2024.2.0,60.11436156797052,2026-01-16 21h31.24.554374 +0530,
,Scenes\165a.jpg,111,0,112,,,,,,,j,None,,,2.6315683999855537,0.12006260000634938,,,,112,0,111,917.5893990999903,,,,,,,,,,,,,,,,,,,,,,,,,,,,,,917.5731548999902,917.5893990999903,918.0730586999853,,,,,,,,,,,,,,918.0915758999763,,,,,,,,,,,,,918.089101199992,918.0915758999763,918.0915758999763,918.0915758999763,921.0895944999938,j,921.0896360999905,,,921.089647899993,None,,,,,,2.6315683999855537,0.12006260000634938,,,,,,,,,,00037,001,2026-01-16_21h31.12.620,MST_task,2024.2.0,60.11436156797052,2026-01-16 21h31.24.554374 +0530,
,Objects\109a.jpg,112,0,113,,,,,,,j,None,,,2.900475499976892,None,,,,113,0,112,921.1061483999947,,,,,,,,,,,,,,,,,,,,,,,,,,,,,,921.0897158999869,921.1061483999947,921.5896442999947,,,,,,,,,,,,,,921.6066220999928,,,,,,,,,,,,,921.6018628999882,921.6066220999928,921.6066220999928,921.6066220999928,924.5898935000005,j,924.5920851999836,,,924.5921031999751,None,,,924.6061740999867,924.6061740999867,924.6061740999867,2.900475499976892,None,,,,,,,,,,00037,001,2026-01-16_21h31.12.620,MST_task,2024.2.0,60.11436156797052,2026-01-16 21h31.24.554374 +0530,
,Objects\006a.jpg,113,0,114,,,,,,,None,j,0.6649544999818318,None,,,,,,114,0,113,924.6061740999867,,,,,,,,,,,,,,,,,,,,,,,,,,,,,,924.5922052999958,924.6061740999867,925.0898489999818,,,,,,,,,,,,,,925.1063846999896,,,,,,,,,,,,,925.0989851999911,925.1063846999896,925.1063846999896,925.1063846999896,928.0899359999748,None,928.0899733999977,928.1061699999846,928.1061699999846,928.7732958999986,j,0.6649544999818318,None,928.1061699999846,928.1061699999846,928.1061699999846,,,,,,,,,,,,00037,001,2026-01-16_21h31.12.620,MST_task,2024.2.0,60.11436156797052,2026-01-16 21h31.24.554374 +0530,
,Objects\092a.jpg,114,0,115,,,,,,,f,None,,,1.402399799990235,0.1199829000106547,,,,115,0,114,928.7893915000022,,,,,,,,,,,,,,,,,,,,,,,,,,,,,,928.7733822999871,928.7893915000022,929.2731719999865,,,,,,,,,,,,,,929.289604199992,,,,,,,,,,,,,929.2844236999808,929.289604199992,929.289604199992,929.289604199992,932.2732995999977,f,932.2733428999782,,,932.2733539999754,None,,,932.2894987000036,932.2894987000036,932.2894987000036,1.402399799990235,0.1199829000106547,,,,,,,,,,00037,001,2026-01-16_21h31.12.620,MST_task,2024.2.0,60.11436156797052,2026-01-16 21h31.24.554374 +0530,
,Objects\075a.jpg,115,0,116,,,,,,,f,None,,,1.1580143000173848,0.2323632999905385,,,,116,0,115,932.2894987000036,,,,,,,,,,,,,,,,,,,,,,,,,,,,,,932.2734480999934,932.2894987000036,932.773157699994,,,,,,,,,,,,,,932.7896756999835,,,,,,,,,,,,,932.7821279999916,932.7896756999835,932.7896756999835,932.7896756999835,935.7735670999973,f,935.7736138999753,,,935.7736251000024,None,,,935.7892114999995,935.7892114999995,935.7892114999995,1.1580143000173848,0.2323632999905385,,,,,,,,,,00037,001,2026-01-16_21h31.12.620,MST_task,2024.2.0,60.11436156797052,2026-01-16 21h31.24.554374 +0530,
,Objects\069a.jpg,116,0,117,,,,,,,j,None,,,1.2258623999950942,0.16801219998160377,,,,117,0,116,935.7892114999995,,,,,,,,,,,,,,,,,,,,,,,,,,,,,,935.773729699984,935.7892114999995,936.2730517000018,,,,,,,,,,,,,,936.2898285999836,,,,,,,,,,,,,936.2821854999929,936.2898285999836,936.2898285999836,936.2898285999836,939.2734831999987,j,939.2735257000022,,,939.2735366999987,None,,,939.2894220000017,939.2894220000017,939.2894220000017,1.2258623999950942,0.16801219998160377,,,,,,,,,,00037,001,2026-01-16_21h31.12.620,MST_task,2024.2.0,60.11436156797052,2026-01-16 21h31.24.554374 +0530,
,Objects\113a.jpg,117,0,118,,,,,,,f,None,,,1.6379920000035781,0.1840762000065297,,,,118,0,117,939.2894220000017,,,,,,,,,,,,,,,,,,,,,,,,,,,,,,939.273631899996,939.2894220000017,939.7730107999814,,,,,,,,,,,,,,939.7897353000008,,,,,,,,,,,,,939.7827376999776,939.7897353000008,939.7897353000008,939.7897353000008,942.7734424999799,f,942.773486399994,,,942.7734971999889,None,,,942.7894208999933,942.7894208999933,942.7894208999933,1.6379920000035781,0.1840762000065297,,,,,,,,,,00037,001,2026-01-16_21h31.12.620,MST_task,2024.2.0,60.11436156797052,2026-01-16 21h31.24.554374 +0530,
,Objects\084a.jpg,118,0,119,,,,,,,None,j,2.505837699980475,None,,,,,,119,0,118,942.7894208999933,,,,,,,,,,,,,,,,,,,,,,,,,,,,,,942.7735653999844,942.7894208999933,943.2730466999928,,,,,,,,,,,,,,943.2896965999971,,,,,,,,,,,,,943.2821966999909,943.2896965999971,943.2896965999971,943.2896965999971,946.273291999998,None,946.2733297999948,946.2894795000029,946.2894795000029,948.8064874999982,j,2.505837699980475,None,946.2894795000029,946.2894795000029,946.2894795000029,,,,,,,,,,,,00037,001,2026-01-16_21h31.12.620,MST_task,2024.2.0,60.11436156797052,2026-01-16 21h31.24.554374 +0530,
,Scenes\156a.jpg,119,0,120,,,,,,,j,None,,,1.3163501000090037,0.18469600001117215,,,,120,0,119,948.8226378999825,,,,,,,,,,,,,,,,,,,,,,,,,,,,,,948.8066067999753,948.8226378999825,949.3065157999808,,,,,,,,,,,,,,949.3268380999798,,,,,,,,,,,,,949.3243127999885,949.3268380999798,949.3268380999798,949.3268380999798,952.322929099988,j,952.3245285000012,,,952.3245483999781,None,,,,,,1.3163501000090037,0.18469600001117215,,,,,,,,,,00037,001,2026-01-16_21h31.12.620,MST_task,2024.2.0,60.11436156797052,2026-01-16 21h31.24.554374 +0530,
,Scenes\172a.jpg,120,0,121,,,,,,,None,j,0.556118400010746,None,,,,,,121,0,120,952.3393307999941,,,,,,,,,,,,,,,,,,,,,,,,,,,,,,952.3246598999831,952.3393307999941,952.8229253999889,,,,,,,,,,,,,,952.8400434999785,,,,,,,,,,,,,952.8369160000002,952.8400434999785,952.8400434999785,952.8400434999785,955.8233945999818,None,955.8234332999855,955.8392463999917,955.8392463999917,956.4065316999913,j,0.556118400010746,None,955.8392463999917,955.8392463999917,955.8392463999917,,,,,,,,,,,,00037,001,2026-01-16_21h31.12.620,MST_task,2024.2.0,60.11436156797052,2026-01-16 21h31.24.554374 +0530,
,Scenes\142a.jpg,121,0,122,,,,,,,j,None,,,1.2548330000136048,0.18501149999792688,,,,122,0,121,956.4226481999794,,,,,,,,,,,,,,,,,,,,,,,,,,,,,,956.4066206999996,956.4226481999794,956.9063107999973,,,,,,,,,,,,,,956.9245782999787,,,,,,,,,,,,,956.9223349999811,956.9245782999787,956.9245782999787,956.9245782999787,959.9230175999983,j,959.9230612999818,,,959.9230731999851,None,,,,,,1.2548330000136048,0.18501149999792688,,,,,,,,,,00037,001,2026-01-16_21h31.12.620,MST_task,2024.2.0,60.11436156797052,2026-01-16 21h31.24.554374 +0530,
,Scenes\019a.jpg,122,0,123,,,,,,,f,None,,,1.1782418999937363,1.7366264000011142,,,,123,0,122,959.939309999987,,,,,,,,,,,,,,,,,,,,,,,,,,,,,,959.9231735999929,959.939309999987,960.4229605,,,,,,,,,,,,,,960.4409979999764,,,,,,,,,,,,,960.4385751999798,960.4409979999764,960.4409979999764,960.4409979999764,963.4395763999783,f,963.4396193999855,,,963.4396310999873,None,,,,,,1.1782418999937363,1.7366264000011142,,,,,,,,,,00037,001,2026-01-16_21h31.12.620,MST_task,2024.2.0,60.11436156797052,2026-01-16 21h31.24.554374 +0530,
,Scenes\111a.jpg,123,0,124,,,,,,,None,j,0.04834810001193546,None,,,,,,124,0,123,963.4559979999904,,,,,,,,,,,,,,,,,,,,,,,,,,,,,,963.4396971999959,963.4559979999904,963.9396091999952,,,,,,,,,,,,,,963.956597499986,,,,,,,,,,,,,963.9530046999862,963.956597499986,963.956597499986,963.956597499986,966.9398631999793,None,966.9399032999936,966.9560647000035,966.9560647000035,967.0065706000023,j,0.04834810001193546,None,966.9560647000035,966.9560647000035,966.9560647000035,,,,,,,,,,,,00037,001,2026-01-16_21h31.12.620,MST_task,2024.2.0,60.11436156797052,2026-01-16 21h31.24.554374 +0530,
,Scenes\058a.jpg,124,0,125,,,,,,,None,f,0.9199683000042569,None,,,,,,125,0,124,967.0226750999864,,,,,,,,,,,,,,,,,,,,,,,,,,,,,,967.0066501999972,967.0226750999864,967.5064310999878,,,,,,,,,,,,,,967.5241207999934,,,,,,,,,,,,,967.5217354999913,967.5241207999934,967.5241207999934,967.5241207999934,970.5229585999914,None,970.5229984000034,970.5393255999952,970.5393255999952,971.4734457999875,f,0.9199683000042569,None,,,,,,,,,,,,,,,00037,001,2026-01-16_21h31.12.620,MST_task,2024.2.0,60.11436156797052,2026-01-16 21h31.24.554374 +0530,
,Scenes\109a.jpg,125,0,126,,,,,,,j,None,,,2.4624334999825805,0.07964070001617074,,,,126,0,125,971.489302299975,,,,,,,,,,,,,,,,,,,,,,,,,,,,,,971.473584899999,971.489302299975,971.9729892000032,,,,,,,,,,,,,,971.9901478999818,,,,,,,,,,,,,971.9877825999865,971.9901478999818,971.9901478999818,971.9901478999818,974.9733253000013,j,974.9733693999879,,,974.9733805999858,None,,,974.9893314999936,974.9893314999936,974.9893314999936,2.4624334999825805,0.07964070001617074,,,,,,,,,,00037,001,2026-01-16_21h31.12.620,MST_task,2024.2.0,60.11436156797052,2026-01-16 21h31.24.554374 +0530,
,Objects\073a.jpg,126,0,127,,,,,,,f,None,,,1.4899543000210542,0.19199779999325983,,,,127,0,126,974.9893314999936,,,,,,,,,,,,,,,,,,,,,,,,,,,,,,974.973447299999,974.9893314999936,975.4729966000014,,,,,,,,,,,,,,975.4898419999809,,,,,,,,,,,,,975.485824000003,975.4898419999809,975.4898419999809,975.4898419999809,978.4733755999769,f,978.4753925999976,,,978.4754113999952,None,,,978.4892330000002,978.4892330000002,978.4892330000002,1.4899543000210542,0.19199779999325983,,,,,,,,,,00037,001,2026-01-16_21h31.12.620,MST_task,2024.2.0,60.11436156797052,2026-01-16 21h31.24.554374 +0530,
,Objects\167a.jpg,127,0,128,,,,,,,None,f,0.21411739999894053,None,,,,,,128,0,127,978.4892330000002,,,,,,,,,,,,,,,,,,,,,,,,,,,,,,978.4755155000021,978.4892330000002,978.9730631999846,,,,,,,,,,,,,,978.9895770000003,,,,,,,,,,,,,978.9821266999934,978.9895770000003,978.9895770000003,978.9895770000003,981.9736977999855,None,981.9737446999934,981.9893929999962,981.9893929999962,982.2065161999781,f,0.21411739999894053,None,981.9893929999962,981.9893929999962,981.9893929999962,,,,,,,,,,,,00037,001,2026-01-16_21h31.12.620,MST_task,2024.2.0,60.11436156797052,2026-01-16 21h31.24.554374 +0530,
,Objects\114a.jpg,128,0,129,,,,,,,f,None,,,2.2009479999833275,0.2560781000065617,,,,129,0,128,982.222674699995,,,,,,,,,,,,,,,,,,,,,,,,,,,,,,982.206604499981,982.222674699995,982.7063334999839,,,,,,,,,,,,,,982.7229688999942,,,,,,,,,,,,,982.7157049999805,982.7229688999942,982.7229688999942,982.7229688999942,985.7068182999792,f,985.7068666999985,,,985.7068784000003,None,,,985.722756299976,985.722756299976,985.722756299976,2.2009479999833275,0.2560781000065617,,,,,,,,,,00037,001,2026-01-16_21h31.12.620,MST_task,2024.2.0,60.11436156797052,2026-01-16 21h31.24.554374 +0530,
,Objects\046a.jpg,129,0,130,,,,,,,f,None,,,2.613205100002233,0.23199770000064746,,,,130,0,129,985.722756299976,,,,,,,,,,,,,,,,,,,,,,,,,,,,,,985.7069516999763,985.722756299976,986.206330999994,,,,,,,,,,,,,,986.2229636999837,,,,,,,,,,,,,986.2155680999858,986.2229636999837,986.2229636999837,986.2229636999837,989.2066135999921,f,989.2066576999787,,,989.2066685000027,None,,,989.2226679000014,989.2226679000014,989.2226679000014,2.613205100002233,0.23199770000064746,,,,,,,,,,00037,001,2026-01-16_21h31.12.620,MST_task,2024.2.0,60.11436156797052,2026-01-16 21h31.24.554374 +0530,
,Objects\058a.jpg,130,0,131,,,,,,,f,None,,,2.04919710001559,0.2887578999798279,,,,131,0,130,989.2226679000014,,,,,,,,,,,,,,,,,,,,,,,,,,,,,,989.2067330999998,989.2226679000014,989.70629989999,,,,,,,,,,,,,,989.7229057999793,,,,,,,,,,,,,989.7155728999933,989.7229057999793,989.7229057999793,989.7229057999793,992.7066226000024,f,992.7066669999913,,,992.706677899987,None,,,992.7226793000009,992.7226793000009,992.7226793000009,2.04919710001559,0.2887578999798279,,,,,,,,,,00037,001,2026-01-16_21h31.12.620,MST_task,2024.2.0,60.11436156797052,2026-01-16 21h31.24.554374 +0530,
,Objects\127a.jpg,131,0,132,,,,,,,f,None,,,1.020948600023985,0.2559746999759227,,,,132,0,131,992.7226793000009,,,,,,,,,,,,,,,,,,,,,,,,,,,,,,992.7067447000009,992.7226793000009,993.2062670000014,,,,,,,,,,,,,,993.2228975999751,,,,,,,,,,,,,993.2153216000006,993.2228975999751,993.2228975999751,993.2228975999751,996.2065771999769,f,996.2066238999832,,,996.2066345999774,None,,,996.2227344999847,996.2227344999847,996.2227344999847,1.020948600023985,0.2559746999759227,,,,,,,,,,00037,001,2026-01-16_21h31.12.620,MST_task,2024.2.0,60.11436156797052,2026-01-16 21h31.24.554374 +0530,
,Objects\169a.jpg,132,0,133,,,,,,,None,j,0.8644496999913827,None,,,,,,133,0,132,996.2227344999847,,,,,,,,,,,,,,,,,,,,,,,,,,,,,,996.2067026000004,996.2227344999847,996.7063260999857,,,,,,,,,,,,,,996.7229847999988,,,,,,,,,,,,,996.7154343999864,996.7229847999988,996.7229847999988,996.7229847999988,999.7065967999806,None,999.706637700001,999.7227802999842,999.7227802999842,1000.5897392999905,j,0.8644496999913827,None,999.7227802999842,999.7227802999842,999.7227802999842,,,,,,,,,,,,00037,001,2026-01-16_21h31.12.620,MST_task,2024.2.0,60.11436156797052,2026-01-16 21h31.24.554374 +0530,
,Scenes\168a.jpg,133,0,134,,,,,,,None,j,1.993255000008503,None,,,,,,134,0,133,1000.6060790999909,,,,,,,,,,,,,,,,,,,,,,,,,,,,,,1000.5898261999828,1000.6060790999909,1001.089492500003,,,,,,,,,,,,,,1001.1092956999782,,,,,,,,,,,,,1001.1069039999857,1001.1092956999782,1001.1092956999782,1001.1092956999782,1004.1063559999748,None,1004.1079507999821,1004.1227085999853,1004.1227085999853,1006.1233483999968,j,1.993255000008503,None,,,,,,,,,,,,,,,00037,001,2026-01-16_21h31.12.620,MST_task,2024.2.0,60.11436156797052,2026-01-16 21h31.24.554374 +0530,
,Scenes\054a.jpg,134,0,135,,,,,,,j,None,,,2.2038315000245348,0.2720205999794416,,,,135,0,134,1006.1392799000023,,,,,,,,,,,,,,,,,,,,,,,,,,,,,,1006.1234494999808,1006.1392799000023,1006.6230719999876,,,,,,,,,,,,,,1006.6474266999867,,,,,,,,,,,,,1006.6447819999885,1006.6474266999867,1006.6474266999867,1006.6474266999867,1009.6395840999903,j,1009.6396279999753,,,1009.6396403999825,None,,,,,,2.2038315000245348,0.2720205999794416,,,,,,,,,,00037,001,2026-01-16_21h31.12.620,MST_task,2024.2.0,60.11436156797052,2026-01-16 21h31.24.554374 +0530,
,Scenes\107a.jpg,135,0,136,,,,,,,j,None,,,1.5500279999978375,0.24790440002107061,,,,136,0,135,1009.6561683999898,,,,,,,,,,,,,,,,,,,,,,,,,,,,,,1009.6397398999834,1009.6561683999898,1010.1396407999855,,,,,,,,,,,,,,1010.1576212999935,,,,,,,,,,,,,1010.1549164000025,1010.1576212999935,1010.1576212999935,1010.1576212999935,1013.1398298999993,j,1013.1398734999821,,,1013.1398849999823,None,,,,,,1.5500279999978375,0.24790440002107061,,,,,,,,,,00037,001,2026-01-16_21h31.12.620,MST_task,2024.2.0,60.11436156797052,2026-01-16 21h31.24.554374 +0530,
,Scenes\102a.jpg,136,0,137,,,,,,,None,j,0.35508839998510666,None,,,,,,137,0,136,1013.156259499985,,,,,,,,,,,,,,,,,,,,,,,,,,,,,,1013.1399860999954,1013.156259499985,1013.6397218999919,,,,,,,,,,,,,,1013.6599663999805,,,,,,,,,,,,,1013.6576639999985,1013.6599663999805,1013.6599663999805,1013.6599663999805,1016.6564059999946,None,1016.6564450000005,1016.6728590999846,1016.6728590999846,1017.0399042999779,j,0.35508839998510666,None,,,,,,,,,,,,,,,00037,001,2026-01-16_21h31.12.620,MST_task,2024.2.0,60.11436156797052,2026-01-16 21h31.24.554374 +0530,
,Scenes\049a.jpg,137,0,138,,,,,,,j,None,,,2.8546871000144165,None,,,,138,0,137,1017.0561003999901,,,,,,,,,,,,,,,,,,,,,,,,,,,,,,1017.0400257000001,1017.0561003999901,1017.5398743999831,,,,,,,,,,,,,,1017.5567053999985,,,,,,,,,,,,,1017.5540566999989,1017.5567053999985,1017.5567053999985,1017.5567053999985,1020.5399130999867,j,1020.5399546999834,,,1020.5399660999828,None,,,1020.5561899000022,1020.5561899000022,1020.5561899000022,2.8546871000144165,None,,,,,,,,,,00037,001,2026-01-16_21h31.12.620,MST_task,2024.2.0,60.11436156797052,2026-01-16 21h31.24.554374 +0530,
,Scenes\013a.jpg,138,0,139,,,,,,,j,None,,,1.0565724000043701,0.2643794000032358,,,,139,0,138,1020.5561899000022,,,,,,,,,,,,,,,,,,,,,,,,,,,,,,1020.5400609999779,1020.5561899000022,1021.0396956999903,,,,,,,,,,,,,,1021.0591192999855,,,,,,,,,,,,,1021.0566347999847,1021.0591192999855,1021.0591192999855,1021.0591192999855,1024.0564269000024,j,1024.0564765000017,,,1024.056488399976,None,,,,,,1.0565724000043701,0.2643794000032358,,,,,,,,,,00037,001,2026-01-16_21h31.12.620,MST_task,2024.2.0,60.11436156797052,2026-01-16 21h31.24.554374 +0530,
,Scenes\017a.jpg,139,0,140,,,,,,,f,None,,,1.4361244000028819,0.2490739999921061,,,,140,0,139,1024.0727630999754,,,,,,,,,,,,,,,,,,,,,,,,,,,,,,1024.0565879999776,1024.0727630999754,1024.5564900999889,,,,,,,,,,,,,,1024.575078599999,,,,,,,,,,,,,1024.572559799999,1024.575078599999,1024.575078599999,1024.575078599999,1027.5730050999846,f,1027.5730469999835,,,1027.5730589999876,None,,,,,,1.4361244000028819,0.2490739999921061,,,,,,,,,,00037,001,2026-01-16_21h31.12.620,MST_task,2024.2.0,60.11436156797052,2026-01-16 21h31.24.554374 +0530,
,Objects\188a.jpg,140,0,141,,,,,,,f,None,,,2.608954099996481,0.1839994000038132,,,,141,0,140,1027.5894904999877,,,,,,,,,,,,,,,,,,,,,,,,,,,,,,1027.5731602000014,1027.5894904999877,1028.0731091999914,,,,,,,,,,,,,,1028.0902454000025,,,,,,,,,,,,,1028.0853896999906,1028.0902454000025,1028.0902454000025,1028.0902454000025,1031.073397,f,1031.0754066999943,,,1031.0754234999768,None,,,1031.0894204999786,1031.0894204999786,1031.0894204999786,2.608954099996481,0.1839994000038132,,,,,,,,,,00037,001,2026-01-16_21h31.12.620,MST_task,2024.2.0,60.11436156797052,2026-01-16 21h31.24.554374 +0530,
,Objects\067a.jpg,141,0,142,,,,,,,f,None,,,2.0454580999794416,0.20879630002309568,,,,142,0,141,1031.0894204999786,,,,,,,,,,,,,,,,,,,,,,,,,,,,,,1031.0755242999876,1031.0894204999786,1031.573164100002,,,,,,,,,,,,,,1031.589698900003,,,,,,,,,,,,,1031.5825107999844,1031.589698900003,1031.589698900003,1031.589698900003,1034.5733974000032,f,1034.5734381999937,,,1034.5734486999863,None,,,1034.5893986999872,1034.5893986999872,1034.5893986999872,2.0454580999794416,0.20879630002309568,,,,,,,,,,00037,001,2026-01-16_21h31.12.620,MST_task,2024.2.0,60.11436156797052,2026-01-16 21h31.24.554374 +0530,
,Objects\189a.jpg,142,0,143,,,,,,,j,None,,,2.3935299999720883,0.33662730001378804,,,,143,0,142,1034.5893986999872,,,,,,,,,,,,,,,,,,,,,,,,,,,,,,1034.5735140999896,1034.5893986999872,1035.0731337000034,,,,,,,,,,,,,,1035.089785899996,,,,,,,,,,,,,1035.0826563999872,1035.089785899996,1035.089785899996,1035.089785899996,1038.0733653999923,j,1038.073413199978,,,1038.0734245999774,None,,,1038.0893445999827,1038.0893445999827,1038.0893445999827,2.3935299999720883,0.33662730001378804,,,,,,,,,,00037,001,2026-01-16_21h31.12.620,MST_task,2024.2.0,60.11436156797052,2026-01-16 21h31.24.554374 +0530,
,Objects\168a.jpg,143,0,144,,,,,,,f,None,,,2.4941502999863587,0.23200380001799203,,,,144,0,143,1038.0893445999827,,,,,,,,,,,,,,,,,,,,,,,,,,,,,,1038.073526399996,1038.0893445999827,1038.5731180000002,,,,,,,,,,,,,,1038.5897010999906,,,,,,,,,,,,,1038.5822374999989,1038.5897010999906,1038.5897010999906,1038.5897010999906,1041.5733956999902,f,1041.5734370999853,,,1041.5734478999802,None,,,1041.5895220999955,1041.5895220999955,1041.5895220999955,2.4941502999863587,0.23200380001799203,,,,,,,,,,00037,001,2026-01-16_21h31.12.620,MST_task,2024.2.0,60.11436156797052,2026-01-16 21h31.24.554374 +0530,
,Objects\140a.jpg,144,0,145,,,,,,,None,j,0.41057160001946613,None,,,,,,145,0,144,1041.5895220999955,,,,,,,,,,,,,,,,,,,,,,,,,,,,,,1041.5735455999966,1041.5895220999955,1042.0731111999776,,,,,,,,,,,,,,1042.0894987999927,,,,,,,,,,,,,1042.0821664999821,1042.0894987999927,1042.0894987999927,1042.0894987999927,1045.0733201999974,None,1045.0733583999972,1045.089471299987,1045.089471299987,1045.506580199988,j,0.41057160001946613,None,1045.089471299987,1045.089471299987,1045.089471299987,,,,,,,,,,,,00037,001,2026-01-16_21h31.12.620,MST_task,2024.2.0,60.11436156797052,2026-01-16 21h31.24.554374 +0530,
,Objects\033a.jpg,145,0,146,,,,,,,f,None,,,2.012201199977426,0.23199540001223795,,,,146,0,145,1045.5228468999849,,,,,,,,,,,,,,,,,,,,,,,,,,,,,,1045.5066646999912,1045.5228468999849,1046.006395399978,,,,,,,,,,,,,,1046.0231035999896,,,,,,,,,,,,,1046.015518899978,1046.0231035999896,1046.0231035999896,1046.0231035999896,1049.0067019999842,f,1049.0067457999976,,,1049.0067570999963,None,,,1049.0228649999772,1049.0228649999772,1049.0228649999772,2.012201199977426,0.23199540001223795,,,,,,,,,,00037,001,2026-01-16_21h31.12.620,MST_task,2024.2.0,60.11436156797052,2026-01-16 21h31.24.554374 +0530,
,Objects\008a.jpg,146,0,147,,,,,,,f,None,,,2.8563113999844063,None,,,,147,0,146,1049.0228649999772,,,,,,,,,,,,,,,,,,,,,,,,,,,,,,1049.0068221999973,1049.0228649999772,1049.5063616999832,,,,,,,,,,,,,,1049.5229483000003,,,,,,,,,,,,,1049.5160535000032,1049.5229483000003,1049.5229483000003,1049.5229483000003,1052.5071572999877,f,1052.507199899992,,,1052.507210699987,None,,,1052.5228731999814,1052.5228731999814,1052.5228731999814,2.8563113999844063,None,,,,,,,,,,00037,001,2026-01-16_21h31.12.620,MST_task,2024.2.0,60.11436156797052,2026-01-16 21h31.24.554374 +0530,
,Scenes\170a.jpg,147,0,148,,,,,,,j,None,,,2.631899199972395,0.3108706000202801,,,,148,0,147,1052.5228731999814,,,,,,,,,,,,,,,,,,,,,,,,,,,,,,1052.5073195000004,1052.5228731999814,1053.0064300999802,,,,,,,,,,,,,,1053.0285389999917,,,,,,,,,,,,,1053.0261774999963,1053.0285389999917,1053.0285389999917,1053.0285389999917,1056.022947199992,j,1056.024505199981,,,1056.0245223999955,None,,,,,,2.631899199972395,0.3108706000202801,,,,,,,,,,00037,001,2026-01-16_21h31.12.620,MST_task,2024.2.0,60.11436156797052,2026-01-16 21h31.24.554374 +0530,
,Scenes\154a.jpg,148,0,149,,,,,,,j,None,,,2.591238599998178,0.2879976999829523,,,,149,0,148,1056.0393416000006,,,,,,,,,,,,,,,,,,,,,,,,,,,,,,1056.0245919000008,1056.0393416000006,1056.5231455999892,,,,,,,,,,,,,,1056.539965999982,,,,,,,,,,,,,1056.5363225999754,1056.539965999982,1056.539965999982,1056.539965999982,1059.5234844999795,j,1059.5235280999914,,,1059.5235388999863,None,,,1059.5394154999813,1059.5394154999813,1059.5394154999813,2.591238599998178,0.2879976999829523,,,,,,,,,,00037,001,2026-01-16_21h31.12.620,MST_task,2024.2.0,60.11436156797052,2026-01-16 21h31.24.554374 +0530,
,Scenes\140a.jpg,149,0,150,,,,,,,j,None,,,1.7631995000119787,0.18399809999391437,,,,150,0,149,1059.5394154999813,,,,,,,,,,,,,,,,,,,,,,,,,,,,,,1059.5236375999812,1059.5394154999813,1060.0231566999864,,,,,,,,,,,,,,1060.040000899986,,,,,,,,,,,,,1060.0356849999807,1060.040000899986,1060.040000899986,1060.040000899986,1063.0234526999993,j,1063.0235006999865,,,1063.023512099986,None,,,1063.0393001999764,1063.0393001999764,1063.0393001999764,1.7631995000119787,0.18399809999391437,,,,,,,,,,00037,001,2026-01-16_21h31.12.620,MST_task,2024.2.0,60.11436156797052,2026-01-16 21h31.24.554374 +0530,
,Scenes\160a.jpg,150,0,151,,,,,,,None,j,0.4001113999984227,None,,,,,,151,0,150,1063.0393001999764,,,,,,,,,,,,,,,,,,,,,,,,,,,,,,1063.0236263999832,1063.0393001999764,1063.5231122999976,,,,,,,,,,,,,,1063.540118099976,,,,,,,,,,,,,1063.5366564999858,1063.540118099976,1063.540118099976,1063.540118099976,1066.5232290999847,None,1066.5232688999968,1066.5393885999802,1066.5393885999802,1066.956446199998,j,0.4001113999984227,None,1066.5393885999802,1066.5393885999802,1066.5393885999802,,,,,,,,,,,,00037,001,2026-01-16_21h31.12.620,MST_task,2024.2.0,60.11436156797052,2026-01-16 21h31.24.554374 +0530,
,Scenes\080a.jpg,151,0,152,,,,,,,j,None,,,2.833793100027833,None,,,,152,0,151,1066.9726852999884,,,,,,,,,,,,,,,,,,,,,,,,,,,,,,1066.9565650000004,1066.9726852999884,1067.456349199987,,,,,,,,,,,,,,1067.4740565999819,,,,,,,,,,,,,1067.4718417999975,1067.4740565999819,1067.4740565999819,1067.4740565999819,1070.473020799982,j,1070.4730626999808,,,1070.4730749999871,None,,,,,,2.833793100027833,None,,,,,,,,,,00037,001,2026-01-16_21h31.12.620,MST_task,2024.2.0,60.11436156797052,2026-01-16 21h31.24.554374 +0530,
,Scenes\020a.jpg,152,0,153,,,,,,,f,None,,,2.360802599985618,0.2714187999954447,,,,153,0,152,1070.4893487999798,,,,,,,,,,,,,,,,,,,,,,,,,,,,,,1070.4731714999944,1070.4893487999798,1070.9730550999811,,,,,,,,,,,,,,1070.995281999989,,,,,,,,,,,,,1070.9926497999986,1070.995281999989,1070.995281999989,1070.995281999989,1073.989594499988,f,1073.98963549998,,,1073.989647999988,None,,,,,,2.360802599985618,0.2714187999954447,,,,,,,,,,00037,001,2026-01-16_21h31.12.620,MST_task,2024.2.0,60.11436156797052,2026-01-16 21h31.24.554374 +0530,
,Scenes\067a.jpg,153,0,154,,,,,,,f,None,,,1.7050258000090253,0.23164690000703558,,,,154,0,153,1074.0061190999986,,,,,,,,,,,,,,,,,,,,,,,,,,,,,,1073.9897493000026,1074.0061190999986,1074.4897819999896,,,,,,,,,,,,,,1074.5069771999842,,,,,,,,,,,,,1074.504171699984,1074.5069771999842,1074.5069771999842,1074.5069771999842,1077.4898856999935,f,1077.4899282999977,,,1077.489939399995,None,,,1077.5061042000016,1077.5061042000016,1077.5061042000016,1.7050258000090253,0.23164690000703558,,,,,,,,,,00037,001,2026-01-16_21h31.12.620,MST_task,2024.2.0,60.11436156797052,2026-01-16 21h31.24.554374 +0530,
,Objects\141a.jpg,154,0,155,,,,,,,j,None,,,2.118050699995365,0.2068790000048466,,,,155,0,154,1077.5061042000016,,,,,,,,,,,,,,,,,,,,,,,,,,,,,,1077.4900361000036,1077.5061042000016,1077.989887099975,,,,,,,,,,,,,,1078.006574500003,,,,,,,,,,,,,1078.001454799989,1078.006574500003,1078.006574500003,1078.006574500003,1080.9899884999904,j,1080.9919884999981,,,1080.9920053999813,None,,,1081.0060996999964,1081.0060996999964,1081.0060996999964,2.118050699995365,0.2068790000048466,,,,,,,,,,00037,001,2026-01-16_21h31.12.620,MST_task,2024.2.0,60.11436156797052,2026-01-16 21h31.24.554374 +0530,
,Objects\164a.jpg,155,0,156,,,,,,,f,None,,,1.513016200013226,0.17661569998017512,,,,156,0,155,1081.0060996999964,,,,,,,,,,,,,,,,,,,,,,,,,,,,,,1080.9920743999828,1081.0060996999964,1081.4896002000023,,,,,,,,,,,,,,1081.5063370999997,,,,,,,,,,,,,1081.4988144999952,1081.5063370999997,1081.5063370999997,1081.5063370999997,1084.4897359999886,f,1084.4897783999913,,,1084.4897890999855,None,,,1084.506096899975,1084.506096899975,1084.506096899975,1.513016200013226,0.17661569998017512,,,,,,,,,,00037,001,2026-01-16_21h31.12.620,MST_task,2024.2.0,60.11436156797052,2026-01-16 21h31.24.554374 +0530,
,Objects\102a.jpg,156,0,157,,,,,,,f,None,,,1.0778267999994569,0.17545799998333678,,,,157,0,156,1084.506096899975,,,,,,,,,,,,,,,,,,,,,,,,,,,,,,1084.489889999997,1084.506096899975,1084.9895262999926,,,,,,,,,,,,,,1085.0063108000031,,,,,,,,,,,,,1084.998732499982,1085.0063108000031,1085.0063108000031,1085.0063108000031,1087.9901316000032,f,1087.990182599984,,,1087.990194299986,None,,,1088.006095699995,1088.006095699995,1088.006095699995,1.0778267999994569,0.17545799998333678,,,,,,,,,,00037,001,2026-01-16_21h31.12.620,MST_task,2024.2.0,60.11436156797052,2026-01-16 21h31.24.554374 +0530,
,Objects\002a.jpg,157,0,158,,,,,,,f,None,,,1.0249446000088938,0.2409023999935016,,,,158,0,157,1088.006095699995,,,,,,,,,,,,,,,,,,,,,,,,,,,,,,1087.9902753999922,1088.006095699995,1088.4896211999876,,,,,,,,,,,,,,1088.5063266999787,,,,,,,,,,,,,1088.498750699975,1088.5063266999787,1088.5063266999787,1088.5063266999787,1091.4899175000028,f,1091.4899685999844,,,1091.4899792999786,None,,,1091.5061004000017,1091.5061004000017,1091.5061004000017,1.0249446000088938,0.2409023999935016,,,,,,,,,,00037,001,2026-01-16_21h31.12.620,MST_task,2024.2.0,60.11436156797052,2026-01-16 21h31.24.554374 +0530,
,Objects\172a.jpg,158,0,159,,,,,,,j,None,,,2.293104600015795,0.17710110000916757,,,,159,0,158,1091.5061004000017,,,,,,,,,,,,,,,,,,,,,,,,,,,,,,1091.4900770999957,1091.5061004000017,1091.9896668999863,,,,,,,,,,,,,,1092.0063408999995,,,,,,,,,,,,,1091.9987105999899,1092.0063408999995,1092.0063408999995,1092.0063408999995,1094.989919499989,j,1094.9899673999753,,,1094.9899793999793,None,,,1095.0061728,1095.0061728,1095.0061728,2.293104600015795,0.17710110000916757,,,,,,,,,,00037,001,2026-01-16_21h31.12.620,MST_task,2024.2.0,60.11436156797052,2026-01-16 21h31.24.554374 +0530,
,Objects\007a.jpg,159,0,160,,,,,,,j,None,,,1.169466499995906,0.18399520000093617,,,,160,0,159,1095.0061728,,,,,,,,,,,,,,,,,,,,,,,,,,,,,,1094.9900836999877,1095.0061728,1095.4896605999966,,,,,,,,,,,,,,1095.5063399999926,,,,,,,,,,,,,1095.4988077000016,1095.5063399999926,1095.5063399999926,1095.5063399999926,1098.4897998999804,j,1098.489841100003,,,1098.4898519999988,None,,,1098.5061008999764,1098.5061008999764,1098.5061008999764,1.169466499995906,0.18399520000093617,,,,,,,,,,00037,001,2026-01-16_21h31.12.620,MST_task,2024.2.0,60.11436156797052,2026-01-16 21h31.24.554374 +0530,
,Objects\091a.jpg,160,0,161,,,,,,,j,None,,,1.0305788000114262,0.22297979998984374,,,,161,0,160,1098.5061008999764,,,,,,,,,,,,,,,,,,,,,,,,,,,,,,1098.4899176999752,1098.5061008999764,1098.9896128999826,,,,,,,,,,,,,,1099.0065744000021,,,,,,,,,,,,,1098.998689799977,1099.0065744000021,1099.0065744000021,1099.0065744000021,1101.9898567999771,j,1101.9899002999882,,,1101.9899110999831,None,,,1102.0060557999823,1102.0060557999823,1102.0060557999823,1.0305788000114262,0.22297979998984374,,,,,,,,,,00037,001,2026-01-16_21h31.12.620,MST_task,2024.2.0,60.11436156797052,2026-01-16 21h31.24.554374 +0530,
