thisN,thisTrialN,thisRepN,key_resp_3.keys,key_resp_3.rt,key_resp_3.duration,trials.thisRepN,trials.thisTrialN,trials.thisN,thisRow.t,notes,intro_page.started,text.started,key_resp.started,intro_page.stopped,key_resp.keys,key_resp.rt,key_resp.duration,instructions.started,text_2.started,key_resp_2.started,instructions.stopped,key_resp_2.keys,key_resp_2.rt,key_resp_2.duration,demo1.started,image_1.started,image_2.started,text_7.started,key_resp_6.started,text_9.started,demo1.stopped,key_resp_6.keys,key_resp_6.rt,key_resp_6.duration,demo2.started,image_5.started,image_6.started,text_11.started,text_12.started,key_resp_8.started,demo2.stopped,key_resp_8.keys,key_resp_8.rt,key_resp_8.duration,demo_conclusion.started,text_13.started,key_resp_9.started,demo_conclusion.stopped,key_resp_9.keys,key_resp_9.rt,key_resp_9.duration,start_test.started,text_6.started,key_resp_5.started,start_test.stopped,key_resp_5.keys,key_resp_5.rt,key_resp_5.duration,ISI.started,text_4.started,text_4.stopped,ISI.stopped,routine_1.started,image.started,text_3.started,key_resp_3.started,routine_1.stopped,image_path,position_of_stimuli,trials.key_resp_3.keys,trials.key_resp_3.rt,trials.key_resp_3.duration,End_page.started,text_5.started,key_resp_4.started,End_page.stopped,key_resp_4.keys,key_resp_4.rt,key_resp_4.duration,participant,session,date,expName,psychopyVersion,frameRate,expStart,
,,,,,,,,,,,0.0011640999873634428,0.0026940999960061163,0.0026940999960061163,1.7301791999780107,space,1.7105250999738928,None,,,,,,,,,,,,,,,,,,,,,,,,,,,,,,,,,,,,,,,,,,,,,,,,,,,,,,,,,,,,,,,00038,001,2026-01-16_23h03.09.394,MST_test,2024.2.0,59.876152171797564,2026-01-16 23h03.18.188864 +0530,
,,,,,,,,,,,,,,,,,,1.7302094000042416,1.7449052000010852,1.7449052000010852,19.662007099977927,space,17.912491399998544,None,,,,,,,,,,,,,,,,,,,,,,,,,,,,,,,,,,,,,,,,,,,,,,,,,,,,,,,,00038,001,2026-01-16_23h03.09.394,MST_test,2024.2.0,59.876152171797564,2026-01-16 23h03.18.188864 +0530,
,,,,,,,,,,,,,,,,,,,,,,,,,19.662034099979792,19.67861649999395,19.67861649999395,19.67861649999395,19.67861649999395,19.67861649999395,24.7957722999854,space,5.115117000008468,None,,,,,,,,,,,,,,,,,,,,,,,,,,,,,,,,,,,,,,,,,,,,,,00038,001,2026-01-16_23h03.09.394,MST_test,2024.2.0,59.876152171797564,2026-01-16 23h03.18.188864 +0530,
,,,,,,,,,,,,,,,,,,,,,,,,,,,,,,,,,,,24.795803099987097,24.811922099994263,24.811922099994263,24.811922099994263,24.811922099994263,24.811922099994263,26.62876389999292,space,1.8141677999810781,None,,,,,,,,,,,,,,,,,,,,,,,,,,,,,,,,,,,,00038,001,2026-01-16_23h03.09.394,MST_test,2024.2.0,59.876152171797564,2026-01-16 23h03.18.188864 +0530,
,,,,,,,,,,,,,,,,,,,,,,,,,,,,,,,,,,,,,,,,,,,,,26.62879509999766,26.64491750000161,26.64491750000161,37.678452199994354,space,11.029120999999577,None,,,,,,,,,,,,,,,,,,,,,,,,,,,,,00038,001,2026-01-16_23h03.09.394,MST_test,2024.2.0,59.876152171797564,2026-01-16 23h03.18.188864 +0530,
,,,,,,,,,,,,,,,,,,,,,,,,,,,,,,,,,,,,,,,,,,,,,,,,,,,,37.67848020000383,37.6948855999799,37.6948855999799,78.32870149999508,space,40.6268278999778,None,,,,,,,,,,,,,,,,,,,,,,00038,001,2026-01-16_23h03.09.394,MST_test,2024.2.0,59.876152171797564,2026-01-16 23h03.18.188864 +0530,
0,0,1,o,2.3525069000024814,None,1,0,0,78.3449333999888,,,,,,,,,,,,,,,,,,,,,,,,,,,,,,,,,,,,,,,,,,,,,,,,,,78.33275279999361,78.3449333999888,78.85002839998924,78.82858219998889,78.84776499998407,78.85002839998924,78.85002839998924,78.85002839998924,81.21212640000158,Objects\044b.jpg,pre,o,2.3525069000024814,None,,,,,,,,00038,001,2026-01-16_23h03.09.394,MST_test,2024.2.0,59.876152171797564,2026-01-16 23h03.18.188864 +0530,
1,0,2,s,1.433053100015968,None,2,0,1,81.22831439998117,,,,,,,,,,,,,,,,,,,,,,,,,,,,,,,,,,,,,,,,,,,,,,,,,,81.21222079999279,81.22831439998117,81.72845259998576,81.71234169998206,81.72148310000193,81.72845259998576,81.72845259998576,81.72845259998576,83.1622143999848,Objects\026b.jpg,pre,s,1.433053100015968,None,,,,,,,,00038,001,2026-01-16_23h03.09.394,MST_test,2024.2.0,59.876152171797564,2026-01-16 23h03.18.188864 +0530,
2,0,3,s,1.8436894999758806,None,3,0,2,83.17832279999857,,,,,,,,,,,,,,,,,,,,,,,,,,,,,,,,,,,,,,,,,,,,,,,,,,83.16230739999446,83.17832279999857,83.67862789999344,83.66183129997808,83.66964049998205,83.67862789999344,83.67862789999344,83.67862789999344,85.52876769998693,Scenes\039b.jpg,pre,s,1.8436894999758806,None,,,,,,,,00038,001,2026-01-16_23h03.09.394,MST_test,2024.2.0,59.876152171797564,2026-01-16 23h03.18.188864 +0530,
3,0,4,o,1.4040375000040513,None,4,0,3,85.54498199999216,,,,,,,,,,,,,,,,,,,,,,,,,,,,,,,,,,,,,,,,,,,,,,,,,,85.52885869998136,85.54498199999216,86.04564219998429,86.02845799998613,86.04328759998316,86.04564219998429,86.04564219998429,86.04564219998429,87.46214659998077,Scenes\006b.jpg,mid,o,1.4040375000040513,None,,,,,,,,00038,001,2026-01-16_23h03.09.394,MST_test,2024.2.0,59.876152171797564,2026-01-16 23h03.18.188864 +0530,
4,0,5,n,1.6715761999948882,None,5,0,4,87.47830550000072,,,,,,,,,,,,,,,,,,,,,,,,,,,,,,,,,,,,,,,,,,,,,,,,,,87.46223799997824,87.47830550000072,87.97847410000395,87.96186739997938,87.96634260000428,87.97847410000395,87.97847410000395,87.97847410000395,89.66245410000556,Objects\131a.jpg,post,n,1.6715761999948882,None,,,,,,,,00038,001,2026-01-16_23h03.09.394,MST_test,2024.2.0,59.876152171797564,2026-01-16 23h03.18.188864 +0530,
5,0,6,n,20.36655740000424,None,6,0,5,89.67817639998975,,,,,,,,,,,,,,,,,,,,,,,,,,,,,,,,,,,,,,,,,,,,,,,,,,89.66255089998594,89.67817639998975,90.17873759998474,90.16193249999196,90.17194159998326,90.17873759998474,90.17873759998474,90.17873759998474,110.5458895000047,Foils\scenes14.jpg,none,n,20.36655740000424,None,,,,,,,,00038,001,2026-01-16_23h03.09.394,MST_test,2024.2.0,59.876152171797564,2026-01-16 23h03.18.188864 +0530,
6,0,7,s,1.403762200003257,None,7,0,6,110.56159309999202,,,,,,,,,,,,,,,,,,,,,,,,,,,,,,,,,,,,,,,,,,,,,,,,,,110.54598039999837,110.56159309999202,111.06215129999327,111.04529749997891,111.04850279999664,111.06215129999327,111.06215129999327,111.06215129999327,112.4788617999875,Objects\151b.jpg,mid,s,1.403762200003257,None,,,,,,,,00038,001,2026-01-16_23h03.09.394,MST_test,2024.2.0,59.876152171797564,2026-01-16 23h03.18.188864 +0530,
7,0,8,n,2.1905468000040855,None,8,0,7,112.49494909998612,,,,,,,,,,,,,,,,,,,,,,,,,,,,,,,,,,,,,,,,,,,,,,,,,,112.47895299998345,112.49494909998612,112.99516399999266,112.97856359998696,112.9881430999958,112.99516399999266,112.99516399999266,112.99516399999266,115.19544349997886,Objects\094b.jpg,post,n,2.1905468000040855,None,,,,,,,,00038,001,2026-01-16_23h03.09.394,MST_test,2024.2.0,59.876152171797564,2026-01-16 23h03.18.188864 +0530,
8,0,9,s,2.6337323999905493,None,9,0,8,115.21154779999051,,,,,,,,,,,,,,,,,,,,,,,,,,,,,,,,,,,,,,,,,,,,,,,,,,115.19553569998243,115.21154779999051,115.71204189999844,115.69513149998966,115.70854369999142,115.71204189999844,115.71204189999844,115.71204189999844,118.36213920000591,Scenes\095b.jpg,mid,s,2.6337323999905493,None,,,,,,,,00038,001,2026-01-16_23h03.09.394,MST_test,2024.2.0,59.876152171797564,2026-01-16 23h03.18.188864 +0530,
9,0,10,o,4.746837699989555,None,10,0,9,118.3780940999859,,,,,,,,,,,,,,,,,,,,,,,,,,,,,,,,,,,,,,,,,,,,,,,,,,118.36223009999958,118.3780940999859,118.87905560000218,118.86188690000563,118.87182939998456,118.87905560000218,118.87905560000218,118.87905560000218,123.62873269998818,Scenes\084a.jpg,post,o,4.746837699989555,None,,,,,,,,00038,001,2026-01-16_23h03.09.394,MST_test,2024.2.0,59.876152171797564,2026-01-16 23h03.18.188864 +0530,
10,0,11,o,0.9443899000179954,None,11,0,10,123.64497989998199,,,,,,,,,,,,,,,,,,,,,,,,,,,,,,,,,,,,,,,,,,,,,,,,,,123.62882990000071,123.64497989998199,124.14530410000589,124.1285130000033,124.13166329998057,124.14530410000589,124.14530410000589,124.14530410000589,125.09559329997865,Objects\181a.jpg,post,o,0.9443899000179954,None,,,,,,,,00038,001,2026-01-16_23h03.09.394,MST_test,2024.2.0,59.876152171797564,2026-01-16 23h03.18.188864 +0530,
11,0,12,o,0.8618964999914169,None,12,0,11,125.11155040000449,,,,,,,,,,,,,,,,,,,,,,,,,,,,,,,,,,,,,,,,,,,,,,,,,,125.0956968999817,125.11155040000449,125.61177560000215,125.59509309998248,125.59747819998302,125.61177560000215,125.61177560000215,125.61177560000215,126.47865149998688,Objects\076a.jpg,mid,o,0.8618964999914169,None,,,,,,,,00038,001,2026-01-16_23h03.09.394,MST_test,2024.2.0,59.876152171797564,2026-01-16 23h03.18.188864 +0530,
12,0,13,o,0.8147374999825843,None,13,0,12,126.49486370000523,,,,,,,,,,,,,,,,,,,,,,,,,,,,,,,,,,,,,,,,,,,,,,,,,,126.47874759999104,126.49486370000523,126.9951278999797,126.97836280000047,126.98077219998231,126.9951278999797,126.9951278999797,126.9951278999797,127.81214339999133,Objects\145a.jpg,pre,o,0.8147374999825843,None,,,,,,,,00038,001,2026-01-16_23h03.09.394,MST_test,2024.2.0,59.876152171797564,2026-01-16 23h03.18.188864 +0530,
13,0,14,o,0.8974351999931969,None,14,0,13,127.82808459998341,,,,,,,,,,,,,,,,,,,,,,,,,,,,,,,,,,,,,,,,,,,,,,,,,,127.81223539999337,127.82808459998341,128.32860839998466,128.31210859998828,128.31841999999597,128.32860839998466,128.32860839998466,128.32860839998466,129.2286506999808,Scenes\007a.jpg,mid,o,0.8974351999931969,None,,,,,,,,00038,001,2026-01-16_23h03.09.394,MST_test,2024.2.0,59.876152171797564,2026-01-16 23h03.18.188864 +0530,
14,0,15,s,1.376820300007239,None,15,0,14,129.24484209998627,,,,,,,,,,,,,,,,,,,,,,,,,,,,,,,,,,,,,,,,,,,,,,,,,,129.22874309998588,129.24484209998627,129.7454378999828,129.72841459998745,129.74273249998805,129.7454378999828,129.7454378999828,129.7454378999828,131.12867839998216,Scenes\180b.jpg,post,s,1.376820300007239,None,,,,,,,,00038,001,2026-01-16_23h03.09.394,MST_test,2024.2.0,59.876152171797564,2026-01-16 23h03.18.188864 +0530,
15,0,16,o,0.8694877999951132,None,16,0,15,131.14490059998934,,,,,,,,,,,,,,,,,,,,,,,,,,,,,,,,,,,,,,,,,,,,,,,,,,131.1287719999964,131.14490059998934,131.6453821999894,131.6285510000016,131.6336812999798,131.6453821999894,131.6453821999894,131.6453821999894,132.52853839998716,Scenes\139a.jpg,pre,o,0.8694877999951132,None,,,,,,,,00038,001,2026-01-16_23h03.09.394,MST_test,2024.2.0,59.876152171797564,2026-01-16 23h03.18.188864 +0530,
16,0,17,n,1.9478647999931127,None,17,0,16,132.54488499998115,,,,,,,,,,,,,,,,,,,,,,,,,,,,,,,,,,,,,,,,,,,,,,,,,,132.52863129999605,132.54488499998115,133.04545740000322,133.0283497000055,133.03288839999004,133.04545740000322,133.04545740000322,133.04545740000322,134.99553190000006,Scenes\166a.jpg,pre,n,1.9478647999931127,None,,,,,,,,00038,001,2026-01-16_23h03.09.394,MST_test,2024.2.0,59.876152171797564,2026-01-16 23h03.18.188864 +0530,
17,0,18,n,0.8172761000168975,None,18,0,17,135.0115003999963,,,,,,,,,,,,,,,,,,,,,,,,,,,,,,,,,,,,,,,,,,,,,,,,,,134.995625999989,135.0115003999963,135.51204279999365,135.49515269999392,135.50544660000014,135.51204279999365,135.51204279999365,135.51204279999365,136.34549129998777,Foils\033a.jpg,none,n,0.8172761000168975,None,,,,,,,,00038,001,2026-01-16_23h03.09.394,MST_test,2024.2.0,59.876152171797564,2026-01-16 23h03.18.188864 +0530,
18,0,19,s,1.3879959999758285,None,19,0,18,136.36164499999722,,,,,,,,,,,,,,,,,,,,,,,,,,,,,,,,,,,,,,,,,,,,,,,,,,136.3455801999953,136.36164499999722,136.8618959999876,136.8451400999911,136.85445260000415,136.8618959999876,136.8618959999876,136.8618959999876,138.26212539998232,Foils\scenes1.jpg,none,s,1.3879959999758285,None,,,,,,,,00038,001,2026-01-16_23h03.09.394,MST_test,2024.2.0,59.876152171797564,2026-01-16 23h03.18.188864 +0530,
19,0,20,s,1.1260753000096884,None,20,0,19,138.27809539998998,,,,,,,,,,,,,,,,,,,,,,,,,,,,,,,,,,,,,,,,,,,,,,,,,,138.2622177999874,138.27809539998998,138.77947779998067,138.76207329999306,138.77744760000496,138.77947779998067,138.77947779998067,138.77947779998067,139.91214749999926,Scenes\143b.jpg,mid,s,1.1260753000096884,None,,,,,,,,00038,001,2026-01-16_23h03.09.394,MST_test,2024.2.0,59.876152171797564,2026-01-16 23h03.18.188864 +0530,
20,0,21,n,1.0702849999943282,None,21,0,20,139.92816250000033,,,,,,,,,,,,,,,,,,,,,,,,,,,,,,,,,,,,,,,,,,,,,,,,,,139.9122389999975,139.92816250000033,140.428708499996,140.41183399999863,140.41527239998686,140.428708499996,140.428708499996,140.428708499996,141.51211879999028,Foils\081a.jpg,none,n,1.0702849999943282,None,,,,,,,,00038,001,2026-01-16_23h03.09.394,MST_test,2024.2.0,59.876152171797564,2026-01-16 23h03.18.188864 +0530,
21,0,22,o,1.10475349999615,None,22,0,21,141.52802709999378,,,,,,,,,,,,,,,,,,,,,,,,,,,,,,,,,,,,,,,,,,,,,,,,,,141.5122097999847,141.52802709999378,142.03256920000422,142.0118123999855,142.03033399998094,142.03256920000422,142.03256920000422,142.03256920000422,143.14551689999644,Scenes\009b.jpg,pre,o,1.10475349999615,None,,,,,,,,00038,001,2026-01-16_23h03.09.394,MST_test,2024.2.0,59.876152171797564,2026-01-16 23h03.18.188864 +0530,
22,0,23,o,1.1564127999881748,None,23,0,22,143.16150089999428,,,,,,,,,,,,,,,,,,,,,,,,,,,,,,,,,,,,,,,,,,,,,,,,,,143.1456072999863,143.16150089999428,143.6620283999946,143.64513210000587,143.647876300005,143.6620283999946,143.6620283999946,143.6620283999946,144.82870339998044,Objects\150a.jpg,post,o,1.1564127999881748,None,,,,,,,,00038,001,2026-01-16_23h03.09.394,MST_test,2024.2.0,59.876152171797564,2026-01-16 23h03.18.188864 +0530,
23,0,24,o,0.848210200027097,None,24,0,23,144.8449098999845,,,,,,,,,,,,,,,,,,,,,,,,,,,,,,,,,,,,,,,,,,,,,,,,,,144.8287927999918,144.8449098999845,145.3451041999797,145.32842439998058,145.331168899982,145.3451041999797,145.3451041999797,145.3451041999797,146.1955926999799,Objects\089a.jpg,pre,o,0.848210200027097,None,,,,,,,,00038,001,2026-01-16_23h03.09.394,MST_test,2024.2.0,59.876152171797564,2026-01-16 23h03.18.188864 +0530,
24,0,25,o,0.9615488999988884,None,25,0,24,146.21150320000015,,,,,,,,,,,,,,,,,,,,,,,,,,,,,,,,,,,,,,,,,,,,,,,,,,146.19568639999488,146.21150320000015,146.71177439999883,146.6952185999835,146.69748099998105,146.71177439999883,146.71177439999883,146.71177439999883,147.67877179998322,Objects\141a.jpg,post,o,0.9615488999988884,None,,,,,,,,00038,001,2026-01-16_23h03.09.394,MST_test,2024.2.0,59.876152171797564,2026-01-16 23h03.18.188864 +0530,
25,0,26,o,1.5262451999878976,None,26,0,25,147.6949556999898,,,,,,,,,,,,,,,,,,,,,,,,,,,,,,,,,,,,,,,,,,,,,,,,,,147.678868899995,147.6949556999898,148.19508459998178,148.1784062999941,148.18793689997983,148.19508459998178,148.19508459998178,148.19508459998178,149.72866299998714,Objects\078b.jpg,mid,o,1.5262451999878976,None,,,,,,,,00038,001,2026-01-16_23h03.09.394,MST_test,2024.2.0,59.876152171797564,2026-01-16 23h03.18.188864 +0530,
26,0,27,n,1.0315350999881048,None,27,0,26,149.74491589999525,,,,,,,,,,,,,,,,,,,,,,,,,,,,,,,,,,,,,,,,,,,,,,,,,,149.72875270000077,149.74491589999525,150.2505034999922,150.22830960000283,150.2482248999877,150.2505034999922,150.2505034999922,150.2505034999922,151.2954957000038,Scenes\015b.jpg,pre,n,1.0315350999881048,None,,,,,,,,00038,001,2026-01-16_23h03.09.394,MST_test,2024.2.0,59.876152171797564,2026-01-16 23h03.18.188864 +0530,
27,0,28,n,1.7499458999955095,None,28,0,27,151.31156099998043,,,,,,,,,,,,,,,,,,,,,,,,,,,,,,,,,,,,,,,,,,,,,,,,,,151.2955873000028,151.31156099998043,151.81215369998245,151.79514519998338,151.80393029999686,151.81215369998245,151.81215369998245,151.81215369998245,153.57864419999532,Scenes\100a.jpg,post,n,1.7499458999955095,None,,,,,,,,00038,001,2026-01-16_23h03.09.394,MST_test,2024.2.0,59.876152171797564,2026-01-16 23h03.18.188864 +0530,
28,0,29,s,2.1627131999994162,None,29,0,28,153.59490929997992,,,,,,,,,,,,,,,,,,,,,,,,,,,,,,,,,,,,,,,,,,,,,,,,,,153.57873290000134,153.59490929997992,154.09542329999385,154.07835529997828,154.08148809999693,154.09542329999385,154.09542329999385,154.09542329999385,156.26214289999916,Objects\127a.jpg,mid,s,2.1627131999994162,None,,,,,,,,00038,001,2026-01-16_23h03.09.394,MST_test,2024.2.0,59.876152171797564,2026-01-16 23h03.18.188864 +0530,
29,0,30,o,1.0478488999942783,None,30,0,29,156.278072599991,,,,,,,,,,,,,,,,,,,,,,,,,,,,,,,,,,,,,,,,,,,,,,,,,,156.26223480000044,156.278072599991,156.7782665999839,156.7618278999871,156.7643834000046,156.7782665999839,156.7782665999839,156.7782665999839,157.82886639999924,Objects\003a.jpg,post,o,1.0478488999942783,None,,,,,,,,00038,001,2026-01-16_23h03.09.394,MST_test,2024.2.0,59.876152171797564,2026-01-16 23h03.18.188864 +0530,
30,0,31,n,1.1205499999923632,None,31,0,30,157.84488960000454,,,,,,,,,,,,,,,,,,,,,,,,,,,,,,,,,,,,,,,,,,,,,,,,,,157.82896230000188,157.84488960000454,158.34515449998435,158.328409299982,158.3375834999897,158.34515449998435,158.34515449998435,158.34515449998435,159.47869859999628,Foils\093b.jpg,none,n,1.1205499999923632,None,,,,,,,,00038,001,2026-01-16_23h03.09.394,MST_test,2024.2.0,59.876152171797564,2026-01-16 23h03.18.188864 +0530,
31,0,32,n,0.8703001000103541,None,32,0,31,159.4948430999939,,,,,,,,,,,,,,,,,,,,,,,,,,,,,,,,,,,,,,,,,,,,,,,,,,159.4787900999945,159.4948430999939,159.99513189998106,159.97846290000598,159.98109109999496,159.99513189998106,159.99513189998106,159.99513189998106,160.8787611000007,Objects\023a.jpg,pre,n,0.8703001000103541,None,,,,,,,,00038,001,2026-01-16_23h03.09.394,MST_test,2024.2.0,59.876152171797564,2026-01-16 23h03.18.188864 +0530,
32,0,33,n,0.704477199993562,None,33,0,32,160.89492819999577,,,,,,,,,,,,,,,,,,,,,,,,,,,,,,,,,,,,,,,,,,,,,,,,,,160.87885109998751,160.89492819999577,161.44927059998736,161.37844119998044,161.4462870999996,161.44927059998736,161.44927059998736,161.44927059998736,162.16222589998506,Foils\scenes25.jpg,none,n,0.704477199993562,None,,,,,,,,00038,001,2026-01-16_23h03.09.394,MST_test,2024.2.0,59.876152171797564,2026-01-16 23h03.18.188864 +0530,
33,0,34,n,0.7995580999995582,None,34,0,33,162.17824489998748,,,,,,,,,,,,,,,,,,,,,,,,,,,,,,,,,,,,,,,,,,,,,,,,,,162.16231769998558,162.17824489998748,162.68176000000676,162.66172089998145,162.67959399998654,162.68176000000676,162.68176000000676,162.68176000000676,163.4954807999893,Foils\113a.jpg,none,n,0.7995580999995582,None,,,,,,,,00038,001,2026-01-16_23h03.09.394,MST_test,2024.2.0,59.876152171797564,2026-01-16 23h03.18.188864 +0530,
34,0,35,s,1.2704304000071716,None,35,0,34,163.51142619998427,,,,,,,,,,,,,,,,,,,,,,,,,,,,,,,,,,,,,,,,,,,,,,,,,,163.49557070000446,163.51142619998427,164.01194969998323,163.9951164999802,164.0033310999861,164.01194969998323,164.01194969998323,164.01194969998323,165.2954969999846,Scenes\092a.jpg,mid,s,1.2704304000071716,None,,,,,,,,00038,001,2026-01-16_23h03.09.394,MST_test,2024.2.0,59.876152171797564,2026-01-16 23h03.18.188864 +0530,
35,0,36,s,2.5892670000030193,None,36,0,35,165.3114368999959,,,,,,,,,,,,,,,,,,,,,,,,,,,,,,,,,,,,,,,,,,,,,,,,,,165.2955946000002,165.3114368999959,165.81198440000298,165.79515689998516,165.79782899998827,165.81198440000298,165.81198440000298,165.81198440000298,168.41212649998488,Objects\177a.jpg,pre,s,2.5892670000030193,None,,,,,,,,00038,001,2026-01-16_23h03.09.394,MST_test,2024.2.0,59.876152171797564,2026-01-16 23h03.18.188864 +0530,
36,0,37,o,1.513131700019585,None,37,0,36,168.42832639999688,,,,,,,,,,,,,,,,,,,,,,,,,,,,,,,,,,,,,,,,,,,,,,,,,,168.41223319998244,168.42832639999688,168.92874099998153,168.91172199998982,168.9215613999986,168.92874099998153,168.92874099998153,168.92874099998153,170.44567659997847,Scenes\010a.jpg,pre,o,1.513131700019585,None,,,,,,,,00038,001,2026-01-16_23h03.09.394,MST_test,2024.2.0,59.876152171797564,2026-01-16 23h03.18.188864 +0530,
37,0,38,n,0.9678271999873687,None,38,0,37,170.46152979999897,,,,,,,,,,,,,,,,,,,,,,,,,,,,,,,,,,,,,,,,,,,,,,,,,,170.4457790000015,170.46152979999897,170.96196519999648,170.94512269998086,170.95479580000392,170.96196519999648,170.96196519999648,170.96196519999648,171.94542730000103,Objects\060b.jpg,post,n,0.9678271999873687,None,,,,,,,,00038,001,2026-01-16_23h03.09.394,MST_test,2024.2.0,59.876152171797564,2026-01-16 23h03.18.188864 +0530,
38,0,39,o,1.0765865000139456,None,39,0,38,171.96170189999975,,,,,,,,,,,,,,,,,,,,,,,,,,,,,,,,,,,,,,,,,,,,,,,,,,171.9455207999854,171.96170189999975,172.46161909998045,172.44557219999842,172.44803589998628,172.46161909998045,172.46161909998045,172.46161909998045,173.5457466999942,Objects\083a.jpg,mid,o,1.0765865000139456,None,,,,,,,,00038,001,2026-01-16_23h03.09.394,MST_test,2024.2.0,59.876152171797564,2026-01-16 23h03.18.188864 +0530,
39,0,40,s,1.172296099975938,None,40,0,39,173.56167419999838,,,,,,,,,,,,,,,,,,,,,,,,,,,,,,,,,,,,,,,,,,,,,,,,,,173.54584360000445,173.56167419999838,174.0621444999997,174.04519030000665,174.0541108000034,174.0621444999997,174.0621444999997,174.0621444999997,175.24568579997867,Foils\scenes2.jpg,none,s,1.172296099975938,None,,,,,,,,00038,001,2026-01-16_23h03.09.394,MST_test,2024.2.0,59.876152171797564,2026-01-16 23h03.18.188864 +0530,
40,0,41,o,1.5754037000006065,None,41,0,40,175.2616131999821,,,,,,,,,,,,,,,,,,,,,,,,,,,,,,,,,,,,,,,,,,,,,,,,,,175.24577959999442,175.2616131999821,175.76207739999518,175.745282399992,175.74799709999934,175.76207739999518,175.76207739999518,175.76207739999518,177.34547139998176,Objects\185a.jpg,mid,o,1.5754037000006065,None,,,,,,,,00038,001,2026-01-16_23h03.09.394,MST_test,2024.2.0,59.876152171797564,2026-01-16 23h03.18.188864 +0530,
41,0,42,n,1.0039123000169639,None,42,0,41,177.36163659999147,,,,,,,,,,,,,,,,,,,,,,,,,,,,,,,,,,,,,,,,,,,,,,,,,,177.34556879999582,177.36163659999147,177.86173750000307,177.84541029998218,177.8477490999794,177.86173750000307,177.86173750000307,177.86173750000307,178.87891209998634,Foils\074a.jpg,none,n,1.0039123000169639,None,,,,,,,,00038,001,2026-01-16_23h03.09.394,MST_test,2024.2.0,59.876152171797564,2026-01-16 23h03.18.188864 +0530,
42,0,43,s,1.0319958000036422,None,43,0,42,178.89504099998157,,,,,,,,,,,,,,,,,,,,,,,,,,,,,,,,,,,,,,,,,,,,,,,,,,178.87900339998305,178.89504099998157,179.39522919998853,179.37863449999713,179.38126029999694,179.39522919998853,179.39522919998853,179.39522919998853,180.42896429999382,Objects\018a.jpg,post,s,1.0319958000036422,None,,,,,,,,00038,001,2026-01-16_23h03.09.394,MST_test,2024.2.0,59.876152171797564,2026-01-16 23h03.18.188864 +0530,
43,0,44,o,0.9839436000038404,None,44,0,43,180.4450552999915,,,,,,,,,,,,,,,,,,,,,,,,,,,,,,,,,,,,,,,,,,,,,,,,,,180.42906510000466,180.4450552999915,180.94536909999442,180.92857139999978,180.93806019998738,180.94536909999442,180.94536909999442,180.94536909999442,181.94558010000037,Objects\124b.jpg,mid,o,0.9839436000038404,None,,,,,,,,00038,001,2026-01-16_23h03.09.394,MST_test,2024.2.0,59.876152171797564,2026-01-16 23h03.18.188864 +0530,
44,0,45,n,0.6813158000004478,None,45,0,44,181.96141550000175,,,,,,,,,,,,,,,,,,,,,,,,,,,,,,,,,,,,,,,,,,,,,,,,,,181.94567610000377,181.96141550000175,182.46459190000314,182.44525580000482,182.4621574000048,182.46459190000314,182.46459190000314,182.46459190000314,183.1623988999927,Foils\scenes22.jpg,none,n,0.6813158000004478,None,,,,,,,,00038,001,2026-01-16_23h03.09.394,MST_test,2024.2.0,59.876152171797564,2026-01-16 23h03.18.188864 +0530,
45,0,46,s,1.2987762999837287,None,46,0,45,183.17829859998892,,,,,,,,,,,,,,,,,,,,,,,,,,,,,,,,,,,,,,,,,,,,,,,,,,183.1624966999807,183.17829859998892,183.67915049998555,183.6619121999829,183.67408369999612,183.67915049998555,183.67915049998555,183.67915049998555,184.97915549998288,Scenes\113b.jpg,mid,s,1.2987762999837287,None,,,,,,,,00038,001,2026-01-16_23h03.09.394,MST_test,2024.2.0,59.876152171797564,2026-01-16 23h03.18.188864 +0530,
46,0,47,s,1.4101998999831267,None,47,0,46,184.99504809998325,,,,,,,,,,,,,,,,,,,,,,,,,,,,,,,,,,,,,,,,,,,,,,,,,,184.97925159998704,184.99504809998325,185.49558089999482,185.47858349999296,185.48163629998453,185.49558089999482,185.49558089999482,185.49558089999482,186.91222830000333,Objects\098a.jpg,pre,s,1.4101998999831267,None,,,,,,,,00038,001,2026-01-16_23h03.09.394,MST_test,2024.2.0,59.876152171797564,2026-01-16 23h03.18.188864 +0530,
47,0,48,s,0.892928999994183,None,48,0,47,186.9283693000034,,,,,,,,,,,,,,,,,,,,,,,,,,,,,,,,,,,,,,,,,,,,,,,,,,186.91232579998905,186.9283693000034,187.42882869997993,187.4119980999967,187.41895920000388,187.42882869997993,187.42882869997993,187.42882869997993,188.32900090000476,Scenes\173a.jpg,pre,s,0.892928999994183,None,,,,,,,,00038,001,2026-01-16_23h03.09.394,MST_test,2024.2.0,59.876152171797564,2026-01-16 23h03.18.188864 +0530,
48,0,49,s,1.0358104000042658,None,49,0,48,188.34496009998838,,,,,,,,,,,,,,,,,,,,,,,,,,,,,,,,,,,,,,,,,,,,,,,,,,188.32909499999369,188.34496009998838,188.84547859997838,188.82872560000396,188.83445840000059,188.84547859997838,188.84547859997838,188.84547859997838,189.89557279998553,Scenes\087a.jpg,mid,s,1.0358104000042658,None,,,,,,,,00038,001,2026-01-16_23h03.09.394,MST_test,2024.2.0,59.876152171797564,2026-01-16 23h03.18.188864 +0530,
49,0,50,o,1.2211522000143304,None,50,0,49,189.91156489998684,,,,,,,,,,,,,,,,,,,,,,,,,,,,,,,,,,,,,,,,,,,,,,,,,,189.8956644999853,189.91156489998684,190.41212900000392,190.39527680000174,190.39846949998173,190.41212900000392,190.41212900000392,190.41212900000392,191.64562269998714,Objects\158a.jpg,mid,o,1.2211522000143304,None,,,,,,,,00038,001,2026-01-16_23h03.09.394,MST_test,2024.2.0,59.876152171797564,2026-01-16 23h03.18.188864 +0530,
50,0,51,n,0.9193562000000384,None,51,0,50,191.66159179998795,,,,,,,,,,,,,,,,,,,,,,,,,,,,,,,,,,,,,,,,,,,,,,,,,,191.64571529999375,191.66159179998795,192.16189970000414,192.14525609998964,192.15382919998956,192.16189970000414,192.16189970000414,192.16189970000414,193.09561610000674,Foils\106a.jpg,none,n,0.9193562000000384,None,,,,,,,,00038,001,2026-01-16_23h03.09.394,MST_test,2024.2.0,59.876152171797564,2026-01-16 23h03.18.188864 +0530,
51,0,52,s,1.2375910000118893,None,52,0,51,193.11167459998978,,,,,,,,,,,,,,,,,,,,,,,,,,,,,,,,,,,,,,,,,,,,,,,,,,193.0957070000004,193.11167459998978,193.61219319998054,193.59524269998656,193.60169349997886,193.61219319998054,193.61219319998054,193.61219319998054,194.86228609998943,Scenes\132b.jpg,pre,s,1.2375910000118893,None,,,,,,,,00038,001,2026-01-16_23h03.09.394,MST_test,2024.2.0,59.876152171797564,2026-01-16 23h03.18.188864 +0530,
52,0,53,o,1.070647899992764,None,53,0,52,194.87837409999338,,,,,,,,,,,,,,,,,,,,,,,,,,,,,,,,,,,,,,,,,,,,,,,,,,194.86237719998462,194.87837409999338,195.37876510000206,195.36190419999184,195.3650476000039,195.37876510000206,195.37876510000206,195.37876510000206,196.46209079999244,Objects\020a.jpg,pre,o,1.070647899992764,None,,,,,,,,00038,001,2026-01-16_23h03.09.394,MST_test,2024.2.0,59.876152171797564,2026-01-16 23h03.18.188864 +0530,
53,0,54,n,1.0393538000062108,None,54,0,53,196.47837419999996,,,,,,,,,,,,,,,,,,,,,,,,,,,,,,,,,,,,,,,,,,,,,,,,,,196.46218109998154,196.47837419999996,196.9788336000056,196.96186949999537,196.97186439999496,196.9788336000056,196.9788336000056,196.9788336000056,198.02894980000565,Scenes\128b.jpg,post,n,1.0393538000062108,None,,,,,,,,00038,001,2026-01-16_23h03.09.394,MST_test,2024.2.0,59.876152171797564,2026-01-16 23h03.18.188864 +0530,
54,0,55,n,0.6484648000041489,None,55,0,54,198.0449533999781,,,,,,,,,,,,,,,,,,,,,,,,,,,,,,,,,,,,,,,,,,,,,,,,,,198.02904399999534,198.0449533999781,198.54554689998622,198.52861730000586,198.5384242,198.54554689998622,198.54554689998622,198.54554689998622,199.1955564999953,Objects\161b.jpg,mid,n,0.6484648000041489,None,,,,,,,,00038,001,2026-01-16_23h03.09.394,MST_test,2024.2.0,59.876152171797564,2026-01-16 23h03.18.188864 +0530,
55,0,56,n,0.5783339999907184,None,56,0,55,199.2116795000038,,,,,,,,,,,,,,,,,,,,,,,,,,,,,,,,,,,,,,,,,,,,,,,,,,199.19564590000664,199.2116795000038,199.7119199000008,199.69525200000498,199.70408219998353,199.7119199000008,199.7119199000008,199.7119199000008,200.29556569998385,Foils\034a.jpg,none,n,0.5783339999907184,None,,,,,,,,00038,001,2026-01-16_23h03.09.394,MST_test,2024.2.0,59.876152171797564,2026-01-16 23h03.18.188864 +0530,
56,0,57,s,1.0691426999983378,None,57,0,56,200.3115714000014,,,,,,,,,,,,,,,,,,,,,,,,,,,,,,,,,,,,,,,,,,,,,,,,,,200.2956594999996,200.3115714000014,200.81229709999752,200.79534759998205,200.8049697999959,200.81229709999752,200.81229709999752,200.81229709999752,201.89562860000296,Scenes\047a.jpg,pre,s,1.0691426999983378,None,,,,,,,,00038,001,2026-01-16_23h03.09.394,MST_test,2024.2.0,59.876152171797564,2026-01-16 23h03.18.188864 +0530,
57,0,58,s,1.429987000010442,None,58,0,57,201.91168580000522,,,,,,,,,,,,,,,,,,,,,,,,,,,,,,,,,,,,,,,,,,,,,,,,,,201.8957201000012,201.91168580000522,202.4120824999991,202.3953604999988,202.40509539999766,202.4120824999991,202.4120824999991,202.4120824999991,203.84555110000656,Objects\144b.jpg,mid,s,1.429987000010442,None,,,,,,,,00038,001,2026-01-16_23h03.09.394,MST_test,2024.2.0,59.876152171797564,2026-01-16 23h03.18.188864 +0530,
58,0,59,s,3.151038600015454,None,59,0,58,203.86168649999308,,,,,,,,,,,,,,,,,,,,,,,,,,,,,,,,,,,,,,,,,,,,,,,,,,203.84564459999092,203.86168649999308,204.36223299999256,204.3452805999841,204.35365899998578,204.36223299999256,204.36223299999256,204.36223299999256,207.52880770000047,Scenes\068a.jpg,mid,s,3.151038600015454,None,,,,,,,,00038,001,2026-01-16_23h03.09.394,MST_test,2024.2.0,59.876152171797564,2026-01-16 23h03.18.188864 +0530,
59,0,60,o,0.9484139000123832,None,60,0,59,207.5450145000068,,,,,,,,,,,,,,,,,,,,,,,,,,,,,,,,,,,,,,,,,,,,,,,,,,207.52890029997798,207.5450145000068,208.04549689998385,208.02860859999782,208.0315037999826,208.04549689998385,208.04549689998385,208.04549689998385,208.9955084999965,Objects\067a.jpg,mid,o,0.9484139000123832,None,,,,,,,,00038,001,2026-01-16_23h03.09.394,MST_test,2024.2.0,59.876152171797564,2026-01-16 23h03.18.188864 +0530,
60,0,61,n,0.7942576000059489,None,61,0,60,209.01168679998955,,,,,,,,,,,,,,,,,,,,,,,,,,,,,,,,,,,,,,,,,,,,,,,,,,208.9956009000016,209.01168679998955,209.51174269997864,209.49520549998851,209.4979301999847,209.51174269997864,209.51174269997864,209.51174269997864,210.31228389998432,Foils\009a.jpg,none,n,0.7942576000059489,None,,,,,,,,00038,001,2026-01-16_23h03.09.394,MST_test,2024.2.0,59.876152171797564,2026-01-16 23h03.18.188864 +0530,
61,0,62,n,1.0137698999897111,None,62,0,61,210.32834199999343,,,,,,,,,,,,,,,,,,,,,,,,,,,,,,,,,,,,,,,,,,,,,,,,,,210.31237410000176,210.32834199999343,210.8285246999876,210.81190739999874,210.8231079999823,210.8285246999876,210.8285246999876,210.8285246999876,211.84566419999464,Objects\187b.jpg,mid,n,1.0137698999897111,None,,,,,,,,00038,001,2026-01-16_23h03.09.394,MST_test,2024.2.0,59.876152171797564,2026-01-16 23h03.18.188864 +0530,
62,0,63,s,1.607946100004483,None,63,0,62,211.86168679999537,,,,,,,,,,,,,,,,,,,,,,,,,,,,,,,,,,,,,,,,,,,,,,,,,,211.84575690000202,211.86168679999537,212.36208839999745,212.34528959999443,212.35581629999797,212.36208839999745,212.36208839999745,212.36208839999745,213.97903739998583,Scenes\102a.jpg,pre,s,1.607946100004483,None,,,,,,,,00038,001,2026-01-16_23h03.09.394,MST_test,2024.2.0,59.876152171797564,2026-01-16 23h03.18.188864 +0530,
63,0,64,n,1.1777133999858052,None,64,0,63,213.99502899998333,,,,,,,,,,,,,,,,,,,,,,,,,,,,,,,,,,,,,,,,,,,,,,,,,,213.97912949998863,213.99502899998333,214.49554429997806,214.4786198999791,214.48564519998035,214.49554429997806,214.49554429997806,214.49554429997806,215.67895050000516,Scenes\069a.jpg,pre,n,1.1777133999858052,None,,,,,,,,00038,001,2026-01-16_23h03.09.394,MST_test,2024.2.0,59.876152171797564,2026-01-16 23h03.18.188864 +0530,
64,0,65,n,0.8782963000121526,None,65,0,64,215.69504259998212,,,,,,,,,,,,,,,,,,,,,,,,,,,,,,,,,,,,,,,,,,,,,,,,,,215.67904409999028,215.69504259998212,216.19535239998368,216.17883279998205,216.1911283999798,216.19535239998368,216.19535239998368,216.19535239998368,217.07891479998943,Foils\086a.jpg,none,n,0.8782963000121526,None,,,,,,,,00038,001,2026-01-16_23h03.09.394,MST_test,2024.2.0,59.876152171797564,2026-01-16 23h03.18.188864 +0530,
65,0,66,s,1.2620901000045706,None,66,0,65,217.09502209999482,,,,,,,,,,,,,,,,,,,,,,,,,,,,,,,,,,,,,,,,,,,,,,,,,,217.07900810000137,217.09502209999482,217.59517139999662,217.57859269998153,217.58768579998286,217.59517139999662,217.59517139999662,217.59517139999662,218.8623735999863,Objects\129b.jpg,post,s,1.2620901000045706,None,,,,,,,,00038,001,2026-01-16_23h03.09.394,MST_test,2024.2.0,59.876152171797564,2026-01-16 23h03.18.188864 +0530,
66,0,67,o,1.2633272999955807,None,67,0,66,218.87834149997798,,,,,,,,,,,,,,,,,,,,,,,,,,,,,,,,,,,,,,,,,,,,,,,,,,218.86246619999292,218.87834149997798,219.37882149999496,219.36194609999075,219.3712525999872,219.37882149999496,219.37882149999496,219.37882149999496,220.64572879998013,Scenes\189a.jpg,post,o,1.2633272999955807,None,,,,,,,,00038,001,2026-01-16_23h03.09.394,MST_test,2024.2.0,59.876152171797564,2026-01-16 23h03.18.188864 +0530,
67,0,68,n,1.0071113999874797,None,68,0,67,220.66197529999772,,,,,,,,,,,,,,,,,,,,,,,,,,,,,,,,,,,,,,,,,,,,,,,,,,220.6458297999925,220.66197529999772,221.16214979998767,221.1453576000058,221.15459659998305,221.16214979998767,221.16214979998767,221.16214979998767,222.17886689997977,Foils\121a.jpg,none,n,1.0071113999874797,None,,,,,,,,00038,001,2026-01-16_23h03.09.394,MST_test,2024.2.0,59.876152171797564,2026-01-16 23h03.18.188864 +0530,
68,0,69,n,0.8580044000118505,None,69,0,68,222.19500779997907,,,,,,,,,,,,,,,,,,,,,,,,,,,,,,,,,,,,,,,,,,,,,,,,,,222.17895729999873,222.19500779997907,222.69526479998603,222.678623099986,222.681079699978,222.69526479998603,222.69526479998603,222.69526479998603,223.56219070000225,Foils\020b.jpg,none,n,0.8580044000118505,None,,,,,,,,00038,001,2026-01-16_23h03.09.394,MST_test,2024.2.0,59.876152171797564,2026-01-16 23h03.18.188864 +0530,
69,0,70,s,2.405749500001548,None,70,0,69,223.57832659999258,,,,,,,,,,,,,,,,,,,,,,,,,,,,,,,,,,,,,,,,,,,,,,,,,,223.56229269999312,223.57832659999258,224.08395119998022,224.06175219998113,224.08165989999543,224.08395119998022,224.08395119998022,224.08395119998022,226.49560979998205,Scenes\034b.jpg,post,s,2.405749500001548,None,,,,,,,,00038,001,2026-01-16_23h03.09.394,MST_test,2024.2.0,59.876152171797564,2026-01-16 23h03.18.188864 +0530,
70,0,71,s,0.9809238000016194,None,71,0,70,226.5116304999974,,,,,,,,,,,,,,,,,,,,,,,,,,,,,,,,,,,,,,,,,,,,,,,,,,226.49570269999094,226.5116304999974,227.01246040000115,226.99525479998556,227.0070599000028,227.01246040000115,227.01246040000115,227.01246040000115,227.9956600999867,Scenes\023a.jpg,post,s,0.9809238000016194,None,,,,,,,,00038,001,2026-01-16_23h03.09.394,MST_test,2024.2.0,59.876152171797564,2026-01-16 23h03.18.188864 +0530,
71,0,72,n,1.8815838000155054,None,72,0,71,228.01169620000292,,,,,,,,,,,,,,,,,,,,,,,,,,,,,,,,,,,,,,,,,,,,,,,,,,227.99575339999865,228.01169620000292,228.51229630000307,228.49530729997787,228.5049766000011,228.51229630000307,228.51229630000307,228.51229630000307,230.3955472999951,Objects\069b.jpg,pre,n,1.8815838000155054,None,,,,,,,,00038,001,2026-01-16_23h03.09.394,MST_test,2024.2.0,59.876152171797564,2026-01-16 23h03.18.188864 +0530,
72,0,73,o,2.841225200012559,None,73,0,72,230.41168489999836,,,,,,,,,,,,,,,,,,,,,,,,,,,,,,,,,,,,,,,,,,,,,,,,,,230.39564069997869,230.41168489999836,230.91222860000562,230.89531579997856,230.90482460000203,230.91222860000562,230.91222860000562,230.91222860000562,233.76218999997946,Scenes\070a.jpg,pre,o,2.841225200012559,None,,,,,,,,00038,001,2026-01-16_23h03.09.394,MST_test,2024.2.0,59.876152171797564,2026-01-16 23h03.18.188864 +0530,
73,0,74,s,1.442979799991008,None,74,0,73,233.7781827999861,,,,,,,,,,,,,,,,,,,,,,,,,,,,,,,,,,,,,,,,,,,,,,,,,,233.76228259998607,233.7781827999861,234.27871049998794,234.26165859997855,234.26473689998966,234.27871049998794,234.27871049998794,234.27871049998794,235.72902410000097,Objects\088a.jpg,post,s,1.442979799991008,None,,,,,,,,00038,001,2026-01-16_23h03.09.394,MST_test,2024.2.0,59.876152171797564,2026-01-16 23h03.18.188864 +0530,
74,0,75,n,2.197495800006436,None,75,0,74,235.74494929998764,,,,,,,,,,,,,,,,,,,,,,,,,,,,,,,,,,,,,,,,,,,,,,,,,,235.7291217999882,235.74494929998764,236.24514689997886,236.22852370000328,236.23789920000127,236.24514689997886,236.24514689997886,236.24514689997886,238.4454599999881,Objects\014b.jpg,mid,n,2.197495800006436,None,,,,,,,,00038,001,2026-01-16_23h03.09.394,MST_test,2024.2.0,59.876152171797564,2026-01-16 23h03.18.188864 +0530,
75,0,76,s,3.4633990000002086,None,76,0,75,238.4614264999982,,,,,,,,,,,,,,,,,,,,,,,,,,,,,,,,,,,,,,,,,,,,,,,,,,238.4455913999991,238.4614264999982,238.96194300000207,238.94512839999516,238.95471339998767,238.96194300000207,238.96194300000207,238.96194300000207,242.42883210000582,Scenes\167a.jpg,post,s,3.4633990000002086,None,,,,,,,,00038,001,2026-01-16_23h03.09.394,MST_test,2024.2.0,59.876152171797564,2026-01-16 23h03.18.188864 +0530,
76,0,77,n,1.238255999982357,None,77,0,76,242.44492690000334,,,,,,,,,,,,,,,,,,,,,,,,,,,,,,,,,,,,,,,,,,,,,,,,,,242.42892209999263,242.44492690000334,242.94758379997802,242.92846569998073,242.94546429999173,242.94758379997802,242.94758379997802,242.94758379997802,244.19540169998072,Scenes\169b.jpg,post,n,1.238255999982357,None,,,,,,,,00038,001,2026-01-16_23h03.09.394,MST_test,2024.2.0,59.876152171797564,2026-01-16 23h03.18.188864 +0530,
77,0,78,s,1.2082869999867398,None,78,0,77,244.2115366999933,,,,,,,,,,,,,,,,,,,,,,,,,,,,,,,,,,,,,,,,,,,,,,,,,,244.19549250000273,244.2115366999933,244.71374760000617,244.6951341999811,244.7115344000049,244.71374760000617,244.71374760000617,244.71374760000617,245.92900139998528,Scenes\078b.jpg,mid,s,1.2082869999867398,None,,,,,,,,00038,001,2026-01-16_23h03.09.394,MST_test,2024.2.0,59.876152171797564,2026-01-16 23h03.18.188864 +0530,
78,0,79,s,1.0600324000115506,None,79,0,78,245.94493080000393,,,,,,,,,,,,,,,,,,,,,,,,,,,,,,,,,,,,,,,,,,,,,,,,,,245.9290970999864,245.94493080000393,246.4454648999963,246.4285333000007,246.43688619998284,246.4454648999963,246.4454648999963,246.4454648999963,247.51211529999273,Scenes\121b.jpg,mid,s,1.0600324000115506,None,,,,,,,,00038,001,2026-01-16_23h03.09.394,MST_test,2024.2.0,59.876152171797564,2026-01-16 23h03.18.188864 +0530,
79,0,80,s,1.1683934000029694,None,80,0,79,247.52827039998374,,,,,,,,,,,,,,,,,,,,,,,,,,,,,,,,,,,,,,,,,,,,,,,,,,247.5122066999902,247.52827039998374,248.03296549999504,248.01173999998719,248.03065919998335,248.03296549999504,248.03296549999504,248.03296549999504,249.21204889999353,Scenes\054b.jpg,mid,s,1.1683934000029694,None,,,,,,,,00038,001,2026-01-16_23h03.09.394,MST_test,2024.2.0,59.876152171797564,2026-01-16 23h03.18.188864 +0530,
80,0,81,n,1.0968061000166927,None,81,0,80,249.22827359999064,,,,,,,,,,,,,,,,,,,,,,,,,,,,,,,,,,,,,,,,,,,,,,,,,,249.21214069999405,249.22827359999064,249.72869839999476,249.71177470000111,249.72179919999326,249.72869839999476,249.72869839999476,249.72869839999476,250.8288426999934,Objects\105b.jpg,post,n,1.0968061000166927,None,,,,,,,,00038,001,2026-01-16_23h03.09.394,MST_test,2024.2.0,59.876152171797564,2026-01-16 23h03.18.188864 +0530,
81,0,82,s,0.7535805999941658,None,82,0,81,250.84489350000513,,,,,,,,,,,,,,,,,,,,,,,,,,,,,,,,,,,,,,,,,,,,,,,,,,250.8289337999886,250.84489350000513,251.34513969998807,251.32853269999032,251.33080349999364,251.34513969998807,251.34513969998807,251.34513969998807,252.11204439998255,Objects\006a.jpg,mid,s,0.7535805999941658,None,,,,,,,,00038,001,2026-01-16_23h03.09.394,MST_test,2024.2.0,59.876152171797564,2026-01-16 23h03.18.188864 +0530,
82,0,83,s,1.9089271999837365,None,83,0,82,252.12827560000005,,,,,,,,,,,,,,,,,,,,,,,,,,,,,,,,,,,,,,,,,,,,,,,,,,252.11213409999618,252.12827560000005,252.62841770000523,252.61174039999605,252.61422059999313,252.62841770000523,252.62841770000523,252.62841770000523,254.54551090000314,Objects\154a.jpg,pre,s,1.9089271999837365,None,,,,,,,,00038,001,2026-01-16_23h03.09.394,MST_test,2024.2.0,59.876152171797564,2026-01-16 23h03.18.188864 +0530,
83,0,84,s,0.8436767999955919,None,84,0,83,254.56148119998397,,,,,,,,,,,,,,,,,,,,,,,,,,,,,,,,,,,,,,,,,,,,,,,,,,254.54560009998386,254.56148119998397,255.0616549999977,255.04528940000455,255.05455999998958,255.0616549999977,255.0616549999977,255.0616549999977,255.91205499999342,Objects\077b.jpg,post,s,0.8436767999955919,None,,,,,,,,00038,001,2026-01-16_23h03.09.394,MST_test,2024.2.0,59.876152171797564,2026-01-16 23h03.18.188864 +0530,
84,0,85,s,1.9727579999889713,None,85,0,84,255.92827609999222,,,,,,,,,,,,,,,,,,,,,,,,,,,,,,,,,,,,,,,,,,,,,,,,,,255.91215039999224,255.92827609999222,256.4287500999926,256.41180060000625,256.4259395999834,256.4287500999926,256.4287500999926,256.4287500999926,258.4120270999847,Scenes\177b.jpg,mid,s,1.9727579999889713,None,,,,,,,,00038,001,2026-01-16_23h03.09.394,MST_test,2024.2.0,59.876152171797564,2026-01-16 23h03.18.188864 +0530,
85,0,86,n,1.1446287000144366,None,86,0,85,258.4282693999994,,,,,,,,,,,,,,,,,,,,,,,,,,,,,,,,,,,,,,,,,,,,,,,,,,258.41211539998767,258.4282693999994,258.92871429998195,258.91166889999295,258.9220679999853,258.92871429998195,258.92871429998195,258.92871429998195,260.0788716999814,Objects\080b.jpg,pre,n,1.1446287000144366,None,,,,,,,,00038,001,2026-01-16_23h03.09.394,MST_test,2024.2.0,59.876152171797564,2026-01-16 23h03.18.188864 +0530,
86,0,87,s,1.3905435999913607,None,87,0,86,260.09494779998204,,,,,,,,,,,,,,,,,,,,,,,,,,,,,,,,,,,,,,,,,,,,,,,,,,260.078966400004,260.09494779998204,260.59514980000677,260.57845219998853,260.58093309999094,260.59514980000677,260.59514980000677,260.59514980000677,261.9957152999996,Objects\103a.jpg,mid,s,1.3905435999913607,None,,,,,,,,00038,001,2026-01-16_23h03.09.394,MST_test,2024.2.0,59.876152171797564,2026-01-16 23h03.18.188864 +0530,
87,0,88,s,0.7543957999732811,None,88,0,87,262.01162109998404,,,,,,,,,,,,,,,,,,,,,,,,,,,,,,,,,,,,,,,,,,,,,,,,,,261.99581569997827,262.01162109998404,262.511757500004,262.49518810000154,262.5044474999886,262.511757500004,262.511757500004,262.511757500004,263.27879949999624,Objects\178b.jpg,pre,s,0.7543957999732811,None,,,,,,,,00038,001,2026-01-16_23h03.09.394,MST_test,2024.2.0,59.876152171797564,2026-01-16 23h03.18.188864 +0530,
88,0,89,n,1.526265799999237,None,89,0,88,263.29494560000603,,,,,,,,,,,,,,,,,,,,,,,,,,,,,,,,,,,,,,,,,,,,,,,,,,263.27889469999354,263.29494560000603,263.7954252999916,263.7784526000032,263.78653049998684,263.7954252999916,263.7954252999916,263.7954252999916,265.32886119998875,Scenes\112a.jpg,mid,n,1.526265799999237,None,,,,,,,,00038,001,2026-01-16_23h03.09.394,MST_test,2024.2.0,59.876152171797564,2026-01-16 23h03.18.188864 +0530,
89,0,90,s,1.0039008999883663,None,90,0,89,265.34486699997797,,,,,,,,,,,,,,,,,,,,,,,,,,,,,,,,,,,,,,,,,,,,,,,,,,265.32895359999384,265.34486699997797,265.84544659999665,265.8287652999861,265.8315512999834,265.84544659999665,265.84544659999665,265.84544659999665,266.8620452999894,Objects\087a.jpg,mid,s,1.0039008999883663,None,,,,,,,,00038,001,2026-01-16_23h03.09.394,MST_test,2024.2.0,59.876152171797564,2026-01-16 23h03.18.188864 +0530,
90,0,91,s,1.1109689000004437,None,91,0,90,266.87822899999446,,,,,,,,,,,,,,,,,,,,,,,,,,,,,,,,,,,,,,,,,,,,,,,,,,266.86213759999373,266.87822899999446,267.37846809998155,267.361794299999,267.36430960000143,267.37846809998155,267.37846809998155,267.37846809998155,268.49559399997815,Objects\035a.jpg,mid,s,1.1109689000004437,None,,,,,,,,00038,001,2026-01-16_23h03.09.394,MST_test,2024.2.0,59.876152171797564,2026-01-16 23h03.18.188864 +0530,
91,0,92,n,1.326039999985369,None,92,0,91,268.5114449999819,,,,,,,,,,,,,,,,,,,,,,,,,,,,,,,,,,,,,,,,,,,,,,,,,,268.4956841999956,268.5114449999819,269.011722700001,268.995130299998,269.0038924999826,269.011722700001,269.011722700001,269.011722700001,270.34557780000614,Foils\018a.jpg,none,n,1.326039999985369,None,,,,,,,,00038,001,2026-01-16_23h03.09.394,MST_test,2024.2.0,59.876152171797564,2026-01-16 23h03.18.188864 +0530,
92,0,93,o,1.2512634999875445,None,93,0,92,270.36161729999003,,,,,,,,,,,,,,,,,,,,,,,,,,,,,,,,,,,,,,,,,,,,,,,,,,270.3456792999932,270.36161729999003,270.8620547000028,270.84515859998646,270.8542493999994,270.8620547000028,270.8620547000028,270.8620547000028,272.1288044999819,Scenes\149a.jpg,mid,o,1.2512634999875445,None,,,,,,,,00038,001,2026-01-16_23h03.09.394,MST_test,2024.2.0,59.876152171797564,2026-01-16 23h03.18.188864 +0530,
93,0,94,n,1.1077362000069115,None,94,0,93,272.14493340000627,,,,,,,,,,,,,,,,,,,,,,,,,,,,,,,,,,,,,,,,,,,,,,,,,,272.12889469999936,272.14493340000627,272.64585840000655,272.6286661000049,272.64032189999125,272.64585840000655,272.64585840000655,272.64585840000655,273.76210749999154,Foils\105a.jpg,none,n,1.1077362000069115,None,,,,,,,,00038,001,2026-01-16_23h03.09.394,MST_test,2024.2.0,59.876152171797564,2026-01-16 23h03.18.188864 +0530,
94,0,95,s,1.0995617000153288,None,95,0,94,273.7782787999895,,,,,,,,,,,,,,,,,,,,,,,,,,,,,,,,,,,,,,,,,,,,,,,,,,273.7621996999951,273.7782787999895,274.2784425999853,274.26169139999547,274.26415529998485,274.2784425999853,274.2784425999853,274.2784425999853,275.37883289999445,Objects\070a.jpg,mid,s,1.0995617000153288,None,,,,,,,,00038,001,2026-01-16_23h03.09.394,MST_test,2024.2.0,59.876152171797564,2026-01-16 23h03.18.188864 +0530,
95,0,96,n,1.1223062000062782,None,96,0,95,275.3950058000046,,,,,,,,,,,,,,,,,,,,,,,,,,,,,,,,,,,,,,,,,,,,,,,,,,275.37925929998164,275.3950058000046,275.8953709999914,275.8785110999888,275.8883310999954,275.8953709999914,275.8953709999914,275.8953709999914,277.02887549999286,Scenes\022b.jpg,mid,n,1.1223062000062782,None,,,,,,,,00038,001,2026-01-16_23h03.09.394,MST_test,2024.2.0,59.876152171797564,2026-01-16 23h03.18.188864 +0530,
96,0,97,s,0.9124426000053063,None,97,0,96,277.0448802000028,,,,,,,,,,,,,,,,,,,,,,,,,,,,,,,,,,,,,,,,,,,,,,,,,,277.0289703999879,277.0448802000028,277.5452876999916,277.5284388999862,277.5384001999919,277.5452876999916,277.5452876999916,277.5452876999916,278.46202969999285,Objects\157b.jpg,pre,s,0.9124426000053063,None,,,,,,,,00038,001,2026-01-16_23h03.09.394,MST_test,2024.2.0,59.876152171797564,2026-01-16 23h03.18.188864 +0530,
97,0,98,o,0.94425030000275,None,98,0,97,278.47827619998134,,,,,,,,,,,,,,,,,,,,,,,,,,,,,,,,,,,,,,,,,,,,,,,,,,278.46212099998957,278.47827619998134,278.9784788999823,278.96169719999307,278.9640592999931,278.9784788999823,278.9784788999823,278.9784788999823,279.9288535999949,Objects\114a.jpg,pre,o,0.94425030000275,None,,,,,,,,00038,001,2026-01-16_23h03.09.394,MST_test,2024.2.0,59.876152171797564,2026-01-16 23h03.18.188864 +0530,
98,0,99,s,1.0925974000128917,None,99,0,98,279.94503529998474,,,,,,,,,,,,,,,,,,,,,,,,,,,,,,,,,,,,,,,,,,,,,,,,,,279.92894149999483,279.94503529998474,280.44536670000525,280.42855359998066,280.43065289998776,280.44536670000525,280.44536670000525,280.44536670000525,281.5454592999886,Foils\scenes3.jpg,none,s,1.0925974000128917,None,,,,,,,,00038,001,2026-01-16_23h03.09.394,MST_test,2024.2.0,59.876152171797564,2026-01-16 23h03.18.188864 +0530,
99,0,100,o,4.236502499989001,None,100,0,99,281.56169129998307,,,,,,,,,,,,,,,,,,,,,,,,,,,,,,,,,,,,,,,,,,,,,,,,,,281.54554969997844,281.56169129998307,282.0617558999802,282.0454529999988,282.0483995999966,282.0617558999802,282.0617558999802,282.0617558999802,286.3121648999804,Objects\081a.jpg,post,o,4.236502499989001,None,,,,,,,,00038,001,2026-01-16_23h03.09.394,MST_test,2024.2.0,59.876152171797564,2026-01-16 23h03.18.188864 +0530,
100,0,101,n,1.2054452000011224,None,101,0,100,286.3283148999908,,,,,,,,,,,,,,,,,,,,,,,,,,,,,,,,,,,,,,,,,,,,,,,,,,286.3122582999931,286.3283148999908,286.8286558999971,286.8118350000004,286.81391460000305,286.8286558999971,286.8286558999971,286.8286558999971,288.0455228999781,Foils\scenes20.jpg,none,n,1.2054452000011224,None,,,,,,,,00038,001,2026-01-16_23h03.09.394,MST_test,2024.2.0,59.876152171797564,2026-01-16 23h03.18.188864 +0530,
101,0,102,n,1.398457100003725,None,102,0,101,288.0615473999933,,,,,,,,,,,,,,,,,,,,,,,,,,,,,,,,,,,,,,,,,,,,,,,,,,288.04561199998716,288.0615473999933,288.56320589999086,288.54528219997883,288.56090789998416,288.56320589999086,288.56320589999086,288.56320589999086,289.9623492999817,Scenes\162b.jpg,post,n,1.398457100003725,None,,,,,,,,00038,001,2026-01-16_23h03.09.394,MST_test,2024.2.0,59.876152171797564,2026-01-16 23h03.18.188864 +0530,
102,0,103,n,0.643725900008576,None,103,0,102,289.97831239999505,,,,,,,,,,,,,,,,,,,,,,,,,,,,,,,,,,,,,,,,,,,,,,,,,,289.9624390999961,289.97831239999505,290.4788445000013,290.46186619999935,290.4651282999839,290.4788445000013,290.4788445000013,290.4788445000013,291.1290389999922,Foils\042a.jpg,none,n,0.643725900008576,None,,,,,,,,00038,001,2026-01-16_23h03.09.394,MST_test,2024.2.0,59.876152171797564,2026-01-16 23h03.18.188864 +0530,
103,0,104,n,0.6686805999779608,None,104,0,103,291.1449789000035,,,,,,,,,,,,,,,,,,,,,,,,,,,,,,,,,,,,,,,,,,,,,,,,,,291.1291367999802,291.1449789000035,291.6453990000009,291.6285506999993,291.6425443000044,291.6453990000009,291.6453990000009,291.6453990000009,292.32874810000067,Foils\scenes27.jpg,none,n,0.6686805999779608,None,,,,,,,,00038,001,2026-01-16_23h03.09.394,MST_test,2024.2.0,59.876152171797564,2026-01-16 23h03.18.188864 +0530,
104,0,105,n,1.4198636999935843,None,105,0,104,292.34494539999287,,,,,,,,,,,,,,,,,,,,,,,,,,,,,,,,,,,,,,,,,,,,,,,,,,292.3288372999814,292.34494539999287,292.8455508000043,292.828480199998,292.84257219999563,292.8455508000043,292.8455508000043,292.8455508000043,294.2788786999881,Scenes\182b.jpg,post,n,1.4198636999935843,None,,,,,,,,00038,001,2026-01-16_23h03.09.394,MST_test,2024.2.0,59.876152171797564,2026-01-16 23h03.18.188864 +0530,
105,0,106,o,2.0297910000081174,None,106,0,105,294.29505889999564,,,,,,,,,,,,,,,,,,,,,,,,,,,,,,,,,,,,,,,,,,,,,,,,,,294.2789702999871,294.29505889999564,294.7955149000045,294.77867759999936,294.78180219998467,294.7955149000045,294.7955149000045,294.7955149000045,296.82891240000026,Objects\148a.jpg,post,o,2.0297910000081174,None,,,,,,,,00038,001,2026-01-16_23h03.09.394,MST_test,2024.2.0,59.876152171797564,2026-01-16 23h03.18.188864 +0530,
106,0,107,s,1.1603159000223968,None,107,0,106,296.8450557999895,,,,,,,,,,,,,,,,,,,,,,,,,,,,,,,,,,,,,,,,,,,,,,,,,,296.82900199998403,296.8450557999895,297.34556329998304,297.32887359999586,297.3379253000021,297.34556329998304,297.34556329998304,297.34556329998304,298.5121352999995,Scenes\040a.jpg,post,s,1.1603159000223968,None,,,,,,,,00038,001,2026-01-16_23h03.09.394,MST_test,2024.2.0,59.876152171797564,2026-01-16 23h03.18.188864 +0530,
107,0,108,s,1.012745799991535,None,108,0,107,298.528221399989,,,,,,,,,,,,,,,,,,,,,,,,,,,,,,,,,,,,,,,,,,,,,,,,,,298.5122250999848,298.528221399989,299.0287965000025,299.0118656999839,299.01482389998273,299.0287965000025,299.0287965000025,299.0287965000025,300.04568710000603,Objects\062b.jpg,post,s,1.012745799991535,None,,,,,,,,00038,001,2026-01-16_23h03.09.394,MST_test,2024.2.0,59.876152171797564,2026-01-16 23h03.18.188864 +0530,
108,0,109,n,0.9531309000158217,None,109,0,108,300.0616463999904,,,,,,,,,,,,,,,,,,,,,,,,,,,,,,,,,,,,,,,,,,,,,,,,,,300.04577810000046,300.0616463999904,300.5617702000018,300.5453531999956,300.5478927999793,300.5617702000018,300.5617702000018,300.5617702000018,301.52896529997815,Foils\049a.jpg,none,n,0.9531309000158217,None,,,,,,,,00038,001,2026-01-16_23h03.09.394,MST_test,2024.2.0,59.876152171797564,2026-01-16 23h03.18.188864 +0530,
109,0,110,n,1.2277763999882154,None,110,0,109,301.54502520000096,,,,,,,,,,,,,,,,,,,,,,,,,,,,,,,,,,,,,,,,,,,,,,,,,,301.52905459998874,301.54502520000096,302.045624099992,302.0286288999778,302.03436599997804,302.045624099992,302.045624099992,302.045624099992,303.2789786999929,Scenes\091a.jpg,post,n,1.2277763999882154,None,,,,,,,,00038,001,2026-01-16_23h03.09.394,MST_test,2024.2.0,59.876152171797564,2026-01-16 23h03.18.188864 +0530,
110,0,111,n,3.5185923000099137,None,111,0,110,303.2950561000034,,,,,,,,,,,,,,,,,,,,,,,,,,,,,,,,,,,,,,,,,,,,,,,,,,303.2790676000004,303.2950561000034,303.79546609998215,303.7786094000039,303.78147940000053,303.79546609998215,303.79546609998215,303.79546609998215,307.3290654000011,Objects\028a.jpg,post,n,3.5185923000099137,None,,,,,,,,00038,001,2026-01-16_23h03.09.394,MST_test,2024.2.0,59.876152171797564,2026-01-16 23h03.18.188864 +0530,
111,0,112,n,1.1241867000062484,None,112,0,111,307.3449323999812,,,,,,,,,,,,,,,,,,,,,,,,,,,,,,,,,,,,,,,,,,,,,,,,,,307.329164099996,307.3449323999812,307.84528359997785,307.8286015999911,307.83836110000266,307.84528359997785,307.84528359997785,307.84528359997785,308.9789562999795,Foils\066a.jpg,none,n,1.1241867000062484,None,,,,,,,,00038,001,2026-01-16_23h03.09.394,MST_test,2024.2.0,59.876152171797564,2026-01-16 23h03.18.188864 +0530,
112,0,113,s,0.993934400001308,None,113,0,112,308.9950683999923,,,,,,,,,,,,,,,,,,,,,,,,,,,,,,,,,,,,,,,,,,,,,,,,,,308.9790452999878,308.9950683999923,309.49555749999126,309.4786051999836,309.4855300000054,309.49555749999126,309.49555749999126,309.49555749999126,310.4957974999852,Scenes\126b.jpg,mid,s,0.993934400001308,None,,,,,,,,00038,001,2026-01-16_23h03.09.394,MST_test,2024.2.0,59.876152171797564,2026-01-16 23h03.18.188864 +0530,
113,0,114,s,0.9318914999894332,None,114,0,113,310.5117101999931,,,,,,,,,,,,,,,,,,,,,,,,,,,,,,,,,,,,,,,,,,,,,,,,,,310.4958864999935,310.5117101999931,311.0137071000063,310.9953151999798,311.011494699982,311.0137071000063,311.0137071000063,311.0137071000063,311.96217869999236,Scenes\101b.jpg,post,s,0.9318914999894332,None,,,,,,,,00038,001,2026-01-16_23h03.09.394,MST_test,2024.2.0,59.876152171797564,2026-01-16 23h03.18.188864 +0530,
114,0,115,s,0.754574299993692,None,115,0,114,311.9782738999929,,,,,,,,,,,,,,,,,,,,,,,,,,,,,,,,,,,,,,,,,,,,,,,,,,311.9622756000026,311.9782738999929,312.47896569999284,312.4619240000029,312.4713403999922,312.47896569999284,312.47896569999284,312.47896569999284,313.2456196999992,Objects\173b.jpg,post,s,0.754574299993692,None,,,,,,,,00038,001,2026-01-16_23h03.09.394,MST_test,2024.2.0,59.876152171797564,2026-01-16 23h03.18.188864 +0530,
115,0,116,s,1.0057715000002645,None,116,0,115,313.2616216999886,,,,,,,,,,,,,,,,,,,,,,,,,,,,,,,,,,,,,,,,,,,,,,,,,,313.24570989998756,313.2616216999886,313.7635183999955,313.7453056999948,313.7613241999934,313.7635183999955,313.7635183999955,313.7635183999955,314.7788507999794,Scenes\172b.jpg,pre,s,1.0057715000002645,None,,,,,,,,00038,001,2026-01-16_23h03.09.394,MST_test,2024.2.0,59.876152171797564,2026-01-16 23h03.18.188864 +0530,
116,0,117,s,1.2344149999844376,None,117,0,116,314.7950584999926,,,,,,,,,,,,,,,,,,,,,,,,,,,,,,,,,,,,,,,,,,,,,,,,,,314.7789425999799,314.7950584999926,315.29554969997844,315.2786502999952,315.2885173999821,315.29554969997844,315.29554969997844,315.29554969997844,316.54569279999123,Objects\002b.jpg,mid,s,1.2344149999844376,None,,,,,,,,00038,001,2026-01-16_23h03.09.394,MST_test,2024.2.0,59.876152171797564,2026-01-16 23h03.18.188864 +0530,
117,0,118,s,1.4278095999907237,None,118,0,117,316.56148449998,,,,,,,,,,,,,,,,,,,,,,,,,,,,,,,,,,,,,,,,,,,,,,,,,,316.54579649999505,316.56148449998,317.06225689998246,317.045217899984,317.0506565999822,317.06225689998246,317.06225689998246,317.06225689998246,318.4956353000016,Scenes\163a.jpg,pre,s,1.4278095999907237,None,,,,,,,,00038,001,2026-01-16_23h03.09.394,MST_test,2024.2.0,59.876152171797564,2026-01-16 23h03.18.188864 +0530,
118,0,119,n,1.4452499000180978,None,119,0,118,318.5117124999815,,,,,,,,,,,,,,,,,,,,,,,,,,,,,,,,,,,,,,,,,,,,,,,,,,318.49572469998384,318.5117124999815,319.01225289999275,318.99518579998403,319.0071445000067,319.01225289999275,319.01225289999275,319.01225289999275,320.4622515999945,Scenes\147b.jpg,post,n,1.4452499000180978,None,,,,,,,,00038,001,2026-01-16_23h03.09.394,MST_test,2024.2.0,59.876152171797564,2026-01-16 23h03.18.188864 +0530,
119,0,120,n,0.84724780000397,None,120,0,119,320.478297499998,,,,,,,,,,,,,,,,,,,,,,,,,,,,,,,,,,,,,,,,,,,,,,,,,,320.46234919998096,320.478297499998,320.978852500004,320.96198309998726,320.97144709998975,320.978852500004,320.978852500004,320.978852500004,321.82887850000407,Foils\082a.jpg,none,n,0.84724780000397,None,,,,,,,,00038,001,2026-01-16_23h03.09.394,MST_test,2024.2.0,59.876152171797564,2026-01-16 23h03.18.188864 +0530,
120,0,121,n,0.9134324000042398,None,121,0,120,321.8450743999856,,,,,,,,,,,,,,,,,,,,,,,,,,,,,,,,,,,,,,,,,,,,,,,,,,321.82897040000535,321.8450743999856,322.34543519999715,322.3286426999839,322.3307575999934,322.34543519999715,322.34543519999715,322.34543519999715,323.26225989998784,Foils\scenes19.jpg,none,n,0.9134324000042398,None,,,,,,,,00038,001,2026-01-16_23h03.09.394,MST_test,2024.2.0,59.876152171797564,2026-01-16 23h03.18.188864 +0530,
121,0,122,s,1.0556596999813337,None,122,0,121,323.27829909999855,,,,,,,,,,,,,,,,,,,,,,,,,,,,,,,,,,,,,,,,,,,,,,,,,,323.26235039997846,323.27829909999855,324.0256270999962,323.76180579999345,324.0215815999836,324.0256270999962,324.0256270999962,324.0256270999962,325.09561789999134,Foils\scenes26.jpg,none,s,1.0556596999813337,None,,,,,,,,00038,001,2026-01-16_23h03.09.394,MST_test,2024.2.0,59.876152171797564,2026-01-16 23h03.18.188864 +0530,
122,0,123,n,0.8180556000152137,None,123,0,122,325.11155719999806,,,,,,,,,,,,,,,,,,,,,,,,,,,,,,,,,,,,,,,,,,,,,,,,,,325.0957070000004,325.11155719999806,325.6312489999982,325.5951926999842,325.6294590999896,325.6312489999982,325.6312489999982,325.6312489999982,326.46215439998196,Foils\002a.jpg,none,n,0.8180556000152137,None,,,,,,,,00038,001,2026-01-16_23h03.09.394,MST_test,2024.2.0,59.876152171797564,2026-01-16 23h03.18.188864 +0530,
123,0,124,s,1.8071919999783859,None,124,0,123,326.47813049997785,,,,,,,,,,,,,,,,,,,,,,,,,,,,,,,,,,,,,,,,,,,,,,,,,,326.4622556999966,326.47813049997785,326.978738899983,326.96186459998717,326.97201110000606,326.978738899983,326.978738899983,326.978738899983,328.795673399989,Scenes\059a.jpg,post,s,1.8071919999783859,None,,,,,,,,00038,001,2026-01-16_23h03.09.394,MST_test,2024.2.0,59.876152171797564,2026-01-16 23h03.18.188864 +0530,
124,0,125,n,1.3721872000023723,None,125,0,124,328.8116890999954,,,,,,,,,,,,,,,,,,,,,,,,,,,,,,,,,,,,,,,,,,,,,,,,,,328.7957694999932,328.8116890999954,329.317161199986,329.29525530000683,329.31469359999755,329.317161199986,329.317161199986,329.317161199986,330.6955711999908,Scenes\066b.jpg,pre,n,1.3721872000023723,None,,,,,,,,00038,001,2026-01-16_23h03.09.394,MST_test,2024.2.0,59.876152171797564,2026-01-16 23h03.18.188864 +0530,
125,0,126,n,1.8775435999850743,None,126,0,125,330.71161009999923,,,,,,,,,,,,,,,,,,,,,,,,,,,,,,,,,,,,,,,,,,,,,,,,,,330.6956608000037,330.71161009999923,331.212295299978,331.1952364000026,331.1974172999908,331.212295299978,331.212295299978,331.212295299978,333.09573430000455,Foils\scenes18.jpg,none,n,1.8775435999850743,None,,,,,,,,00038,001,2026-01-16_23h03.09.394,MST_test,2024.2.0,59.876152171797564,2026-01-16 23h03.18.188864 +0530,
126,0,127,s,1.7419880999950692,None,127,0,126,333.1116634999926,,,,,,,,,,,,,,,,,,,,,,,,,,,,,,,,,,,,,,,,,,,,,,,,,,333.0958376000053,333.1116634999926,333.6120583000011,333.5953054999991,333.6068883999833,333.6120583000011,333.6120583000011,333.6120583000011,335.36226219998207,Objects\086b.jpg,pre,s,1.7419880999950692,None,,,,,,,,00038,001,2026-01-16_23h03.09.394,MST_test,2024.2.0,59.876152171797564,2026-01-16 23h03.18.188864 +0530,
127,0,128,n,1.0106373000016902,None,128,0,127,335.37817680000444,,,,,,,,,,,,,,,,,,,,,,,,,,,,,,,,,,,,,,,,,,,,,,,,,,335.3623532000056,335.37817680000444,335.8786686999956,335.86189169998397,335.86512760000187,335.8786686999956,335.8786686999956,335.8786686999956,336.8955702999956,Scenes\033b.jpg,pre,n,1.0106373000016902,None,,,,,,,,00038,001,2026-01-16_23h03.09.394,MST_test,2024.2.0,59.876152171797564,2026-01-16 23h03.18.188864 +0530,
128,0,129,n,0.6779877000080887,None,129,0,128,336.9116104999848,,,,,,,,,,,,,,,,,,,,,,,,,,,,,,,,,,,,,,,,,,,,,,,,,,336.89566119998926,336.9116104999848,337.4119683000026,337.3952269000001,337.39750649998314,337.4119683000026,337.4119683000026,337.4119683000026,338.09547139998176,Foils\scenes4.jpg,none,n,0.6779877000080887,None,,,,,,,,00038,001,2026-01-16_23h03.09.394,MST_test,2024.2.0,59.876152171797564,2026-01-16 23h03.18.188864 +0530,
129,0,130,s,1.2059172999870498,None,130,0,129,338.1116214999929,,,,,,,,,,,,,,,,,,,,,,,,,,,,,,,,,,,,,,,,,,,,,,,,,,338.0955626000068,338.1116214999929,338.61200709998957,338.5952081999858,338.6032548999938,338.61200709998957,338.61200709998957,338.61200709998957,339.8288662999985,Scenes\138a.jpg,mid,s,1.2059172999870498,None,,,,,,,,00038,001,2026-01-16_23h03.09.394,MST_test,2024.2.0,59.876152171797564,2026-01-16 23h03.18.188864 +0530,
130,0,131,o,2.7039842999947723,None,131,0,130,339.8449763999961,,,,,,,,,,,,,,,,,,,,,,,,,,,,,,,,,,,,,,,,,,,,,,,,,,339.82895850000205,339.8449763999961,340.34554749997915,340.32843219998176,340.3387984999863,340.34554749997915,340.34554749997915,340.34554749997915,343.06212029999006,Objects\166b.jpg,pre,o,2.7039842999947723,None,,,,,,,,00038,001,2026-01-16_23h03.09.394,MST_test,2024.2.0,59.876152171797564,2026-01-16 23h03.18.188864 +0530,
131,0,132,n,1.299927399988519,None,132,0,131,343.0782357999997,,,,,,,,,,,,,,,,,,,,,,,,,,,,,,,,,,,,,,,,,,,,,,,,,,343.06221730000107,343.0782357999997,343.5817763999803,343.5619172999868,343.5795406999823,343.5817763999803,343.5817763999803,343.5817763999803,344.895515399985,Scenes\125b.jpg,post,n,1.299927399988519,None,,,,,,,,00038,001,2026-01-16_23h03.09.394,MST_test,2024.2.0,59.876152171797564,2026-01-16 23h03.18.188864 +0530,
132,0,133,s,1.0700187000038568,None,133,0,132,344.91166529999464,,,,,,,,,,,,,,,,,,,,,,,,,,,,,,,,,,,,,,,,,,,,,,,,,,344.89561469998443,344.91166529999464,345.4122631000064,345.39521079999395,345.4074718999909,345.4122631000064,345.4122631000064,345.4122631000064,346.49546459998237,Scenes\118b.jpg,post,s,1.0700187000038568,None,,,,,,,,00038,001,2026-01-16_23h03.09.394,MST_test,2024.2.0,59.876152171797564,2026-01-16 23h03.18.188864 +0530,
133,0,134,s,0.9949493999883998,None,134,0,133,346.51157400000375,,,,,,,,,,,,,,,,,,,,,,,,,,,,,,,,,,,,,,,,,,,,,,,,,,346.4955599999812,346.51157400000375,347.0144792999781,346.99515599998995,347.0122985999915,347.0144792999781,347.0144792999781,347.0144792999781,348.01210769999307,Scenes\120b.jpg,mid,s,0.9949493999883998,None,,,,,,,,00038,001,2026-01-16_23h03.09.394,MST_test,2024.2.0,59.876152171797564,2026-01-16 23h03.18.188864 +0530,
134,0,135,s,1.0245676999911666,None,135,0,134,348.02824499999406,,,,,,,,,,,,,,,,,,,,,,,,,,,,,,,,,,,,,,,,,,,,,,,,,,348.01219909999054,348.02824499999406,348.528725799988,348.51191760000074,348.5262249999796,348.528725799988,348.528725799988,348.528725799988,349.5622000999865,Scenes\155b.jpg,mid,s,1.0245676999911666,None,,,,,,,,00038,001,2026-01-16_23h03.09.394,MST_test,2024.2.0,59.876152171797564,2026-01-16 23h03.18.188864 +0530,
135,0,136,n,1.2831751000194345,None,136,0,135,349.57814759999746,,,,,,,,,,,,,,,,,,,,,,,,,,,,,,,,,,,,,,,,,,,,,,,,,,349.5622989999829,349.57814759999746,350.07892249998986,350.0618969000061,350.0720022000023,350.07892249998986,350.07892249998986,350.07892249998986,351.37866399998893,Objects\188b.jpg,pre,n,1.2831751000194345,None,,,,,,,,00038,001,2026-01-16_23h03.09.394,MST_test,2024.2.0,59.876152171797564,2026-01-16 23h03.18.188864 +0530,
136,0,137,o,0.8180694000038784,None,137,0,136,351.39496549998876,,,,,,,,,,,,,,,,,,,,,,,,,,,,,,,,,,,,,,,,,,,,,,,,,,351.37875859998167,351.39496549998876,351.8951795999892,351.8785225999891,351.88091999999597,351.8951795999892,351.8951795999892,351.8951795999892,352.7286201999814,Objects\005a.jpg,mid,o,0.8180694000038784,None,,,,,,,,00038,001,2026-01-16_23h03.09.394,MST_test,2024.2.0,59.876152171797564,2026-01-16 23h03.18.188864 +0530,
137,0,138,s,0.8984687999763992,None,138,0,137,352.74491049998323,,,,,,,,,,,,,,,,,,,,,,,,,,,,,,,,,,,,,,,,,,,,,,,,,,352.728714900004,352.74491049998323,353.2471324999933,353.22861019999254,353.2446323999902,353.2471324999933,353.2471324999933,353.2471324999933,354.1622895000037,Scenes\093b.jpg,pre,s,0.8984687999763992,None,,,,,,,,00038,001,2026-01-16_23h03.09.394,MST_test,2024.2.0,59.876152171797564,2026-01-16 23h03.18.188864 +0530,
138,0,139,s,1.6906649000011384,None,139,0,138,354.1780642999802,,,,,,,,,,,,,,,,,,,,,,,,,,,,,,,,,,,,,,,,,,,,,,,,,,354.16238120000344,354.1780642999802,354.6788140999852,354.6618550999847,354.66814039999736,354.6788140999852,354.6788140999852,354.6788140999852,356.3788033000019,Scenes\186a.jpg,mid,s,1.6906649000011384,None,,,,,,,,00038,001,2026-01-16_23h03.09.394,MST_test,2024.2.0,59.876152171797564,2026-01-16 23h03.18.188864 +0530,
139,0,140,n,0.9708912000060081,None,140,0,139,356.3949668999994,,,,,,,,,,,,,,,,,,,,,,,,,,,,,,,,,,,,,,,,,,,,,,,,,,356.37889859999996,356.3949668999994,356.89521289998083,356.87847460000194,356.88320119999116,356.89521289998083,356.89521289998083,356.89521289998083,357.87871359998826,Scenes\079b.jpg,pre,n,0.9708912000060081,None,,,,,,,,00038,001,2026-01-16_23h03.09.394,MST_test,2024.2.0,59.876152171797564,2026-01-16 23h03.18.188864 +0530,
140,0,141,n,1.2539982000016607,None,141,0,140,357.8950132000027,,,,,,,,,,,,,,,,,,,,,,,,,,,,,,,,,,,,,,,,,,,,,,,,,,357.8788042999804,357.8950132000027,358.3954708999954,358.37851029998274,358.3885629999859,358.3954708999954,358.3954708999954,358.3954708999954,359.662110699981,Objects\132b.jpg,post,n,1.2539982000016607,None,,,,,,,,00038,001,2026-01-16_23h03.09.394,MST_test,2024.2.0,59.876152171797564,2026-01-16 23h03.18.188864 +0530,
141,0,142,s,0.98336479999125,None,142,0,141,359.67822529998375,,,,,,,,,,,,,,,,,,,,,,,,,,,,,,,,,,,,,,,,,,,,,,,,,,359.6622037999914,359.67822529998375,360.1787454999867,360.1620260000054,360.16842810000526,360.1787454999867,360.1787454999867,360.1787454999867,361.17874040000606,Scenes\152a.jpg,post,s,0.98336479999125,None,,,,,,,,00038,001,2026-01-16_23h03.09.394,MST_test,2024.2.0,59.876152171797564,2026-01-16 23h03.18.188864 +0530,
142,0,143,s,1.226538899994921,None,143,0,142,361.19496339999023,,,,,,,,,,,,,,,,,,,,,,,,,,,,,,,,,,,,,,,,,,,,,,,,,,361.1788284999784,361.19496339999023,361.69541839999147,361.6785012999899,361.68835179999587,361.69541839999147,361.69541839999147,361.69541839999147,362.9286618999904,Objects\059b.jpg,post,s,1.226538899994921,None,,,,,,,,00038,001,2026-01-16_23h03.09.394,MST_test,2024.2.0,59.876152171797564,2026-01-16 23h03.18.188864 +0530,
143,0,144,s,2.788361899991287,None,144,0,143,362.9450726999785,,,,,,,,,,,,,,,,,,,,,,,,,,,,,,,,,,,,,,,,,,,,,,,,,,362.92875309998635,362.9450726999785,363.4455103999935,363.42874279999523,363.4345170999877,363.4455103999935,363.4455103999935,363.4455103999935,366.24544420000166,Scenes\191a.jpg,pre,s,2.788361899991287,None,,,,,,,,00038,001,2026-01-16_23h03.09.394,MST_test,2024.2.0,59.876152171797564,2026-01-16 23h03.18.188864 +0530,
144,0,145,o,2.752095300005749,None,145,0,144,366.26163269998506,,,,,,,,,,,,,,,,,,,,,,,,,,,,,,,,,,,,,,,,,,,,,,,,,,366.2455345999915,366.26163269998506,366.7621041999955,366.74530419998337,366.7482776999823,366.7621041999955,366.7621041999955,366.7621041999955,369.52866929999436,Objects\117a.jpg,pre,o,2.752095300005749,None,,,,,,,,00038,001,2026-01-16_23h03.09.394,MST_test,2024.2.0,59.876152171797564,2026-01-16 23h03.18.188864 +0530,
145,0,146,o,1.1967403999879025,None,146,0,145,369.54496109997854,,,,,,,,,,,,,,,,,,,,,,,,,,,,,,,,,,,,,,,,,,,,,,,,,,369.52875759999733,369.54496109997854,370.0451669000031,370.0283832999994,370.0308631999942,370.0451669000031,370.0451669000031,370.0451669000031,371.2458823999914,Objects\068a.jpg,post,o,1.1967403999879025,None,,,,,,,,00038,001,2026-01-16_23h03.09.394,MST_test,2024.2.0,59.876152171797564,2026-01-16 23h03.18.188864 +0530,
146,0,147,s,1.2400939000071958,None,147,0,146,371.26166739998735,,,,,,,,,,,,,,,,,,,,,,,,,,,,,,,,,,,,,,,,,,,,,,,,,,371.24600459999056,371.26166739998735,371.7618487,371.74521579997963,371.75445569999283,371.7618487,371.7618487,371.7618487,373.012218399992,Objects\016b.jpg,pre,s,1.2400939000071958,None,,,,,,,,00038,001,2026-01-16_23h03.09.394,MST_test,2024.2.0,59.876152171797564,2026-01-16 23h03.18.188864 +0530,
147,0,148,n,1.3213589999941178,None,148,0,147,373.0281582000025,,,,,,,,,,,,,,,,,,,,,,,,,,,,,,,,,,,,,,,,,,,,,,,,,,373.0123090999841,373.0281582000025,373.52859999999055,373.5120255999791,373.525568299985,373.52859999999055,373.52859999999055,373.52859999999055,374.8624227999826,Scenes\049b.jpg,pre,n,1.3213589999941178,None,,,,,,,,00038,001,2026-01-16_23h03.09.394,MST_test,2024.2.0,59.876152171797564,2026-01-16 23h03.18.188864 +0530,
148,0,149,o,2.5346585000224877,None,149,0,148,374.8781696999795,,,,,,,,,,,,,,,,,,,,,,,,,,,,,,,,,,,,,,,,,,,,,,,,,,374.86251300000004,374.8781696999795,375.37865199998487,375.36184909997974,375.36498739998206,375.37865199998487,375.37865199998487,375.37865199998487,377.92877509997925,Objects\126a.jpg,pre,o,2.5346585000224877,None,,,,,,,,00038,001,2026-01-16_23h03.09.394,MST_test,2024.2.0,59.876152171797564,2026-01-16 23h03.18.188864 +0530,
149,0,150,n,0.9962816000042949,None,150,0,149,377.9449709999899,,,,,,,,,,,,,,,,,,,,,,,,,,,,,,,,,,,,,,,,,,,,,,,,,,377.92886620000354,377.9449709999899,378.44547979999334,378.42842789998394,378.4347404,378.44547979999334,378.44547979999334,378.44547979999334,379.44551799999317,Scenes\160b.jpg,post,n,0.9962816000042949,None,,,,,,,,00038,001,2026-01-16_23h03.09.394,MST_test,2024.2.0,59.876152171797564,2026-01-16 23h03.18.188864 +0530,
,,,,,,,,,,,,,,,,,,,,,,,,,,,,,,,,,,,,,,,,,,,,,,,,,,,,,,,,,,,,,,,,,,,,,,,,,379.4455858999863,379.46166699999594,379.46166699999594,382.0121278000006,space,2.5398240000067744,None,00038,001,2026-01-16_23h03.09.394,MST_test,2024.2.0,59.876152171797564,2026-01-16 23h03.18.188864 +0530,
