thisN,thisTrialN,thisRepN,key_resp_3.keys,key_resp_3.rt,key_resp_3.duration,trials.thisRepN,trials.thisTrialN,trials.thisN,thisRow.t,notes,intro_page.started,text.started,key_resp.started,intro_page.stopped,key_resp.keys,key_resp.rt,key_resp.duration,instructions.started,text_2.started,key_resp_2.started,instructions.stopped,key_resp_2.keys,key_resp_2.rt,key_resp_2.duration,demo1.started,image_1.started,image_2.started,text_7.started,key_resp_6.started,text_9.started,demo1.stopped,key_resp_6.keys,key_resp_6.rt,key_resp_6.duration,demo2.started,image_5.started,image_6.started,text_11.started,text_12.started,key_resp_8.started,demo2.stopped,key_resp_8.keys,key_resp_8.rt,key_resp_8.duration,demo_conclusion.started,text_13.started,key_resp_9.started,demo_conclusion.stopped,key_resp_9.keys,key_resp_9.rt,key_resp_9.duration,start_test.started,text_6.started,key_resp_5.started,start_test.stopped,key_resp_5.keys,key_resp_5.rt,key_resp_5.duration,ISI.started,text_4.started,text_4.stopped,ISI.stopped,routine_1.started,image.started,text_3.started,key_resp_3.started,routine_1.stopped,image_path,position_of_stimuli,trials.key_resp_3.keys,trials.key_resp_3.rt,trials.key_resp_3.duration,End_page.started,text_5.started,key_resp_4.started,End_page.stopped,key_resp_4.keys,key_resp_4.rt,key_resp_4.duration,participant,session,date,expName,psychopyVersion,frameRate,expStart,
,,,,,,,,,,,0.001128400006564334,0.002608199996757321,0.002608199996757321,2.5057931000046665,space,2.493561299997964,None,,,,,,,,,,,,,,,,,,,,,,,,,,,,,,,,,,,,,,,,,,,,,,,,,,,,,,,,,,,,,,,00034,001,2026-01-16_12h27.35.390,MST_test,2024.2.0,59.85439819192338,2026-01-16 12h27.43.616461 +0530,
,,,,,,,,,,,,,,,,,,2.505824499996379,2.520431600001757,2.520431600001757,14.287606600002619,space,11.759713100007502,None,,,,,,,,,,,,,,,,,,,,,,,,,,,,,,,,,,,,,,,,,,,,,,,,,,,,,,,,00034,001,2026-01-16_12h27.35.390,MST_test,2024.2.0,59.85439819192338,2026-01-16 12h27.43.616461 +0530,
,,,,,,,,,,,,,,,,,,,,,,,,,14.287633800006006,14.304338000001735,14.304338000001735,14.304338000001735,14.304338000001735,14.304338000001735,18.93809589999728,space,4.631629399998928,None,,,,,,,,,,,,,,,,,,,,,,,,,,,,,,,,,,,,,,,,,,,,,,00034,001,2026-01-16_12h27.35.390,MST_test,2024.2.0,59.85439819192338,2026-01-16 12h27.43.616461 +0530,
,,,,,,,,,,,,,,,,,,,,,,,,,,,,,,,,,,,18.93812489999982,18.954218800005037,18.954218800005037,18.954218800005037,18.954218800005037,18.954218800005037,21.488012600006186,space,2.518230900008348,None,,,,,,,,,,,,,,,,,,,,,,,,,,,,,,,,,,,,00034,001,2026-01-16_12h27.35.390,MST_test,2024.2.0,59.85439819192338,2026-01-16 12h27.43.616461 +0530,
,,,,,,,,,,,,,,,,,,,,,,,,,,,,,,,,,,,,,,,,,,,,,21.488041699994938,21.503907599995728,21.503907599995728,41.23777799999516,space,19.720628700000816,None,,,,,,,,,,,,,,,,,,,,,,,,,,,,,00034,001,2026-01-16_12h27.35.390,MST_test,2024.2.0,59.85439819192338,2026-01-16 12h27.43.616461 +0530,
,,,,,,,,,,,,,,,,,,,,,,,,,,,,,,,,,,,,,,,,,,,,,,,,,,,,41.237806500008446,41.254011800003354,41.254011800003354,83.87097420000646,space,42.609698500004015,None,,,,,,,,,,,,,,,,,,,,,,00034,001,2026-01-16_12h27.35.390,MST_test,2024.2.0,59.85439819192338,2026-01-16 12h27.43.616461 +0530,
0,0,1,s,17.181747900001938,None,1,0,0,83.88720140000805,,,,,,,,,,,,,,,,,,,,,,,,,,,,,,,,,,,,,,,,,,,,,,,,,,83.87495990000025,83.88720140000805,84.3942234999995,84.37088879999646,84.39209439999831,84.3942234999995,84.3942234999995,84.3942234999995,101.58778410000377,Scenes\182b.jpg,pre,s,17.181747900001938,None,,,,,,,,00034,001,2026-01-16_12h27.35.390,MST_test,2024.2.0,59.85439819192338,2026-01-16 12h27.43.616461 +0530,
1,0,2,o,4.9193235999991884,None,2,0,1,101.60390020000341,,,,,,,,,,,,,,,,,,,,,,,,,,,,,,,,,,,,,,,,,,,,,,,,,,101.58789019999676,101.60390020000341,102.10444009999628,102.08739960000094,102.09649239999999,102.10444009999628,102.10444009999628,102.10444009999628,107.03782189999765,Scenes\121a.jpg,mid,o,4.9193235999991884,None,,,,,,,,00034,001,2026-01-16_12h27.35.390,MST_test,2024.2.0,59.85439819192338,2026-01-16 12h27.43.616461 +0530,
2,0,3,o,6.086628999997629,None,3,0,2,107.05395380000118,,,,,,,,,,,,,,,,,,,,,,,,,,,,,,,,,,,,,,,,,,,,,,,,,,107.0379161000019,107.05395380000118,107.55406490000314,107.53748230000201,107.54849770000146,107.55406490000314,107.55406490000314,107.55406490000314,113.6544453999959,Objects\058b.jpg,pre,o,6.086628999997629,None,,,,,,,,00034,001,2026-01-16_12h27.35.390,MST_test,2024.2.0,59.85439819192338,2026-01-16 12h27.43.616461 +0530,
3,0,4,s,2.292629300005501,None,4,0,3,113.67041600000812,,,,,,,,,,,,,,,,,,,,,,,,,,,,,,,,,,,,,,,,,,,,,,,,,,113.6545427999954,113.67041600000812,114.17092350000166,114.1541445000039,114.16597329999786,114.17092350000166,114.17092350000166,114.17092350000166,116.47105629999714,Objects\178b.jpg,mid,s,2.292629300005501,None,,,,,,,,00034,001,2026-01-16_12h27.35.390,MST_test,2024.2.0,59.85439819192338,2026-01-16 12h27.43.616461 +0530,
4,0,5,o,4.28414740000153,None,5,0,4,116.4872311000072,,,,,,,,,,,,,,,,,,,,,,,,,,,,,,,,,,,,,,,,,,,,,,,,,,116.47115199999826,116.4872311000072,116.98741109999537,116.97066570000607,116.97307249999722,116.98741109999537,116.98741109999537,116.98741109999537,121.28781979999621,Objects\067a.jpg,pre,o,4.28414740000153,None,,,,,,,,00034,001,2026-01-16_12h27.35.390,MST_test,2024.2.0,59.85439819192338,2026-01-16 12h27.43.616461 +0530,
5,0,6,n,3.2201600999978837,None,6,0,5,121.30390749999788,,,,,,,,,,,,,,,,,,,,,,,,,,,,,,,,,,,,,,,,,,,,,,,,,,121.28791680000722,121.30390749999788,121.80410930000653,121.78748539999651,121.79028790000302,121.80410930000653,121.80410930000653,121.80410930000653,125.03772150000441,Foils\073a.jpg,none,n,3.2201600999978837,None,,,,,,,,00034,001,2026-01-16_12h27.35.390,MST_test,2024.2.0,59.85439819192338,2026-01-16 12h27.43.616461 +0530,
6,0,7,s,2.3101232000044547,None,7,0,6,125.05389779999678,,,,,,,,,,,,,,,,,,,,,,,,,,,,,,,,,,,,,,,,,,,,,,,,,,125.03781239999807,125.05389779999678,125.55406120000407,125.53746039999533,125.53996809999808,125.55406120000407,125.55406120000407,125.55406120000407,127.87108349999471,Objects\177a.jpg,post,s,2.3101232000044547,None,,,,,,,,00034,001,2026-01-16_12h27.35.390,MST_test,2024.2.0,59.85439819192338,2026-01-16 12h27.43.616461 +0530,
7,0,8,s,8.947954699993716,None,8,0,7,127.88720830000238,,,,,,,,,,,,,,,,,,,,,,,,,,,,,,,,,,,,,,,,,,,,,,,,,,127.87117480000597,127.88720830000238,128.38775510000414,128.37077560000762,128.38113090000115,128.38775510000414,128.38775510000414,128.38775510000414,137.337855699996,Scenes\125a.jpg,post,s,8.947954699993716,None,,,,,,,,00034,001,2026-01-16_12h27.35.390,MST_test,2024.2.0,59.85439819192338,2026-01-16 12h27.43.616461 +0530,
8,0,9,s,1.7616605999937747,None,9,0,8,137.35385100000713,,,,,,,,,,,,,,,,,,,,,,,,,,,,,,,,,,,,,,,,,,,,,,,,,,137.33795509999618,137.35385100000713,137.85437909999746,137.83746640000027,137.84083410000312,137.85437909999746,137.85437909999746,137.85437909999746,139.6212427999999,Objects\136a.jpg,post,s,1.7616605999937747,None,,,,,,,,00034,001,2026-01-16_12h27.35.390,MST_test,2024.2.0,59.85439819192338,2026-01-16 12h27.43.616461 +0530,
9,0,10,s,1.5488385000062408,None,10,0,9,139.63716840000416,,,,,,,,,,,,,,,,,,,,,,,,,,,,,,,,,,,,,,,,,,,,,,,,,,139.62133389999508,139.63716840000416,140.13922640000237,140.1207129999966,140.13731829999597,140.13922640000237,140.13922640000237,140.13922640000237,141.7047206999996,Scenes\021b.jpg,post,s,1.5488385000062408,None,,,,,,,,00034,001,2026-01-16_12h27.35.390,MST_test,2024.2.0,59.85439819192338,2026-01-16 12h27.43.616461 +0530,
10,0,11,s,1.9390070999943418,None,11,0,10,141.72043790000316,,,,,,,,,,,,,,,,,,,,,,,,,,,,,,,,,,,,,,,,,,,,,,,,,,141.70482130000892,141.72043790000316,142.2208976999973,142.20415710000088,142.2139201999962,142.2208976999973,142.2208976999973,142.2208976999973,144.1712167000078,Objects\028b.jpg,pre,s,1.9390070999943418,None,,,,,,,,00034,001,2026-01-16_12h27.35.390,MST_test,2024.2.0,59.85439819192338,2026-01-16 12h27.43.616461 +0530,
11,0,12,s,2.2079915999929653,None,12,0,11,144.18730610000785,,,,,,,,,,,,,,,,,,,,,,,,,,,,,,,,,,,,,,,,,,,,,,,,,,144.17131040000822,144.18730610000785,144.68747930000245,144.67098090000218,144.67988640000112,144.68747930000245,144.68747930000245,144.68747930000245,146.90458780000336,Objects\163b.jpg,post,s,2.2079915999929653,None,,,,,,,,00034,001,2026-01-16_12h27.35.390,MST_test,2024.2.0,59.85439819192338,2026-01-16 12h27.43.616461 +0530,
12,0,13,o,3.1304369999998016,None,13,0,12,146.9206170999969,,,,,,,,,,,,,,,,,,,,,,,,,,,,,,,,,,,,,,,,,,,,,,,,,,146.90468229999533,146.9206170999969,147.4209228999971,147.4042097000056,147.4136390000058,147.4209228999971,147.4209228999971,147.4209228999971,150.55461150000338,Objects\114b.jpg,post,o,3.1304369999998016,None,,,,,,,,00034,001,2026-01-16_12h27.35.390,MST_test,2024.2.0,59.85439819192338,2026-01-16 12h27.43.616461 +0530,
13,0,14,n,2.7924657999974443,None,14,0,13,150.57064700000046,,,,,,,,,,,,,,,,,,,,,,,,,,,,,,,,,,,,,,,,,,,,,,,,,,150.55470229999628,150.57064700000046,151.07100490000448,151.05446830000437,151.05684859999747,151.07100490000448,151.07100490000448,151.07100490000448,153.87111110000114,Foils\scenes4.jpg,none,n,2.7924657999974443,None,,,,,,,,00034,001,2026-01-16_12h27.35.390,MST_test,2024.2.0,59.85439819192338,2026-01-16 12h27.43.616461 +0530,
14,0,15,s,2.852296099998057,None,15,0,14,153.88734739999927,,,,,,,,,,,,,,,,,,,,,,,,,,,,,,,,,,,,,,,,,,,,,,,,,,153.87120660000073,153.88734739999927,154.3876186999987,154.37103140000545,154.3811776000075,154.3876186999987,154.3876186999987,154.3876186999987,157.25450860000274,Objects\138b.jpg,pre,s,2.852296099998057,None,,,,,,,,00034,001,2026-01-16_12h27.35.390,MST_test,2024.2.0,59.85439819192338,2026-01-16 12h27.43.616461 +0530,
15,0,16,n,1.6238786000030814,None,16,0,15,157.27065999999468,,,,,,,,,,,,,,,,,,,,,,,,,,,,,,,,,,,,,,,,,,,,,,,,,,157.25459939999564,157.27065999999468,157.82395530000213,157.75422410000465,157.821005100006,157.82395530000213,157.82395530000213,157.82395530000213,159.45446720000473,Foils\scenes25.jpg,none,n,1.6238786000030814,None,,,,,,,,00034,001,2026-01-16_12h27.35.390,MST_test,2024.2.0,59.85439819192338,2026-01-16 12h27.43.616461 +0530,
16,0,17,n,1.2850699999980861,None,17,0,16,159.4706828000053,,,,,,,,,,,,,,,,,,,,,,,,,,,,,,,,,,,,,,,,,,,,,,,,,,159.454559100006,159.4706828000053,159.9710219999979,159.95419410000613,159.96537410000747,159.9710219999979,159.9710219999979,159.9710219999979,161.27130229999602,Foils\scenes14.jpg,none,n,1.2850699999980861,None,,,,,,,,00034,001,2026-01-16_12h27.35.390,MST_test,2024.2.0,59.85439819192338,2026-01-16 12h27.43.616461 +0530,
17,0,18,s,1.4043300000048475,None,18,0,17,161.2873746999976,,,,,,,,,,,,,,,,,,,,,,,,,,,,,,,,,,,,,,,,,,,,,,,,,,161.2713967000018,161.2873746999976,161.7876316000038,161.77105379999557,161.77472139999736,161.7876316000038,161.7876316000038,161.7876316000038,163.20450130000245,Objects\044a.jpg,post,s,1.4043300000048475,None,,,,,,,,00034,001,2026-01-16_12h27.35.390,MST_test,2024.2.0,59.85439819192338,2026-01-16 12h27.43.616461 +0530,
18,0,19,n,1.7426016999961575,None,19,0,18,163.22069129999727,,,,,,,,,,,,,,,,,,,,,,,,,,,,,,,,,,,,,,,,,,,,,,,,,,163.20459239999764,163.22069129999727,163.72106460000214,163.70422290000715,163.71371809999982,163.72106460000214,163.72106460000214,163.72106460000214,165.4712223999959,Foils\scenes30.jpg,none,n,1.7426016999961575,None,,,,,,,,00034,001,2026-01-16_12h27.35.390,MST_test,2024.2.0,59.85439819192338,2026-01-16 12h27.43.616461 +0530,
19,0,20,o,2.291603599995142,None,20,0,19,165.4872713000077,,,,,,,,,,,,,,,,,,,,,,,,,,,,,,,,,,,,,,,,,,,,,,,,,,165.47131510000327,165.4872713000077,165.98777330000303,165.97103380000044,165.97422550000192,165.98777330000303,165.98777330000303,165.98777330000303,168.28797010000562,Objects\134a.jpg,pre,o,2.291603599995142,None,,,,,,,,00034,001,2026-01-16_12h27.35.390,MST_test,2024.2.0,59.85439819192338,2026-01-16 12h27.43.616461 +0530,
20,0,21,s,1.1720547000004444,None,21,0,20,168.30401629999687,,,,,,,,,,,,,,,,,,,,,,,,,,,,,,,,,,,,,,,,,,,,,,,,,,168.28806390000682,168.30401629999687,168.80423920000612,168.78757280000718,168.7900942999986,168.80423920000612,168.80423920000612,168.80423920000612,169.9882021999947,Objects\063a.jpg,pre,s,1.1720547000004444,None,,,,,,,,00034,001,2026-01-16_12h27.35.390,MST_test,2024.2.0,59.85439819192338,2026-01-16 12h27.43.616461 +0530,
21,0,22,s,1.3596318000054453,None,22,0,21,170.00378929999715,,,,,,,,,,,,,,,,,,,,,,,,,,,,,,,,,,,,,,,,,,,,,,,,,,169.988314000002,170.00378929999715,170.50423230000888,170.48757990000013,170.49863840000762,170.50423230000888,170.50423230000888,170.50423230000888,171.87124870000116,Objects\176b.jpg,post,s,1.3596318000054453,None,,,,,,,,00034,001,2026-01-16_12h27.35.390,MST_test,2024.2.0,59.85439819192338,2026-01-16 12h27.43.616461 +0530,
22,0,23,s,1.0998221000045305,None,23,0,22,171.88740300000063,,,,,,,,,,,,,,,,,,,,,,,,,,,,,,,,,,,,,,,,,,,,,,,,,,171.87134080000396,171.88740300000063,172.38760990000446,172.3710035999975,172.38050700000895,172.38760990000446,172.38760990000446,172.38760990000446,173.4881841000024,Objects\071b.jpg,post,s,1.0998221000045305,None,,,,,,,,00034,001,2026-01-16_12h27.35.390,MST_test,2024.2.0,59.85439819192338,2026-01-16 12h27.43.616461 +0530,
23,0,24,o,2.6678257000021404,None,24,0,23,173.50399959999777,,,,,,,,,,,,,,,,,,,,,,,,,,,,,,,,,,,,,,,,,,,,,,,,,,173.48828410000715,173.50399959999777,174.0044138999947,173.9876138999971,173.99696550000226,174.0044138999947,174.0044138999947,174.0044138999947,176.68781089999538,Foils\scenes5.jpg,none,o,2.6678257000021404,None,,,,,,,,00034,001,2026-01-16_12h27.35.390,MST_test,2024.2.0,59.85439819192338,2026-01-16 12h27.43.616461 +0530,
24,0,25,n,5.242810700001428,None,25,0,24,176.70395239999925,,,,,,,,,,,,,,,,,,,,,,,,,,,,,,,,,,,,,,,,,,,,,,,,,,176.6879079000064,176.70395239999925,177.20461280000745,177.18769370000518,177.1976752000046,177.20461280000745,177.20461280000745,177.20461280000745,182.45468959999562,Scenes\189a.jpg,mid,n,5.242810700001428,None,,,,,,,,00034,001,2026-01-16_12h27.35.390,MST_test,2024.2.0,59.85439819192338,2026-01-16 12h27.43.616461 +0530,
25,0,26,s,6.8361084000061965,None,26,0,25,182.47070140000142,,,,,,,,,,,,,,,,,,,,,,,,,,,,,,,,,,,,,,,,,,,,,,,,,,182.45478179999918,182.47070140000142,182.9712817999971,182.9543202000059,182.95844980000402,182.9712817999971,182.9712817999971,182.9712817999971,189.8212235999963,Scenes\037a.jpg,mid,s,6.8361084000061965,None,,,,,,,,00034,001,2026-01-16_12h27.35.390,MST_test,2024.2.0,59.85439819192338,2026-01-16 12h27.43.616461 +0530,
26,0,27,s,2.365736799998558,None,27,0,26,189.8374283000012,,,,,,,,,,,,,,,,,,,,,,,,,,,,,,,,,,,,,,,,,,,,,,,,,,189.82131800000207,189.8374283000012,190.33788370000548,190.32093610000447,190.32706740000867,190.33788370000548,190.33788370000548,190.33788370000548,192.70470850000856,Scenes\162a.jpg,mid,s,2.365736799998558,None,,,,,,,,00034,001,2026-01-16_12h27.35.390,MST_test,2024.2.0,59.85439819192338,2026-01-16 12h27.43.616461 +0530,
27,0,28,n,1.9770294000045396,None,28,0,27,192.72067930000776,,,,,,,,,,,,,,,,,,,,,,,,,,,,,,,,,,,,,,,,,,,,,,,,,,192.70480049999605,192.72067930000776,193.23090650000086,193.20423650000885,193.22838889999548,193.23090650000086,193.23090650000086,193.23090650000086,195.2212545000075,Foils\scenes23.jpg,none,n,1.9770294000045396,None,,,,,,,,00034,001,2026-01-16_12h27.35.390,MST_test,2024.2.0,59.85439819192338,2026-01-16 12h27.43.616461 +0530,
28,0,29,s,1.2137541999982204,None,29,0,28,195.23736009999993,,,,,,,,,,,,,,,,,,,,,,,,,,,,,,,,,,,,,,,,,,,,,,,,,,195.22134689999803,195.23736009999993,195.73803380000754,195.7209259000083,195.72474370000418,195.73803380000754,195.73803380000754,195.73803380000754,196.9545441000082,Objects\083a.jpg,pre,s,1.2137541999982204,None,,,,,,,,00034,001,2026-01-16_12h27.35.390,MST_test,2024.2.0,59.85439819192338,2026-01-16 12h27.43.616461 +0530,
29,0,30,s,1.401248599999235,None,30,0,29,196.97062469999946,,,,,,,,,,,,,,,,,,,,,,,,,,,,,,,,,,,,,,,,,,,,,,,,,,196.95464029999857,196.97062469999946,197.47079069999745,197.4542982999992,197.46369479999703,197.47079069999745,197.47079069999745,197.47079069999745,198.8880075000052,Objects\085b.jpg,pre,s,1.401248599999235,None,,,,,,,,00034,001,2026-01-16_12h27.35.390,MST_test,2024.2.0,59.85439819192338,2026-01-16 12h27.43.616461 +0530,
30,0,31,s,1.5070961000019452,None,31,0,30,198.9039472000004,,,,,,,,,,,,,,,,,,,,,,,,,,,,,,,,,,,,,,,,,,,,,,,,,,198.88809789999505,198.9039472000004,199.40432000000146,199.388014199998,199.39770339999814,199.40432000000146,199.40432000000146,199.40432000000146,200.92136849999952,Objects\072b.jpg,pre,s,1.5070961000019452,None,,,,,,,,00034,001,2026-01-16_12h27.35.390,MST_test,2024.2.0,59.85439819192338,2026-01-16 12h27.43.616461 +0530,
31,0,32,n,3.178350699992734,None,32,0,31,200.93733950000023,,,,,,,,,,,,,,,,,,,,,,,,,,,,,,,,,,,,,,,,,,,,,,,,,,200.92146130000765,200.93733950000023,201.437648799998,201.42090559999633,201.43440470000496,201.437648799998,201.437648799998,201.437648799998,204.62132289999863,Scenes\069b.jpg,pre,n,3.178350699992734,None,,,,,,,,00034,001,2026-01-16_12h27.35.390,MST_test,2024.2.0,59.85439819192338,2026-01-16 12h27.43.616461 +0530,
32,0,33,s,2.582158999997773,None,33,0,32,204.6373348000052,,,,,,,,,,,,,,,,,,,,,,,,,,,,,,,,,,,,,,,,,,,,,,,,,,204.6214129,204.6373348000052,205.13780379999662,205.12089269999706,205.12351289999788,205.13780379999662,205.13780379999662,205.13780379999662,207.72119579999708,Foils\050a.jpg,none,s,2.582158999997773,None,,,,,,,,00034,001,2026-01-16_12h27.35.390,MST_test,2024.2.0,59.85439819192338,2026-01-16 12h27.43.616461 +0530,
33,0,34,o,4.370328799996059,None,34,0,33,207.73718799999915,,,,,,,,,,,,,,,,,,,,,,,,,,,,,,,,,,,,,,,,,,,,,,,,,,207.72128610000073,207.73718799999915,208.23768410000775,208.22083200000634,208.23035640000307,208.23768410000775,208.23768410000775,208.23768410000775,212.62159779999638,Scenes\158a.jpg,pre,o,4.370328799996059,None,,,,,,,,00034,001,2026-01-16_12h27.35.390,MST_test,2024.2.0,59.85439819192338,2026-01-16 12h27.43.616461 +0530,
34,0,35,o,1.8304780999897048,None,35,0,34,212.63731669999834,,,,,,,,,,,,,,,,,,,,,,,,,,,,,,,,,,,,,,,,,,,,,,,,,,212.62171140000282,212.63731669999834,213.13783029999468,213.12105359999987,213.12995149999915,213.13783029999468,213.13783029999468,213.13783029999468,214.97121669999615,Scenes\093a.jpg,pre,o,1.8304780999897048,None,,,,,,,,00034,001,2026-01-16_12h27.35.390,MST_test,2024.2.0,59.85439819192338,2026-01-16 12h27.43.616461 +0530,
35,0,36,o,1.4156627000047592,None,36,0,35,214.987255,,,,,,,,,,,,,,,,,,,,,,,,,,,,,,,,,,,,,,,,,,,,,,,,,,214.9713097000058,214.987255,215.4877806000004,215.4708391000022,215.47467609999876,215.4877806000004,215.4877806000004,215.4877806000004,216.90440420000232,Objects\024a.jpg,mid,o,1.4156627000047592,None,,,,,,,,00034,001,2026-01-16_12h27.35.390,MST_test,2024.2.0,59.85439819192338,2026-01-16 12h27.43.616461 +0530,
36,0,37,s,1.2108927999943262,None,37,0,36,216.92055170000822,,,,,,,,,,,,,,,,,,,,,,,,,,,,,,,,,,,,,,,,,,,,,,,,,,216.90449689999514,216.92055170000822,217.42080029999488,217.4041145000083,217.40668800000276,217.42080029999488,217.42080029999488,217.42080029999488,218.63803790000384,Objects\018b.jpg,post,s,1.2108927999943262,None,,,,,,,,00034,001,2026-01-16_12h27.35.390,MST_test,2024.2.0,59.85439819192338,2026-01-16 12h27.43.616461 +0530,
37,0,38,n,2.5896357000019634,None,38,0,37,218.6538642999949,,,,,,,,,,,,,,,,,,,,,,,,,,,,,,,,,,,,,,,,,,,,,,,,,,218.6381437000091,218.6538642999949,219.15423030000238,219.13747380000132,219.1435075000045,219.15423030000238,219.15423030000238,219.15423030000238,221.75464700000884,Scenes\091b.jpg,mid,n,2.5896357000019634,None,,,,,,,,00034,001,2026-01-16_12h27.35.390,MST_test,2024.2.0,59.85439819192338,2026-01-16 12h27.43.616461 +0530,
38,0,39,n,1.1693264999921666,None,39,0,38,221.7706257999962,,,,,,,,,,,,,,,,,,,,,,,,,,,,,,,,,,,,,,,,,,,,,,,,,,221.75474170000234,221.7706257999962,222.27101060000132,222.2539514000091,222.26387560000876,222.27101060000132,222.27101060000132,222.27101060000132,223.45452579999983,Foils\090a.jpg,none,n,1.1693264999921666,None,,,,,,,,00034,001,2026-01-16_12h27.35.390,MST_test,2024.2.0,59.85439819192338,2026-01-16 12h27.43.616461 +0530,
39,0,40,o,2.877087200002279,None,40,0,39,223.47053089999827,,,,,,,,,,,,,,,,,,,,,,,,,,,,,,,,,,,,,,,,,,,,,,,,,,223.45462220000627,223.47053089999827,223.97105880000163,223.9541642999975,223.96149149999837,223.97105880000163,223.97105880000163,223.97105880000163,226.8543939000083,Scenes\077a.jpg,post,o,2.877087200002279,None,,,,,,,,00034,001,2026-01-16_12h27.35.390,MST_test,2024.2.0,59.85439819192338,2026-01-16 12h27.43.616461 +0530,
40,0,41,s,1.2611723999871174,None,41,0,40,226.87060419999762,,,,,,,,,,,,,,,,,,,,,,,,,,,,,,,,,,,,,,,,,,,,,,,,,,226.85448550000729,226.87060419999762,227.3710751000035,227.3540187000035,227.36008749999746,227.3710751000035,227.3710751000035,227.3710751000035,228.63783750000584,Scenes\152b.jpg,mid,s,1.2611723999871174,None,,,,,,,,00034,001,2026-01-16_12h27.35.390,MST_test,2024.2.0,59.85439819192338,2026-01-16 12h27.43.616461 +0530,
41,0,42,s,1.149134100007359,None,42,0,41,228.65386829999625,,,,,,,,,,,,,,,,,,,,,,,,,,,,,,,,,,,,,,,,,,,,,,,,,,228.63793510000687,228.65386829999625,229.15437030000612,229.1376181999949,229.14973530000134,229.15437030000612,229.15437030000612,229.15437030000612,230.3043825000059,Scenes\079b.jpg,post,s,1.149134100007359,None,,,,,,,,00034,001,2026-01-16_12h27.35.390,MST_test,2024.2.0,59.85439819192338,2026-01-16 12h27.43.616461 +0530,
42,0,43,s,1.072978800002602,None,43,0,42,230.32063600000401,,,,,,,,,,,,,,,,,,,,,,,,,,,,,,,,,,,,,,,,,,,,,,,,,,230.30457219999516,230.32063600000401,230.82276330000605,230.80400269999518,230.82062030000088,230.82276330000605,230.82276330000605,230.82276330000605,231.9044636000035,Scenes\039b.jpg,mid,s,1.072978800002602,None,,,,,,,,00034,001,2026-01-16_12h27.35.390,MST_test,2024.2.0,59.85439819192338,2026-01-16 12h27.43.616461 +0530,
43,0,44,n,3.1388777999964077,None,44,0,43,231.92061739999917,,,,,,,,,,,,,,,,,,,,,,,,,,,,,,,,,,,,,,,,,,,,,,,,,,231.90455950000614,231.92061739999917,232.4210410000087,232.40406680000888,232.40624720000778,232.4210410000087,232.4210410000087,232.4210410000087,235.571205500004,Foils\scenes12.jpg,none,n,3.1388777999964077,None,,,,,,,,00034,001,2026-01-16_12h27.35.390,MST_test,2024.2.0,59.85439819192338,2026-01-16 12h27.43.616461 +0530,
44,0,45,o,1.9040757999900961,None,45,0,44,235.5871923000086,,,,,,,,,,,,,,,,,,,,,,,,,,,,,,,,,,,,,,,,,,,,,,,,,,235.57129730000452,235.5871923000086,236.0876786000008,236.07084689999465,236.07894110000052,236.0876786000008,236.0876786000008,236.0876786000008,238.00440140000137,Scenes\155a.jpg,post,o,1.9040757999900961,None,,,,,,,,00034,001,2026-01-16_12h27.35.390,MST_test,2024.2.0,59.85439819192338,2026-01-16 12h27.43.616461 +0530,
45,0,46,s,1.7842367999983253,None,46,0,45,238.02061449999746,,,,,,,,,,,,,,,,,,,,,,,,,,,,,,,,,,,,,,,,,,,,,,,,,,238.0044959000079,238.02061449999746,238.52105300000403,238.50414240000828,238.5153480000008,238.52105300000403,238.52105300000403,238.52105300000403,240.32113920000847,Objects\095b.jpg,mid,s,1.7842367999983253,None,,,,,,,,00034,001,2026-01-16_12h27.35.390,MST_test,2024.2.0,59.85439819192338,2026-01-16 12h27.43.616461 +0530,
46,0,47,o,1.3143287999992026,None,47,0,46,240.3372989000054,,,,,,,,,,,,,,,,,,,,,,,,,,,,,,,,,,,,,,,,,,,,,,,,,,240.32127349999791,240.3372989000054,240.83747450000374,240.8208081000048,240.82315480000398,240.83747450000374,240.83747450000374,240.83747450000374,242.15442990000884,Objects\171a.jpg,mid,o,1.3143287999992026,None,,,,,,,,00034,001,2026-01-16_12h27.35.390,MST_test,2024.2.0,59.85439819192338,2026-01-16 12h27.43.616461 +0530,
47,0,48,s,1.8657871000032173,None,48,0,47,242.17059619999782,,,,,,,,,,,,,,,,,,,,,,,,,,,,,,,,,,,,,,,,,,,,,,,,,,242.15452769999683,242.17059619999782,242.6708712999971,242.6543221000029,242.66404380000313,242.6708712999971,242.6708712999971,242.6708712999971,244.5378553000046,Objects\127b.jpg,mid,s,1.8657871000032173,None,,,,,,,,00034,001,2026-01-16_12h27.35.390,MST_test,2024.2.0,59.85439819192338,2026-01-16 12h27.43.616461 +0530,
48,0,49,s,1.4331485999864526,None,49,0,48,244.5537306000042,,,,,,,,,,,,,,,,,,,,,,,,,,,,,,,,,,,,,,,,,,,,,,,,,,244.53795070000342,244.5537306000042,245.05496399999538,245.03751439999905,245.05294649999996,245.05496399999538,245.05496399999538,245.05496399999538,246.50443640000594,Scenes\187b.jpg,mid,s,1.4331485999864526,None,,,,,,,,00034,001,2026-01-16_12h27.35.390,MST_test,2024.2.0,59.85439819192338,2026-01-16 12h27.43.616461 +0530,
49,0,50,n,3.1789604000077816,None,50,0,49,246.52059749999898,,,,,,,,,,,,,,,,,,,,,,,,,,,,,,,,,,,,,,,,,,,,,,,,,,246.5045334000024,246.52059749999898,247.02106620000268,247.00420540000778,247.00743300000613,247.02106620000268,247.02106620000268,247.02106620000268,250.2047678999952,Foils\042a.jpg,none,n,3.1789604000077816,None,,,,,,,,00034,001,2026-01-16_12h27.35.390,MST_test,2024.2.0,59.85439819192338,2026-01-16 12h27.43.616461 +0530,
50,0,51,o,1.3584981999883894,None,51,0,50,250.22054550000757,,,,,,,,,,,,,,,,,,,,,,,,,,,,,,,,,,,,,,,,,,,,,,,,,,250.20485950000875,250.22054550000757,250.72139819999575,250.70410190000257,250.71919560000242,250.72139819999575,250.72139819999575,250.72139819999575,252.08782830000564,Scenes\074b.jpg,pre,o,1.3584981999883894,None,,,,,,,,00034,001,2026-01-16_12h27.35.390,MST_test,2024.2.0,59.85439819192338,2026-01-16 12h27.43.616461 +0530,
51,0,52,n,4.508119599995553,None,52,0,51,252.10379740000644,,,,,,,,,,,,,,,,,,,,,,,,,,,,,,,,,,,,,,,,,,,,,,,,,,252.08792299999914,252.10379740000644,252.60430310000083,252.5875054000062,252.58986930000538,252.60430310000083,252.60430310000083,252.60430310000083,257.1210857999977,Foils\scenes16.jpg,none,n,4.508119599995553,None,,,,,,,,00034,001,2026-01-16_12h27.35.390,MST_test,2024.2.0,59.85439819192338,2026-01-16 12h27.43.616461 +0530,
52,0,53,n,3.0789738000021316,None,53,0,52,257.13727479999943,,,,,,,,,,,,,,,,,,,,,,,,,,,,,,,,,,,,,,,,,,,,,,,,,,257.12117579999904,257.13727479999943,257.64100440000766,257.6208478000044,257.6390056999953,257.64100440000766,257.64100440000766,257.64100440000766,260.7218611999997,Scenes\060b.jpg,post,n,3.0789738000021316,None,,,,,,,,00034,001,2026-01-16_12h27.35.390,MST_test,2024.2.0,59.85439819192338,2026-01-16 12h27.43.616461 +0530,
53,0,54,s,1.8187108999991324,None,54,0,53,260.737712800008,,,,,,,,,,,,,,,,,,,,,,,,,,,,,,,,,,,,,,,,,,,,,,,,,,260.7219732999947,260.737712800008,261.2379818000045,261.220945100009,261.235563299997,261.2379818000045,261.2379818000045,261.2379818000045,263.0712559999956,Scenes\044b.jpg,post,s,1.8187108999991324,None,,,,,,,,00034,001,2026-01-16_12h27.35.390,MST_test,2024.2.0,59.85439819192338,2026-01-16 12h27.43.616461 +0530,
54,0,55,o,1.3561375999997836,None,55,0,54,263.08723669999745,,,,,,,,,,,,,,,,,,,,,,,,,,,,,,,,,,,,,,,,,,,,,,,,,,263.0713517999975,263.08723669999745,263.5877967999986,263.57089040000574,263.5810668000049,263.5877967999986,263.5877967999986,263.5877967999986,264.954462099995,Scenes\176a.jpg,post,o,1.3561375999997836,None,,,,,,,,00034,001,2026-01-16_12h27.35.390,MST_test,2024.2.0,59.85439819192338,2026-01-16 12h27.43.616461 +0530,
55,0,56,n,7.048793100009789,None,56,0,55,264.97061920000124,,,,,,,,,,,,,,,,,,,,,,,,,,,,,,,,,,,,,,,,,,,,,,,,,,264.9545536000078,264.97061920000124,265.47127490000275,265.4545008999994,265.45773409999674,265.47127490000275,265.47127490000275,265.47127490000275,272.5213565000013,Foils\049a.jpg,none,n,7.048793100009789,None,,,,,,,,00034,001,2026-01-16_12h27.35.390,MST_test,2024.2.0,59.85439819192338,2026-01-16 12h27.43.616461 +0530,
56,0,57,s,1.4420536999969045,None,57,0,56,272.5373271999997,,,,,,,,,,,,,,,,,,,,,,,,,,,,,,,,,,,,,,,,,,,,,,,,,,272.5214574999991,272.5373271999997,273.0376219000027,273.0209793999966,273.0316055000003,273.0376219000027,273.0376219000027,273.0376219000027,274.4879684000043,Objects\036b.jpg,pre,s,1.4420536999969045,None,,,,,,,,00034,001,2026-01-16_12h27.35.390,MST_test,2024.2.0,59.85439819192338,2026-01-16 12h27.43.616461 +0530,
57,0,58,s,1.4513883000036003,None,58,0,57,274.5039308999985,,,,,,,,,,,,,,,,,,,,,,,,,,,,,,,,,,,,,,,,,,,,,,,,,,274.488062000004,274.5039308999985,275.004091099996,274.98765789999743,274.99024709999503,275.004091099996,275.004091099996,275.004091099996,276.47142610000446,Objects\035a.jpg,mid,s,1.4513883000036003,None,,,,,,,,00034,001,2026-01-16_12h27.35.390,MST_test,2024.2.0,59.85439819192338,2026-01-16 12h27.43.616461 +0530,
58,0,59,n,2.9635777000075905,None,59,0,58,276.4873604000022,,,,,,,,,,,,,,,,,,,,,,,,,,,,,,,,,,,,,,,,,,,,,,,,,,276.4715178000042,276.4873604000022,276.9878408000077,276.970979500009,276.98132750000514,276.9878408000077,276.9878408000077,276.9878408000077,279.95478070000536,Scenes\105a.jpg,post,n,2.9635777000075905,None,,,,,,,,00034,001,2026-01-16_12h27.35.390,MST_test,2024.2.0,59.85439819192338,2026-01-16 12h27.43.616461 +0530,
59,0,60,s,1.225635399998282,None,60,0,59,279.97075120000227,,,,,,,,,,,,,,,,,,,,,,,,,,,,,,,,,,,,,,,,,,,,,,,,,,279.9548744000058,279.97075120000227,280.4712046000059,280.45430650000344,280.45750869999756,280.4712046000059,280.4712046000059,280.4712046000059,281.7044451999973,Objects\125a.jpg,mid,s,1.225635399998282,None,,,,,,,,00034,001,2026-01-16_12h27.35.390,MST_test,2024.2.0,59.85439819192338,2026-01-16 12h27.43.616461 +0530,
60,0,61,s,1.107780599995749,None,61,0,60,281.7206375999958,,,,,,,,,,,,,,,,,,,,,,,,,,,,,,,,,,,,,,,,,,,,,,,,,,281.70466289999604,281.7206375999958,282.2209057,282.2042902999965,282.2134204000031,282.2209057,282.2209057,282.2209057,283.3379338000086,Objects\164b.jpg,mid,s,1.107780599995749,None,,,,,,,,00034,001,2026-01-16_12h27.35.390,MST_test,2024.2.0,59.85439819192338,2026-01-16 12h27.43.616461 +0530,
61,0,62,o,2.633516399990185,None,62,0,61,283.3540342000051,,,,,,,,,,,,,,,,,,,,,,,,,,,,,,,,,,,,,,,,,,,,,,,,,,283.3380313999951,283.3540342000051,283.85427110000455,283.8376489000075,283.84197290000156,283.85427110000455,283.85427110000455,283.85427110000455,286.50446029999875,Objects\022a.jpg,pre,o,2.633516399990185,None,,,,,,,,00034,001,2026-01-16_12h27.35.390,MST_test,2024.2.0,59.85439819192338,2026-01-16 12h27.43.616461 +0530,
62,0,63,n,1.9791791000025114,None,63,0,62,286.520637499998,,,,,,,,,,,,,,,,,,,,,,,,,,,,,,,,,,,,,,,,,,,,,,,,,,286.5049285999994,286.520637499998,287.0208302999963,287.0043156000029,287.006867700009,287.0208302999963,287.0208302999963,287.0208302999963,289.00444440000865,Foils\101b.jpg,none,n,1.9791791000025114,None,,,,,,,,00034,001,2026-01-16_12h27.35.390,MST_test,2024.2.0,59.85439819192338,2026-01-16 12h27.43.616461 +0530,
63,0,64,s,1.4707246000034502,None,64,0,63,289.0206310000067,,,,,,,,,,,,,,,,,,,,,,,,,,,,,,,,,,,,,,,,,,,,,,,,,,289.004537300003,289.0206310000067,289.52092999999877,289.5043006000051,289.5134815000056,289.52092999999877,289.52092999999877,289.52092999999877,291.0044540999952,Objects\167b.jpg,mid,s,1.4707246000034502,None,,,,,,,,00034,001,2026-01-16_12h27.35.390,MST_test,2024.2.0,59.85439819192338,2026-01-16 12h27.43.616461 +0530,
64,0,65,s,8.15154029999394,None,65,0,64,291.0206168000004,,,,,,,,,,,,,,,,,,,,,,,,,,,,,,,,,,,,,,,,,,,,,,,,,,291.0045543000015,291.0206168000004,291.52093670000613,291.5043449000077,291.5069527000014,291.52093670000613,291.52093670000613,291.52093670000613,299.68788840000343,Objects\102a.jpg,mid,s,8.15154029999394,None,,,,,,,,00034,001,2026-01-16_12h27.35.390,MST_test,2024.2.0,59.85439819192338,2026-01-16 12h27.43.616461 +0530,
65,0,66,o,1.8673906000040006,None,66,0,65,299.703903600006,,,,,,,,,,,,,,,,,,,,,,,,,,,,,,,,,,,,,,,,,,,,,,,,,,299.6879817000008,299.703903600006,300.20414610000444,300.18747740000254,300.1904818000039,300.20414610000444,300.20414610000444,300.20414610000444,302.087837900006,Objects\088a.jpg,mid,o,1.8673906000040006,None,,,,,,,,00034,001,2026-01-16_12h27.35.390,MST_test,2024.2.0,59.85439819192338,2026-01-16 12h27.43.616461 +0530,
66,0,67,n,2.524155500010238,None,67,0,66,302.10382519999985,,,,,,,,,,,,,,,,,,,,,,,,,,,,,,,,,,,,,,,,,,,,,,,,,,302.0879302999965,302.10382519999985,302.60400110000046,302.5874841000041,302.58989260000817,302.60400110000046,302.60400110000046,302.60400110000046,305.1378754000034,Foils\074a.jpg,none,n,2.524155500010238,None,,,,,,,,00034,001,2026-01-16_12h27.35.390,MST_test,2024.2.0,59.85439819192338,2026-01-16 12h27.43.616461 +0530,
67,0,68,s,2.5693707000027644,None,68,0,67,305.1538834999956,,,,,,,,,,,,,,,,,,,,,,,,,,,,,,,,,,,,,,,,,,,,,,,,,,305.13796900000307,305.1538834999956,305.65409160000854,305.6377089000016,305.64026430000376,305.65409160000854,305.65409160000854,305.65409160000854,308.23779260000447,Objects\092a.jpg,mid,s,2.5693707000027644,None,,,,,,,,00034,001,2026-01-16_12h27.35.390,MST_test,2024.2.0,59.85439819192338,2026-01-16 12h27.43.616461 +0530,
68,0,69,n,1.8053803999937372,None,69,0,68,308.25391749999835,,,,,,,,,,,,,,,,,,,,,,,,,,,,,,,,,,,,,,,,,,,,,,,,,,308.23788950000016,308.25391749999835,308.7540999000048,308.7378213000047,308.7507607000007,308.7540999000048,308.7540999000048,308.7540999000048,310.5711300999974,Foils\017a.jpg,none,n,1.8053803999937372,None,,,,,,,,00034,001,2026-01-16_12h27.35.390,MST_test,2024.2.0,59.85439819192338,2026-01-16 12h27.43.616461 +0530,
69,0,70,o,1.5759579000005033,None,70,0,69,310.5872844999976,,,,,,,,,,,,,,,,,,,,,,,,,,,,,,,,,,,,,,,,,,,,,,,,,,310.57122430000163,310.5872844999976,311.08751729999494,311.07081350000226,311.0731866999995,311.08751729999494,311.08751729999494,311.08751729999494,312.6711126000009,Objects\087a.jpg,mid,o,1.5759579000005033,None,,,,,,,,00034,001,2026-01-16_12h27.35.390,MST_test,2024.2.0,59.85439819192338,2026-01-16 12h27.43.616461 +0530,
70,0,71,n,1.540841999987606,None,71,0,70,312.68728890000784,,,,,,,,,,,,,,,,,,,,,,,,,,,,,,,,,,,,,,,,,,,,,,,,,,312.6712045000022,312.68728890000784,313.1874979999993,313.1708130000043,313.1731584000081,313.1874979999993,313.1874979999993,313.1874979999993,314.737796100002,Foils\106a.jpg,none,n,1.540841999987606,None,,,,,,,,00034,001,2026-01-16_12h27.35.390,MST_test,2024.2.0,59.85439819192338,2026-01-16 12h27.43.616461 +0530,
71,0,72,o,1.2173609000019496,None,72,0,71,314.75389970000833,,,,,,,,,,,,,,,,,,,,,,,,,,,,,,,,,,,,,,,,,,,,,,,,,,314.73788790000253,314.75389970000833,315.2544360000029,315.2375519000052,315.2450811000017,315.2544360000029,315.2544360000029,315.2544360000029,316.48831820000487,Scenes\008a.jpg,pre,o,1.2173609000019496,None,,,,,,,,00034,001,2026-01-16_12h27.35.390,MST_test,2024.2.0,59.85439819192338,2026-01-16 12h27.43.616461 +0530,
72,0,73,n,1.8599102000007406,None,73,0,72,316.5039784999972,,,,,,,,,,,,,,,,,,,,,,,,,,,,,,,,,,,,,,,,,,,,,,,,,,316.4884202999965,316.5039784999972,317.0042029000033,316.98754820000613,316.9902185999963,317.0042029000033,317.0042029000033,317.0042029000033,318.8712511000049,Foils\scenes18.jpg,none,n,1.8599102000007406,None,,,,,,,,00034,001,2026-01-16_12h27.35.390,MST_test,2024.2.0,59.85439819192338,2026-01-16 12h27.43.616461 +0530,
73,0,74,s,1.3958418000111124,None,74,0,73,318.8872188999958,,,,,,,,,,,,,,,,,,,,,,,,,,,,,,,,,,,,,,,,,,,,,,,,,,318.87134169999626,318.8872188999958,319.3876076000015,319.3708747000055,319.3738580000063,319.3876076000015,319.3876076000015,319.3876076000015,320.7878395000007,Objects\124a.jpg,post,s,1.3958418000111124,None,,,,,,,,00034,001,2026-01-16_12h27.35.390,MST_test,2024.2.0,59.85439819192338,2026-01-16 12h27.43.616461 +0530,
74,0,75,o,1.7671612999984063,None,75,0,74,320.80390590000025,,,,,,,,,,,,,,,,,,,,,,,,,,,,,,,,,,,,,,,,,,,,,,,,,,320.7879322000081,320.80390590000025,321.30426820000866,321.2876493000076,321.29592469999625,321.30426820000866,321.30426820000866,321.30426820000866,323.0878561999998,Scenes\110a.jpg,pre,o,1.7671612999984063,None,,,,,,,,00034,001,2026-01-16_12h27.35.390,MST_test,2024.2.0,59.85439819192338,2026-01-16 12h27.43.616461 +0530,
75,0,76,o,1.1506387000117684,None,76,0,75,323.1039105999953,,,,,,,,,,,,,,,,,,,,,,,,,,,,,,,,,,,,,,,,,,,,,,,,,,323.0879510000086,323.1039105999953,323.6091587999981,323.5875165000034,323.60708280000836,323.6091587999981,323.6091587999981,323.6091587999981,324.77120509999804,Scenes\045b.jpg,pre,o,1.1506387000117684,None,,,,,,,,00034,001,2026-01-16_12h27.35.390,MST_test,2024.2.0,59.85439819192338,2026-01-16 12h27.43.616461 +0530,
76,0,77,o,2.352828299990506,None,77,0,76,324.7874043000047,,,,,,,,,,,,,,,,,,,,,,,,,,,,,,,,,,,,,,,,,,,,,,,,,,324.7712998000061,324.7874043000047,325.2880622000084,325.2708682000084,325.2781243000063,325.2880622000084,325.2880622000084,325.2880622000084,327.65436359999876,Scenes\177a.jpg,post,o,2.352828299990506,None,,,,,,,,00034,001,2026-01-16_12h27.35.390,MST_test,2024.2.0,59.85439819192338,2026-01-16 12h27.43.616461 +0530,
77,0,78,o,6.021335600002203,None,78,0,77,327.6706317000062,,,,,,,,,,,,,,,,,,,,,,,,,,,,,,,,,,,,,,,,,,,,,,,,,,327.65446230000816,327.6706317000062,328.1708601999999,328.15406190000067,328.15969040000346,328.1708601999999,328.1708601999999,328.1708601999999,334.20449859999644,Scenes\169a.jpg,pre,o,6.021335600002203,None,,,,,,,,00034,001,2026-01-16_12h27.35.390,MST_test,2024.2.0,59.85439819192338,2026-01-16 12h27.43.616461 +0530,
78,0,79,n,2.3136317000025883,None,79,0,78,334.2206340999983,,,,,,,,,,,,,,,,,,,,,,,,,,,,,,,,,,,,,,,,,,,,,,,,,,334.2045883999963,334.2206340999983,334.7276056999981,334.7040970000089,334.72529070000746,334.7276056999981,334.7276056999981,334.7276056999981,337.0544649000076,Scenes\170b.jpg,mid,n,2.3136317000025883,None,,,,,,,,00034,001,2026-01-16_12h27.35.390,MST_test,2024.2.0,59.85439819192338,2026-01-16 12h27.43.616461 +0530,
79,0,80,o,5.292158800002653,None,80,0,79,337.0706349999964,,,,,,,,,,,,,,,,,,,,,,,,,,,,,,,,,,,,,,,,,,,,,,,,,,337.05455699999584,337.0706349999964,337.57122810000146,337.5541852000024,337.56575870000233,337.57122810000146,337.57122810000146,337.57122810000146,342.8713512999966,Scenes\020a.jpg,mid,o,5.292158800002653,None,,,,,,,,00034,001,2026-01-16_12h27.35.390,MST_test,2024.2.0,59.85439819192338,2026-01-16 12h27.43.616461 +0530,
80,0,81,n,2.531598000001395,None,81,0,80,342.8872823999991,,,,,,,,,,,,,,,,,,,,,,,,,,,,,,,,,,,,,,,,,,,,,,,,,,342.87144800000533,342.8872823999991,343.38782780000474,343.370782900005,343.37434579999535,343.38782780000474,343.38782780000474,343.38782780000474,345.92156820000673,Foils\002a.jpg,none,n,2.531598000001395,None,,,,,,,,00034,001,2026-01-16_12h27.35.390,MST_test,2024.2.0,59.85439819192338,2026-01-16 12h27.43.616461 +0530,
81,0,82,o,2.3776482000102988,None,82,0,81,345.9373093000031,,,,,,,,,,,,,,,,,,,,,,,,,,,,,,,,,,,,,,,,,,,,,,,,,,345.92166839999845,345.9373093000031,346.4377652999974,346.4209029000049,346.4280601000064,346.4377652999974,346.4377652999974,346.4377652999974,348.82130520000646,Scenes\124b.jpg,post,o,2.3776482000102988,None,,,,,,,,00034,001,2026-01-16_12h27.35.390,MST_test,2024.2.0,59.85439819192338,2026-01-16 12h27.43.616461 +0530,
82,0,83,s,1.9256490999978269,None,83,0,82,348.8373954999988,,,,,,,,,,,,,,,,,,,,,,,,,,,,,,,,,,,,,,,,,,,,,,,,,,348.82140129999607,348.8373954999988,349.3378290999972,349.3209418000042,349.3339241000067,349.3378290999972,349.3378290999972,349.3378290999972,351.2711045000033,Scenes\071b.jpg,mid,s,1.9256490999978269,None,,,,,,,,00034,001,2026-01-16_12h27.35.390,MST_test,2024.2.0,59.85439819192338,2026-01-16 12h27.43.616461 +0530,
83,0,84,s,1.5800608999998076,None,84,0,83,351.28729819999717,,,,,,,,,,,,,,,,,,,,,,,,,,,,,,,,,,,,,,,,,,,,,,,,,,351.27119509999466,351.28729819999717,351.7878553000046,351.7709169000009,351.7811575999949,351.7878553000046,351.7878553000046,351.7878553000046,353.3712884999986,Scenes\009a.jpg,mid,s,1.5800608999998076,None,,,,,,,,00034,001,2026-01-16_12h27.35.390,MST_test,2024.2.0,59.85439819192338,2026-01-16 12h27.43.616461 +0530,
84,0,85,s,0.9995492000016384,None,85,0,84,353.3872854000074,,,,,,,,,,,,,,,,,,,,,,,,,,,,,,,,,,,,,,,,,,,,,,,,,,353.3713795000076,353.3872854000074,353.8879217000067,353.8709152000083,353.8777473000082,353.8879217000067,353.8879217000067,353.8879217000067,354.8882101000054,Scenes\073b.jpg,pre,s,0.9995492000016384,None,,,,,,,,00034,001,2026-01-16_12h27.35.390,MST_test,2024.2.0,59.85439819192338,2026-01-16 12h27.43.616461 +0530,
85,0,86,s,0.9453183999867178,None,86,0,85,354.9039000000048,,,,,,,,,,,,,,,,,,,,,,,,,,,,,,,,,,,,,,,,,,,,,,,,,,354.88831120000395,354.9039000000048,355.40667470000335,355.38785919999646,355.4046681000036,355.40667470000335,355.40667470000335,355.40667470000335,356.35442689999763,Scenes\156b.jpg,mid,s,0.9453183999867178,None,,,,,,,,00034,001,2026-01-16_12h27.35.390,MST_test,2024.2.0,59.85439819192338,2026-01-16 12h27.43.616461 +0530,
86,0,87,s,1.0731789999990724,None,87,0,86,356.37063400000625,,,,,,,,,,,,,,,,,,,,,,,,,,,,,,,,,,,,,,,,,,,,,,,,,,356.35452290000103,356.37063400000625,356.87106869999843,356.8541380999959,356.85775910000666,356.87106869999843,356.87106869999843,356.87106869999843,357.954670799998,Objects\159a.jpg,pre,s,1.0731789999990724,None,,,,,,,,00034,001,2026-01-16_12h27.35.390,MST_test,2024.2.0,59.85439819192338,2026-01-16 12h27.43.616461 +0530,
87,0,88,s,0.9527941999986069,None,88,0,87,357.97064169999794,,,,,,,,,,,,,,,,,,,,,,,,,,,,,,,,,,,,,,,,,,,,,,,,,,357.9547629000008,357.97064169999794,358.47077120000904,358.4541489999974,358.4572740000003,358.47077120000904,358.47077120000904,358.47077120000904,359.4378971999977,Foils\105a.jpg,none,s,0.9527941999986069,None,,,,,,,,00034,001,2026-01-16_12h27.35.390,MST_test,2024.2.0,59.85439819192338,2026-01-16 12h27.43.616461 +0530,
88,0,89,s,3.437265499989735,None,89,0,88,359.4540454000089,,,,,,,,,,,,,,,,,,,,,,,,,,,,,,,,,,,,,,,,,,,,,,,,,,359.4379945999972,359.4540454000089,359.9544018000015,359.9375279999949,359.943912200004,359.9544018000015,359.9544018000015,359.9544018000015,363.404500500008,Scenes\181b.jpg,post,s,3.437265499989735,None,,,,,,,,00034,001,2026-01-16_12h27.35.390,MST_test,2024.2.0,59.85439819192338,2026-01-16 12h27.43.616461 +0530,
89,0,90,n,1.2865580000070622,None,90,0,89,363.4205590000056,,,,,,,,,,,,,,,,,,,,,,,,,,,,,,,,,,,,,,,,,,,,,,,,,,363.4045927999978,363.4205590000056,363.92111690000456,363.90432679999503,363.9077515999961,363.92111690000456,363.92111690000456,363.92111690000456,365.22121550000156,Foils\010a.jpg,none,n,1.2865580000070622,None,,,,,,,,00034,001,2026-01-16_12h27.35.390,MST_test,2024.2.0,59.85439819192338,2026-01-16 12h27.43.616461 +0530,
90,0,91,s,0.9585576000099536,None,91,0,90,365.23730900000373,,,,,,,,,,,,,,,,,,,,,,,,,,,,,,,,,,,,,,,,,,,,,,,,,,365.2213081000082,365.23730900000373,365.73750859999564,365.7209126000089,365.72350639999786,365.73750859999564,365.73750859999564,365.73750859999564,366.70442570000887,Objects\161a.jpg,pre,s,0.9585576000099536,None,,,,,,,,00034,001,2026-01-16_12h27.35.390,MST_test,2024.2.0,59.85439819192338,2026-01-16 12h27.43.616461 +0530,
91,0,92,s,4.224417100005667,None,92,0,91,366.7206382000004,,,,,,,,,,,,,,,,,,,,,,,,,,,,,,,,,,,,,,,,,,,,,,,,,,366.7045170000056,366.7206382000004,367.2238594000082,367.2042991000053,367.22164299999713,367.2238594000082,367.2238594000082,367.2238594000082,371.45457210000313,Scenes\059b.jpg,pre,s,4.224417100005667,None,,,,,,,,00034,001,2026-01-16_12h27.35.390,MST_test,2024.2.0,59.85439819192338,2026-01-16 12h27.43.616461 +0530,
92,0,93,s,1.5970798000053037,None,93,0,92,371.4706176000036,,,,,,,,,,,,,,,,,,,,,,,,,,,,,,,,,,,,,,,,,,,,,,,,,,371.45466810000653,371.4706176000036,371.97108840000874,371.95410200000333,371.9636928999971,371.97108840000874,371.97108840000874,371.97108840000874,373.5712601999985,Objects\026b.jpg,pre,s,1.5970798000053037,None,,,,,,,,00034,001,2026-01-16_12h27.35.390,MST_test,2024.2.0,59.85439819192338,2026-01-16 12h27.43.616461 +0530,
93,0,94,o,1.103942100002314,None,94,0,93,373.58723499999905,,,,,,,,,,,,,,,,,,,,,,,,,,,,,,,,,,,,,,,,,,,,,,,,,,373.5713528000051,373.58723499999905,374.0876860999997,374.07093620000524,374.0737083999993,374.0876860999997,374.0876860999997,374.0876860999997,375.20440630000667,Scenes\097a.jpg,mid,o,1.103942100002314,None,,,,,,,,00034,001,2026-01-16_12h27.35.390,MST_test,2024.2.0,59.85439819192338,2026-01-16 12h27.43.616461 +0530,
94,0,95,o,0.9274023000034504,None,95,0,94,375.22057839999616,,,,,,,,,,,,,,,,,,,,,,,,,,,,,,,,,,,,,,,,,,,,,,,,,,375.2045005999971,375.22057839999616,375.72107810000307,375.70400510000763,375.70981980000215,375.72107810000307,375.72107810000307,375.72107810000307,376.65449600000284,Scenes\179a.jpg,pre,o,0.9274023000034504,None,,,,,,,,00034,001,2026-01-16_12h27.35.390,MST_test,2024.2.0,59.85439819192338,2026-01-16 12h27.43.616461 +0530,
95,0,96,o,0.9182097999873804,None,96,0,95,376.67058190000535,,,,,,,,,,,,,,,,,,,,,,,,,,,,,,,,,,,,,,,,,,,,,,,,,,376.65458539999963,376.67058190000535,377.17118059999484,377.1541461000015,377.1602436999965,377.17118059999484,377.17118059999484,377.17118059999484,378.10449840000365,Scenes\051b.jpg,mid,o,0.9182097999873804,None,,,,,,,,00034,001,2026-01-16_12h27.35.390,MST_test,2024.2.0,59.85439819192338,2026-01-16 12h27.43.616461 +0530,
96,0,97,s,3.4966803999996046,None,97,0,96,378.1207668999996,,,,,,,,,,,,,,,,,,,,,,,,,,,,,,,,,,,,,,,,,,,,,,,,,,378.10459440000704,378.1207668999996,378.6242323000042,378.60419480000564,378.62220949999755,378.6242323000042,378.6242323000042,378.6242323000042,382.12147410000034,Scenes\031b.jpg,pre,s,3.4966803999996046,None,,,,,,,,00034,001,2026-01-16_12h27.35.390,MST_test,2024.2.0,59.85439819192338,2026-01-16 12h27.43.616461 +0530,
97,0,98,s,1.5786057999939658,None,98,0,97,382.1372296000045,,,,,,,,,,,,,,,,,,,,,,,,,,,,,,,,,,,,,,,,,,,,,,,,,,382.1215661000024,382.1372296000045,382.6377844999952,382.62089570000535,382.62433330000204,382.6377844999952,382.6377844999952,382.6377844999952,384.2212620000064,Foils\065a.jpg,none,s,1.5786057999939658,None,,,,,,,,00034,001,2026-01-16_12h27.35.390,MST_test,2024.2.0,59.85439819192338,2026-01-16 12h27.43.616461 +0530,
98,0,99,n,1.4707671999931335,None,99,0,98,384.23729900000035,,,,,,,,,,,,,,,,,,,,,,,,,,,,,,,,,,,,,,,,,,,,,,,,,,384.221360800002,384.23729900000035,384.73745630000485,384.72087970000575,384.7309968000045,384.73745630000485,384.73745630000485,384.73745630000485,386.2211599000002,Foils\scenes13.jpg,none,n,1.4707671999931335,None,,,,,,,,00034,001,2026-01-16_12h27.35.390,MST_test,2024.2.0,59.85439819192338,2026-01-16 12h27.43.616461 +0530,
99,0,100,s,2.126525599989691,None,100,0,99,386.23731569999654,,,,,,,,,,,,,,,,,,,,,,,,,,,,,,,,,,,,,,,,,,,,,,,,,,386.22125240000605,386.23731569999654,386.73766199999955,386.72091889999865,386.73099670000374,386.73766199999955,386.73766199999955,386.73766199999955,388.87131899999804,Objects\103b.jpg,post,s,2.126525599989691,None,,,,,,,,00034,001,2026-01-16_12h27.35.390,MST_test,2024.2.0,59.85439819192338,2026-01-16 12h27.43.616461 +0530,
100,0,101,s,1.460476899999776,None,101,0,100,388.8873894999997,,,,,,,,,,,,,,,,,,,,,,,,,,,,,,,,,,,,,,,,,,,,,,,,,,388.87141210000846,388.8873894999997,389.387565099998,389.37099090000265,389.37356920000457,389.387565099998,389.387565099998,389.387565099998,390.854499100009,Objects\137a.jpg,pre,s,1.460476899999776,None,,,,,,,,00034,001,2026-01-16_12h27.35.390,MST_test,2024.2.0,59.85439819192338,2026-01-16 12h27.43.616461 +0530,
101,0,102,o,1.109116699997685,None,102,0,101,390.87075149999873,,,,,,,,,,,,,,,,,,,,,,,,,,,,,,,,,,,,,,,,,,,,,,,,,,390.85458949999884,390.87075149999873,391.3712383999955,391.3543387999962,391.36563050000404,391.3712383999955,391.3712383999955,391.3712383999955,392.48820089999936,Scenes\096b.jpg,pre,o,1.109116699997685,None,,,,,,,,00034,001,2026-01-16_12h27.35.390,MST_test,2024.2.0,59.85439819192338,2026-01-16 12h27.43.616461 +0530,
102,0,103,n,4.85146540000278,None,103,0,102,392.5040979000041,,,,,,,,,,,,,,,,,,,,,,,,,,,,,,,,,,,,,,,,,,,,,,,,,,392.48830169999565,392.5040979000041,393.00443250000535,392.9877337000071,392.9948895999987,393.00443250000535,393.00443250000535,393.00443250000535,397.87123879999854,Scenes\188a.jpg,post,n,4.85146540000278,None,,,,,,,,00034,001,2026-01-16_12h27.35.390,MST_test,2024.2.0,59.85439819192338,2026-01-16 12h27.43.616461 +0530,
103,0,104,s,1.1397483000037028,None,104,0,103,397.88741650000156,,,,,,,,,,,,,,,,,,,,,,,,,,,,,,,,,,,,,,,,,,,,,,,,,,397.87133110000286,397.88741650000156,398.38802759999817,398.37092460000713,398.3852260999993,398.38802759999817,398.38802759999817,398.38802759999817,399.53799779999827,Scenes\153b.jpg,post,s,1.1397483000037028,None,,,,,,,,00034,001,2026-01-16_12h27.35.390,MST_test,2024.2.0,59.85439819192338,2026-01-16 12h27.43.616461 +0530,
104,0,105,n,1.6070289999915985,None,105,0,104,399.5539826000022,,,,,,,,,,,,,,,,,,,,,,,,,,,,,,,,,,,,,,,,,,,,,,,,,,399.53808990000107,399.5539826000022,400.05647280000267,400.0376277000032,400.0541019000084,400.05647280000267,400.05647280000267,400.05647280000267,401.6712414000067,Scenes\131b.jpg,mid,n,1.6070289999915985,None,,,,,,,,00034,001,2026-01-16_12h27.35.390,MST_test,2024.2.0,59.85439819192338,2026-01-16 12h27.43.616461 +0530,
105,0,106,n,1.795571700000437,None,106,0,105,401.687417299996,,,,,,,,,,,,,,,,,,,,,,,,,,,,,,,,,,,,,,,,,,,,,,,,,,401.6713325000019,401.687417299996,402.18800180000835,402.1712361999962,402.18273749999935,402.18800180000835,402.18800180000835,402.18800180000835,403.98798279999755,Scenes\054a.jpg,pre,n,1.795571700000437,None,,,,,,,,00034,001,2026-01-16_12h27.35.390,MST_test,2024.2.0,59.85439819192338,2026-01-16 12h27.43.616461 +0530,
106,0,107,n,1.0628795999946306,None,107,0,106,404.004042200002,,,,,,,,,,,,,,,,,,,,,,,,,,,,,,,,,,,,,,,,,,,,,,,,,,403.9880751000019,404.004042200002,404.5045536999969,404.48766780000005,404.4909295999969,404.5045536999969,404.5045536999969,404.5045536999969,405.57159170000523,Foils\082a.jpg,none,n,1.0628795999946306,None,,,,,,,,00034,001,2026-01-16_12h27.35.390,MST_test,2024.2.0,59.85439819192338,2026-01-16 12h27.43.616461 +0530,
107,0,108,s,1.2959545999910915,None,108,0,107,405.58740679999755,,,,,,,,,,,,,,,,,,,,,,,,,,,,,,,,,,,,,,,,,,,,,,,,,,405.5716858999949,405.58740679999755,406.08754210000916,406.0710032000061,406.0736137000058,406.08754210000916,406.08754210000916,406.08754210000916,407.3880202,Objects\100b.jpg,post,s,1.2959545999910915,None,,,,,,,,00034,001,2026-01-16_12h27.35.390,MST_test,2024.2.0,59.85439819192338,2026-01-16 12h27.43.616461 +0530,
108,0,109,o,4.431501800005208,None,109,0,108,407.40408300000126,,,,,,,,,,,,,,,,,,,,,,,,,,,,,,,,,,,,,,,,,,,,,,,,,,407.3881109000067,407.40408300000126,407.90456360000826,407.8878492000076,407.897383500007,407.90456360000826,407.90456360000826,407.90456360000826,412.33814690000145,Scenes\012a.jpg,pre,o,4.431501800005208,None,,,,,,,,00034,001,2026-01-16_12h27.35.390,MST_test,2024.2.0,59.85439819192338,2026-01-16 12h27.43.616461 +0530,
109,0,110,o,2.385884499992244,None,110,0,109,412.3540306000068,,,,,,,,,,,,,,,,,,,,,,,,,,,,,,,,,,,,,,,,,,,,,,,,,,412.338239100005,412.3540306000068,412.8547325999971,412.83773559999827,412.8498721000069,412.8547325999971,412.8547325999971,412.8547325999971,415.25466220000817,Objects\084b.jpg,pre,o,2.385884499992244,None,,,,,,,,00034,001,2026-01-16_12h27.35.390,MST_test,2024.2.0,59.85439819192338,2026-01-16 12h27.43.616461 +0530,
110,0,111,o,1.9015012000018032,None,111,0,110,415.2707287999947,,,,,,,,,,,,,,,,,,,,,,,,,,,,,,,,,,,,,,,,,,,,,,,,,,415.2547530000011,415.2707287999947,415.77094950000173,415.7542562000017,415.7567584000062,415.77094950000173,415.77094950000173,415.77094950000173,417.68796110000403,Objects\038a.jpg,mid,o,1.9015012000018032,None,,,,,,,,00034,001,2026-01-16_12h27.35.390,MST_test,2024.2.0,59.85439819192338,2026-01-16 12h27.43.616461 +0530,
111,0,112,n,1.1798941000015475,None,112,0,111,417.70398760000535,,,,,,,,,,,,,,,,,,,,,,,,,,,,,,,,,,,,,,,,,,,,,,,,,,417.6880500999978,417.70398760000535,418.20445720000134,418.18757809999806,418.1969936999958,418.20445720000134,418.20445720000134,418.20445720000134,419.3879381000006,Foils\scenes17.jpg,none,n,1.1798941000015475,None,,,,,,,,00034,001,2026-01-16_12h27.35.390,MST_test,2024.2.0,59.85439819192338,2026-01-16 12h27.43.616461 +0530,
112,0,113,n,1.3495155999989947,None,113,0,112,419.40406939999957,,,,,,,,,,,,,,,,,,,,,,,,,,,,,,,,,,,,,,,,,,,,,,,,,,419.3880305000057,419.40406939999957,419.9060518000042,419.88771769999585,419.903888300003,419.9060518000042,419.9060518000042,419.9060518000042,421.271376699995,Scenes\150b.jpg,pre,n,1.3495155999989947,None,,,,,,,,00034,001,2026-01-16_12h27.35.390,MST_test,2024.2.0,59.85439819192338,2026-01-16 12h27.43.616461 +0530,
113,0,114,n,1.2435941000003368,None,114,0,113,421.287347999998,,,,,,,,,,,,,,,,,,,,,,,,,,,,,,,,,,,,,,,,,,,,,,,,,,421.27147619999596,421.287347999998,421.78791430000274,421.771064200002,421.7746144999983,421.78791430000274,421.78791430000274,421.78791430000274,423.03813210000226,Foils\058a.jpg,none,n,1.2435941000003368,None,,,,,,,,00034,001,2026-01-16_12h27.35.390,MST_test,2024.2.0,59.85439819192338,2026-01-16 12h27.43.616461 +0530,
114,0,115,n,1.4293524000095204,None,115,0,114,423.0540847000084,,,,,,,,,,,,,,,,,,,,,,,,,,,,,,,,,,,,,,,,,,,,,,,,,,423.0382246000081,423.0540847000084,423.55444900000293,423.53776639999705,423.5470987000008,423.55444900000293,423.55444900000293,423.55444900000293,424.9880322999961,Scenes\149a.jpg,post,n,1.4293524000095204,None,,,,,,,,00034,001,2026-01-16_12h27.35.390,MST_test,2024.2.0,59.85439819192338,2026-01-16 12h27.43.616461 +0530,
115,0,116,o,2.7999354999919888,None,116,0,115,425.003987899996,,,,,,,,,,,,,,,,,,,,,,,,,,,,,,,,,,,,,,,,,,,,,,,,,,424.98812150000595,425.003987899996,425.50438870000653,425.4877978000004,425.49084860000585,425.50438870000653,425.50438870000653,425.50438870000653,428.32138320000377,Objects\093a.jpg,post,o,2.7999354999919888,None,,,,,,,,00034,001,2026-01-16_12h27.35.390,MST_test,2024.2.0,59.85439819192338,2026-01-16 12h27.43.616461 +0530,
116,0,117,o,1.2346587000065483,None,117,0,116,428.33741619999637,,,,,,,,,,,,,,,,,,,,,,,,,,,,,,,,,,,,,,,,,,,,,,,,,,428.3214730000036,428.33741619999637,428.8375190000079,428.82096949999686,428.82353069999954,428.8375190000079,428.8375190000079,428.8375190000079,430.0885380999971,Objects\183a.jpg,pre,o,1.2346587000065483,None,,,,,,,,00034,001,2026-01-16_12h27.35.390,MST_test,2024.2.0,59.85439819192338,2026-01-16 12h27.43.616461 +0530,
117,0,118,s,3.251537600008305,None,118,0,117,430.10383100000035,,,,,,,,,,,,,,,,,,,,,,,,,,,,,,,,,,,,,,,,,,,,,,,,,,430.08863470000506,430.10383100000035,430.6041506000038,430.587729699997,430.5902286000055,430.6041506000038,430.6041506000038,430.6041506000038,433.87131440000667,Objects\112b.jpg,mid,s,3.251537600008305,None,,,,,,,,00034,001,2026-01-16_12h27.35.390,MST_test,2024.2.0,59.85439819192338,2026-01-16 12h27.43.616461 +0530,
118,0,119,n,1.2120062000030885,None,119,0,118,433.88743230000546,,,,,,,,,,,,,,,,,,,,,,,,,,,,,,,,,,,,,,,,,,,,,,,,,,433.871410000007,433.88743230000546,434.38800540000375,434.3710170999984,434.38317810000444,434.38800540000375,434.38800540000375,434.38800540000375,435.60452950000763,Foils\scenes28.jpg,none,n,1.2120062000030885,None,,,,,,,,00034,001,2026-01-16_12h27.35.390,MST_test,2024.2.0,59.85439819192338,2026-01-16 12h27.43.616461 +0530,
119,0,120,o,2.2941406999889296,None,120,0,119,435.6207540000032,,,,,,,,,,,,,,,,,,,,,,,,,,,,,,,,,,,,,,,,,,,,,,,,,,435.6046198999975,435.6207540000032,436.12156230000255,436.1043233000091,436.1137530999986,436.12156230000255,436.12156230000255,436.12156230000255,438.4212702000077,Scenes\101a.jpg,pre,o,2.2941406999889296,None,,,,,,,,00034,001,2026-01-16_12h27.35.390,MST_test,2024.2.0,59.85439819192338,2026-01-16 12h27.43.616461 +0530,
120,0,121,o,1.1586725999950431,None,121,0,120,438.43765740000526,,,,,,,,,,,,,,,,,,,,,,,,,,,,,,,,,,,,,,,,,,,,,,,,,,438.42136170000595,438.43765740000526,438.9379081000079,438.9211176999961,438.92451070000243,438.9379081000079,438.9379081000079,438.9379081000079,440.1048951999983,Objects\082a.jpg,mid,o,1.1586725999950431,None,,,,,,,,00034,001,2026-01-16_12h27.35.390,MST_test,2024.2.0,59.85439819192338,2026-01-16 12h27.43.616461 +0530,
121,0,122,s,1.3789022999990266,None,122,0,121,440.1207465000043,,,,,,,,,,,,,,,,,,,,,,,,,,,,,,,,,,,,,,,,,,,,,,,,,,440.1050067000033,440.1207465000043,440.6209186000051,440.6042346000031,440.6137027000077,440.6209186000051,440.6209186000051,440.6209186000051,442.0046464000043,Objects\054b.jpg,post,s,1.3789022999990266,None,,,,,,,,00034,001,2026-01-16_12h27.35.390,MST_test,2024.2.0,59.85439819192338,2026-01-16 12h27.43.616461 +0530,
122,0,123,n,2.3744082000048365,None,123,0,122,442.020731800003,,,,,,,,,,,,,,,,,,,,,,,,,,,,,,,,,,,,,,,,,,,,,,,,,,442.0047387000086,442.020731800003,442.52123030000075,442.50431689999823,442.5141326000012,442.52123030000075,442.52123030000075,442.52123030000075,444.9047359999968,Objects\009b.jpg,pre,n,2.3744082000048365,None,,,,,,,,00034,001,2026-01-16_12h27.35.390,MST_test,2024.2.0,59.85439819192338,2026-01-16 12h27.43.616461 +0530,
123,0,124,s,1.195108900006744,None,124,0,123,444.9207385000045,,,,,,,,,,,,,,,,,,,,,,,,,,,,,,,,,,,,,,,,,,,,,,,,,,444.9048274000088,444.9207385000045,445.42096469999524,445.4044311000034,445.4071452000062,445.42096469999524,445.42096469999524,445.42096469999524,446.6213656000036,Objects\089b.jpg,post,s,1.195108900006744,None,,,,,,,,00034,001,2026-01-16_12h27.35.390,MST_test,2024.2.0,59.85439819192338,2026-01-16 12h27.43.616461 +0530,
124,0,125,s,5.334203299993533,None,125,0,124,446.63743960000284,,,,,,,,,,,,,,,,,,,,,,,,,,,,,,,,,,,,,,,,,,,,,,,,,,446.6214580999949,446.63743960000284,447.1377833000006,447.1210274000041,447.12536750000436,447.1377833000006,447.1377833000006,447.1377833000006,452.48835939999844,Scenes\112b.jpg,mid,s,5.334203299993533,None,,,,,,,,00034,001,2026-01-16_12h27.35.390,MST_test,2024.2.0,59.85439819192338,2026-01-16 12h27.43.616461 +0530,
125,0,126,s,1.0750779999943916,None,126,0,125,452.50396299999557,,,,,,,,,,,,,,,,,,,,,,,,,,,,,,,,,,,,,,,,,,,,,,,,,,452.48846580000827,452.50396299999557,453.0044935000042,452.9875330000068,452.99799040000653,453.0044935000042,453.0044935000042,453.0044935000042,454.08790990000125,Scenes\029a.jpg,post,s,1.0750779999943916,None,,,,,,,,00034,001,2026-01-16_12h27.35.390,MST_test,2024.2.0,59.85439819192338,2026-01-16 12h27.43.616461 +0530,
126,0,127,s,2.987647999994806,None,127,0,126,454.10385519999545,,,,,,,,,,,,,,,,,,,,,,,,,,,,,,,,,,,,,,,,,,,,,,,,,,454.0880005000072,454.10385519999545,454.60439380000753,454.58775970000715,454.5980836999952,454.60439380000753,454.60439380000753,454.60439380000753,457.60441650000575,Objects\109b.jpg,pre,s,2.987647999994806,None,,,,,,,,00034,001,2026-01-16_12h27.35.390,MST_test,2024.2.0,59.85439819192338,2026-01-16 12h27.43.616461 +0530,
127,0,128,n,2.3667865999887,None,128,0,127,457.6206613999966,,,,,,,,,,,,,,,,,,,,,,,,,,,,,,,,,,,,,,,,,,,,,,,,,,457.60450709999714,457.6206613999966,458.1218810999999,458.1041111999948,458.11938910000026,458.1218810999999,458.1218810999999,458.1218810999999,460.50437759999477,Scenes\157b.jpg,mid,n,2.3667865999887,None,,,,,,,,00034,001,2026-01-16_12h27.35.390,MST_test,2024.2.0,59.85439819192338,2026-01-16 12h27.43.616461 +0530,
128,0,129,n,1.4107393000012962,None,129,0,128,460.52061560000584,,,,,,,,,,,,,,,,,,,,,,,,,,,,,,,,,,,,,,,,,,,,,,,,,,460.5044698999991,460.52061560000584,461.02104999999574,461.0041502999957,461.0126980000059,461.02104999999574,461.02104999999574,461.02104999999574,462.4381127000088,Foils\scenes7.jpg,none,n,1.4107393000012962,None,,,,,,,,00034,001,2026-01-16_12h27.35.390,MST_test,2024.2.0,59.85439819192338,2026-01-16 12h27.43.616461 +0530,
129,0,130,n,3.478062800000771,None,130,0,129,462.4538290000055,,,,,,,,,,,,,,,,,,,,,,,,,,,,,,,,,,,,,,,,,,,,,,,,,,462.43820340000093,462.4538290000055,462.9542289000092,462.9376068999991,462.9408822999976,462.9542289000092,462.9542289000092,462.9542289000092,466.4378108999954,Foils\033a.jpg,none,n,3.478062800000771,None,,,,,,,,00034,001,2026-01-16_12h27.35.390,MST_test,2024.2.0,59.85439819192338,2026-01-16 12h27.43.616461 +0530,
130,0,131,n,3.51840080000693,None,131,0,130,466.4539347999962,,,,,,,,,,,,,,,,,,,,,,,,,,,,,,,,,,,,,,,,,,,,,,,,,,466.4378992999991,466.4539347999962,466.95433670000057,466.93781560000207,466.9400144999963,466.95433670000057,466.95433670000057,466.95433670000057,470.4880323999969,Foils\scenes19.jpg,none,n,3.51840080000693,None,,,,,,,,00034,001,2026-01-16_12h27.35.390,MST_test,2024.2.0,59.85439819192338,2026-01-16 12h27.43.616461 +0530,
131,0,132,o,1.9083379000076093,None,132,0,131,470.5038543999981,,,,,,,,,,,,,,,,,,,,,,,,,,,,,,,,,,,,,,,,,,,,,,,,,,470.4881250000035,470.5038543999981,471.0040982000064,470.98755570000503,470.9904111000069,471.0040982000064,471.0040982000064,471.0040982000064,472.9213388000062,Objects\076a.jpg,mid,o,1.9083379000076093,None,,,,,,,,00034,001,2026-01-16_12h27.35.390,MST_test,2024.2.0,59.85439819192338,2026-01-16 12h27.43.616461 +0530,
132,0,133,o,1.7786009999981616,None,133,0,132,472.93733640000573,,,,,,,,,,,,,,,,,,,,,,,,,,,,,,,,,,,,,,,,,,,,,,,,,,472.9214331999974,472.93733640000573,473.43784230000165,473.4209460999991,473.4309954000055,473.43784230000165,473.43784230000165,473.43784230000165,475.22114280000096,Scenes\092a.jpg,post,o,1.7786009999981616,None,,,,,,,,00034,001,2026-01-16_12h27.35.390,MST_test,2024.2.0,59.85439819192338,2026-01-16 12h27.43.616461 +0530,
133,0,134,s,2.7990910000080476,None,134,0,133,475.23733540000103,,,,,,,,,,,,,,,,,,,,,,,,,,,,,,,,,,,,,,,,,,,,,,,,,,475.2212314000062,475.23733540000103,475.73774130000675,475.72089500000584,475.72404810000444,475.73774130000675,475.73774130000675,475.73774130000675,478.5379568000062,Objects\155a.jpg,mid,s,2.7990910000080476,None,,,,,,,,00034,001,2026-01-16_12h27.35.390,MST_test,2024.2.0,59.85439819192338,2026-01-16 12h27.43.616461 +0530,
134,0,135,o,1.2984571999986656,None,135,0,134,478.553917600002,,,,,,,,,,,,,,,,,,,,,,,,,,,,,,,,,,,,,,,,,,,,,,,,,,478.53804690000834,478.553917600002,479.0539994999999,479.0375617999962,479.0403628000058,479.0539994999999,479.0539994999999,479.0539994999999,480.3545523000066,Objects\070a.jpg,pre,o,1.2984571999986656,None,,,,,,,,00034,001,2026-01-16_12h27.35.390,MST_test,2024.2.0,59.85439819192338,2026-01-16 12h27.43.616461 +0530,
135,0,136,s,1.1292092000076082,None,136,0,135,480.37060520000523,,,,,,,,,,,,,,,,,,,,,,,,,,,,,,,,,,,,,,,,,,,,,,,,,,480.35464190000494,480.37060520000523,480.8709075000079,480.85403820000647,480.8564825000067,480.8709075000079,480.8709075000079,480.8709075000079,482.004692100003,Objects\005a.jpg,post,s,1.1292092000076082,None,,,,,,,,00034,001,2026-01-16_12h27.35.390,MST_test,2024.2.0,59.85439819192338,2026-01-16 12h27.43.616461 +0530,
136,0,137,s,2.9029687000002014,None,137,0,136,482.020669000005,,,,,,,,,,,,,,,,,,,,,,,,,,,,,,,,,,,,,,,,,,,,,,,,,,482.00479160000395,482.020669000005,482.52113039999676,482.5040907000075,482.51472799999465,482.52113039999676,482.52113039999676,482.52113039999676,485.4378932999971,Scenes\043a.jpg,post,s,2.9029687000002014,None,,,,,,,,00034,001,2026-01-16_12h27.35.390,MST_test,2024.2.0,59.85439819192338,2026-01-16 12h27.43.616461 +0530,
137,0,138,s,1.117351699998835,None,138,0,137,485.453840400005,,,,,,,,,,,,,,,,,,,,,,,,,,,,,,,,,,,,,,,,,,,,,,,,,,485.43799770000624,485.453840400005,485.95430599999963,485.9375880000007,485.9407053000032,485.95430599999963,485.95430599999963,485.95430599999963,487.0880082000076,Objects\032a.jpg,post,s,1.117351699998835,None,,,,,,,,00034,001,2026-01-16_12h27.35.390,MST_test,2024.2.0,59.85439819192338,2026-01-16 12h27.43.616461 +0530,
138,0,139,s,3.212162799987709,None,139,0,138,487.10391819999495,,,,,,,,,,,,,,,,,,,,,,,,,,,,,,,,,,,,,,,,,,,,,,,,,,487.0881083999993,487.10391819999495,487.60416980000446,487.58758439999656,487.5988542999985,487.60416980000446,487.60416980000446,487.60416980000446,490.82121959999495,Objects\041b.jpg,post,s,3.212162799987709,None,,,,,,,,00034,001,2026-01-16_12h27.35.390,MST_test,2024.2.0,59.85439819192338,2026-01-16 12h27.43.616461 +0530,
139,0,140,o,1.6546622999885585,None,140,0,139,490.83738209999865,,,,,,,,,,,,,,,,,,,,,,,,,,,,,,,,,,,,,,,,,,,,,,,,,,490.8213534999959,490.83738209999865,491.3375197999994,491.32097000000067,491.32366190000903,491.3375197999994,491.3375197999994,491.3375197999994,493.00441789999604,Objects\189a.jpg,post,o,1.6546622999885585,None,,,,,,,,00034,001,2026-01-16_12h27.35.390,MST_test,2024.2.0,59.85439819192338,2026-01-16 12h27.43.616461 +0530,
140,0,141,o,1.2873755999899004,None,141,0,140,493.02067030000035,,,,,,,,,,,,,,,,,,,,,,,,,,,,,,,,,,,,,,,,,,,,,,,,,,493.0045115999965,493.02067030000035,493.5208319999947,493.50418560000253,493.5134628999949,493.5208319999947,493.5208319999947,493.5208319999947,494.82124000000476,Objects\046b.jpg,post,o,1.2873755999899004,None,,,,,,,,00034,001,2026-01-16_12h27.35.390,MST_test,2024.2.0,59.85439819192338,2026-01-16 12h27.43.616461 +0530,
141,0,142,s,1.7339861999935238,None,142,0,141,494.83727689999796,,,,,,,,,,,,,,,,,,,,,,,,,,,,,,,,,,,,,,,,,,,,,,,,,,494.82133079999767,494.83727689999796,495.33754469999985,495.32087409999804,495.3305592999968,495.33754469999985,495.33754469999985,495.33754469999985,497.08788210000785,Objects\144b.jpg,mid,s,1.7339861999935238,None,,,,,,,,00034,001,2026-01-16_12h27.35.390,MST_test,2024.2.0,59.85439819192338,2026-01-16 12h27.43.616461 +0530,
142,0,143,n,2.444559700001264,None,143,0,142,497.103935799998,,,,,,,,,,,,,,,,,,,,,,,,,,,,,,,,,,,,,,,,,,,,,,,,,,497.08797590000904,497.103935799998,497.6044854000065,497.5876594000001,497.60131700000784,497.6044854000065,497.6044854000065,497.6044854000065,500.05459680000786,Scenes\132b.jpg,post,n,2.444559700001264,None,,,,,,,,00034,001,2026-01-16_12h27.35.390,MST_test,2024.2.0,59.85439819192338,2026-01-16 12h27.43.616461 +0530,
143,0,144,o,1.2124462999927346,None,144,0,143,500.070673299997,,,,,,,,,,,,,,,,,,,,,,,,,,,,,,,,,,,,,,,,,,,,,,,,,,500.054699100001,500.070673299997,500.5711278999952,500.5541959999973,500.557527500001,500.5711278999952,500.5711278999952,500.5711278999952,501.787956900007,Objects\069a.jpg,mid,o,1.2124462999927346,None,,,,,,,,00034,001,2026-01-16_12h27.35.390,MST_test,2024.2.0,59.85439819192338,2026-01-16 12h27.43.616461 +0530,
144,0,145,s,3.7120477999997092,None,145,0,144,501.80391050000617,,,,,,,,,,,,,,,,,,,,,,,,,,,,,,,,,,,,,,,,,,,,,,,,,,501.78804690000834,501.80391050000617,502.30446369999845,502.28798480000114,502.29544650000753,502.30446369999845,502.30446369999845,502.30446369999845,506.0212720999989,Scenes\111b.jpg,mid,s,3.7120477999997092,None,,,,,,,,00034,001,2026-01-16_12h27.35.390,MST_test,2024.2.0,59.85439819192338,2026-01-16 12h27.43.616461 +0530,
145,0,146,s,1.4861872000037692,None,146,0,145,506.03728659999615,,,,,,,,,,,,,,,,,,,,,,,,,,,,,,,,,,,,,,,,,,,,,,,,,,506.0213742000051,506.03728659999615,506.5375985999999,506.52120030000515,506.528555900004,506.5375985999999,506.5375985999999,506.5375985999999,508.03805499999726,Scenes\180a.jpg,pre,s,1.4861872000037692,None,,,,,,,,00034,001,2026-01-16_12h27.35.390,MST_test,2024.2.0,59.85439819192338,2026-01-16 12h27.43.616461 +0530,
146,0,147,n,1.1572646999993594,None,147,0,146,508.05400410000584,,,,,,,,,,,,,,,,,,,,,,,,,,,,,,,,,,,,,,,,,,,,,,,,,,508.03814760000387,508.05400410000584,508.5542987000081,508.53775869999663,508.547642000005,508.5542987000081,508.5542987000081,508.5542987000081,509.721237500009,Objects\060b.jpg,post,n,1.1572646999993594,None,,,,,,,,00034,001,2026-01-16_12h27.35.390,MST_test,2024.2.0,59.85439819192338,2026-01-16 12h27.43.616461 +0530,
147,0,148,n,6.895230099995388,None,148,0,147,509.7374443000008,,,,,,,,,,,,,,,,,,,,,,,,,,,,,,,,,,,,,,,,,,,,,,,,,,509.7213297999988,509.7374443000008,510.24052340000344,510.2209442000021,510.2383841999981,510.24052340000344,510.24052340000344,510.24052340000344,517.1382643999968,Scenes\011b.jpg,mid,n,6.895230099995388,None,,,,,,,,00034,001,2026-01-16_12h27.35.390,MST_test,2024.2.0,59.85439819192338,2026-01-16 12h27.43.616461 +0530,
148,0,149,n,7.937359999996261,None,149,0,148,517.1539895000024,,,,,,,,,,,,,,,,,,,,,,,,,,,,,,,,,,,,,,,,,,,,,,,,,,517.1383567000012,517.1539895000024,517.6546664000052,517.6377720000019,517.6490316999989,517.6546664000052,517.6546664000052,517.6546664000052,525.6045625999977,Scenes\102b.jpg,pre,n,7.937359999996261,None,,,,,,,,00034,001,2026-01-16_12h27.35.390,MST_test,2024.2.0,59.85439819192338,2026-01-16 12h27.43.616461 +0530,
149,0,150,s,1.5586164999986067,None,150,0,149,525.620794100003,,,,,,,,,,,,,,,,,,,,,,,,,,,,,,,,,,,,,,,,,,,,,,,,,,525.6046601999988,525.620794100003,526.1212384999963,526.1042942000058,526.1115010000067,526.1212384999963,526.1212384999963,526.1212384999963,527.6880576999974,Scenes\050a.jpg,post,s,1.5586164999986067,None,,,,,,,,00034,001,2026-01-16_12h27.35.390,MST_test,2024.2.0,59.85439819192338,2026-01-16 12h27.43.616461 +0530,
,,,,,,,,,,,,,,,,,,,,,,,,,,,,,,,,,,,,,,,,,,,,,,,,,,,,,,,,,,,,,,,,,,,,,,,,,527.6881201000069,527.7040056999977,527.7040056999977,530.1212601000007,space,2.408054200001061,None,00034,001,2026-01-16_12h27.35.390,MST_test,2024.2.0,59.85439819192338,2026-01-16 12h27.43.616461 +0530,
