thisN,thisTrialN,thisRepN,key_resp_3.keys,key_resp_3.rt,key_resp_3.duration,trials.thisRepN,trials.thisTrialN,trials.thisN,thisRow.t,notes,intro_page.started,text.started,key_resp.started,intro_page.stopped,key_resp.keys,key_resp.rt,key_resp.duration,instructions.started,text_2.started,key_resp_2.started,instructions.stopped,key_resp_2.keys,key_resp_2.rt,key_resp_2.duration,demo1.started,image_1.started,image_2.started,text_7.started,key_resp_6.started,text_9.started,demo1.stopped,key_resp_6.keys,key_resp_6.rt,key_resp_6.duration,demo2.started,image_5.started,image_6.started,text_11.started,text_12.started,key_resp_8.started,demo2.stopped,key_resp_8.keys,key_resp_8.rt,key_resp_8.duration,demo_conclusion.started,text_13.started,key_resp_9.started,demo_conclusion.stopped,key_resp_9.keys,key_resp_9.rt,key_resp_9.duration,start_test.started,text_6.started,key_resp_5.started,start_test.stopped,key_resp_5.keys,key_resp_5.rt,key_resp_5.duration,ISI.started,text_4.started,text_4.stopped,ISI.stopped,routine_1.started,image.started,text_3.started,key_resp_3.started,routine_1.stopped,image_path,position_of_stimuli,trials.key_resp_3.keys,trials.key_resp_3.rt,trials.key_resp_3.duration,End_page.started,text_5.started,key_resp_4.started,End_page.stopped,key_resp_4.keys,key_resp_4.rt,key_resp_4.duration,participant,session,date,expName,psychopyVersion,frameRate,expStart,
,,,,,,,,,,,0.001086999982362613,0.002744500001426786,0.002744500001426786,5.638744800002314,space,5.6328828999830876,None,,,,,,,,,,,,,,,,,,,,,,,,,,,,,,,,,,,,,,,,,,,,,,,,,,,,,,,,,,,,,,,00037,001,2026-01-16_22h02.46.955,MST_test,2024.2.0,60.10615949556764,2026-01-16 22h02.56.318883 +0530,
,,,,,,,,,,,,,,,,,,5.6387797000061255,5.65337789998739,5.65337789998739,19.453908700001193,space,13.798691100004362,None,,,,,,,,,,,,,,,,,,,,,,,,,,,,,,,,,,,,,,,,,,,,,,,,,,,,,,,,00037,001,2026-01-16_22h02.46.955,MST_test,2024.2.0,60.10615949556764,2026-01-16 22h02.56.318883 +0530,
,,,,,,,,,,,,,,,,,,,,,,,,,19.45393650000915,19.470436000003247,19.470436000003247,19.470436000003247,19.470436000003247,19.470436000003247,24.704219399980502,space,5.229380700009642,None,,,,,,,,,,,,,,,,,,,,,,,,,,,,,,,,,,,,,,,,,,,,,,00037,001,2026-01-16_22h02.46.955,MST_test,2024.2.0,60.10615949556764,2026-01-16 22h02.56.318883 +0530,
,,,,,,,,,,,,,,,,,,,,,,,,,,,,,,,,,,,24.70424789999379,24.72046449998743,24.72046449998743,24.72046449998743,24.72046449998743,24.72046449998743,29.92073819998768,space,5.187169499986339,None,,,,,,,,,,,,,,,,,,,,,,,,,,,,,,,,,,,,00037,001,2026-01-16_22h02.46.955,MST_test,2024.2.0,60.10615949556764,2026-01-16 22h02.56.318883 +0530,
,,,,,,,,,,,,,,,,,,,,,,,,,,,,,,,,,,,,,,,,,,,,,29.920766600000206,29.93674859998282,29.93674859998282,39.93734430000768,space,9.986991900019348,None,,,,,,,,,,,,,,,,,,,,,,,,,,,,,00037,001,2026-01-16_22h02.46.955,MST_test,2024.2.0,60.10615949556764,2026-01-16 22h02.56.318883 +0530,
,,,,,,,,,,,,,,,,,,,,,,,,,,,,,,,,,,,,,,,,,,,,,,,,,,,,39.93737490000785,39.953409399982775,39.953409399982775,88.68726939999033,space,48.72232900001109,None,,,,,,,,,,,,,,,,,,,,,,00037,001,2026-01-16_22h02.46.955,MST_test,2024.2.0,60.10615949556764,2026-01-16 22h02.56.318883 +0530,
0,0,1,s,3.077088400023058,None,1,0,0,88.70352249999996,,,,,,,,,,,,,,,,,,,,,,,,,,,,,,,,,,,,,,,,,,,,,,,,,,88.69139059999725,88.70352249999996,89.21461070000078,89.18713459998253,89.21236010000575,89.21461070000078,89.21461070000078,89.21461070000078,92.30430439999327,Scenes\174b.jpg,post,s,3.077088400023058,None,,,,,,,,00037,001,2026-01-16_22h02.46.955,MST_test,2024.2.0,60.10615949556764,2026-01-16 22h02.56.318883 +0530,
1,0,2,s,5.680043600004865,None,2,0,1,92.32027389999712,,,,,,,,,,,,,,,,,,,,,,,,,,,,,,,,,,,,,,,,,,,,,,,,,,92.30441769998288,92.32027389999712,92.82022819999838,92.80382899998222,92.813676699996,92.82022819999838,92.82022819999838,92.82022819999838,98.50413439999102,Scenes\170a.jpg,post,s,5.680043600004865,None,,,,,,,,00037,001,2026-01-16_22h02.46.955,MST_test,2024.2.0,60.10615949556764,2026-01-16 22h02.56.318883 +0530,
2,0,3,n,3.48785959999077,None,3,0,2,98.52016929999809,,,,,,,,,,,,,,,,,,,,,,,,,,,,,,,,,,,,,,,,,,,,,,,,,,98.50423900000169,98.52016929999809,99.02024340000935,99.00387680000858,99.01570739998715,99.02024340000935,99.02024340000935,99.02024340000935,102.52058389998274,Foils\097a.jpg,none,n,3.48785959999077,None,,,,,,,,00037,001,2026-01-16_22h02.46.955,MST_test,2024.2.0,60.10615949556764,2026-01-16 22h02.56.318883 +0530,
3,0,4,o,3.0553709999949206,None,4,0,3,102.53688490000786,,,,,,,,,,,,,,,,,,,,,,,,,,,,,,,,,,,,,,,,,,,,,,,,,,102.52067619998707,102.53688490000786,103.03703999999561,103.02029339998262,103.02282459998969,103.03703999999561,103.03703999999561,103.03703999999561,106.1040442000085,Objects\104a.jpg,mid,o,3.0553709999949206,None,,,,,,,,00037,001,2026-01-16_22h02.46.955,MST_test,2024.2.0,60.10615949556764,2026-01-16 22h02.56.318883 +0530,
4,0,5,o,3.728128199989442,None,5,0,4,106.12018080000416,,,,,,,,,,,,,,,,,,,,,,,,,,,,,,,,,,,,,,,,,,,,,,,,,,106.10413570000674,106.12018080000416,106.62055019999389,106.6038198999886,106.61534679998294,106.62055019999389,106.62055019999389,106.62055019999389,110.35415639998973,Scenes\015a.jpg,mid,o,3.728128199989442,None,,,,,,,,00037,001,2026-01-16_22h02.46.955,MST_test,2024.2.0,60.10615949556764,2026-01-16 22h02.56.318883 +0530,
5,0,6,s,8.286233099992387,None,6,0,5,110.36994659999618,,,,,,,,,,,,,,,,,,,,,,,,,,,,,,,,,,,,,,,,,,,,,,,,,,110.35426259998349,110.36994659999618,110.87077360000694,110.85372660000576,110.8640000000014,110.87077360000694,110.87077360000694,110.87077360000694,119.17062160000205,Scenes\033b.jpg,mid,s,8.286233099992387,None,,,,,,,,00037,001,2026-01-16_22h02.46.955,MST_test,2024.2.0,60.10615949556764,2026-01-16 22h02.56.318883 +0530,
6,0,7,o,2.356420399999479,None,7,0,6,119.18689240000094,,,,,,,,,,,,,,,,,,,,,,,,,,,,,,,,,,,,,,,,,,,,,,,,,,119.17071400000714,119.18689240000094,119.6872435999976,119.67040289999568,119.67352789998404,119.6872435999976,119.6872435999976,119.6872435999976,122.05419219998294,Objects\187a.jpg,post,o,2.356420399999479,None,,,,,,,,00037,001,2026-01-16_22h02.46.955,MST_test,2024.2.0,60.10615949556764,2026-01-16 22h02.56.318883 +0530,
7,0,8,n,8.505086699995445,None,8,0,7,122.07007349998457,,,,,,,,,,,,,,,,,,,,,,,,,,,,,,,,,,,,,,,,,,,,,,,,,,122.0542936999991,122.07007349998457,122.57069429999683,122.55378449999262,122.56462630000897,122.57069429999683,122.57069429999683,122.57069429999683,131.0873630999995,Scenes\082a.jpg,pre,n,8.505086699995445,None,,,,,,,,00037,001,2026-01-16_22h02.46.955,MST_test,2024.2.0,60.10615949556764,2026-01-16 22h02.56.318883 +0530,
8,0,9,o,2.5919941999891307,None,9,0,8,131.10355090000667,,,,,,,,,,,,,,,,,,,,,,,,,,,,,,,,,,,,,,,,,,,,,,,,,,131.08745560000534,131.10355090000667,131.60415229998762,131.58713369999896,131.59299589999137,131.60415229998762,131.60415229998762,131.60415229998762,134.20416520000435,Scenes\163a.jpg,mid,o,2.5919941999891307,None,,,,,,,,00037,001,2026-01-16_22h02.46.955,MST_test,2024.2.0,60.10615949556764,2026-01-16 22h02.56.318883 +0530,
9,0,10,o,2.5555014999990817,None,10,0,9,134.2201262000017,,,,,,,,,,,,,,,,,,,,,,,,,,,,,,,,,,,,,,,,,,,,,,,,,,134.20425859998795,134.2201262000017,134.72052080000867,134.7037524000043,134.71077390000573,134.72052080000867,134.72052080000867,134.72052080000867,137.28744660000666,Scenes\191a.jpg,post,o,2.5555014999990817,None,,,,,,,,00037,001,2026-01-16_22h02.46.955,MST_test,2024.2.0,60.10615949556764,2026-01-16 22h02.56.318883 +0530,
10,0,11,o,1.7051760999893304,None,11,0,10,137.30343979998725,,,,,,,,,,,,,,,,,,,,,,,,,,,,,,,,,,,,,,,,,,,,,,,,,,137.28753719999804,137.30343979998725,137.80387859998154,137.78707489999942,137.7902444000065,137.80387859998154,137.80387859998154,137.80387859998154,139.5204967999889,Objects\084a.jpg,pre,o,1.7051760999893304,None,,,,,,,,00037,001,2026-01-16_22h02.46.955,MST_test,2024.2.0,60.10615949556764,2026-01-16 22h02.56.318883 +0530,
11,0,12,o,0.9115152999875136,None,12,0,11,139.53678890000447,,,,,,,,,,,,,,,,,,,,,,,,,,,,,,,,,,,,,,,,,,,,,,,,,,139.52058849998866,139.53678890000447,140.0369936999923,140.02040139999008,140.02272660000017,140.0369936999923,140.0369936999923,140.0369936999923,140.95411520000198,Objects\083a.jpg,pre,o,0.9115152999875136,None,,,,,,,,00037,001,2026-01-16_22h02.46.955,MST_test,2024.2.0,60.10615949556764,2026-01-16 22h02.56.318883 +0530,
12,0,13,n,7.981971000001067,None,13,0,12,140.9702099999995,,,,,,,,,,,,,,,,,,,,,,,,,,,,,,,,,,,,,,,,,,,,,,,,,,140.95421299998998,140.9702099999995,141.47043389998726,141.45366639998974,141.45948869999847,141.47043389998726,141.47043389998726,141.47043389998726,149.45411140000215,Scenes\137a.jpg,post,n,7.981971000001067,None,,,,,,,,00037,001,2026-01-16_22h02.46.955,MST_test,2024.2.0,60.10615949556764,2026-01-16 22h02.56.318883 +0530,
13,0,14,n,2.6897565000108443,None,14,0,13,149.47006009999313,,,,,,,,,,,,,,,,,,,,,,,,,,,,,,,,,,,,,,,,,,,,,,,,,,149.45420429998194,149.47006009999313,149.97027809999418,149.95369429999846,149.96521110000322,149.97027809999418,149.97027809999418,149.97027809999418,152.6705078999803,Foils\scenes11.jpg,none,n,2.6897565000108443,None,,,,,,,,00037,001,2026-01-16_22h02.46.955,MST_test,2024.2.0,60.10615949556764,2026-01-16 22h02.56.318883 +0530,
14,0,15,n,2.9294065999856684,None,15,0,14,152.68679169999086,,,,,,,,,,,,,,,,,,,,,,,,,,,,,,,,,,,,,,,,,,,,,,,,,,152.6705987000023,152.68679169999086,153.18714110000292,153.17022939998424,153.18107779999264,153.18714110000292,153.18714110000292,153.18714110000292,156.12066369998502,Foils\065a.jpg,none,n,2.9294065999856684,None,,,,,,,,00037,001,2026-01-16_22h02.46.955,MST_test,2024.2.0,60.10615949556764,2026-01-16 22h02.56.318883 +0530,
15,0,16,s,6.8233175999775995,None,16,0,15,156.13673209998524,,,,,,,,,,,,,,,,,,,,,,,,,,,,,,,,,,,,,,,,,,,,,,,,,,156.12075519998325,156.13673209998524,156.63703739998164,156.62053630000446,156.62987949998933,156.63703739998164,156.63703739998164,156.63703739998164,163.47056099999463,Objects\155b.jpg,pre,s,6.8233175999775995,None,,,,,,,,00037,001,2026-01-16_22h02.46.955,MST_test,2024.2.0,60.10615949556764,2026-01-16 22h02.56.318883 +0530,
16,0,17,s,3.3567187000007834,None,17,0,16,163.4868099000014,,,,,,,,,,,,,,,,,,,,,,,,,,,,,,,,,,,,,,,,,,,,,,,,,,163.47065259999363,163.4868099000014,163.99099120000028,163.9702541999868,163.9889303999953,163.99099120000028,163.99099120000028,163.99099120000028,167.35410880000563,Scenes\029b.jpg,mid,s,3.3567187000007834,None,,,,,,,,00037,001,2026-01-16_22h02.46.955,MST_test,2024.2.0,60.10615949556764,2026-01-16 22h02.56.318883 +0530,
17,0,18,o,1.421368800016353,None,18,0,17,167.36995439999737,,,,,,,,,,,,,,,,,,,,,,,,,,,,,,,,,,,,,,,,,,,,,,,,,,167.35420499998145,167.36995439999737,167.87039140000707,167.8537585999875,167.85743770000408,167.87039140000707,167.87039140000707,167.87039140000707,169.30401449999772,Objects\002a.jpg,mid,o,1.421368800016353,None,,,,,,,,00037,001,2026-01-16_22h02.46.955,MST_test,2024.2.0,60.10615949556764,2026-01-16 22h02.56.318883 +0530,
18,0,19,o,1.4647483000007924,None,19,0,18,169.3199934999866,,,,,,,,,,,,,,,,,,,,,,,,,,,,,,,,,,,,,,,,,,,,,,,,,,169.30410670000128,169.3199934999866,169.82029609999154,169.80366289999802,169.81244219999644,169.82029609999154,169.82029609999154,169.82029609999154,171.28739349998068,Objects\061b.jpg,post,o,1.4647483000007924,None,,,,,,,,00037,001,2026-01-16_22h02.46.955,MST_test,2024.2.0,60.10615949556764,2026-01-16 22h02.56.318883 +0530,
19,0,20,o,0.9600970999745186,None,20,0,19,171.30346779999672,,,,,,,,,,,,,,,,,,,,,,,,,,,,,,,,,,,,,,,,,,,,,,,,,,171.28748440000345,171.30346779999672,171.80381589999888,171.78707530000247,171.78970560000744,171.80381589999888,171.80381589999888,171.80381589999888,172.77046229998814,Objects\109a.jpg,post,o,0.9600970999745186,None,,,,,,,,00037,001,2026-01-16_22h02.46.955,MST_test,2024.2.0,60.10615949556764,2026-01-16 22h02.56.318883 +0530,
20,0,21,o,6.053624199994374,None,21,0,20,172.7868027999939,,,,,,,,,,,,,,,,,,,,,,,,,,,,,,,,,,,,,,,,,,,,,,,,,,172.7705549999955,172.7868027999939,173.28699799999595,173.27023329999065,173.27267669999856,173.28699799999595,173.28699799999595,173.28699799999595,179.35395990000688,Objects\105a.jpg,mid,o,6.053624199994374,None,,,,,,,,00037,001,2026-01-16_22h02.46.955,MST_test,2024.2.0,60.10615949556764,2026-01-16 22h02.56.318883 +0530,
21,0,22,o,2.7981059000012465,None,22,0,21,179.37006149999797,,,,,,,,,,,,,,,,,,,,,,,,,,,,,,,,,,,,,,,,,,,,,,,,,,179.35405209998135,179.37006149999797,179.87029930000426,179.85373909998452,179.86366499998257,179.87029930000426,179.87029930000426,179.87029930000426,182.67063409998082,Objects\160b.jpg,mid,o,2.7981059000012465,None,,,,,,,,00037,001,2026-01-16_22h02.46.955,MST_test,2024.2.0,60.10615949556764,2026-01-16 22h02.56.318883 +0530,
22,0,23,o,3.3050335999869276,None,23,0,22,182.68680860000313,,,,,,,,,,,,,,,,,,,,,,,,,,,,,,,,,,,,,,,,,,,,,,,,,,182.67072409999673,182.68680860000313,183.1870624999865,183.17045829998096,183.18037039999035,183.1870624999865,183.1870624999865,183.1870624999865,186.50400549999904,Objects\054b.jpg,pre,o,3.3050335999869276,None,,,,,,,,00037,001,2026-01-16_22h02.46.955,MST_test,2024.2.0,60.10615949556764,2026-01-16 22h02.56.318883 +0530,
23,0,24,n,1.9122906000120565,None,24,0,23,186.51996479998343,,,,,,,,,,,,,,,,,,,,,,,,,,,,,,,,,,,,,,,,,,,,,,,,,,186.5041077999922,186.51996479998343,187.0204082999844,187.00382899999386,187.0131921999855,187.0204082999844,187.0204082999844,187.0204082999844,188.93740669998806,Foils\049a.jpg,none,n,1.9122906000120565,None,,,,,,,,00037,001,2026-01-16_22h02.46.955,MST_test,2024.2.0,60.10615949556764,2026-01-16 22h02.56.318883 +0530,
24,0,25,n,1.142921299993759,None,25,0,24,188.95347670000046,,,,,,,,,,,,,,,,,,,,,,,,,,,,,,,,,,,,,,,,,,,,,,,,,,188.9374981999863,188.95347670000046,189.45370889999322,189.43703770000138,189.44592470000498,189.45370889999322,189.45370889999322,189.45370889999322,190.60418070000014,Foils\017a.jpg,none,n,1.142921299993759,None,,,,,,,,00037,001,2026-01-16_22h02.46.955,MST_test,2024.2.0,60.10615949556764,2026-01-16 22h02.56.318883 +0530,
25,0,26,o,3.564149699988775,None,26,0,25,190.62007159998757,,,,,,,,,,,,,,,,,,,,,,,,,,,,,,,,,,,,,,,,,,,,,,,,,,190.60427429998526,190.62007159998757,191.12029719998827,191.10376339999493,191.11318929999834,191.12029719998827,191.12029719998827,191.12029719998827,194.6873576999933,Objects\147b.jpg,mid,o,3.564149699988775,None,,,,,,,,00037,001,2026-01-16_22h02.46.955,MST_test,2024.2.0,60.10615949556764,2026-01-16 22h02.56.318883 +0530,
26,0,27,o,1.167539799993392,None,27,0,26,194.703496800008,,,,,,,,,,,,,,,,,,,,,,,,,,,,,,,,,,,,,,,,,,,,,,,,,,194.68745259998832,194.703496800008,195.20416930000647,195.1871600000013,195.1955093999859,195.20416930000647,195.20416930000647,195.20416930000647,196.3873692000052,Scenes\156a.jpg,post,o,1.167539799993392,None,,,,,,,,00037,001,2026-01-16_22h02.46.955,MST_test,2024.2.0,60.10615949556764,2026-01-16 22h02.56.318883 +0530,
27,0,28,o,3.940053699974669,None,28,0,27,196.40357570000924,,,,,,,,,,,,,,,,,,,,,,,,,,,,,,,,,,,,,,,,,,,,,,,,,,196.38746219998575,196.40357570000924,196.90422979998402,196.88730539998505,196.89320910000242,196.90422979998402,196.90422979998402,196.90422979998402,200.85412089998135,Scenes\139a.jpg,post,o,3.940053699974669,None,,,,,,,,00037,001,2026-01-16_22h02.46.955,MST_test,2024.2.0,60.10615949556764,2026-01-16 22h02.56.318883 +0530,
28,0,29,n,13.104963199992198,None,29,0,28,200.87020879998454,,,,,,,,,,,,,,,,,,,,,,,,,,,,,,,,,,,,,,,,,,,,,,,,,,200.85422380000819,200.87020879998454,201.37063869999838,201.3540467999992,201.36350059998222,201.37063869999838,201.37063869999838,201.37063869999838,214.4874945000047,Foils\074a.jpg,none,n,13.104963199992198,None,,,,,,,,00037,001,2026-01-16_22h02.46.955,MST_test,2024.2.0,60.10615949556764,2026-01-16 22h02.56.318883 +0530,
29,0,30,o,1.1445807999989484,None,30,0,29,214.50354639999568,,,,,,,,,,,,,,,,,,,,,,,,,,,,,,,,,,,,,,,,,,,,,,,,,,214.4875858000014,214.50354639999568,215.0037619000068,214.98731239998597,214.99021950000315,215.0037619000068,215.0037619000068,215.0037619000068,216.15463979999186,Objects\043a.jpg,post,o,1.1445807999989484,None,,,,,,,,00037,001,2026-01-16_22h02.46.955,MST_test,2024.2.0,60.10615949556764,2026-01-16 22h02.56.318883 +0530,
30,0,31,o,0.7416474999918137,None,31,0,30,216.17023089999566,,,,,,,,,,,,,,,,,,,,,,,,,,,,,,,,,,,,,,,,,,,,,,,,,,216.15473730000667,216.17023089999566,216.67030239998712,216.65385740000056,216.65633389999857,216.67030239998712,216.67030239998712,216.67030239998712,217.42069900000934,Objects\014a.jpg,pre,o,0.7416474999918137,None,,,,,,,,00037,001,2026-01-16_22h02.46.955,MST_test,2024.2.0,60.10615949556764,2026-01-16 22h02.56.318883 +0530,
31,0,32,o,1.21394539999892,None,32,0,31,217.43692079998436,,,,,,,,,,,,,,,,,,,,,,,,,,,,,,,,,,,,,,,,,,,,,,,,,,217.4207904000068,217.43692079998436,217.94289299999946,217.92036180000287,217.94057879998581,217.94289299999946,217.94289299999946,217.94289299999946,219.1708546000009,Scenes\092b.jpg,pre,o,1.21394539999892,None,,,,,,,,00037,001,2026-01-16_22h02.46.955,MST_test,2024.2.0,60.10615949556764,2026-01-16 22h02.56.318883 +0530,
32,0,33,o,0.9000921999977436,None,33,0,32,219.18687059998047,,,,,,,,,,,,,,,,,,,,,,,,,,,,,,,,,,,,,,,,,,,,,,,,,,219.17094599999837,219.18687059998047,219.68753480000305,219.6704224999994,219.67995049999445,219.68753480000305,219.68753480000305,219.68753480000305,220.60418170000776,Objects\170b.jpg,post,o,0.9000921999977436,None,,,,,,,,00037,001,2026-01-16_22h02.46.955,MST_test,2024.2.0,60.10615949556764,2026-01-16 22h02.56.318883 +0530,
33,0,34,o,1.3715206000197213,None,34,0,33,220.6202629999898,,,,,,,,,,,,,,,,,,,,,,,,,,,,,,,,,,,,,,,,,,,,,,,,,,220.6042759999982,220.6202629999898,221.12073269998655,221.10387130000163,221.10822269998607,221.12073269998655,221.12073269998655,221.12073269998655,222.5043502000044,Scenes\113a.jpg,pre,o,1.3715206000197213,None,,,,,,,,00037,001,2026-01-16_22h02.46.955,MST_test,2024.2.0,60.10615949556764,2026-01-16 22h02.56.318883 +0530,
34,0,35,s,17.543641199998092,None,35,0,34,222.52000950000365,,,,,,,,,,,,,,,,,,,,,,,,,,,,,,,,,,,,,,,,,,,,,,,,,,222.5044501000084,222.52000950000365,223.02068250000593,223.00369389998377,223.0127688999928,223.02068250000593,223.02068250000593,223.02068250000593,240.57082809999702,Foils\057a.jpg,none,s,17.543641199998092,None,,,,,,,,00037,001,2026-01-16_22h02.46.955,MST_test,2024.2.0,60.10615949556764,2026-01-16 22h02.56.318883 +0530,
35,0,36,o,4.220860699977493,None,36,0,35,240.58694129998912,,,,,,,,,,,,,,,,,,,,,,,,,,,,,,,,,,,,,,,,,,,,,,,,,,240.57093069999246,240.58694129998912,241.0871542999812,241.07047390000662,241.0735475999827,241.0871542999812,241.0871542999812,241.0871542999812,245.32069510000292,Objects\008a.jpg,pre,o,4.220860699977493,None,,,,,,,,00037,001,2026-01-16_22h02.46.955,MST_test,2024.2.0,60.10615949556764,2026-01-16 22h02.56.318883 +0530,
36,0,37,o,1.5076162000186741,None,37,0,36,245.33682850000332,,,,,,,,,,,,,,,,,,,,,,,,,,,,,,,,,,,,,,,,,,,,,,,,,,245.3207918999833,245.33682850000332,245.84090330000618,245.8203921999957,245.83872480000718,245.84090330000618,245.84090330000618,245.84090330000618,247.35435969999526,Scenes\086b.jpg,pre,o,1.5076162000186741,None,,,,,,,,00037,001,2026-01-16_22h02.46.955,MST_test,2024.2.0,60.10615949556764,2026-01-16 22h02.56.318883 +0530,
37,0,38,n,2.8055791999795474,None,38,0,37,247.3701516999863,,,,,,,,,,,,,,,,,,,,,,,,,,,,,,,,,,,,,,,,,,,,,,,,,,247.3544569000078,247.3701516999863,247.87071739998646,247.85382489999756,247.86350639999728,247.87071739998646,247.87071739998646,247.87071739998646,250.6874691999983,Foils\073a.jpg,none,n,2.8055791999795474,None,,,,,,,,00037,001,2026-01-16_22h02.46.955,MST_test,2024.2.0,60.10615949556764,2026-01-16 22h02.56.318883 +0530,
38,0,39,o,2.480157899990445,None,39,0,38,250.70363619999262,,,,,,,,,,,,,,,,,,,,,,,,,,,,,,,,,,,,,,,,,,,,,,,,,,250.68756140000187,250.70363619999262,251.20401469999342,251.18717869999819,251.1936124000058,251.20401469999342,251.20401469999342,251.20401469999342,253.68758349999553,Scenes\144a.jpg,pre,o,2.480157899990445,None,,,,,,,,00037,001,2026-01-16_22h02.46.955,MST_test,2024.2.0,60.10615949556764,2026-01-16 22h02.56.318883 +0530,
39,0,40,s,5.735644300002605,None,40,0,39,253.70346610000706,,,,,,,,,,,,,,,,,,,,,,,,,,,,,,,,,,,,,,,,,,,,,,,,,,253.68768139998429,253.70346610000706,254.20416860000114,254.18715680000605,254.19536959999823,254.20416860000114,254.20416860000114,254.20416860000114,259.9540863999864,Scenes\019a.jpg,mid,s,5.735644300002605,None,,,,,,,,00037,001,2026-01-16_22h02.46.955,MST_test,2024.2.0,60.10615949556764,2026-01-16 22h02.56.318883 +0530,
40,0,41,o,1.1100473999977112,None,41,0,40,259.97001399999135,,,,,,,,,,,,,,,,,,,,,,,,,,,,,,,,,,,,,,,,,,,,,,,,,,259.95417660000385,259.97001399999135,260.47040160000324,260.45379440000397,260.467687700002,260.47040160000324,260.47040160000324,260.47040160000324,261.5874215000076,Scenes\039b.jpg,mid,o,1.1100473999977112,None,,,,,,,,00037,001,2026-01-16_22h02.46.955,MST_test,2024.2.0,60.10615949556764,2026-01-16 22h02.56.318883 +0530,
41,0,42,o,2.8027248999860603,None,42,0,41,261.6034940999816,,,,,,,,,,,,,,,,,,,,,,,,,,,,,,,,,,,,,,,,,,,,,,,,,,261.5875234999985,261.6034940999816,262.1057083999913,262.0870117000013,262.10343859999557,262.1057083999913,262.1057083999913,262.1057083999913,264.9206850999908,Scenes\136b.jpg,pre,o,2.8027248999860603,None,,,,,,,,00037,001,2026-01-16_22h02.46.955,MST_test,2024.2.0,60.10615949556764,2026-01-16 22h02.56.318883 +0530,
42,0,43,o,0.9344806000008248,None,43,0,42,264.9368326999829,,,,,,,,,,,,,,,,,,,,,,,,,,,,,,,,,,,,,,,,,,,,,,,,,,264.9207766999898,264.9368326999829,265.43731019998086,265.42032979999203,265.4319764999964,265.43731019998086,265.43731019998086,265.43731019998086,266.3873115000024,Objects\088b.jpg,pre,o,0.9344806000008248,None,,,,,,,,00037,001,2026-01-16_22h02.46.955,MST_test,2024.2.0,60.10615949556764,2026-01-16 22h02.56.318883 +0530,
43,0,44,n,3.0362633999902755,None,44,0,43,266.40350119999493,,,,,,,,,,,,,,,,,,,,,,,,,,,,,,,,,,,,,,,,,,,,,,,,,,266.38740059998236,266.40350119999493,266.90372319999733,266.8870884999924,266.89634189999197,266.90372319999733,266.90372319999733,266.90372319999733,269.9540626000089,Objects\062b.jpg,pre,n,3.0362633999902755,None,,,,,,,,00037,001,2026-01-16_22h02.46.955,MST_test,2024.2.0,60.10615949556764,2026-01-16 22h02.56.318883 +0530,
44,0,45,o,1.1015064000093844,None,45,0,44,269.96999509999296,,,,,,,,,,,,,,,,,,,,,,,,,,,,,,,,,,,,,,,,,,,,,,,,,,269.95415309999953,269.96999509999296,270.47028899998986,270.4537408000033,270.4561018999957,270.47028899998986,270.47028899998986,270.47028899998986,271.5874624999997,Objects\076a.jpg,post,o,1.1015064000093844,None,,,,,,,,00037,001,2026-01-16_22h02.46.955,MST_test,2024.2.0,60.10615949556764,2026-01-16 22h02.56.318883 +0530,
45,0,46,o,0.8288231999904383,None,46,0,45,271.60345059999963,,,,,,,,,,,,,,,,,,,,,,,,,,,,,,,,,,,,,,,,,,,,,,,,,,271.58755779999774,271.60345059999963,272.10364689998096,272.0870699000079,272.08954190000077,272.10364689998096,272.10364689998096,272.10364689998096,272.93737129998044,Objects\142a.jpg,post,o,0.8288231999904383,None,,,,,,,,00037,001,2026-01-16_22h02.46.955,MST_test,2024.2.0,60.10615949556764,2026-01-16 22h02.56.318883 +0530,
46,0,47,n,4.620443499996327,None,47,0,46,272.9535164999834,,,,,,,,,,,,,,,,,,,,,,,,,,,,,,,,,,,,,,,,,,,,,,,,,,272.93746339998324,272.9535164999834,273.455744899984,273.4370609000034,273.4535542000085,273.455744899984,273.455744899984,273.455744899984,278.08739559998503,Scenes\159b.jpg,pre,n,4.620443499996327,None,,,,,,,,00037,001,2026-01-16_22h02.46.955,MST_test,2024.2.0,60.10615949556764,2026-01-16 22h02.56.318883 +0530,
47,0,48,o,1.6566111999854911,None,48,0,47,278.1034195999964,,,,,,,,,,,,,,,,,,,,,,,,,,,,,,,,,,,,,,,,,,,,,,,,,,278.08749279999756,278.1034195999964,278.60406680000597,278.58746360000805,278.5974825999874,278.60406680000597,278.60406680000597,278.60406680000597,280.2706991999876,Objects\096b.jpg,post,o,1.6566111999854911,None,,,,,,,,00037,001,2026-01-16_22h02.46.955,MST_test,2024.2.0,60.10615949556764,2026-01-16 22h02.56.318883 +0530,
48,0,49,o,1.4404654999962077,None,49,0,48,280.28676540000015,,,,,,,,,,,,,,,,,,,,,,,,,,,,,,,,,,,,,,,,,,,,,,,,,,280.27078880000045,280.28676540000015,280.78733359999023,280.77045270000235,280.779793099995,280.78733359999023,280.78733359999023,280.78733359999023,282.2373810999852,Scenes\145a.jpg,post,o,1.4404654999962077,None,,,,,,,,00037,001,2026-01-16_22h02.46.955,MST_test,2024.2.0,60.10615949556764,2026-01-16 22h02.56.318883 +0530,
49,0,50,n,1.9074890000047162,None,50,0,49,282.2534924999927,,,,,,,,,,,,,,,,,,,,,,,,,,,,,,,,,,,,,,,,,,,,,,,,,,282.2374773999909,282.2534924999927,282.81638329999987,282.73709280000185,282.8133436999924,282.81638329999987,282.81638329999987,282.81638329999987,284.73740969999926,Foils\scenes25.jpg,none,n,1.9074890000047162,None,,,,,,,,00037,001,2026-01-16_22h02.46.955,MST_test,2024.2.0,60.10615949556764,2026-01-16 22h02.56.318883 +0530,
50,0,51,o,0.8225463000126183,None,51,0,50,284.75343449998763,,,,,,,,,,,,,,,,,,,,,,,,,,,,,,,,,,,,,,,,,,,,,,,,,,284.73750109999673,284.75343449998763,285.25359619999654,285.23708299998543,285.24898770000436,285.25359619999654,285.25359619999654,285.25359619999654,286.0874264999875,Objects\150a.jpg,pre,o,0.8225463000126183,None,,,,,,,,00037,001,2026-01-16_22h02.46.955,MST_test,2024.2.0,60.10615949556764,2026-01-16 22h02.56.318883 +0530,
51,0,52,o,0.7283969999989495,None,52,0,51,286.1033569999854,,,,,,,,,,,,,,,,,,,,,,,,,,,,,,,,,,,,,,,,,,,,,,,,,,286.08751899999334,286.1033569999854,286.60390260000713,286.58707449998474,286.59780960000353,286.60390260000713,286.60390260000713,286.60390260000713,287.33744209998986,Scenes\165a.jpg,pre,o,0.7283969999989495,None,,,,,,,,00037,001,2026-01-16_22h02.46.955,MST_test,2024.2.0,60.10615949556764,2026-01-16 22h02.56.318883 +0530,
52,0,53,o,5.390322000021115,None,53,0,52,287.3533419999876,,,,,,,,,,,,,,,,,,,,,,,,,,,,,,,,,,,,,,,,,,,,,,,,,,287.337534899998,287.3533419999876,287.8538109000074,287.8370898999856,287.8466139000084,287.8538109000074,287.8538109000074,287.8538109000074,293.2541431999998,Foils\scenes4.jpg,none,o,5.390322000021115,None,,,,,,,,00037,001,2026-01-16_22h02.46.955,MST_test,2024.2.0,60.10615949556764,2026-01-16 22h02.56.318883 +0530,
53,0,54,s,5.993120600003749,None,54,0,53,293.2702056999842,,,,,,,,,,,,,,,,,,,,,,,,,,,,,,,,,,,,,,,,,,,,,,,,,,293.2542423999985,293.2702056999842,293.7706704000011,293.7536228999961,293.7621549000032,293.7706704000011,293.7706704000011,293.7706704000011,299.77075699999114,Scenes\183a.jpg,mid,s,5.993120600003749,None,,,,,,,,00037,001,2026-01-16_22h02.46.955,MST_test,2024.2.0,60.10615949556764,2026-01-16 22h02.56.318883 +0530,
54,0,55,n,4.362989399989601,None,55,0,54,299.78687019998324,,,,,,,,,,,,,,,,,,,,,,,,,,,,,,,,,,,,,,,,,,,,,,,,,,299.77084990000003,299.78687019998324,300.2893899999908,300.2703760000004,300.2875850999844,300.2893899999908,300.2893899999908,300.2893899999908,304.6539050999854,Scenes\106b.jpg,post,n,4.362989399989601,None,,,,,,,,00037,001,2026-01-16_22h02.46.955,MST_test,2024.2.0,60.10615949556764,2026-01-16 22h02.56.318883 +0530,
55,0,56,o,2.417028700001538,None,56,0,55,304.6701747000043,,,,,,,,,,,,,,,,,,,,,,,,,,,,,,,,,,,,,,,,,,,,,,,,,,304.653999800008,304.6701747000043,305.1707025000069,305.15360079999664,305.1637198999815,305.1707025000069,305.1707025000069,305.1707025000069,307.6042194000038,Objects\071b.jpg,mid,o,2.417028700001538,None,,,,,,,,00037,001,2026-01-16_22h02.46.955,MST_test,2024.2.0,60.10615949556764,2026-01-16 22h02.56.318883 +0530,
56,0,57,o,0.6275750999921001,None,57,0,56,307.62034309998853,,,,,,,,,,,,,,,,,,,,,,,,,,,,,,,,,,,,,,,,,,,,,,,,,,307.60432399998535,307.62034309998853,308.12044729999616,308.1038874000078,308.1066031999944,308.12044729999616,308.12044729999616,308.12044729999616,308.75403519999236,Objects\145a.jpg,pre,o,0.6275750999921001,None,,,,,,,,00037,001,2026-01-16_22h02.46.955,MST_test,2024.2.0,60.10615949556764,2026-01-16 22h02.56.318883 +0530,
57,0,58,o,0.6538053000112996,None,58,0,57,308.77017479998176,,,,,,,,,,,,,,,,,,,,,,,,,,,,,,,,,,,,,,,,,,,,,,,,,,308.7541341999895,308.77017479998176,309.27063670000643,309.25361300000804,309.26170649999403,309.27063670000643,309.27063670000643,309.27063670000643,309.9375609999988,Scenes\175a.jpg,pre,o,0.6538053000112996,None,,,,,,,,00037,001,2026-01-16_22h02.46.955,MST_test,2024.2.0,60.10615949556764,2026-01-16 22h02.56.318883 +0530,
58,0,59,o,0.8835350000008475,None,59,0,58,309.9533555000089,,,,,,,,,,,,,,,,,,,,,,,,,,,,,,,,,,,,,,,,,,,,,,,,,,309.9376562999969,309.9533555000089,310.4570953999937,310.4370557999937,310.4549999999872,310.4570953999937,310.4570953999937,310.4570953999937,311.35394709999673,Scenes\023a.jpg,post,o,0.8835350000008475,None,,,,,,,,00037,001,2026-01-16_22h02.46.955,MST_test,2024.2.0,60.10615949556764,2026-01-16 22h02.56.318883 +0530,
59,0,60,s,3.4860304000030737,None,60,0,59,311.3701660000079,,,,,,,,,,,,,,,,,,,,,,,,,,,,,,,,,,,,,,,,,,,,,,,,,,311.3540403000079,311.3701660000079,311.87082429998554,311.8536686000007,311.8644404000079,311.87082429998554,311.87082429998554,311.87082429998554,315.3706927000021,Objects\156b.jpg,mid,s,3.4860304000030737,None,,,,,,,,00037,001,2026-01-16_22h02.46.955,MST_test,2024.2.0,60.10615949556764,2026-01-16 22h02.56.318883 +0530,
60,0,61,o,4.028893400012748,None,61,0,60,315.38695610000286,,,,,,,,,,,,,,,,,,,,,,,,,,,,,,,,,,,,,,,,,,,,,,,,,,315.37079449999146,315.38695610000286,315.8871436000045,315.87050499999896,315.8731157000002,315.8871436000045,315.8871436000045,315.8871436000045,319.9206486000039,Objects\019a.jpg,post,o,4.028893400012748,None,,,,,,,,00037,001,2026-01-16_22h02.46.955,MST_test,2024.2.0,60.10615949556764,2026-01-16 22h02.56.318883 +0530,
61,0,62,o,0.9348833999829367,None,62,0,61,319.93691899999976,,,,,,,,,,,,,,,,,,,,,,,,,,,,,,,,,,,,,,,,,,,,,,,,,,319.9207425999921,319.93691899999976,320.43707089999225,320.4205646000046,320.42342489998555,320.43707089999225,320.43707089999225,320.43707089999225,321.38746319999336,Objects\047a.jpg,mid,o,0.9348833999829367,None,,,,,,,,00037,001,2026-01-16_22h02.46.955,MST_test,2024.2.0,60.10615949556764,2026-01-16 22h02.56.318883 +0530,
62,0,63,n,2.299500499997521,None,63,0,62,321.40361219999613,,,,,,,,,,,,,,,,,,,,,,,,,,,,,,,,,,,,,,,,,,,,,,,,,,321.38755379998474,321.40361219999613,321.9044469000073,321.88714209999307,321.9022241999919,321.9044469000073,321.9044469000073,321.9044469000073,324.2207618999819,Scenes\126b.jpg,pre,n,2.299500499997521,None,,,,,,,,00037,001,2026-01-16_22h02.46.955,MST_test,2024.2.0,60.10615949556764,2026-01-16 22h02.56.318883 +0530,
63,0,64,o,0.9071375000057742,None,64,0,63,324.2369679999829,,,,,,,,,,,,,,,,,,,,,,,,,,,,,,,,,,,,,,,,,,,,,,,,,,324.2208538999839,324.2369679999829,324.7373635999975,324.72046499999124,324.7235747000086,324.7373635999975,324.7373635999975,324.7373635999975,325.65404809999745,Objects\188a.jpg,post,o,0.9071375000057742,None,,,,,,,,00037,001,2026-01-16_22h02.46.955,MST_test,2024.2.0,60.10615949556764,2026-01-16 22h02.56.318883 +0530,
64,0,65,s,4.240915900008986,None,65,0,64,325.6702936000074,,,,,,,,,,,,,,,,,,,,,,,,,,,,,,,,,,,,,,,,,,,,,,,,,,325.654140300001,325.6702936000074,326.170809800009,326.153805000009,326.16739369998686,326.170809800009,326.170809800009,326.170809800009,330.421147999994,Scenes\132b.jpg,pre,s,4.240915900008986,None,,,,,,,,00037,001,2026-01-16_22h02.46.955,MST_test,2024.2.0,60.10615949556764,2026-01-16 22h02.56.318883 +0530,
65,0,66,o,1.0349053999816533,None,66,0,65,330.436967799993,,,,,,,,,,,,,,,,,,,,,,,,,,,,,,,,,,,,,,,,,,,,,,,,,,330.42123999999603,330.436967799993,330.9374181999883,330.92051709999214,330.92415919998894,330.9374181999883,330.9374181999883,330.9374181999883,331.987535799999,Scenes\016a.jpg,mid,o,1.0349053999816533,None,,,,,,,,00037,001,2026-01-16_22h02.46.955,MST_test,2024.2.0,60.10615949556764,2026-01-16 22h02.56.318883 +0530,
66,0,67,o,1.7436815999972168,None,67,0,66,332.0036705000093,,,,,,,,,,,,,,,,,,,,,,,,,,,,,,,,,,,,,,,,,,,,,,,,,,331.9876268999942,332.0036705000093,332.5080430000089,332.4872044000076,332.5060830999864,332.5080430000089,332.5080430000089,332.5080430000089,334.2541582999984,Scenes\012b.jpg,post,o,1.7436815999972168,None,,,,,,,,00037,001,2026-01-16_22h02.46.955,MST_test,2024.2.0,60.10615949556764,2026-01-16 22h02.56.318883 +0530,
67,0,68,o,1.1767970999935642,None,68,0,67,334.27028450000216,,,,,,,,,,,,,,,,,,,,,,,,,,,,,,,,,,,,,,,,,,,,,,,,,,334.2542511000065,334.27028450000216,334.77092539999285,334.753839299985,334.75762429999304,334.77092539999285,334.77092539999285,334.77092539999285,335.954262299987,Objects\048a.jpg,pre,o,1.1767970999935642,None,,,,,,,,00037,001,2026-01-16_22h02.46.955,MST_test,2024.2.0,60.10615949556764,2026-01-16 22h02.56.318883 +0530,
68,0,69,s,4.3969448000134435,None,69,0,68,335.97028539999155,,,,,,,,,,,,,,,,,,,,,,,,,,,,,,,,,,,,,,,,,,,,,,,,,,335.95435459999135,335.97028539999155,336.47078589999,336.4538490999839,336.4604350999871,336.47078589999,336.47078589999,336.47078589999,340.870914900006,Scenes\024a.jpg,mid,s,4.3969448000134435,None,,,,,,,,00037,001,2026-01-16_22h02.46.955,MST_test,2024.2.0,60.10615949556764,2026-01-16 22h02.56.318883 +0530,
69,0,70,o,5.168970500002615,None,70,0,69,340.8868749999965,,,,,,,,,,,,,,,,,,,,,,,,,,,,,,,,,,,,,,,,,,,,,,,,,,340.871006100002,340.8868749999965,341.3876653999905,341.37052810000023,341.3803090000001,341.3876653999905,341.3876653999905,341.3876653999905,346.57089599999017,Foils\scenes6.jpg,none,o,5.168970500002615,None,,,,,,,,00037,001,2026-01-16_22h02.46.955,MST_test,2024.2.0,60.10615949556764,2026-01-16 22h02.56.318883 +0530,
70,0,71,n,3.0365864999766927,None,71,0,70,346.5867997999885,,,,,,,,,,,,,,,,,,,,,,,,,,,,,,,,,,,,,,,,,,,,,,,,,,346.5709882999945,346.5867997999885,347.08714279998094,347.0704487999901,347.0799415000074,347.08714279998094,347.08714279998094,347.08714279998094,350.13731259998167,Foils\058a.jpg,none,n,3.0365864999766927,None,,,,,,,,00037,001,2026-01-16_22h02.46.955,MST_test,2024.2.0,60.10615949556764,2026-01-16 22h02.56.318883 +0530,
71,0,72,n,1.5483970000059344,None,72,0,71,350.1534432999906,,,,,,,,,,,,,,,,,,,,,,,,,,,,,,,,,,,,,,,,,,,,,,,,,,350.1374051999883,350.1534432999906,350.6552529000037,350.6370420999883,350.6530425999954,350.6552529000037,350.6552529000037,350.6552529000037,352.20433489998686,Scenes\017b.jpg,pre,n,1.5483970000059344,None,,,,,,,,00037,001,2026-01-16_22h02.46.955,MST_test,2024.2.0,60.10615949556764,2026-01-16 22h02.56.318883 +0530,
72,0,73,s,5.119698499998776,None,73,0,72,352.22018109998317,,,,,,,,,,,,,,,,,,,,,,,,,,,,,,,,,,,,,,,,,,,,,,,,,,352.204427699995,352.22018109998317,352.7243918000022,352.70364769999287,352.7220243999909,352.7243918000022,352.7243918000022,352.7243918000022,357.8544932999939,Scenes\047b.jpg,pre,s,5.119698499998776,None,,,,,,,,00037,001,2026-01-16_22h02.46.955,MST_test,2024.2.0,60.10615949556764,2026-01-16 22h02.56.318883 +0530,
73,0,74,n,4.15372830000706,None,74,0,73,357.8702160999819,,,,,,,,,,,,,,,,,,,,,,,,,,,,,,,,,,,,,,,,,,,,,,,,,,357.8545910999819,357.8702160999819,358.37074949999806,358.3536751999927,358.3635784999933,358.37074949999806,358.37074949999806,358.37074949999806,362.5374034999986,Foils\101b.jpg,none,n,4.15372830000706,None,,,,,,,,00037,001,2026-01-16_22h02.46.955,MST_test,2024.2.0,60.10615949556764,2026-01-16 22h02.56.318883 +0530,
74,0,75,n,1.9904390999872703,None,75,0,74,362.55336109999917,,,,,,,,,,,,,,,,,,,,,,,,,,,,,,,,,,,,,,,,,,,,,,,,,,362.53749550000066,362.55336109999917,363.05372649998753,363.0374599999923,363.04649949999293,363.05372649998753,363.05372649998753,363.05372649998753,365.0540389000089,Foils\scenes18.jpg,none,n,1.9904390999872703,None,,,,,,,,00037,001,2026-01-16_22h02.46.955,MST_test,2024.2.0,60.10615949556764,2026-01-16 22h02.56.318883 +0530,
75,0,76,o,1.3218354000127874,None,76,0,75,365.0702123999945,,,,,,,,,,,,,,,,,,,,,,,,,,,,,,,,,,,,,,,,,,,,,,,,,,365.0541422999813,365.0702123999945,365.5704276000033,365.55365349998465,365.55698819999816,365.5704276000033,365.5704276000033,365.5704276000033,366.90395029998035,Objects\131a.jpg,pre,o,1.3218354000127874,None,,,,,,,,00037,001,2026-01-16_22h02.46.955,MST_test,2024.2.0,60.10615949556764,2026-01-16 22h02.56.318883 +0530,
76,0,77,o,0.7998505000141449,None,77,0,76,366.9201906999806,,,,,,,,,,,,,,,,,,,,,,,,,,,,,,,,,,,,,,,,,,,,,,,,,,366.9040401999955,366.9201906999806,367.4203281000082,367.4036336999852,367.4058807999827,367.4203281000082,367.4203281000082,367.4203281000082,368.22093449998647,Objects\086a.jpg,pre,o,0.7998505000141449,None,,,,,,,,00037,001,2026-01-16_22h02.46.955,MST_test,2024.2.0,60.10615949556764,2026-01-16 22h02.56.318883 +0530,
77,0,78,o,0.6981839000072796,None,78,0,77,368.23689379999996,,,,,,,,,,,,,,,,,,,,,,,,,,,,,,,,,,,,,,,,,,,,,,,,,,368.2210359000019,368.23689379999996,368.7375428999949,368.72051899999497,368.7281271999818,368.7375428999949,368.7375428999949,368.7375428999949,369.43739330000244,Scenes\109a.jpg,pre,o,0.6981839000072796,None,,,,,,,,00037,001,2026-01-16_22h02.46.955,MST_test,2024.2.0,60.10615949556764,2026-01-16 22h02.56.318883 +0530,
78,0,79,o,11.559852799982764,None,79,0,78,369.45346769999014,,,,,,,,,,,,,,,,,,,,,,,,,,,,,,,,,,,,,,,,,,,,,,,,,,369.43749079998815,369.45346769999014,369.9804594999878,369.93714180000825,369.9778076999937,369.9804594999878,369.9804594999878,369.9804594999878,381.55417590000434,Foils\scenes15.jpg,none,o,11.559852799982764,None,,,,,,,,00037,001,2026-01-16_22h02.46.955,MST_test,2024.2.0,60.10615949556764,2026-01-16 22h02.56.318883 +0530,
79,0,80,o,1.2612570000055712,None,80,0,79,381.5701734999893,,,,,,,,,,,,,,,,,,,,,,,,,,,,,,,,,,,,,,,,,,,,,,,,,,381.554275100003,381.5701734999893,382.0718113000039,382.05371740000555,382.06262789998436,382.0718113000039,382.0718113000039,382.0718113000039,383.337589200004,Scenes\188a.jpg,mid,o,1.2612570000055712,None,,,,,,,,00037,001,2026-01-16_22h02.46.955,MST_test,2024.2.0,60.10615949556764,2026-01-16 22h02.56.318883 +0530,
80,0,81,o,0.7585561999876518,None,81,0,80,383.3534535999934,,,,,,,,,,,,,,,,,,,,,,,,,,,,,,,,,,,,,,,,,,,,,,,,,,383.3378107000026,383.3534535999934,383.8538664999942,383.83746179999434,383.8498869999894,383.8538664999942,383.8538664999942,383.8538664999942,384.6207812000066,Objects\154b.jpg,post,o,0.7585561999876518,None,,,,,,,,00037,001,2026-01-16_22h02.46.955,MST_test,2024.2.0,60.10615949556764,2026-01-16 22h02.56.318883 +0530,
81,0,82,s,2.3553298999904655,None,82,0,81,384.63680219999515,,,,,,,,,,,,,,,,,,,,,,,,,,,,,,,,,,,,,,,,,,,,,,,,,,384.62087210000027,384.63680219999515,385.1372146999929,385.1205284000025,385.1298308999976,385.1372146999929,385.1372146999929,385.1372146999929,387.50395169999683,Foils\scenes19.jpg,none,s,2.3553298999904655,None,,,,,,,,00037,001,2026-01-16_22h02.46.955,MST_test,2024.2.0,60.10615949556764,2026-01-16 22h02.56.318883 +0530,
82,0,83,o,1.7832626999879722,None,83,0,82,387.5201942999847,,,,,,,,,,,,,,,,,,,,,,,,,,,,,,,,,,,,,,,,,,,,,,,,,,387.50405079999473,387.5201942999847,388.02146099999663,388.00392469999497,388.0192504999868,388.02146099999663,388.02146099999663,388.02146099999663,389.820757199981,Scenes\121b.jpg,post,o,1.7832626999879722,None,,,,,,,,00037,001,2026-01-16_22h02.46.955,MST_test,2024.2.0,60.10615949556764,2026-01-16 22h02.56.318883 +0530,
83,0,84,s,5.010318299988285,None,84,0,83,389.83681469998555,,,,,,,,,,,,,,,,,,,,,,,,,,,,,,,,,,,,,,,,,,,,,,,,,,389.8208549999981,389.83681469998555,390.3373452000087,390.3204887000029,390.32916880000266,390.3373452000087,390.3373452000087,390.3373452000087,395.3540573999926,Foils\scenes7.jpg,none,s,5.010318299988285,None,,,,,,,,00037,001,2026-01-16_22h02.46.955,MST_test,2024.2.0,60.10615949556764,2026-01-16 22h02.56.318883 +0530,
84,0,85,n,7.286045200016815,None,85,0,84,395.3703553999949,,,,,,,,,,,,,,,,,,,,,,,,,,,,,,,,,,,,,,,,,,,,,,,,,,395.3541558999859,395.3703553999949,395.8704660999938,395.8538118999859,395.8636931999936,395.8704660999938,395.8704660999938,395.8704660999938,403.17074370000046,Objects\031b.jpg,mid,n,7.286045200016815,None,,,,,,,,00037,001,2026-01-16_22h02.46.955,MST_test,2024.2.0,60.10615949556764,2026-01-16 22h02.56.318883 +0530,
85,0,86,o,1.4454514000099152,None,86,0,85,403.18686369998613,,,,,,,,,,,,,,,,,,,,,,,,,,,,,,,,,,,,,,,,,,,,,,,,,,403.17083270000876,403.18686369998613,403.6872676000057,403.67063169999165,403.67943869999726,403.6872676000057,403.6872676000057,403.6872676000057,405.13735999999335,Foils\scenes13.jpg,none,o,1.4454514000099152,None,,,,,,,,00037,001,2026-01-16_22h02.46.955,MST_test,2024.2.0,60.10615949556764,2026-01-16 22h02.56.318883 +0530,
86,0,87,o,0.9422781000030227,None,87,0,86,405.1534381999809,,,,,,,,,,,,,,,,,,,,,,,,,,,,,,,,,,,,,,,,,,,,,,,,,,405.13745109998854,405.1534381999809,405.65377279999666,405.6370367000054,405.6472072000033,405.65377279999666,405.65377279999666,405.65377279999666,406.6042124000087,Objects\191b.jpg,mid,o,0.9422781000030227,None,,,,,,,,00037,001,2026-01-16_22h02.46.955,MST_test,2024.2.0,60.10615949556764,2026-01-16 22h02.56.318883 +0530,
87,0,88,o,0.8197833999875002,None,88,0,87,406.62013789999764,,,,,,,,,,,,,,,,,,,,,,,,,,,,,,,,,,,,,,,,,,,,,,,,,,406.6043052999885,406.62013789999764,407.1204223999812,407.1036325999885,407.11230680000153,407.1204223999812,407.1204223999812,407.1204223999812,407.9540166000079,Objects\028b.jpg,mid,o,0.8197833999875002,None,,,,,,,,00037,001,2026-01-16_22h02.46.955,MST_test,2024.2.0,60.10615949556764,2026-01-16 22h02.56.318883 +0530,
88,0,89,o,1.318441299983533,None,89,0,88,407.9702078999835,,,,,,,,,,,,,,,,,,,,,,,,,,,,,,,,,,,,,,,,,,,,,,,,,,407.95411759999115,407.9702078999835,408.4705447999877,408.45363659999566,408.4561364999972,408.4705447999877,408.4705447999877,408.4705447999877,409.804127099982,Objects\094a.jpg,pre,o,1.318441299983533,None,,,,,,,,00037,001,2026-01-16_22h02.46.955,MST_test,2024.2.0,60.10615949556764,2026-01-16 22h02.56.318883 +0530,
89,0,90,o,2.8756771000043955,None,90,0,89,409.8201341999811,,,,,,,,,,,,,,,,,,,,,,,,,,,,,,,,,,,,,,,,,,,,,,,,,,409.80421669999487,409.8201341999811,410.3206780999899,410.30371350000496,410.3179974000086,410.3206780999899,410.3206780999899,410.3206780999899,413.2042142999999,Scenes\007b.jpg,mid,o,2.8756771000043955,None,,,,,,,,00037,001,2026-01-16_22h02.46.955,MST_test,2024.2.0,60.10615949556764,2026-01-16 22h02.56.318883 +0530,
90,0,91,s,5.009396599984029,None,91,0,90,413.2202251999988,,,,,,,,,,,,,,,,,,,,,,,,,,,,,,,,,,,,,,,,,,,,,,,,,,413.20431219998864,413.2202251999988,413.723316299991,413.7036481999967,413.7210242000001,413.723316299991,413.723316299991,413.723316299991,418.737395300006,Scenes\146b.jpg,pre,s,5.009396599984029,None,,,,,,,,00037,001,2026-01-16_22h02.46.955,MST_test,2024.2.0,60.10615949556764,2026-01-16 22h02.56.318883 +0530,
91,0,92,n,1.7731153999920934,None,92,0,91,418.7534339999838,,,,,,,,,,,,,,,,,,,,,,,,,,,,,,,,,,,,,,,,,,,,,,,,,,418.73748859998886,418.7534339999838,419.25595369999064,419.2373203999887,419.25385489998735,419.25595369999064,419.25595369999064,419.25595369999064,421.037487900001,Scenes\158b.jpg,post,n,1.7731153999920934,None,,,,,,,,00037,001,2026-01-16_22h02.46.955,MST_test,2024.2.0,60.10615949556764,2026-01-16 22h02.56.318883 +0530,
92,0,93,o,0.7624357999884523,None,93,0,92,421.05346689998987,,,,,,,,,,,,,,,,,,,,,,,,,,,,,,,,,,,,,,,,,,,,,,,,,,421.03757729998324,421.05346689998987,421.5539718999935,421.5371757999819,421.5477228999953,421.5539718999935,421.5539718999935,421.5539718999935,422.32083099999,Objects\038b.jpg,pre,o,0.7624357999884523,None,,,,,,,,00037,001,2026-01-16_22h02.46.955,MST_test,2024.2.0,60.10615949556764,2026-01-16 22h02.56.318883 +0530,
93,0,94,o,0.9274207000271417,None,94,0,93,422.33686720000696,,,,,,,,,,,,,,,,,,,,,,,,,,,,,,,,,,,,,,,,,,,,,,,,,,422.32092430000193,422.33686720000696,422.8373624999949,422.82045309999376,422.83410559999174,422.8373624999949,422.8373624999949,422.8373624999949,423.7713037999929,Scenes\079b.jpg,post,o,0.9274207000271417,None,,,,,,,,00037,001,2026-01-16_22h02.46.955,MST_test,2024.2.0,60.10615949556764,2026-01-16 22h02.56.318883 +0530,
94,0,95,o,1.016457099991385,None,95,0,94,423.78701709999586,,,,,,,,,,,,,,,,,,,,,,,,,,,,,,,,,,,,,,,,,,,,,,,,,,423.7714035999961,423.78701709999586,424.2923099999898,424.2706533999881,424.29018189999624,424.2923099999898,424.2923099999898,424.2923099999898,425.32081869998365,Scenes\105b.jpg,mid,o,1.016457099991385,None,,,,,,,,00037,001,2026-01-16_22h02.46.955,MST_test,2024.2.0,60.10615949556764,2026-01-16 22h02.56.318883 +0530,
95,0,96,n,5.0232893000065815,None,96,0,95,425.33683359998395,,,,,,,,,,,,,,,,,,,,,,,,,,,,,,,,,,,,,,,,,,,,,,,,,,425.3209088000003,425.33683359998395,425.8373705999984,425.82043910000357,425.83131340000546,425.8373705999984,425.8373705999984,425.8373705999984,430.87077099998714,Objects\126b.jpg,mid,n,5.0232893000065815,None,,,,,,,,00037,001,2026-01-16_22h02.46.955,MST_test,2024.2.0,60.10615949556764,2026-01-16 22h02.56.318883 +0530,
96,0,97,o,1.4084525000071153,None,97,0,96,430.8867988999991,,,,,,,,,,,,,,,,,,,,,,,,,,,,,,,,,,,,,,,,,,,,,,,,,,430.8708600999962,430.8867988999991,431.387387099996,431.37046599999303,431.3850160999864,431.387387099996,431.387387099996,431.387387099996,432.80405169998994,Scenes\131b.jpg,mid,o,1.4084525000071153,None,,,,,,,,00037,001,2026-01-16_22h02.46.955,MST_test,2024.2.0,60.10615949556764,2026-01-16 22h02.56.318883 +0530,
97,0,98,n,2.3321966000075918,None,98,0,97,432.82013069998357,,,,,,,,,,,,,,,,,,,,,,,,,,,,,,,,,,,,,,,,,,,,,,,,,,432.804143699992,432.82013069998357,433.3207148000074,433.30364500000724,433.3139722000051,433.3207148000074,433.3207148000074,433.3207148000074,435.6542419999896,Scenes\096b.jpg,post,n,2.3321966000075918,None,,,,,,,,00037,001,2026-01-16_22h02.46.955,MST_test,2024.2.0,60.10615949556764,2026-01-16 22h02.56.318883 +0530,
98,0,99,o,3.034612899995409,None,99,0,98,435.67027750000125,,,,,,,,,,,,,,,,,,,,,,,,,,,,,,,,,,,,,,,,,,,,,,,,,,435.654334699997,435.67027750000125,436.170858700003,436.1538815999811,436.16033260000404,436.170858700003,436.170858700003,436.170858700003,439.2209939000022,Scenes\173a.jpg,pre,o,3.034612899995409,None,,,,,,,,00037,001,2026-01-16_22h02.46.955,MST_test,2024.2.0,60.10615949556764,2026-01-16 22h02.56.318883 +0530,
99,0,100,n,6.770681099995272,None,100,0,99,439.2369802999892,,,,,,,,,,,,,,,,,,,,,,,,,,,,,,,,,,,,,,,,,,,,,,,,,,439.22108570000273,439.2369802999892,439.73750389998895,439.72060490000877,439.7339251000085,439.73750389998895,439.73750389998895,439.73750389998895,446.5208370999899,Scenes\157b.jpg,post,n,6.770681099995272,None,,,,,,,,00037,001,2026-01-16_22h02.46.955,MST_test,2024.2.0,60.10615949556764,2026-01-16 22h02.56.318883 +0530,
100,0,101,n,3.358244700008072,None,101,0,100,446.5369873000018,,,,,,,,,,,,,,,,,,,,,,,,,,,,,,,,,,,,,,,,,,,,,,,,,,446.5209295999957,446.5369873000018,447.0374280999822,447.0205472999951,447.0321966999909,447.0374280999822,447.0374280999822,447.0374280999822,450.40406539998366,Foils\010a.jpg,none,n,3.358244700008072,None,,,,,,,,00037,001,2026-01-16_22h02.46.955,MST_test,2024.2.0,60.10615949556764,2026-01-16 22h02.56.318883 +0530,
101,0,102,s,3.5833946999919135,None,102,0,101,450.42032069998095,,,,,,,,,,,,,,,,,,,,,,,,,,,,,,,,,,,,,,,,,,,,,,,,,,450.4041539999889,450.42032069998095,450.924371400004,450.90377309999894,450.92207589998725,450.924371400004,450.924371400004,450.924371400004,454.52093080000486,Scenes\102b.jpg,mid,s,3.5833946999919135,None,,,,,,,,00037,001,2026-01-16_22h02.46.955,MST_test,2024.2.0,60.10615949556764,2026-01-16 22h02.56.318883 +0530,
102,0,103,s,4.310240600025281,None,103,0,102,454.53691910000634,,,,,,,,,,,,,,,,,,,,,,,,,,,,,,,,,,,,,,,,,,,,,,,,,,454.5210199999856,454.53691910000634,455.04694729999756,455.02053829998476,455.04447359999176,455.04694729999756,455.04694729999756,455.04694729999756,459.37079839999205,Foils\scenes23.jpg,none,s,4.310240600025281,None,,,,,,,,00037,001,2026-01-16_22h02.46.955,MST_test,2024.2.0,60.10615949556764,2026-01-16 22h02.56.318883 +0530,
103,0,104,o,0.9172410000173841,None,104,0,103,459.38698280000244,,,,,,,,,,,,,,,,,,,,,,,,,,,,,,,,,,,,,,,,,,,,,,,,,,459.37089160000323,459.38698280000244,459.8876658999943,459.8705659999978,459.88036270000157,459.8876658999943,459.8876658999943,459.8876658999943,460.82095969998045,Objects\117b.jpg,pre,o,0.9172410000173841,None,,,,,,,,00037,001,2026-01-16_22h02.46.955,MST_test,2024.2.0,60.10615949556764,2026-01-16 22h02.56.318883 +0530,
104,0,105,o,1.652016400010325,None,105,0,104,460.8369366999832,,,,,,,,,,,,,,,,,,,,,,,,,,,,,,,,,,,,,,,,,,,,,,,,,,460.82105339999544,460.8369366999832,461.33715259999735,461.320601799991,461.3297645999992,461.33715259999735,461.33715259999735,461.33715259999735,463.00412110000616,Objects\169b.jpg,pre,o,1.652016400010325,None,,,,,,,,00037,001,2026-01-16_22h02.46.955,MST_test,2024.2.0,60.10615949556764,2026-01-16 22h02.56.318883 +0530,
105,0,106,n,3.4034390000160784,None,106,0,105,463.0203221999982,,,,,,,,,,,,,,,,,,,,,,,,,,,,,,,,,,,,,,,,,,,,,,,,,,463.0042126000044,463.0203221999982,463.5205988000089,463.5038379000034,463.51274839998223,463.5205988000089,463.5205988000089,463.5205988000089,466.9375272000034,Objects\151b.jpg,mid,n,3.4034390000160784,None,,,,,,,,00037,001,2026-01-16_22h02.46.955,MST_test,2024.2.0,60.10615949556764,2026-01-16 22h02.56.318883 +0530,
106,0,107,n,0.8939098999835551,None,107,0,106,466.9536431999877,,,,,,,,,,,,,,,,,,,,,,,,,,,,,,,,,,,,,,,,,,,,,,,,,,466.93761580000864,466.9536431999877,467.45385319998604,467.43724090000615,467.43982040000265,467.45385319998604,467.45385319998604,467.45385319998604,468.35418429999845,Objects\053a.jpg,post,n,0.8939098999835551,None,,,,,,,,00037,001,2026-01-16_22h02.46.955,MST_test,2024.2.0,60.10615949556764,2026-01-16 22h02.56.318883 +0530,
107,0,108,o,1.2846843999868724,None,108,0,107,468.3703361999942,,,,,,,,,,,,,,,,,,,,,,,,,,,,,,,,,,,,,,,,,,,,,,,,,,468.35427479998907,468.3703361999942,468.8722401999985,468.8538833000057,468.86991099998704,468.8722401999985,468.8722401999985,468.8722401999985,470.1709244000085,Scenes\063b.jpg,post,o,1.2846843999868724,None,,,,,,,,00037,001,2026-01-16_22h02.46.955,MST_test,2024.2.0,60.10615949556764,2026-01-16 22h02.56.318883 +0530,
108,0,109,n,3.692851800005883,None,109,0,108,470.18691150000086,,,,,,,,,,,,,,,,,,,,,,,,,,,,,,,,,,,,,,,,,,,,,,,,,,470.17101489999914,470.18691150000086,470.6874561999866,470.6705679000006,470.6793193999911,470.6874561999866,470.6874561999866,470.6874561999866,474.38753919999,Foils\scenes20.jpg,none,n,3.692851800005883,None,,,,,,,,00037,001,2026-01-16_22h02.46.955,MST_test,2024.2.0,60.10615949556764,2026-01-16 22h02.56.318883 +0530,
109,0,110,o,0.8203839999914635,None,110,0,109,474.4036436000024,,,,,,,,,,,,,,,,,,,,,,,,,,,,,,,,,,,,,,,,,,,,,,,,,,474.3876334000088,474.4036436000024,474.9040165999904,474.8872366999858,474.89739989998634,474.9040165999904,474.9040165999904,474.9040165999904,475.737558599998,Objects\073b.jpg,post,o,0.8203839999914635,None,,,,,,,,00037,001,2026-01-16_22h02.46.955,MST_test,2024.2.0,60.10615949556764,2026-01-16 22h02.56.318883 +0530,
110,0,111,o,0.9903545999841299,None,111,0,110,475.7535374999861,,,,,,,,,,,,,,,,,,,,,,,,,,,,,,,,,,,,,,,,,,,,,,,,,,475.73764909998863,475.7535374999861,476.25384920000215,476.2372139999934,476.23956620000536,476.25384920000215,476.25384920000215,476.25384920000215,477.2542811000021,Objects\168a.jpg,mid,o,0.9903545999841299,None,,,,,,,,00037,001,2026-01-16_22h02.46.955,MST_test,2024.2.0,60.10615949556764,2026-01-16 22h02.56.318883 +0530,
111,0,112,s,2.9375510000099894,None,112,0,111,477.270297799987,,,,,,,,,,,,,,,,,,,,,,,,,,,,,,,,,,,,,,,,,,,,,,,,,,477.2543699000089,477.270297799987,477.77080900000874,477.75394289998803,477.7596921999939,477.77080900000874,477.77080900000874,477.77080900000874,480.7208265000081,Scenes\168a.jpg,post,s,2.9375510000099894,None,,,,,,,,00037,001,2026-01-16_22h02.46.955,MST_test,2024.2.0,60.10615949556764,2026-01-16 22h02.56.318883 +0530,
112,0,113,n,1.2629261999973096,None,113,0,112,480.7370025999844,,,,,,,,,,,,,,,,,,,,,,,,,,,,,,,,,,,,,,,,,,,,,,,,,,480.7209164999949,480.7370025999844,481.2374693999882,481.2206060999888,481.23021479998715,481.2374693999882,481.2374693999882,481.2374693999882,482.5041620999982,Foils\098a.jpg,none,n,1.2629261999973096,None,,,,,,,,00037,001,2026-01-16_22h02.46.955,MST_test,2024.2.0,60.10615949556764,2026-01-16 22h02.56.318883 +0530,
113,0,114,o,0.9593596000049729,None,114,0,113,482.52032019998296,,,,,,,,,,,,,,,,,,,,,,,,,,,,,,,,,,,,,,,,,,,,,,,,,,482.5042595999839,482.52032019998296,483.02040409998153,483.0037633999891,483.01334549998865,483.02040409998153,483.02040409998153,483.02040409998153,483.98747029999504,Objects\186b.jpg,post,o,0.9593596000049729,None,,,,,,,,00037,001,2026-01-16_22h02.46.955,MST_test,2024.2.0,60.10615949556764,2026-01-16 22h02.56.318883 +0530,
114,0,115,o,1.2837470000085887,None,115,0,114,484.00366079999367,,,,,,,,,,,,,,,,,,,,,,,,,,,,,,,,,,,,,,,,,,,,,,,,,,483.98756239999784,484.00366079999367,484.50394699999015,484.48720790000516,484.49661599998944,484.50394699999015,484.50394699999015,484.50394699999015,485.8042493999819,Objects\091b.jpg,pre,o,1.2837470000085887,None,,,,,,,,00037,001,2026-01-16_22h02.46.955,MST_test,2024.2.0,60.10615949556764,2026-01-16 22h02.56.318883 +0530,
115,0,116,o,1.1952241999970283,None,116,0,115,485.8203253999818,,,,,,,,,,,,,,,,,,,,,,,,,,,,,,,,,,,,,,,,,,,,,,,,,,485.8043387999933,485.8203253999818,486.32056100000045,486.3038996999967,486.31320899998536,486.32056100000045,486.32056100000045,486.32056100000045,487.52089379998506,Objects\175b.jpg,post,o,1.1952241999970283,None,,,,,,,,00037,001,2026-01-16_22h02.46.955,MST_test,2024.2.0,60.10615949556764,2026-01-16 22h02.56.318883 +0530,
116,0,117,o,0.6785275000147521,None,117,0,116,487.5369260000007,,,,,,,,,,,,,,,,,,,,,,,,,,,,,,,,,,,,,,,,,,,,,,,,,,487.5209826999926,487.5369260000007,488.037210999988,488.02061030000914,488.02307699999074,488.037210999988,488.037210999988,488.037210999988,488.7209392999939,Objects\016a.jpg,pre,o,0.6785275000147521,None,,,,,,,,00037,001,2026-01-16_22h02.46.955,MST_test,2024.2.0,60.10615949556764,2026-01-16 22h02.56.318883 +0530,
117,0,118,o,0.7277951000141911,None,118,0,117,488.73708239998086,,,,,,,,,,,,,,,,,,,,,,,,,,,,,,,,,,,,,,,,,,,,,,,,,,488.7210275999969,488.73708239998086,489.23718900000677,489.22067919999245,489.22305430000415,489.23718900000677,489.23718900000677,489.23718900000677,489.97101109998766,Objects\046a.jpg,mid,o,0.7277951000141911,None,,,,,,,,00037,001,2026-01-16_22h02.46.955,MST_test,2024.2.0,60.10615949556764,2026-01-16 22h02.56.318883 +0530,
118,0,119,n,4.278051699977368,None,119,0,118,489.9869730999926,,,,,,,,,,,,,,,,,,,,,,,,,,,,,,,,,,,,,,,,,,,,,,,,,,489.97110170000815,489.9869730999926,490.48723529998097,490.4705318000051,490.47923530000844,490.48723529998097,490.48723529998097,490.48723529998097,494.77083510000375,Foils\scenes5.jpg,none,n,4.278051699977368,None,,,,,,,,00037,001,2026-01-16_22h02.46.955,MST_test,2024.2.0,60.10615949556764,2026-01-16 22h02.56.318883 +0530,
119,0,120,o,2.2206876999989618,None,120,0,119,494.78700859998935,,,,,,,,,,,,,,,,,,,,,,,,,,,,,,,,,,,,,,,,,,,,,,,,,,494.7709313999803,494.78700859998935,495.2872022000083,495.27044309998746,495.2734390999831,495.2872022000083,495.2872022000083,495.2872022000083,497.5207015000051,Objects\065a.jpg,pre,o,2.2206876999989618,None,,,,,,,,00037,001,2026-01-16_22h02.46.955,MST_test,2024.2.0,60.10615949556764,2026-01-16 22h02.56.318883 +0530,
120,0,121,o,0.9190839999937452,None,121,0,120,497.5369057999924,,,,,,,,,,,,,,,,,,,,,,,,,,,,,,,,,,,,,,,,,,,,,,,,,,497.52079189999495,497.5369057999924,498.0373942999868,498.02047650000895,498.03065380000044,498.0373942999868,498.0373942999868,498.0373942999868,498.9708266000089,Scenes\059a.jpg,mid,o,0.9190839999937452,None,,,,,,,,00037,001,2026-01-16_22h02.46.955,MST_test,2024.2.0,60.10615949556764,2026-01-16 22h02.56.318883 +0530,
121,0,122,s,4.9167622000095434,None,122,0,121,498.9868906000047,,,,,,,,,,,,,,,,,,,,,,,,,,,,,,,,,,,,,,,,,,,,,,,,,,498.9709186999826,498.9868906000047,499.4875561000081,499.47043339998345,499.48463520000223,499.4875561000081,499.4875561000081,499.4875561000081,504.42076859998633,Scenes\160b.jpg,mid,s,4.9167622000095434,None,,,,,,,,00037,001,2026-01-16_22h02.46.955,MST_test,2024.2.0,60.10615949556764,2026-01-16 22h02.56.318883 +0530,
122,0,123,o,0.826576199993724,None,123,0,122,504.4369030999951,,,,,,,,,,,,,,,,,,,,,,,,,,,,,,,,,,,,,,,,,,,,,,,,,,504.420861599996,504.4369030999951,504.9373610999901,504.9206017999968,504.9236927999882,504.9373610999901,504.9373610999901,504.9373610999901,505.7706771999947,Objects\056a.jpg,mid,o,0.826576199993724,None,,,,,,,,00037,001,2026-01-16_22h02.46.955,MST_test,2024.2.0,60.10615949556764,2026-01-16 22h02.56.318883 +0530,
123,0,124,o,5.405406900012167,None,124,0,123,505.7868911999976,,,,,,,,,,,,,,,,,,,,,,,,,,,,,,,,,,,,,,,,,,,,,,,,,,505.7707712999836,505.7868911999976,506.28724579999107,506.2704206999915,506.2814388999832,506.28724579999107,506.28724579999107,506.28724579999107,511.7039763999928,Foils\scenes8.jpg,none,o,5.405406900012167,None,,,,,,,,00037,001,2026-01-16_22h02.46.955,MST_test,2024.2.0,60.10615949556764,2026-01-16 22h02.56.318883 +0530,
124,0,125,o,2.9039671999926213,None,125,0,124,511.72022739998647,,,,,,,,,,,,,,,,,,,,,,,,,,,,,,,,,,,,,,,,,,,,,,,,,,511.7040660000057,511.72022739998647,512.2205332999874,512.2036613000091,512.2085135999951,512.2205332999874,512.2205332999874,512.2205332999874,515.1375029000046,Scenes\061a.jpg,mid,o,2.9039671999926213,None,,,,,,,,00037,001,2026-01-16_22h02.46.955,MST_test,2024.2.0,60.10615949556764,2026-01-16 22h02.56.318883 +0530,
125,0,126,o,6.110841200017603,None,126,0,125,515.1533213999937,,,,,,,,,,,,,,,,,,,,,,,,,,,,,,,,,,,,,,,,,,,,,,,,,,515.1375960999867,515.1533213999937,515.6537871999899,515.6370836999849,515.6470856999804,515.6537871999899,515.6537871999899,515.6537871999899,521.7708557999867,Objects\141b.jpg,post,o,6.110841200017603,None,,,,,,,,00037,001,2026-01-16_22h02.46.955,MST_test,2024.2.0,60.10615949556764,2026-01-16 22h02.56.318883 +0530,
126,0,127,o,1.934127799991984,None,127,0,126,521.7868257999944,,,,,,,,,,,,,,,,,,,,,,,,,,,,,,,,,,,,,,,,,,,,,,,,,,521.7709445999935,521.7868257999944,522.2873624000058,522.2706418999878,522.2806987999938,522.2873624000058,522.2873624000058,522.2873624000058,524.237484399986,Scenes\189a.jpg,pre,o,1.934127799991984,None,,,,,,,,00037,001,2026-01-16_22h02.46.955,MST_test,2024.2.0,60.10615949556764,2026-01-16 22h02.56.318883 +0530,
127,0,128,n,2.7757137000153307,None,128,0,127,524.2533973999962,,,,,,,,,,,,,,,,,,,,,,,,,,,,,,,,,,,,,,,,,,,,,,,,,,524.237580999994,524.2533973999962,524.7566845999972,524.7371288999857,524.7547059000062,524.7566845999972,524.7566845999972,524.7566845999972,527.5375788999954,Scenes\134b.jpg,pre,n,2.7757137000153307,None,,,,,,,,00037,001,2026-01-16_22h02.46.955,MST_test,2024.2.0,60.10615949556764,2026-01-16 22h02.56.318883 +0530,
128,0,129,n,2.3982717000180855,None,129,0,128,527.553439499985,,,,,,,,,,,,,,,,,,,,,,,,,,,,,,,,,,,,,,,,,,,,,,,,,,527.5376680000045,527.553439499985,528.0540396999859,528.0371598000056,528.0468566000054,528.0540396999859,528.0540396999859,528.0540396999859,530.4539239000005,Foils\042a.jpg,none,n,2.3982717000180855,None,,,,,,,,00037,001,2026-01-16_22h02.46.955,MST_test,2024.2.0,60.10615949556764,2026-01-16 22h02.56.318883 +0530,
129,0,130,o,0.8012769000197295,None,130,0,129,530.470230100007,,,,,,,,,,,,,,,,,,,,,,,,,,,,,,,,,,,,,,,,,,,,,,,,,,530.4540207999817,530.470230100007,530.9705104999884,530.9538710000052,530.9566668999905,530.9705104999884,530.9705104999884,530.9705104999884,531.7874464000051,Objects\027a.jpg,post,o,0.8012769000197295,None,,,,,,,,00037,001,2026-01-16_22h02.46.955,MST_test,2024.2.0,60.10615949556764,2026-01-16 22h02.56.318883 +0530,
130,0,131,o,0.7410603000025731,None,131,0,130,531.8034893999866,,,,,,,,,,,,,,,,,,,,,,,,,,,,,,,,,,,,,,,,,,,,,,,,,,531.7875373999996,531.8034893999866,532.3037405000068,532.2871812999947,532.289860799996,532.3037405000068,532.3037405000068,532.3037405000068,533.0541583999875,Objects\101a.jpg,mid,o,0.7410603000025731,None,,,,,,,,00037,001,2026-01-16_22h02.46.955,MST_test,2024.2.0,60.10615949556764,2026-01-16 22h02.56.318883 +0530,
131,0,132,s,3.1620626999938395,None,132,0,131,533.0702251000039,,,,,,,,,,,,,,,,,,,,,,,,,,,,,,,,,,,,,,,,,,,,,,,,,,533.0542547999939,533.0702251000039,533.5704590999812,533.5538084,533.5633126999892,533.5704590999812,533.5704590999812,533.5704590999812,536.7375369000074,Foils\020b.jpg,none,s,3.1620626999938395,None,,,,,,,,00037,001,2026-01-16_22h02.46.955,MST_test,2024.2.0,60.10615949556764,2026-01-16 22h02.56.318883 +0530,
132,0,133,s,5.405892700015102,None,133,0,132,536.7534064000065,,,,,,,,,,,,,,,,,,,,,,,,,,,,,,,,,,,,,,,,,,,,,,,,,,536.7376261999889,536.7534064000065,537.2541810999974,537.2371489999932,537.2479592000018,537.2541810999974,537.2541810999974,537.2541810999974,542.6707235999929,Scenes\130a.jpg,post,s,5.405892700015102,None,,,,,,,,00037,001,2026-01-16_22h02.46.955,MST_test,2024.2.0,60.10615949556764,2026-01-16 22h02.56.318883 +0530,
133,0,134,n,1.8572898000129499,None,134,0,133,542.686907700001,,,,,,,,,,,,,,,,,,,,,,,,,,,,,,,,,,,,,,,,,,,,,,,,,,542.6708196999971,542.686907700001,543.1874667000084,543.1704361999873,543.1805272999918,543.1874667000084,543.1874667000084,543.1874667000084,545.0540500000061,Foils\081a.jpg,none,n,1.8572898000129499,None,,,,,,,,00037,001,2026-01-16_22h02.46.955,MST_test,2024.2.0,60.10615949556764,2026-01-16 22h02.56.318883 +0530,
134,0,135,o,0.7860208999773022,None,135,0,134,545.0702255000069,,,,,,,,,,,,,,,,,,,,,,,,,,,,,,,,,,,,,,,,,,,,,,,,,,545.0541472999903,545.0702255000069,545.5704918999982,545.5536750000028,545.5561815999972,545.5704918999982,545.5704918999982,545.5704918999982,546.3707695000048,Objects\143a.jpg,mid,o,0.7860208999773022,None,,,,,,,,00037,001,2026-01-16_22h02.46.955,MST_test,2024.2.0,60.10615949556764,2026-01-16 22h02.56.318883 +0530,
135,0,136,o,1.7086583999916911,None,136,0,135,546.3868582999858,,,,,,,,,,,,,,,,,,,,,,,,,,,,,,,,,,,,,,,,,,,,,,,,,,546.3708623999846,546.3868582999858,546.8874156999809,546.8704758999811,546.8796002999879,546.8874156999809,546.8874156999809,546.8874156999809,548.6040740000026,Scenes\119a.jpg,mid,o,1.7086583999916911,None,,,,,,,,00037,001,2026-01-16_22h02.46.955,MST_test,2024.2.0,60.10615949556764,2026-01-16 22h02.56.318883 +0530,
136,0,137,s,4.019640899990918,None,137,0,136,548.6202197000093,,,,,,,,,,,,,,,,,,,,,,,,,,,,,,,,,,,,,,,,,,,,,,,,,,548.6041663000069,548.6202197000093,549.1207264999975,549.1036849000084,549.1157582000014,549.1207264999975,549.1207264999975,549.1207264999975,553.1541226999834,Scenes\091b.jpg,post,s,4.019640899990918,None,,,,,,,,00037,001,2026-01-16_22h02.46.955,MST_test,2024.2.0,60.10615949556764,2026-01-16 22h02.56.318883 +0530,
137,0,138,n,1.3893164999899454,None,138,0,137,553.1702250999806,,,,,,,,,,,,,,,,,,,,,,,,,,,,,,,,,,,,,,,,,,,,,,,,,,553.1542124999978,553.1702250999806,553.6707082999928,553.6537437000079,553.6638013999909,553.6707082999928,553.6707082999928,553.6707082999928,555.0708886999928,Foils\090a.jpg,none,n,1.3893164999899454,None,,,,,,,,00037,001,2026-01-16_22h02.46.955,MST_test,2024.2.0,60.10615949556764,2026-01-16 22h02.56.318883 +0530,
138,0,139,n,2.3938151999900583,None,139,0,138,555.0870010000071,,,,,,,,,,,,,,,,,,,,,,,,,,,,,,,,,,,,,,,,,,,,,,,,,,555.0709807999956,555.0870010000071,555.5871867999958,555.5705037000007,555.5821574000001,555.5871867999958,555.5871867999958,555.5871867999958,557.9876887999999,Objects\001b.jpg,post,n,2.3938151999900583,None,,,,,,,,00037,001,2026-01-16_22h02.46.955,MST_test,2024.2.0,60.10615949556764,2026-01-16 22h02.56.318883 +0530,
139,0,140,o,2.259816099976888,None,140,0,139,558.0035344999924,,,,,,,,,,,,,,,,,,,,,,,,,,,,,,,,,,,,,,,,,,,,,,,,,,557.9877876999963,558.0035344999924,558.5039732999867,558.4872556999908,558.4963445999892,558.5039732999867,558.5039732999867,558.5039732999867,560.7709359999862,Objects\029b.jpg,mid,o,2.259816099976888,None,,,,,,,,00037,001,2026-01-16_22h02.46.955,MST_test,2024.2.0,60.10615949556764,2026-01-16 22h02.56.318883 +0530,
140,0,141,o,0.8686433999973815,None,141,0,140,560.7869258999999,,,,,,,,,,,,,,,,,,,,,,,,,,,,,,,,,,,,,,,,,,,,,,,,,,560.7710255999991,560.7869258999999,561.2885073999933,561.2705665999965,561.2864281999937,561.2885073999933,561.2885073999933,561.2885073999933,562.1710725000012,Scenes\072b.jpg,pre,o,0.8686433999973815,None,,,,,,,,00037,001,2026-01-16_22h02.46.955,MST_test,2024.2.0,60.10615949556764,2026-01-16 22h02.56.318883 +0530,
141,0,142,o,0.6684086000022944,None,142,0,141,562.1870730000082,,,,,,,,,,,,,,,,,,,,,,,,,,,,,,,,,,,,,,,,,,,,,,,,,,562.1711676999985,562.1870730000082,562.6875398999837,562.6706300000078,562.673870700004,562.6875398999837,562.6875398999837,562.6875398999837,563.3709309999831,Objects\184a.jpg,post,o,0.6684086000022944,None,,,,,,,,00037,001,2026-01-16_22h02.46.955,MST_test,2024.2.0,60.10615949556764,2026-01-16 22h02.56.318883 +0530,
142,0,143,o,6.885109200025909,None,143,0,142,563.38710729999,,,,,,,,,,,,,,,,,,,,,,,,,,,,,,,,,,,,,,,,,,,,,,,,,,563.371027199988,563.38710729999,563.8875500999857,563.8708796999999,563.8800099999935,563.8875500999857,563.8875500999857,563.8875500999857,570.7876216000004,Foils\scenes3.jpg,none,o,6.885109200025909,None,,,,,,,,00037,001,2026-01-16_22h02.46.955,MST_test,2024.2.0,60.10615949556764,2026-01-16 22h02.56.318883 +0530,
143,0,144,o,0.9544486999802757,None,144,0,143,570.8035957999818,,,,,,,,,,,,,,,,,,,,,,,,,,,,,,,,,,,,,,,,,,,,,,,,,,570.7877185999823,570.8035957999818,571.305832699989,571.2872754999844,571.3038099999831,571.305832699989,571.305832699989,571.305832699989,572.2708051000081,Scenes\067b.jpg,pre,o,0.9544486999802757,None,,,,,,,,00037,001,2026-01-16_22h02.46.955,MST_test,2024.2.0,60.10615949556764,2026-01-16 22h02.56.318883 +0530,
144,0,145,o,0.6649920000054408,None,145,0,144,572.2870300000068,,,,,,,,,,,,,,,,,,,,,,,,,,,,,,,,,,,,,,,,,,,,,,,,,,572.2708949999942,572.2870300000068,572.7874485999928,572.7705720000085,572.7809819999966,572.7874485999928,572.7874485999928,572.7874485999928,573.4541133999883,Objects\075b.jpg,mid,o,0.6649920000054408,None,,,,,,,,00037,001,2026-01-16_22h02.46.955,MST_test,2024.2.0,60.10615949556764,2026-01-16 22h02.56.318883 +0530,
145,0,146,o,0.5940933999954723,None,146,0,145,573.4703453999828,,,,,,,,,,,,,,,,,,,,,,,,,,,,,,,,,,,,,,,,,,,,,,,,,,573.4542024999973,573.4703453999828,573.9705055000086,573.9538330000069,573.9562899000011,573.9705055000086,573.9705055000086,573.9705055000086,574.5708985999809,Objects\052a.jpg,post,o,0.5940933999954723,None,,,,,,,,00037,001,2026-01-16_22h02.46.955,MST_test,2024.2.0,60.10615949556764,2026-01-16 22h02.56.318883 +0530,
146,0,147,o,0.8762292000174057,None,147,0,146,574.5869462999981,,,,,,,,,,,,,,,,,,,,,,,,,,,,,,,,,,,,,,,,,,,,,,,,,,574.5709940000088,574.5869462999981,575.087537799991,575.0705451999966,575.0779770000081,575.087537799991,575.087537799991,575.087537799991,575.9709638000058,Scenes\118a.jpg,mid,o,0.8762292000174057,None,,,,,,,,00037,001,2026-01-16_22h02.46.955,MST_test,2024.2.0,60.10615949556764,2026-01-16 22h02.56.318883 +0530,
147,0,148,n,1.7687781999993604,None,148,0,147,575.986943099997,,,,,,,,,,,,,,,,,,,,,,,,,,,,,,,,,,,,,,,,,,,,,,,,,,575.9710537999927,575.986943099997,576.4915681999992,576.4706990999985,576.4893096000014,576.4915681999992,576.4915681999992,576.4915681999992,578.2713035999914,Scenes\128b.jpg,post,n,1.7687781999993604,None,,,,,,,,00037,001,2026-01-16_22h02.46.955,MST_test,2024.2.0,60.10615949556764,2026-01-16 22h02.56.318883 +0530,
148,0,149,o,1.1165613000048324,None,149,0,148,578.2870525000035,,,,,,,,,,,,,,,,,,,,,,,,,,,,,,,,,,,,,,,,,,,,,,,,,,578.2713949999888,578.2870525000035,578.7912297000003,578.7705703999964,578.7889470999944,578.7912297000003,578.7912297000003,578.7912297000003,579.9209798999946,Scenes\089b.jpg,mid,o,1.1165613000048324,None,,,,,,,,00037,001,2026-01-16_22h02.46.955,MST_test,2024.2.0,60.10615949556764,2026-01-16 22h02.56.318883 +0530,
149,0,150,s,1.278928799991263,None,150,0,149,579.9370085999835,,,,,,,,,,,,,,,,,,,,,,,,,,,,,,,,,,,,,,,,,,,,,,,,,,579.921070499986,579.9370085999835,580.4375467000064,580.4206089999934,580.4309780999902,580.4375467000064,580.4375467000064,580.4375467000064,581.7209475999989,Foils\009a.jpg,none,s,1.278928799991263,None,,,,,,,,00037,001,2026-01-16_22h02.46.955,MST_test,2024.2.0,60.10615949556764,2026-01-16 22h02.56.318883 +0530,
,,,,,,,,,,,,,,,,,,,,,,,,,,,,,,,,,,,,,,,,,,,,,,,,,,,,,,,,,,,,,,,,,,,,,,,,,581.7210140999814,581.7370530999906,581.7370530999906,584.7539908000035,space,3.0034277999948245,None,00037,001,2026-01-16_22h02.46.955,MST_test,2024.2.0,60.10615949556764,2026-01-16 22h02.56.318883 +0530,
