Sl_no,image_path,thisN,thisTrialN,thisRepN,key_resp_5.keys,key_resp_5.rt,key_resp_5.duration,key_resp_7.keys,key_resp_7.rt,key_resp_7.duration,key_resp_9.keys,key_resp_9.rt,key_resp_9.duration,key_resp_8.keys,key_resp_8.rt,key_resp_8.duration,practice.thisRepN,practice.thisTrialN,practice.thisN,trials.thisRepN,trials.thisTrialN,trials.thisN,thisRow.t,notes,welcome_page.started,text.started,key_resp.started,welcome_page.stopped,key_resp.keys,key_resp.rt,key_resp.duration,instructions.started,ins.started,key_resp_2.started,instructions.stopped,key_resp_2.keys,key_resp_2.rt,key_resp_2.duration,instructions_2.started,text_10.started,key_resp_10.started,instructions_2.stopped,key_resp_10.keys,key_resp_10.rt,key_resp_10.duration,objects_only_instruction.started,text_3.started,key_resp_3.started,objects_only_instruction.stopped,key_resp_3.keys,key_resp_3.rt,key_resp_3.duration,ISI.started,text_4.started,text_4.stopped,ISI.stopped,practice_block.started,image.started,text_5.started,key_resp_5.started,practice_block.stopped,practice.key_resp_5.keys,practice.key_resp_5.rt,practice.key_resp_5.duration,indoor_outdoor.started,indoor_outdoor.stopped,practice.key_resp_7.keys,image.stopped,text_5.stopped,key_resp_5.stopped,text_7.started,key_resp_7.started,practice.key_resp_7.rt,practice.key_resp_7.duration,practice_to_main.started,text_2.started,key_resp_4.started,practice_to_main.stopped,key_resp_4.keys,key_resp_4.rt,key_resp_4.duration,objects.started,image_2.started,text_9.started,key_resp_9.started,objects.stopped,trials.key_resp_9.keys,trials.key_resp_9.rt,trials.key_resp_9.duration,encoding_task.started,encoding_task.stopped,trials.key_resp_8.keys,image_2.stopped,text_9.stopped,key_resp_9.stopped,text_8.started,key_resp_8.started,trials.key_resp_8.rt,trials.key_resp_8.duration,end_experiment.started,text_6.started,key_resp_6.started,end_experiment.stopped,key_resp_6.keys,key_resp_6.rt,key_resp_6.duration,list_of_stimuli,encoding_task_accuracy,participant,session,date,expName,psychopyVersion,frameRate,expStart,
,,,,,,,,,,,,,,,,,,,,,,,,,0.0011341999925207347,0.0026446999981999397,0.0026446999981999397,630.7742106999794,space,630.7604539000022,None,,,,,,,,,,,,,,,,,,,,,,,,,,,,,,,,,,,,,,,,,,,,,,,,,,,,,,,,,,,,,,,,,,,,,,,,,,,,,,00040,001,2026-01-17_11h26.33.901,MST_task,2024.2.0,59.99995200665781,2026-01-17 11h26.44.896541 +0530,
,,,,,,,,,,,,,,,,,,,,,,,,,,,,,,,,630.7742467999924,630.7889719999803,630.7889719999803,643.156122299988,space,12.358032300020568,None,,,,,,,,,,,,,,,,,,,,,,,,,,,,,,,,,,,,,,,,,,,,,,,,,,,,,,,,,,,,,,,,,,,,,,,00040,001,2026-01-17_11h26.33.901,MST_task,2024.2.0,59.99995200665781,2026-01-17 11h26.44.896541 +0530,
,,,,,,,,,,,,,,,,,,,,,,,,,,,,,,,,,,,,,,,643.1561481999815,643.1722000000009,643.1722000000009,652.9226260999858,space,9.73501590001979,None,,,,,,,,,,,,,,,,,,,,,,,,,,,,,,,,,,,,,,,,,,,,,,,,,,,,,,,,,,,,,,,,00040,001,2026-01-17_11h26.33.901,MST_task,2024.2.0,59.99995200665781,2026-01-17 11h26.44.896541 +0530,
,,,,,,,,,,,,,,,,,,,,,,,,,,,,,,,,,,,,,,,,,,,,,,652.9226565999852,652.9390083999897,652.9390083999897,675.5062746999902,space,22.560167699994054,None,,,,,,,,,,,,,,,,,,,,,,,,,,,,,,,,,,,,,,,,,,,,,,,,,,,,,,,,,00040,001,2026-01-17_11h26.33.901,MST_task,2024.2.0,59.99995200665781,2026-01-17 11h26.44.896541 +0530,
7,practice_images/166a.jpg,0,0,1,f,1.9488195999874733,0.15204230000381358,None,,,,,,,,,1,0,0,,,,675.5222979999962,,,,,,,,,,,,,,,,,,,,,,,,,,,,,,675.5203332999954,675.5222979999962,676.0305311999982,676.005895099981,676.0198703999922,676.0305311999982,676.0305311999982,676.0305311999982,679.022533899988,f,1.9488195999874733,0.15204230000381358,679.0243560999807,679.0243760999874,None,,,,,,,,,,,,,,,,,,,,,,,,,,,,,,,,,,,,,,,,,,00040,001,2026-01-17_11h26.33.901,MST_task,2024.2.0,59.99995200665781,2026-01-17 11h26.44.896541 +0530,
2,practice_images/031a.jpg,1,1,1,f,2.600101199990604,0.18397760001244023,None,,,,,,,,,1,1,1,,,,679.0390506999975,,,,,,,,,,,,,,,,,,,,,,,,,,,,,,679.024450500001,679.0390506999975,679.5392251999874,679.5224371999793,679.5303964999912,679.5392251999874,679.5392251999874,679.5392251999874,682.5226733999734,f,2.600101199990604,0.18397760001244023,682.5227154999739,682.5227273999772,None,682.5389724999841,682.5389724999841,682.5389724999841,,,,,,,,,,,,,,,,,,,,,,,,,,,,,,,,,,,,,,,00040,001,2026-01-17_11h26.33.901,MST_task,2024.2.0,59.99995200665781,2026-01-17 11h26.44.896541 +0530,
1,practice_images/013a.jpg,2,2,1,None,,,j,1.179500199999893,None,,,,,,,1,2,2,,,,682.5389724999841,,,,,,,,,,,,,,,,,,,,,,,,,,,,,,682.5227893999836,682.5389724999841,683.0391361999791,683.0224629000004,683.0305915999925,683.0391361999791,683.0391361999791,683.0391361999791,686.0227474999847,None,,,686.0227894999844,687.2229006999987,j,686.0389676999766,686.0389676999766,686.0389676999766,686.0389676999766,686.0389676999766,1.179500199999893,None,,,,,,,,,,,,,,,,,,,,,,,,,,,,,,,,,,,00040,001,2026-01-17_11h26.33.901,MST_task,2024.2.0,59.99995200665781,2026-01-17 11h26.44.896541 +0530,
9,practice_images/180a.jpg,3,3,1,f,1.5359392000245862,0.19999909997568466,None,,,,,,,,,1,3,3,,,,687.2391255999974,,,,,,,,,,,,,,,,,,,,,,,,,,,,,,687.2229862999811,687.2391255999974,687.739219399984,687.7226918999804,687.7309498999966,687.739219399984,687.739219399984,687.739219399984,690.7226642000023,f,1.5359392000245862,0.19999909997568466,690.7227049999929,690.7227184999792,None,690.7390023999906,690.7390023999906,690.7390023999906,,,,,,,,,,,,,,,,,,,,,,,,,,,,,,,,,,,,,,,00040,001,2026-01-17_11h26.33.901,MST_task,2024.2.0,59.99995200665781,2026-01-17 11h26.44.896541 +0530,
3,practice_images/037a.jpg,4,4,1,f,1.0669789999956265,0.2561044000030961,None,,,,,,,,,1,4,4,,,,690.7390023999906,,,,,,,,,,,,,,,,,,,,,,,,,,,,,,690.7227831999771,690.7390023999906,691.2393712999765,691.222689199989,691.2305897999904,691.2393712999765,691.2393712999765,691.2393712999765,694.2226887999859,f,1.0669789999956265,0.2561044000030961,694.2227267999842,694.2227389999898,None,694.2391124999849,694.2391124999849,694.2391124999849,,,,,,,,,,,,,,,,,,,,,,,,,,,,,,,,,,,,,,,00040,001,2026-01-17_11h26.33.901,MST_task,2024.2.0,59.99995200665781,2026-01-17 11h26.44.896541 +0530,
8,practice_images/178a.jpg,5,5,1,f,2.2713436000049114,0.18395909998798743,None,,,,,,,,,1,5,5,,,,694.2391124999849,,,,,,,,,,,,,,,,,,,,,,,,,,,,,,694.2228065999807,694.2391124999849,694.7391059999936,694.7228178999794,694.7350127999962,694.7391059999936,694.7391059999936,694.7391059999936,697.7226626999909,f,2.2713436000049114,0.18395909998798743,697.7253737999999,697.725392399996,None,697.7390799999994,697.7390799999994,697.7390799999994,,,,,,,,,,,,,,,,,,,,,,,,,,,,,,,,,,,,,,,00040,001,2026-01-17_11h26.33.901,MST_task,2024.2.0,59.99995200665781,2026-01-17 11h26.44.896541 +0530,
5,practice_images/139a.jpg,6,6,1,j,1.507792199990945,0.17591459999675862,None,,,,,,,,,1,6,6,,,,697.7390799999994,,,,,,,,,,,,,,,,,,,,,,,,,,,,,,697.7254592999816,697.7390799999994,698.2392333999742,698.2227673000016,698.2305199999828,698.2392333999742,698.2392333999742,698.2392333999742,701.2227187999815,j,1.507792199990945,0.17591459999675862,701.2227551999968,701.2227671,None,701.2390729999752,701.2390729999752,701.2390729999752,,,,,,,,,,,,,,,,,,,,,,,,,,,,,,,,,,,,,,,00040,001,2026-01-17_11h26.33.901,MST_task,2024.2.0,59.99995200665781,2026-01-17 11h26.44.896541 +0530,
4,practice_images/002b.jpg,7,7,1,j,2.6718070000060834,0.19987499999115244,None,,,,,,,,,1,7,7,,,,701.2390729999752,,,,,,,,,,,,,,,,,,,,,,,,,,,,,,701.2228294999804,701.2390729999752,701.7392685999803,701.7228803999897,701.7311745999905,701.7392685999803,701.7392685999803,701.7392685999803,704.7226860999945,j,2.6718070000060834,0.19987499999115244,704.7227331999748,704.7227469999925,None,704.7390272999764,704.7390272999764,704.7390272999764,,,,,,,,,,,,,,,,,,,,,,,,,,,,,,,,,,,,,,,00040,001,2026-01-17_11h26.33.901,MST_task,2024.2.0,59.99995200665781,2026-01-17 11h26.44.896541 +0530,
10,practice_images/182a.jpg,8,8,1,f,0.8031596000073478,0.1439881999976933,None,,,,,,,,,1,8,8,,,,704.7390272999764,,,,,,,,,,,,,,,,,,,,,,,,,,,,,,704.7228209000023,704.7390272999764,705.239177099982,705.2226299999747,705.2302350999962,705.239177099982,705.239177099982,705.239177099982,708.2229939999816,f,0.8031596000073478,0.1439881999976933,708.2230339999951,708.2230471999792,None,,,,,,,,,,,,,,,,,,,,,,,,,,,,,,,,,,,,,,,,,,00040,001,2026-01-17_11h26.33.901,MST_task,2024.2.0,59.99995200665781,2026-01-17 11h26.44.896541 +0530,
6,practice_images/158a.jpg,9,9,1,j,1.887507600011304,0.1920041000121273,None,,,,,,,,,1,9,9,,,,708.2392531999794,,,,,,,,,,,,,,,,,,,,,,,,,,,,,,708.22311359999,708.2392531999794,708.7392713000008,708.7226072999765,708.7305066999979,708.7392713000008,708.7392713000008,708.7392713000008,711.7227535999846,j,1.887507600011304,0.1920041000121273,711.7227981999749,711.7228110999858,None,711.7390121999779,711.7390121999779,711.7390121999779,,,,,,,,,,,,,,,,,,,,,,,,,,,,,,,,,,,,,,,00040,001,2026-01-17_11h26.33.901,MST_task,2024.2.0,59.99995200665781,2026-01-17 11h26.44.896541 +0530,
,,,,,,,,,,,,,,,,,,,,,,,,,,,,,,,,,,,,,,,,,,,,,,,,,,,,,,,,,,,,,,,,,,,,,,,,,,,711.7228553999739,711.7390121999779,711.7390121999779,753.6229144999816,space,41.880162100016605,None,,,,,,,,,,,,,,,,,,,,,,,,,,,,00040,001,2026-01-17_11h26.33.901,MST_task,2024.2.0,59.99995200665781,2026-01-17 11h26.44.896541 +0530,
,Scenes\084a.jpg,0,0,1,,,,,,,j,1.8514244999969378,0.16770990000804886,None,,,,,,1,0,0,753.6389990999887,,,,,,,,,,,,,,,,,,,,,,,,,,,,,,753.6237433999777,753.6389990999887,754.1516763999825,754.1225525999907,,,,,,,,,,,,,,,,,,,,,,,,,,754.1487224999873,754.1516763999825,754.1516763999825,754.1516763999825,757.139202099992,j,1.8514244999969378,0.16770990000804886,757.1409028999915,757.1409234000021,None,,,,,,,,,,,,,,,,,00040,001,2026-01-17_11h26.33.901,MST_task,2024.2.0,59.99995200665781,2026-01-17 11h26.44.896541 +0530,
,Scenes\095a.jpg,1,0,2,,,,,,,j,1.4953008999873418,0.19199859999935143,None,,,,,,2,0,1,757.1556757999933,,,,,,,,,,,,,,,,,,,,,,,,,,,,,,757.1410191999748,757.1556757999933,757.6592469999741,757.6392551999888,,,,,,,,,,,,,,,,,,,,,,,,,,757.6569474999851,757.6592469999741,757.6592469999741,757.6592469999741,760.6559818999958,j,1.4953008999873418,0.19199859999935143,760.6560289999761,760.6560412999825,None,,,,,,,,,,,,,,,,,00040,001,2026-01-17_11h26.33.901,MST_task,2024.2.0,59.99995200665781,2026-01-17 11h26.44.896541 +0530,
,Scenes\124a.jpg,2,0,3,,,,,,,j,0.8310033000016119,0.15208440000424162,None,,,,,,3,0,2,760.6723570999748,,,,,,,,,,,,,,,,,,,,,,,,,,,,,,760.6561469000007,760.6723570999748,761.1728024999902,761.155950299988,,,,,,,,,,,,,,,,,,,,,,,,,,761.1705228999781,761.1728024999902,761.1728024999902,761.1728024999902,764.1562653000001,j,0.8310033000016119,0.15208440000424162,764.1563077999745,764.156319199974,None,764.1721676999878,764.1721676999878,764.1721676999878,,,,,,,,,,,,,,00040,001,2026-01-17_11h26.33.901,MST_task,2024.2.0,59.99995200665781,2026-01-17 11h26.44.896541 +0530,
,Scenes\085a.jpg,3,0,4,,,,,,,j,0.8947640999977011,0.17599609997705556,None,,,,,,4,0,3,764.1721676999878,,,,,,,,,,,,,,,,,,,,,,,,,,,,,,764.156416199985,764.1721676999878,764.676439599978,764.6559146999789,,,,,,,,,,,,,,,,,,,,,,,,,,764.6739892999758,764.676439599978,764.676439599978,764.676439599978,767.672570499999,j,0.8947640999977011,0.17599609997705556,767.6726157999947,767.6726282000018,None,,,,,,,,,,,,,,,,,00040,001,2026-01-17_11h26.33.901,MST_task,2024.2.0,59.99995200665781,2026-01-17 11h26.44.896541 +0530,
,Scenes\141a.jpg,4,0,5,,,,,,,j,1.180843400012236,0.19291929999599233,None,,,,,,5,0,4,767.6891427999944,,,,,,,,,,,,,,,,,,,,,,,,,,,,,,767.6727576999983,767.6891427999944,768.1895449000003,768.1725096000009,,,,,,,,,,,,,,,,,,,,,,,,,,768.185075299989,768.1895449000003,768.1895449000003,768.1895449000003,771.1727465000004,j,1.180843400012236,0.19291929999599233,771.1727891999763,771.172800499975,None,771.1890180999762,771.1890180999762,771.1890180999762,,,,,,,,,,,,,,00040,001,2026-01-17_11h26.33.901,MST_task,2024.2.0,59.99995200665781,2026-01-17 11h26.44.896541 +0530,
,Scenes\019a.jpg,5,0,6,,,,,,,j,2.4415425999904983,0.16000920001533814,None,,,,,,6,0,5,771.1890180999762,,,,,,,,,,,,,,,,,,,,,,,,,,,,,,771.1728965999791,771.1890180999762,771.6897608999861,771.6725983999786,,,,,,,,,,,,,,,,,,,,,,,,,,771.6871434999921,771.6897608999861,771.6897608999861,771.6897608999861,774.6730027000012,j,2.4415425999904983,0.16000920001533814,774.6730486000015,774.6730605999765,None,774.689017799974,774.689017799974,774.689017799974,,,,,,,,,,,,,,00040,001,2026-01-17_11h26.33.901,MST_task,2024.2.0,59.99995200665781,2026-01-17 11h26.44.896541 +0530,
,Scenes\186a.jpg,6,0,7,,,,,,,j,2.028765099996235,0.1688756000075955,None,,,,,,7,0,6,774.689017799974,,,,,,,,,,,,,,,,,,,,,,,,,,,,,,774.6731291999749,774.689017799974,775.1897643999837,775.1725199999928,,,,,,,,,,,,,,,,,,,,,,,,,,775.1873463999946,775.1897643999837,775.1897643999837,775.1897643999837,778.1728983999928,j,2.028765099996235,0.1688756000075955,778.1729442999931,778.1729553999903,None,778.1889699999883,778.1889699999883,778.1889699999883,,,,,,,,,,,,,,00040,001,2026-01-17_11h26.33.901,MST_task,2024.2.0,59.99995200665781,2026-01-17 11h26.44.896541 +0530,
,Objects\001a.jpg,7,0,8,,,,,,,f,1.4290030999982264,0.23198549999506213,None,,,,,,8,0,7,778.1889699999883,,,,,,,,,,,,,,,,,,,,,,,,,,,,,,778.1730196999852,778.1889699999883,778.6937163999828,778.6725754999788,,,,,,,,,,,,,,,,,,,,,,,,,,778.6916318000003,778.6937163999828,778.6937163999828,778.6937163999828,781.6892251999816,f,1.4290030999982264,0.23198549999506213,781.6924506999785,781.692470399983,None,,,,,,,,,,,,,,,,,00040,001,2026-01-17_11h26.33.901,MST_task,2024.2.0,59.99995200665781,2026-01-17 11h26.44.896541 +0530,
,Objects\075a.jpg,8,0,9,,,,,,,f,1.7170366999926046,0.153192300000228,None,,,,,,9,0,8,781.7056682999828,,,,,,,,,,,,,,,,,,,,,,,,,,,,,,781.6925428999821,781.7056682999828,782.2058559999859,782.1893485999899,,,,,,,,,,,,,,,,,,,,,,,,,,782.198290499975,782.2058559999859,782.2058559999859,782.2058559999859,785.1898414999887,f,1.7170366999926046,0.153192300000228,785.1898878999928,785.1898987999884,None,785.205693899974,785.205693899974,785.205693899974,,,,,,,,,,,,,,00040,001,2026-01-17_11h26.33.901,MST_task,2024.2.0,59.99995200665781,2026-01-17 11h26.44.896541 +0530,
,Objects\192a.jpg,9,0,10,,,,,,,f,1.1373765000025742,0.19193070000619628,None,,,,,,10,0,9,785.205693899974,,,,,,,,,,,,,,,,,,,,,,,,,,,,,,785.1899991999962,785.205693899974,785.7058776999766,785.6893284999824,,,,,,,,,,,,,,,,,,,,,,,,,,785.6988362999982,785.7058776999766,785.7058776999766,785.7058776999766,788.6895914999768,f,1.1373765000025742,0.19193070000619628,788.6896360999963,788.6896467999904,None,788.7056906999787,788.7056906999787,788.7056906999787,,,,,,,,,,,,,,00040,001,2026-01-17_11h26.33.901,MST_task,2024.2.0,59.99995200665781,2026-01-17 11h26.44.896541 +0530,
,Objects\101a.jpg,10,0,11,,,,,,,f,1.1967158999759704,0.18400050001218915,None,,,,,,11,0,10,788.7056906999787,,,,,,,,,,,,,,,,,,,,,,,,,,,,,,788.689715799992,788.7056906999787,789.2059188999992,789.189346899977,,,,,,,,,,,,,,,,,,,,,,,,,,789.1989697999961,789.2059188999992,789.2059188999992,789.2059188999992,792.1895127999887,f,1.1967158999759704,0.18400050001218915,792.1895558999968,792.1895666999917,None,792.2056863999751,792.2056863999751,792.2056863999751,,,,,,,,,,,,,,00040,001,2026-01-17_11h26.33.901,MST_task,2024.2.0,59.99995200665781,2026-01-17 11h26.44.896541 +0530,
,Objects\045a.jpg,11,0,12,,,,,,,j,0.9766273999994155,0.14459740000893362,None,,,,,,12,0,11,792.2056863999751,,,,,,,,,,,,,,,,,,,,,,,,,,,,,,792.1896305999835,792.2056863999751,792.7059120999766,792.6893861999852,,,,,,,,,,,,,,,,,,,,,,,,,,792.699518999987,792.7059120999766,792.7059120999766,792.7059120999766,795.6897943999793,j,0.9766273999994155,0.14459740000893362,795.6898469000007,795.6898586999741,None,795.7057451999863,795.7057451999863,795.7057451999863,,,,,,,,,,,,,,00040,001,2026-01-17_11h26.33.901,MST_task,2024.2.0,59.99995200665781,2026-01-17 11h26.44.896541 +0530,
,Objects\063a.jpg,12,0,13,,,,,,,f,2.1093496000103187,0.22393079998437315,None,,,,,,13,0,12,795.7057451999863,,,,,,,,,,,,,,,,,,,,,,,,,,,,,,795.6899674999877,795.7057451999863,796.2059035999991,796.1892619999999,,,,,,,,,,,,,,,,,,,,,,,,,,796.1982941000024,796.2059035999991,796.2059035999991,796.2059035999991,799.1895521999977,f,2.1093496000103187,0.22393079998437315,799.1895953999774,799.1896059999999,None,799.2057269999932,799.2057269999932,799.2057269999932,,,,,,,,,,,,,,00040,001,2026-01-17_11h26.33.901,MST_task,2024.2.0,59.99995200665781,2026-01-17 11h26.44.896541 +0530,
,Objects\076a.jpg,13,0,14,,,,,,,f,1.937169000011636,0.1839967000123579,None,,,,,,14,0,13,799.2057269999932,,,,,,,,,,,,,,,,,,,,,,,,,,,,,,799.1897114999883,799.2057269999932,799.7058763999958,799.6892036999925,,,,,,,,,,,,,,,,,,,,,,,,,,799.6981322999927,799.7058763999958,799.7058763999958,799.7058763999958,802.6895490999741,f,1.937169000011636,0.1839967000123579,802.6895917999791,802.6896028999763,None,802.705710899987,802.705710899987,802.705710899987,,,,,,,,,,,,,,00040,001,2026-01-17_11h26.33.901,MST_task,2024.2.0,59.99995200665781,2026-01-17 11h26.44.896541 +0530,
,Scenes\033a.jpg,14,0,15,,,,,,,j,1.628890300024068,0.24059259999194182,None,,,,,,15,0,14,802.705710899987,,,,,,,,,,,,,,,,,,,,,,,,,,,,,,802.6897030999826,802.705710899987,803.2061666999944,803.1893547999789,,,,,,,,,,,,,,,,,,,,,,,,,,803.2014758999867,803.2061666999944,803.2061666999944,803.2061666999944,806.1896877999825,j,1.628890300024068,0.24059259999194182,806.1912982999929,806.191318600002,None,806.2057047999988,806.2057047999988,806.2057047999988,,,,,,,,,,,,,,00040,001,2026-01-17_11h26.33.901,MST_task,2024.2.0,59.99995200665781,2026-01-17 11h26.44.896541 +0530,
,Scenes\169a.jpg,15,0,16,,,,,,,j,0.5852715999935754,0.18384270000387914,None,,,,,,16,0,15,806.2057047999988,,,,,,,,,,,,,,,,,,,,,,,,,,,,,,806.1913925999834,806.2057047999988,806.7060866999964,806.689280999999,,,,,,,,,,,,,,,,,,,,,,,,,,806.7030756999739,806.7060866999964,806.7060866999964,806.7060866999964,809.6897044999932,j,0.5852715999935754,0.18384270000387914,809.6897485999798,809.6897597999778,None,809.7057527999859,809.7057527999859,809.7057527999859,,,,,,,,,,,,,,00040,001,2026-01-17_11h26.33.901,MST_task,2024.2.0,59.99995200665781,2026-01-17 11h26.44.896541 +0530,
,Scenes\038a.jpg,16,0,17,,,,,,,j,1.2335996000037994,0.17599970000446774,None,,,,,,17,0,16,809.7057527999859,,,,,,,,,,,,,,,,,,,,,,,,,,,,,,809.6898245999764,809.7057527999859,810.2088929999736,810.189423999982,,,,,,,,,,,,,,,,,,,,,,,,,,810.2063453999872,810.2088929999736,810.2088929999736,810.2088929999736,813.2060681000003,j,1.2335996000037994,0.17599970000446774,813.2061117999838,813.2061234999856,None,,,,,,,,,,,,,,,,,00040,001,2026-01-17_11h26.33.901,MST_task,2024.2.0,59.99995200665781,2026-01-17 11h26.44.896541 +0530,
,Scenes\104a.jpg,17,0,18,,,,,,,None,,,j,0.8077423000067938,None,,,,18,0,17,813.2225017999881,,,,,,,,,,,,,,,,,,,,,,,,,,,,,,813.2062274999917,813.2225017999881,813.7260777999763,813.7060583999846,,,,,,,,,,,,,,,,,,,,,,,,,,813.7234709999757,813.7260777999763,813.7260777999763,813.7260777999763,816.7226943999995,None,,,816.7227362999984,817.5563238999748,j,,,,816.7391880999785,816.7391880999785,0.8077423000067938,None,,,,,,,,,,00040,001,2026-01-17_11h26.33.901,MST_task,2024.2.0,59.99995200665781,2026-01-17 11h26.44.896541 +0530,
,Scenes\154a.jpg,18,0,19,,,,,,,j,1.6818333999835886,0.1679160000057891,None,,,,,,19,0,18,817.5724572999752,,,,,,,,,,,,,,,,,,,,,,,,,,,,,,817.5564133999869,817.5724572999752,818.0732948999794,818.0559634999954,,,,,,,,,,,,,,,,,,,,,,,,,,818.0697276999999,818.0732948999794,818.0732948999794,818.0732948999794,821.0564642999962,j,1.6818333999835886,0.1679160000057891,821.0565113999764,821.0565312999825,None,821.072387799999,821.072387799999,821.072387799999,,,,,,,,,,,,,,00040,001,2026-01-17_11h26.33.901,MST_task,2024.2.0,59.99995200665781,2026-01-17 11h26.44.896541 +0530,
,Scenes\055a.jpg,19,0,20,,,,,,,j,1.7900887999858242,0.19110170000931248,None,,,,,,20,0,19,821.072387799999,,,,,,,,,,,,,,,,,,,,,,,,,,,,,,821.0566360999946,821.072387799999,821.5733825999778,821.5561573999876,,,,,,,,,,,,,,,,,,,,,,,,,,821.5710128999781,821.5733825999778,821.5733825999778,821.5733825999778,824.5563590999809,j,1.7900887999858242,0.19110170000931248,824.5564027999935,824.5564139999915,None,824.5723873999959,824.5723873999959,824.5723873999959,,,,,,,,,,,,,,00040,001,2026-01-17_11h26.33.901,MST_task,2024.2.0,59.99995200665781,2026-01-17 11h26.44.896541 +0530,
,Scenes\102a.jpg,20,0,21,,,,,,,f,1.6868590000085533,0.21570500000962056,None,,,,,,21,0,20,824.5723873999959,,,,,,,,,,,,,,,,,,,,,,,,,,,,,,824.5564806999755,824.5723873999959,825.076050499978,825.0560359999945,,,,,,,,,,,,,,,,,,,,,,,,,,825.0736330999935,825.076050499978,825.076050499978,825.076050499978,828.072720999975,f,1.6868590000085533,0.21570500000962056,828.0727633999777,828.0727744999749,None,,,,,,,,,,,,,,,,,00040,001,2026-01-17_11h26.33.901,MST_task,2024.2.0,59.99995200665781,2026-01-17 11h26.44.896541 +0530,
,Objects\188a.jpg,21,0,22,,,,,,,f,1.6697817999811377,0.19121600000653416,None,,,,,,22,0,21,828.089124399994,,,,,,,,,,,,,,,,,,,,,,,,,,,,,,828.0732155999867,828.089124399994,828.5897296999756,828.572616599995,,,,,,,,,,,,,,,,,,,,,,,,,,828.5856117999938,828.5897296999756,828.5897296999756,828.5897296999756,831.5731895999925,f,1.6697817999811377,0.19121600000653416,831.5753519999853,831.575371199986,None,831.589021199994,831.589021199994,831.589021199994,,,,,,,,,,,,,,00040,001,2026-01-17_11h26.33.901,MST_task,2024.2.0,59.99995200665781,2026-01-17 11h26.44.896541 +0530,
,Objects\016a.jpg,22,0,23,,,,,,,f,1.9778882999962661,0.19191750002210028,None,,,,,,23,0,22,831.589021199994,,,,,,,,,,,,,,,,,,,,,,,,,,,,,,831.575490999996,831.589021199994,832.0894061999861,832.0726519999735,,,,,,,,,,,,,,,,,,,,,,,,,,832.0820614999975,832.0894061999861,832.0894061999861,832.0894061999861,835.0731911999756,f,1.9778882999962661,0.19191750002210028,835.0732406000025,835.0732521999744,None,835.0890308999806,835.0890308999806,835.0890308999806,,,,,,,,,,,,,,00040,001,2026-01-17_11h26.33.901,MST_task,2024.2.0,59.99995200665781,2026-01-17 11h26.44.896541 +0530,
,Objects\116a.jpg,23,0,24,,,,,,,f,1.4299905000079889,0.2150917999970261,None,,,,,,24,0,23,835.0890308999806,,,,,,,,,,,,,,,,,,,,,,,,,,,,,,835.0733599999803,835.0890308999806,835.5893202000007,835.5728188999929,,,,,,,,,,,,,,,,,,,,,,,,,,835.5835149999766,835.5893202000007,835.5893202000007,835.5893202000007,838.5728790999856,f,1.4299905000079889,0.2150917999970261,838.5729200999776,838.5729309000017,None,838.5891026999743,838.5891026999743,838.5891026999743,,,,,,,,,,,,,,00040,001,2026-01-17_11h26.33.901,MST_task,2024.2.0,59.99995200665781,2026-01-17 11h26.44.896541 +0530,
,Objects\094a.jpg,24,0,25,,,,,,,f,0.5850867999834009,0.2406232000212185,None,,,,,,25,0,24,838.5891026999743,,,,,,,,,,,,,,,,,,,,,,,,,,,,,,838.5730371999962,838.5891026999743,839.0894289999851,839.0727023999789,,,,,,,,,,,,,,,,,,,,,,,,,,839.0819714999816,839.0894289999851,839.0894289999851,839.0894289999851,842.0729514999839,f,0.5850867999834009,0.2406232000212185,842.0730016999878,842.0730132999888,None,842.0890285999922,842.0890285999922,842.0890285999922,,,,,,,,,,,,,,00040,001,2026-01-17_11h26.33.901,MST_task,2024.2.0,59.99995200665781,2026-01-17 11h26.44.896541 +0530,
,Objects\003a.jpg,25,0,26,,,,,,,j,1.2128920999821275,0.19246710001607426,None,,,,,,26,0,25,842.0890285999922,,,,,,,,,,,,,,,,,,,,,,,,,,,,,,842.0731339999766,842.0890285999922,842.5894807000004,842.5727244000009,,,,,,,,,,,,,,,,,,,,,,,,,,842.583604799991,842.5894807000004,842.5894807000004,842.5894807000004,845.5728815999755,j,1.2128920999821275,0.19246710001607426,845.5729237999767,845.5729343999992,None,845.5891667999967,845.5891667999967,845.5891667999967,,,,,,,,,,,,,,00040,001,2026-01-17_11h26.33.901,MST_task,2024.2.0,59.99995200665781,2026-01-17 11h26.44.896541 +0530,
,Objects\014a.jpg,26,0,27,,,,,,,f,1.785943299997598,0.1994958000141196,None,,,,,,27,0,26,845.5891667999967,,,,,,,,,,,,,,,,,,,,,,,,,,,,,,845.5730000999756,845.5891667999967,846.0893878999923,846.072634399985,,,,,,,,,,,,,,,,,,,,,,,,,,846.0817032999767,846.0893878999923,846.0893878999923,846.0893878999923,849.0729082999751,f,1.785943299997598,0.1994958000141196,849.072955599986,849.072966799984,None,849.089053499978,849.089053499978,849.089053499978,,,,,,,,,,,,,,00040,001,2026-01-17_11h26.33.901,MST_task,2024.2.0,59.99995200665781,2026-01-17 11h26.44.896541 +0530,
,Objects\082a.jpg,27,0,28,,,,,,,j,1.8856315000157338,0.19944749999558553,None,,,,,,28,0,27,849.089053499978,,,,,,,,,,,,,,,,,,,,,,,,,,,,,,849.0730824999919,849.089053499978,849.5894210999832,849.5727134999761,,,,,,,,,,,,,,,,,,,,,,,,,,849.5839580999746,849.5894210999832,849.5894210999832,849.5894210999832,852.5731784999953,j,1.8856315000157338,0.19944749999558553,852.573222099978,852.573232900002,None,852.589202299976,852.589202299976,852.589202299976,,,,,,,,,,,,,,00040,001,2026-01-17_11h26.33.901,MST_task,2024.2.0,59.99995200665781,2026-01-17 11h26.44.896541 +0530,
,Scenes\093a.jpg,28,0,29,,,,,,,f,1.5984103000082541,0.2160542999918107,None,,,,,,29,0,28,852.589202299976,,,,,,,,,,,,,,,,,,,,,,,,,,,,,,852.5733278999978,852.589202299976,853.0925970999815,853.0726173000003,,,,,,,,,,,,,,,,,,,,,,,,,,853.0902825999947,853.0925970999815,853.0925970999815,853.0925970999815,856.0894877999963,f,1.5984103000082541,0.2160542999918107,856.0913120999758,856.0913324999856,None,,,,,,,,,,,,,,,,,00040,001,2026-01-17_11h26.33.901,MST_task,2024.2.0,59.99995200665781,2026-01-17 11h26.44.896541 +0530,
,Scenes\101a.jpg,29,0,30,,,,,,,j,1.724338500003796,0.20808909999323077,None,,,,,,30,0,29,856.1058336999849,,,,,,,,,,,,,,,,,,,,,,,,,,,,,,856.0914518999925,856.1058336999849,856.6066957000003,856.5893685999908,,,,,,,,,,,,,,,,,,,,,,,,,,856.6038186999795,856.6066957000003,856.6066957000003,856.6066957000003,859.5896286999923,j,1.724338500003796,0.20808909999323077,859.5896723999758,859.5896830999991,None,859.6058132999751,859.6058132999751,859.6058132999751,,,,,,,,,,,,,,00040,001,2026-01-17_11h26.33.901,MST_task,2024.2.0,59.99995200665781,2026-01-17 11h26.44.896541 +0530,
,Scenes\037a.jpg,30,0,31,,,,,,,j,1.5129553000151645,0.2311790999956429,None,,,,,,31,0,30,859.6058132999751,,,,,,,,,,,,,,,,,,,,,,,,,,,,,,859.5897537999845,859.6058132999751,860.1063383999863,860.0893886999984,,,,,,,,,,,,,,,,,,,,,,,,,,860.1007613999827,860.1063383999863,860.1063383999863,860.1063383999863,863.0901216999919,j,1.5129553000151645,0.2311790999956429,863.0901804999739,863.0901925999788,None,863.1060109999962,863.1060109999962,863.1060109999962,,,,,,,,,,,,,,00040,001,2026-01-17_11h26.33.901,MST_task,2024.2.0,59.99995200665781,2026-01-17 11h26.44.896541 +0530,
,Scenes\027a.jpg,31,0,32,,,,,,,j,2.8440653000143357,None,None,,,,,,32,0,31,863.1060109999962,,,,,,,,,,,,,,,,,,,,,,,,,,,,,,863.0902878999768,863.1060109999962,863.6064233999932,863.5894127999782,,,,,,,,,,,,,,,,,,,,,,,,,,863.6032488999772,863.6064233999932,863.6064233999932,863.6064233999932,866.5897536999837,j,2.8440653000143357,None,866.5897967999917,866.5898076999874,None,866.6059103999869,866.6059103999869,866.6059103999869,,,,,,,,,,,,,,00040,001,2026-01-17_11h26.33.901,MST_task,2024.2.0,59.99995200665781,2026-01-17 11h26.44.896541 +0530,
,Scenes\187a.jpg,32,0,33,,,,,,,j,1.0077356999972835,0.21629459998803213,None,,,,,,33,0,32,866.6059103999869,,,,,,,,,,,,,,,,,,,,,,,,,,,,,,866.5898718999815,866.6059103999869,867.1076963999949,867.0893877999915,,,,,,,,,,,,,,,,,,,,,,,,,,867.1053192999971,867.1076963999949,867.1076963999949,867.1076963999949,870.1060412999941,j,1.0077356999972835,0.21629459998803213,870.1060899999866,870.1061025999952,None,,,,,,,,,,,,,,,,,00040,001,2026-01-17_11h26.33.901,MST_task,2024.2.0,59.99995200665781,2026-01-17 11h26.44.896541 +0530,
,Scenes\094a.jpg,33,0,34,,,,,,,f,1.4548110000032466,0.22534839998115785,None,,,,,,34,0,33,870.1222120999882,,,,,,,,,,,,,,,,,,,,,,,,,,,,,,870.1061753999966,870.1222120999882,870.6277090999938,870.6060011999798,,,,,,,,,,,,,,,,,,,,,,,,,,870.6251878999756,870.6277090999938,870.6277090999938,870.6277090999938,873.6225846000016,f,1.4548110000032466,0.22534839998115785,873.6226267999737,873.6226389999792,None,,,,,,,,,,,,,,,,,00040,001,2026-01-17_11h26.33.901,MST_task,2024.2.0,59.99995200665781,2026-01-17 11h26.44.896541 +0530,
,Scenes\174a.jpg,34,0,35,,,,,,,j,1.9581839999882504,0.17601819999981672,None,,,,,,35,0,34,873.6390434999776,,,,,,,,,,,,,,,,,,,,,,,,,,,,,,873.6227077999793,873.6390434999776,874.1408761999919,874.1226211999892,,,,,,,,,,,,,,,,,,,,,,,,,,874.138790099998,874.1408761999919,874.1408761999919,874.1408761999919,877.1393755999743,j,1.9581839999882504,0.17601819999981672,877.1394223999814,877.139434199984,None,,,,,,,,,,,,,,,,,00040,001,2026-01-17_11h26.33.901,MST_task,2024.2.0,59.99995200665781,2026-01-17 11h26.44.896541 +0530,
,Objects\030a.jpg,35,0,36,,,,,,,f,1.38640149999992,0.28015499998582527,None,,,,,,36,0,35,877.1556997000007,,,,,,,,,,,,,,,,,,,,,,,,,,,,,,877.1395046999969,877.1556997000007,877.656153399992,877.6392965999839,,,,,,,,,,,,,,,,,,,,,,,,,,877.6510560000024,877.656153399992,877.656153399992,877.656153399992,880.6395831999835,f,1.38640149999992,0.28015499998582527,880.6416349999781,880.6416530999995,None,880.6556496999983,880.6556496999983,880.6556496999983,,,,,,,,,,,,,,00040,001,2026-01-17_11h26.33.901,MST_task,2024.2.0,59.99995200665781,2026-01-17 11h26.44.896541 +0530,
,Objects\008a.jpg,36,0,37,,,,,,,f,1.7753053000196815,0.32107979999273084,None,,,,,,37,0,36,880.6556496999983,,,,,,,,,,,,,,,,,,,,,,,,,,,,,,880.6417559999973,880.6556496999983,881.155906,881.1394947999797,,,,,,,,,,,,,,,,,,,,,,,,,,881.1490374999994,881.155906,881.155906,881.155906,884.1397680999944,f,1.7753053000196815,0.32107979999273084,884.1398138999939,884.1398247999896,None,884.1557071999996,884.1557071999996,884.1557071999996,,,,,,,,,,,,,,00040,001,2026-01-17_11h26.33.901,MST_task,2024.2.0,59.99995200665781,2026-01-17 11h26.44.896541 +0530,
,Objects\078a.jpg,37,0,38,,,,,,,j,1.2586519999895245,0.22389779999502935,None,,,,,,38,0,37,884.1557071999996,,,,,,,,,,,,,,,,,,,,,,,,,,,,,,884.1399256000004,884.1557071999996,884.6559587999946,884.6393281999917,,,,,,,,,,,,,,,,,,,,,,,,,,884.6481552999758,884.6559587999946,884.6559587999946,884.6559587999946,887.6398811999825,j,1.2586519999895245,0.22389779999502935,887.6399311999849,887.6399425999844,None,887.6557615999773,887.6557615999773,887.6557615999773,,,,,,,,,,,,,,00040,001,2026-01-17_11h26.33.901,MST_task,2024.2.0,59.99995200665781,2026-01-17 11h26.44.896541 +0530,
,Objects\107a.jpg,38,0,39,,,,,,,j,2.5674396000104025,0.19107649999205023,None,,,,,,39,0,38,887.6557615999773,,,,,,,,,,,,,,,,,,,,,,,,,,,,,,887.6400122999912,887.6557615999773,888.1559944999753,888.1393307999824,,,,,,,,,,,,,,,,,,,,,,,,,,888.1487485999824,888.1559944999753,888.1559944999753,888.1559944999753,891.1396788999846,j,2.5674396000104025,0.19107649999205023,891.1397249999864,891.1397367999889,None,891.155730599974,891.155730599974,891.155730599974,,,,,,,,,,,,,,00040,001,2026-01-17_11h26.33.901,MST_task,2024.2.0,59.99995200665781,2026-01-17 11h26.44.896541 +0530,
,Objects\175a.jpg,39,0,40,,,,,,,f,1.7306689999822993,0.20186080000712536,None,,,,,,40,0,39,891.155730599974,,,,,,,,,,,,,,,,,,,,,,,,,,,,,,891.1398455000017,891.155730599974,891.6558909000014,891.6393183999753,,,,,,,,,,,,,,,,,,,,,,,,,,891.6485346999834,891.6558909000014,891.6558909000014,891.6558909000014,894.6397912999964,f,1.7306689999822993,0.20186080000712536,894.6398375999997,894.6398488999985,None,894.6556470999785,894.6556470999785,894.6556470999785,,,,,,,,,,,,,,00040,001,2026-01-17_11h26.33.901,MST_task,2024.2.0,59.99995200665781,2026-01-17 11h26.44.896541 +0530,
,Objects\002a.jpg,40,0,41,,,,,,,f,0.9352403999946546,0.23330449999775738,None,,,,,,41,0,40,894.6556470999785,,,,,,,,,,,,,,,,,,,,,,,,,,,,,,894.6399165999901,894.6556470999785,895.1559085999907,895.1394388999906,,,,,,,,,,,,,,,,,,,,,,,,,,895.1498687999847,895.1559085999907,895.1559085999907,895.1559085999907,898.1396393999748,f,0.9352403999946546,0.23330449999775738,898.1396830999875,898.1396935999801,None,898.1557218999951,898.1557218999951,898.1557218999951,,,,,,,,,,,,,,00040,001,2026-01-17_11h26.33.901,MST_task,2024.2.0,59.99995200665781,2026-01-17 11h26.44.896541 +0530,
,Objects\114a.jpg,41,0,42,,,,,,,f,1.0506049999967217,0.2402697000070475,None,,,,,,42,0,41,898.1557218999951,,,,,,,,,,,,,,,,,,,,,,,,,,,,,,898.139793099981,898.1557218999951,898.6560850999958,898.6392458999762,,,,,,,,,,,,,,,,,,,,,,,,,,898.6480372999795,898.6560850999958,898.6560850999958,898.6560850999958,901.6395590999746,f,1.0506049999967217,0.2402697000070475,901.6396018999803,901.6396125999745,None,901.6557398999867,901.6557398999867,901.6557398999867,,,,,,,,,,,,,,00040,001,2026-01-17_11h26.33.901,MST_task,2024.2.0,59.99995200665781,2026-01-17 11h26.44.896541 +0530,
,Scenes\076a.jpg,42,0,43,,,,,,,j,1.5210613000090234,0.19918749999487773,None,,,,,,43,0,42,901.6557398999867,,,,,,,,,,,,,,,,,,,,,,,,,,,,,,901.6396793999884,901.6557398999867,902.1627201999945,902.139245599974,,,,,,,,,,,,,,,,,,,,,,,,,,902.1604083999991,902.1627201999945,902.1627201999945,902.1627201999945,905.1559338999796,j,1.5210613000090234,0.19918749999487773,905.1576834000007,905.1577040999837,None,,,,,,,,,,,,,,,,,00040,001,2026-01-17_11h26.33.901,MST_task,2024.2.0,59.99995200665781,2026-01-17 11h26.44.896541 +0530,
,Scenes\165a.jpg,43,0,44,,,,,,,j,1.4713533999747597,0.2234496000164654,None,,,,,,44,0,43,905.1723067999992,,,,,,,,,,,,,,,,,,,,,,,,,,,,,,905.1578146999818,905.1723067999992,905.6758498999989,905.6560029999819,,,,,,,,,,,,,,,,,,,,,,,,,,905.6732919999922,905.6758498999989,905.6758498999989,905.6758498999989,908.6725840999861,j,1.4713533999747597,0.2234496000164654,908.6726254999812,908.672637599986,None,,,,,,,,,,,,,,,,,00040,001,2026-01-17_11h26.33.901,MST_task,2024.2.0,59.99995200665781,2026-01-17 11h26.44.896541 +0530,
,Scenes\002a.jpg,44,0,45,,,,,,,j,0.8884967999765649,0.37547740002628416,None,,,,,,45,0,44,908.6890501999878,,,,,,,,,,,,,,,,,,,,,,,,,,,,,,908.6727053999784,908.6890501999878,909.1948944999895,909.172729199985,,,,,,,,,,,,,,,,,,,,,,,,,,909.1924642999948,909.1948944999895,909.1948944999895,909.1948944999895,912.1893314999761,j,0.8884967999765649,0.37547740002628416,912.1893769000017,912.1893889999774,None,,,,,,,,,,,,,,,,,00040,001,2026-01-17_11h26.33.901,MST_task,2024.2.0,59.99995200665781,2026-01-17 11h26.44.896541 +0530,
,Scenes\121a.jpg,45,0,46,,,,,,,j,1.358560499997111,0.1686323000176344,None,,,,,,46,0,45,912.2057472000015,,,,,,,,,,,,,,,,,,,,,,,,,,,,,,912.1894897999882,912.2057472000015,912.7080951999815,912.6893235999742,,,,,,,,,,,,,,,,,,,,,,,,,,912.7056747000024,912.7080951999815,912.7080951999815,912.7080951999815,915.7059677999932,j,1.358560499997111,0.1686323000176344,915.7060109000013,915.7060230999778,None,,,,,,,,,,,,,,,,,00040,001,2026-01-17_11h26.33.901,MST_task,2024.2.0,59.99995200665781,2026-01-17 11h26.44.896541 +0530,
,Scenes\125a.jpg,46,0,47,,,,,,,j,1.0668547000095714,0.2249840000004042,None,,,,,,47,0,46,915.7222337999847,,,,,,,,,,,,,,,,,,,,,,,,,,,,,,915.706119599985,915.7222337999847,916.224044499977,916.2058946999896,,,,,,,,,,,,,,,,,,,,,,,,,,916.221982099989,916.224044499977,916.224044499977,916.224044499977,919.2225971999869,j,1.0668547000095714,0.2249840000004042,919.2226444999978,919.2226564000011,None,,,,,,,,,,,,,,,,,00040,001,2026-01-17_11h26.33.901,MST_task,2024.2.0,59.99995200665781,2026-01-17 11h26.44.896541 +0530,
,Scenes\163a.jpg,47,0,48,,,,,,,j,2.0635040000197478,0.2082650999946054,None,,,,,,48,0,47,919.2390148999984,,,,,,,,,,,,,,,,,,,,,,,,,,,,,,919.2227553999983,919.2390148999984,919.7396460999735,919.7224934999831,,,,,,,,,,,,,,,,,,,,,,,,,,919.7345453999878,919.7396460999735,919.7396460999735,919.7396460999735,922.7228044999938,j,2.0635040000197478,0.2082650999946054,922.7228474000003,922.7228580999945,None,922.7390641999955,922.7390641999955,922.7390641999955,,,,,,,,,,,,,,00040,001,2026-01-17_11h26.33.901,MST_task,2024.2.0,59.99995200665781,2026-01-17 11h26.44.896541 +0530,
,Scenes\066a.jpg,48,0,49,,,,,,,j,0.9077040000120178,0.20893679998698644,None,,,,,,49,0,48,922.7390641999955,,,,,,,,,,,,,,,,,,,,,,,,,,,,,,922.7229541999986,922.7390641999955,923.2396071999974,923.2225897999888,,,,,,,,,,,,,,,,,,,,,,,,,,923.233388099994,923.2396071999974,923.2396071999974,923.2396071999974,926.2228804999904,j,0.9077040000120178,0.20893679998698644,926.2229214999825,926.2229318999744,None,926.2389992999961,926.2389992999961,926.2389992999961,,,,,,,,,,,,,,00040,001,2026-01-17_11h26.33.901,MST_task,2024.2.0,59.99995200665781,2026-01-17 11h26.44.896541 +0530,
,Objects\019a.jpg,49,0,50,,,,,,,j,2.743057499988936,0.2159395000198856,None,,,,,,50,0,49,926.2389992999961,,,,,,,,,,,,,,,,,,,,,,,,,,,,,,926.2230286999838,926.2389992999961,926.7394823999784,926.7225640999968,,,,,,,,,,,,,,,,,,,,,,,,,,926.7350949999818,926.7394823999784,926.7394823999784,926.7394823999784,929.7229112999921,j,2.743057499988936,0.2159395000198856,929.7249311999767,929.7249496000004,None,929.7391839999764,929.7391839999764,929.7391839999764,,,,,,,,,,,,,,00040,001,2026-01-17_11h26.33.901,MST_task,2024.2.0,59.99995200665781,2026-01-17 11h26.44.896541 +0530,
,Objects\006a.jpg,50,0,51,,,,,,,f,1.1951439999975264,0.2251119999855291,None,,,,,,51,0,50,929.7391839999764,,,,,,,,,,,,,,,,,,,,,,,,,,,,,,929.725020599988,929.7391839999764,930.2394454999885,930.2226712999982,,,,,,,,,,,,,,,,,,,,,,,,,,930.2317668999895,930.2394454999885,930.2394454999885,930.2394454999885,933.2234519999765,f,1.1951439999975264,0.2251119999855291,933.2234957999899,933.2235068999871,None,933.2391709999938,933.2391709999938,933.2391709999938,,,,,,,,,,,,,,00040,001,2026-01-17_11h26.33.901,MST_task,2024.2.0,59.99995200665781,2026-01-17 11h26.44.896541 +0530,
,Objects\010a.jpg,51,0,52,,,,,,,f,1.9036991000175476,0.2640364999824669,None,,,,,,52,0,51,933.2391709999938,,,,,,,,,,,,,,,,,,,,,,,,,,,,,,933.2235728999949,933.2391709999938,933.7393444999761,933.7226289999962,,,,,,,,,,,,,,,,,,,,,,,,,,933.7316437999834,933.7393444999761,933.7393444999761,933.7393444999761,936.7229963999998,f,1.9036991000175476,0.2640364999824669,936.7230388999742,936.723049799999,None,936.7391662999871,936.7391662999871,936.7391662999871,,,,,,,,,,,,,,00040,001,2026-01-17_11h26.33.901,MST_task,2024.2.0,59.99995200665781,2026-01-17 11h26.44.896541 +0530,
,Objects\092a.jpg,52,0,53,,,,,,,f,0.9873310000111815,0.24061079998500645,None,,,,,,53,0,52,936.7391662999871,,,,,,,,,,,,,,,,,,,,,,,,,,,,,,936.7231245999865,936.7391662999871,937.2393527999811,937.2226474999916,,,,,,,,,,,,,,,,,,,,,,,,,,937.2323250999907,937.2393527999811,937.2393527999811,937.2393527999811,940.2228681999841,f,0.9873310000111815,0.24061079998500645,940.2229102999845,940.2229208999779,None,940.2391928999859,940.2391928999859,940.2391928999859,,,,,,,,,,,,,,00040,001,2026-01-17_11h26.33.901,MST_task,2024.2.0,59.99995200665781,2026-01-17 11h26.44.896541 +0530,
,Objects\071a.jpg,53,0,54,,,,,,,j,1.8630280999932438,0.2080069000076037,None,,,,,,54,0,53,940.2391928999859,,,,,,,,,,,,,,,,,,,,,,,,,,,,,,940.2230195000011,940.2391928999859,940.7394648999907,940.7226733999851,,,,,,,,,,,,,,,,,,,,,,,,,,940.7316398999828,940.7394648999907,940.7394648999907,940.7394648999907,943.7228715999809,j,1.8630280999932438,0.2080069000076037,943.7229130999767,943.7229239000008,None,943.7391852999863,943.7391852999863,943.7391852999863,,,,,,,,,,,,,,00040,001,2026-01-17_11h26.33.901,MST_task,2024.2.0,59.99995200665781,2026-01-17 11h26.44.896541 +0530,
,Objects\145a.jpg,54,0,55,,,,,,,f,1.6277932999946643,0.2559174000052735,None,,,,,,55,0,54,943.7391852999863,,,,,,,,,,,,,,,,,,,,,,,,,,,,,,943.7230167999805,943.7391852999863,944.23937939998,944.2227217999753,,,,,,,,,,,,,,,,,,,,,,,,,,944.2315561999858,944.23937939998,944.23937939998,944.23937939998,947.2230001999997,f,1.6277932999946643,0.2559174000052735,947.2230428999756,947.223054299975,None,947.2391804999788,947.2391804999788,947.2391804999788,,,,,,,,,,,,,,00040,001,2026-01-17_11h26.33.901,MST_task,2024.2.0,59.99995200665781,2026-01-17 11h26.44.896541 +0530,
,Objects\106a.jpg,55,0,56,,,,,,,f,1.416189299983671,0.2550612000050023,None,,,,,,56,0,55,947.2391804999788,,,,,,,,,,,,,,,,,,,,,,,,,,,,,,947.2231496999739,947.2391804999788,947.7394578999956,947.72263199999,,,,,,,,,,,,,,,,,,,,,,,,,,947.7316749999882,947.7394578999956,947.7394578999956,947.7394578999956,950.7230485999899,f,1.416189299983671,0.2550612000050023,950.723090399988,950.7231014999852,None,950.7392025000008,950.7392025000008,950.7392025000008,,,,,,,,,,,,,,00040,001,2026-01-17_11h26.33.901,MST_task,2024.2.0,59.99995200665781,2026-01-17 11h26.44.896541 +0530,
,Scenes\006a.jpg,56,0,57,,,,,,,f,2.467569500004174,0.24806710000848398,None,,,,,,57,0,56,950.7392025000008,,,,,,,,,,,,,,,,,,,,,,,,,,,,,,950.7231959999772,950.7392025000008,951.2403420999763,951.2227719999792,,,,,,,,,,,,,,,,,,,,,,,,,,951.2377074999968,951.2403420999763,951.2403420999763,951.2403420999763,954.2394389999972,f,2.467569500004174,0.24806710000848398,954.2410482999985,954.2410667999939,None,,,,,,,,,,,,,,,,,00040,001,2026-01-17_11h26.33.901,MST_task,2024.2.0,59.99995200665781,2026-01-17 11h26.44.896541 +0530,
,Scenes\146a.jpg,57,0,58,,,,,,,j,1.4839441999793053,0.22394070000154898,None,,,,,,58,0,57,954.2558753999765,,,,,,,,,,,,,,,,,,,,,,,,,,,,,,954.2411370999762,954.2558753999765,954.7589623999957,954.7394567999872,,,,,,,,,,,,,,,,,,,,,,,,,,954.7565332999802,954.7589623999957,954.7589623999957,954.7589623999957,957.7560991999926,j,1.4839441999793053,0.22394070000154898,957.7561425000022,957.7561538000009,None,,,,,,,,,,,,,,,,,00040,001,2026-01-17_11h26.33.901,MST_task,2024.2.0,59.99995200665781,2026-01-17 11h26.44.896541 +0530,
,Scenes\024a.jpg,58,0,59,,,,,,,j,1.9298132000258192,0.18419129998073913,None,,,,,,59,0,58,957.7723866000015,,,,,,,,,,,,,,,,,,,,,,,,,,,,,,957.7562649999745,957.7723866000015,958.273020099994,958.2561363999848,,,,,,,,,,,,,,,,,,,,,,,,,,958.2696999999753,958.273020099994,958.273020099994,958.273020099994,961.2563922999834,j,1.9298132000258192,0.18419129998073913,961.2564330000023,961.2564436999965,None,961.2723769999866,961.2723769999866,961.2723769999866,,,,,,,,,,,,,,00040,001,2026-01-17_11h26.33.901,MST_task,2024.2.0,59.99995200665781,2026-01-17 11h26.44.896541 +0530,
,Scenes\168a.jpg,59,0,60,,,,,,,j,1.1252720000047702,0.16892959998222068,None,,,,,,60,0,59,961.2723769999866,,,,,,,,,,,,,,,,,,,,,,,,,,,,,,961.2565405999776,961.2723769999866,961.7732084000017,961.7560132999788,,,,,,,,,,,,,,,,,,,,,,,,,,961.7692540999851,961.7732084000017,961.7732084000017,961.7732084000017,964.7564105999772,j,1.1252720000047702,0.16892959998222068,964.7564571999828,964.756467899977,None,964.7724426999921,964.7724426999921,964.7724426999921,,,,,,,,,,,,,,00040,001,2026-01-17_11h26.33.901,MST_task,2024.2.0,59.99995200665781,2026-01-17 11h26.44.896541 +0530,
,Scenes\067a.jpg,60,0,61,,,,,,,f,2.0823563000012655,0.23151320000761189,None,,,,,,61,0,60,964.7724426999921,,,,,,,,,,,,,,,,,,,,,,,,,,,,,,964.756536299974,964.7724426999921,965.2729582999891,965.2560671999818,,,,,,,,,,,,,,,,,,,,,,,,,,965.2706113999884,965.2729582999891,965.2729582999891,965.2729582999891,968.256435599993,f,2.0823563000012655,0.23151320000761189,968.2564821999986,968.2564928999927,None,968.2723315999901,968.2723315999901,968.2723315999901,,,,,,,,,,,,,,00040,001,2026-01-17_11h26.33.901,MST_task,2024.2.0,59.99995200665781,2026-01-17 11h26.44.896541 +0530,
,Scenes\092a.jpg,61,0,62,,,,,,,f,1.1504388999892399,0.21535399998538196,None,,,,,,62,0,61,968.2723315999901,,,,,,,,,,,,,,,,,,,,,,,,,,,,,,968.2566039999947,968.2723315999901,968.7730916999863,968.7560564999876,,,,,,,,,,,,,,,,,,,,,,,,,,968.7707442999817,968.7730916999863,968.7730916999863,968.7730916999863,971.756306700001,f,1.1504388999892399,0.21535399998538196,971.7563488000014,971.7563591999933,None,971.7724958999897,971.7724958999897,971.7724958999897,,,,,,,,,,,,,,00040,001,2026-01-17_11h26.33.901,MST_task,2024.2.0,59.99995200665781,2026-01-17 11h26.44.896541 +0530,
,Scenes\035a.jpg,62,0,63,,,,,,,None,,,f,0.6096026999875903,None,,,,63,0,62,971.7724958999897,,,,,,,,,,,,,,,,,,,,,,,,,,,,,,971.7564257999766,971.7724958999897,972.2760390999902,972.2560170999786,,,,,,,,,,,,,,,,,,,,,,,,,,972.2735480999982,972.2760390999902,972.2760390999902,972.2760390999902,975.2726983999892,None,,,975.2727424999757,975.9062317999778,f,,,,975.2890863999783,975.2890863999783,0.6096026999875903,None,,,,,,,,,,00040,001,2026-01-17_11h26.33.901,MST_task,2024.2.0,59.99995200665781,2026-01-17 11h26.44.896541 +0530,
,Objects\131a.jpg,63,0,64,,,,,,,f,1.643685099988943,0.24891049999860115,None,,,,,,64,0,63,975.9225086999941,,,,,,,,,,,,,,,,,,,,,,,,,,,,,,975.9063197999785,975.9225086999941,976.4227675999864,976.4060669999744,,,,,,,,,,,,,,,,,,,,,,,,,,976.4188460999867,976.4227675999864,976.4227675999864,976.4227675999864,979.4064179999987,f,1.643685099988943,0.24891049999860115,979.4085596999794,979.4085782999755,None,979.4223016999895,979.4223016999895,979.4223016999895,,,,,,,,,,,,,,00040,001,2026-01-17_11h26.33.901,MST_task,2024.2.0,59.99995200665781,2026-01-17 11h26.44.896541 +0530,
,Objects\089a.jpg,64,0,65,,,,,,,j,2.40028179998626,0.23144600001978688,None,,,,,,65,0,64,979.4223016999895,,,,,,,,,,,,,,,,,,,,,,,,,,,,,,979.4086506999738,979.4223016999895,979.9227679999894,979.9061357999744,,,,,,,,,,,,,,,,,,,,,,,,,,979.9153477999789,979.9227679999894,979.9227679999894,979.9227679999894,982.9063663999841,j,2.40028179998626,0.23144600001978688,982.9064083999838,982.9064193999802,None,982.9224935999955,982.9224935999955,982.9224935999955,,,,,,,,,,,,,,00040,001,2026-01-17_11h26.33.901,MST_task,2024.2.0,59.99995200665781,2026-01-17 11h26.44.896541 +0530,
,Objects\032a.jpg,65,0,66,,,,,,,j,0.9401893999893218,0.20828540000366047,None,,,,,,66,0,65,982.9224935999955,,,,,,,,,,,,,,,,,,,,,,,,,,,,,,982.9065274999884,982.9224935999955,983.4226514999755,983.4061262999894,,,,,,,,,,,,,,,,,,,,,,,,,,983.4153399999777,983.4226514999755,983.4226514999755,983.4226514999755,986.4066280999978,j,0.9401893999893218,0.20828540000366047,986.4066766999895,986.4066878999874,None,986.4222782999859,986.4222782999859,986.4222782999859,,,,,,,,,,,,,,00040,001,2026-01-17_11h26.33.901,MST_task,2024.2.0,59.99995200665781,2026-01-17 11h26.44.896541 +0530,
,Objects\093a.jpg,66,0,67,,,,,,,j,2.3763354999828152,0.20796010000049137,None,,,,,,67,0,66,986.4222782999859,,,,,,,,,,,,,,,,,,,,,,,,,,,,,,986.4067991999909,986.4222782999859,986.9227437999798,986.9061316000007,,,,,,,,,,,,,,,,,,,,,,,,,,986.9154608999961,986.9227437999798,986.9227437999798,986.9227437999798,989.9062763999973,j,2.3763354999828152,0.20796010000049137,989.9063172999886,989.9063280999835,None,989.9222496000002,989.9222496000002,989.9222496000002,,,,,,,,,,,,,,00040,001,2026-01-17_11h26.33.901,MST_task,2024.2.0,59.99995200665781,2026-01-17 11h26.44.896541 +0530,
,Objects\047a.jpg,67,0,68,,,,,,,f,0.8043016000010539,0.20829059998504817,None,,,,,,68,0,67,989.9222496000002,,,,,,,,,,,,,,,,,,,,,,,,,,,,,,989.906403299974,989.9222496000002,990.4224884999858,990.4059175000002,,,,,,,,,,,,,,,,,,,,,,,,,,990.4162026999984,990.4224884999858,990.4224884999858,990.4224884999858,993.4064828999981,f,0.8043016000010539,0.20829059998504817,993.4065298999776,993.4065407000016,None,993.4222981999919,993.4222981999919,993.4222981999919,,,,,,,,,,,,,,00040,001,2026-01-17_11h26.33.901,MST_task,2024.2.0,59.99995200665781,2026-01-17 11h26.44.896541 +0530,
,Objects\155a.jpg,68,0,69,,,,,,,f,1.8328789999941364,0.2711864000011701,None,,,,,,69,0,68,993.4222981999919,,,,,,,,,,,,,,,,,,,,,,,,,,,,,,993.40664869998,993.4222981999919,993.9225216999766,993.9060022999765,,,,,,,,,,,,,,,,,,,,,,,,,,993.9147519999824,993.9225216999766,993.9225216999766,993.9225216999766,996.9062115999986,f,1.8328789999941364,0.2711864000011701,996.9062516999838,996.9062621999765,None,996.9223289999936,996.9223289999936,996.9223289999936,,,,,,,,,,,,,,00040,001,2026-01-17_11h26.33.901,MST_task,2024.2.0,59.99995200665781,2026-01-17 11h26.44.896541 +0530,
,Objects\059a.jpg,69,0,70,,,,,,,j,0.8928187999990769,0.18396090000169352,None,,,,,,70,0,69,996.9223289999936,,,,,,,,,,,,,,,,,,,,,,,,,,,,,,996.9063578999776,996.9223289999936,997.4226428999973,997.4059383999847,,,,,,,,,,,,,,,,,,,,,,,,,,997.415314199985,997.4226428999973,997.4226428999973,997.4226428999973,1000.4063861999894,j,0.8928187999990769,0.18396090000169352,1000.4064319999889,1000.4064440999937,None,1000.4222785999882,1000.4222785999882,1000.4222785999882,,,,,,,,,,,,,,00040,001,2026-01-17_11h26.33.901,MST_task,2024.2.0,59.99995200665781,2026-01-17 11h26.44.896541 +0530,
,Scenes\031a.jpg,70,0,71,,,,,,,f,2.5383628999989014,0.2576949000067543,None,,,,,,71,0,70,1000.4222785999882,,,,,,,,,,,,,,,,,,,,,,,,,,,,,,1000.4065525999758,1000.4222785999882,1000.9284415000002,1000.9059920999862,,,,,,,,,,,,,,,,,,,,,,,,,,1000.9260036999767,1000.9284415000002,1000.9284415000002,1000.9284415000002,1003.9226210999768,f,2.5383628999989014,0.2576949000067543,1003.9242504999856,1003.924268599978,None,,,,,,,,,,,,,,,,,00040,001,2026-01-17_11h26.33.901,MST_task,2024.2.0,59.99995200665781,2026-01-17 11h26.44.896541 +0530,
,Scenes\117a.jpg,71,0,72,,,,,,,j,0.9080857999797445,0.21509640000294894,None,,,,,,72,0,71,1003.9390532999823,,,,,,,,,,,,,,,,,,,,,,,,,,,,,,1003.9243696999911,1003.9390532999823,1004.4396359999955,1004.4229971999885,,,,,,,,,,,,,,,,,,,,,,,,,,1004.4354466999939,1004.4396359999955,1004.4396359999955,1004.4396359999955,1007.4231223999814,j,0.9080857999797445,0.21509640000294894,1007.423166499997,1007.4231777999958,None,1007.4390488999779,1007.4390488999779,1007.4390488999779,,,,,,,,,,,,,,00040,001,2026-01-17_11h26.33.901,MST_task,2024.2.0,59.99995200665781,2026-01-17 11h26.44.896541 +0530,
,Scenes\162a.jpg,72,0,73,,,,,,,j,1.3277789000130724,0.16799610000452958,None,,,,,,73,0,72,1007.4390488999779,,,,,,,,,,,,,,,,,,,,,,,,,,,,,,1007.4232781999744,1007.4390488999779,1007.9396816999943,1007.9226267999911,,,,,,,,,,,,,,,,,,,,,,,,,,1007.9346134999942,1007.9396816999943,1007.9396816999943,1007.9396816999943,1010.9227314000018,j,1.3277789000130724,0.16799610000452958,1010.9227725999954,1010.922783499991,None,1010.9390991999826,1010.9390991999826,1010.9390991999826,,,,,,,,,,,,,,00040,001,2026-01-17_11h26.33.901,MST_task,2024.2.0,59.99995200665781,2026-01-17 11h26.44.896541 +0530,
,Scenes\051a.jpg,73,0,74,,,,,,,j,1.4436541000031866,0.21599980001337826,None,,,,,,74,0,73,1010.9390991999826,,,,,,,,,,,,,,,,,,,,,,,,,,,,,,1010.922880099999,1010.9390991999826,1011.4396036999824,1011.4224890999903,,,,,,,,,,,,,,,,,,,,,,,,,,1011.4342252999777,1011.4396036999824,1011.4396036999824,1011.4396036999824,1014.4230411999743,j,1.4436541000031866,0.21599980001337826,1014.4230836999777,1014.4230941999995,None,1014.4390619999904,1014.4390619999904,1014.4390619999904,,,,,,,,,,,,,,00040,001,2026-01-17_11h26.33.901,MST_task,2024.2.0,59.99995200665781,2026-01-17 11h26.44.896541 +0530,
,Scenes\100a.jpg,74,0,75,,,,,,,f,1.126731700001983,0.24760689999675378,None,,,,,,75,0,74,1014.4390619999904,,,,,,,,,,,,,,,,,,,,,,,,,,,,,,1014.4231975000002,1014.4390619999904,1014.940223499987,1014.9226491999871,,,,,,,,,,,,,,,,,,,,,,,,,,1014.9378618999908,1014.940223499987,1014.940223499987,1014.940223499987,1017.9393069999933,f,1.126731700001983,0.24760689999675378,1017.9393533999973,1017.9393657999753,None,,,,,,,,,,,,,,,,,00040,001,2026-01-17_11h26.33.901,MST_task,2024.2.0,59.99995200665781,2026-01-17 11h26.44.896541 +0530,
,Scenes\052a.jpg,75,0,76,,,,,,,j,2.0654525000136346,0.22304569999687374,None,,,,,,76,0,75,1017.9557480999792,,,,,,,,,,,,,,,,,,,,,,,,,,,,,,1017.939466699987,1017.9557480999792,1018.4587795999832,1018.4393601999909,,,,,,,,,,,,,,,,,,,,,,,,,,1018.4563229999912,1018.4587795999832,1018.4587795999832,1018.4587795999832,1021.4559902999899,j,2.0654525000136346,0.22304569999687374,1021.4560367999948,1021.4560486999981,None,,,,,,,,,,,,,,,,,00040,001,2026-01-17_11h26.33.901,MST_task,2024.2.0,59.99995200665781,2026-01-17 11h26.44.896541 +0530,
,Scenes\046a.jpg,76,0,77,,,,,,,j,2.521534100000281,0.20853190001798794,None,,,,,,77,0,76,1021.4722943999805,,,,,,,,,,,,,,,,,,,,,,,,,,,,,,1021.4561218000017,1021.4722943999805,1021.9776950999803,1021.9559890999808,,,,,,,,,,,,,,,,,,,,,,,,,,1021.9752564999799,1021.9776950999803,1021.9776950999803,1021.9776950999803,1024.9561105999746,j,2.521534100000281,0.20853190001798794,1024.9561525999743,1024.9561646999791,None,,,,,,,,,,,,,,,,,00040,001,2026-01-17_11h26.33.901,MST_task,2024.2.0,59.99995200665781,2026-01-17 11h26.44.896541 +0530,
,Objects\046a.jpg,77,0,78,,,,,,,None,,,f,1.6831225999922026,None,,,,78,0,77,1024.9723559999838,,,,,,,,,,,,,,,,,,,,,,,,,,,,,,1024.95626419998,1024.9723559999838,1025.4728187999863,1025.4560155999789,,,,,,,,,,,,,,,,,,,,,,,,,,1025.4679025999794,1025.4728187999863,1025.4728187999863,1025.4728187999863,1028.4565063999908,None,,,1028.4586465999892,1030.1561478999793,f,1028.472277599998,1028.472277599998,1028.472277599998,1028.472277599998,1028.472277599998,1.6831225999922026,None,,,,,,,,,,00040,001,2026-01-17_11h26.33.901,MST_task,2024.2.0,59.99995200665781,2026-01-17 11h26.44.896541 +0530,
,Objects\159a.jpg,78,0,79,,,,,,,f,2.0423621999798343,0.19199410002329387,None,,,,,,79,0,78,1030.1722510999825,,,,,,,,,,,,,,,,,,,,,,,,,,,,,,1030.1562350000022,1030.1722510999825,1030.6726024999807,1030.6560597999778,,,,,,,,,,,,,,,,,,,,,,,,,,1030.6657111999812,1030.6726024999807,1030.6726024999807,1030.6726024999807,1033.6563258999959,f,2.0423621999798343,0.19199410002329387,1033.6563716999954,1033.6563828999933,None,1033.6722618999775,1033.6722618999775,1033.6722618999775,,,,,,,,,,,,,,00040,001,2026-01-17_11h26.33.901,MST_task,2024.2.0,59.99995200665781,2026-01-17 11h26.44.896541 +0530,
,Objects\067a.jpg,79,0,80,,,,,,,j,1.494481400004588,0.2087531000142917,None,,,,,,80,0,79,1033.6722618999775,,,,,,,,,,,,,,,,,,,,,,,,,,,,,,1033.6564801999775,1033.6722618999775,1034.1726428999973,1034.1560235999932,,,,,,,,,,,,,,,,,,,,,,,,,,1034.165210599982,1034.1726428999973,1034.1726428999973,1034.1726428999973,1037.156329199992,j,1.494481400004588,0.2087531000142917,1037.1563700999832,1037.1563803999743,None,1037.1724350999866,1037.1724350999866,1037.1724350999866,,,,,,,,,,,,,,00040,001,2026-01-17_11h26.33.901,MST_task,2024.2.0,59.99995200665781,2026-01-17 11h26.44.896541 +0530,
,Objects\166a.jpg,80,0,81,,,,,,,f,1.426442500000121,0.1839946000254713,None,,,,,,81,0,80,1037.1724350999866,,,,,,,,,,,,,,,,,,,,,,,,,,,,,,1037.1564451000013,1037.1724350999866,1037.6727359999786,1037.656073799997,,,,,,,,,,,,,,,,,,,,,,,,,,1037.6652786999766,1037.6727359999786,1037.6727359999786,1037.6727359999786,1040.6562906999898,f,1.426442500000121,0.1839946000254713,1040.656331599981,1040.656342399976,None,1040.6723664999881,1040.6723664999881,1040.6723664999881,,,,,,,,,,,,,,00040,001,2026-01-17_11h26.33.901,MST_task,2024.2.0,59.99995200665781,2026-01-17 11h26.44.896541 +0530,
,Objects\053a.jpg,81,0,82,,,,,,,f,1.3111980999819934,0.22280890002730303,None,,,,,,82,0,81,1040.6723664999881,,,,,,,,,,,,,,,,,,,,,,,,,,,,,,1040.656438999984,1040.6723664999881,1041.1726933999744,1041.1559866999742,,,,,,,,,,,,,,,,,,,,,,,,,,1041.1649815999845,1041.1726933999744,1041.1726933999744,1041.1726933999744,1044.156221799989,f,1.3111980999819934,0.22280890002730303,1044.1562610999972,1044.156271499989,None,1044.1723626999883,1044.1723626999883,1044.1723626999883,,,,,,,,,,,,,,00040,001,2026-01-17_11h26.33.901,MST_task,2024.2.0,59.99995200665781,2026-01-17 11h26.44.896541 +0530,
,Objects\189a.jpg,82,0,83,,,,,,,j,1.0591074000112712,0.2148960999911651,None,,,,,,83,0,82,1044.1723626999883,,,,,,,,,,,,,,,,,,,,,,,,,,,,,,1044.156365999981,1044.1723626999883,1044.672607799992,1044.6560583999963,,,,,,,,,,,,,,,,,,,,,,,,,,1044.6661342000007,1044.672607799992,1044.672607799992,1044.672607799992,1047.6564986000012,j,1.0591074000112712,0.2148960999911651,1047.6565398999956,1047.6565502999874,None,1047.672585399996,1047.672585399996,1047.672585399996,,,,,,,,,,,,,,00040,001,2026-01-17_11h26.33.901,MST_task,2024.2.0,59.99995200665781,2026-01-17 11h26.44.896541 +0530,
,Objects\034a.jpg,83,0,84,,,,,,,f,1.6866980000049807,0.23091380001278594,None,,,,,,84,0,83,1047.672585399996,,,,,,,,,,,,,,,,,,,,,,,,,,,,,,1047.6566479999747,1047.672585399996,1048.1728474999836,1048.1561256999848,,,,,,,,,,,,,,,,,,,,,,,,,,1048.1652906999807,1048.1728474999836,1048.1728474999836,1048.1728474999836,1051.1563338999986,f,1.6866980000049807,0.23091380001278594,1051.1563748999906,1051.1563853999833,None,1051.1725332999777,1051.1725332999777,1051.1725332999777,,,,,,,,,,,,,,00040,001,2026-01-17_11h26.33.901,MST_task,2024.2.0,59.99995200665781,2026-01-17 11h26.44.896541 +0530,
,Scenes\086a.jpg,84,0,85,,,,,,,j,1.0855635999760125,0.2229603000159841,None,,,,,,85,0,84,1051.1725332999777,,,,,,,,,,,,,,,,,,,,,,,,,,,,,,1051.156481299986,1051.1725332999777,1051.6783786999877,1051.6560813999968,,,,,,,,,,,,,,,,,,,,,,,,,,1051.6760834000015,1051.6783786999877,1051.6783786999877,1051.6783786999877,1054.6727653999988,j,1.0855635999760125,0.2229603000159841,1054.6744001999905,1054.6744184999843,None,,,,,,,,,,,,,,,,,00040,001,2026-01-17_11h26.33.901,MST_task,2024.2.0,59.99995200665781,2026-01-17 11h26.44.896541 +0530,
,Scenes\053a.jpg,85,0,86,,,,,,,j,0.7974826999998186,0.2159836000064388,None,,,,,,86,0,85,1054.6892135999806,,,,,,,,,,,,,,,,,,,,,,,,,,,,,,1054.6745119999978,1054.6892135999806,1055.1896910999785,1055.1728241999808,,,,,,,,,,,,,,,,,,,,,,,,,,1055.182278399996,1055.1896910999785,1055.1896910999785,1055.1896910999785,1058.1730884999852,j,0.7974826999998186,0.2159836000064388,1058.173130399984,1058.1731412999798,None,1058.1892182999873,1058.1892182999873,1058.1892182999873,,,,,,,,,,,,,,00040,001,2026-01-17_11h26.33.901,MST_task,2024.2.0,59.99995200665781,2026-01-17 11h26.44.896541 +0530,
,Scenes\003a.jpg,86,0,87,,,,,,,f,1.1732879999908619,0.17593170001055114,None,,,,,,87,0,86,1058.1892182999873,,,,,,,,,,,,,,,,,,,,,,,,,,,,,,1058.1732371999824,1058.1892182999873,1058.6933065999765,1058.672656699986,,,,,,,,,,,,,,,,,,,,,,,,,,1058.6909528999822,1058.6933065999765,1058.6933065999765,1058.6933065999765,1061.6893797999946,f,1.1732879999908619,0.17593170001055114,1061.6894204999844,1061.6894323999877,None,,,,,,,,,,,,,,,,,00040,001,2026-01-17_11h26.33.901,MST_task,2024.2.0,59.99995200665781,2026-01-17 11h26.44.896541 +0530,
,Scenes\075a.jpg,87,0,88,,,,,,,j,2.0841953000053763,0.22467900000629015,None,,,,,,88,0,87,1061.7058826999855,,,,,,,,,,,,,,,,,,,,,,,,,,,,,,1061.6895316999871,1061.7058826999855,,1062.189556600002,,,,,,,,,,,,,,,,,,,,,,,,,,1062.2021776999754,1062.206396900001,1062.206396900001,1062.206396900001,1065.1897973000014,j,2.0841953000053763,0.22467900000629015,1065.189838899998,1065.1898494999914,None,1065.2057947999856,1065.2057947999856,1065.2057947999856,,,,,,,,,,,,,,00040,001,2026-01-17_11h26.33.901,MST_task,2024.2.0,59.99995200665781,2026-01-17 11h26.44.896541 +0530,
,Scenes\116a.jpg,88,0,89,,,,,,,j,1.8255984999996144,0.2234353999956511,None,,,,,,89,0,88,1065.2057947999856,,,,,,,,,,,,,,,,,,,,,,,,,,,,,,1065.1899471999786,1065.2057947999856,1065.7061095999961,1065.6893375999935,,,,,,,,,,,,,,,,,,,,,,,,,,1065.7017522999959,1065.7061095999961,1065.7061095999961,1065.7061095999961,1068.6898206999758,j,1.8255984999996144,0.2234353999956511,1068.689861299994,1068.689872499992,None,1068.7058197000006,1068.7058197000006,1068.7058197000006,,,,,,,,,,,,,,00040,001,2026-01-17_11h26.33.901,MST_task,2024.2.0,59.99995200665781,2026-01-17 11h26.44.896541 +0530,
,Scenes\009a.jpg,89,0,90,,,,,,,f,1.3306542000209447,0.20834569999715313,None,,,,,,90,0,89,1068.7058197000006,,,,,,,,,,,,,,,,,,,,,,,,,,,,,,1068.68997029998,1068.7058197000006,1069.2086546999926,1069.1895240999875,,,,,,,,,,,,,,,,,,,,,,,,,,1069.206207899988,1069.2086546999926,1069.2086546999926,1069.2086546999926,1072.2060956999776,f,1.3306542000209447,0.20834569999715313,1072.206137000001,1072.2061487999745,None,,,,,,,,,,,,,,,,,00040,001,2026-01-17_11h26.33.901,MST_task,2024.2.0,59.99995200665781,2026-01-17 11h26.44.896541 +0530,
,Scenes\028a.jpg,90,0,91,,,,,,,j,1.1519802999973763,0.1982160999905318,None,,,,,,91,0,90,1072.2225406999933,,,,,,,,,,,,,,,,,,,,,,,,,,,,,,1072.2062168999983,1072.2225406999933,1072.7243390999793,1072.7062316999945,,,,,,,,,,,,,,,,,,,,,,,,,,1072.7220814999891,1072.7243390999793,1072.7243390999793,1072.7243390999793,1075.722723599989,j,1.1519802999973763,0.1982160999905318,1075.7227651999856,1075.7227771999897,None,,,,,,,,,,,,,,,,,00040,001,2026-01-17_11h26.33.901,MST_task,2024.2.0,59.99995200665781,2026-01-17 11h26.44.896541 +0530,
,Objects\023a.jpg,91,0,92,,,,,,,f,1.5396318999992218,0.19199490000028163,None,,,,,,92,0,91,1075.7392240999907,,,,,,,,,,,,,,,,,,,,,,,,,,,,,,1075.722876499989,1075.7392240999907,1076.2397281999874,1076.2227880999853,,,,,,,,,,,,,,,,,,,,,,,,,,1076.2347697999794,1076.2397281999874,1076.2397281999874,1076.2397281999874,1079.2227547999937,f,1.5396318999992218,0.19199490000028163,1079.2248565999907,1079.22487429998,None,1079.2391274999827,1079.2391274999827,1079.2391274999827,,,,,,,,,,,,,,00040,001,2026-01-17_11h26.33.901,MST_task,2024.2.0,59.99995200665781,2026-01-17 11h26.44.896541 +0530,
,Objects\040a.jpg,92,0,93,,,,,,,f,0.8398633000033442,0.264189899986377,None,,,,,,93,0,92,1079.2391274999827,,,,,,,,,,,,,,,,,,,,,,,,,,,,,,1079.224944799993,1079.2391274999827,1079.7393090999976,1079.7226300999755,,,,,,,,,,,,,,,,,,,,,,,,,,1079.7332068999822,1079.7393090999976,1079.7393090999976,1079.7393090999976,1082.7228493999864,f,0.8398633000033442,0.264189899986377,1082.7228894,1082.7228997999919,None,1082.7390474999847,1082.7390474999847,1082.7390474999847,,,,,,,,,,,,,,00040,001,2026-01-17_11h26.33.901,MST_task,2024.2.0,59.99995200665781,2026-01-17 11h26.44.896541 +0530,
,Objects\009a.jpg,93,0,94,,,,,,,j,2.019760800001677,0.23193810001248494,None,,,,,,94,0,93,1082.7390474999847,,,,,,,,,,,,,,,,,,,,,,,,,,,,,,1082.722963599983,1082.7390474999847,1083.2394567999872,1083.2225725999742,,,,,,,,,,,,,,,,,,,,,,,,,,1083.2325652999862,1083.2394567999872,1083.2394567999872,1083.2394567999872,1086.223448099976,j,2.019760800001677,0.23193810001248494,1086.2234905999794,1086.2235018999781,None,1086.2390550999844,1086.2390550999844,1086.2390550999844,,,,,,,,,,,,,,00040,001,2026-01-17_11h26.33.901,MST_task,2024.2.0,59.99995200665781,2026-01-17 11h26.44.896541 +0530,
,Objects\039a.jpg,94,0,95,,,,,,,j,2.0644152000022586,0.19196419999934733,None,,,,,,95,0,94,1086.2390550999844,,,,,,,,,,,,,,,,,,,,,,,,,,,,,,1086.2235804999946,1086.2390550999844,1086.7393226999848,1086.7226822999946,,,,,,,,,,,,,,,,,,,,,,,,,,1086.7326223999844,1086.7393226999848,1086.7393226999848,1086.7393226999848,1089.7228117999912,j,2.0644152000022586,0.19196419999934733,1089.7228526999825,1089.7228637999797,None,1089.739114099997,1089.739114099997,1089.739114099997,,,,,,,,,,,,,,00040,001,2026-01-17_11h26.33.901,MST_task,2024.2.0,59.99995200665781,2026-01-17 11h26.44.896541 +0530,
,Objects\050a.jpg,95,0,96,,,,,,,f,1.595679799997015,0.2159968000196386,None,,,,,,96,0,95,1089.739114099997,,,,,,,,,,,,,,,,,,,,,,,,,,,,,,1089.7229592999793,1089.739114099997,1090.2394596999802,1090.2226343999791,,,,,,,,,,,,,,,,,,,,,,,,,,1090.2314590000024,1090.2394596999802,1090.2394596999802,1090.2394596999802,1093.2229739999748,f,1.595679799997015,0.2159968000196386,1093.223014099989,1093.2230246999825,None,1093.2390598999918,1093.2390598999918,1093.2390598999918,,,,,,,,,,,,,,00040,001,2026-01-17_11h26.33.901,MST_task,2024.2.0,59.99995200665781,2026-01-17 11h26.44.896541 +0530,
,Objects\080a.jpg,96,0,97,,,,,,,f,0.8311520999995992,0.20796480000717565,None,,,,,,97,0,96,1093.2390598999918,,,,,,,,,,,,,,,,,,,,,,,,,,,,,,1093.223089599982,1093.2390598999918,1093.7393678999797,1093.7226028000005,,,,,,,,,,,,,,,,,,,,,,,,,,1093.7317768999783,1093.7393678999797,1093.7393678999797,1093.7393678999797,1096.7229193999956,f,0.8311520999995992,0.20796480000717565,1096.7229612999945,1096.7229724999925,None,1096.7391210999922,1096.7391210999922,1096.7391210999922,,,,,,,,,,,,,,00040,001,2026-01-17_11h26.33.901,MST_task,2024.2.0,59.99995200665781,2026-01-17 11h26.44.896541 +0530,
,Objects\168a.jpg,97,0,98,,,,,,,None,,,f,0.011927299987291917,None,,,,98,0,97,1096.7391210999922,,,,,,,,,,,,,,,,,,,,,,,,,,,,,,1096.723038199998,1096.7391210999922,1097.2393459999876,1097.2226415999758,,,,,,,,,,,,,,,,,,,,,,,,,,1097.2317522999947,1097.2393459999876,1097.2393459999876,1097.2393459999876,1100.2230201999773,None,,,1100.2230566999933,1100.2562553999887,f,1100.239066899987,1100.239066899987,1100.239066899987,1100.239066899987,1100.239066899987,0.011927299987291917,None,,,,,,,,,,00040,001,2026-01-17_11h26.33.901,MST_task,2024.2.0,59.99995200665781,2026-01-17 11h26.44.896541 +0530,
,Scenes\157a.jpg,98,0,99,,,,,,,j,1.531277299975045,0.13611280001350679,None,,,,,,99,0,98,1100.2723192999838,,,,,,,,,,,,,,,,,,,,,,,,,,,,,,1100.2563703999913,1100.2723192999838,1100.7758686000016,1100.7560414999898,,,,,,,,,,,,,,,,,,,,,,,,,,1100.77342089999,1100.7758686000016,1100.7758686000016,1100.7758686000016,1103.7726452999923,j,1.531277299975045,0.13611280001350679,1103.774359299976,1103.7743784999766,None,,,,,,,,,,,,,,,,,00040,001,2026-01-17_11h26.33.901,MST_task,2024.2.0,59.99995200665781,2026-01-17 11h26.44.896541 +0530,
,Scenes\152a.jpg,99,0,100,,,,,,,j,1.5054910999897402,0.20803030001115985,None,,,,,,100,0,99,1103.7890721999865,,,,,,,,,,,,,,,,,,,,,,,,,,,,,,1103.7744810000004,1103.7890721999865,1104.2896285000024,1104.2725671999797,,,,,,,,,,,,,,,,,,,,,,,,,,1104.2855255999893,1104.2896285000024,1104.2896285000024,1104.2896285000024,1107.2729469999904,j,1.5054910999897402,0.20803030001115985,1107.2729882999847,1107.2729988999781,None,1107.28911719998,1107.28911719998,1107.28911719998,,,,,,,,,,,,,,00040,001,2026-01-17_11h26.33.901,MST_task,2024.2.0,59.99995200665781,2026-01-17 11h26.44.896541 +0530,
,Scenes\022a.jpg,100,0,101,,,,,,,j,1.1974051000142936,0.14353510001092218,None,,,,,,101,0,100,1107.28911719998,,,,,,,,,,,,,,,,,,,,,,,,,,,,,,1107.2730957999884,1107.28911719998,1107.7896374999837,1107.7727226999996,,,,,,,,,,,,,,,,,,,,,,,,,,1107.7828613999882,1107.7896374999837,1107.7896374999837,1107.7896374999837,1110.7729452999774,j,1.1974051000142936,0.14353510001092218,1110.7729853999917,1110.7729959999851,None,1110.7890563999827,1110.7890563999827,1110.7890563999827,,,,,,,,,,,,,,00040,001,2026-01-17_11h26.33.901,MST_task,2024.2.0,59.99995200665781,2026-01-17 11h26.44.896541 +0530,
,Scenes\096a.jpg,101,0,102,,,,,,,j,0.8810211000090931,0.18389190000016242,None,,,,,,102,0,101,1110.7890563999827,,,,,,,,,,,,,,,,,,,,,,,,,,,,,,1110.773095099983,1110.7890563999827,1111.2896983999817,1111.2726199999743,,,,,,,,,,,,,,,,,,,,,,,,,,1111.2835073999886,1111.2896983999817,1111.2896983999817,1111.2896983999817,1114.2728775999858,j,0.8810211000090931,0.18389190000016242,1114.272919399984,1114.2729303999804,None,1114.2891168999777,1114.2891168999777,1114.2891168999777,,,,,,,,,,,,,,00040,001,2026-01-17_11h26.33.901,MST_task,2024.2.0,59.99995200665781,2026-01-17 11h26.44.896541 +0530,
,Scenes\044a.jpg,102,0,103,,,,,,,j,2.1974678999977186,0.2076085000007879,None,,,,,,103,0,102,1114.2891168999777,,,,,,,,,,,,,,,,,,,,,,,,,,,,,,1114.2730269999884,1114.2891168999777,1114.7896105999826,1114.7725701999734,,,,,,,,,,,,,,,,,,,,,,,,,,1114.786073299998,1114.7896105999826,1114.7896105999826,1114.7896105999826,1117.7727681999968,j,2.1974678999977186,0.2076085000007879,1117.772808699985,1117.7728196999815,None,1117.7890725999896,1117.7890725999896,1117.7890725999896,,,,,,,,,,,,,,00040,001,2026-01-17_11h26.33.901,MST_task,2024.2.0,59.99995200665781,2026-01-17 11h26.44.896541 +0530,
,Scenes\025a.jpg,103,0,104,,,,,,,j,1.1421464000013657,0.15142449998529628,None,,,,,,104,0,103,1117.7890725999896,,,,,,,,,,,,,,,,,,,,,,,,,,,,,,1117.772886699997,1117.7890725999896,1118.293731199985,1118.272637499991,,,,,,,,,,,,,,,,,,,,,,,,,,1118.2914015999995,1118.293731199985,1118.293731199985,1118.293731199985,1121.289423099981,j,1.1421464000013657,0.15142449998529628,1121.2894745999947,1121.2894874999765,None,,,,,,,,,,,,,,,,,00040,001,2026-01-17_11h26.33.901,MST_task,2024.2.0,59.99995200665781,2026-01-17 11h26.44.896541 +0530,
,Scenes\131a.jpg,104,0,105,,,,,,,j,1.2926352999929804,0.1840002000099048,None,,,,,,105,0,104,1121.3058333999943,,,,,,,,,,,,,,,,,,,,,,,,,,,,,,1121.289562799997,1121.3058333999943,1121.8064621999802,1121.7895040999865,,,,,,,,,,,,,,,,,,,,,,,,,,1121.804219099984,1121.8064621999802,1121.8064621999802,1121.8064621999802,1124.7895959999878,j,1.2926352999929804,0.1840002000099048,1124.7896374999837,1124.7896482999786,None,1124.8057970999798,1124.8057970999798,1124.8057970999798,,,,,,,,,,,,,,00040,001,2026-01-17_11h26.33.901,MST_task,2024.2.0,59.99995200665781,2026-01-17 11h26.44.896541 +0530,
,Objects\088a.jpg,105,0,106,,,,,,,j,1.9288759999908507,0.21555310001713224,None,,,,,,106,0,105,1124.8057970999798,,,,,,,,,,,,,,,,,,,,,,,,,,,,,,1124.7897133999795,1124.8057970999798,1125.3062466999982,1125.2892898999853,,,,,,,,,,,,,,,,,,,,,,,,,,1125.3012746000022,1125.3062466999982,1125.3062466999982,1125.3062466999982,1128.2896709999768,j,1.9288759999908507,0.21555310001713224,1128.291723000002,1128.2917417999997,None,1128.3057840999973,1128.3057840999973,1128.3057840999973,,,,,,,,,,,,,,00040,001,2026-01-17_11h26.33.901,MST_task,2024.2.0,59.99995200665781,2026-01-17 11h26.44.896541 +0530,
,Objects\147a.jpg,106,0,107,,,,,,,None,,,j,1.4848776999861002,None,,,,107,0,106,1128.3057840999973,,,,,,,,,,,,,,,,,,,,,,,,,,,,,,1128.2918479999935,1128.3057840999973,1128.8060967999918,1128.789428899996,,,,,,,,,,,,,,,,,,,,,,,,,,1128.7984763999993,1128.8060967999918,1128.8060967999918,1128.8060967999918,1131.7896848999953,None,,,1131.7897261999897,1133.306240899983,j,1131.8057328999857,1131.8057328999857,1131.8057328999857,1131.8057328999857,1131.8057328999857,1.4848776999861002,None,,,,,,,,,,00040,001,2026-01-17_11h26.33.901,MST_task,2024.2.0,59.99995200665781,2026-01-17 11h26.44.896541 +0530,
,Objects\017a.jpg,107,0,108,,,,,,,f,2.5722059000108857,0.23199010000098497,None,,,,,,108,0,107,1133.3223699999799,,,,,,,,,,,,,,,,,,,,,,,,,,,,,,1133.3063303999952,1133.3223699999799,1133.8226425999892,1133.806033299974,,,,,,,,,,,,,,,,,,,,,,,,,,1133.8164298999764,1133.8226425999892,1133.8226425999892,1133.8226425999892,1136.8063711999857,f,2.5722059000108857,0.23199010000098497,1136.8064154000022,1136.8064266000001,None,1136.8222844999982,1136.8222844999982,1136.8222844999982,,,,,,,,,,,,,,00040,001,2026-01-17_11h26.33.901,MST_task,2024.2.0,59.99995200665781,2026-01-17 11h26.44.896541 +0530,
,Objects\156a.jpg,108,0,109,,,,,,,f,1.385012699989602,0.20746460001100786,None,,,,,,109,0,108,1136.8222844999982,,,,,,,,,,,,,,,,,,,,,,,,,,,,,,1136.8064926999796,1136.8222844999982,1137.3226859999995,1137.3060402999981,,,,,,,,,,,,,,,,,,,,,,,,,,1137.3168827999907,1137.3226859999995,1137.3226859999995,1137.3226859999995,1140.3063912999933,f,1.385012699989602,0.20746460001100786,1140.306442000001,1140.3064530999982,None,1140.3223576000019,1140.3223576000019,1140.3223576000019,,,,,,,,,,,,,,00040,001,2026-01-17_11h26.33.901,MST_task,2024.2.0,59.99995200665781,2026-01-17 11h26.44.896541 +0530,
,Objects\149a.jpg,109,0,110,,,,,,,j,0.8610876000020653,0.184047599992482,None,,,,,,110,0,109,1140.3223576000019,,,,,,,,,,,,,,,,,,,,,,,,,,,,,,1140.3065225999744,1140.3223576000019,1140.8225567999762,1140.806088399986,,,,,,,,,,,,,,,,,,,,,,,,,,1140.8173413999903,1140.8225567999762,1140.8225567999762,1140.8225567999762,1143.8063672999851,j,0.8610876000020653,0.184047599992482,1143.8064085999795,1143.8064197999774,None,1143.8223489999946,1143.8223489999946,1143.8223489999946,,,,,,,,,,,,,,00040,001,2026-01-17_11h26.33.901,MST_task,2024.2.0,59.99995200665781,2026-01-17 11h26.44.896541 +0530,
,Objects\163a.jpg,110,0,111,,,,,,,j,2.3287277999916114,0.183345500001451,None,,,,,,111,0,110,1143.8223489999946,,,,,,,,,,,,,,,,,,,,,,,,,,,,,,1143.8065153999778,1143.8223489999946,1144.322627299989,1144.3061937999737,,,,,,,,,,,,,,,,,,,,,,,,,,1144.315482099977,1144.322627299989,1144.322627299989,1144.322627299989,1147.3063582999748,j,2.3287277999916114,0.183345500001451,1147.3064055999857,1147.3064164999814,None,1147.3223092999833,1147.3223092999833,1147.3223092999833,,,,,,,,,,,,,,00040,001,2026-01-17_11h26.33.901,MST_task,2024.2.0,59.99995200665781,2026-01-17 11h26.44.896541 +0530,
,Objects\081a.jpg,111,0,112,,,,,,,j,1.3085711000021547,0.1997339999943506,None,,,,,,112,0,111,1147.3223092999833,,,,,,,,,,,,,,,,,,,,,,,,,,,,,,1147.3064842999738,1147.3223092999833,1147.8226929999946,1147.806073099986,,,,,,,,,,,,,,,,,,,,,,,,,,1147.815099200001,1147.8226929999946,1147.8226929999946,1147.8226929999946,1150.8063891999773,j,1.3085711000021547,0.1997339999943506,1150.8064321999846,1150.8064428999787,None,1150.8222888999735,1150.8222888999735,1150.8222888999735,,,,,,,,,,,,,,00040,001,2026-01-17_11h26.33.901,MST_task,2024.2.0,59.99995200665781,2026-01-17 11h26.44.896541 +0530,
,Scenes\120a.jpg,112,0,113,,,,,,,j,0.8304734000121243,0.17602709998027422,None,,,,,,113,0,112,1150.8222888999735,,,,,,,,,,,,,,,,,,,,,,,,,,,,,,1150.806509099988,1150.8222888999735,1151.3250180999748,1151.3060521000007,,,,,,,,,,,,,,,,,,,,,,,,,,1151.3226070999808,1151.3250180999748,1151.3250180999748,1151.3250180999748,1154.3225209999946,j,0.8304734000121243,0.17602709998027422,1154.3243854999891,1154.3244057999982,None,,,,,,,,,,,,,,,,,00040,001,2026-01-17_11h26.33.901,MST_task,2024.2.0,59.99995200665781,2026-01-17 11h26.44.896541 +0530,
,Scenes\106a.jpg,113,0,114,,,,,,,j,0.960864099994069,0.17495859999326058,None,,,,,,114,0,113,1154.3391336999775,,,,,,,,,,,,,,,,,,,,,,,,,,,,,,1154.3245267999882,1154.3391336999775,1154.8431463000015,1154.822564299975,,,,,,,,,,,,,,,,,,,,,,,,,,1154.8405282000022,1154.8431463000015,1154.8431463000015,1154.8431463000015,1157.839335799974,j,0.960864099994069,0.17495859999326058,1157.8393766999943,1157.8393884999969,None,,,,,,,,,,,,,,,,,00040,001,2026-01-17_11h26.33.901,MST_task,2024.2.0,59.99995200665781,2026-01-17 11h26.44.896541 +0530,
,Scenes\145a.jpg,114,0,115,,,,,,,j,1.0293778000050224,0.18399530000169761,None,,,,,,115,0,114,1157.8558179999818,,,,,,,,,,,,,,,,,,,,,,,,,,,,,,1157.8394854999788,1157.8558179999818,1158.3577498999948,1158.339399999997,,,,,,,,,,,,,,,,,,,,,,,,,,1158.355629699974,1158.3577498999948,1158.3577498999948,1158.3577498999948,1161.3560262999963,j,1.0293778000050224,0.18399530000169761,1161.3560708999867,1161.3560830999922,None,,,,,,,,,,,,,,,,,00040,001,2026-01-17_11h26.33.901,MST_task,2024.2.0,59.99995200665781,2026-01-17 11h26.44.896541 +0530,
,Scenes\173a.jpg,115,0,116,,,,,,,j,0.6030968000122812,0.15897119999863207,None,,,,,,116,0,115,1161.3724659,,,,,,,,,,,,,,,,,,,,,,,,,,,,,,1161.3561837000016,1161.3724659,1161.8728775999916,1161.8562288999965,,,,,,,,,,,,,,,,,,,,,,,,,,1161.869537199993,1161.8728775999916,1161.8728775999916,1161.8728775999916,1164.8563611999853,j,0.6030968000122812,0.15897119999863207,1164.8564021999773,1164.8564124999975,None,1164.872401200002,1164.872401200002,1164.872401200002,,,,,,,,,,,,,,00040,001,2026-01-17_11h26.33.901,MST_task,2024.2.0,59.99995200665781,2026-01-17 11h26.44.896541 +0530,
,Scenes\039a.jpg,116,0,117,,,,,,,j,0.7343014999933075,0.20782569999573752,None,,,,,,117,0,116,1164.872401200002,,,,,,,,,,,,,,,,,,,,,,,,,,,,,,1164.8564781000023,1164.872401200002,1165.3729165999976,1165.3561255999957,,,,,,,,,,,,,,,,,,,,,,,,,,1165.3693384999933,1165.3729165999976,1165.3729165999976,1165.3729165999976,1168.3566166999808,j,0.7343014999933075,0.20782569999573752,1168.356658899982,1168.356669699977,None,1168.3724585999735,1168.3724585999735,1168.3724585999735,,,,,,,,,,,,,,00040,001,2026-01-17_11h26.33.901,MST_task,2024.2.0,59.99995200665781,2026-01-17 11h26.44.896541 +0530,
,Scenes\074a.jpg,117,0,118,,,,,,,j,0.7214778999914415,0.20755510000162758,None,,,,,,118,0,117,1168.3724585999735,,,,,,,,,,,,,,,,,,,,,,,,,,,,,,1168.356769999984,1168.3724585999735,1168.8739903999958,1168.8561782999896,,,,,,,,,,,,,,,,,,,,,,,,,,1168.8717381999886,1168.8739903999958,1168.8739903999958,1168.8739903999958,1171.8727232999809,j,0.7214778999914415,0.20755510000162758,1171.8727637999982,1171.8727755,None,,,,,,,,,,,,,,,,,00040,001,2026-01-17_11h26.33.901,MST_task,2024.2.0,59.99995200665781,2026-01-17 11h26.44.896541 +0530,
,Scenes\144a.jpg,118,0,119,,,,,,,j,0.6287506000080612,0.16037249998771586,None,,,,,,119,0,118,1171.8892442999932,,,,,,,,,,,,,,,,,,,,,,,,,,,,,,1171.872879099974,1171.8892442999932,1172.3898928999843,1172.3728138000006,,,,,,,,,,,,,,,,,,,,,,,,,,1172.3866627999814,1172.3898928999843,1172.3898928999843,1172.3898928999843,1175.372850899992,j,0.6287506000080612,0.16037249998771586,1175.3728934999963,1175.3729057000019,None,,,,,,,,,,,,,,,,,00040,001,2026-01-17_11h26.33.901,MST_task,2024.2.0,59.99995200665781,2026-01-17 11h26.44.896541 +0530,
,Objects\057a.jpg,119,0,120,,,,,,,f,1.4892716000031214,0.2320393999980297,None,,,,,,120,0,119,1175.3891806999745,,,,,,,,,,,,,,,,,,,,,,,,,,,,,,1175.3730060999806,1175.3891806999745,1175.889777399978,1175.8727876999765,,,,,,,,,,,,,,,,,,,,,,,,,,1175.8845216999762,1175.889777399978,1175.889777399978,1175.889777399978,1178.8730562999845,f,1.4892716000031214,0.2320393999980297,1178.875085799984,1178.8751029999985,None,1178.8892403999926,1178.8892403999926,1178.8892403999926,,,,,,,,,,,,,,00040,001,2026-01-17_11h26.33.901,MST_task,2024.2.0,59.99995200665781,2026-01-17 11h26.44.896541 +0530,
,Objects\083a.jpg,120,0,121,,,,,,,f,1.221727700001793,0.21525099998689257,None,,,,,,121,0,120,1178.8892403999926,,,,,,,,,,,,,,,,,,,,,,,,,,,,,,1178.875174099987,1178.8892403999926,1179.3895256999822,1179.3726922999776,,,,,,,,,,,,,,,,,,,,,,,,,,1179.381558699999,1179.3895256999822,1179.3895256999822,1179.3895256999822,1182.373466799996,f,1.221727700001793,0.21525099998689257,1182.3735163999954,1182.3735280999972,None,1182.3893318999908,1182.3893318999908,1182.3893318999908,,,,,,,,,,,,,,00040,001,2026-01-17_11h26.33.901,MST_task,2024.2.0,59.99995200665781,2026-01-17 11h26.44.896541 +0530,
,Objects\165a.jpg,121,0,122,,,,,,,f,0.7610424000013154,0.2159926999884192,None,,,,,,122,0,121,1182.3893318999908,,,,,,,,,,,,,,,,,,,,,,,,,,,,,,1182.3736000999925,1182.3893318999908,1182.8895074999891,1182.872750999988,,,,,,,,,,,,,,,,,,,,,,,,,,1182.881727799977,1182.8895074999891,1182.8895074999891,1182.8895074999891,1185.8731635999866,f,0.7610424000013154,0.2159926999884192,1185.8732058999885,1185.873216499982,None,1185.8892460999778,1185.8892460999778,1185.8892460999778,,,,,,,,,,,,,,00040,001,2026-01-17_11h26.33.901,MST_task,2024.2.0,59.99995200665781,2026-01-17 11h26.44.896541 +0530,
,Objects\122a.jpg,122,0,123,,,,,,,f,2.4616582000162452,0.2793093000072986,None,,,,,,123,0,122,1185.8892460999778,,,,,,,,,,,,,,,,,,,,,,,,,,,,,,1185.8733137999952,1185.8892460999778,1186.3895863999787,1186.3728298999777,,,,,,,,,,,,,,,,,,,,,,,,,,1186.3821145999827,1186.3895863999787,1186.3895863999787,1186.3895863999787,1189.3731744999823,f,2.4616582000162452,0.2793093000072986,1189.3732163999812,1189.3732275999791,None,1189.389245999977,1189.389245999977,1189.389245999977,,,,,,,,,,,,,,00040,001,2026-01-17_11h26.33.901,MST_task,2024.2.0,59.99995200665781,2026-01-17 11h26.44.896541 +0530,
,Objects\177a.jpg,123,0,124,,,,,,,j,0.946315000008326,0.1915222000097856,None,,,,,,124,0,123,1189.389245999977,,,,,,,,,,,,,,,,,,,,,,,,,,,,,,1189.373293599987,1189.389245999977,1189.8895370999817,1189.8728220999765,,,,,,,,,,,,,,,,,,,,,,,,,,1189.8816595999815,1189.8895370999817,1189.8895370999817,1189.8895370999817,1192.873151799984,j,0.946315000008326,0.1915222000097856,1192.873193699983,1192.8732044999779,None,1192.8893290999986,1192.8893290999986,1192.8893290999986,,,,,,,,,,,,,,00040,001,2026-01-17_11h26.33.901,MST_task,2024.2.0,59.99995200665781,2026-01-17 11h26.44.896541 +0530,
,Objects\157a.jpg,124,0,125,,,,,,,f,0.8771344999840949,0.22416129999328405,None,,,,,,125,0,124,1192.8893290999986,,,,,,,,,,,,,,,,,,,,,,,,,,,,,,1192.8733012999874,1192.8893290999986,1193.3894250000012,1193.3727416999754,,,,,,,,,,,,,,,,,,,,,,,,,,1193.3818286999885,1193.3894250000012,1193.3894250000012,1193.3894250000012,1196.3733223999734,f,0.8771344999840949,0.22416129999328405,1196.373366899992,1196.3733770999825,None,1196.3893691999838,1196.3893691999838,1196.3893691999838,,,,,,,,,,,,,,00040,001,2026-01-17_11h26.33.901,MST_task,2024.2.0,59.99995200665781,2026-01-17 11h26.44.896541 +0530,
,Objects\132a.jpg,125,0,126,,,,,,,f,1.5138064000057057,0.2560028999869246,None,,,,,,126,0,125,1196.3893691999838,,,,,,,,,,,,,,,,,,,,,,,,,,,,,,1196.373475899978,1196.3893691999838,1196.8894947999797,1196.872815299983,,,,,,,,,,,,,,,,,,,,,,,,,,1196.8818058999896,1196.8894947999797,1196.8894947999797,1196.8894947999797,1199.8731067999906,f,1.5138064000057057,0.2560028999869246,1199.8731494999956,1199.8731602999906,None,1199.8892058999918,1199.8892058999918,1199.8892058999918,,,,,,,,,,,,,,00040,001,2026-01-17_11h26.33.901,MST_task,2024.2.0,59.99995200665781,2026-01-17 11h26.44.896541 +0530,
,Scenes\115a.jpg,126,0,127,,,,,,,j,2.1294507999846246,0.24026900000171736,None,,,,,,127,0,126,1199.8892058999918,,,,,,,,,,,,,,,,,,,,,,,,,,,,,,1199.873265000002,1199.8892058999918,1200.3930949999776,1200.3727369999979,,,,,,,,,,,,,,,,,,,,,,,,,,1200.3905861999956,1200.3930949999776,1200.3930949999776,1200.3930949999776,1203.3892751999956,j,2.1294507999846246,0.24026900000171736,1203.390843000001,1203.3908622000017,None,,,,,,,,,,,,,,,,,00040,001,2026-01-17_11h26.33.901,MST_task,2024.2.0,59.99995200665781,2026-01-17 11h26.44.896541 +0530,
,Scenes\182a.jpg,127,0,128,,,,,,,f,1.7600387999846134,0.22407830000156537,None,,,,,,128,0,127,1203.4058140999987,,,,,,,,,,,,,,,,,,,,,,,,,,,,,,1203.3909456999972,1203.4058140999987,1203.9064528999734,1203.8894883999892,,,,,,,,,,,,,,,,,,,,,,,,,,1203.9038096999866,1203.9064528999734,1203.9064528999734,1203.9064528999734,1206.889863199991,f,1.7600387999846134,0.22407830000156537,1206.889907499979,1206.88991909998,None,1206.9059279999929,1206.9059279999929,1206.9059279999929,,,,,,,,,,,,,,00040,001,2026-01-17_11h26.33.901,MST_task,2024.2.0,59.99995200665781,2026-01-17 11h26.44.896541 +0530,
,Scenes\179a.jpg,128,0,129,,,,,,,j,1.420989100006409,0.1914517999975942,None,,,,,,129,0,128,1206.9059279999929,,,,,,,,,,,,,,,,,,,,,,,,,,,,,,1206.8899847999855,1206.9059279999929,1207.4063652999757,1207.389454499993,,,,,,,,,,,,,,,,,,,,,,,,,,1207.4011640999815,1207.4063652999757,1207.4063652999757,1207.4063652999757,1210.3897907999926,j,1.420989100006409,0.1914517999975942,1210.3898331999953,1210.3898442999925,None,1210.4059304999828,1210.4059304999828,1210.4059304999828,,,,,,,,,,,,,,00040,001,2026-01-17_11h26.33.901,MST_task,2024.2.0,59.99995200665781,2026-01-17 11h26.44.896541 +0530,
,Scenes\012a.jpg,129,0,130,,,,,,,j,1.0372485999832861,0.1749017999973148,None,,,,,,130,0,129,1210.4059304999828,,,,,,,,,,,,,,,,,,,,,,,,,,,,,,1210.389909999998,1210.4059304999828,1210.9104738000024,1210.8894965999934,,,,,,,,,,,,,,,,,,,,,,,,,,1210.90797499998,1210.9104738000024,1210.9104738000024,1210.9104738000024,1213.906161699997,j,1.0372485999832861,0.1749017999973148,1213.9062046999752,1213.9062173999846,None,,,,,,,,,,,,,,,,,00040,001,2026-01-17_11h26.33.901,MST_task,2024.2.0,59.99995200665781,2026-01-17 11h26.44.896541 +0530,
,Scenes\137a.jpg,130,0,131,,,,,,,j,0.7959444999869447,0.19213320000562817,None,,,,,,131,0,130,1213.9226045999967,,,,,,,,,,,,,,,,,,,,,,,,,,,,,,1213.9063182999962,1213.9226045999967,,1214.406446899986,,,,,,,,,,,,,,,,,,,,,,,,,,1214.4194798999815,1214.4229601999978,1214.4229601999978,1214.4229601999978,1217.406396699982,j,0.7959444999869447,0.19213320000562817,1217.4064384999801,1217.4064491999743,None,1217.4225747000019,1217.4225747000019,1217.4225747000019,,,,,,,,,,,,,,00040,001,2026-01-17_11h26.33.901,MST_task,2024.2.0,59.99995200665781,2026-01-17 11h26.44.896541 +0530,
,Scenes\189a.jpg,131,0,132,,,,,,,j,0.9978718000056688,0.15994519999367185,None,,,,,,132,0,131,1217.4225747000019,,,,,,,,,,,,,,,,,,,,,,,,,,,,,,1217.406555900001,1217.4225747000019,1217.9248564000009,1217.9060992999875,,,,,,,,,,,,,,,,,,,,,,,,,,1217.9225793999794,1217.9248564000009,1217.9248564000009,1217.9248564000009,1220.9227391999739,j,0.9978718000056688,0.15994519999367185,1220.922780199995,1220.9227919999976,None,,,,,,,,,,,,,,,,,00040,001,2026-01-17_11h26.33.901,MST_task,2024.2.0,59.99995200665781,2026-01-17 11h26.44.896541 +0530,
,Scenes\026a.jpg,132,0,133,,,,,,,j,0.7445548000105191,0.1840137999970466,None,,,,,,133,0,132,1220.9392449999868,,,,,,,,,,,,,,,,,,,,,,,,,,,,,,1220.9228608999983,1220.9392449999868,1221.4427606999816,1221.4225988999824,,,,,,,,,,,,,,,,,,,,,,,,,,1221.4402999999875,1221.4427606999816,1221.4427606999816,1221.4427606999816,1224.4394337999984,j,0.7445548000105191,0.1840137999970466,1224.439474999992,1224.4394868999952,None,,,,,,,,,,,,,,,,,00040,001,2026-01-17_11h26.33.901,MST_task,2024.2.0,59.99995200665781,2026-01-17 11h26.44.896541 +0530,
,Objects\135a.jpg,133,0,134,,,,,,,f,1.334608200006187,0.23985449998872355,None,,,,,,134,0,133,1224.455924799986,,,,,,,,,,,,,,,,,,,,,,,,,,,,,,1224.4395580999844,1224.455924799986,1224.9563435000018,1224.9394886999798,,,,,,,,,,,,,,,,,,,,,,,,,,1224.9522962999763,1224.9563435000018,1224.9563435000018,1224.9563435000018,1227.9396778999944,f,1.334608200006187,0.23985449998872355,1227.9421840999858,1227.942201400001,None,1227.9558197000006,1227.9558197000006,1227.9558197000006,,,,,,,,,,,,,,00040,001,2026-01-17_11h26.33.901,MST_task,2024.2.0,59.99995200665781,2026-01-17 11h26.44.896541 +0530,
,Objects\031a.jpg,134,0,135,,,,,,,j,2.8752204999909736,None,None,,,,,,135,0,134,1227.9558197000006,,,,,,,,,,,,,,,,,,,,,,,,,,,,,,1227.9423061999842,1227.9558197000006,1228.4560650999774,1228.4394505999808,,,,,,,,,,,,,,,,,,,,,,,,,,1228.4490432999737,1228.4560650999774,1228.4560650999774,1228.4560650999774,1231.439717399975,j,2.8752204999909736,None,1231.4397585999977,1231.4397694999934,None,1231.4558183999907,1231.4558183999907,1231.4558183999907,,,,,,,,,,,,,,00040,001,2026-01-17_11h26.33.901,MST_task,2024.2.0,59.99995200665781,2026-01-17 11h26.44.896541 +0530,
,Objects\143a.jpg,135,0,136,,,,,,,j,1.7592416999978013,0.20029199999407865,None,,,,,,136,0,135,1231.4558183999907,,,,,,,,,,,,,,,,,,,,,,,,,,,,,,1231.4398642999877,1231.4558183999907,1231.956042099977,1231.9394611999742,,,,,,,,,,,,,,,,,,,,,,,,,,1231.949501199997,1231.956042099977,1231.956042099977,1231.956042099977,1234.939669799991,j,1.7592416999978013,0.20029199999407865,1234.9397125999967,1234.939724099997,None,1234.9557479999785,1234.9557479999785,1234.9557479999785,,,,,,,,,,,,,,00040,001,2026-01-17_11h26.33.901,MST_task,2024.2.0,59.99995200665781,2026-01-17 11h26.44.896541 +0530,
,Objects\169a.jpg,136,0,137,,,,,,,None,,,j,0.21143860000302084,None,,,,137,0,136,1234.9557479999785,,,,,,,,,,,,,,,,,,,,,,,,,,,,,,1234.9397910999833,1234.9557479999785,1235.4559887999785,1235.4393301999953,,,,,,,,,,,,,,,,,,,,,,,,,,1235.4485810999759,1235.4559887999785,1235.4559887999785,1235.4559887999785,1238.43962379999,None,,,1238.4396630999981,1238.6729789999954,j,1238.455831899977,1238.455831899977,1238.455831899977,1238.455831899977,1238.455831899977,0.21143860000302084,None,,,,,,,,,,00040,001,2026-01-17_11h26.33.901,MST_task,2024.2.0,59.99995200665781,2026-01-17 11h26.44.896541 +0530,
,Objects\109a.jpg,137,0,138,,,,,,,j,1.053730000014184,0.18419669999275357,None,,,,,,138,0,137,1238.6891552000016,,,,,,,,,,,,,,,,,,,,,,,,,,,,,,1238.6730681999761,1238.6891552000016,1239.189346499974,1239.1727237000014,,,,,,,,,,,,,,,,,,,,,,,,,,1239.182031299977,1239.189346499974,1239.189346499974,1239.189346499974,1242.172933199996,j,1.053730000014184,0.18419669999275357,1242.1729754999978,1242.1729866999958,None,1242.1891535999894,1242.1891535999894,1242.1891535999894,,,,,,,,,,,,,,00040,001,2026-01-17_11h26.33.901,MST_task,2024.2.0,59.99995200665781,2026-01-17 11h26.44.896541 +0530,
,Objects\068a.jpg,138,0,139,,,,,,,f,1.041431100020418,0.21673729998292401,None,,,,,,139,0,138,1242.1891535999894,,,,,,,,,,,,,,,,,,,,,,,,,,,,,,1242.1730834999762,1242.1891535999894,1242.6893763999979,1242.6727083000005,,,,,,,,,,,,,,,,,,,,,,,,,,1242.6821170999901,1242.6893763999979,1242.6893763999979,1242.6893763999979,1245.6728275999776,f,1.041431100020418,0.21673729998292401,1245.6728686999995,1245.6728799999983,None,1245.6891512000002,1245.6891512000002,1245.6891512000002,,,,,,,,,,,,,,00040,001,2026-01-17_11h26.33.901,MST_task,2024.2.0,59.99995200665781,2026-01-17 11h26.44.896541 +0530,
,Objects\041a.jpg,139,0,140,,,,,,,j,1.533597200002987,0.19197410001652315,None,,,,,,140,0,139,1245.6891512000002,,,,,,,,,,,,,,,,,,,,,,,,,,,,,,1245.6729453000007,1245.6891512000002,1246.189469999983,1246.1726666999748,,,,,,,,,,,,,,,,,,,,,,,,,,1246.181626399979,1246.189469999983,1246.189469999983,1246.189469999983,1249.172960099997,j,1.533597200002987,0.19197410001652315,1249.1730005999852,1249.173011499981,None,1249.189095299982,1249.189095299982,1249.189095299982,,,,,,,,,,,,,,00040,001,2026-01-17_11h26.33.901,MST_task,2024.2.0,59.99995200665781,2026-01-17 11h26.44.896541 +0530,
,Scenes\045a.jpg,140,0,141,,,,,,,j,1.3716597000020556,0.24701859999913722,None,,,,,,141,0,140,1249.189095299982,,,,,,,,,,,,,,,,,,,,,,,,,,,,,,1249.1731076999858,1249.189095299982,1249.6961997999751,1249.6728476999851,,,,,,,,,,,,,,,,,,,,,,,,,,1249.6936567999946,1249.6961997999751,1249.6961997999751,1249.6961997999751,1252.6893838999968,j,1.3716597000020556,0.24701859999913722,1252.69096539999,1252.6909871999815,None,,,,,,,,,,,,,,,,,00040,001,2026-01-17_11h26.33.901,MST_task,2024.2.0,59.99995200665781,2026-01-17 11h26.44.896541 +0530,
,Scenes\049a.jpg,141,0,142,,,,,,,j,0.8606147000100464,0.16116049999254756,None,,,,,,142,0,141,1252.7058593999827,,,,,,,,,,,,,,,,,,,,,,,,,,,,,,1252.6910708999785,1252.7058593999827,1253.2067088999902,1253.189396599977,,,,,,,,,,,,,,,,,,,,,,,,,,1253.204154099978,1253.2067088999902,1253.2067088999902,1253.2067088999902,1256.189664399979,j,0.8606147000100464,0.16116049999254756,1256.1897067999816,1256.189717799978,None,1256.20583609998,1256.20583609998,1256.20583609998,,,,,,,,,,,,,,00040,001,2026-01-17_11h26.33.901,MST_task,2024.2.0,59.99995200665781,2026-01-17 11h26.44.896541 +0530,
,Scenes\159a.jpg,142,0,143,,,,,,,j,0.5891836000082549,0.2569583999866154,None,,,,,,143,0,142,1256.20583609998,,,,,,,,,,,,,,,,,,,,,,,,,,,,,,1256.1898260999878,1256.20583609998,1256.7098392999906,1256.6895587999898,,,,,,,,,,,,,,,,,,,,,,,,,,1256.7076144999883,1256.7098392999906,1256.7098392999906,1256.7098392999906,1259.7061225999787,j,0.5891836000082549,0.2569583999866154,1259.7061627999938,1259.706174699997,None,,,,,,,,,,,,,,,,,00040,001,2026-01-17_11h26.33.901,MST_task,2024.2.0,59.99995200665781,2026-01-17 11h26.44.896541 +0530,
,Scenes\008a.jpg,143,0,144,,,,,,,f,2.1635080999985803,0.18402909999713302,None,,,,,,144,0,143,1259.7224248999846,,,,,,,,,,,,,,,,,,,,,,,,,,,,,,1259.7062729999889,1259.7224248999846,1260.223187800002,1260.2060372999986,,,,,,,,,,,,,,,,,,,,,,,,,,1260.2208060999983,1260.223187800002,1260.223187800002,1260.223187800002,1263.2064139999857,f,2.1635080999985803,0.18402909999713302,1263.2064530999924,1263.2064638999873,None,1263.2222728999914,1263.2222728999914,1263.2222728999914,,,,,,,,,,,,,,00040,001,2026-01-17_11h26.33.901,MST_task,2024.2.0,59.99995200665781,2026-01-17 11h26.44.896541 +0530,
,Scenes\158a.jpg,144,0,145,,,,,,,j,1.2295979000045918,0.21599580001202412,None,,,,,,145,0,144,1263.2222728999914,,,,,,,,,,,,,,,,,,,,,,,,,,,,,,1263.206529499992,1263.2222728999914,1263.7250542999827,1263.706125799974,,,,,,,,,,,,,,,,,,,,,,,,,,1263.7227541999891,1263.7250542999827,1263.7250542999827,1263.7250542999827,1266.7226044999843,j,1.2295979000045918,0.21599580001202412,1266.7226453999756,1266.7226573999797,None,,,,,,,,,,,,,,,,,00040,001,2026-01-17_11h26.33.901,MST_task,2024.2.0,59.99995200665781,2026-01-17 11h26.44.896541 +0530,
,Scenes\073a.jpg,145,0,146,,,,,,,j,0.7872619999980088,0.18462069999077357,None,,,,,,146,0,145,1266.739159699995,,,,,,,,,,,,,,,,,,,,,,,,,,,,,,1266.7227263999812,1266.739159699995,1267.2397301999736,1267.2225920999772,,,,,,,,,,,,,,,,,,,,,,,,,,1267.237133799994,1267.2397301999736,1267.2397301999736,1267.2397301999736,1270.2228989999858,j,0.7872619999980088,0.18462069999077357,1270.2229414999892,1270.2229518999811,None,1270.239165099978,1270.239165099978,1270.239165099978,,,,,,,,,,,,,,00040,001,2026-01-17_11h26.33.901,MST_task,2024.2.0,59.99995200665781,2026-01-17 11h26.44.896541 +0530,
,Scenes\081a.jpg,146,0,147,,,,,,,j,0.9409297999809496,0.19199690001551062,None,,,,,,147,0,146,1270.239165099978,,,,,,,,,,,,,,,,,,,,,,,,,,,,,,1270.223050999979,1270.239165099978,1270.741725699976,1270.7226467999863,,,,,,,,,,,,,,,,,,,,,,,,,,1270.7393741999986,1270.741725699976,1270.741725699976,1270.741725699976,1273.7394297999854,j,0.9409297999809496,0.19199690001551062,1273.7394787999801,1273.7394907999842,None,,,,,,,,,,,,,,,,,00040,001,2026-01-17_11h26.33.901,MST_task,2024.2.0,59.99995200665781,2026-01-17 11h26.44.896541 +0530,
,Objects\183a.jpg,147,0,148,,,,,,,j,1.3869640000048093,0.19999490000191145,None,,,,,,148,0,147,1273.7560136999818,,,,,,,,,,,,,,,,,,,,,,,,,,,,,,1273.7396289999888,1273.7560136999818,1274.2562765999755,1274.2394503999967,,,,,,,,,,,,,,,,,,,,,,,,,,1274.251305599988,1274.2562765999755,1274.2562765999755,1274.2562765999755,1277.2397371999978,j,1.3869640000048093,0.19999490000191145,1277.241803299985,1277.241821499978,None,1277.2558512999967,1277.2558512999967,1277.2558512999967,,,,,,,,,,,,,,00040,001,2026-01-17_11h26.33.901,MST_task,2024.2.0,59.99995200665781,2026-01-17 11h26.44.896541 +0530,
,Objects\099a.jpg,148,0,149,,,,,,,f,2.655494100006763,0.20702679999521933,None,,,,,,149,0,148,1277.2558512999967,,,,,,,,,,,,,,,,,,,,,,,,,,,,,,1277.241923900001,1277.2558512999967,1277.7560933999775,1277.7393720999826,,,,,,,,,,,,,,,,,,,,,,,,,,1277.7486732999969,1277.7560933999775,1277.7560933999775,1277.7560933999775,1280.7397699999856,f,2.655494100006763,0.20702679999521933,1280.7398103000014,1280.7398208999948,None,1280.755768299976,1280.755768299976,1280.755768299976,,,,,,,,,,,,,,00040,001,2026-01-17_11h26.33.901,MST_task,2024.2.0,59.99995200665781,2026-01-17 11h26.44.896541 +0530,
,Objects\048a.jpg,149,0,150,,,,,,,j,1.6201760999974795,0.20019040000624955,None,,,,,,150,0,149,1280.755768299976,,,,,,,,,,,,,,,,,,,,,,,,,,,,,,1280.7398851999897,1280.755768299976,1281.2560800999927,1281.2394650999922,,,,,,,,,,,,,,,,,,,,,,,,,,1281.249543199985,1281.2560800999927,1281.2560800999927,1281.2560800999927,1284.239721799997,j,1.6201760999974795,0.20019040000624955,1284.239765299979,1284.239776399976,None,1284.2558437999978,1284.2558437999978,1284.2558437999978,,,,,,,,,,,,,,00040,001,2026-01-17_11h26.33.901,MST_task,2024.2.0,59.99995200665781,2026-01-17 11h26.44.896541 +0530,
,Objects\119a.jpg,150,0,151,,,,,,,f,1.5745601000089664,0.2566923999984283,None,,,,,,151,0,150,1284.2558437999978,,,,,,,,,,,,,,,,,,,,,,,,,,,,,,1284.2398412999755,1284.2558437999978,1284.7561207999825,1284.7396051999822,,,,,,,,,,,,,,,,,,,,,,,,,,1284.748307199974,1284.7561207999825,1284.7561207999825,1284.7561207999825,1287.7397605000006,f,1.5745601000089664,0.2566923999984283,1287.7398019999964,1287.7398126999906,None,1287.7558489999792,1287.7558489999792,1287.7558489999792,,,,,,,,,,,,,,00040,001,2026-01-17_11h26.33.901,MST_task,2024.2.0,59.99995200665781,2026-01-17 11h26.44.896541 +0530,
,Objects\049a.jpg,151,0,152,,,,,,,f,1.9471392999985255,0.2320025000080932,None,,,,,,152,0,151,1287.7558489999792,,,,,,,,,,,,,,,,,,,,,,,,,,,,,,1287.7399098000024,1287.7558489999792,1288.2562786999915,1288.2395458999963,,,,,,,,,,,,,,,,,,,,,,,,,,1288.2486361999763,1288.2562786999915,1288.2562786999915,1288.2562786999915,1291.2397794999997,f,1.9471392999985255,0.2320025000080932,1291.2398191999819,1291.239829899976,None,1291.2559544999967,1291.2559544999967,1291.2559544999967,,,,,,,,,,,,,,00040,001,2026-01-17_11h26.33.901,MST_task,2024.2.0,59.99995200665781,2026-01-17 11h26.44.896541 +0530,
,Objects\084a.jpg,152,0,153,,,,,,,j,2.382658199989237,0.20796850000624545,None,,,,,,153,0,152,1291.2559544999967,,,,,,,,,,,,,,,,,,,,,,,,,,,,,,1291.2399054999987,1291.2559544999967,1291.7561913999962,1291.7395162999746,,,,,,,,,,,,,,,,,,,,,,,,,,1291.7489121999824,1291.7561913999962,1291.7561913999962,1291.7561913999962,1294.73972089999,j,2.382658199989237,0.20796850000624545,1294.7397622999852,1294.7397729999793,None,1294.755938599992,1294.755938599992,1294.755938599992,,,,,,,,,,,,,,00040,001,2026-01-17_11h26.33.901,MST_task,2024.2.0,59.99995200665781,2026-01-17 11h26.44.896541 +0530,
,Objects\128a.jpg,153,0,154,,,,,,,f,1.2032215999788605,0.22305660002166405,None,,,,,,154,0,153,1294.755938599992,,,,,,,,,,,,,,,,,,,,,,,,,,,,,,1294.7398691999842,1294.755938599992,1295.2562624999846,1295.2395290999848,,,,,,,,,,,,,,,,,,,,,,,,,,1295.2493818999792,1295.2562624999846,1295.2562624999846,1295.2562624999846,1298.2398885999864,f,1.2032215999788605,0.22305660002166405,1298.2399294999777,1298.239940599975,None,1298.2558692999883,1298.2558692999883,1298.2558692999883,,,,,,,,,,,,,,00040,001,2026-01-17_11h26.33.901,MST_task,2024.2.0,59.99995200665781,2026-01-17 11h26.44.896541 +0530,
,Scenes\088a.jpg,154,0,155,,,,,,,j,0.8066858000238426,0.19209029999910854,None,,,,,,155,0,154,1298.2558692999883,,,,,,,,,,,,,,,,,,,,,,,,,,,,,,1298.2400073999888,1298.2558692999883,1298.7639494999894,1298.7395614999987,,,,,,,,,,,,,,,,,,,,,,,,,,1298.7614879999892,1298.7639494999894,1298.7639494999894,1298.7639494999894,1301.7561971999821,j,0.8066858000238426,0.19209029999910854,1301.7579890999768,1301.758009399986,None,,,,,,,,,,,,,,,,,00040,001,2026-01-17_11h26.33.901,MST_task,2024.2.0,59.99995200665781,2026-01-17 11h26.44.896541 +0530,
,Scenes\128a.jpg,155,0,156,,,,,,,j,0.7908110999851488,0.18397740001091734,None,,,,,,156,0,155,1301.7725191999925,,,,,,,,,,,,,,,,,,,,,,,,,,,,,,1301.7581206999894,1301.7725191999925,1302.2767932999996,1302.2561319999804,,,,,,,,,,,,,,,,,,,,,,,,,,1302.2741966999893,1302.2767932999996,1302.2767932999996,1302.2767932999996,1305.2727598999918,j,0.7908110999851488,0.18397740001091734,1305.2728005999816,1305.2728118999803,None,,,,,,,,,,,,,,,,,00040,001,2026-01-17_11h26.33.901,MST_task,2024.2.0,59.99995200665781,2026-01-17 11h26.44.896541 +0530,
,Scenes\181a.jpg,156,0,157,,,,,,,f,1.2516034999862313,0.22414520001620986,None,,,,,,157,0,156,1305.289274299983,,,,,,,,,,,,,,,,,,,,,,,,,,,,,,1305.2729113999812,1305.289274299983,1305.7912234999822,1305.7728717999998,,,,,,,,,,,,,,,,,,,,,,,,,,1305.7886576999736,1305.7912234999822,1305.7912234999822,1305.7912234999822,1308.7895464999892,f,1.2516034999862313,0.22414520001620986,1308.7895886999904,1308.7896005999937,None,,,,,,,,,,,,,,,,,00040,001,2026-01-17_11h26.33.901,MST_task,2024.2.0,59.99995200665781,2026-01-17 11h26.44.896541 +0530,
,Scenes\190a.jpg,157,0,158,,,,,,,j,0.7189366999955382,0.19878890001564287,None,,,,,,158,0,157,1308.8058622999815,,,,,,,,,,,,,,,,,,,,,,,,,,,,,,1308.7896676999808,1308.8058622999815,1309.308873699978,1309.2896069999842,,,,,,,,,,,,,,,,,,,,,,,,,,1309.306455599988,1309.308873699978,1309.308873699978,1309.308873699978,1312.3061056000006,j,0.7189366999955382,0.19878890001564287,1312.3061491999833,1312.306161799992,None,,,,,,,,,,,,,,,,,00040,001,2026-01-17_11h26.33.901,MST_task,2024.2.0,59.99995200665781,2026-01-17 11h26.44.896541 +0530,
,Scenes\177a.jpg,158,0,159,,,,,,,j,0.7723125999909826,0.19199780002236366,None,,,,,,159,0,158,1312.3225816999911,,,,,,,,,,,,,,,,,,,,,,,,,,,,,,1312.306241399987,1312.3225816999911,1312.823145799979,1312.8062103999837,,,,,,,,,,,,,,,,,,,,,,,,,,1312.8205062999914,1312.823145799979,1312.823145799979,1312.823145799979,1315.8067914999847,j,0.7723125999909826,0.19199780002236366,1315.8068332999828,1315.8068454999884,None,,,,,,,,,,,,,,,,,00040,001,2026-01-17_11h26.33.901,MST_task,2024.2.0,59.99995200665781,2026-01-17 11h26.44.896541 +0530,
