thisN,thisTrialN,thisRepN,key_resp_3.keys,key_resp_3.rt,key_resp_3.duration,trials.thisRepN,trials.thisTrialN,trials.thisN,thisRow.t,notes,intro_page.started,text.started,key_resp.started,intro_page.stopped,key_resp.keys,key_resp.rt,key_resp.duration,instructions.started,text_2.started,key_resp_2.started,instructions.stopped,key_resp_2.keys,key_resp_2.rt,key_resp_2.duration,demo1.started,image_1.started,image_2.started,text_7.started,key_resp_6.started,text_9.started,demo1.stopped,key_resp_6.keys,key_resp_6.rt,key_resp_6.duration,demo2.started,image_5.started,image_6.started,text_11.started,text_12.started,key_resp_8.started,demo2.stopped,key_resp_8.keys,key_resp_8.rt,key_resp_8.duration,demo_conclusion.started,text_13.started,key_resp_9.started,demo_conclusion.stopped,key_resp_9.keys,key_resp_9.rt,key_resp_9.duration,start_test.started,text_6.started,key_resp_5.started,start_test.stopped,key_resp_5.keys,key_resp_5.rt,key_resp_5.duration,ISI.started,text_4.started,text_4.stopped,ISI.stopped,routine_1.started,image.started,text_3.started,key_resp_3.started,routine_1.stopped,image_path,position_of_stimuli,trials.key_resp_3.keys,trials.key_resp_3.rt,trials.key_resp_3.duration,End_page.started,text_5.started,key_resp_4.started,End_page.stopped,key_resp_4.keys,key_resp_4.rt,key_resp_4.duration,participant,session,date,expName,psychopyVersion,frameRate,expStart,
,,,,,,,,,,,0.001288100000238046,0.002981300000101328,0.002981300000101328,4.083731499995338,space,4.034872599993832,None,,,,,,,,,,,,,,,,,,,,,,,,,,,,,,,,,,,,,,,,,,,,,,,,,,,,,,,,,,,,,,,00043,001,2026-01-17_16h46.47.651,MST_test,2024.2.0,59.928541204032335,2026-01-17 16h46.58.369228 +0530,
,,,,,,,,,,,,,,,,,,4.083775400009472,4.09687879998819,4.09687879998819,18.47559749998618,space,14.365277100005187,None,,,,,,,,,,,,,,,,,,,,,,,,,,,,,,,,,,,,,,,,,,,,,,,,,,,,,,,,00043,001,2026-01-17_16h46.47.651,MST_test,2024.2.0,59.928541204032335,2026-01-17 16h46.58.369228 +0530,
,,,,,,,,,,,,,,,,,,,,,,,,,18.475625299994135,18.4923267000122,18.4923267000122,18.4923267000122,18.4923267000122,18.4923267000122,24.559302500012564,space,6.057164300000295,None,,,,,,,,,,,,,,,,,,,,,,,,,,,,,,,,,,,,,,,,,,,,,,00043,001,2026-01-17_16h46.47.651,MST_test,2024.2.0,59.928541204032335,2026-01-17 16h46.58.369228 +0530,
,,,,,,,,,,,,,,,,,,,,,,,,,,,,,,,,,,,24.559333000011975,24.575638300011633,24.575638300011633,24.575638300011633,24.575638300011633,24.575638300011633,28.52595189999556,space,3.935085400007665,None,,,,,,,,,,,,,,,,,,,,,,,,,,,,,,,,,,,,00043,001,2026-01-17_16h46.47.651,MST_test,2024.2.0,59.928541204032335,2026-01-17 16h46.58.369228 +0530,
,,,,,,,,,,,,,,,,,,,,,,,,,,,,,,,,,,,,,,,,,,,,,28.52597990000504,28.541751200013096,28.541751200013096,60.44223630000488,space,31.88772749999771,None,,,,,,,,,,,,,,,,,,,,,,,,,,,,,00043,001,2026-01-17_16h46.47.651,MST_test,2024.2.0,59.928541204032335,2026-01-17 16h46.58.369228 +0530,
,,,,,,,,,,,,,,,,,,,,,,,,,,,,,,,,,,,,,,,,,,,,,,,,,,,,60.44226750000962,60.45859749999363,60.45859749999363,122.49251010001171,space,62.01885160000529,None,,,,,,,,,,,,,,,,,,,,,,00043,001,2026-01-17_16h46.47.651,MST_test,2024.2.0,59.928541204032335,2026-01-17 16h46.58.369228 +0530,
0,0,1,n,30.739525699988008,None,1,0,0,122.50855050000246,,,,,,,,,,,,,,,,,,,,,,,,,,,,,,,,,,,,,,,,,,,,,,,,,,122.49652720001177,122.50855050000246,123.01851640001405,122.99215659999754,123.0161766000092,123.01851640001405,123.01851640001405,123.01851640001405,153.75921079999534,Scenes\045b.jpg,pre,n,30.739525699988008,None,,,,,,,,00043,001,2026-01-17_16h46.47.651,MST_test,2024.2.0,59.928541204032335,2026-01-17 16h46.58.369228 +0530,
1,0,2,s,8.394390799978282,None,2,0,1,153.77518850000342,,,,,,,,,,,,,,,,,,,,,,,,,,,,,,,,,,,,,,,,,,,,,,,,,,153.75930649999646,153.77518850000342,154.27548109999043,154.25880999999936,154.27109080000082,154.27548109999043,154.27548109999043,154.27548109999043,162.67604250001023,Foils\scenes6.jpg,none,s,8.394390799978282,None,,,,,,,,00043,001,2026-01-17_16h46.47.651,MST_test,2024.2.0,59.928541204032335,2026-01-17 16h46.58.369228 +0530,
2,0,3,n,3.1214666000159923,None,3,0,2,162.69177070001024,,,,,,,,,,,,,,,,,,,,,,,,,,,,,,,,,,,,,,,,,,,,,,,,,,162.67613730000448,162.69177070001024,163.26085009999224,163.17548299999908,163.257798000006,163.26085009999224,163.26085009999224,163.26085009999224,166.39255399999092,Foils\scenes25.jpg,none,n,3.1214666000159923,None,,,,,,,,00043,001,2026-01-17_16h46.47.651,MST_test,2024.2.0,59.928541204032335,2026-01-17 16h46.58.369228 +0530,
3,0,4,s,3.8922527999966405,None,4,0,3,166.40849380000145,,,,,,,,,,,,,,,,,,,,,,,,,,,,,,,,,,,,,,,,,,,,,,,,,,166.39265309998882,166.40849380000145,166.91363860000274,166.89210600001388,166.91177860001335,166.91363860000274,166.91363860000274,166.91363860000274,170.80918459998793,Objects\005a.jpg,post,s,3.8922527999966405,None,,,,,,,,00043,001,2026-01-17_16h46.47.651,MST_test,2024.2.0,59.928541204032335,2026-01-17 16h46.58.369228 +0530,
4,0,5,s,6.896442599972943,None,5,0,4,170.82517910000752,,,,,,,,,,,,,,,,,,,,,,,,,,,,,,,,,,,,,,,,,,,,,,,,,,170.80927900000825,170.82517910000752,171.32545659999596,171.30884569999762,171.31886020000093,171.32545659999596,171.32545659999596,171.32545659999596,178.22600900000543,Objects\115b.jpg,pre,s,6.896442599972943,None,,,,,,,,00043,001,2026-01-17_16h46.47.651,MST_test,2024.2.0,59.928541204032335,2026-01-17 16h46.58.369228 +0530,
5,0,6,o,7.552508399996441,None,6,0,5,178.241746899992,,,,,,,,,,,,,,,,,,,,,,,,,,,,,,,,,,,,,,,,,,,,,,,,,,178.22611769998912,178.241746899992,178.74258379999083,178.72552199999336,178.73899390001316,178.74258379999083,178.74258379999083,178.74258379999083,186.30909550000797,Scenes\141b.jpg,pre,o,7.552508399996441,None,,,,,,,,00043,001,2026-01-17_16h46.47.651,MST_test,2024.2.0,59.928541204032335,2026-01-17 16h46.58.369228 +0530,
6,0,7,o,3.924290499999188,None,7,0,6,186.32525530000567,,,,,,,,,,,,,,,,,,,,,,,,,,,,,,,,,,,,,,,,,,,,,,,,,,186.30918849998852,186.32525530000567,186.82568179999362,186.80879619999905,186.81237200001488,186.82568179999362,186.82568179999362,186.82568179999362,190.75921819999348,Objects\033a.jpg,mid,o,3.924290499999188,None,,,,,,,,00043,001,2026-01-17_16h46.47.651,MST_test,2024.2.0,59.928541204032335,2026-01-17 16h46.58.369228 +0530,
7,0,8,o,2.0030021000129636,None,8,0,7,190.77525100001367,,,,,,,,,,,,,,,,,,,,,,,,,,,,,,,,,,,,,,,,,,,,,,,,,,190.75932310000644,190.77525100001367,191.27539379999507,191.25883589999285,191.26785040000686,191.27539379999507,191.27539379999507,191.27539379999507,193.29251150001073,Objects\157a.jpg,post,o,2.0030021000129636,None,,,,,,,,00043,001,2026-01-17_16h46.47.651,MST_test,2024.2.0,59.928541204032335,2026-01-17 16h46.58.369228 +0530,
8,0,9,o,1.43656010000268,None,9,0,8,193.30864169998677,,,,,,,,,,,,,,,,,,,,,,,,,,,,,,,,,,,,,,,,,,,,,,,,,,193.29261239999323,193.30864169998677,193.80895760000567,193.79203969999799,193.79574090000824,193.80895760000567,193.80895760000567,193.80895760000567,195.2591831999889,Objects\066a.jpg,post,o,1.43656010000268,None,,,,,,,,00043,001,2026-01-17_16h46.47.651,MST_test,2024.2.0,59.928541204032335,2026-01-17 16h46.58.369228 +0530,
9,0,10,o,1.197920000005979,None,10,0,9,195.2752080000064,,,,,,,,,,,,,,,,,,,,,,,,,,,,,,,,,,,,,,,,,,,,,,,,,,195.25927629999933,195.2752080000064,195.77565210001194,195.7589619999926,195.76941010000883,195.77565210001194,195.77565210001194,195.77565210001194,196.97591710000415,Objects\173a.jpg,mid,o,1.197920000005979,None,,,,,,,,00043,001,2026-01-17_16h46.47.651,MST_test,2024.2.0,59.928541204032335,2026-01-17 16h46.58.369228 +0530,
10,0,11,s,7.282217599975411,None,11,0,10,196.9921311000071,,,,,,,,,,,,,,,,,,,,,,,,,,,,,,,,,,,,,,,,,,,,,,,,,,196.97601159999613,196.9921311000071,197.49219670001185,197.47576500001014,197.4788499000133,197.49219670001185,197.49219670001185,197.49219670001185,204.77591440000106,Objects\036a.jpg,post,s,7.282217599975411,None,,,,,,,,00043,001,2026-01-17_16h46.47.651,MST_test,2024.2.0,59.928541204032335,2026-01-17 16h46.58.369228 +0530,
11,0,12,s,3.305142600002,None,12,0,11,204.7920112000138,,,,,,,,,,,,,,,,,,,,,,,,,,,,,,,,,,,,,,,,,,,,,,,,,,204.77600959999836,204.7920112000138,205.29228809999768,205.27573880000273,205.285659199988,205.29228809999768,205.29228809999768,205.29228809999768,208.60916459999862,Objects\126b.jpg,post,s,3.305142600002,None,,,,,,,,00043,001,2026-01-17_16h46.47.651,MST_test,2024.2.0,59.928541204032335,2026-01-17 16h46.58.369228 +0530,
12,0,13,n,3.6851524999947287,None,13,0,12,208.62534999998752,,,,,,,,,,,,,,,,,,,,,,,,,,,,,,,,,,,,,,,,,,,,,,,,,,208.60925869998755,208.62534999998752,209.12881009999546,209.10892729999614,209.1266551000008,209.12881009999546,209.12881009999546,209.12881009999546,212.82606150000356,Scenes\164b.jpg,pre,n,3.6851524999947287,None,,,,,,,,00043,001,2026-01-17_16h46.47.651,MST_test,2024.2.0,59.928541204032335,2026-01-17 16h46.58.369228 +0530,
13,0,14,s,4.054897599999094,None,14,0,13,212.8419326999865,,,,,,,,,,,,,,,,,,,,,,,,,,,,,,,,,,,,,,,,,,,,,,,,,,212.82615670000087,212.8419326999865,213.34253049999825,213.32565010001417,213.335719900002,213.34253049999825,213.34253049999825,213.34253049999825,217.4094349000079,Objects\149b.jpg,mid,s,4.054897599999094,None,,,,,,,,00043,001,2026-01-17_16h46.47.651,MST_test,2024.2.0,59.928541204032335,2026-01-17 16h46.58.369228 +0530,
14,0,15,n,2.568022999999812,None,15,0,14,217.4253386000055,,,,,,,,,,,,,,,,,,,,,,,,,,,,,,,,,,,,,,,,,,,,,,,,,,217.4095285999938,217.4253386000055,217.9257157999964,217.9088183999993,217.9173323000141,217.9257157999964,217.9257157999964,217.9257157999964,220.50920790000237,Foils\scenes4.jpg,none,n,2.568022999999812,None,,,,,,,,00043,001,2026-01-17_16h46.47.651,MST_test,2024.2.0,59.928541204032335,2026-01-17 16h46.58.369228 +0530,
15,0,16,n,1.5720949999813456,None,16,0,15,220.52536490000784,,,,,,,,,,,,,,,,,,,,,,,,,,,,,,,,,,,,,,,,,,,,,,,,,,220.50930090001202,220.52536490000784,221.02561680000508,221.00887990000774,221.01910760000465,221.02561680000508,221.02561680000508,221.02561680000508,222.60917800001334,Foils\002a.jpg,none,n,1.5720949999813456,None,,,,,,,,00043,001,2026-01-17_16h46.47.651,MST_test,2024.2.0,59.928541204032335,2026-01-17 16h46.58.369228 +0530,
16,0,17,n,3.2147726000112016,None,17,0,16,222.62521379999816,,,,,,,,,,,,,,,,,,,,,,,,,,,,,,,,,,,,,,,,,,,,,,,,,,222.60928800000693,222.62521379999816,223.12663089999114,223.1089590000047,223.12438170000678,223.12663089999114,223.12663089999114,223.12663089999114,226.34277170000132,Foils\scenes27.jpg,none,n,3.2147726000112016,None,,,,,,,,00043,001,2026-01-17_16h46.47.651,MST_test,2024.2.0,59.928541204032335,2026-01-17 16h46.58.369228 +0530,
17,0,18,n,2.8981060000078287,None,18,0,17,226.35875109999324,,,,,,,,,,,,,,,,,,,,,,,,,,,,,,,,,,,,,,,,,,,,,,,,,,226.34286710000015,226.35875109999324,226.86087309999857,226.84202020001248,226.85858090000693,226.86087309999857,226.86087309999857,226.86087309999857,229.77579980000155,Scenes\161b.jpg,mid,n,2.8981060000078287,None,,,,,,,,00043,001,2026-01-17_16h46.47.651,MST_test,2024.2.0,59.928541204032335,2026-01-17 16h46.58.369228 +0530,
18,0,19,s,1.84023570001591,None,19,0,18,229.79180440001073,,,,,,,,,,,,,,,,,,,,,,,,,,,,,,,,,,,,,,,,,,,,,,,,,,229.77589469999657,229.79180440001073,230.29339780000737,230.2755879999895,230.2913750000007,230.29339780000737,230.29339780000737,230.29339780000737,232.14229459999478,Scenes\068b.jpg,mid,s,1.84023570001591,None,,,,,,,,00043,001,2026-01-17_16h46.47.651,MST_test,2024.2.0,59.928541204032335,2026-01-17 16h46.58.369228 +0530,
19,0,20,n,3.6190792999987025,None,20,0,19,232.15859139998793,,,,,,,,,,,,,,,,,,,,,,,,,,,,,,,,,,,,,,,,,,,,,,,,,,232.14238830000977,232.15859139998793,232.65914500001236,232.64205490000313,232.65136210000492,232.65914500001236,232.65914500001236,232.65914500001236,236.2923945999937,Foils\scenes5.jpg,none,n,3.6190792999987025,None,,,,,,,,00043,001,2026-01-17_16h46.47.651,MST_test,2024.2.0,59.928541204032335,2026-01-17 16h46.58.369228 +0530,
20,0,21,o,2.505624600016745,None,21,0,20,236.3085973999987,,,,,,,,,,,,,,,,,,,,,,,,,,,,,,,,,,,,,,,,,,,,,,,,,,236.29248740000185,236.3085973999987,236.81196319998708,236.7920665999991,236.8098733999941,236.81196319998708,236.81196319998708,236.81196319998708,239.32580699998653,Scenes\043b.jpg,mid,o,2.505624600016745,None,,,,,,,,00043,001,2026-01-17_16h46.47.651,MST_test,2024.2.0,59.928541204032335,2026-01-17 16h46.58.369228 +0530,
21,0,22,s,2.1960252999851946,None,22,0,21,239.34209349998855,,,,,,,,,,,,,,,,,,,,,,,,,,,,,,,,,,,,,,,,,,,,,,,,,,239.3259007000015,239.34209349998855,239.84260569998878,239.82550169999013,239.83969709998928,239.84260569998878,239.84260569998878,239.84260569998878,242.042534600012,Scenes\111a.jpg,mid,s,2.1960252999851946,None,,,,,,,,00043,001,2026-01-17_16h46.47.651,MST_test,2024.2.0,59.928541204032335,2026-01-17 16h46.58.369228 +0530,
22,0,23,o,9.590564900019672,None,23,0,22,242.05858579999767,,,,,,,,,,,,,,,,,,,,,,,,,,,,,,,,,,,,,,,,,,,,,,,,,,242.04262950000702,242.05858579999767,242.55924249999225,242.54204289999325,242.55119299999205,242.55924249999225,242.55924249999225,242.55924249999225,252.159169999999,Objects\109a.jpg,mid,o,9.590564900019672,None,,,,,,,,00043,001,2026-01-17_16h46.47.651,MST_test,2024.2.0,59.928541204032335,2026-01-17 16h46.58.369228 +0530,
23,0,24,s,2.530530499992892,None,24,0,23,252.17524760001106,,,,,,,,,,,,,,,,,,,,,,,,,,,,,,,,,,,,,,,,,,,,,,,,,,252.15926360001322,252.17524760001106,252.67547600000398,252.65885760000674,252.6682732999907,252.67547600000398,252.67547600000398,252.67547600000398,255.20923760000733,Objects\044b.jpg,pre,s,2.530530499992892,None,,,,,,,,00043,001,2026-01-17_16h46.47.651,MST_test,2024.2.0,59.928541204032335,2026-01-17 16h46.58.369228 +0530,
24,0,25,s,4.136458299995866,None,25,0,24,255.22517369998968,,,,,,,,,,,,,,,,,,,,,,,,,,,,,,,,,,,,,,,,,,,,,,,,,,255.20933640000294,255.22517369998968,255.72550490000867,255.70905390000553,255.72063550000894,255.72550490000867,255.72550490000867,255.72550490000867,259.8758390000148,Objects\138b.jpg,pre,s,4.136458299995866,None,,,,,,,,00043,001,2026-01-17_16h46.47.651,MST_test,2024.2.0,59.928541204032335,2026-01-17 16h46.58.369228 +0530,
25,0,26,n,4.04966869999771,None,26,0,25,259.8917941999971,,,,,,,,,,,,,,,,,,,,,,,,,,,,,,,,,,,,,,,,,,,,,,,,,,259.87593410001136,259.8917941999971,260.3964802999981,260.3755341999931,260.3944316999987,260.3964802999981,260.3964802999981,260.3964802999981,264.4590856000141,Scenes\046b.jpg,post,n,4.04966869999771,None,,,,,,,,00043,001,2026-01-17_16h46.47.651,MST_test,2024.2.0,59.928541204032335,2026-01-17 16h46.58.369228 +0530,
26,0,27,n,1.6550093999831006,None,27,0,26,264.475256900012,,,,,,,,,,,,,,,,,,,,,,,,,,,,,,,,,,,,,,,,,,,,,,,,,,264.45918350000284,264.475256900012,264.9757687000092,264.95885490000364,264.96862649999093,264.9757687000092,264.9757687000092,264.9757687000092,266.6423028999998,Foils\033a.jpg,none,n,1.6550093999831006,None,,,,,,,,00043,001,2026-01-17_16h46.47.651,MST_test,2024.2.0,59.928541204032335,2026-01-17 16h46.58.369228 +0530,
27,0,28,n,4.186205100006191,None,28,0,27,266.6585866000096,,,,,,,,,,,,,,,,,,,,,,,,,,,,,,,,,,,,,,,,,,,,,,,,,,266.64239560000715,266.6585866000096,267.1640117999923,267.1421384999994,267.16191419999814,267.1640117999923,267.1640117999923,267.1640117999923,271.35929540000507,Scenes\088b.jpg,mid,n,4.186205100006191,None,,,,,,,,00043,001,2026-01-17_16h46.47.651,MST_test,2024.2.0,59.928541204032335,2026-01-17 16h46.58.369228 +0530,
28,0,29,s,2.7937963000149466,None,29,0,28,271.37589429999935,,,,,,,,,,,,,,,,,,,,,,,,,,,,,,,,,,,,,,,,,,,,,,,,,,271.3594254000054,271.37589429999935,271.87581689999206,271.8588519000041,271.8659184999997,271.87581689999206,271.87581689999206,271.87581689999206,274.6758559999871,Scenes\168a.jpg,mid,s,2.7937963000149466,None,,,,,,,,00043,001,2026-01-17_16h46.47.651,MST_test,2024.2.0,59.928541204032335,2026-01-17 16h46.58.369228 +0530,
29,0,30,s,2.4458579999918584,None,30,0,29,274.6917725999956,,,,,,,,,,,,,,,,,,,,,,,,,,,,,,,,,,,,,,,,,,,,,,,,,,274.67595060000895,274.6917725999956,275.192254900001,275.17560960000264,275.1860457000148,275.192254900001,275.192254900001,275.192254900001,277.642453700013,Objects\089b.jpg,post,s,2.4458579999918584,None,,,,,,,,00043,001,2026-01-17_16h46.47.651,MST_test,2024.2.0,59.928541204032335,2026-01-17 16h46.58.369228 +0530,
30,0,31,n,1.2551335000025574,None,31,0,30,277.65859239999554,,,,,,,,,,,,,,,,,,,,,,,,,,,,,,,,,,,,,,,,,,,,,,,,,,277.64254850000725,277.65859239999554,278.15882109999075,278.1421493999951,278.1513294999895,278.15882109999075,278.15882109999075,278.15882109999075,279.42581839999184,Foils\009a.jpg,none,n,1.2551335000025574,None,,,,,,,,00043,001,2026-01-17_16h46.47.651,MST_test,2024.2.0,59.928541204032335,2026-01-17 16h46.58.369228 +0530,
31,0,32,n,3.3765309000154957,None,32,0,31,279.4417048000032,,,,,,,,,,,,,,,,,,,,,,,,,,,,,,,,,,,,,,,,,,,,,,,,,,279.42592320000404,279.4417048000032,279.94225029999507,279.925685299997,279.9355407000112,279.94225029999507,279.94225029999507,279.94225029999507,283.32586750001065,Objects\064a.jpg,pre,n,3.3765309000154957,None,,,,,,,,00043,001,2026-01-17_16h46.47.651,MST_test,2024.2.0,59.928541204032335,2026-01-17 16h46.58.369228 +0530,
32,0,33,n,1.7290892000019085,None,33,0,32,283.3418085000012,,,,,,,,,,,,,,,,,,,,,,,,,,,,,,,,,,,,,,,,,,,,,,,,,,283.32595960001345,283.3418085000012,283.8450467000075,283.8255400999915,283.84302800000296,283.8450467000075,283.8450467000075,283.8450467000075,285.575786100002,Scenes\090b.jpg,post,n,1.7290892000019085,None,,,,,,,,00043,001,2026-01-17_16h46.47.651,MST_test,2024.2.0,59.928541204032335,2026-01-17 16h46.58.369228 +0530,
33,0,34,o,1.5586792000103742,None,34,0,33,285.59186789998785,,,,,,,,,,,,,,,,,,,,,,,,,,,,,,,,,,,,,,,,,,,,,,,,,,285.5758782000048,285.59186789998785,286.0957419000042,286.0754822999879,286.0934833000065,286.0957419000042,286.0957419000042,286.0957419000042,287.6591483000084,Scenes\054b.jpg,pre,o,1.5586792000103742,None,,,,,,,,00043,001,2026-01-17_16h46.47.651,MST_test,2024.2.0,59.928541204032335,2026-01-17 16h46.58.369228 +0530,
34,0,35,s,1.613838500023121,None,35,0,34,287.6753946999961,,,,,,,,,,,,,,,,,,,,,,,,,,,,,,,,,,,,,,,,,,,,,,,,,,287.6592421999958,287.6753946999961,288.17571619999944,288.1588109000004,288.16219249999267,288.17571619999944,288.17571619999944,288.17571619999944,289.7923831999942,Objects\048a.jpg,pre,s,1.613838500023121,None,,,,,,,,00043,001,2026-01-17_16h46.47.651,MST_test,2024.2.0,59.928541204032335,2026-01-17 16h46.58.369228 +0530,
35,0,36,o,1.6296313000202645,None,36,0,35,289.8085968999949,,,,,,,,,,,,,,,,,,,,,,,,,,,,,,,,,,,,,,,,,,,,,,,,,,289.7924766000069,289.8085968999949,290.31231050001225,290.2920528000104,290.3099927000003,290.31231050001225,290.31231050001225,290.31231050001225,291.9426844000118,Scenes\066b.jpg,pre,o,1.6296313000202645,None,,,,,,,,00043,001,2026-01-17_16h46.47.651,MST_test,2024.2.0,59.928541204032335,2026-01-17 16h46.58.369228 +0530,
36,0,37,n,3.4000529999902938,None,37,0,36,291.958544299996,,,,,,,,,,,,,,,,,,,,,,,,,,,,,,,,,,,,,,,,,,,,,,,,,,291.9427805999876,291.958544299996,292.4621066999971,292.4421086999937,292.4596601999947,292.4621066999971,292.4621066999971,292.4621066999971,295.8760222000128,Scenes\082b.jpg,pre,n,3.4000529999902938,None,,,,,,,,00043,001,2026-01-17_16h46.47.651,MST_test,2024.2.0,59.928541204032335,2026-01-17 16h46.58.369228 +0530,
37,0,38,o,3.2134934999921825,None,38,0,37,295.891829900007,,,,,,,,,,,,,,,,,,,,,,,,,,,,,,,,,,,,,,,,,,,,,,,,,,295.8761330000125,295.891829900007,296.3924323999963,296.37556000001496,296.3848975999863,296.3924323999963,296.3924323999963,296.3924323999963,299.60920310000074,Objects\101a.jpg,pre,o,3.2134934999921825,None,,,,,,,,00043,001,2026-01-17_16h46.47.651,MST_test,2024.2.0,59.928541204032335,2026-01-17 16h46.58.369228 +0530,
38,0,39,n,1.4960297000070568,None,39,0,38,299.62523820000933,,,,,,,,,,,,,,,,,,,,,,,,,,,,,,,,,,,,,,,,,,,,,,,,,,299.6092999000102,299.62523820000933,300.12549710000167,300.10895960000926,300.11827999999514,300.12549710000167,300.12549710000167,300.12549710000167,301.62586969998665,Foils\058a.jpg,none,n,1.4960297000070568,None,,,,,,,,00043,001,2026-01-17_16h46.47.651,MST_test,2024.2.0,59.928541204032335,2026-01-17 16h46.58.369228 +0530,
39,0,40,o,2.4565696000063326,None,40,0,39,301.6417533000058,,,,,,,,,,,,,,,,,,,,,,,,,,,,,,,,,,,,,,,,,,,,,,,,,,301.62596830000984,301.6417533000058,302.14193740001065,302.1255051000044,302.1345372000069,302.14193740001065,302.14193740001065,302.14193740001065,304.6091686,Objects\185b.jpg,mid,o,2.4565696000063326,None,,,,,,,,00043,001,2026-01-17_16h46.47.651,MST_test,2024.2.0,59.928541204032335,2026-01-17 16h46.58.369228 +0530,
40,0,41,n,5.000317400001222,None,41,0,40,304.62526820000494,,,,,,,,,,,,,,,,,,,,,,,,,,,,,,,,,,,,,,,,,,,,,,,,,,304.6092609000043,304.62526820000494,305.1257670999912,305.10884599998826,305.12229329999536,305.1257670999912,305.1257670999912,305.1257670999912,310.1425096000021,Scenes\169a.jpg,mid,n,5.000317400001222,None,,,,,,,,00043,001,2026-01-17_16h46.47.651,MST_test,2024.2.0,59.928541204032335,2026-01-17 16h46.58.369228 +0530,
41,0,42,o,2.810907800012501,None,42,0,41,310.1586174000113,,,,,,,,,,,,,,,,,,,,,,,,,,,,,,,,,,,,,,,,,,,,,,,,,,310.1426105000137,310.1586174000113,310.65906639999594,310.6422130000137,310.64553450001404,310.65906639999594,310.65906639999594,310.65906639999594,313.4759674000088,Objects\029a.jpg,mid,o,2.810907800012501,None,,,,,,,,00043,001,2026-01-17_16h46.47.651,MST_test,2024.2.0,59.928541204032335,2026-01-17 16h46.58.369228 +0530,
42,0,43,o,3.2058402999828104,None,43,0,42,313.4917815999943,,,,,,,,,,,,,,,,,,,,,,,,,,,,,,,,,,,,,,,,,,,,,,,,,,313.4760607999924,313.4917815999943,313.99236100001144,313.97546069999225,313.98280600001453,313.99236100001144,313.99236100001144,313.99236100001144,317.20935240000836,Scenes\101a.jpg,mid,o,3.2058402999828104,None,,,,,,,,00043,001,2026-01-17_16h46.47.651,MST_test,2024.2.0,59.928541204032335,2026-01-17 16h46.58.369228 +0530,
43,0,44,n,6.015731200022856,None,44,0,43,317.2253242000006,,,,,,,,,,,,,,,,,,,,,,,,,,,,,,,,,,,,,,,,,,,,,,,,,,317.20945719999145,317.2253242000006,317.72566870000446,317.70895840000594,317.7225422000047,317.72566870000446,317.72566870000446,317.72566870000446,323.74278560001403,Scenes\180b.jpg,pre,n,6.015731200022856,None,,,,,,,,00043,001,2026-01-17_16h46.47.651,MST_test,2024.2.0,59.928541204032335,2026-01-17 16h46.58.369228 +0530,
44,0,45,n,1.8665454000001773,None,45,0,44,323.7586353000079,,,,,,,,,,,,,,,,,,,,,,,,,,,,,,,,,,,,,,,,,,,,,,,,,,323.7428818999906,323.7586353000079,324.25920430000406,324.24227509999764,324.25153229999705,324.25920430000406,324.25920430000406,324.25920430000406,326.14243360000546,Foils\scenes12.jpg,none,n,1.8665454000001773,None,,,,,,,,00043,001,2026-01-17_16h46.47.651,MST_test,2024.2.0,59.928541204032335,2026-01-17 16h46.58.369228 +0530,
45,0,46,s,1.5686429999768734,None,46,0,45,326.15869899999234,,,,,,,,,,,,,,,,,,,,,,,,,,,,,,,,,,,,,,,,,,,,,,,,,,326.1425328000041,326.15869899999234,326.6615310999914,326.6425018000009,326.65925759999664,326.6615310999914,326.6615310999914,326.6615310999914,328.2425701000029,Scenes\084a.jpg,mid,s,1.5686429999768734,None,,,,,,,,00043,001,2026-01-17_16h46.47.651,MST_test,2024.2.0,59.928541204032335,2026-01-17 16h46.58.369228 +0530,
46,0,47,o,1.1910614999942482,None,47,0,46,328.25870760000544,,,,,,,,,,,,,,,,,,,,,,,,,,,,,,,,,,,,,,,,,,,,,,,,,,328.24266419999185,328.25870760000544,328.75919549999526,328.74252420000266,328.7522833000112,328.75919549999526,328.75919549999526,328.75919549999526,329.9595663000073,Objects\075a.jpg,post,o,1.1910614999942482,None,,,,,,,,00043,001,2026-01-17_16h46.47.651,MST_test,2024.2.0,59.928541204032335,2026-01-17 16h46.58.369228 +0530,
47,0,48,n,1.3226028000062797,None,48,0,47,329.9753786000074,,,,,,,,,,,,,,,,,,,,,,,,,,,,,,,,,,,,,,,,,,,,,,,,,,329.95967750001,329.9753786000074,330.4756453000009,330.45889730000636,330.4677903999982,330.4756453000009,330.4756453000009,330.4756453000009,331.809276999993,Foils\113a.jpg,none,n,1.3226028000062797,None,,,,,,,,00043,001,2026-01-17_16h46.47.651,MST_test,2024.2.0,59.928541204032335,2026-01-17 16h46.58.369228 +0530,
48,0,49,s,3.5043446000199765,None,49,0,48,331.8254360000137,,,,,,,,,,,,,,,,,,,,,,,,,,,,,,,,,,,,,,,,,,,,,,,,,,331.8093724999926,331.8254360000137,332.3256687000103,332.3089702000143,332.31811290001497,332.3256687000103,332.3256687000103,332.3256687000103,335.842444000009,Objects\027a.jpg,pre,s,3.5043446000199765,None,,,,,,,,00043,001,2026-01-17_16h46.47.651,MST_test,2024.2.0,59.928541204032335,2026-01-17 16h46.58.369228 +0530,
49,0,50,s,1.8913869999814779,None,50,0,49,335.8587152000109,,,,,,,,,,,,,,,,,,,,,,,,,,,,,,,,,,,,,,,,,,,,,,,,,,335.84254710000823,335.8587152000109,336.3619894000003,336.3423812999972,336.3599588999932,336.3619894000003,336.3619894000003,336.3619894000003,338.2593162000121,Scenes\109b.jpg,pre,s,1.8913869999814779,None,,,,,,,,00043,001,2026-01-17_16h46.47.651,MST_test,2024.2.0,59.928541204032335,2026-01-17 16h46.58.369228 +0530,
50,0,51,n,2.494646900013322,None,51,0,50,338.27535869998974,,,,,,,,,,,,,,,,,,,,,,,,,,,,,,,,,,,,,,,,,,,,,,,,,,338.25941050000256,338.27535869998974,338.7758021999907,338.7590063000098,338.7677870999905,338.7758021999907,338.7758021999907,338.7758021999907,341.2759040000092,Foils\scenes30.jpg,none,n,2.494646900013322,None,,,,,,,,00043,001,2026-01-17_16h46.47.651,MST_test,2024.2.0,59.928541204032335,2026-01-17 16h46.58.369228 +0530,
51,0,52,s,1.6850526000198442,None,52,0,51,341.29205190000357,,,,,,,,,,,,,,,,,,,,,,,,,,,,,,,,,,,,,,,,,,,,,,,,,,341.27599799999734,341.29205190000357,341.7923787999898,341.7756006999989,341.78610309999203,341.7923787999898,341.7923787999898,341.7923787999898,343.49265199998626,Objects\068b.jpg,post,s,1.6850526000198442,None,,,,,,,,00043,001,2026-01-17_16h46.47.651,MST_test,2024.2.0,59.928541204032335,2026-01-17 16h46.58.369228 +0530,
52,0,53,o,1.5247334000014234,None,53,0,52,343.5089999999909,,,,,,,,,,,,,,,,,,,,,,,,,,,,,,,,,,,,,,,,,,,,,,,,,,343.49274829999194,343.5089999999909,344.0091989999928,343.9921278000111,343.9991336000094,344.0091989999928,344.0091989999928,344.0091989999928,345.54263589999755,Scenes\006a.jpg,pre,o,1.5247334000014234,None,,,,,,,,00043,001,2026-01-17_16h46.47.651,MST_test,2024.2.0,59.928541204032335,2026-01-17 16h46.58.369228 +0530,
53,0,54,n,1.7227308999863453,None,54,0,53,345.55863680000766,,,,,,,,,,,,,,,,,,,,,,,,,,,,,,,,,,,,,,,,,,,,,,,,,,345.54273580000154,345.55863680000766,346.05918660000316,346.04221809998853,346.05219039999065,346.05918660000316,346.05918660000316,346.05918660000316,347.7924490000005,Foils\065a.jpg,none,n,1.7227308999863453,None,,,,,,,,00043,001,2026-01-17_16h46.47.651,MST_test,2024.2.0,59.928541204032335,2026-01-17 16h46.58.369228 +0530,
54,0,55,n,2.472643800021615,None,55,0,54,347.80873099999735,,,,,,,,,,,,,,,,,,,,,,,,,,,,,,,,,,,,,,,,,,,,,,,,,,347.79254170000786,347.80873099999735,348.3090964000148,348.29228069999954,348.30566559999716,348.3090964000148,348.3090964000148,348.3090964000148,350.79246950001107,Scenes\163b.jpg,post,n,2.472643800021615,None,,,,,,,,00043,001,2026-01-17_16h46.47.651,MST_test,2024.2.0,59.928541204032335,2026-01-17 16h46.58.369228 +0530,
55,0,56,n,1.05633660001331,None,56,0,55,350.8087396000046,,,,,,,,,,,,,,,,,,,,,,,,,,,,,,,,,,,,,,,,,,,,,,,,,,350.79256480000913,350.8087396000046,351.309056099999,351.2922346999985,351.30192880000686,351.309056099999,351.309056099999,351.309056099999,352.3760537999915,Objects\192a.jpg,post,n,1.05633660001331,None,,,,,,,,00043,001,2026-01-17_16h46.47.651,MST_test,2024.2.0,59.928541204032335,2026-01-17 16h46.58.369228 +0530,
56,0,57,s,2.5133716999844182,None,57,0,56,352.39204400000744,,,,,,,,,,,,,,,,,,,,,,,,,,,,,,,,,,,,,,,,,,,,,,,,,,352.37614599999506,352.39204400000744,352.8925395999977,352.87570880001294,352.88141420000466,352.8925395999977,352.8925395999977,352.8925395999977,355.4093389000045,Scenes\079a.jpg,post,s,2.5133716999844182,None,,,,,,,,00043,001,2026-01-17_16h46.47.651,MST_test,2024.2.0,59.928541204032335,2026-01-17 16h46.58.369228 +0530,
57,0,58,n,1.727599800011376,None,58,0,57,355.42540619999636,,,,,,,,,,,,,,,,,,,,,,,,,,,,,,,,,,,,,,,,,,,,,,,,,,355.4094341000018,355.42540619999636,355.9259227000002,355.90900789998705,355.92230979999295,355.9259227000002,355.9259227000002,355.9259227000002,357.6592714000144,Scenes\049b.jpg,pre,n,1.727599800011376,None,,,,,,,,00043,001,2026-01-17_16h46.47.651,MST_test,2024.2.0,59.928541204032335,2026-01-17 16h46.58.369228 +0530,
58,0,59,o,2.114210500003537,None,59,0,58,357.6753893000132,,,,,,,,,,,,,,,,,,,,,,,,,,,,,,,,,,,,,,,,,,,,,,,,,,357.65936540000257,357.6753893000132,358.1797149000049,358.15892849999364,358.17752570001176,358.1797149000049,358.1797149000049,358.1797149000049,360.3092501999927,Scenes\089a.jpg,post,o,2.114210500003537,None,,,,,,,,00043,001,2026-01-17_16h46.47.651,MST_test,2024.2.0,59.928541204032335,2026-01-17 16h46.58.369228 +0530,
59,0,60,n,1.6611329999868758,None,60,0,59,360.3252832000144,,,,,,,,,,,,,,,,,,,,,,,,,,,,,,,,,,,,,,,,,,,,,,,,,,360.30934649999836,360.3252832000144,360.825888899999,360.8089820999885,360.8184548999998,360.825888899999,360.825888899999,360.825888899999,362.4925833999878,Foils\026a.jpg,none,n,1.6611329999868758,None,,,,,,,,00043,001,2026-01-17_16h46.47.651,MST_test,2024.2.0,59.928541204032335,2026-01-17 16h46.58.369228 +0530,
60,0,61,o,1.2698603000026196,None,61,0,60,362.5086880000017,,,,,,,,,,,,,,,,,,,,,,,,,,,,,,,,,,,,,,,,,,,,,,,,,,362.49267969999346,362.5086880000017,363.0089379000128,362.9921624000126,363.0010409000097,363.0089379000128,363.0089379000128,363.0089379000128,364.2924239000131,Objects\043b.jpg,mid,o,1.2698603000026196,None,,,,,,,,00043,001,2026-01-17_16h46.47.651,MST_test,2024.2.0,59.928541204032335,2026-01-17 16h46.58.369228 +0530,
61,0,62,n,1.5898783000011463,None,62,0,61,364.30866479998804,,,,,,,,,,,,,,,,,,,,,,,,,,,,,,,,,,,,,,,,,,,,,,,,,,364.29251840000506,364.30866479998804,364.80901170001016,364.79235209999024,364.8021543000068,364.80901170001016,364.80901170001016,364.80901170001016,366.40933160000714,Foils\010a.jpg,none,n,1.5898783000011463,None,,,,,,,,00043,001,2026-01-17_16h46.47.651,MST_test,2024.2.0,59.928541204032335,2026-01-17 16h46.58.369228 +0530,
62,0,63,s,2.511596299998928,None,63,0,62,366.4254490000021,,,,,,,,,,,,,,,,,,,,,,,,,,,,,,,,,,,,,,,,,,,,,,,,,,366.4094240000122,366.4254490000021,366.92587090001325,366.909032399999,366.9213363000017,366.92587090001325,366.92587090001325,366.92587090001325,369.4427832000074,Scenes\160b.jpg,mid,s,2.511596299998928,None,,,,,,,,00043,001,2026-01-17_16h46.47.651,MST_test,2024.2.0,59.928541204032335,2026-01-17 16h46.58.369228 +0530,
63,0,64,o,1.2113052000058815,None,64,0,63,369.458664100006,,,,,,,,,,,,,,,,,,,,,,,,,,,,,,,,,,,,,,,,,,,,,,,,,,369.44287850000546,369.458664100006,369.96231999999145,369.94238699998823,369.9601161000028,369.96231999999145,369.96231999999145,369.96231999999145,371.1760262000025,Scenes\142b.jpg,pre,o,1.2113052000058815,None,,,,,,,,00043,001,2026-01-17_16h46.47.651,MST_test,2024.2.0,59.928541204032335,2026-01-17 16h46.58.369228 +0530,
64,0,65,n,2.2334429000038654,None,65,0,64,371.19204960000934,,,,,,,,,,,,,,,,,,,,,,,,,,,,,,,,,,,,,,,,,,,,,,,,,,371.17612009998993,371.19204960000934,371.6920926999883,371.6756226000143,371.68538219999755,371.6920926999883,371.6920926999883,371.6920926999883,373.92624579998665,Foils\scenes11.jpg,none,n,2.2334429000038654,None,,,,,,,,00043,001,2026-01-17_16h46.47.651,MST_test,2024.2.0,59.928541204032335,2026-01-17 16h46.58.369228 +0530,
65,0,66,o,2.8344439000065904,None,66,0,65,373.9420828000002,,,,,,,,,,,,,,,,,,,,,,,,,,,,,,,,,,,,,,,,,,,,,,,,,,373.9263398000039,373.9420828000002,374.4432061999978,374.425573799992,374.441290799994,374.4432061999978,374.4432061999978,374.4432061999978,377.2924509999866,Scenes\122a.jpg,post,o,2.8344439000065904,None,,,,,,,,00043,001,2026-01-17_16h46.47.651,MST_test,2024.2.0,59.928541204032335,2026-01-17 16h46.58.369228 +0530,
66,0,67,n,7.205421599996043,None,67,0,66,377.3086417999875,,,,,,,,,,,,,,,,,,,,,,,,,,,,,,,,,,,,,,,,,,,,,,,,,,377.29254769999534,377.3086417999875,377.809193699999,377.7920718000096,377.8037098000059,377.809193699999,377.809193699999,377.809193699999,385.02588390000165,Objects\122b.jpg,post,n,7.205421599996043,None,,,,,,,,00043,001,2026-01-17_16h46.47.651,MST_test,2024.2.0,59.928541204032335,2026-01-17 16h46.58.369228 +0530,
67,0,68,n,1.5438049000222236,None,68,0,67,385.0418234000099,,,,,,,,,,,,,,,,,,,,,,,,,,,,,,,,,,,,,,,,,,,,,,,,,,385.02597749998677,385.0418234000099,385.5420487000083,385.52570180001203,385.53480920000584,385.5420487000083,385.5420487000083,385.5420487000083,387.0923932000005,Foils\018a.jpg,none,n,1.5438049000222236,None,,,,,,,,00043,001,2026-01-17_16h46.47.651,MST_test,2024.2.0,59.928541204032335,2026-01-17 16h46.58.369228 +0530,
68,0,69,n,2.4053132999979425,None,69,0,68,387.10875340001076,,,,,,,,,,,,,,,,,,,,,,,,,,,,,,,,,,,,,,,,,,,,,,,,,,387.09248600000865,387.10875340001076,387.6091782999865,387.59206950000953,387.6046753000119,387.6091782999865,387.6091782999865,387.6091782999865,390.02611420000903,Scenes\179b.jpg,pre,n,2.4053132999979425,None,,,,,,,,00043,001,2026-01-17_16h46.47.651,MST_test,2024.2.0,59.928541204032335,2026-01-17 16h46.58.369228 +0530,
69,0,70,o,1.543109899997944,None,70,0,69,390.041897099989,,,,,,,,,,,,,,,,,,,,,,,,,,,,,,,,,,,,,,,,,,,,,,,,,,390.0262192999944,390.041897099989,390.5423837999988,390.5255436000007,390.5324430000037,390.5423837999988,390.5423837999988,390.5423837999988,392.09286370000336,Scenes\177a.jpg,mid,o,1.543109899997944,None,,,,,,,,00043,001,2026-01-17_16h46.47.651,MST_test,2024.2.0,59.928541204032335,2026-01-17 16h46.58.369228 +0530,
70,0,71,n,5.356177099980414,None,71,0,70,392.10863410000456,,,,,,,,,,,,,,,,,,,,,,,,,,,,,,,,,,,,,,,,,,,,,,,,,,392.09296700000414,392.10863410000456,392.6093300000066,392.5923077999905,392.6070419999887,392.6093300000066,392.6093300000066,392.6093300000066,397.97593650000636,Scenes\156b.jpg,post,n,5.356177099980414,None,,,,,,,,00043,001,2026-01-17_16h46.47.651,MST_test,2024.2.0,59.928541204032335,2026-01-17 16h46.58.369228 +0530,
71,0,72,s,4.5464000000210945,None,72,0,71,397.9918757000123,,,,,,,,,,,,,,,,,,,,,,,,,,,,,,,,,,,,,,,,,,,,,,,,,,397.9760327000113,397.9918757000123,398.4924275999947,398.4757765000104,398.4857555000053,398.4924275999947,398.4924275999947,398.4924275999947,403.0423621000082,Objects\047a.jpg,pre,s,4.5464000000210945,None,,,,,,,,00043,001,2026-01-17_16h46.47.651,MST_test,2024.2.0,59.928541204032335,2026-01-17 16h46.58.369228 +0530,
72,0,73,s,2.000114800001029,None,73,0,72,403.058632500004,,,,,,,,,,,,,,,,,,,,,,,,,,,,,,,,,,,,,,,,,,,,,,,,,,403.04246570001123,403.058632500004,403.5588723999972,403.54204810000374,403.5450341000105,403.5588723999972,403.5588723999972,403.5588723999972,405.5757075000147,Objects\088a.jpg,pre,s,2.000114800001029,None,,,,,,,,00043,001,2026-01-17_16h46.47.651,MST_test,2024.2.0,59.928541204032335,2026-01-17 16h46.58.369228 +0530,
73,0,74,n,1.218800900009228,None,74,0,73,405.5918062000128,,,,,,,,,,,,,,,,,,,,,,,,,,,,,,,,,,,,,,,,,,,,,,,,,,405.57580049999524,405.5918062000128,406.0920284999884,406.07545709999977,406.0853332999977,406.0920284999884,406.0920284999884,406.0920284999884,407.3258691999945,Foils\090a.jpg,none,n,1.218800900009228,None,,,,,,,,00043,001,2026-01-17_16h46.47.651,MST_test,2024.2.0,59.928541204032335,2026-01-17 16h46.58.369228 +0530,
74,0,75,o,1.5641267000173684,None,75,0,74,407.34184410001035,,,,,,,,,,,,,,,,,,,,,,,,,,,,,,,,,,,,,,,,,,,,,,,,,,407.3259599999874,407.34184410001035,407.84220970000024,407.8255272000097,407.83474210000713,407.84220970000024,407.84220970000024,407.84220970000024,409.40925940001034,Objects\107a.jpg,pre,o,1.5641267000173684,None,,,,,,,,00043,001,2026-01-17_16h46.47.651,MST_test,2024.2.0,59.928541204032335,2026-01-17 16h46.58.369228 +0530,
75,0,76,o,1.0160516000178177,None,76,0,75,409.42532909999136,,,,,,,,,,,,,,,,,,,,,,,,,,,,,,,,,,,,,,,,,,,,,,,,,,409.4093544000061,409.42532909999136,409.92551900001126,409.9088936999906,409.9113282999897,409.92551900001126,409.92551900001126,409.92551900001126,410.94245219998993,Objects\111a.jpg,mid,o,1.0160516000178177,None,,,,,,,,00043,001,2026-01-17_16h46.47.651,MST_test,2024.2.0,59.928541204032335,2026-01-17 16h46.58.369228 +0530,
76,0,77,n,2.86192779999692,None,77,0,76,410.958684799989,,,,,,,,,,,,,,,,,,,,,,,,,,,,,,,,,,,,,,,,,,,,,,,,,,410.94256649998715,410.958684799989,411.46399600000586,411.44218539999565,411.46198699998786,411.46399600000586,411.46399600000586,411.46399600000586,414.3422991000116,Scenes\065b.jpg,mid,n,2.86192779999692,None,,,,,,,,00043,001,2026-01-17_16h46.47.651,MST_test,2024.2.0,59.928541204032335,2026-01-17 16h46.58.369228 +0530,
77,0,78,n,1.4994392999797128,None,78,0,77,414.3586481999955,,,,,,,,,,,,,,,,,,,,,,,,,,,,,,,,,,,,,,,,,,,,,,,,,,414.34239050000906,414.3586481999955,414.85924709998653,414.8422184000083,414.8520329000021,414.85924709998653,414.85924709998653,414.85924709998653,416.3594252000039,Scenes\047a.jpg,pre,n,1.4994392999797128,None,,,,,,,,00043,001,2026-01-17_16h46.47.651,MST_test,2024.2.0,59.928541204032335,2026-01-17 16h46.58.369228 +0530,
78,0,79,o,4.034064500010572,None,79,0,78,416.3753027000057,,,,,,,,,,,,,,,,,,,,,,,,,,,,,,,,,,,,,,,,,,,,,,,,,,416.35951800001203,416.3753027000057,416.87578020000365,416.8589007999981,416.86195880000014,416.87578020000365,416.87578020000365,416.87578020000365,420.92609600001015,Objects\159a.jpg,pre,o,4.034064500010572,None,,,,,,,,00043,001,2026-01-17_16h46.47.651,MST_test,2024.2.0,59.928541204032335,2026-01-17 16h46.58.369228 +0530,
79,0,80,o,1.1875216999906115,None,80,0,79,420.9418155000021,,,,,,,,,,,,,,,,,,,,,,,,,,,,,,,,,,,,,,,,,,,,,,,,,,420.9261900999991,420.9418155000021,421.44197770001483,421.4257604999875,421.4352945999999,421.44197770001483,421.44197770001483,421.44197770001483,422.64253579999786,Objects\148a.jpg,mid,o,1.1875216999906115,None,,,,,,,,00043,001,2026-01-17_16h46.47.651,MST_test,2024.2.0,59.928541204032335,2026-01-17 16h46.58.369228 +0530,
80,0,81,s,2.7789831000263803,None,81,0,80,422.65859420000925,,,,,,,,,,,,,,,,,,,,,,,,,,,,,,,,,,,,,,,,,,,,,,,,,,422.6426266999915,422.65859420000925,423.1626932999934,423.14211260000593,423.1606740000134,423.1626932999934,423.1626932999934,423.1626932999934,425.94262630000594,Scenes\001b.jpg,post,s,2.7789831000263803,None,,,,,,,,00043,001,2026-01-17_16h46.47.651,MST_test,2024.2.0,59.928541204032335,2026-01-17 16h46.58.369228 +0530,
81,0,82,s,1.683179800020298,None,82,0,81,425.9586366000003,,,,,,,,,,,,,,,,,,,,,,,,,,,,,,,,,,,,,,,,,,,,,,,,,,425.94272920000367,425.9586366000003,426.4591868999996,426.44213929999387,426.45200610000757,426.4591868999996,426.4591868999996,426.4591868999996,428.1592447000148,Objects\082b.jpg,mid,s,1.683179800020298,None,,,,,,,,00043,001,2026-01-17_16h46.47.651,MST_test,2024.2.0,59.928541204032335,2026-01-17 16h46.58.369228 +0530,
82,0,83,n,1.3072341000079177,None,83,0,82,428.1753073,,,,,,,,,,,,,,,,,,,,,,,,,,,,,,,,,,,,,,,,,,,,,,,,,,428.1593378999969,428.1753073,428.67545750000863,428.65891269998974,428.66783540000324,428.67545750000863,428.67545750000863,428.67545750000863,429.99244329999783,Foils\042a.jpg,none,n,1.3072341000079177,None,,,,,,,,00043,001,2026-01-17_16h46.47.651,MST_test,2024.2.0,59.928541204032335,2026-01-17 16h46.58.369228 +0530,
83,0,84,n,1.0240667999896687,None,84,0,83,430.00863180001033,,,,,,,,,,,,,,,,,,,,,,,,,,,,,,,,,,,,,,,,,,,,,,,,,,429.99253849999513,430.00863180001033,430.51009930000873,430.4922969999898,430.50801469999715,430.51009930000873,430.51009930000873,430.51009930000873,431.54258129998925,Foils\scenes22.jpg,none,n,1.0240667999896687,None,,,,,,,,00043,001,2026-01-17_16h46.47.651,MST_test,2024.2.0,59.928541204032335,2026-01-17 16h46.58.369228 +0530,
84,0,85,n,3.2030040999816265,None,85,0,84,431.5587771999999,,,,,,,,,,,,,,,,,,,,,,,,,,,,,,,,,,,,,,,,,,,,,,,,,,431.5426814999955,431.5587771999999,432.05924900001264,432.0421459999925,432.057034700003,432.05924900001264,432.05924900001264,432.05924900001264,435.27587350000977,Scenes\182b.jpg,mid,n,3.2030040999816265,None,,,,,,,,00043,001,2026-01-17_16h46.47.651,MST_test,2024.2.0,59.928541204032335,2026-01-17 16h46.58.369228 +0530,
85,0,86,n,1.0930084999999963,None,86,0,85,435.2919876000087,,,,,,,,,,,,,,,,,,,,,,,,,,,,,,,,,,,,,,,,,,,,,,,,,,435.2759658000141,435.2919876000087,435.79265220000525,435.7756211000087,435.7860941000108,435.79265220000525,435.79265220000525,435.79265220000525,436.89253760001156,Objects\079b.jpg,pre,n,1.0930084999999963,None,,,,,,,,00043,001,2026-01-17_16h46.47.651,MST_test,2024.2.0,59.928541204032335,2026-01-17 16h46.58.369228 +0530,
86,0,87,o,1.7327818000048865,None,87,0,86,436.9087251999881,,,,,,,,,,,,,,,,,,,,,,,,,,,,,,,,,,,,,,,,,,,,,,,,,,436.8926352999988,436.9087251999881,437.409304300003,437.3923165999877,437.3983173999877,437.409304300003,437.409304300003,437.409304300003,439.1428259999957,Scenes\080a.jpg,post,o,1.7327818000048865,None,,,,,,,,00043,001,2026-01-17_16h46.47.651,MST_test,2024.2.0,59.928541204032335,2026-01-17 16h46.58.369228 +0530,
87,0,88,n,3.7622374999918975,None,88,0,87,439.1587591000134,,,,,,,,,,,,,,,,,,,,,,,,,,,,,,,,,,,,,,,,,,,,,,,,,,439.14291950000916,439.1587591000134,439.65920299998834,439.6423103999987,439.65346420000424,439.65920299998834,439.65920299998834,439.65920299998834,443.4260224000027,Objects\162b.jpg,post,n,3.7622374999918975,None,,,,,,,,00043,001,2026-01-17_16h46.47.651,MST_test,2024.2.0,59.928541204032335,2026-01-17 16h46.58.369228 +0530,
88,0,89,n,3.165374200005317,None,89,0,88,443.4420728000114,,,,,,,,,,,,,,,,,,,,,,,,,,,,,,,,,,,,,,,,,,,,,,,,,,443.426120499993,443.4420728000114,443.9447205000033,443.9256386999914,443.94248220001464,443.9447205000033,443.9447205000033,443.9447205000033,447.1260065000097,Scenes\125b.jpg,post,n,3.165374200005317,None,,,,,,,,00043,001,2026-01-17_16h46.47.651,MST_test,2024.2.0,59.928541204032335,2026-01-17 16h46.58.369228 +0530,
89,0,90,o,1.4995917000051122,None,90,0,89,447.142010200012,,,,,,,,,,,,,,,,,,,,,,,,,,,,,,,,,,,,,,,,,,,,,,,,,,447.1261116999958,447.142010200012,447.6425726999878,447.62571829999797,447.62950020001153,447.6425726999878,447.6425726999878,447.6425726999878,449.14333890000125,Scenes\033a.jpg,pre,o,1.4995917000051122,None,,,,,,,,00043,001,2026-01-17_16h46.47.651,MST_test,2024.2.0,59.928541204032335,2026-01-17 16h46.58.369228 +0530,
90,0,91,n,1.6106346999877132,None,91,0,90,449.1587584000081,,,,,,,,,,,,,,,,,,,,,,,,,,,,,,,,,,,,,,,,,,,,,,,,,,449.14343230001396,449.1587584000081,449.65915610000957,449.6423805000086,449.65251230000285,449.65915610000957,449.65915610000957,449.65915610000957,451.2760498000134,Objects\031b.jpg,post,n,1.6106346999877132,None,,,,,,,,00043,001,2026-01-17_16h46.47.651,MST_test,2024.2.0,59.928541204032335,2026-01-17 16h46.58.369228 +0530,
91,0,92,n,2.532295699988026,None,92,0,91,451.29202789999545,,,,,,,,,,,,,,,,,,,,,,,,,,,,,,,,,,,,,,,,,,,,,,,,,,451.2761560000072,451.29202789999545,451.7937535000092,451.7757055000111,451.7916632000124,451.7937535000092,451.7937535000092,451.7937535000092,454.34257780000917,Scenes\149b.jpg,mid,n,2.532295699988026,None,,,,,,,,00043,001,2026-01-17_16h46.47.651,MST_test,2024.2.0,59.928541204032335,2026-01-17 16h46.58.369228 +0530,
92,0,93,o,1.2748722000105772,None,93,0,92,454.35878129999037,,,,,,,,,,,,,,,,,,,,,,,,,,,,,,,,,,,,,,,,,,,,,,,,,,454.34267559999716,454.35878129999037,454.8593086999899,454.8423202999984,454.8455854000058,454.8593086999899,454.8593086999899,454.8593086999899,456.1426364000072,Objects\186a.jpg,pre,o,1.2748722000105772,None,,,,,,,,00043,001,2026-01-17_16h46.47.651,MST_test,2024.2.0,59.928541204032335,2026-01-17 16h46.58.369228 +0530,
93,0,94,n,1.4637763999926392,None,94,0,93,456.15876389999175,,,,,,,,,,,,,,,,,,,,,,,,,,,,,,,,,,,,,,,,,,,,,,,,,,456.1427301999938,456.15876389999175,456.66224480001256,456.6422187999997,456.66015849998803,456.66224480001256,456.66224480001256,456.66224480001256,458.1427747000125,Scenes\019b.jpg,mid,n,1.4637763999926392,None,,,,,,,,00043,001,2026-01-17_16h46.47.651,MST_test,2024.2.0,59.928541204032335,2026-01-17 16h46.58.369228 +0530,
94,0,95,s,2.402171699999599,None,95,0,94,458.15869740000926,,,,,,,,,,,,,,,,,,,,,,,,,,,,,,,,,,,,,,,,,,,,,,,,,,458.14287300000433,458.15869740000926,458.65928829999757,458.642348399997,458.65229110000655,458.65928829999757,458.65928829999757,458.65928829999757,461.075903799996,Objects\108b.jpg,post,s,2.402171699999599,None,,,,,,,,00043,001,2026-01-17_16h46.47.651,MST_test,2024.2.0,59.928541204032335,2026-01-17 16h46.58.369228 +0530,
95,0,96,n,1.0530428999918513,None,96,0,95,461.0920824999921,,,,,,,,,,,,,,,,,,,,,,,,,,,,,,,,,,,,,,,,,,,,,,,,,,461.07599559999653,461.0920824999921,461.59242050000466,461.5756563000032,461.5862221000134,461.59242050000466,461.59242050000466,461.59242050000466,462.659235900006,Foils\106a.jpg,none,n,1.0530428999918513,None,,,,,,,,00043,001,2026-01-17_16h46.47.651,MST_test,2024.2.0,59.928541204032335,2026-01-17 16h46.58.369228 +0530,
96,0,97,s,2.6624668999866117,None,97,0,96,462.675327200006,,,,,,,,,,,,,,,,,,,,,,,,,,,,,,,,,,,,,,,,,,,,,,,,,,462.6593312000041,462.675327200006,463.1756996999902,463.15901309999754,463.1685021999874,463.1756996999902,463.1756996999902,463.1756996999902,465.84265129998676,Objects\113b.jpg,post,s,2.6624668999866117,None,,,,,,,,00043,001,2026-01-17_16h46.47.651,MST_test,2024.2.0,59.928541204032335,2026-01-17 16h46.58.369228 +0530,
97,0,98,n,1.1254918000195175,None,98,0,97,465.85876169998664,,,,,,,,,,,,,,,,,,,,,,,,,,,,,,,,,,,,,,,,,,,,,,,,,,465.8427443999972,465.85876169998664,466.36074020000524,466.34239519998664,466.35862690000795,466.36074020000524,466.36074020000524,466.36074020000524,467.4926137000148,Scenes\171b.jpg,mid,n,1.1254918000195175,None,,,,,,,,00043,001,2026-01-17_16h46.47.651,MST_test,2024.2.0,59.928541204032335,2026-01-17 16h46.58.369228 +0530,
98,0,99,n,1.5086318999819923,None,99,0,98,467.50861570000416,,,,,,,,,,,,,,,,,,,,,,,,,,,,,,,,,,,,,,,,,,,,,,,,,,467.49270949998754,467.50861570000416,468.0102714000095,467.9924069000117,468.00806150000426,468.0102714000095,468.0102714000095,468.0102714000095,469.526064900012,Scenes\150b.jpg,post,n,1.5086318999819923,None,,,,,,,,00043,001,2026-01-17_16h46.47.651,MST_test,2024.2.0,59.928541204032335,2026-01-17 16h46.58.369228 +0530,
99,0,100,n,1.0193571999843698,None,100,0,99,469.54202789999545,,,,,,,,,,,,,,,,,,,,,,,,,,,,,,,,,,,,,,,,,,,,,,,,,,469.5261604000116,469.54202789999545,470.04255390001344,470.02570870000636,470.03514660001383,470.04255390001344,470.04255390001344,470.04255390001344,471.0760459000012,Foils\057a.jpg,none,n,1.0193571999843698,None,,,,,,,,00043,001,2026-01-17_16h46.47.651,MST_test,2024.2.0,59.928541204032335,2026-01-17 16h46.58.369228 +0530,
100,0,101,o,2.701296600018395,None,101,0,100,471.0919969000097,,,,,,,,,,,,,,,,,,,,,,,,,,,,,,,,,,,,,,,,,,,,,,,,,,471.0761426000099,471.0919969000097,471.5923494999879,471.5756839000096,471.58013439999195,471.5923494999879,471.5923494999879,471.5923494999879,474.30927200001315,Objects\110a.jpg,pre,o,2.701296600018395,None,,,,,,,,00043,001,2026-01-17_16h46.47.651,MST_test,2024.2.0,59.928541204032335,2026-01-17 16h46.58.369228 +0530,
101,0,102,o,2.1244752999919,None,102,0,101,474.3254214999906,,,,,,,,,,,,,,,,,,,,,,,,,,,,,,,,,,,,,,,,,,,,,,,,,,474.3093668000074,474.3254214999906,474.82567500000005,474.80898949998664,474.81177540001227,474.82567500000005,474.82567500000005,474.82567500000005,476.95934520001174,Objects\099a.jpg,mid,o,2.1244752999919,None,,,,,,,,00043,001,2026-01-17_16h46.47.651,MST_test,2024.2.0,59.928541204032335,2026-01-17 16h46.58.369228 +0530,
102,0,103,s,2.370446400018409,None,103,0,102,476.9753550000023,,,,,,,,,,,,,,,,,,,,,,,,,,,,,,,,,,,,,,,,,,,,,,,,,,476.95943990000524,476.9753550000023,477.47578330000397,477.4590824999905,477.4726192000089,477.47578330000397,477.47578330000397,477.47578330000397,479.8593483000004,Scenes\184a.jpg,pre,s,2.370446400018409,None,,,,,,,,00043,001,2026-01-17_16h46.47.651,MST_test,2024.2.0,59.928541204032335,2026-01-17 16h46.58.369228 +0530,
103,0,104,n,2.7102432000101544,None,104,0,103,479.875335299992,,,,,,,,,,,,,,,,,,,,,,,,,,,,,,,,,,,,,,,,,,,,,,,,,,479.8594427999924,479.875335299992,480.3758713999996,480.3590109999932,480.3688368999865,480.3758713999996,480.3758713999996,480.3758713999996,483.09261100000003,Foils\scenes13.jpg,none,n,2.7102432000101544,None,,,,,,,,00043,001,2026-01-17_16h46.47.651,MST_test,2024.2.0,59.928541204032335,2026-01-17 16h46.58.369228 +0530,
104,0,105,n,2.8772663999989163,None,105,0,104,483.1087708999985,,,,,,,,,,,,,,,,,,,,,,,,,,,,,,,,,,,,,,,,,,,,,,,,,,483.0927032000036,483.1087708999985,483.60907010000665,483.59235150000313,483.5956618000055,483.60907010000665,483.60907010000665,483.60907010000665,486.4931971000042,Objects\085a.jpg,mid,n,2.8772663999989163,None,,,,,,,,00043,001,2026-01-17_16h46.47.651,MST_test,2024.2.0,59.928541204032335,2026-01-17 16h46.58.369228 +0530,
105,0,106,n,3.0933135999948718,None,106,0,105,486.50873550001415,,,,,,,,,,,,,,,,,,,,,,,,,,,,,,,,,,,,,,,,,,,,,,,,,,486.49330400000326,486.50873550001415,487.0092685999989,486.99251459998777,487.0052265000122,487.0092685999989,487.0092685999989,487.0092685999989,490.1092370999977,Scenes\173b.jpg,mid,n,3.0933135999948718,None,,,,,,,,00043,001,2026-01-17_16h46.47.651,MST_test,2024.2.0,59.928541204032335,2026-01-17 16h46.58.369228 +0530,
106,0,107,n,1.7089590999821667,None,107,0,106,490.12538199999835,,,,,,,,,,,,,,,,,,,,,,,,,,,,,,,,,,,,,,,,,,,,,,,,,,490.10933060001116,490.12538199999835,490.6257963000098,490.60901549999835,490.6186624999973,490.6257963000098,490.6257963000098,490.6257963000098,492.34276100000716,Foils\101b.jpg,none,n,1.7089590999821667,None,,,,,,,,00043,001,2026-01-17_16h46.47.651,MST_test,2024.2.0,59.928541204032335,2026-01-17 16h46.58.369228 +0530,
107,0,108,o,1.1786037000129,None,108,0,107,492.3587461000134,,,,,,,,,,,,,,,,,,,,,,,,,,,,,,,,,,,,,,,,,,,,,,,,,,492.34285159999854,492.3587461000134,492.85900230001425,492.84221199998865,492.85165550000966,492.85900230001425,492.85900230001425,492.85900230001425,494.04274040000746,Objects\098b.jpg,pre,o,1.1786037000129,None,,,,,,,,00043,001,2026-01-17_16h46.47.651,MST_test,2024.2.0,59.928541204032335,2026-01-17 16h46.58.369228 +0530,
108,0,109,n,3.5906535999965854,None,109,0,108,494.0587210000085,,,,,,,,,,,,,,,,,,,,,,,,,,,,,,,,,,,,,,,,,,,,,,,,,,494.04283250001026,494.0587210000085,494.55888500000583,494.5419847999874,494.5444848999905,494.55888500000583,494.55888500000583,494.55888500000583,498.15916340000695,Objects\028a.jpg,post,n,3.5906535999965854,None,,,,,,,,00043,001,2026-01-17_16h46.47.651,MST_test,2024.2.0,59.928541204032335,2026-01-17 16h46.58.369228 +0530,
109,0,110,s,1.8104495000152383,None,110,0,109,498.1753517999896,,,,,,,,,,,,,,,,,,,,,,,,,,,,,,,,,,,,,,,,,,,,,,,,,,498.15925629998674,498.1753517999896,498.6756058000028,498.659072999988,498.67016899999,498.6756058000028,498.6756058000028,498.6756058000028,500.4928679000004,Objects\177a.jpg,pre,s,1.8104495000152383,None,,,,,,,,00043,001,2026-01-17_16h46.47.651,MST_test,2024.2.0,59.928541204032335,2026-01-17 16h46.58.369228 +0530,
110,0,111,s,2.4701754999987315,None,111,0,110,500.50867879998987,,,,,,,,,,,,,,,,,,,,,,,,,,,,,,,,,,,,,,,,,,,,,,,,,,500.49296460000915,500.50867879998987,501.00882940000156,500.9920831999916,501.00087720001466,501.00882940000156,501.00882940000156,501.00882940000156,503.4924417999864,Objects\080b.jpg,pre,s,2.4701754999987315,None,,,,,,,,00043,001,2026-01-17_16h46.47.651,MST_test,2024.2.0,59.928541204032335,2026-01-17 16h46.58.369228 +0530,
111,0,112,o,1.2928738999762572,None,112,0,111,503.5086631999875,,,,,,,,,,,,,,,,,,,,,,,,,,,,,,,,,,,,,,,,,,,,,,,,,,503.49253399999,503.5086631999875,504.0088639000023,503.992093000008,503.9947442999983,504.0088639000023,504.0088639000023,504.0088639000023,505.3092784000037,Objects\152a.jpg,pre,o,1.2928738999762572,None,,,,,,,,00043,001,2026-01-17_16h46.47.651,MST_test,2024.2.0,59.928541204032335,2026-01-17 16h46.58.369228 +0530,
112,0,113,o,1.3883561000111513,None,113,0,112,505.32532730000094,,,,,,,,,,,,,,,,,,,,,,,,,,,,,,,,,,,,,,,,,,,,,,,,,,505.3093710000103,505.32532730000094,505.8257930999971,505.8089198000089,505.8152260000061,505.8257930999971,505.8257930999971,505.8257930999971,507.22600299998885,Scenes\154a.jpg,post,o,1.3883561000111513,None,,,,,,,,00043,001,2026-01-17_16h46.47.651,MST_test,2024.2.0,59.928541204032335,2026-01-17 16h46.58.369228 +0530,
113,0,114,o,1.005566000007093,None,114,0,113,507.2418250000046,,,,,,,,,,,,,,,,,,,,,,,,,,,,,,,,,,,,,,,,,,,,,,,,,,507.2261058000149,507.2418250000046,507.7439497000014,507.72560149998753,507.7417185000086,507.7439497000014,507.7439497000014,507.7439497000014,508.75915019999957,Scenes\055b.jpg,post,o,1.005566000007093,None,,,,,,,,00043,001,2026-01-17_16h46.47.651,MST_test,2024.2.0,59.928541204032335,2026-01-17 16h46.58.369228 +0530,
114,0,115,s,2.8984478000202216,None,115,0,114,508.7753250999958,,,,,,,,,,,,,,,,,,,,,,,,,,,,,,,,,,,,,,,,,,,,,,,,,,508.75924340001075,508.7753250999958,509.27575679999427,509.25885499999276,509.26217349999934,509.27575679999427,509.27575679999427,509.27575679999427,512.1760547999875,Objects\022a.jpg,post,s,2.8984478000202216,None,,,,,,,,00043,001,2026-01-17_16h46.47.651,MST_test,2024.2.0,59.928541204032335,2026-01-17 16h46.58.369228 +0530,
115,0,116,s,2.833719399990514,None,116,0,115,512.1918759999971,,,,,,,,,,,,,,,,,,,,,,,,,,,,,,,,,,,,,,,,,,,,,,,,,,512.1761480999994,512.1918759999971,512.6922131000028,512.6755687000114,512.685006899992,512.6922131000028,512.6922131000028,512.6922131000028,515.5423950999975,Objects\154b.jpg,mid,s,2.833719399990514,None,,,,,,,,00043,001,2026-01-17_16h46.47.651,MST_test,2024.2.0,59.928541204032335,2026-01-17 16h46.58.369228 +0530,
116,0,117,n,2.531351399986306,None,117,0,116,515.5586642000126,,,,,,,,,,,,,,,,,,,,,,,,,,,,,,,,,,,,,,,,,,,,,,,,,,515.5424865999958,515.5586642000126,516.0591156999872,516.042059600004,516.0569910999911,516.0591156999872,516.0591156999872,516.0591156999872,518.5925743000116,Scenes\058a.jpg,post,n,2.531351399986306,None,,,,,,,,00043,001,2026-01-17_16h46.47.651,MST_test,2024.2.0,59.928541204032335,2026-01-17 16h46.58.369228 +0530,
117,0,118,n,1.192559999995865,None,118,0,117,518.6085982999939,,,,,,,,,,,,,,,,,,,,,,,,,,,,,,,,,,,,,,,,,,,,,,,,,,518.5926675999945,518.6085982999939,519.1090903999866,519.0922675000038,519.1009020000056,519.1090903999866,519.1090903999866,519.1090903999866,520.3092213000054,Foils\scenes2.jpg,none,n,1.192559999995865,None,,,,,,,,00043,001,2026-01-17_16h46.47.651,MST_test,2024.2.0,59.928541204032335,2026-01-17 16h46.58.369228 +0530,
118,0,119,n,1.8206491000019014,None,119,0,118,520.3253262999933,,,,,,,,,,,,,,,,,,,,,,,,,,,,,,,,,,,,,,,,,,,,,,,,,,520.3093141000136,520.3253262999933,520.8256183000049,520.8088441999862,520.8174509000091,520.8256183000049,520.8256183000049,520.8256183000049,522.6592553000082,Foils\scenes18.jpg,none,n,1.8206491000019014,None,,,,,,,,00043,001,2026-01-17_16h46.47.651,MST_test,2024.2.0,59.928541204032335,2026-01-17 16h46.58.369228 +0530,
119,0,120,o,1.4940400999912526,None,120,0,119,522.6753162000095,,,,,,,,,,,,,,,,,,,,,,,,,,,,,,,,,,,,,,,,,,,,,,,,,,522.659348199988,522.6753162000095,523.17568819999,523.1590290000022,523.1681696999876,523.17568819999,523.17568819999,523.17568819999,524.6759740000125,Scenes\165a.jpg,pre,o,1.4940400999912526,None,,,,,,,,00043,001,2026-01-17_16h46.47.651,MST_test,2024.2.0,59.928541204032335,2026-01-17 16h46.58.369228 +0530,
120,0,121,s,4.106455700006336,None,121,0,120,524.6918672999891,,,,,,,,,,,,,,,,,,,,,,,,,,,,,,,,,,,,,,,,,,,,,,,,,,524.6760684000037,524.6918672999891,525.1953985999862,525.1756004999916,525.1932530000049,525.1953985999862,525.1953985999862,525.1953985999862,529.3092416999862,Scenes\012a.jpg,post,s,4.106455700006336,None,,,,,,,,00043,001,2026-01-17_16h46.47.651,MST_test,2024.2.0,59.928541204032335,2026-01-17 16h46.58.369228 +0530,
121,0,122,n,1.3001694999984466,None,122,0,121,529.325336000009,,,,,,,,,,,,,,,,,,,,,,,,,,,,,,,,,,,,,,,,,,,,,,,,,,529.309335900005,529.325336000009,529.8258554000058,529.8089059999911,529.818584099994,529.8258554000058,529.8258554000058,529.8258554000058,531.1424411000044,Foils\093b.jpg,none,n,1.3001694999984466,None,,,,,,,,00043,001,2026-01-17_16h46.47.651,MST_test,2024.2.0,59.928541204032335,2026-01-17 16h46.58.369228 +0530,
122,0,123,s,1.5473653999797534,None,123,0,122,531.1586659000022,,,,,,,,,,,,,,,,,,,,,,,,,,,,,,,,,,,,,,,,,,,,,,,,,,531.1425326000026,531.1586659000022,531.6591554000042,531.6422101999924,531.6566504999937,531.6591554000042,531.6591554000042,531.6591554000042,533.2094085999997,Scenes\067a.jpg,mid,s,1.5473653999797534,None,,,,,,,,00043,001,2026-01-17_16h46.47.651,MST_test,2024.2.0,59.928541204032335,2026-01-17 16h46.58.369228 +0530,
123,0,124,s,1.4561046000162605,None,124,0,123,533.2253539999947,,,,,,,,,,,,,,,,,,,,,,,,,,,,,,,,,,,,,,,,,,,,,,,,,,533.2095101999876,533.2253539999947,533.7258003999887,533.7087870000105,533.7145210999879,533.7258003999887,533.7258003999887,533.7258003999887,535.1924178999907,Scenes\175a.jpg,post,s,1.4561046000162605,None,,,,,,,,00043,001,2026-01-17_16h46.47.651,MST_test,2024.2.0,59.928541204032335,2026-01-17 16h46.58.369228 +0530,
124,0,125,s,1.42519340000581,None,125,0,124,535.2086652000144,,,,,,,,,,,,,,,,,,,,,,,,,,,,,,,,,,,,,,,,,,,,,,,,,,535.1925102999958,535.2086652000144,535.7091688000073,535.6922122999968,535.7017633999931,535.7091688000073,535.7091688000073,535.7091688000073,537.1425412000099,Objects\003b.jpg,mid,s,1.42519340000581,None,,,,,,,,00043,001,2026-01-17_16h46.47.651,MST_test,2024.2.0,59.928541204032335,2026-01-17 16h46.58.369228 +0530,
125,0,126,n,1.4906907999829855,None,126,0,125,537.1586313000007,,,,,,,,,,,,,,,,,,,,,,,,,,,,,,,,,,,,,,,,,,,,,,,,,,537.1426349999965,537.1586313000007,537.6590559000033,537.6421971000091,537.6515008000133,537.6590559000033,537.6590559000033,537.6590559000033,539.1592808999994,Foils\scenes17.jpg,none,n,1.4906907999829855,None,,,,,,,,00043,001,2026-01-17_16h46.47.651,MST_test,2024.2.0,59.928541204032335,2026-01-17 16h46.58.369228 +0530,
126,0,127,n,1.464250399993034,None,127,0,126,539.1752788999875,,,,,,,,,,,,,,,,,,,,,,,,,,,,,,,,,,,,,,,,,,,,,,,,,,539.1593746000144,539.1752788999875,539.6776786000119,539.6588833999995,539.6756845999917,539.6776786000119,539.6776786000119,539.6776786000119,541.1426761999901,Scenes\015b.jpg,post,n,1.464250399993034,None,,,,,,,,00043,001,2026-01-17_16h46.47.651,MST_test,2024.2.0,59.928541204032335,2026-01-17 16h46.58.369228 +0530,
127,0,128,o,3.3710137000016402,None,128,0,127,541.1586687999952,,,,,,,,,,,,,,,,,,,,,,,,,,,,,,,,,,,,,,,,,,,,,,,,,,541.142769099999,541.1586687999952,,541.6467569000088,541.6562481999863,541.6592597000126,541.6592597000126,541.6592597000126,545.0424943999969,Objects\093a.jpg,mid,o,3.3710137000016402,None,,,,,,,,00043,001,2026-01-17_16h46.47.651,MST_test,2024.2.0,59.928541204032335,2026-01-17 16h46.58.369228 +0530,
128,0,129,s,3.4233722999924794,None,129,0,128,545.0586470999988,,,,,,,,,,,,,,,,,,,,,,,,,,,,,,,,,,,,,,,,,,,,,,,,,,545.0425917000102,545.0586470999988,545.5589551999874,545.5421824000077,545.551209600002,545.5589551999874,545.5589551999874,545.5589551999874,548.9924862000044,Objects\040a.jpg,post,s,3.4233722999924794,None,,,,,,,,00043,001,2026-01-17_16h46.47.651,MST_test,2024.2.0,59.928541204032335,2026-01-17 16h46.58.369228 +0530,
129,0,130,s,2.275793800014071,None,130,0,129,549.0086171000148,,,,,,,,,,,,,,,,,,,,,,,,,,,,,,,,,,,,,,,,,,,,,,,,,,548.9925791000132,549.0086171000148,549.5141204000101,549.4920845000015,549.5120147000125,549.5141204000101,549.5141204000101,549.5141204000101,551.792488600011,Scenes\032b.jpg,pre,s,2.275793800014071,None,,,,,,,,00043,001,2026-01-17_16h46.47.651,MST_test,2024.2.0,59.928541204032335,2026-01-17 16h46.58.369228 +0530,
130,0,131,o,3.31304259999888,None,131,0,130,551.8086777999997,,,,,,,,,,,,,,,,,,,,,,,,,,,,,,,,,,,,,,,,,,,,,,,,,,551.7925818999938,551.8086777999997,552.309221500007,552.2921762999904,552.3017900999985,552.309221500007,552.309221500007,552.309221500007,555.6259484000038,Objects\020a.jpg,pre,o,3.31304259999888,None,,,,,,,,00043,001,2026-01-17_16h46.47.651,MST_test,2024.2.0,59.928541204032335,2026-01-17 16h46.58.369228 +0530,
131,0,132,o,2.111484900000505,None,132,0,131,555.6420871999871,,,,,,,,,,,,,,,,,,,,,,,,,,,,,,,,,,,,,,,,,,,,,,,,,,555.6260405000066,555.6420871999871,556.142294499994,556.1256481999881,556.1344858999946,556.142294499994,556.142294499994,556.142294499994,558.2593276000116,Objects\143a.jpg,mid,o,2.111484900000505,None,,,,,,,,00043,001,2026-01-17_16h46.47.651,MST_test,2024.2.0,59.928541204032335,2026-01-17 16h46.58.369228 +0530,
132,0,133,n,1.7544822999916505,None,133,0,132,558.2754480000003,,,,,,,,,,,,,,,,,,,,,,,,,,,,,,,,,,,,,,,,,,,,,,,,,,558.2594204999914,558.2754480000003,558.7798094000027,558.7590341999894,558.7775990999944,558.7798094000027,558.7798094000027,558.7798094000027,560.5428875999933,Scenes\010a.jpg,post,n,1.7544822999916505,None,,,,,,,,00043,001,2026-01-17_16h46.47.651,MST_test,2024.2.0,59.928541204032335,2026-01-17 16h46.58.369228 +0530,
133,0,134,n,2.306666499993298,None,134,0,133,560.5588136999868,,,,,,,,,,,,,,,,,,,,,,,,,,,,,,,,,,,,,,,,,,,,,,,,,,560.5429815000098,560.5588136999868,561.0593477000075,561.042343100009,561.0538076999946,561.0593477000075,561.0593477000075,561.0593477000075,563.376102899987,Scenes\087b.jpg,pre,n,2.306666499993298,None,,,,,,,,00043,001,2026-01-17_16h46.47.651,MST_test,2024.2.0,59.928541204032335,2026-01-17 16h46.58.369228 +0530,
134,0,135,o,7.5297314999916125,None,135,0,134,563.3920139000111,,,,,,,,,,,,,,,,,,,,,,,,,,,,,,,,,,,,,,,,,,,,,,,,,,563.3761941000121,563.3920139000111,563.8924602000043,563.8757393000124,563.8895383999916,563.8924602000043,563.8924602000043,563.8924602000043,571.4260716999997,Scenes\138b.jpg,post,o,7.5297314999916125,None,,,,,,,,00043,001,2026-01-17_16h46.47.651,MST_test,2024.2.0,59.928541204032335,2026-01-17 16h46.58.369228 +0530,
135,0,136,n,2.5004867000097875,None,136,0,135,571.4421424999891,,,,,,,,,,,,,,,,,,,,,,,,,,,,,,,,,,,,,,,,,,,,,,,,,,571.4261751000013,571.4421424999891,571.9458393999957,571.9256133000017,571.943548899988,571.9458393999957,571.9458393999957,571.9458393999957,574.459400199994,Scenes\025b.jpg,post,n,2.5004867000097875,None,,,,,,,,00043,001,2026-01-17_16h46.47.651,MST_test,2024.2.0,59.928541204032335,2026-01-17 16h46.58.369228 +0530,
136,0,137,o,1.324621300009312,None,137,0,136,574.4754407999862,,,,,,,,,,,,,,,,,,,,,,,,,,,,,,,,,,,,,,,,,,,,,,,,,,574.4594930000021,574.4754407999862,574.9777419999882,574.9589456999965,574.9756679999991,574.9777419999882,574.9777419999882,574.9777419999882,576.3093940000108,Scenes\176a.jpg,pre,o,1.324621300009312,None,,,,,,,,00043,001,2026-01-17_16h46.47.651,MST_test,2024.2.0,59.928541204032335,2026-01-17 16h46.58.369228 +0530,
137,0,138,o,1.3642975999973714,None,138,0,137,576.3253422999987,,,,,,,,,,,,,,,,,,,,,,,,,,,,,,,,,,,,,,,,,,,,,,,,,,576.3094890000066,576.3253422999987,576.8259645999933,576.8090340000053,576.8122948000091,576.8259645999933,576.8259645999933,576.8259645999933,578.1926716000016,Objects\084a.jpg,mid,o,1.3642975999973714,None,,,,,,,,00043,001,2026-01-17_16h46.47.651,MST_test,2024.2.0,59.928541204032335,2026-01-17 16h46.58.369228 +0530,
138,0,139,n,1.6710916000010911,None,139,0,138,578.2088260999881,,,,,,,,,,,,,,,,,,,,,,,,,,,,,,,,,,,,,,,,,,,,,,,,,,578.1927663999959,578.2088260999881,578.7113845999993,578.6923756999895,578.7093043999921,578.7113845999993,578.7113845999993,578.7113845999993,580.3927122000023,Scenes\106b.jpg,pre,n,1.6710916000010911,None,,,,,,,,00043,001,2026-01-17_16h46.47.651,MST_test,2024.2.0,59.928541204032335,2026-01-17 16h46.58.369228 +0530,
139,0,140,o,1.2650138000026345,None,140,0,139,580.4088040000061,,,,,,,,,,,,,,,,,,,,,,,,,,,,,,,,,,,,,,,,,,,,,,,,,,580.3928049000097,580.4088040000061,580.9092626000056,580.8923957000079,580.9023918999883,580.9092626000056,580.9092626000056,580.9092626000056,582.1759833999968,Objects\056b.jpg,post,o,1.2650138000026345,None,,,,,,,,00043,001,2026-01-17_16h46.47.651,MST_test,2024.2.0,59.928541204032335,2026-01-17 16h46.58.369228 +0530,
140,0,141,o,2.545525599998655,None,141,0,140,582.1921053999977,,,,,,,,,,,,,,,,,,,,,,,,,,,,,,,,,,,,,,,,,,,,,,,,,,582.1760760000034,582.1921053999977,582.692045600008,582.6757680999872,582.6847363999987,582.692045600008,582.692045600008,582.692045600008,585.2425525000144,Objects\030a.jpg,post,o,2.545525599998655,None,,,,,,,,00043,001,2026-01-17_16h46.47.651,MST_test,2024.2.0,59.928541204032335,2026-01-17 16h46.58.369228 +0530,
141,0,142,n,1.7982546999992337,None,142,0,141,585.2586560999916,,,,,,,,,,,,,,,,,,,,,,,,,,,,,,,,,,,,,,,,,,,,,,,,,,585.2426543000038,585.2586560999916,585.7592525999935,585.7422217999992,585.7547306999913,585.7592525999935,585.7592525999935,585.7592525999935,587.5592330000072,Scenes\007b.jpg,mid,n,1.7982546999992337,None,,,,,,,,00043,001,2026-01-17_16h46.47.651,MST_test,2024.2.0,59.928541204032335,2026-01-17 16h46.58.369228 +0530,
142,0,143,s,1.7942400999891106,None,143,0,142,587.5753467000031,,,,,,,,,,,,,,,,,,,,,,,,,,,,,,,,,,,,,,,,,,,,,,,,,,587.559328400006,587.5753467000031,588.0757449000084,588.0588807000022,588.0620135999925,588.0757449000084,588.0757449000084,588.0757449000084,589.8758154000097,Objects\124a.jpg,pre,s,1.7942400999891106,None,,,,,,,,00043,001,2026-01-17_16h46.47.651,MST_test,2024.2.0,59.928541204032335,2026-01-17 16h46.58.369228 +0530,
143,0,144,s,1.0220200000039767,None,144,0,143,589.8919652999903,,,,,,,,,,,,,,,,,,,,,,,,,,,,,,,,,,,,,,,,,,,,,,,,,,589.8759133999993,589.8919652999903,590.3922646999999,590.3757322999882,590.3850861999963,590.3922646999999,590.3922646999999,590.3922646999999,591.4258320000081,Objects\087a.jpg,mid,s,1.0220200000039767,None,,,,,,,,00043,001,2026-01-17_16h46.47.651,MST_test,2024.2.0,59.928541204032335,2026-01-17 16h46.58.369228 +0530,
144,0,145,o,2.1022333999862894,None,145,0,144,591.4419593999919,,,,,,,,,,,,,,,,,,,,,,,,,,,,,,,,,,,,,,,,,,,,,,,,,,591.4259240000101,591.4419593999919,591.9436854000087,591.9256104000087,591.9415704999992,591.9436854000087,591.9436854000087,591.9436854000087,594.0592609999876,Scenes\136b.jpg,mid,o,2.1022333999862894,None,,,,,,,,00043,001,2026-01-17_16h46.47.651,MST_test,2024.2.0,59.928541204032335,2026-01-17 16h46.58.369228 +0530,
145,0,146,n,2.5584076000086498,None,146,0,145,594.0753962000017,,,,,,,,,,,,,,,,,,,,,,,,,,,,,,,,,,,,,,,,,,,,,,,,,,594.0593635000114,594.0753962000017,594.5757556000026,594.5588950999954,594.5671096000005,594.5757556000026,594.5757556000026,594.5757556000026,597.1425269999891,Foils\scenes1.jpg,none,n,2.5584076000086498,None,,,,,,,,00043,001,2026-01-17_16h46.47.651,MST_test,2024.2.0,59.928541204032335,2026-01-17 16h46.58.369228 +0530,
146,0,147,n,1.8591300999978557,None,147,0,146,597.1587056000135,,,,,,,,,,,,,,,,,,,,,,,,,,,,,,,,,,,,,,,,,,,,,,,,,,597.1426259000145,597.1587056000135,597.6591173000052,597.6423155000084,597.6518461999949,597.6591173000052,597.6591173000052,597.6591173000052,599.5258493000001,Objects\065b.jpg,mid,n,1.8591300999978557,None,,,,,,,,00043,001,2026-01-17_16h46.47.651,MST_test,2024.2.0,59.928541204032335,2026-01-17 16h46.58.369228 +0530,
147,0,148,n,1.8754700999998022,None,148,0,147,599.5419593999977,,,,,,,,,,,,,,,,,,,,,,,,,,,,,,,,,,,,,,,,,,,,,,,,,,599.525944699999,599.5419593999977,600.0422617000004,600.0255911000131,600.0287259999895,600.0422617000004,600.0422617000004,600.0422617000004,601.9262724999862,Foils\scenes8.jpg,none,n,1.8754700999998022,None,,,,,,,,00043,001,2026-01-17_16h46.47.651,MST_test,2024.2.0,59.928541204032335,2026-01-17 16h46.58.369228 +0530,
148,0,149,n,1.4679127000272274,None,149,0,148,601.9420970999927,,,,,,,,,,,,,,,,,,,,,,,,,,,,,,,,,,,,,,,,,,,,,,,,,,601.9263756999862,601.9420970999927,602.4422586000001,602.4259729000041,602.4352264000045,602.4422586000001,602.4422586000001,602.4422586000001,603.9262263000128,Objects\076a.jpg,mid,n,1.4679127000272274,None,,,,,,,,00043,001,2026-01-17_16h46.47.651,MST_test,2024.2.0,59.928541204032335,2026-01-17 16h46.58.369228 +0530,
149,0,150,s,2.875304299988784,None,150,0,149,603.9418828999915,,,,,,,,,,,,,,,,,,,,,,,,,,,,,,,,,,,,,,,,,,,,,,,,,,603.9263360000041,603.9418828999915,604.4421895999985,604.4257808999973,604.4355062000104,604.4421895999985,604.4421895999985,604.4421895999985,607.3259726999968,Objects\102a.jpg,post,s,2.875304299988784,None,,,,,,,,00043,001,2026-01-17_16h46.47.651,MST_test,2024.2.0,59.928541204032335,2026-01-17 16h46.58.369228 +0530,
,,,,,,,,,,,,,,,,,,,,,,,,,,,,,,,,,,,,,,,,,,,,,,,,,,,,,,,,,,,,,,,,,,,,,,,,,607.3260367999901,607.3419823000149,607.3419823000149,616.2260946999886,space,8.87983640001039,None,00043,001,2026-01-17_16h46.47.651,MST_test,2024.2.0,59.928541204032335,2026-01-17 16h46.58.369228 +0530,
