thisN,thisTrialN,thisRepN,key_resp_3.keys,key_resp_3.rt,key_resp_3.duration,trials.thisRepN,trials.thisTrialN,trials.thisN,thisRow.t,notes,intro_page.started,text.started,key_resp.started,intro_page.stopped,key_resp.keys,key_resp.rt,key_resp.duration,instructions.started,text_2.started,key_resp_2.started,instructions.stopped,key_resp_2.keys,key_resp_2.rt,key_resp_2.duration,demo1.started,image_1.started,image_2.started,text_7.started,key_resp_6.started,text_9.started,demo1.stopped,key_resp_6.keys,key_resp_6.rt,key_resp_6.duration,demo2.started,image_5.started,image_6.started,text_11.started,text_12.started,key_resp_8.started,demo2.stopped,key_resp_8.keys,key_resp_8.rt,key_resp_8.duration,demo_conclusion.started,text_13.started,key_resp_9.started,demo_conclusion.stopped,key_resp_9.keys,key_resp_9.rt,key_resp_9.duration,start_test.started,text_6.started,key_resp_5.started,start_test.stopped,key_resp_5.keys,key_resp_5.rt,key_resp_5.duration,ISI.started,text_4.started,text_4.stopped,ISI.stopped,routine_1.started,image.started,text_3.started,key_resp_3.started,routine_1.stopped,image_path,position_of_stimuli,trials.key_resp_3.keys,trials.key_resp_3.rt,trials.key_resp_3.duration,End_page.started,text_5.started,key_resp_4.started,End_page.stopped,key_resp_4.keys,key_resp_4.rt,key_resp_4.duration,participant,session,date,expName,psychopyVersion,frameRate,expStart,
,,,,,,,,,,,0.0014933999991626479,0.0034666999999899417,0.0034666999999899417,2.394925400003558,space,2.3816112999993493,None,,,,,,,,,,,,,,,,,,,,,,,,,,,,,,,,,,,,,,,,,,,,,,,,,,,,,,,,,,,,,,,00041,001,2026-01-17_12h38.24.102,MST_test,2024.2.0,60.00823312853021,2026-01-17 12h38.40.203593 +0530,
,,,,,,,,,,,,,,,,,,2.394965700004832,2.4099476000046707,2.4099476000046707,27.10775960000319,space,24.687861899998097,None,,,,,,,,,,,,,,,,,,,,,,,,,,,,,,,,,,,,,,,,,,,,,,,,,,,,,,,,00041,001,2026-01-17_12h38.24.102,MST_test,2024.2.0,60.00823312853021,2026-01-17 12h38.40.203593 +0530,
,,,,,,,,,,,,,,,,,,,,,,,,,27.107876300004136,27.14390160000039,27.14390160000039,27.14390160000039,27.14390160000039,27.14390160000039,42.20916460000444,space,15.057971399997768,None,,,,,,,,,,,,,,,,,,,,,,,,,,,,,,,,,,,,,,,,,,,,,,00041,001,2026-01-17_12h38.24.102,MST_test,2024.2.0,60.00823312853021,2026-01-17 12h38.40.203593 +0530,
,,,,,,,,,,,,,,,,,,,,,,,,,,,,,,,,,,,42.2092776999998,42.22410990000208,42.22410990000208,42.22410990000208,42.22410990000208,42.22410990000208,47.3758569000056,space,5.145618900001864,None,,,,,,,,,,,,,,,,,,,,,,,,,,,,,,,,,,,,00041,001,2026-01-17_12h38.24.102,MST_test,2024.2.0,60.00823312853021,2026-01-17 12h38.40.203593 +0530,
,,,,,,,,,,,,,,,,,,,,,,,,,,,,,,,,,,,,,,,,,,,,,47.37598430000071,47.39011830000527,47.39011830000527,179.6587198000052,space,132.25158170000213,None,,,,,,,,,,,,,,,,,,,,,,,,,,,,,00041,001,2026-01-17_12h38.24.102,MST_test,2024.2.0,60.00823312853021,2026-01-17 12h38.40.203593 +0530,
,,,,,,,,,,,,,,,,,,,,,,,,,,,,,,,,,,,,,,,,,,,,,,,,,,,,179.65883290000056,179.67331340000237,179.67331340000237,198.32572830000572,space,18.648093199997675,None,,,,,,,,,,,,,,,,,,,,,,00041,001,2026-01-17_12h38.24.102,MST_test,2024.2.0,60.00823312853021,2026-01-17 12h38.40.203593 +0530,
0,0,1,o,13.472944000001007,None,1,0,0,198.33972780000477,,,,,,,,,,,,,,,,,,,,,,,,,,,,,,,,,,,,,,,,,,,,,,,,,,198.33671719999984,198.33972780000477,198.84881440000026,198.82458720000432,198.84569170000032,198.84881440000026,198.84881440000026,198.84881440000026,212.3259193000049,Objects\132a.jpg,pre,o,13.472944000001007,None,,,,,,,,00041,001,2026-01-17_12h38.24.102,MST_test,2024.2.0,60.00823312853021,2026-01-17 12h38.40.203593 +0530,
1,0,2,s,4.737885499998811,None,2,0,1,212.34003890000167,,,,,,,,,,,,,,,,,,,,,,,,,,,,,,,,,,,,,,,,,,,,,,,,,,212.3262625999996,212.34003890000167,212.87967680000293,212.82429580000462,212.87589350000053,212.87967680000293,212.87967680000293,212.87967680000293,217.62515710000298,Objects\024b.jpg,post,s,4.737885499998811,None,,,,,,,,00041,001,2026-01-17_12h38.24.102,MST_test,2024.2.0,60.00823312853021,2026-01-17 12h38.40.203593 +0530,
2,0,3,s,3.092795099997602,None,3,0,2,217.6401618000018,,,,,,,,,,,,,,,,,,,,,,,,,,,,,,,,,,,,,,,,,,,,,,,,,,217.6254160000026,217.6401618000018,218.19612430000416,218.12448150000273,218.19308660000388,218.19612430000416,218.19612430000416,218.19612430000416,221.2934574000028,Scenes\142b.jpg,pre,s,3.092795099997602,None,,,,,,,,00041,001,2026-01-17_12h38.24.102,MST_test,2024.2.0,60.00823312853021,2026-01-17 12h38.40.203593 +0530,
3,0,4,o,5.455901799999992,None,4,0,3,221.307029100004,,,,,,,,,,,,,,,,,,,,,,,,,,,,,,,,,,,,,,,,,,,,,,,,,,221.29361130000325,221.307029100004,221.8414128000004,221.79106290000345,221.83907320000435,221.8414128000004,221.8414128000004,221.8414128000004,227.30903310000576,Objects\045b.jpg,mid,o,5.455901799999992,None,,,,,,,,00041,001,2026-01-17_12h38.24.102,MST_test,2024.2.0,60.00823312853021,2026-01-17 12h38.40.203593 +0530,
4,0,5,s,2.968627900001593,None,5,0,4,227.32419530000334,,,,,,,,,,,,,,,,,,,,,,,,,,,,,,,,,,,,,,,,,,,,,,,,,,227.3093097000019,227.32419530000334,227.82403400000476,227.80788530000427,227.8170412000036,227.82403400000476,227.82403400000476,227.82403400000476,230.80885520000447,Scenes\097a.jpg,mid,s,2.968627900001593,None,,,,,,,,00041,001,2026-01-17_12h38.24.102,MST_test,2024.2.0,60.00823312853021,2026-01-17 12h38.40.203593 +0530,
5,0,6,s,6.657057500000519,None,6,0,5,230.82359089999954,,,,,,,,,,,,,,,,,,,,,,,,,,,,,,,,,,,,,,,,,,,,,,,,,,230.8092359000002,230.82359089999954,231.32759970000188,231.30773520000366,231.32448030000523,231.32759970000188,231.32759970000188,231.32759970000188,237.99219270000322,Scenes\132a.jpg,post,s,6.657057500000519,None,,,,,,,,00041,001,2026-01-17_12h38.24.102,MST_test,2024.2.0,60.00823312853021,2026-01-17 12h38.40.203593 +0530,
6,0,7,s,7.044844600000943,None,7,0,6,238.0066564000008,,,,,,,,,,,,,,,,,,,,,,,,,,,,,,,,,,,,,,,,,,,,,,,,,,237.9925790999987,238.0066564000008,238.50959390000207,238.49118340000132,238.50642560000415,238.50959390000207,238.50959390000207,238.50959390000207,245.55883760000143,Scenes\145a.jpg,pre,s,7.044844600000943,None,,,,,,,,00041,001,2026-01-17_12h38.24.102,MST_test,2024.2.0,60.00823312853021,2026-01-17 12h38.40.203593 +0530,
7,0,8,n,6.402064499998232,None,8,0,7,245.57341710000037,,,,,,,,,,,,,,,,,,,,,,,,,,,,,,,,,,,,,,,,,,,,,,,,,,245.55911080000078,245.57341710000037,246.1355457000027,246.0581272000054,246.13118789999862,246.1355457000027,246.1355457000027,246.1355457000027,252.54223810000258,Scenes\114b.jpg,post,n,6.402064499998232,None,,,,,,,,00041,001,2026-01-17_12h38.24.102,MST_test,2024.2.0,60.00823312853021,2026-01-17 12h38.40.203593 +0530,
8,0,9,n,3.470582000001741,None,9,0,8,252.5568329000016,,,,,,,,,,,,,,,,,,,,,,,,,,,,,,,,,,,,,,,,,,,,,,,,,,252.54257280000456,252.5568329000016,253.09917380000115,253.04147899999953,253.09550560000207,253.09917380000115,253.09917380000115,253.09917380000115,256.57557010000164,Foils\093b.jpg,none,n,3.470582000001741,None,,,,,,,,00041,001,2026-01-17_12h38.24.102,MST_test,2024.2.0,60.00823312853021,2026-01-17 12h38.40.203593 +0530,
9,0,10,s,1.9588038999936543,None,10,0,9,256.5899025000035,,,,,,,,,,,,,,,,,,,,,,,,,,,,,,,,,,,,,,,,,,,,,,,,,,256.5759558999998,256.5899025000035,257.17843410000205,257.0749830999994,257.1754951000039,257.17843410000205,257.17843410000205,257.17843410000205,259.1418521000014,Scenes\069b.jpg,mid,s,1.9588038999936543,None,,,,,,,,00041,001,2026-01-17_12h38.24.102,MST_test,2024.2.0,60.00823312853021,2026-01-17 12h38.40.203593 +0530,
10,0,11,s,4.020965399999113,None,11,0,10,259.15674570000556,,,,,,,,,,,,,,,,,,,,,,,,,,,,,,,,,,,,,,,,,,,,,,,,,,259.14228540000477,259.15674570000556,259.79680740000185,259.64101970000047,259.79194210000423,259.79680740000185,259.79680740000185,259.79680740000185,263.8251296000017,Scenes\086b.jpg,pre,s,4.020965399999113,None,,,,,,,,00041,001,2026-01-17_12h38.24.102,MST_test,2024.2.0,60.00823312853021,2026-01-17 12h38.40.203593 +0530,
11,0,12,s,2.3799865000037244,None,12,0,11,263.8402550000028,,,,,,,,,,,,,,,,,,,,,,,,,,,,,,,,,,,,,,,,,,,,,,,,,,263.82554090000485,263.8402550000028,264.36542040000495,264.3244974000045,264.36152140000195,264.36542040000495,264.36542040000495,264.36542040000495,266.75862490000145,Objects\010b.jpg,mid,s,2.3799865000037244,None,,,,,,,,00041,001,2026-01-17_12h38.24.102,MST_test,2024.2.0,60.00823312853021,2026-01-17 12h38.40.203593 +0530,
12,0,13,s,13.945394000002125,None,13,0,12,266.7732595000052,,,,,,,,,,,,,,,,,,,,,,,,,,,,,,,,,,,,,,,,,,,,,,,,,,266.7588648000019,266.7732595000052,267.3279939999993,267.25747129999945,267.325090600003,267.3279939999993,267.3279939999993,267.3279939999993,281.2757509000003,Scenes\128b.jpg,pre,s,13.945394000002125,None,,,,,,,,00041,001,2026-01-17_12h38.24.102,MST_test,2024.2.0,60.00823312853021,2026-01-17 12h38.40.203593 +0530,
13,0,14,o,3.105132299999241,None,14,0,13,281.2901258000056,,,,,,,,,,,,,,,,,,,,,,,,,,,,,,,,,,,,,,,,,,,,,,,,,,281.2760841999989,281.2901258000056,281.84758090000105,281.7743350000019,281.844159100001,281.84758090000105,281.84758090000105,281.84758090000105,284.95875000000524,Objects\007b.jpg,post,o,3.105132299999241,None,,,,,,,,00041,001,2026-01-17_12h38.24.102,MST_test,2024.2.0,60.00823312853021,2026-01-17 12h38.40.203593 +0530,
14,0,15,o,6.302313500003947,None,15,0,14,284.973404700002,,,,,,,,,,,,,,,,,,,,,,,,,,,,,,,,,,,,,,,,,,,,,,,,,,284.95917040000495,284.973404700002,285.47482709999895,285.45768410000164,285.4715503000043,285.47482709999895,285.47482709999895,285.47482709999895,291.7920703999989,Scenes\100a.jpg,pre,o,6.302313500003947,None,,,,,,,,00041,001,2026-01-17_12h38.24.102,MST_test,2024.2.0,60.00823312853021,2026-01-17 12h38.40.203593 +0530,
15,0,16,o,3.266832900000736,None,16,0,15,291.8066820000022,,,,,,,,,,,,,,,,,,,,,,,,,,,,,,,,,,,,,,,,,,,,,,,,,,291.79245739999897,291.8066820000022,292.3105863000019,292.29178390000015,292.30714910000097,292.3105863000019,292.3105863000019,292.3105863000019,295.59219130000565,Scenes\176a.jpg,pre,o,3.266832900000736,None,,,,,,,,00041,001,2026-01-17_12h38.24.102,MST_test,2024.2.0,60.00823312853021,2026-01-17 12h38.40.203593 +0530,
16,0,17,o,2.1100914999988163,None,17,0,16,295.60672429999977,,,,,,,,,,,,,,,,,,,,,,,,,,,,,,,,,,,,,,,,,,,,,,,,,,295.5925841999997,295.60672429999977,296.10755330000393,296.09159050000017,296.10119790000317,296.10755330000393,296.10755330000393,296.10755330000393,298.22521940000297,Objects\066a.jpg,post,o,2.1100914999988163,None,,,,,,,,00041,001,2026-01-17_12h38.24.102,MST_test,2024.2.0,60.00823312853021,2026-01-17 12h38.40.203593 +0530,
17,0,18,n,3.451166699996975,None,18,0,17,298.2401100999996,,,,,,,,,,,,,,,,,,,,,,,,,,,,,,,,,,,,,,,,,,,,,,,,,,298.22558160000335,298.2401100999996,298.7414357000016,298.72463390000485,298.736032300003,298.7414357000016,298.7414357000016,298.7414357000016,302.20844090000173,Scenes\126a.jpg,mid,n,3.451166699996975,None,,,,,,,,00041,001,2026-01-17_12h38.24.102,MST_test,2024.2.0,60.00823312853021,2026-01-17 12h38.40.203593 +0530,
18,0,19,s,4.755082499999844,None,19,0,18,302.22353160000057,,,,,,,,,,,,,,,,,,,,,,,,,,,,,,,,,,,,,,,,,,,,,,,,,,302.2086899999995,302.22353160000057,302.7586306000012,302.70777180000005,302.7553670999987,302.7586306000012,302.7586306000012,302.7586306000012,307.52523790000123,Objects\142b.jpg,mid,s,4.755082499999844,None,,,,,,,,00041,001,2026-01-17_12h38.24.102,MST_test,2024.2.0,60.00823312853021,2026-01-17 12h38.40.203593 +0530,
19,0,20,n,4.057253800005128,None,20,0,19,307.5407007000031,,,,,,,,,,,,,,,,,,,,,,,,,,,,,,,,,,,,,,,,,,,,,,,,,,307.5255848000015,307.5407007000031,308.04030420000345,308.0246224000002,308.03202880000026,308.04030420000345,308.04030420000345,308.04030420000345,312.1087501000002,Objects\159a.jpg,mid,n,4.057253800005128,None,,,,,,,,00041,001,2026-01-17_12h38.24.102,MST_test,2024.2.0,60.00823312853021,2026-01-17 12h38.40.203593 +0530,
20,0,21,s,2.4470609999989392,None,21,0,20,312.1235517000023,,,,,,,,,,,,,,,,,,,,,,,,,,,,,,,,,,,,,,,,,,,,,,,,,,312.10901800000283,312.1235517000023,312.6266321000003,312.6076735000024,312.62390479999885,312.6266321000003,312.6266321000003,312.6266321000003,315.0756423000057,Scenes\055a.jpg,post,s,2.4470609999989392,None,,,,,,,,00041,001,2026-01-17_12h38.24.102,MST_test,2024.2.0,60.00823312853021,2026-01-17 12h38.40.203593 +0530,
21,0,22,s,3.245072400000936,None,22,0,21,315.09012280000024,,,,,,,,,,,,,,,,,,,,,,,,,,,,,,,,,,,,,,,,,,,,,,,,,,315.07586590000574,315.09012280000024,315.6761298000056,315.5743928000011,315.673191599999,315.6761298000056,315.6761298000056,315.6761298000056,318.92563130000053,Scenes\121b.jpg,post,s,3.245072400000936,None,,,,,,,,00041,001,2026-01-17_12h38.24.102,MST_test,2024.2.0,60.00823312853021,2026-01-17 12h38.40.203593 +0530,
22,0,23,o,2.624187499997788,None,23,0,22,318.94006790000276,,,,,,,,,,,,,,,,,,,,,,,,,,,,,,,,,,,,,,,,,,,,,,,,,,318.9258972000025,318.94006790000276,319.441344400002,319.42446870000276,319.4322772000014,319.441344400002,319.441344400002,319.441344400002,322.07558530000097,Objects\145a.jpg,post,o,2.624187499997788,None,,,,,,,,00041,001,2026-01-17_12h38.24.102,MST_test,2024.2.0,60.00823312853021,2026-01-17 12h38.40.203593 +0530,
23,0,24,s,3.2664487000001827,None,24,0,23,322.09030899999925,,,,,,,,,,,,,,,,,,,,,,,,,,,,,,,,,,,,,,,,,,,,,,,,,,322.07586640000227,322.09030899999925,322.61562520000007,322.5744224000009,322.61264980000124,322.61562520000007,322.61562520000007,322.61562520000007,325.8918150000027,Foils\scenes1.jpg,none,s,3.2664487000001827,None,,,,,,,,00041,001,2026-01-17_12h38.24.102,MST_test,2024.2.0,60.00823312853021,2026-01-17 12h38.40.203593 +0530,
24,0,25,o,5.1856635000003735,None,25,0,24,325.90678820000176,,,,,,,,,,,,,,,,,,,,,,,,,,,,,,,,,,,,,,,,,,,,,,,,,,325.8920686999991,325.90678820000176,326.40761490000295,326.39209870000195,326.4001747000002,326.40761490000295,326.40761490000295,326.40761490000295,331.6083657000054,Objects\169a.jpg,post,o,5.1856635000003735,None,,,,,,,,00041,001,2026-01-17_12h38.24.102,MST_test,2024.2.0,60.00823312853021,2026-01-17 12h38.40.203593 +0530,
25,0,26,n,2.491912299999967,None,26,0,25,331.62327760000335,,,,,,,,,,,,,,,,,,,,,,,,,,,,,,,,,,,,,,,,,,,,,,,,,,331.6086252000023,331.62327760000335,332.1251794999989,332.10770610000327,332.1218982999999,332.1251794999989,332.1251794999989,332.1251794999989,334.62562090000574,Scenes\072a.jpg,mid,n,2.491912299999967,None,,,,,,,,00041,001,2026-01-17_12h38.24.102,MST_test,2024.2.0,60.00823312853021,2026-01-17 12h38.40.203593 +0530,
26,0,27,n,1.52529460000369,None,27,0,26,334.6400766000006,,,,,,,,,,,,,,,,,,,,,,,,,,,,,,,,,,,,,,,,,,,,,,,,,,334.62599970000156,334.6400766000006,335.204725100004,335.12434270000085,335.20159350000176,335.204725100004,335.204725100004,335.204725100004,336.7427792000017,Foils\113a.jpg,none,n,1.52529460000369,None,,,,,,,,00041,001,2026-01-17_12h38.24.102,MST_test,2024.2.0,60.00823312853021,2026-01-17 12h38.40.203593 +0530,
27,0,28,n,1.6048618999993778,None,28,0,27,336.7567612000057,,,,,,,,,,,,,,,,,,,,,,,,,,,,,,,,,,,,,,,,,,,,,,,,,,336.74317220000376,336.7567612000057,337.3083778,337.2420912000016,337.3040528999991,337.3083778,337.3083778,337.3083778,338.92636000000493,Scenes\162b.jpg,pre,n,1.6048618999993778,None,,,,,,,,00041,001,2026-01-17_12h38.24.102,MST_test,2024.2.0,60.00823312853021,2026-01-17 12h38.40.203593 +0530,
28,0,29,n,1.9579453000042122,None,29,0,28,338.9399399000031,,,,,,,,,,,,,,,,,,,,,,,,,,,,,,,,,,,,,,,,,,,,,,,,,,338.92662250000285,338.9399399000031,339.4512248000028,339.42460890000075,339.44801530000404,339.4512248000028,339.4512248000028,339.4512248000028,341.42564810000476,Foils\121a.jpg,none,n,1.9579453000042122,None,,,,,,,,00041,001,2026-01-17_12h38.24.102,MST_test,2024.2.0,60.00823312853021,2026-01-17 12h38.40.203593 +0530,
29,0,30,o,4.9120608000012,None,30,0,29,341.44006820000504,,,,,,,,,,,,,,,,,,,,,,,,,,,,,,,,,,,,,,,,,,,,,,,,,,341.4259471000041,341.44006820000504,341.944994700003,341.92461140000523,341.94227580000006,341.944994700003,341.944994700003,341.944994700003,346.85938100000203,Scenes\038a.jpg,pre,o,4.9120608000012,None,,,,,,,,00041,001,2026-01-17_12h38.24.102,MST_test,2024.2.0,60.00823312853021,2026-01-17 12h38.40.203593 +0530,
30,0,31,o,2.314273100004357,None,31,0,30,346.8734165999995,,,,,,,,,,,,,,,,,,,,,,,,,,,,,,,,,,,,,,,,,,,,,,,,,,346.85978270000487,346.8734165999995,347.3745313000036,347.35809990000416,347.3713970000026,347.3745313000036,347.3745313000036,347.3745313000036,349.69142920000013,Scenes\008a.jpg,mid,o,2.314273100004357,None,,,,,,,,00041,001,2026-01-17_12h38.24.102,MST_test,2024.2.0,60.00823312853021,2026-01-17 12h38.40.203593 +0530,
31,0,32,s,1.8172859999976936,None,32,0,31,349.70686710000155,,,,,,,,,,,,,,,,,,,,,,,,,,,,,,,,,,,,,,,,,,,,,,,,,,349.6916036000039,349.70686710000155,350.30359370000224,350.1911387,350.3003982000009,350.30359370000224,350.30359370000224,350.30359370000224,352.1254096000048,Scenes\093b.jpg,post,s,1.8172859999976936,None,,,,,,,,00041,001,2026-01-17_12h38.24.102,MST_test,2024.2.0,60.00823312853021,2026-01-17 12h38.40.203593 +0530,
32,0,33,o,1.6088320999988355,None,33,0,32,352.1400766000006,,,,,,,,,,,,,,,,,,,,,,,,,,,,,,,,,,,,,,,,,,,,,,,,,,352.1257814000055,352.1400766000006,352.64060430000245,352.6245889999991,352.63376920000155,352.64060430000245,352.64060430000245,352.64060430000245,354.2582872000057,Objects\049a.jpg,post,o,1.6088320999988355,None,,,,,,,,00041,001,2026-01-17_12h38.24.102,MST_test,2024.2.0,60.00823312853021,2026-01-17 12h38.40.203593 +0530,
33,0,34,s,1.7911884000059217,None,34,0,33,354.27337130000524,,,,,,,,,,,,,,,,,,,,,,,,,,,,,,,,,,,,,,,,,,,,,,,,,,354.2586517000018,354.27337130000524,354.81747480000195,354.7581261000014,354.81448490000184,354.81747480000195,354.81747480000195,354.81747480000195,356.62567050000507,Objects\043b.jpg,post,s,1.7911884000059217,None,,,,,,,,00041,001,2026-01-17_12h38.24.102,MST_test,2024.2.0,60.00823312853021,2026-01-17 12h38.40.203593 +0530,
34,0,35,o,3.312175999999454,None,35,0,34,356.6401171000034,,,,,,,,,,,,,,,,,,,,,,,,,,,,,,,,,,,,,,,,,,,,,,,,,,356.6260559000002,356.6401171000034,357.1685820000057,357.1245115000056,357.1661138000054,357.1685820000057,357.1685820000057,357.1685820000057,360.492132899999,Objects\031b.jpg,pre,o,3.312175999999454,None,,,,,,,,00041,001,2026-01-17_12h38.24.102,MST_test,2024.2.0,60.00823312853021,2026-01-17 12h38.40.203593 +0530,
35,0,36,s,2.4899245999986306,None,36,0,35,360.5067105000053,,,,,,,,,,,,,,,,,,,,,,,,,,,,,,,,,,,,,,,,,,,,,,,,,,360.49239130000205,360.5067105000053,361.0073160000029,360.99117079999996,361.0021575999999,361.0073160000029,361.0073160000029,361.0073160000029,363.50916100000177,Scenes\027a.jpg,pre,s,2.4899245999986306,None,,,,,,,,00041,001,2026-01-17_12h38.24.102,MST_test,2024.2.0,60.00823312853021,2026-01-17 12h38.40.203593 +0530,
36,0,37,s,2.5691173000013805,None,37,0,36,363.52363139999943,,,,,,,,,,,,,,,,,,,,,,,,,,,,,,,,,,,,,,,,,,,,,,,,,,363.5095933000048,363.52363139999943,364.1043325999999,364.0081075000053,364.1009116999994,364.1043325999999,364.1043325999999,364.1043325999999,366.6758670000054,Scenes\170b.jpg,post,s,2.5691173000013805,None,,,,,,,,00041,001,2026-01-17_12h38.24.102,MST_test,2024.2.0,60.00823312853021,2026-01-17 12h38.40.203593 +0530,
37,0,38,s,6.38919590000296,None,38,0,37,366.6900439000019,,,,,,,,,,,,,,,,,,,,,,,,,,,,,,,,,,,,,,,,,,,,,,,,,,366.6762923999995,366.6900439000019,367.24367150000035,367.17462720000185,367.2401736000029,367.24367150000035,367.24367150000035,367.24367150000035,373.6422776000036,Objects\109b.jpg,pre,s,6.38919590000296,None,,,,,,,,00041,001,2026-01-17_12h38.24.102,MST_test,2024.2.0,60.00823312853021,2026-01-17 12h38.40.203593 +0530,
38,0,39,s,1.8289583000005223,None,39,0,38,373.65663730000233,,,,,,,,,,,,,,,,,,,,,,,,,,,,,,,,,,,,,,,,,,,,,,,,,,373.64268260000244,373.65663730000233,374.15700410000136,374.1413415999996,374.1484602000055,374.15700410000136,374.15700410000136,374.15700410000136,375.9916185000038,Objects\179a.jpg,mid,s,1.8289583000005223,None,,,,,,,,00041,001,2026-01-17_12h38.24.102,MST_test,2024.2.0,60.00823312853021,2026-01-17 12h38.40.203593 +0530,
39,0,40,s,5.053265700000338,None,40,0,39,376.00680940000166,,,,,,,,,,,,,,,,,,,,,,,,,,,,,,,,,,,,,,,,,,,,,,,,,,375.9917956999998,376.00680940000166,376.5072650000002,376.49107039999944,376.5020973999999,376.5072650000002,376.5072650000002,376.5072650000002,381.57543960000476,Scenes\144a.jpg,mid,s,5.053265700000338,None,,,,,,,,00041,001,2026-01-17_12h38.24.102,MST_test,2024.2.0,60.00823312853021,2026-01-17 12h38.40.203593 +0530,
40,0,41,o,3.358229900004517,None,41,0,40,381.5901823000022,,,,,,,,,,,,,,,,,,,,,,,,,,,,,,,,,,,,,,,,,,,,,,,,,,381.5757025000057,381.5901823000022,382.09118780000426,382.07439180000074,382.08523490000516,382.09118780000426,382.09118780000426,382.09118780000426,385.45858820000285,Scenes\154a.jpg,pre,o,3.358229900004517,None,,,,,,,,00041,001,2026-01-17_12h38.24.102,MST_test,2024.2.0,60.00823312853021,2026-01-17 12h38.40.203593 +0530,
41,0,42,s,2.1929452999975183,None,42,0,41,385.47346220000327,,,,,,,,,,,,,,,,,,,,,,,,,,,,,,,,,,,,,,,,,,,,,,,,,,385.45887930000026,385.47346220000327,385.98437099999865,385.95834820000164,385.98126530000445,385.98437099999865,385.98437099999865,385.98437099999865,388.1919812000051,Scenes\190a.jpg,post,s,2.1929452999975183,None,,,,,,,,00041,001,2026-01-17_12h38.24.102,MST_test,2024.2.0,60.00823312853021,2026-01-17 12h38.40.203593 +0530,
42,0,43,s,2.3329223999971873,None,43,0,42,388.2066683000012,,,,,,,,,,,,,,,,,,,,,,,,,,,,,,,,,,,,,,,,,,,,,,,,,,388.19226419999904,388.2066683000012,388.74831540000014,388.69127290000324,388.74402499999997,388.74831540000014,388.74831540000014,388.74831540000014,391.0922226000039,Objects\095b.jpg,pre,s,2.3329223999971873,None,,,,,,,,00041,001,2026-01-17_12h38.24.102,MST_test,2024.2.0,60.00823312853021,2026-01-17 12h38.40.203593 +0530,
43,0,44,o,5.529776999996102,None,44,0,43,391.10679810000147,,,,,,,,,,,,,,,,,,,,,,,,,,,,,,,,,,,,,,,,,,,,,,,,,,391.0925570000036,391.10679810000147,391.60706810000556,391.5911033000011,391.59874420000415,391.60706810000556,391.60706810000556,391.60706810000556,397.14200100000016,Objects\004a.jpg,mid,o,5.529776999996102,None,,,,,,,,00041,001,2026-01-17_12h38.24.102,MST_test,2024.2.0,60.00823312853021,2026-01-17 12h38.40.203593 +0530,
44,0,45,s,1.925787300002412,None,45,0,44,397.1566024000058,,,,,,,,,,,,,,,,,,,,,,,,,,,,,,,,,,,,,,,,,,,,,,,,,,397.1423400000058,397.1566024000058,397.75564190000296,397.6411842000016,397.75282040000457,397.75564190000296,397.75564190000296,397.75564190000296,399.6913710000008,Scenes\094b.jpg,pre,s,1.925787300002412,None,,,,,,,,00041,001,2026-01-17_12h38.24.102,MST_test,2024.2.0,60.00823312853021,2026-01-17 12h38.40.203593 +0530,
45,0,46,s,3.3697955000025104,None,46,0,45,399.70667870000034,,,,,,,,,,,,,,,,,,,,,,,,,,,,,,,,,,,,,,,,,,,,,,,,,,399.69152960000065,399.70667870000034,400.20736380000017,400.1914598000003,400.2018326000034,400.20736380000017,400.20736380000017,400.20736380000017,403.59238720000576,Scenes\065a.jpg,post,s,3.3697955000025104,None,,,,,,,,00041,001,2026-01-17_12h38.24.102,MST_test,2024.2.0,60.00823312853021,2026-01-17 12h38.40.203593 +0530,
46,0,47,s,2.465722100001585,None,47,0,46,403.6067803000042,,,,,,,,,,,,,,,,,,,,,,,,,,,,,,,,,,,,,,,,,,,,,,,,,,403.5927417999992,403.6067803000042,404.1106381999998,404.09111649999977,404.10782740000286,404.1106381999998,404.1106381999998,404.1106381999998,406.59250460000476,Scenes\103a.jpg,post,s,2.465722100001585,None,,,,,,,,00041,001,2026-01-17_12h38.24.102,MST_test,2024.2.0,60.00823312853021,2026-01-17 12h38.40.203593 +0530,
47,0,48,o,3.9098102999996627,None,48,0,47,406.6073045000012,,,,,,,,,,,,,,,,,,,,,,,,,,,,,,,,,,,,,,,,,,,,,,,,,,406.5927580999996,406.6073045000012,407.1074286000003,407.0913006000046,407.0977086000057,407.1074286000003,407.1074286000003,407.1074286000003,411.0258959000057,Objects\173a.jpg,pre,o,3.9098102999996627,None,,,,,,,,00041,001,2026-01-17_12h38.24.102,MST_test,2024.2.0,60.00823312853021,2026-01-17 12h38.40.203593 +0530,
48,0,49,n,8.522149299999,None,49,0,48,411.0400762999998,,,,,,,,,,,,,,,,,,,,,,,,,,,,,,,,,,,,,,,,,,,,,,,,,,411.02626910000254,411.0400762999998,411.5913134000002,411.5246221000052,411.5882782000044,411.5913134000002,411.5913134000002,411.5913134000002,420.12550520000514,Scenes\125b.jpg,pre,n,8.522149299999,None,,,,,,,,00041,001,2026-01-17_12h38.24.102,MST_test,2024.2.0,60.00823312853021,2026-01-17 12h38.40.203593 +0530,
49,0,50,s,1.9118715999939013,None,50,0,49,420.13996359999874,,,,,,,,,,,,,,,,,,,,,,,,,,,,,,,,,,,,,,,,,,,,,,,,,,420.1259485000046,420.13996359999874,420.65754690000176,420.62468490000174,420.65402720000566,420.65754690000176,420.65754690000176,420.65754690000176,422.5749739000021,Objects\148b.jpg,pre,s,1.9118715999939013,None,,,,,,,,00041,001,2026-01-17_12h38.24.102,MST_test,2024.2.0,60.00823312853021,2026-01-17 12h38.40.203593 +0530,
50,0,51,n,2.781871200000751,None,51,0,50,422.590111000005,,,,,,,,,,,,,,,,,,,,,,,,,,,,,,,,,,,,,,,,,,,,,,,,,,422.57523570000194,422.590111000005,423.09060370000225,423.07463460000145,423.0848269000053,423.09060370000225,423.09060370000225,423.09060370000225,425.8757872999995,Scenes\050a.jpg,post,n,2.781871200000751,None,,,,,,,,00041,001,2026-01-17_12h38.24.102,MST_test,2024.2.0,60.00823312853021,2026-01-17 12h38.40.203593 +0530,
51,0,52,s,8.38781910000398,None,52,0,51,425.89004820000264,,,,,,,,,,,,,,,,,,,,,,,,,,,,,,,,,,,,,,,,,,,,,,,,,,425.8760514000023,425.89004820000264,426.43711440000334,426.37474010000005,426.43382250000286,426.43711440000334,426.43711440000334,426.43711440000334,434.8413978000026,Objects\120b.jpg,post,s,8.38781910000398,None,,,,,,,,00041,001,2026-01-17_12h38.24.102,MST_test,2024.2.0,60.00823312853021,2026-01-17 12h38.40.203593 +0530,
52,0,53,o,4.941844200002379,None,53,0,52,434.85662859999866,,,,,,,,,,,,,,,,,,,,,,,,,,,,,,,,,,,,,,,,,,,,,,,,,,434.8416412000006,434.85662859999866,435.3640192000021,435.3412951999999,435.3612420999998,435.3640192000021,435.3640192000021,435.3640192000021,440.308572599999,Scenes\167a.jpg,mid,o,4.941844200002379,None,,,,,,,,00041,001,2026-01-17_12h38.24.102,MST_test,2024.2.0,60.00823312853021,2026-01-17 12h38.40.203593 +0530,
53,0,54,o,1.6893994999991264,None,54,0,53,440.32442340000125,,,,,,,,,,,,,,,,,,,,,,,,,,,,,,,,,,,,,,,,,,,,,,,,,,440.30898040000466,440.32442340000125,440.82402960000036,440.8079551000046,440.81623599999875,440.82402960000036,440.82402960000036,440.82402960000036,442.5252892999997,Objects\106a.jpg,post,o,1.6893994999991264,None,,,,,,,,00041,001,2026-01-17_12h38.24.102,MST_test,2024.2.0,60.00823312853021,2026-01-17 12h38.40.203593 +0530,
54,0,55,o,2.5932298000043374,None,55,0,54,442.54015540000546,,,,,,,,,,,,,,,,,,,,,,,,,,,,,,,,,,,,,,,,,,,,,,,,,,442.5256264999989,442.54015540000546,443.0403221000015,443.0245578000031,443.03166910000436,443.0403221000015,443.0403221000015,443.0403221000015,445.64189420000184,Objects\172a.jpg,pre,o,2.5932298000043374,None,,,,,,,,00041,001,2026-01-17_12h38.24.102,MST_test,2024.2.0,60.00823312853021,2026-01-17 12h38.40.203593 +0530,
55,0,56,n,1.2656777000011061,None,56,0,55,445.6566649000015,,,,,,,,,,,,,,,,,,,,,,,,,,,,,,,,,,,,,,,,,,,,,,,,,,445.6422176000051,445.6566649000015,446.2637581000017,446.14129340000363,446.26028829999996,446.2637581000017,446.2637581000017,446.2637581000017,447.5423284999997,Scenes\113b.jpg,post,n,1.2656777000011061,None,,,,,,,,00041,001,2026-01-17_12h38.24.102,MST_test,2024.2.0,60.00823312853021,2026-01-17 12h38.40.203593 +0530,
56,0,57,o,3.0234347000005073,None,57,0,56,447.55674480000016,,,,,,,,,,,,,,,,,,,,,,,,,,,,,,,,,,,,,,,,,,,,,,,,,,447.54261060000135,447.55674480000016,448.05761010000424,448.0413062000007,448.0544824000026,448.05761010000424,448.05761010000424,448.05761010000424,451.0922350000037,Scenes\186a.jpg,post,o,3.0234347000005073,None,,,,,,,,00041,001,2026-01-17_12h38.24.102,MST_test,2024.2.0,60.00823312853021,2026-01-17 12h38.40.203593 +0530,
57,0,58,n,1.4130466999995406,None,58,0,57,451.10679600000003,,,,,,,,,,,,,,,,,,,,,,,,,,,,,,,,,,,,,,,,,,,,,,,,,,451.09249049999926,451.10679600000003,451.6368159000049,451.5913403000013,451.63269669999863,451.6368159000049,451.6368159000049,451.6368159000049,453.05865330000233,Foils\106a.jpg,none,n,1.4130466999995406,None,,,,,,,,00041,001,2026-01-17_12h38.24.102,MST_test,2024.2.0,60.00823312853021,2026-01-17 12h38.40.203593 +0530,
58,0,59,n,2.258563800001866,None,59,0,58,453.07355010000174,,,,,,,,,,,,,,,,,,,,,,,,,,,,,,,,,,,,,,,,,,,,,,,,,,453.0590678000008,453.07355010000174,453.5740616000039,453.55790730000444,453.56786750000174,453.5740616000039,453.5740616000039,453.5740616000039,455.84200290000445,Scenes\188a.jpg,post,n,2.258563800001866,None,,,,,,,,00041,001,2026-01-17_12h38.24.102,MST_test,2024.2.0,60.00823312853021,2026-01-17 12h38.40.203593 +0530,
59,0,60,s,1.5206791000018711,None,60,0,59,455.8569104999988,,,,,,,,,,,,,,,,,,,,,,,,,,,,,,,,,,,,,,,,,,,,,,,,,,455.8423136000056,455.8569104999988,456.40793940000003,456.3411044000022,456.4045933000016,456.40793940000003,456.40793940000003,456.40793940000003,457.9418034000046,Scenes\051b.jpg,mid,s,1.5206791000018711,None,,,,,,,,00041,001,2026-01-17_12h38.24.102,MST_test,2024.2.0,60.00823312853021,2026-01-17 12h38.40.203593 +0530,
60,0,61,s,2.0224742000063998,None,61,0,60,457.95667450000474,,,,,,,,,,,,,,,,,,,,,,,,,,,,,,,,,,,,,,,,,,,,,,,,,,457.94209180000325,457.95667450000474,458.49897110000165,458.441256099999,458.4953081999993,458.49897110000165,458.49897110000165,458.49897110000165,460.5255391000028,Objects\026b.jpg,mid,s,2.0224742000063998,None,,,,,,,,00041,001,2026-01-17_12h38.24.102,MST_test,2024.2.0,60.00823312853021,2026-01-17 12h38.40.203593 +0530,
61,0,62,s,6.421312800004671,None,62,0,61,460.5401181999987,,,,,,,,,,,,,,,,,,,,,,,,,,,,,,,,,,,,,,,,,,,,,,,,,,460.525770500004,460.5401181999987,461.076066900001,461.02452660000563,461.0729066999993,461.076066900001,461.076066900001,461.076066900001,467.50847830000566,Objects\166b.jpg,pre,s,6.421312800004671,None,,,,,,,,00041,001,2026-01-17_12h38.24.102,MST_test,2024.2.0,60.00823312853021,2026-01-17 12h38.40.203593 +0530,
62,0,63,s,3.1705030000011902,None,63,0,62,467.52334659999906,,,,,,,,,,,,,,,,,,,,,,,,,,,,,,,,,,,,,,,,,,,,,,,,,,467.5087321000028,467.52334659999906,468.14338910000515,468.00776770000084,468.1393384000039,468.14338910000515,468.14338910000515,468.14338910000515,471.32556620000105,Scenes\134b.jpg,post,s,3.1705030000011902,None,,,,,,,,00041,001,2026-01-17_12h38.24.102,MST_test,2024.2.0,60.00823312853021,2026-01-17 12h38.40.203593 +0530,
63,0,64,n,5.826291699995636,None,64,0,63,471.3400690999988,,,,,,,,,,,,,,,,,,,,,,,,,,,,,,,,,,,,,,,,,,,,,,,,,,471.32588450000185,471.3400690999988,471.8945939000041,471.82456330000423,471.8918698999987,471.8945939000041,471.8945939000041,471.8945939000041,477.72596519999934,Foils\scenes19.jpg,none,n,5.826291699995636,None,,,,,,,,00041,001,2026-01-17_12h38.24.102,MST_test,2024.2.0,60.00823312853021,2026-01-17 12h38.40.203593 +0530,
64,0,65,n,1.4753808000023128,None,65,0,64,477.73990290000074,,,,,,,,,,,,,,,,,,,,,,,,,,,,,,,,,,,,,,,,,,,,,,,,,,477.7263680000033,477.73990290000074,478.2770848,478.22449380000035,478.27354729999934,478.2770848,478.2770848,478.2770848,479.75914159999957,Foils\scenes18.jpg,none,n,1.4753808000023128,None,,,,,,,,00041,001,2026-01-17_12h38.24.102,MST_test,2024.2.0,60.00823312853021,2026-01-17 12h38.40.203593 +0530,
65,0,66,s,2.17895519999729,None,66,0,65,479.7734105999989,,,,,,,,,,,,,,,,,,,,,,,,,,,,,,,,,,,,,,,,,,,,,,,,,,479.75941330000205,479.7734105999989,480.27802930000325,480.2576712000009,480.2751802000057,480.27802930000325,480.27802930000325,480.27802930000325,482.45914959999936,Scenes\084a.jpg,mid,s,2.17895519999729,None,,,,,,,,00041,001,2026-01-17_12h38.24.102,MST_test,2024.2.0,60.00823312853021,2026-01-17 12h38.40.203593 +0530,
66,0,67,s,4.030806399998255,None,67,0,66,482.4738017000054,,,,,,,,,,,,,,,,,,,,,,,,,,,,,,,,,,,,,,,,,,,,,,,,,,482.4594107000012,482.4738017000054,483.0590302000055,482.95768099999987,483.05594980000023,483.0590302000055,483.0590302000055,483.0590302000055,487.092224,Scenes\192b.jpg,mid,s,4.030806399998255,None,,,,,,,,00041,001,2026-01-17_12h38.24.102,MST_test,2024.2.0,60.00823312853021,2026-01-17 12h38.40.203593 +0530,
67,0,68,s,1.6581521999978577,None,68,0,67,487.10666440000205,,,,,,,,,,,,,,,,,,,,,,,,,,,,,,,,,,,,,,,,,,,,,,,,,,487.09254800000053,487.10666440000205,487.6873529000004,487.59122529999877,487.68439539999963,487.6873529000004,487.6873529000004,487.6873529000004,489.3585758000045,Objects\153b.jpg,mid,s,1.6581521999978577,None,,,,,,,,00041,001,2026-01-17_12h38.24.102,MST_test,2024.2.0,60.00823312853021,2026-01-17 12h38.40.203593 +0530,
68,0,69,n,4.566159499998321,None,69,0,68,489.37348380000185,,,,,,,,,,,,,,,,,,,,,,,,,,,,,,,,,,,,,,,,,,,,,,,,,,489.3588635999986,489.37348380000185,489.9391676000014,489.8581925000035,489.93626020000374,489.9391676000014,489.9391676000014,489.9391676000014,494.5089336000019,Foils\042a.jpg,none,n,4.566159499998321,None,,,,,,,,00041,001,2026-01-17_12h38.24.102,MST_test,2024.2.0,60.00823312853021,2026-01-17 12h38.40.203593 +0530,
69,0,70,s,5.7294212999986485,None,70,0,69,494.52333270000236,,,,,,,,,,,,,,,,,,,,,,,,,,,,,,,,,,,,,,,,,,,,,,,,,,494.50941050000256,494.52333270000236,495.03185700000176,495.00860269999976,495.02887159999955,495.03185700000176,495.03185700000176,495.03185700000176,500.7757669000057,Scenes\023a.jpg,pre,s,5.7294212999986485,None,,,,,,,,00041,001,2026-01-17_12h38.24.102,MST_test,2024.2.0,60.00823312853021,2026-01-17 12h38.40.203593 +0530,
70,0,71,o,2.0860451000044122,None,71,0,70,500.7901323000042,,,,,,,,,,,,,,,,,,,,,,,,,,,,,,,,,,,,,,,,,,,,,,,,,,500.7761395999987,500.7901323000042,501.2908826999992,501.27494619999925,501.2833590000009,501.2908826999992,501.2908826999992,501.2908826999992,503.3923724000051,Objects\151a.jpg,post,o,2.0860451000044122,None,,,,,,,,00041,001,2026-01-17_12h38.24.102,MST_test,2024.2.0,60.00823312853021,2026-01-17 12h38.40.203593 +0530,
71,0,72,n,1.483774899999844,None,72,0,71,503.40669380000327,,,,,,,,,,,,,,,,,,,,,,,,,,,,,,,,,,,,,,,,,,,,,,,,,,503.39273010000034,503.40669380000327,504.05306170000404,503.89113550000184,504.0485189000028,504.05306170000404,504.05306170000404,504.05306170000404,505.5436048000047,Foils\scenes25.jpg,none,n,1.483774899999844,None,,,,,,,,00041,001,2026-01-17_12h38.24.102,MST_test,2024.2.0,60.00823312853021,2026-01-17 12h38.40.203593 +0530,
72,0,73,n,1.647647000005236,None,73,0,72,505.5574751000022,,,,,,,,,,,,,,,,,,,,,,,,,,,,,,,,,,,,,,,,,,,,,,,,,,505.5439039000048,505.5574751000022,506.12091599999985,506.0409102000049,506.11828300000343,506.12091599999985,506.12091599999985,506.12091599999985,507.7760325000054,Foils\scenes8.jpg,none,n,1.647647000005236,None,,,,,,,,00041,001,2026-01-17_12h38.24.102,MST_test,2024.2.0,60.00823312853021,2026-01-17 12h38.40.203593 +0530,
73,0,74,n,3.4881729999979143,None,74,0,73,507.790196300004,,,,,,,,,,,,,,,,,,,,,,,,,,,,,,,,,,,,,,,,,,,,,,,,,,507.7764096000028,507.790196300004,508.32909550000477,508.27449830000114,508.32591980000143,508.32909550000477,508.32909550000477,508.32909550000477,511.82508059999964,Foils\065a.jpg,none,n,3.4881729999979143,None,,,,,,,,00041,001,2026-01-17_12h38.24.102,MST_test,2024.2.0,60.00823312853021,2026-01-17 12h38.40.203593 +0530,
74,0,75,s,1.82094959999813,None,75,0,74,511.84013440000126,,,,,,,,,,,,,,,,,,,,,,,,,,,,,,,,,,,,,,,,,,,,,,,,,,511.82535080000525,511.84013440000126,512.3880294000046,512.3245513000002,512.385111100004,512.3880294000046,512.3880294000046,512.3880294000046,514.2243702999986,Scenes\150b.jpg,pre,s,1.82094959999813,None,,,,,,,,00041,001,2026-01-17_12h38.24.102,MST_test,2024.2.0,60.00823312853021,2026-01-17 12h38.40.203593 +0530,
75,0,76,s,3.8191545000008773,None,76,0,75,514.2398825000055,,,,,,,,,,,,,,,,,,,,,,,,,,,,,,,,,,,,,,,,,,,,,,,,,,514.2244787000018,514.2398825000055,514.7734505000044,514.7237931999989,514.7706489000047,514.7734505000044,514.7734505000044,514.7734505000044,518.6079147000055,Scenes\119b.jpg,post,s,3.8191545000008773,None,,,,,,,,00041,001,2026-01-17_12h38.24.102,MST_test,2024.2.0,60.00823312853021,2026-01-17 12h38.40.203593 +0530,
76,0,77,o,3.414135200000601,None,77,0,76,518.6229829000004,,,,,,,,,,,,,,,,,,,,,,,,,,,,,,,,,,,,,,,,,,,,,,,,,,518.6081804999994,518.6229829000004,519.1624433000034,519.1070483000003,519.1594759,519.1624433000034,519.1624433000034,519.1624433000034,522.5909329999995,Objects\125b.jpg,mid,o,3.414135200000601,None,,,,,,,,00041,001,2026-01-17_12h38.24.102,MST_test,2024.2.0,60.00823312853021,2026-01-17 12h38.40.203593 +0530,
77,0,78,o,4.05401630000415,None,78,0,77,522.606403800004,,,,,,,,,,,,,,,,,,,,,,,,,,,,,,,,,,,,,,,,,,,,,,,,,,522.5911760000017,522.606403800004,523.1065780999998,523.0901302999991,523.0971692000021,523.1065780999998,523.1065780999998,523.1065780999998,527.1744618000012,Objects\147a.jpg,pre,o,4.05401630000415,None,,,,,,,,00041,001,2026-01-17_12h38.24.102,MST_test,2024.2.0,60.00823312853021,2026-01-17 12h38.40.203593 +0530,
78,0,79,n,2.1485987000050955,None,79,0,78,527.1896505000041,,,,,,,,,,,,,,,,,,,,,,,,,,,,,,,,,,,,,,,,,,,,,,,,,,527.1747275000016,527.1896505000041,527.7085910000023,527.6734443000023,527.7045628000051,527.7085910000023,527.7085910000023,527.7085910000023,529.8742961000025,Foils\scenes7.jpg,none,n,2.1485987000050955,None,,,,,,,,00041,001,2026-01-17_12h38.24.102,MST_test,2024.2.0,60.00823312853021,2026-01-17 12h38.40.203593 +0530,
79,0,80,s,1.8779445000036503,None,80,0,79,529.8896767000042,,,,,,,,,,,,,,,,,,,,,,,,,,,,,,,,,,,,,,,,,,,,,,,,,,529.8746068000037,529.8896767000042,530.3943428999992,530.3734289000058,530.3918054000023,530.3943428999992,530.3943428999992,530.3943428999992,532.2746834999998,Scenes\149a.jpg,mid,s,1.8779445000036503,None,,,,,,,,00041,001,2026-01-17_12h38.24.102,MST_test,2024.2.0,60.00823312853021,2026-01-17 12h38.40.203593 +0530,
80,0,81,s,1.919648099996266,None,81,0,80,532.2896669000038,,,,,,,,,,,,,,,,,,,,,,,,,,,,,,,,,,,,,,,,,,,,,,,,,,532.2749392000042,532.2896669000038,532.8255854000017,532.7738699000038,532.8218163000056,532.8255854000017,532.8255854000017,532.8255854000017,534.7576927000046,Objects\156b.jpg,mid,s,1.919648099996266,None,,,,,,,,00041,001,2026-01-17_12h38.24.102,MST_test,2024.2.0,60.00823312853021,2026-01-17 12h38.40.203593 +0530,
81,0,82,s,4.2544226000027265,None,82,0,81,534.7732412000041,,,,,,,,,,,,,,,,,,,,,,,,,,,,,,,,,,,,,,,,,,,,,,,,,,534.7578004000025,534.7732412000041,535.2737644000008,535.2569490000024,535.2703678000034,535.2737644000008,535.2737644000008,535.2737644000008,539.5412603000004,Scenes\140a.jpg,mid,s,4.2544226000027265,None,,,,,,,,00041,001,2026-01-17_12h38.24.102,MST_test,2024.2.0,60.00823312853021,2026-01-17 12h38.40.203593 +0530,
82,0,83,n,2.136343099999067,None,83,0,82,539.5563445000007,,,,,,,,,,,,,,,,,,,,,,,,,,,,,,,,,,,,,,,,,,,,,,,,,,539.5415145000006,539.5563445000007,540.0883249000035,540.0404238000046,540.0855748000031,540.0883249000035,540.0883249000035,540.0883249000035,542.2415030000047,Foils\034a.jpg,none,n,2.136343099999067,None,,,,,,,,00041,001,2026-01-17_12h38.24.102,MST_test,2024.2.0,60.00823312853021,2026-01-17 12h38.40.203593 +0530,
83,0,84,o,1.643261800003529,None,84,0,83,542.2563730000038,,,,,,,,,,,,,,,,,,,,,,,,,,,,,,,,,,,,,,,,,,,,,,,,,,542.2417940000014,542.2563730000038,542.7568541,542.7404705000008,542.7469636000023,542.7568541,542.7568541,542.7568541,544.4077815000055,Objects\188a.jpg,pre,o,1.643261800003529,None,,,,,,,,00041,001,2026-01-17_12h38.24.102,MST_test,2024.2.0,60.00823312853021,2026-01-17 12h38.40.203593 +0530,
84,0,85,s,2.036908599999151,None,85,0,84,544.4230955000021,,,,,,,,,,,,,,,,,,,,,,,,,,,,,,,,,,,,,,,,,,,,,,,,,,544.4080409000017,544.4230955000021,544.9233519000045,544.9065990000017,544.9130241000021,544.9233519000045,544.9233519000045,544.9233519000045,546.9747600000046,Objects\040a.jpg,post,s,2.036908599999151,None,,,,,,,,00041,001,2026-01-17_12h38.24.102,MST_test,2024.2.0,60.00823312853021,2026-01-17 12h38.40.203593 +0530,
85,0,86,s,2.589508000004571,None,86,0,85,546.9897902000012,,,,,,,,,,,,,,,,,,,,,,,,,,,,,,,,,,,,,,,,,,,,,,,,,,546.9750414000009,546.9897902000012,547.507542600004,547.4738073000044,547.5050217000025,547.507542600004,547.507542600004,547.507542600004,550.1076463999998,Objects\149b.jpg,pre,s,2.589508000004571,None,,,,,,,,00041,001,2026-01-17_12h38.24.102,MST_test,2024.2.0,60.00823312853021,2026-01-17 12h38.40.203593 +0530,
86,0,87,o,1.9057203000047593,None,87,0,86,550.1230813000002,,,,,,,,,,,,,,,,,,,,,,,,,,,,,,,,,,,,,,,,,,,,,,,,,,550.107895000001,550.1230813000002,550.623345,550.6068908000016,550.613073600005,550.623345,550.623345,550.623345,552.5417368999988,Objects\130a.jpg,mid,o,1.9057203000047593,None,,,,,,,,00041,001,2026-01-17_12h38.24.102,MST_test,2024.2.0,60.00823312853021,2026-01-17 12h38.40.203593 +0530,
87,0,88,s,1.342880600001081,None,88,0,87,552.5563624999995,,,,,,,,,,,,,,,,,,,,,,,,,,,,,,,,,,,,,,,,,,,,,,,,,,552.5419898000036,552.5563624999995,553.0814324000021,553.0402283000003,553.0788574000035,553.0814324000021,553.0814324000021,553.0814324000021,554.4409051000039,Objects\192b.jpg,mid,s,1.342880600001081,None,,,,,,,,00041,001,2026-01-17_12h38.24.102,MST_test,2024.2.0,60.00823312853021,2026-01-17 12h38.40.203593 +0530,
88,0,89,o,3.410865300000296,None,89,0,88,554.4566455000022,,,,,,,,,,,,,,,,,,,,,,,,,,,,,,,,,,,,,,,,,,,,,,,,,,554.4410104000053,554.4566455000022,554.9572035000019,554.9405022999999,554.949652700001,554.9572035000019,554.9572035000019,554.9572035000019,558.3741854000036,Scenes\116a.jpg,post,o,3.410865300000296,None,,,,,,,,00041,001,2026-01-17_12h38.24.102,MST_test,2024.2.0,60.00823312853021,2026-01-17 12h38.40.203593 +0530,
89,0,90,s,4.995576899993466,None,90,0,89,558.3897961000039,,,,,,,,,,,,,,,,,,,,,,,,,,,,,,,,,,,,,,,,,,,,,,,,,,558.3743226000006,558.3897961000039,558.8930101000005,558.8737981000013,558.8893644999989,558.8930101000005,558.8930101000005,558.8930101000005,563.8913682000057,Scenes\028a.jpg,mid,s,4.995576899993466,None,,,,,,,,00041,001,2026-01-17_12h38.24.102,MST_test,2024.2.0,60.00823312853021,2026-01-17 12h38.40.203593 +0530,
90,0,91,s,1.5346132999984547,None,91,0,90,563.9063086000024,,,,,,,,,,,,,,,,,,,,,,,,,,,,,,,,,,,,,,,,,,,,,,,,,,563.891650000005,563.9063086000024,564.4176967000021,564.3902522999997,564.4151294000039,564.4176967000021,564.4176967000021,564.4176967000021,565.9576826000048,Objects\038b.jpg,mid,s,1.5346132999984547,None,,,,,,,,00041,001,2026-01-17_12h38.24.102,MST_test,2024.2.0,60.00823312853021,2026-01-17 12h38.40.203593 +0530,
91,0,92,s,4.895221099999617,None,92,0,91,565.9730928999998,,,,,,,,,,,,,,,,,,,,,,,,,,,,,,,,,,,,,,,,,,,,,,,,,,565.9579219000007,565.9730928999998,566.5130048999999,566.4567382000023,566.5107332000043,566.5130048999999,566.5130048999999,566.5130048999999,571.4244904000006,Foils\105a.jpg,none,s,4.895221099999617,None,,,,,,,,00041,001,2026-01-17_12h38.24.102,MST_test,2024.2.0,60.00823312853021,2026-01-17 12h38.40.203593 +0530,
92,0,93,s,1.2963631000020541,None,93,0,92,571.4397823000036,,,,,,,,,,,,,,,,,,,,,,,,,,,,,,,,,,,,,,,,,,,,,,,,,,571.424751999999,571.4397823000036,571.9681362000047,571.9235536999986,571.9652391000054,571.9681362000047,571.9681362000047,571.9681362000047,573.2744693999994,Objects\155b.jpg,mid,s,1.2963631000020541,None,,,,,,,,00041,001,2026-01-17_12h38.24.102,MST_test,2024.2.0,60.00823312853021,2026-01-17 12h38.40.203593 +0530,
93,0,94,s,1.5631658999991487,None,94,0,93,573.2897594000024,,,,,,,,,,,,,,,,,,,,,,,,,,,,,,,,,,,,,,,,,,,,,,,,,,573.2747271000044,573.2897594000024,573.805471300002,573.7735169000007,573.8032396000053,573.805471300002,573.805471300002,573.805471300002,575.3742759000015,Objects\162b.jpg,post,s,1.5631658999991487,None,,,,,,,,00041,001,2026-01-17_12h38.24.102,MST_test,2024.2.0,60.00823312853021,2026-01-17 12h38.40.203593 +0530,
94,0,95,s,3.7424357999989297,None,95,0,94,575.3897120000038,,,,,,,,,,,,,,,,,,,,,,,,,,,,,,,,,,,,,,,,,,,,,,,,,,575.3745187000022,575.3897120000038,575.890891300005,575.8735899000021,575.8881849000027,575.890891300005,575.890891300005,575.890891300005,579.6421345999988,Scenes\131a.jpg,pre,s,3.7424357999989297,None,,,,,,,,00041,001,2026-01-17_12h38.24.102,MST_test,2024.2.0,60.00823312853021,2026-01-17 12h38.40.203593 +0530,
95,0,96,s,7.4797380000018165,None,96,0,95,579.6570704000042,,,,,,,,,,,,,,,,,,,,,,,,,,,,,,,,,,,,,,,,,,,,,,,,,,579.6424076000039,579.6570704000042,580.2172084000049,580.1414543999999,580.2140698000003,580.2172084000049,580.2172084000049,580.2172084000049,587.7079453000042,Foils\086a.jpg,none,s,7.4797380000018165,None,,,,,,,,00041,001,2026-01-17_12h38.24.102,MST_test,2024.2.0,60.00823312853021,2026-01-17 12h38.40.203593 +0530,
96,0,97,s,1.40026239999861,None,97,0,96,587.7230990000025,,,,,,,,,,,,,,,,,,,,,,,,,,,,,,,,,,,,,,,,,,,,,,,,,,587.7082219000004,587.7230990000025,588.2401271000053,588.2066250999997,588.2377116999996,588.2401271000053,588.2401271000053,588.2401271000053,589.6425286000012,Objects\138b.jpg,pre,s,1.40026239999861,None,,,,,,,,00041,001,2026-01-17_12h38.24.102,MST_test,2024.2.0,60.00823312853021,2026-01-17 12h38.40.203593 +0530,
97,0,98,o,1.6921540000039386,None,98,0,97,589.6569862000033,,,,,,,,,,,,,,,,,,,,,,,,,,,,,,,,,,,,,,,,,,,,,,,,,,589.6428527000025,589.6569862000033,590.1570231000005,590.1411483000047,590.1493839000032,590.1570231000005,590.1570231000005,590.1570231000005,591.8586730000025,Objects\104a.jpg,mid,o,1.6921540000039386,None,,,,,,,,00041,001,2026-01-17_12h38.24.102,MST_test,2024.2.0,60.00823312853021,2026-01-17 12h38.40.203593 +0530,
98,0,99,s,2.146489600003406,None,99,0,98,591.8734557999996,,,,,,,,,,,,,,,,,,,,,,,,,,,,,,,,,,,,,,,,,,,,,,,,,,591.8590589000014,591.8734557999996,592.3742406000019,592.3577680000017,592.3715655000051,592.3742406000019,592.3742406000019,592.3742406000019,594.5248235000035,Scenes\160a.jpg,pre,s,2.146489600003406,None,,,,,,,,00041,001,2026-01-17_12h38.24.102,MST_test,2024.2.0,60.00823312853021,2026-01-17 12h38.40.203593 +0530,
99,0,100,s,2.504331500000262,None,100,0,99,594.5398510000014,,,,,,,,,,,,,,,,,,,,,,,,,,,,,,,,,,,,,,,,,,,,,,,,,,594.525118000005,594.5398510000014,595.0407076000047,595.0245098000014,595.0359479000035,595.0407076000047,595.0407076000047,595.0407076000047,597.5590900000025,Scenes\018a.jpg,mid,s,2.504331500000262,None,,,,,,,,00041,001,2026-01-17_12h38.24.102,MST_test,2024.2.0,60.00823312853021,2026-01-17 12h38.40.203593 +0530,
100,0,101,s,3.8450779000049806,None,101,0,100,597.5732003000012,,,,,,,,,,,,,,,,,,,,,,,,,,,,,,,,,,,,,,,,,,,,,,,,,,597.5592064000011,597.5732003000012,598.1565713000018,598.0568811000048,598.1534414000052,598.1565713000018,598.1565713000018,598.1565713000018,602.0086083999995,Scenes\077b.jpg,pre,s,3.8450779000049806,None,,,,,,,,00041,001,2026-01-17_12h38.24.102,MST_test,2024.2.0,60.00823312853021,2026-01-17 12h38.40.203593 +0530,
101,0,102,n,2.9227137000052608,None,102,0,101,602.0235105000029,,,,,,,,,,,,,,,,,,,,,,,,,,,,,,,,,,,,,,,,,,,,,,,,,,602.0089748000028,602.0235105000029,602.6066575000004,602.5077750000055,602.6034595000019,602.6066575000004,602.6066575000004,602.6066575000004,605.542191200002,Foils\090a.jpg,none,n,2.9227137000052608,None,,,,,,,,00041,001,2026-01-17_12h38.24.102,MST_test,2024.2.0,60.00823312853021,2026-01-17 12h38.40.203593 +0530,
102,0,103,s,2.302807500003837,None,103,0,102,605.5567481000035,,,,,,,,,,,,,,,,,,,,,,,,,,,,,,,,,,,,,,,,,,,,,,,,,,605.5425374000042,605.5567481000035,606.0900378000006,606.041034300004,606.0875187000056,606.0900378000006,606.0900378000006,606.0900378000006,608.4084355000014,Objects\009b.jpg,pre,s,2.302807500003837,None,,,,,,,,00041,001,2026-01-17_12h38.24.102,MST_test,2024.2.0,60.00823312853021,2026-01-17 12h38.40.203593 +0530,
103,0,104,n,2.2969037999937427,None,104,0,103,608.4236166000046,,,,,,,,,,,,,,,,,,,,,,,,,,,,,,,,,,,,,,,,,,,,,,,,,,608.4088277000046,608.4236166000046,608.9434534000029,608.9077614999987,608.940583100004,608.9434534000029,608.9434534000029,608.9434534000029,611.2423548000006,Foils\049a.jpg,none,n,2.2969037999937427,None,,,,,,,,00041,001,2026-01-17_12h38.24.102,MST_test,2024.2.0,60.00823312853021,2026-01-17 12h38.40.203593 +0530,
104,0,105,o,1.6285024999961024,None,105,0,104,611.256753200003,,,,,,,,,,,,,,,,,,,,,,,,,,,,,,,,,,,,,,,,,,,,,,,,,,611.2427673000057,611.256753200003,611.7570529000004,611.7412101000009,611.7467783000029,611.7570529000004,611.7570529000004,611.7570529000004,613.3918837000019,Objects\158a.jpg,pre,o,1.6285024999961024,None,,,,,,,,00041,001,2026-01-17_12h38.24.102,MST_test,2024.2.0,60.00823312853021,2026-01-17 12h38.40.203593 +0530,
105,0,106,s,3.3735498000023654,None,106,0,105,613.4067251000015,,,,,,,,,,,,,,,,,,,,,,,,,,,,,,,,,,,,,,,,,,,,,,,,,,613.3922552000004,613.4067251000015,613.9072184000033,613.8912789000024,613.9016254000016,613.9072184000033,613.9072184000033,613.9072184000033,617.2923257000002,Scenes\111a.jpg,mid,s,3.3735498000023654,None,,,,,,,,00041,001,2026-01-17_12h38.24.102,MST_test,2024.2.0,60.00823312853021,2026-01-17 12h38.40.203593 +0530,
106,0,107,s,2.616905900002166,None,107,0,106,617.3067245000057,,,,,,,,,,,,,,,,,,,,,,,,,,,,,,,,,,,,,,,,,,,,,,,,,,617.292743500002,617.3067245000057,617.8556807999994,617.7916798000006,617.8525618000058,617.8556807999994,617.8556807999994,617.8556807999994,620.4752971000053,Scenes\066b.jpg,mid,s,2.616905900002166,None,,,,,,,,00041,001,2026-01-17_12h38.24.102,MST_test,2024.2.0,60.00823312853021,2026-01-17 12h38.40.203593 +0530,
107,0,108,s,2.2697010999982012,None,108,0,107,620.4899431000013,,,,,,,,,,,,,,,,,,,,,,,,,,,,,,,,,,,,,,,,,,,,,,,,,,620.4754121000005,620.4899431000013,621.0588492000024,620.9749145000023,621.0548983000044,621.0588492000024,621.0588492000024,621.0588492000024,623.3416292000038,Scenes\032b.jpg,mid,s,2.2697010999982012,None,,,,,,,,00041,001,2026-01-17_12h38.24.102,MST_test,2024.2.0,60.00823312853021,2026-01-17 12h38.40.203593 +0530,
108,0,109,n,1.512883299998066,None,109,0,108,623.3566999000032,,,,,,,,,,,,,,,,,,,,,,,,,,,,,,,,,,,,,,,,,,,,,,,,,,623.341920400002,623.3566999000032,623.8877314999991,623.8411124000049,623.8842714999992,623.8877314999991,623.8877314999991,623.8877314999991,625.4087566000017,Foils\081a.jpg,none,n,1.512883299998066,None,,,,,,,,00041,001,2026-01-17_12h38.24.102,MST_test,2024.2.0,60.00823312853021,2026-01-17 12h38.40.203593 +0530,
109,0,110,s,2.6028144000010798,None,110,0,109,625.4232565000057,,,,,,,,,,,,,,,,,,,,,,,,,,,,,,,,,,,,,,,,,,,,,,,,,,625.4091221000053,625.4232565000057,625.9895400000023,625.9079108000005,625.986548300003,625.9895400000023,625.9895400000023,625.9895400000023,628.6085931999987,Objects\061b.jpg,mid,s,2.6028144000010798,None,,,,,,,,00041,001,2026-01-17_12h38.24.102,MST_test,2024.2.0,60.00823312853021,2026-01-17 12h38.40.203593 +0530,
110,0,111,s,2.094155899998441,None,111,0,110,628.6234786999994,,,,,,,,,,,,,,,,,,,,,,,,,,,,,,,,,,,,,,,,,,,,,,,,,,628.6088663000046,628.6234786999994,629.1872415000034,629.1077098000023,629.1839316000041,629.1872415000034,629.1872415000034,629.1872415000034,631.2921234000023,Scenes\026b.jpg,mid,s,2.094155899998441,None,,,,,,,,00041,001,2026-01-17_12h38.24.102,MST_test,2024.2.0,60.00823312853021,2026-01-17 12h38.40.203593 +0530,
111,0,112,s,1.5240066999976989,None,112,0,111,631.3071805,,,,,,,,,,,,,,,,,,,,,,,,,,,,,,,,,,,,,,,,,,,,,,,,,,631.292485900005,631.3071805,631.8284208000041,631.7911999999997,631.8256685000015,631.8284208000041,631.8284208000041,631.8284208000041,633.3587751000014,Objects\047b.jpg,post,s,1.5240066999976989,None,,,,,,,,00041,001,2026-01-17_12h38.24.102,MST_test,2024.2.0,60.00823312853021,2026-01-17 12h38.40.203593 +0530,
112,0,113,s,4.596939199996996,None,113,0,112,633.3733400000056,,,,,,,,,,,,,,,,,,,,,,,,,,,,,,,,,,,,,,,,,,,,,,,,,,633.3591876999999,633.3733400000056,633.9006308000025,633.8577970000042,633.8979824000053,633.9006308000025,633.9006308000025,633.9006308000025,638.508911900004,Objects\089b.jpg,pre,s,4.596939199996996,None,,,,,,,,00041,001,2026-01-17_12h38.24.102,MST_test,2024.2.0,60.00823312853021,2026-01-17 12h38.40.203593 +0530,
113,0,114,n,1.8852994999979273,None,114,0,113,638.5233651000017,,,,,,,,,,,,,,,,,,,,,,,,,,,,,,,,,,,,,,,,,,,,,,,,,,638.5093234000014,638.5233651000017,639.1558913000044,639.0089393000017,639.1526958000031,639.1558913000044,639.1558913000044,639.1558913000044,641.0584946000017,Scenes\073b.jpg,post,n,1.8852994999979273,None,,,,,,,,00041,001,2026-01-17_12h38.24.102,MST_test,2024.2.0,60.00823312853021,2026-01-17 12h38.40.203593 +0530,
114,0,115,s,1.2230975999991642,None,115,0,114,641.0734385000032,,,,,,,,,,,,,,,,,,,,,,,,,,,,,,,,,,,,,,,,,,,,,,,,,,641.0591218000045,641.0734385000032,641.59476,641.5581113000007,641.5917966999987,641.59476,641.59476,641.59476,642.8254354000019,Objects\081b.jpg,mid,s,1.2230975999991642,None,,,,,,,,00041,001,2026-01-17_12h38.24.102,MST_test,2024.2.0,60.00823312853021,2026-01-17 12h38.40.203593 +0530,
115,0,116,s,3.1476365000053192,None,116,0,115,642.8400770000007,,,,,,,,,,,,,,,,,,,,,,,,,,,,,,,,,,,,,,,,,,,,,,,,,,642.8257482000045,642.8400770000007,643.3745344999988,643.3246547000017,643.3703533000007,643.3745344999988,643.3745344999988,643.3745344999988,646.5255854999996,Foils\scenes30.jpg,none,s,3.1476365000053192,None,,,,,,,,00041,001,2026-01-17_12h38.24.102,MST_test,2024.2.0,60.00823312853021,2026-01-17 12h38.40.203593 +0530,
116,0,117,s,1.2037354999993113,None,117,0,116,646.5401341000033,,,,,,,,,,,,,,,,,,,,,,,,,,,,,,,,,,,,,,,,,,,,,,,,,,646.5260130000024,646.5401341000033,647.0699003000045,647.0246636000011,647.0668628000058,647.0699003000045,647.0699003000045,647.0699003000045,648.2755662999989,Objects\025b.jpg,post,s,1.2037354999993113,None,,,,,,,,00041,001,2026-01-17_12h38.24.102,MST_test,2024.2.0,60.00823312853021,2026-01-17 12h38.40.203593 +0530,
117,0,118,s,0.8863597000017762,None,118,0,117,648.2900382000007,,,,,,,,,,,,,,,,,,,,,,,,,,,,,,,,,,,,,,,,,,,,,,,,,,648.2758427000008,648.2900382000007,648.8180390999987,648.7746668000036,648.8154144,648.8180390999987,648.8180390999987,648.8180390999987,649.7087946000029,Objects\044b.jpg,pre,s,0.8863597000017762,None,,,,,,,,00041,001,2026-01-17_12h38.24.102,MST_test,2024.2.0,60.00823312853021,2026-01-17 12h38.40.203593 +0530,
118,0,119,o,2.2016152999931364,None,119,0,118,649.7234228000016,,,,,,,,,,,,,,,,,,,,,,,,,,,,,,,,,,,,,,,,,,,,,,,,,,649.7090928000034,649.7234228000016,650.2237310000055,650.2075127999997,650.2155161000046,650.2237310000055,650.2237310000055,650.2237310000055,652.4421546000012,Objects\016a.jpg,pre,o,2.2016152999931364,None,,,,,,,,00041,001,2026-01-17_12h38.24.102,MST_test,2024.2.0,60.00823312853021,2026-01-17 12h38.40.203593 +0530,
119,0,120,s,2.9614790999985416,None,120,0,119,652.4568205000032,,,,,,,,,,,,,,,,,,,,,,,,,,,,,,,,,,,,,,,,,,,,,,,,,,652.4423841000025,652.4568205000032,653.0249585000056,652.9414240000042,653.0216398000048,653.0249585000056,653.0249585000056,653.0249585000056,655.9919407999987,Scenes\109b.jpg,post,s,2.9614790999985416,None,,,,,,,,00041,001,2026-01-17_12h38.24.102,MST_test,2024.2.0,60.00823312853021,2026-01-17 12h38.40.203593 +0530,
120,0,121,o,2.9328301999994437,None,121,0,120,656.0066864000037,,,,,,,,,,,,,,,,,,,,,,,,,,,,,,,,,,,,,,,,,,,,,,,,,,655.9922073000052,656.0066864000037,656.5084268999999,656.4912361000024,656.5056027000028,656.5084268999999,656.5084268999999,656.5084268999999,659.458469199999,Scenes\074a.jpg,pre,o,2.9328301999994437,None,,,,,,,,00041,001,2026-01-17_12h38.24.102,MST_test,2024.2.0,60.00823312853021,2026-01-17 12h38.40.203593 +0530,
121,0,122,n,1.3980928999953903,None,122,0,121,659.4734069000042,,,,,,,,,,,,,,,,,,,,,,,,,,,,,,,,,,,,,,,,,,,,,,,,,,659.458759000001,659.4734069000042,660.0354998000039,659.9579149000056,660.0317944999988,660.0354998000039,660.0354998000039,660.0354998000039,661.442289300001,Foils\002a.jpg,none,n,1.3980928999953903,None,,,,,,,,00041,001,2026-01-17_12h38.24.102,MST_test,2024.2.0,60.00823312853021,2026-01-17 12h38.40.203593 +0530,
122,0,123,n,3.2570259000058286,None,123,0,122,661.4568207000048,,,,,,,,,,,,,,,,,,,,,,,,,,,,,,,,,,,,,,,,,,,,,,,,,,661.4426619000005,661.4568207000048,661.976144100001,661.9410215000025,661.9728684000002,661.976144100001,661.976144100001,661.976144100001,665.2419603000017,Foils\scenes29.jpg,none,n,3.2570259000058286,None,,,,,,,,00041,001,2026-01-17_12h38.24.102,MST_test,2024.2.0,60.00823312853021,2026-01-17 12h38.40.203593 +0530,
123,0,124,n,1.9446501999991597,None,124,0,123,665.2567601000046,,,,,,,,,,,,,,,,,,,,,,,,,,,,,,,,,,,,,,,,,,,,,,,,,,665.2422312000053,665.2567601000046,665.8798352000013,665.7413046000001,665.8764882000032,665.8798352000013,665.8798352000013,665.8798352000013,667.8266138000035,Foils\073a.jpg,none,n,1.9446501999991597,None,,,,,,,,00041,001,2026-01-17_12h38.24.102,MST_test,2024.2.0,60.00823312853021,2026-01-17 12h38.40.203593 +0530,
124,0,125,n,1.2095549999939976,None,125,0,124,667.8417578000008,,,,,,,,,,,,,,,,,,,,,,,,,,,,,,,,,,,,,,,,,,,,,,,,,,667.8268610000014,667.8417578000008,,668.3405930000008,668.3890163000033,668.3922504000002,668.3922504000002,668.3922504000002,669.6091822000017,Foils\101b.jpg,none,n,1.2095549999939976,None,,,,,,,,00041,001,2026-01-17_12h38.24.102,MST_test,2024.2.0,60.00823312853021,2026-01-17 12h38.40.203593 +0530,
125,0,126,n,1.458490900004108,None,126,0,125,669.6234747000053,,,,,,,,,,,,,,,,,,,,,,,,,,,,,,,,,,,,,,,,,,,,,,,,,,669.6095722000027,669.6234747000053,670.1827411000049,670.1078290000005,670.1791793000011,670.1827411000049,670.1827411000049,670.1827411000049,671.6588360000023,Foils\020b.jpg,none,n,1.458490900004108,None,,,,,,,,00041,001,2026-01-17_12h38.24.102,MST_test,2024.2.0,60.00823312853021,2026-01-17 12h38.40.203593 +0530,
126,0,127,o,3.6508405999993556,None,127,0,126,671.6733623000036,,,,,,,,,,,,,,,,,,,,,,,,,,,,,,,,,,,,,,,,,,,,,,,,,,671.6592546000029,671.6733623000036,672.1736412000027,672.1579581000042,672.1656121000051,672.1736412000027,672.1736412000027,672.1736412000027,675.8421369999996,Objects\006a.jpg,pre,o,3.6508405999993556,None,,,,,,,,00041,001,2026-01-17_12h38.24.102,MST_test,2024.2.0,60.00823312853021,2026-01-17 12h38.40.203593 +0530,
127,0,128,s,1.9599290999976802,None,128,0,127,675.8569142999986,,,,,,,,,,,,,,,,,,,,,,,,,,,,,,,,,,,,,,,,,,,,,,,,,,675.8423976000049,675.8569142999986,676.360548100005,676.3411059999999,676.3571373000013,676.360548100005,676.360548100005,676.360548100005,678.3255812999996,Scenes\062a.jpg,mid,s,1.9599290999976802,None,,,,,,,,00041,001,2026-01-17_12h38.24.102,MST_test,2024.2.0,60.00823312853021,2026-01-17 12h38.40.203593 +0530,
128,0,129,s,2.2989128999979584,None,129,0,128,678.3400256000023,,,,,,,,,,,,,,,,,,,,,,,,,,,,,,,,,,,,,,,,,,,,,,,,,,678.3259203000052,678.3400256000023,678.8693096999996,678.8247174999997,678.8658529000022,678.8693096999996,678.8693096999996,678.8693096999996,681.1760349000033,Objects\175b.jpg,mid,s,2.2989128999979584,None,,,,,,,,00041,001,2026-01-17_12h38.24.102,MST_test,2024.2.0,60.00823312853021,2026-01-17 12h38.40.203593 +0530,
129,0,130,s,1.7427966999966884,None,130,0,129,681.1902951000011,,,,,,,,,,,,,,,,,,,,,,,,,,,,,,,,,,,,,,,,,,,,,,,,,,681.1762968000039,681.1902951000011,681.6903536000027,681.6746184000003,681.6819969999997,681.6903536000027,681.6903536000027,681.6903536000027,683.4419966999994,Objects\174a.jpg,post,s,1.7427966999966884,None,,,,,,,,00041,001,2026-01-17_12h38.24.102,MST_test,2024.2.0,60.00823312853021,2026-01-17 12h38.40.203593 +0530,
130,0,131,s,1.1813713000010466,None,131,0,130,683.4568451000014,,,,,,,,,,,,,,,,,,,,,,,,,,,,,,,,,,,,,,,,,,,,,,,,,,683.4423936000021,683.4568451000014,683.9790444000027,683.9411225000003,683.9763164000033,683.9790444000027,683.9790444000027,683.9790444000027,685.1753951999999,Objects\190b.jpg,post,s,1.1813713000010466,None,,,,,,,,00041,001,2026-01-17_12h38.24.102,MST_test,2024.2.0,60.00823312853021,2026-01-17 12h38.40.203593 +0530,
131,0,132,n,1.6463481999962823,None,132,0,131,685.1905781000023,,,,,,,,,,,,,,,,,,,,,,,,,,,,,,,,,,,,,,,,,,,,,,,,,,685.1758002999995,685.1905781000023,686.0425310999999,685.674568100003,686.0350844999994,686.0425310999999,686.0425310999999,686.0425310999999,687.6922420000046,Foils\scenes26.jpg,none,n,1.6463481999962823,None,,,,,,,,00041,001,2026-01-17_12h38.24.102,MST_test,2024.2.0,60.00823312853021,2026-01-17 12h38.40.203593 +0530,
132,0,133,n,1.4247852999978932,None,133,0,132,687.7067047000019,,,,,,,,,,,,,,,,,,,,,,,,,,,,,,,,,,,,,,,,,,,,,,,,,,687.6924475999986,687.7067047000019,688.2322954000047,688.191203800001,688.2299887000045,688.2322954000047,688.2322954000047,688.2322954000047,689.6592289000037,Objects\105a.jpg,post,n,1.4247852999978932,None,,,,,,,,00041,001,2026-01-17_12h38.24.102,MST_test,2024.2.0,60.00823312853021,2026-01-17 12h38.40.203593 +0530,
133,0,134,s,4.263853700002073,None,134,0,133,689.6737400000056,,,,,,,,,,,,,,,,,,,,,,,,,,,,,,,,,,,,,,,,,,,,,,,,,,689.6595009000011,689.6737400000056,690.2812765999988,690.1578889000011,690.239419000005,690.2812765999988,690.2812765999988,690.2812765999988,694.5591062000021,Foils\scenes23.jpg,none,s,4.263853700002073,None,,,,,,,,00041,001,2026-01-17_12h38.24.102,MST_test,2024.2.0,60.00823312853021,2026-01-17 12h38.40.203593 +0530,
134,0,135,o,2.667621999993571,None,135,0,134,694.5735188000035,,,,,,,,,,,,,,,,,,,,,,,,,,,,,,,,,,,,,,,,,,,,,,,,,,694.5594526999994,694.5735188000035,695.1250170999992,695.0581892000046,695.121244300004,695.1250170999992,695.1250170999992,695.1250170999992,697.8087244999988,Objects\129b.jpg,post,o,2.667621999993571,None,,,,,,,,00041,001,2026-01-17_12h38.24.102,MST_test,2024.2.0,60.00823312853021,2026-01-17 12h38.40.203593 +0530,
135,0,136,s,1.4036535999985063,None,136,0,135,697.8234891000029,,,,,,,,,,,,,,,,,,,,,,,,,,,,,,,,,,,,,,,,,,,,,,,,,,697.8090060000031,697.8234891000029,698.364979900005,698.3080849000035,698.3624810000038,698.364979900005,698.364979900005,698.364979900005,699.7755771000011,Objects\182b.jpg,pre,s,1.4036535999985063,None,,,,,,,,00041,001,2026-01-17_12h38.24.102,MST_test,2024.2.0,60.00823312853021,2026-01-17 12h38.40.203593 +0530,
136,0,137,s,4.356596199999331,None,137,0,136,699.7900100000043,,,,,,,,,,,,,,,,,,,,,,,,,,,,,,,,,,,,,,,,,,,,,,,,,,699.7759063000049,699.7900100000043,700.3476005000048,700.274566,700.343875300001,700.3476005000048,700.3476005000048,700.3476005000048,704.7090503,Foils\066a.jpg,none,s,4.356596199999331,None,,,,,,,,00041,001,2026-01-17_12h38.24.102,MST_test,2024.2.0,60.00823312853021,2026-01-17 12h38.40.203593 +0530,
137,0,138,s,1.4332218999988982,None,138,0,137,704.7235091000039,,,,,,,,,,,,,,,,,,,,,,,,,,,,,,,,,,,,,,,,,,,,,,,,,,704.7093781000003,704.7235091000039,705.2236679999987,705.2080270000006,705.2163670000009,705.2236679999987,705.2236679999987,705.2236679999987,706.6590510000024,Objects\152a.jpg,pre,s,1.4332218999988982,None,,,,,,,,00041,001,2026-01-17_12h38.24.102,MST_test,2024.2.0,60.00823312853021,2026-01-17 12h38.40.203593 +0530,
138,0,139,o,1.715809099994658,None,139,0,138,706.6733843000038,,,,,,,,,,,,,,,,,,,,,,,,,,,,,,,,,,,,,,,,,,,,,,,,,,706.6593141000048,706.6733843000038,707.1736804000029,707.157987999999,707.1661236,707.1736804000029,707.1736804000029,707.1736804000029,708.8923122000051,Objects\062a.jpg,mid,o,1.715809099994658,None,,,,,,,,00041,001,2026-01-17_12h38.24.102,MST_test,2024.2.0,60.00823312853021,2026-01-17 12h38.40.203593 +0530,
139,0,140,s,1.5837047000022721,None,140,0,139,708.9067272000029,,,,,,,,,,,,,,,,,,,,,,,,,,,,,,,,,,,,,,,,,,,,,,,,,,708.892556800005,708.9067272000029,709.4976081999994,709.3911284999995,709.4942560000054,709.4976081999994,709.4976081999994,709.4976081999994,711.0919467999993,Scenes\061b.jpg,pre,s,1.5837047000022721,None,,,,,,,,00041,001,2026-01-17_12h38.24.102,MST_test,2024.2.0,60.00823312853021,2026-01-17 12h38.40.203593 +0530,
140,0,141,n,2.3730590999984997,None,141,0,140,711.1070271999997,,,,,,,,,,,,,,,,,,,,,,,,,,,,,,,,,,,,,,,,,,,,,,,,,,711.0923594999986,711.1070271999997,711.6280492000005,711.5911020000058,711.6242544000052,711.6280492000005,711.6280492000005,711.6280492000005,714.0086034999986,Foils\074a.jpg,none,n,2.3730590999984997,None,,,,,,,,00041,001,2026-01-17_12h38.24.102,MST_test,2024.2.0,60.00823312853021,2026-01-17 12h38.40.203593 +0530,
141,0,142,s,1.6206234000055701,None,142,0,141,714.0234644000011,,,,,,,,,,,,,,,,,,,,,,,,,,,,,,,,,,,,,,,,,,,,,,,,,,714.0088241000049,714.0234644000011,714.5249241000056,714.5080138000048,714.5219464000038,714.5249241000056,714.5249241000056,714.5249241000056,716.1585819000029,Scenes\104a.jpg,post,s,1.6206234000055701,None,,,,,,,,00041,001,2026-01-17_12h38.24.102,MST_test,2024.2.0,60.00823312853021,2026-01-17 12h38.40.203593 +0530,
142,0,143,s,3.1875931000031414,None,143,0,142,716.1735651999988,,,,,,,,,,,,,,,,,,,,,,,,,,,,,,,,,,,,,,,,,,,,,,,,,,716.1590283000041,716.1735651999988,716.7010477000003,716.6579127000005,716.6981311000054,716.7010477000003,716.7010477000003,716.7010477000003,719.8918351000029,Objects\122b.jpg,mid,s,3.1875931000031414,None,,,,,,,,00041,001,2026-01-17_12h38.24.102,MST_test,2024.2.0,60.00823312853021,2026-01-17 12h38.40.203593 +0530,
143,0,144,o,2.526216899997962,None,144,0,143,719.9068005000008,,,,,,,,,,,,,,,,,,,,,,,,,,,,,,,,,,,,,,,,,,,,,,,,,,719.8922321999999,719.9068005000008,720.4112002000038,720.3916339999996,720.4081432000021,720.4112002000038,720.4112002000038,720.4112002000038,722.9419807000013,Scenes\107a.jpg,pre,o,2.526216899997962,None,,,,,,,,00041,001,2026-01-17_12h38.24.102,MST_test,2024.2.0,60.00823312853021,2026-01-17 12h38.40.203593 +0530,
144,0,145,s,6.908674100006465,None,145,0,144,722.9567352000013,,,,,,,,,,,,,,,,,,,,,,,,,,,,,,,,,,,,,,,,,,,,,,,,,,722.9423940999986,722.9567352000013,723.4994117000024,723.4412838999997,723.496710200001,723.4994117000024,723.4994117000024,723.4994117000024,730.4249696000043,Objects\100b.jpg,post,s,6.908674100006465,None,,,,,,,,00041,001,2026-01-17_12h38.24.102,MST_test,2024.2.0,60.00823312853021,2026-01-17 12h38.40.203593 +0530,
145,0,146,s,1.6412884000019403,None,146,0,145,730.4400947000031,,,,,,,,,,,,,,,,,,,,,,,,,,,,,,,,,,,,,,,,,,,,,,,,,,730.4253409000012,730.4400947000031,731.0240803999986,730.9245107000024,731.0213642000017,731.0240803999986,731.0240803999986,731.0240803999986,732.6764197000011,Objects\055b.jpg,post,s,1.6412884000019403,None,,,,,,,,00041,001,2026-01-17_12h38.24.102,MST_test,2024.2.0,60.00823312853021,2026-01-17 12h38.40.203593 +0530,
146,0,147,n,2.8068401999989874,None,147,0,146,732.6900179000004,,,,,,,,,,,,,,,,,,,,,,,,,,,,,,,,,,,,,,,,,,,,,,,,,,732.6768355000022,732.6900179000004,733.2588967000047,733.1745572,733.2564844000008,733.2588967000047,733.2588967000047,733.2588967000047,736.0757400000002,Foils\009a.jpg,none,n,2.8068401999989874,None,,,,,,,,00041,001,2026-01-17_12h38.24.102,MST_test,2024.2.0,60.00823312853021,2026-01-17 12h38.40.203593 +0530,
147,0,148,s,2.3909132000044337,None,148,0,147,736.0900361000022,,,,,,,,,,,,,,,,,,,,,,,,,,,,,,,,,,,,,,,,,,,,,,,,,,736.0761076000053,736.0900361000022,736.5937768000003,736.5750688000044,736.591092900002,736.5937768000003,736.5937768000003,736.5937768000003,738.9923029000056,Scenes\175a.jpg,mid,s,2.3909132000044337,None,,,,,,,,00041,001,2026-01-17_12h38.24.102,MST_test,2024.2.0,60.00823312853021,2026-01-17 12h38.40.203593 +0530,
148,0,149,n,2.8993439999976545,None,149,0,148,739.0067522000027,,,,,,,,,,,,,,,,,,,,,,,,,,,,,,,,,,,,,,,,,,,,,,,,,,738.9925775000011,739.0067522000027,739.5580473000009,739.4910951000056,739.554664000003,739.5580473000009,739.5580473000009,739.5580473000009,742.4590621000025,Foils\scenes28.jpg,none,n,2.8993439999976545,None,,,,,,,,00041,001,2026-01-17_12h38.24.102,MST_test,2024.2.0,60.00823312853021,2026-01-17 12h38.40.203593 +0530,
149,0,150,s,1.9466821000023629,None,150,0,149,742.473301500002,,,,,,,,,,,,,,,,,,,,,,,,,,,,,,,,,,,,,,,,,,,,,,,,,,742.4593239000023,742.473301500002,742.9748793000035,742.957906100004,742.9712763999996,742.9748793000035,742.9748793000035,742.9748793000035,744.9253041000047,Scenes\042a.jpg,post,s,1.9466821000023629,None,,,,,,,,00041,001,2026-01-17_12h38.24.102,MST_test,2024.2.0,60.00823312853021,2026-01-17 12h38.40.203593 +0530,
,,,,,,,,,,,,,,,,,,,,,,,,,,,,,,,,,,,,,,,,,,,,,,,,,,,,,,,,,,,,,,,,,,,,,,,,,744.9255938999995,744.9408514000024,744.9408514000024,749.2748395000017,space,4.325177499995334,None,00041,001,2026-01-17_12h38.24.102,MST_test,2024.2.0,60.00823312853021,2026-01-17 12h38.40.203593 +0530,
