Sl_no,image_path,thisN,thisTrialN,thisRepN,key_resp_5.keys,key_resp_7.keys,key_resp_7.rt,key_resp_7.duration,key_resp_5.rt,key_resp_5.duration,key_resp_9.keys,key_resp_9.rt,key_resp_9.duration,key_resp_8.keys,key_resp_8.rt,key_resp_8.duration,practice.thisRepN,practice.thisTrialN,practice.thisN,trials.thisRepN,trials.thisTrialN,trials.thisN,thisRow.t,notes,welcome_page.started,text.started,key_resp.started,welcome_page.stopped,key_resp.keys,key_resp.rt,key_resp.duration,instructions.started,ins.started,key_resp_2.started,instructions.stopped,key_resp_2.keys,key_resp_2.rt,key_resp_2.duration,instructions_2.started,text_10.started,key_resp_10.started,instructions_2.stopped,key_resp_10.keys,key_resp_10.rt,key_resp_10.duration,objects_only_instruction.started,text_3.started,key_resp_3.started,objects_only_instruction.stopped,key_resp_3.keys,key_resp_3.rt,key_resp_3.duration,ISI.started,text_4.started,ISI.stopped,practice_block.started,image.started,text_5.started,key_resp_5.started,practice_block.stopped,practice.key_resp_5.keys,indoor_outdoor.started,text_7.started,key_resp_7.started,indoor_outdoor.stopped,practice.key_resp_7.keys,practice.key_resp_7.rt,practice.key_resp_7.duration,practice.key_resp_5.rt,practice.key_resp_5.duration,text_4.stopped,practice_to_main.started,text_2.started,key_resp_4.started,practice_to_main.stopped,key_resp_4.keys,key_resp_4.rt,key_resp_4.duration,objects.started,image_2.started,text_9.started,key_resp_9.started,objects.stopped,trials.key_resp_9.keys,trials.key_resp_9.rt,trials.key_resp_9.duration,encoding_task.started,encoding_task.stopped,trials.key_resp_8.keys,text_8.started,key_resp_8.started,trials.key_resp_8.rt,trials.key_resp_8.duration,end_experiment.started,text_6.started,key_resp_6.started,end_experiment.stopped,key_resp_6.keys,key_resp_6.rt,key_resp_6.duration,list_of_stimuli,encoding_task_accuracy,participant,session,date,expName,psychopyVersion,frameRate,expStart,
,,,,,,,,,,,,,,,,,,,,,,,,,0.008740099961869419,0.025376499979756773,0.025376499979756773,19.563025199982803,space,19.47039939998649,None,,,,,,,,,,,,,,,,,,,,,,,,,,,,,,,,,,,,,,,,,,,,,,,,,,,,,,,,,,,,,,,,,,,,,,,,00047,001,2026-01-18_10h42.03.071,MST_task,2024.2.0,59.63491504711179,2026-01-18 10h56.02.957003 +0530,
,,,,,,,,,,,,,,,,,,,,,,,,,,,,,,,,19.563059899955988,19.595857299980707,19.595857299980707,23.041902899974957,space,3.436261299997568,None,,,,,,,,,,,,,,,,,,,,,,,,,,,,,,,,,,,,,,,,,,,,,,,,,,,,,,,,,,,,,,,,,00047,001,2026-01-18_10h42.03.071,MST_task,2024.2.0,59.63491504711179,2026-01-18 10h56.02.957003 +0530,
,,,,,,,,,,,,,,,,,,,,,,,,,,,,,,,,,,,,,,,23.04192999994848,23.057884499954525,23.057884499954525,52.09336999995867,space,29.03070669999579,None,,,,,,,,,,,,,,,,,,,,,,,,,,,,,,,,,,,,,,,,,,,,,,,,,,,,,,,,,,00047,001,2026-01-18_10h42.03.071,MST_task,2024.2.0,59.63491504711179,2026-01-18 10h56.02.957003 +0530,
,,,,,,,,,,,,,,,,,,,,,,,,,,,,,,,,,,,,,,,,,,,,,,52.09340189996874,52.10973799997009,52.10973799997009,60.22177859995281,space,8.098483500012662,None,,,,,,,,,,,,,,,,,,,,,,,,,,,,,,,,,,,,,,,,,,,,,,,,,,,00047,001,2026-01-18_10h42.03.071,MST_task,2024.2.0,59.63491504711179,2026-01-18 10h56.02.957003 +0530,
3,practice_images/037a.jpg,0,0,1,None,f,0.9933961000060663,None,,,,,,,,,1,0,0,,,,60.254952599992976,,,,,,,,,,,,,,,,,,,,,,,,,,,,,,60.23938519996591,60.254952599992976,60.723294999974314,60.740644999954384,60.75669269997161,60.75669269997161,60.75669269997161,63.73387229995569,None,63.73513049999019,63.75028109998675,63.75028109998675,64.75478029996157,f,0.9933961000060663,None,,,,,,,,,,,,,,,,,,,,,,,,,,,,,,,,,,,00047,001,2026-01-18_10h42.03.071,MST_task,2024.2.0,59.63491504711179,2026-01-18 10h56.02.957003 +0530,
2,practice_images/031a.jpg,1,1,1,f,None,,,1.8561199000105262,0.055782899959012866,,,,,,,1,1,1,,,,64.77062029996887,,,,,,,,,,,,,,,,,,,,,,,,,,,,,,64.75487769994652,64.77062029996887,65.25560069998028,65.26386439998168,65.28911159996642,65.28911159996642,65.28911159996642,68.26618679997046,f,68.26623639999889,,,68.2662492999807,None,,,1.8561199000105262,0.055782899959012866,,,,,,,,,,,,,,,,,,,,,,,,,,,,,,,,,00047,001,2026-01-18_10h42.03.071,MST_task,2024.2.0,59.63491504711179,2026-01-18 10h56.02.957003 +0530,
5,practice_images/139a.jpg,2,2,1,j,None,,,1.8244257000042126,0.19933090003905818,,,,,,,1,2,2,,,,68.28291779995197,,,,,,,,,,,,,,,,,,,,,,,,,,,,,,68.26648099999875,68.28291779995197,68.76789269997971,68.77604739996605,68.78382159996545,68.78382159996545,68.78382159996545,71.77847520000068,j,71.7785268999869,,,71.77854339999612,None,,,1.8244257000042126,0.19933090003905818,,,,,,,,,,,,,,,,,,,,,,,,,,,,,,,,,00047,001,2026-01-18_10h42.03.071,MST_task,2024.2.0,59.63491504711179,2026-01-18 10h56.02.957003 +0530,
8,practice_images/178a.jpg,3,3,1,j,None,,,1.1680724999750964,0.1919791999971494,,,,,,,1,3,3,,,,71.79523539997172,,,,,,,,,,,,,,,,,,,,,,,,,,,,,,71.77864269999554,71.79523539997172,72.28021769999759,72.28840459999628,72.29627849999815,72.29627849999815,72.29627849999815,75.29075379995629,j,75.29079289996298,,,75.29080559994327,None,,,1.1680724999750964,0.1919791999971494,,,,,,,,,,,,,,,,,,,,,,,,,,,,,,,,,00047,001,2026-01-18_10h42.03.071,MST_task,2024.2.0,59.63491504711179,2026-01-18 10h56.02.957003 +0530,
7,practice_images/166a.jpg,4,4,1,f,None,,,1.7026236000237986,0.10466849996009842,,,,,,,1,4,4,,,,75.30763679998927,,,,,,,,,,,,,,,,,,,,,,,,,,,,,,75.29087539995089,75.30763679998927,75.79249229998095,75.80050059995847,75.80930889997398,75.80930889997398,75.80930889997398,78.80321159999585,f,78.80326469999272,,,78.80327719997149,None,,,1.7026236000237986,0.10466849996009842,,,,,,,,,,,,,,,,,,,,,,,,,,,,,,,,,00047,001,2026-01-18_10h42.03.071,MST_task,2024.2.0,59.63491504711179,2026-01-18 10h56.02.957003 +0530,
6,practice_images/158a.jpg,5,5,1,j,None,,,1.1505051999702118,0.20057810004800558,,,,,,,1,5,5,,,,78.81984869996086,,,,,,,,,,,,,,,,,,,,,,,,,,,,,,78.80335389997344,78.81984869996086,79.30489489994943,79.31599009997444,79.32145739998668,79.32145739998668,79.32145739998668,82.31545779999578,j,82.31738879997283,,,82.31740749999881,None,,,1.1505051999702118,0.20057810004800558,,,,,,,,,,,,,,,,,,,,,,,,,,,,,,,,,00047,001,2026-01-18_10h42.03.071,MST_task,2024.2.0,59.63491504711179,2026-01-18 10h56.02.957003 +0530,
1,practice_images/013a.jpg,6,6,1,j,None,,,2.8552863000077195,None,,,,,,,1,6,6,,,,82.33213789999718,,,,,,,,,,,,,,,,,,,,,,,,,,,,,,82.3174788999604,82.33213789999718,82.81756149994908,82.82606699998723,82.83336209994741,82.83336209994741,82.83336209994741,85.82793859997764,j,85.82799239997985,,,85.82800659997156,None,,,2.8552863000077195,None,82.83336209994741,,,,,,,,,,,,,,,,,,,,,,,,,,,,,,,,00047,001,2026-01-18_10h42.03.071,MST_task,2024.2.0,59.63491504711179,2026-01-18 10h56.02.957003 +0530,
9,practice_images/180a.jpg,7,7,1,j,None,,,2.438097399950493,0.15199660003418103,,,,,,,1,7,7,,,,85.84444579994306,,,,,,,,,,,,,,,,,,,,,,,,,,,,,,85.82807339995634,85.84444579994306,86.32952479994856,86.33735109999543,86.34627059998456,86.34627059998456,86.34627059998456,89.34000709996326,j,89.34004649997223,,,89.34005859994795,None,,,2.438097399950493,0.15199660003418103,,,,,,,,,,,,,,,,,,,,,,,,,,,,,,,,,00047,001,2026-01-18_10h42.03.071,MST_task,2024.2.0,59.63491504711179,2026-01-18 10h56.02.957003 +0530,
10,practice_images/182a.jpg,8,8,1,f,None,,,1.0772689000004902,0.12102640001103282,,,,,,,1,8,8,,,,89.3567284999881,,,,,,,,,,,,,,,,,,,,,,,,,,,,,,89.34012739994796,89.3567284999881,89.84171259996947,89.8497257999843,89.85853319999296,89.85853319999296,89.85853319999296,92.85238249995746,f,92.85242209996795,,,92.85244789998978,None,,,1.0772689000004902,0.12102640001103282,,,,,,,,,,,,,,,,,,,,,,,,,,,,,,,,,00047,001,2026-01-18_10h42.03.071,MST_task,2024.2.0,59.63491504711179,2026-01-18 10h56.02.957003 +0530,
4,practice_images/002b.jpg,9,9,1,j,None,,,2.830636099970434,None,,,,,,,1,9,9,,,,92.86903569998685,,,,,,,,,,,,,,,,,,,,,,,,,,,,,,92.85251749999588,92.86903569998685,93.3541473999503,93.36240159999579,93.36990099999821,93.36990099999821,93.36990099999821,96.3645432999474,j,96.3645828999579,,,96.36460549995536,None,,,2.830636099970434,None,,,,,,,,,,,,,,,,,,,,,,,,,,,,,,,,,00047,001,2026-01-18_10h42.03.071,MST_task,2024.2.0,59.63491504711179,2026-01-18 10h56.02.957003 +0530,
,,,,,,,,,,,,,,,,,,,,,,,,,,,,,,,,,,,,,,,,,,,,,,,,,,,,,,,,,,,,,,,,,,,,,,,,96.36465069995029,96.38144169998122,96.38144169998122,116.92053579998901,space,20.523280400026124,None,,,,,,,,,,,,,,,,,,,,,,,,,00047,001,2026-01-18_10h42.03.071,MST_task,2024.2.0,59.63491504711179,2026-01-18 10h56.02.957003 +0530,
,Objects\045a.jpg,0,0,1,,,,,,,j,1.9671372000011615,None,None,,,,,,1,0,0,116.93666709994432,,,,,,,,,,,,,,,,,,,,,,,,,,,,,,116.92128049995517,116.93666709994432,117.42165139998542,,,,,,,,,,,,,,,,,,,,,,,,117.44950160000008,117.47279409994371,117.47279409994371,117.47279409994371,120.4323181999498,j,1.9671372000011615,None,120.43513899995014,120.43515889998525,None,,,,,,,,,,,,,,00047,001,2026-01-18_10h42.03.071,MST_task,2024.2.0,59.63491504711179,2026-01-18 10h56.02.957003 +0530,
,Objects\061a.jpg,1,0,2,,,,,,,j,2.225566500041168,None,None,,,,,,2,0,1,120.44897239998681,,,,,,,,,,,,,,,,,,,,,,,,,,,,,,120.43526569998357,120.44897239998681,120.93430179997813,,,,,,,,,,,,,,,,120.96735929994611,,,,,,,,120.94440059998306,120.96735929994611,120.96735929994611,120.96735929994611,123.94474549998995,j,2.225566500041168,None,123.94478839996736,123.94480089994613,None,,,,,,,,,,,,,,00047,001,2026-01-18_10h42.03.071,MST_task,2024.2.0,59.63491504711179,2026-01-18 10h56.02.957003 +0530,
,Objects\089a.jpg,2,0,3,,,,,,,None,,,j,0.7905825999914669,None,,,,3,0,2,123.96116469998378,,,,,,,,,,,,,,,,,,,,,,,,,,,,,,123.94495299999835,123.96116469998378,124.44655949994922,,,,,,,,,,,,,,,,,,,,,,,,124.45620679995045,124.4796609999612,124.4796609999612,124.4796609999612,127.45683169999393,None,,,127.45688389998395,128.2771364999935,j,127.47357659996487,127.47357659996487,0.7905825999914669,None,,,,,,,,,,00047,001,2026-01-18_10h42.03.071,MST_task,2024.2.0,59.63491504711179,2026-01-18 10h56.02.957003 +0530,
,Objects\119a.jpg,3,0,4,,,,,,,f,1.7884185999864712,0.07996170001570135,None,,,,,,4,0,3,128.29299919999903,,,,,,,,,,,,,,,,,,,,,,,,,,,,,,128.27729499997804,128.29299919999903,128.77835699997377,,,,,,,,,,,,,,,,,,,,,,,,128.7887413999997,128.8115949999774,128.8115949999774,128.8115949999774,131.78870419994928,f,1.7884185999864712,0.07996170001570135,131.78875159996096,131.78876499994658,None,,,,,,,,,,,,,,00047,001,2026-01-18_10h42.03.071,MST_task,2024.2.0,59.63491504711179,2026-01-18 10h56.02.957003 +0530,
,Objects\142a.jpg,4,0,5,,,,,,,f,0.6917333999881521,0.1121551000396721,None,,,,,,5,0,4,131.8054237999604,,,,,,,,,,,,,,,,,,,,,,,,,,,,,,131.78965489997063,131.8054237999604,132.29043599998113,,,,,,,,,,,,,,,,,,,,,,,,132.29996129998472,132.32391429995187,132.32391429995187,132.32391429995187,135.3010699999868,f,0.6917333999881521,0.1121551000396721,135.30127499997616,135.30128849996254,None,,,,,,,,,,,,,,00047,001,2026-01-18_10h42.03.071,MST_task,2024.2.0,59.63491504711179,2026-01-18 10h56.02.957003 +0530,
,Objects\088a.jpg,5,0,6,,,,,,,f,2.9000235000276007,None,None,,,,,,6,0,5,135.31760029995348,,,,,,,,,,,,,,,,,,,,,,,,,,,,,,135.30141549999826,135.31760029995348,135.8028437999892,,,,,,,,,,,,,,,,,,,,,,,,135.81231739994837,135.83609209995484,135.83609209995484,135.83609209995484,138.8132362999604,f,2.9000235000276007,None,138.81327989994315,138.8132924999809,None,,,,,,,,,,,,,,00047,001,2026-01-18_10h42.03.071,MST_task,2024.2.0,59.63491504711179,2026-01-18 10h56.02.957003 +0530,
,Objects\107a.jpg,6,0,7,,,,,,,j,1.0516173000214621,None,None,,,,,,7,0,6,138.8300102999783,,,,,,,,,,,,,,,,,,,,,,,,,,,,,,138.81366200000048,138.8300102999783,139.31499819998862,,,,,,,,,,,,,,,,,,,,,,,,139.3259464999428,139.34849989996292,139.34849989996292,139.34849989996292,142.32556839997414,j,1.0516173000214621,None,142.32562919997144,142.3256411999464,None,,,,,,,,,,,,,,00047,001,2026-01-18_10h42.03.071,MST_task,2024.2.0,59.63491504711179,2026-01-18 10h56.02.957003 +0530,
,Scenes\157a.jpg,7,0,8,,,,,,,j,1.0185277999844402,None,None,,,,,,8,0,7,142.34232499997597,,,,,,,,,,,,,,,,,,,,,,,,,,,,,,142.3259154999978,142.34232499997597,142.82728689996293,,,,,,,,,,,,,,,,,,,,,,,,142.85635999997612,142.87845079996623,142.87845079996623,142.87845079996623,145.83784529997502,j,1.0185277999844402,None,145.83925109996926,145.83926929999143,None,,,,,,,,,,,,,,00047,001,2026-01-18_10h42.03.071,MST_task,2024.2.0,59.63491504711179,2026-01-18 10h56.02.957003 +0530,
,Scenes\131a.jpg,8,0,9,,,,,,,j,1.2647115999716334,None,None,,,,,,9,0,8,145.85462469997583,,,,,,,,,,,,,,,,,,,,,,,,,,,,,,145.83937969995895,145.85462469997583,146.33958509995136,,,,,,,,,,,,,,,,,,,,,,,,146.3642609999515,146.3909853999503,146.3909853999503,146.3909853999503,149.35026209999342,j,1.2647115999716334,None,149.35047469998244,149.3504879999673,None,,,,,,,,,,,,,,00047,001,2026-01-18_10h42.03.071,MST_task,2024.2.0,59.63491504711179,2026-01-18 10h56.02.957003 +0530,
,Scenes\119a.jpg,9,0,10,,,,,,,j,1.01781089999713,None,None,,,,,,10,0,9,149.3668050999986,,,,,,,,,,,,,,,,,,,,,,,,,,,,,,149.35056029999396,149.3668050999986,149.85201509995386,,,,,,,,,,,,,,,,,,,,,,,,149.87701479997486,149.90219359996263,149.90219359996263,149.90219359996263,152.86244229995646,j,1.01781089999713,None,152.8624871999491,152.86249999998836,None,,,,,,,,,,,,,,00047,001,2026-01-18_10h42.03.071,MST_task,2024.2.0,59.63491504711179,2026-01-18 10h56.02.957003 +0530,
,Scenes\139a.jpg,10,0,11,,,,,,,j,0.8752991000073962,None,None,,,,,,11,0,10,152.87922949995846,,,,,,,,,,,,,,,,,,,,,,,,,,,,,,152.86260739999125,152.87922949995846,153.36421099997824,,,,,,,,,,,,,,,,,,,,,,,,153.38549669994973,153.39760469994508,153.39760469994508,153.39760469994508,156.37504299997818,j,0.8752991000073962,None,156.37509359995602,156.37510639999527,None,,,,,,,,,,,,,,00047,001,2026-01-18_10h42.03.071,MST_task,2024.2.0,59.63491504711179,2026-01-18 10h56.02.957003 +0530,
,Scenes\066a.jpg,11,0,12,,,,,,,j,1.2967067999998108,None,None,,,,,,12,0,11,156.3915527999634,,,,,,,,,,,,,,,,,,,,,,,,,,,,,,156.37522239994723,156.3915527999634,156.87660939997295,,,,,,,,,,,,,,,,,,,,,,,,156.907859799976,156.92760589998215,156.92760589998215,156.92760589998215,159.88735489995452,j,1.2967067999998108,None,159.8873983999947,159.8874107999727,None,,,,,,,,,,,,,,00047,001,2026-01-18_10h42.03.071,MST_task,2024.2.0,59.63491504711179,2026-01-18 10h56.02.957003 +0530,
,Scenes\087a.jpg,12,0,13,,,,,,,j,1.4328307999530807,None,None,,,,,,13,0,12,159.9036934999749,,,,,,,,,,,,,,,,,,,,,,,,,,,,,,159.88751239998965,159.9036934999749,160.38891909999074,,,,,,,,,,,,,,,,,,,,,,,,160.40904259996023,160.42319039994618,160.42319039994618,160.42319039994618,163.39959769998677,j,1.4328307999530807,None,163.39998099999502,163.39999739994528,None,,,,,,,,,,,,,,00047,001,2026-01-18_10h42.03.071,MST_task,2024.2.0,59.63491504711179,2026-01-18 10h56.02.957003 +0530,
,Scenes\171a.jpg,13,0,14,,,,,,,f,2.791844299994409,0.112105900014285,None,,,,,,14,0,13,163.4161237999797,,,,,,,,,,,,,,,,,,,,,,,,,,,,,,163.40007139998488,163.4161237999797,163.9010878999834,,,,,,,,,,,,,,,,,,,,,,,,163.9308690999751,163.95211249997374,163.95211249997374,163.95211249997374,166.911762899952,f,2.791844299994409,0.112105900014285,166.9118107999675,166.91182289994322,None,,,,,,,,,,,,,,00047,001,2026-01-18_10h42.03.071,MST_task,2024.2.0,59.63491504711179,2026-01-18 10h56.02.957003 +0530,
,Objects\065a.jpg,14,0,15,,,,,,,None,,,j,2.5512657999643125,None,,,,15,0,14,166.9283666999545,,,,,,,,,,,,,,,,,,,,,,,,,,,,,,166.9119494999759,166.9283666999545,167.41352239996195,,,,,,,,,,,,,,,,,,,,,,,,167.43831359996693,167.44755269994494,167.44755269994494,167.44755269994494,170.42406439996557,None,,,170.42557979997946,173.0001888999832,j,170.44074849999743,170.44074849999743,2.5512657999643125,None,,,,,,,,,,00047,001,2026-01-18_10h42.03.071,MST_task,2024.2.0,59.63491504711179,2026-01-18 10h56.02.957003 +0530,
,Objects\005a.jpg,15,0,16,,,,,,,f,1.2492531999596395,0.16820700000971556,None,,,,,,16,0,15,173.01630429999204,,,,,,,,,,,,,,,,,,,,,,,,,,,,,,173.00031469995156,173.01630429999204,173.5014966999879,,,,,,,,,,,,,,,,,,,,,,,,173.52436749998014,173.53477999998722,173.53477999998722,173.53477999998722,176.51204849994974,f,1.2492531999596395,0.16820700000971556,176.51209559995914,176.51210799999535,None,,,,,,,,,,,,,,00047,001,2026-01-18_10h42.03.071,MST_task,2024.2.0,59.63491504711179,2026-01-18 10h56.02.957003 +0530,
,Objects\133a.jpg,16,0,17,,,,,,,f,1.6490266000037082,0.10386610002024099,None,,,,,,17,0,16,176.5287783999811,,,,,,,,,,,,,,,,,,,,,,,,,,,,,,176.51222899998538,176.5287783999811,177.0139727999922,,,,,,,,,,,,,,,,,,,,,,,,177.03665199998068,177.04723419999937,177.04723419999937,177.04723419999937,180.0243256999529,f,1.6490266000037082,0.10386610002024099,180.02464929997222,180.02466249995632,None,,,,,,,,,,,,,,00047,001,2026-01-18_10h42.03.071,MST_task,2024.2.0,59.63491504711179,2026-01-18 10h56.02.957003 +0530,
,Objects\006a.jpg,17,0,18,,,,,,,f,1.23311069997726,0.11147610004991293,None,,,,,,18,0,17,180.04102659999626,,,,,,,,,,,,,,,,,,,,,,,,,,,,,,180.02473349997308,180.04102659999626,180.5260275999899,,,,,,,,,,,,,,,,,,,,,,,,180.55162929999642,180.55945699999575,180.55945699999575,180.55945699999575,183.53666029998567,f,1.23311069997726,0.11147610004991293,183.5367041999707,183.53671649994794,None,,,,,,,,,,,,,,00047,001,2026-01-18_10h42.03.071,MST_task,2024.2.0,59.63491504711179,2026-01-18 10h56.02.957003 +0530,
,Objects\117a.jpg,18,0,19,,,,,,,f,1.7121206999872811,0.09679859998868778,None,,,,,,19,0,18,183.55326279997826,,,,,,,,,,,,,,,,,,,,,,,,,,,,,,183.53678819997003,183.55326279997826,184.0384078999632,,,,,,,,,,,,,,,,,,,,,,,,184.0626145999995,184.07178579998435,184.07178579998435,184.07178579998435,187.04884009994566,f,1.7121206999872811,0.09679859998868778,187.0488831999828,187.04889559996082,None,,,,,,,,,,,,,,00047,001,2026-01-18_10h42.03.071,MST_task,2024.2.0,59.63491504711179,2026-01-18 10h56.02.957003 +0530,
,Objects\158a.jpg,19,0,20,,,,,,,f,1.2001148999552242,0.12167540000518784,None,,,,,,20,0,19,187.06562429998303,,,,,,,,,,,,,,,,,,,,,,,,,,,,,,187.0490024999599,187.06562429998303,187.55096369999228,,,,,,,,,,,,,,,,,,,,,,,,187.57262669998454,187.58409919997212,187.58409919997212,187.58409919997212,190.5613923999481,f,1.2001148999552242,0.12167540000518784,190.56158989999676,190.56160319998162,None,,,,,,,,,,,,,,00047,001,2026-01-18_10h42.03.071,MST_task,2024.2.0,59.63491504711179,2026-01-18 10h56.02.957003 +0530,
,Objects\132a.jpg,20,0,21,,,,,,,f,1.1912409999640658,0.12855190003756434,None,,,,,,21,0,20,190.57794629997807,,,,,,,,,,,,,,,,,,,,,,,,,,,,,,190.5617255999823,190.57794629997807,191.0630422999966,,,,,,,,,,,,,,,,,,,,,,,,191.08586279995507,191.09635209996486,191.09635209996486,191.09635209996486,194.07357309997315,f,1.1912409999640658,0.12855190003756434,194.07361609995132,194.07362849998754,None,,,,,,,,,,,,,,00047,001,2026-01-18_10h42.03.071,MST_task,2024.2.0,59.63491504711179,2026-01-18 10h56.02.957003 +0530,
,Scenes\152a.jpg,21,0,22,,,,,,,j,1.366237300040666,0.1680077000055462,None,,,,,,22,0,21,194.09010079997825,,,,,,,,,,,,,,,,,,,,,,,,,,,,,,194.07374749996234,194.09010079997825,194.57530430000043,,,,,,,,,,,,,,,,,,,,,,,,194.59729589999188,194.62608519999776,194.62608519999776,194.62608519999776,197.5859301999444,j,1.366237300040666,0.1680077000055462,197.5872269999818,197.58724659995642,None,,,,,,,,,,,,,,00047,001,2026-01-18_10h42.03.071,MST_task,2024.2.0,59.63491504711179,2026-01-18 10h56.02.957003 +0530,
,Scenes\013a.jpg,22,0,23,,,,,,,j,0.9495587000274099,0.18332750000990927,None,,,,,,23,0,22,197.60238949995255,,,,,,,,,,,,,,,,,,,,,,,,,,,,,,197.58735809999052,197.60238949995255,198.08767269999953,,,,,,,,,,,,,,,,,,,,,,,,198.1126002999954,198.13889079994988,198.13889079994988,198.13889079994988,201.09804059995804,j,0.9495587000274099,0.18332750000990927,201.09808459994383,201.0980973999831,None,,,,,,,,,,,,,,00047,001,2026-01-18_10h42.03.071,MST_task,2024.2.0,59.63491504711179,2026-01-18 10h56.02.957003 +0530,
,Scenes\092a.jpg,23,0,24,,,,,,,j,0.8064920000033453,0.20077599998330697,None,,,,,,24,0,23,201.11494749999838,,,,,,,,,,,,,,,,,,,,,,,,,,,,,,201.09823299996788,201.11494749999838,201.5998085999745,,,,,,,,,,,,,,,,,,,,,,,,201.62450949999038,201.64991459995508,201.64991459995508,201.64991459995508,204.6104882999789,j,0.8064920000033453,0.20077599998330697,204.61053399997763,204.61054719996173,None,,,,,,,,,,,,,,00047,001,2026-01-18_10h42.03.071,MST_task,2024.2.0,59.63491504711179,2026-01-18 10h56.02.957003 +0530,
,Scenes\004a.jpg,24,0,25,,,,,,,j,0.9092710999539122,0.1848625999991782,None,,,,,,25,0,24,204.62701719999313,,,,,,,,,,,,,,,,,,,,,,,,,,,,,,204.61062069999753,204.62701719999313,205.112234399945,,,,,,,,,,,,,,,,,,,,,,,,205.13722369994503,205.16233249998186,205.16233249998186,205.16233249998186,208.12271409999812,j,0.9092710999539122,0.1848625999991782,208.12277149996953,208.12279559997842,None,,,,,,,,,,,,,,00047,001,2026-01-18_10h42.03.071,MST_task,2024.2.0,59.63491504711179,2026-01-18 10h56.02.957003 +0530,
,Scenes\065a.jpg,25,0,26,,,,,,,j,0.9902495000278577,0.19054480001796037,None,,,,,,26,0,25,208.13942259998294,,,,,,,,,,,,,,,,,,,,,,,,,,,,,,208.1229094999726,208.13942259998294,208.62442670000019,,,,,,,,,,,,,,,,,,,,,,,,208.64830409997376,208.6752456999966,208.6752456999966,208.6752456999966,211.63503999996465,j,0.9902495000278577,0.19054480001796037,211.6350972999935,211.63510979997227,None,,,,,,,,,,,,,,00047,001,2026-01-18_10h42.03.071,MST_task,2024.2.0,59.63491504711179,2026-01-18 10h56.02.957003 +0530,
,Scenes\115a.jpg,26,0,27,,,,,,,j,0.9491275000036694,0.16143179999198765,None,,,,,,27,0,26,211.65172289998736,,,,,,,,,,,,,,,,,,,,,,,,,,,,,,211.6352253999794,211.65172289998736,212.13669369998388,,,,,,,,,,,,,,,,,,,,,,,,212.16082339995774,212.1869315999793,212.1869315999793,212.1869315999793,215.14733339997474,j,0.9491275000036694,0.16143179999198765,215.14737689995673,215.14738959999522,None,,,,,,,,,,,,,,00047,001,2026-01-18_10h42.03.071,MST_task,2024.2.0,59.63491504711179,2026-01-18 10h56.02.957003 +0530,
,Scenes\169a.jpg,27,0,28,,,,,,,j,0.6292942999862134,0.16845540003851056,None,,,,,,28,0,27,215.16390589997172,,,,,,,,,,,,,,,,,,,,,,,,,,,,,,215.14745959994616,215.16390589997172,215.6492845999892,,,,,,,,,,,,,,,,,,,,,,,,215.66939099994488,215.6826371999923,215.6826371999923,215.6826371999923,218.6598400999792,j,0.6292942999862134,0.16845540003851056,218.65988469996955,218.65989759995136,None,,,,,,,,,,,,,,00047,001,2026-01-18_10h42.03.071,MST_task,2024.2.0,59.63491504711179,2026-01-18 10h56.02.957003 +0530,
,Objects\036a.jpg,28,0,29,,,,,,,f,0.9391491999849677,0.07161039998754859,None,,,,,,29,0,28,218.67639280000003,,,,,,,,,,,,,,,,,,,,,,,,,,,,,,218.6599670999567,218.67639280000003,219.16219689999707,,,,,,,,,,,,,,,,,,,,,,,,219.18767509999452,219.2131637999555,219.2131637999555,219.2131637999555,222.17194079997716,f,0.9391491999849677,0.07161039998754859,222.17455399996834,222.17457189998822,None,,,,,,,,,,,,,,00047,001,2026-01-18_10h42.03.071,MST_task,2024.2.0,59.63491504711179,2026-01-18 10h56.02.957003 +0530,
,Objects\079a.jpg,29,0,30,,,,,,,f,0.6850359000382014,0.12802730000112206,None,,,,,,30,0,29,222.1886158999987,,,,,,,,,,,,,,,,,,,,,,,,,,,,,,222.17464339995058,222.1886158999987,222.6739760999917,,,,,,,,,,,,,,,,222.70712189999176,,,,,,,,222.6968860999914,222.70712189999176,222.70712189999176,222.70712189999176,225.6844552999828,f,0.6850359000382014,0.12802730000112206,225.68449829996098,225.68451019999338,None,,,,,,,,,,,,,,00047,001,2026-01-18_10h42.03.071,MST_task,2024.2.0,59.63491504711179,2026-01-18 10h56.02.957003 +0530,
,Objects\063a.jpg,30,0,31,,,,,,,f,1.0857137000421062,0.11891560000367463,None,,,,,,31,0,30,225.70080769999186,,,,,,,,,,,,,,,,,,,,,,,,,,,,,,225.684629699972,225.70080769999186,226.18601829995168,,,,,,,,,,,,,,,,,,,,,,,,226.2082570999628,226.21939719998045,226.21939719998045,226.21939719998045,229.19658629997866,f,1.0857137000421062,0.11891560000367463,229.1966350999428,229.19664799998282,None,,,,,,,,,,,,,,00047,001,2026-01-18_10h42.03.071,MST_task,2024.2.0,59.63491504711179,2026-01-18 10h56.02.957003 +0530,
,Objects\128a.jpg,31,0,32,,,,,,,f,0.9806110000354238,0.1533223000005819,None,,,,,,32,0,31,229.213120099972,,,,,,,,,,,,,,,,,,,,,,,,,,,,,,229.19675909995567,229.213120099972,229.69833589997143,,,,,,,,,,,,,,,,,,,,,,,,229.72081449994585,229.73159919999307,229.73159919999307,229.73159919999307,232.70877649995964,f,0.9806110000354238,0.1533223000005819,232.7088187999907,232.70883079996565,None,,,,,,,,,,,,,,00047,001,2026-01-18_10h42.03.071,MST_task,2024.2.0,59.63491504711179,2026-01-18 10h56.02.957003 +0530,
,Objects\007a.jpg,32,0,33,,,,,,,j,2.276994100015145,0.19111939996946603,None,,,,,,33,0,32,232.72553799999878,,,,,,,,,,,,,,,,,,,,,,,,,,,,,,232.70916309999302,232.72553799999878,233.21057289995952,,,,,,,,,,,,,,,,,,,,,,,,233.23489119997248,233.2441082999576,233.2441082999576,233.2441082999576,236.22115040000062,j,2.276994100015145,0.19111939996946603,236.22119429998565,236.22120619995985,None,,,,,,,,,,,,,,00047,001,2026-01-18_10h42.03.071,MST_task,2024.2.0,59.63491504711179,2026-01-18 10h56.02.957003 +0530,
,Objects\022a.jpg,33,0,34,,,,,,,f,0.8199879000312649,0.15133129997411743,None,,,,,,34,0,33,236.2378369999933,,,,,,,,,,,,,,,,,,,,,,,,,,,,,,236.22127629996976,236.2378369999933,236.7229198999703,,,,,,,,,,,,,,,,,,,,,,,,236.74525949999224,236.7562225999427,236.7562225999427,236.7562225999427,239.73336969997035,f,0.8199879000312649,0.15133129997411743,239.7334127999493,239.73342479998246,None,,,,,,,,,,,,,,00047,001,2026-01-18_10h42.03.071,MST_task,2024.2.0,59.63491504711179,2026-01-18 10h56.02.957003 +0530,
,Objects\126a.jpg,34,0,35,,,,,,,j,1.035098000022117,0.19954050000524148,None,,,,,,35,0,34,239.75013119995128,,,,,,,,,,,,,,,,,,,,,,,,,,,,,,239.73364039999433,239.75013119995128,240.23524969996652,,,,,,,,,,,,,,,,,,,,,,,,240.25869429996237,240.26891399995657,240.26891399995657,240.26891399995657,243.24592979997396,j,1.035098000022117,0.19954050000524148,243.24598699994385,243.24599919997854,None,,,,,,,,,,,,,,00047,001,2026-01-18_10h42.03.071,MST_task,2024.2.0,59.63491504711179,2026-01-18 10h56.02.957003 +0530,
,Scenes\192a.jpg,35,0,36,,,,,,,j,1.0818589000264183,0.19178769999416545,None,,,,,,36,0,35,243.26231649995316,,,,,,,,,,,,,,,,,,,,,,,,,,,,,,243.2460675999755,243.26231649995316,243.74753209995106,,,,,,,,,,,,,,,,,,,,,,,,243.7729000999825,243.79860399995232,243.79860399995232,243.79860399995232,246.75794739997946,j,1.0818589000264183,0.19178769999416545,246.75963499996578,246.75965379999252,None,,,,,,,,,,,,,,00047,001,2026-01-18_10h42.03.071,MST_task,2024.2.0,59.63491504711179,2026-01-18 10h56.02.957003 +0530,
,Scenes\038a.jpg,36,0,37,,,,,,,j,0.7935560999903828,0.1755861000274308,None,,,,,,37,0,36,246.77476229995955,,,,,,,,,,,,,,,,,,,,,,,,,,,,,,246.75972719996935,246.77476229995955,247.25970109994523,,,,,,,,,,,,,,,,,,,,,,,,247.29004009999335,247.31103979999898,247.31103979999898,247.31103979999898,250.27035929996055,j,0.7935560999903828,0.1755861000274308,250.27054589998443,250.2705627999967,None,,,,,,,,,,,,,,00047,001,2026-01-18_10h42.03.071,MST_task,2024.2.0,59.63491504711179,2026-01-18 10h56.02.957003 +0530,
,Scenes\127a.jpg,37,0,38,,,,,,,j,0.833741899987217,0.17640970001230016,None,,,,,,38,0,37,250.28699949994916,,,,,,,,,,,,,,,,,,,,,,,,,,,,,,250.2706910999841,250.28699949994916,250.77230019995477,,,,,,,,,,,,,,,,,,,,,,,,250.7965828999877,250.8222466999432,250.8222466999432,250.8222466999432,253.7825883999467,j,0.833741899987217,0.17640970001230016,253.7826408999972,253.7826532999752,None,,,,,,,,,,,,,,00047,001,2026-01-18_10h42.03.071,MST_task,2024.2.0,59.63491504711179,2026-01-18 10h56.02.957003 +0530,
,Scenes\147a.jpg,38,0,39,,,,,,,j,0.777809499995783,0.17544020002242178,None,,,,,,39,0,38,253.7993486999767,,,,,,,,,,,,,,,,,,,,,,,,,,,,,,253.78303939994657,253.7993486999767,254.28436729998793,,,,,,,,,,,,,,,,,,,,,,,,254.3051125999773,254.31848839996383,254.31848839996383,254.31848839996383,257.29495279997354,j,0.777809499995783,0.17544020002242178,257.2950134999701,257.29502679995494,None,,,,,,,,,,,,,,00047,001,2026-01-18_10h42.03.071,MST_task,2024.2.0,59.63491504711179,2026-01-18 10h56.02.957003 +0530,
,Scenes\079a.jpg,39,0,40,,,,,,,j,0.610700499964878,0.2001297000097111,None,,,,,,40,0,39,257.31163989997003,,,,,,,,,,,,,,,,,,,,,,,,,,,,,,257.2953916999977,257.31163989997003,257.7967505999841,,,,,,,,,,,,,,,,,,,,,,,,257.817811099987,257.8292591999634,257.8292591999634,257.8292591999634,260.80718479998177,j,0.610700499964878,0.2001297000097111,260.80722859996604,260.80724179995013,None,,,,,,,,,,,,,,00047,001,2026-01-18_10h42.03.071,MST_task,2024.2.0,59.63491504711179,2026-01-18 10h56.02.957003 +0530,
,Scenes\053a.jpg,40,0,41,,,,,,,j,0.889497600030154,0.20023829996353015,None,,,,,,41,0,40,260.8239229999599,,,,,,,,,,,,,,,,,,,,,,,,,,,,,,260.8076105999644,260.8239229999599,261.308898599993,,,,,,,,,,,,,,,,,,,,,,,,261.3281283999677,261.34318169998005,261.34318169998005,261.34318169998005,264.3195659999619,j,0.889497600030154,0.20023829996353015,264.3198775999481,264.3198904999881,None,,,,,,,,,,,,,,00047,001,2026-01-18_10h42.03.071,MST_task,2024.2.0,59.63491504711179,2026-01-18 10h56.02.957003 +0530,
,Scenes\123a.jpg,41,0,42,,,,,,,j,0.6256624999805354,0.18538390001049265,None,,,,,,42,0,41,264.3361257999786,,,,,,,,,,,,,,,,,,,,,,,,,,,,,,264.3200151999481,264.3361257999786,264.8215105999843,,,,,,,,,,,,,,,,,,,,,,,,264.84461919998284,264.85442259995034,264.85442259995034,264.85442259995034,267.8317571999505,j,0.6256624999805354,0.18538390001049265,267.83180109999375,267.83181329997024,None,,,,,,,,,,,,,,00047,001,2026-01-18_10h42.03.071,MST_task,2024.2.0,59.63491504711179,2026-01-18 10h56.02.957003 +0530,
,Objects\084a.jpg,42,0,43,,,,,,,None,,,f,0.05567850003717467,None,,,,43,0,42,267.84853159997147,,,,,,,,,,,,,,,,,,,,,,,,,,,,,,267.8319168999442,267.84853159997147,268.3334976999904,,,,,,,,,,,,,,,,,,,,,,,,268.358424999984,268.3676013999502,268.3676013999502,268.3676013999502,271.34406679996755,None,,,271.3460823999485,271.42838569998275,f,271.36097039998276,271.36097039998276,0.05567850003717467,None,,,,,,,,,,00047,001,2026-01-18_10h42.03.071,MST_task,2024.2.0,59.63491504711179,2026-01-18 10h56.02.957003 +0530,
,Objects\100a.jpg,43,0,44,,,,,,,f,0.9579752000281587,0.11908959998982027,None,,,,,,44,0,43,271.44437219999963,,,,,,,,,,,,,,,,,,,,,,,,,,,,,,271.4285259999451,271.44437219999963,271.9297324999934,,,,,,,,,,,,,,,,,,,,,,,,271.95044959994266,271.96300379995955,271.96300379995955,271.96300379995955,274.9399836999946,f,0.9579752000281587,0.11908959998982027,274.9400629999582,274.94007859996054,None,,,,,,,,,,,,,,00047,001,2026-01-18_10h42.03.071,MST_task,2024.2.0,59.63491504711179,2026-01-18 10h56.02.957003 +0530,
,Objects\152a.jpg,44,0,45,,,,,,,f,1.4051989000290632,0.15132409997750074,None,,,,,,45,0,44,274.95676559995627,,,,,,,,,,,,,,,,,,,,,,,,,,,,,,274.94014949997654,274.95676559995627,275.4417265999946,,,,,,,,,,,,,,,,,,,,,,,,275.4644589999807,275.4752385999891,275.4752385999891,275.4752385999891,278.452568699955,f,1.4051989000290632,0.15132409997750074,278.45262969995383,278.4526454999577,None,,,,,,,,,,,,,,00047,001,2026-01-18_10h42.03.071,MST_task,2024.2.0,59.63491504711179,2026-01-18 10h56.02.957003 +0530,
,Objects\044a.jpg,45,0,46,,,,,,,f,1.3160869000130333,0.1443297999794595,None,,,,,,46,0,45,278.4689548999886,,,,,,,,,,,,,,,,,,,,,,,,,,,,,,278.4527474999777,278.4689548999886,278.95416289998684,,,,,,,,,,,,,,,,,,,,,,,,278.9772967999452,278.98744309996255,278.98744309996255,278.98744309996255,281.9648721999838,f,1.3160869000130333,0.1443297999794595,281.9649256999837,281.9649381999625,None,,,,,,,,,,,,,,00047,001,2026-01-18_10h42.03.071,MST_task,2024.2.0,59.63491504711179,2026-01-18 10h56.02.957003 +0530,
,Objects\169a.jpg,46,0,47,,,,,,,j,0.9883972000097856,0.17605229996843264,None,,,,,,47,0,46,281.9812520999694,,,,,,,,,,,,,,,,,,,,,,,,,,,,,,281.96500919997925,281.9812520999694,282.46660579997115,,,,,,,,,,,,,,,,,,,,,,,,282.48865129996557,282.49972869997146,282.49972869997146,282.49972869997146,285.4769285999937,j,0.9883972000097856,0.17605229996843264,285.47698719997425,285.4770004999591,None,,,,,,,,,,,,,,00047,001,2026-01-18_10h42.03.071,MST_task,2024.2.0,59.63491504711179,2026-01-18 10h56.02.957003 +0530,
,Objects\082a.jpg,47,0,48,,,,,,,j,0.7322746000136249,0.16828659997554496,None,,,,,,48,0,47,285.493782799982,,,,,,,,,,,,,,,,,,,,,,,,,,,,,,285.4772157999687,285.493782799982,285.9786382999737,,,,,,,,,,,,,,,,,,,,,,,,286.0010809999658,286.0122418999672,286.0122418999672,286.0122418999672,288.9892139000003,j,0.7322746000136249,0.16828659997554496,288.989259199996,288.98927179997554,None,,,,,,,,,,,,,,00047,001,2026-01-18_10h42.03.071,MST_task,2024.2.0,59.63491504711179,2026-01-18 10h56.02.957003 +0530,
,Objects\004a.jpg,48,0,49,,,,,,,j,1.6608135999995284,0.1913736000424251,None,,,,,,49,0,48,289.0058618999901,,,,,,,,,,,,,,,,,,,,,,,,,,,,,,288.9896619999781,289.0058618999901,289.4909479999915,,,,,,,,,,,,,,,,,,,,,,,,289.51361139997607,289.52444739994826,289.52444739994826,289.52444739994826,292.501895399997,j,1.6608135999995284,0.1913736000424251,292.50194009998813,292.5019528999692,None,,,,,,,,,,,,,,00047,001,2026-01-18_10h42.03.071,MST_task,2024.2.0,59.63491504711179,2026-01-18 10h56.02.957003 +0530,
,Scenes\143a.jpg,49,0,50,,,,,,,j,0.7864381999825127,0.19876850000582635,None,,,,,,50,0,49,292.5181477999431,,,,,,,,,,,,,,,,,,,,,,,,,,,,,,292.50202229997376,292.5181477999431,293.00334749999456,,,,,,,,,,,,,,,,,,,,,,,,293.0295042999787,293.05443039996317,293.05443039996317,293.05443039996317,296.01420569996117,j,0.7864381999825127,0.19876850000582635,296.0158091999474,296.01582949998556,None,,,,,,,,,,,,,,00047,001,2026-01-18_10h42.03.071,MST_task,2024.2.0,59.63491504711179,2026-01-18 10h56.02.957003 +0530,
,Scenes\188a.jpg,50,0,51,,,,,,,j,0.521222300012596,0.2073402000241913,None,,,,,,51,0,50,296.030460399983,,,,,,,,,,,,,,,,,,,,,,,,,,,,,,296.015958199976,296.030460399983,296.5161384999519,,,,,,,,,,,,,,,,296.56726999999955,,,,,,,,296.5397227999638,296.56726999999955,296.56726999999955,296.56726999999955,299.5261899999459,j,0.521222300012596,0.2073402000241913,299.52623289998155,299.5262448999565,None,,,,,,,,,,,,,,00047,001,2026-01-18_10h42.03.071,MST_task,2024.2.0,59.63491504711179,2026-01-18 10h56.02.957003 +0530,
,Scenes\165a.jpg,51,0,52,,,,,,,j,0.9626040000002831,0.19997340004192665,None,,,,,,52,0,51,299.5428812999744,,,,,,,,,,,,,,,,,,,,,,,,,,,,,,299.52631489996566,299.5428812999744,300.027838399983,,,,,,,,,,,,,,,,,,,,,,,,300.0534303999739,300.07796549994964,300.07796549994964,300.07796549994964,303.0385191999958,j,0.9626040000002831,0.19997340004192665,303.0385617999709,303.0385739999474,None,,,,,,,,,,,,,,00047,001,2026-01-18_10h42.03.071,MST_task,2024.2.0,59.63491504711179,2026-01-18 10h56.02.957003 +0530,
,Scenes\107a.jpg,52,0,53,,,,,,,j,0.6020125999930315,0.17542919999687,None,,,,,,53,0,52,303.0550478999503,,,,,,,,,,,,,,,,,,,,,,,,,,,,,,303.03864349995274,303.0550478999503,303.540697599994,,,,,,,,,,,,,,,,,,,,,,,,303.56329079996794,303.59054159995867,303.59054159995867,303.59054159995867,306.5506776999682,j,0.6020125999930315,0.17542919999687,306.5507363999495,306.55074929998955,None,,,,,,,,,,,,,,00047,001,2026-01-18_10h42.03.071,MST_task,2024.2.0,59.63491504711179,2026-01-18 10h56.02.957003 +0530,
,Scenes\144a.jpg,53,0,54,,,,,,,j,0.6096102999872528,0.1920611999812536,None,,,,,,54,0,53,306.5674578999751,,,,,,,,,,,,,,,,,,,,,,,,,,,,,,306.551090199966,306.5674578999751,307.0524484999478,,,,,,,,,,,,,,,,,,,,,,,,307.0778110999963,307.1025601999718,307.1025601999718,307.1025601999718,310.06327109999256,j,0.6096102999872528,0.1920611999812536,310.0633496999508,310.0633643999463,None,,,,,,,,,,,,,,00047,001,2026-01-18_10h42.03.071,MST_task,2024.2.0,59.63491504711179,2026-01-18 10h56.02.957003 +0530,
,Scenes\007a.jpg,54,0,55,,,,,,,j,0.9871627000393346,0.1835906999767758,None,,,,,,55,0,54,310.0797711999621,,,,,,,,,,,,,,,,,,,,,,,,,,,,,,310.0634921999881,310.0797711999621,310.56486049998784,,,,,,,,,,,,,,,,,,,,,,,,310.5870610999991,310.5979519999819,310.5979519999819,310.5979519999819,313.57596269994974,j,0.9871627000393346,0.1835906999767758,313.57601129997056,313.5760238999501,None,,,,,,,,,,,,,,00047,001,2026-01-18_10h42.03.071,MST_task,2024.2.0,59.63491504711179,2026-01-18 10h56.02.957003 +0530,
,Scenes\113a.jpg,55,0,56,,,,,,,j,0.9196159999701194,0.16776560002472252,None,,,,,,56,0,55,313.59194859996205,,,,,,,,,,,,,,,,,,,,,,,,,,,,,,313.5760959999752,313.59194859996205,314.0774569999776,,,,,,,,,,,,,,,,,,,,,,,,314.10457419999875,314.12825079995673,314.12825079995673,314.12825079995673,317.0875805999967,j,0.9196159999701194,0.16776560002472252,317.08762449998176,317.0876369999605,None,,,,,,,,,,,,,,00047,001,2026-01-18_10h42.03.071,MST_task,2024.2.0,59.63491504711179,2026-01-18 10h56.02.957003 +0530,
,Objects\134a.jpg,56,0,57,,,,,,,j,2.7218899999861605,0.1752136999857612,None,,,,,,57,0,56,317.104369699955,,,,,,,,,,,,,,,,,,,,,,,,,,,,,,317.08774069999345,317.104369699955,317.58933779998915,,,,,,,,,,,,,,,,,,,,,,,,317.6133218999603,317.62284439994255,317.62284439994255,317.62284439994255,320.6000287999632,j,2.7218899999861605,0.1752136999857612,320.60158069996396,320.6016004999983,None,,,,,,,,,,,,,,00047,001,2026-01-18_10h42.03.071,MST_task,2024.2.0,59.63491504711179,2026-01-18 10h56.02.957003 +0530,
,Objects\014a.jpg,57,0,58,,,,,,,f,0.8804513000068255,0.14423939998960122,None,,,,,,58,0,57,320.61667969997507,,,,,,,,,,,,,,,,,,,,,,,,,,,,,,320.6017199999769,320.61667969997507,321.1017609999981,,,,,,,,,,,,,,,,,,,,,,,,321.124135399994,321.1351445999462,321.1351445999462,321.1351445999462,324.11219159996836,f,0.8804513000068255,0.14423939998960122,324.11224229994696,324.1122736999532,None,,,,,,,,,,,,,,00047,001,2026-01-18_10h42.03.071,MST_task,2024.2.0,59.63491504711179,2026-01-18 10h56.02.957003 +0530,
,Objects\182a.jpg,58,0,59,,,,,,,f,1.0728073999634944,0.11956140003167093,None,,,,,,59,0,58,324.1289674999425,,,,,,,,,,,,,,,,,,,,,,,,,,,,,,324.1123880999512,324.1289674999425,324.61395949998405,,,,,,,,,,,,,,,,,,,,,,,,324.6369732999592,324.64744899998186,324.64744899998186,324.64744899998186,327.6247023999458,f,1.0728073999634944,0.11956140003167093,327.62474449997535,327.62475669995183,None,,,,,,,,,,,,,,00047,001,2026-01-18_10h42.03.071,MST_task,2024.2.0,59.63491504711179,2026-01-18 10h56.02.957003 +0530,
,Objects\179a.jpg,59,0,60,,,,,,,f,1.152702199993655,0.11931050004204735,None,,,,,,60,0,59,327.64114879997214,,,,,,,,,,,,,,,,,,,,,,,,,,,,,,327.62493339995854,327.64114879997214,328.1263553999597,,,,,,,,,,,,,,,,,,,,,,,,328.1473316999618,328.15962229995057,328.15962229995057,328.15962229995057,331.13694139994914,f,1.152702199993655,0.11931050004204735,331.1369854999939,331.13699829997495,None,,,,,,,,,,,,,,00047,001,2026-01-18_10h42.03.071,MST_task,2024.2.0,59.63491504711179,2026-01-18 10h56.02.957003 +0530,
,Objects\046a.jpg,60,0,61,,,,,,,f,2.600703899981454,0.11872430000221357,None,,,,,,61,0,60,331.15373889997136,,,,,,,,,,,,,,,,,,,,,,,,,,,,,,331.1373525999952,331.15373889997136,331.6385520999902,,,,,,,,,,,,,,,,,,,,,,,,331.6605313999462,331.67206559999613,331.67206559999613,331.67206559999613,334.64923659997294,f,2.600703899981454,0.11872430000221357,334.6492832999793,334.6492956999573,None,,,,,,,,,,,,,,00047,001,2026-01-18_10h42.03.071,MST_task,2024.2.0,59.63491504711179,2026-01-18 10h56.02.957003 +0530,
,Objects\038a.jpg,61,0,62,,,,,,,f,1.1279898999491706,0.16813380003441125,None,,,,,,62,0,61,334.6657438999973,,,,,,,,,,,,,,,,,,,,,,,,,,,,,,334.6493649999611,334.6657438999973,335.15098419995047,,,,,,,,,,,,,,,,,,,,,,,,335.17386059998535,335.18422779999673,335.18422779999673,335.18422779999673,338.161387799948,f,1.1279898999491706,0.16813380003441125,338.1614332999452,338.1614461999852,None,,,,,,,,,,,,,,00047,001,2026-01-18_10h42.03.071,MST_task,2024.2.0,59.63491504711179,2026-01-18 10h56.02.957003 +0530,
,Objects\023a.jpg,62,0,63,,,,,,,f,0.7431222000159323,0.11999829998239875,None,,,,,,63,0,62,338.1781814999995,,,,,,,,,,,,,,,,,,,,,,,,,,,,,,338.1615536999889,338.1781814999995,338.6631312999525,,,,,,,,,,,,,,,,,,,,,,,,338.686752199952,338.6969048999599,338.6969048999599,338.6969048999599,341.67379429994617,f,0.7431222000159323,0.11999829998239875,341.6738495999598,341.6738735999679,None,,,,,,,,,,,,,,00047,001,2026-01-18_10h42.03.071,MST_task,2024.2.0,59.63491504711179,2026-01-18 10h56.02.957003 +0530,
,Scenes\153a.jpg,63,0,64,,,,,,,j,0.8456722000264563,0.21544419997371733,None,,,,,,64,0,63,341.69033939996734,,,,,,,,,,,,,,,,,,,,,,,,,,,,,,341.67395369999576,341.69033939996734,342.1755472999648,,,,,,,,,,,,,,,,,,,,,,,,342.19751539995195,342.22650289995363,342.22650289995363,342.22650289995363,345.18614339997293,j,0.8456722000264563,0.21544419997371733,345.18742019997444,345.18743799999356,None,,,,,,,,,,,,,,00047,001,2026-01-18_10h42.03.071,MST_task,2024.2.0,59.63491504711179,2026-01-18 10h56.02.957003 +0530,
,Scenes\097a.jpg,64,0,65,,,,,,,None,,,f,2.3487985999672674,None,,,,65,0,64,345.2026463999646,,,,,,,,,,,,,,,,,,,,,,,,,,,,,,345.1875622999505,345.2026463999646,345.68799659999786,,,,,,,,,,,,,,,,,,,,,,,,345.7091540999827,345.7223941999837,345.7223941999837,345.7223941999837,348.69868099997984,None,,,348.69871929998044,351.07410349999554,f,348.7149583999999,348.7149583999999,2.3487985999672674,None,,,,,,,,,,00047,001,2026-01-18_10h42.03.071,MST_task,2024.2.0,59.63491504711179,2026-01-18 10h56.02.957003 +0530,
,Scenes\078a.jpg,65,0,66,,,,,,,j,2.669742700003553,0.19267679995391518,None,,,,,,66,0,65,351.0899446999538,,,,,,,,,,,,,,,,,,,,,,,,,,,,,,351.07422689994564,351.0899446999538,351.5751524999505,,,,,,,,,,,,,,,,,,,,,,,,351.59947449999163,351.6261290999828,351.6261290999828,351.6261290999828,354.58570479997434,j,2.669742700003553,0.19267679995391518,354.58579089998966,354.5858057999867,None,,,,,,,,,,,,,,00047,001,2026-01-18_10h42.03.071,MST_task,2024.2.0,59.63491504711179,2026-01-18 10h56.02.957003 +0530,
,Scenes\017a.jpg,66,0,67,,,,,,,f,1.165636399993673,0.12723110005026683,None,,,,,,67,0,66,354.60222469997825,,,,,,,,,,,,,,,,,,,,,,,,,,,,,,354.58591689995956,354.60222469997825,355.087443299999,,,,,,,,,,,,,,,,,,,,,,,,355.1144035999896,355.13872189994436,355.13872189994436,355.13872189994436,358.0980108999647,f,1.165636399993673,0.12723110005026683,358.0980540999444,358.09806669998216,None,,,,,,,,,,,,,,00047,001,2026-01-18_10h42.03.071,MST_task,2024.2.0,59.63491504711179,2026-01-18 10h56.02.957003 +0530,
,Scenes\044a.jpg,67,0,68,,,,,,,j,1.9661215000087395,0.1758908000192605,None,,,,,,68,0,67,358.11464609997347,,,,,,,,,,,,,,,,,,,,,,,,,,,,,,358.0981795999687,358.11464609997347,358.599639699969,,,,,,,,,,,,,,,,,,,,,,,,358.62332879996393,358.64988339995034,358.64988339995034,358.64988339995034,361.61027759994613,j,1.9661215000087395,0.1758908000192605,361.61032099998556,361.61035959998844,None,,,,,,,,,,,,,,00047,001,2026-01-18_10h42.03.071,MST_task,2024.2.0,59.63491504711179,2026-01-18 10h56.02.957003 +0530,
,Scenes\084a.jpg,68,0,69,,,,,,,j,0.8293139999732375,0.17662570002721623,None,,,,,,69,0,68,361.62688909994904,,,,,,,,,,,,,,,,,,,,,,,,,,,,,,361.61044599994784,361.62688909994904,362.11207389994524,,,,,,,,,,,,,,,,,,,,,,,,362.1383165999432,362.16229609999573,362.16229609999573,362.16229609999573,365.12250369996764,j,0.8293139999732375,0.17662570002721623,365.1225497999694,365.1225617999444,None,,,,,,,,,,,,,,00047,001,2026-01-18_10h42.03.071,MST_task,2024.2.0,59.63491504711179,2026-01-18 10h56.02.957003 +0530,
,Scenes\164a.jpg,69,0,70,,,,,,,j,0.7984452999662608,0.15979490004247054,None,,,,,,70,0,69,365.13936609996017,,,,,,,,,,,,,,,,,,,,,,,,,,,,,,365.1226765999454,365.13936609996017,365.6242548999726,,,,,,,,,,,,,,,,,,,,,,,,365.6476232999703,365.6743511999957,365.6743511999957,365.6743511999957,368.6348780999542,j,0.7984452999662608,0.15979490004247054,368.6349197999807,368.63493259996176,None,,,,,,,,,,,,,,00047,001,2026-01-18_10h42.03.071,MST_task,2024.2.0,59.63491504711179,2026-01-18 10h56.02.957003 +0530,
,Objects\145a.jpg,70,0,71,,,,,,,f,1.5170281999744475,0.12054670002544299,None,,,,,,71,0,70,368.6520203999826,,,,,,,,,,,,,,,,,,,,,,,,,,,,,,368.6350028999732,368.6520203999826,369.136630199966,,,,,,,,,,,,,,,,,,,,,,,,369.1638293999713,369.1874450999894,369.1874450999894,369.1874450999894,372.1470644999645,f,1.5170281999744475,0.12054670002544299,372.1489934999845,372.1490123999538,None,,,,,,,,,,,,,,00047,001,2026-01-18_10h42.03.071,MST_task,2024.2.0,59.63491504711179,2026-01-18 10h56.02.957003 +0530,
,Objects\146a.jpg,71,0,72,,,,,,,f,1.238372799998615,0.0969333000248298,None,,,,,,72,0,71,372.16386499995133,,,,,,,,,,,,,,,,,,,,,,,,,,,,,,372.1491332000005,372.16386499995133,372.6492544999928,,,,,,,,,,,,,,,,372.68150179996155,,,,,,,,372.67429659998743,372.68150179996155,372.68150179996155,372.68150179996155,375.65957969997544,f,1.238372799998615,0.0969333000248298,375.6598821999505,375.65989559999434,None,,,,,,,,,,,,,,00047,001,2026-01-18_10h42.03.071,MST_task,2024.2.0,59.63491504711179,2026-01-18 10h56.02.957003 +0530,
,Objects\137a.jpg,72,0,73,,,,,,,j,2.1336572999716736,0.14404920005472377,None,,,,,,73,0,72,375.6760254999972,,,,,,,,,,,,,,,,,,,,,,,,,,,,,,375.6599665999529,375.6760254999972,376.1614100000006,,,,,,,,,,,,,,,,,,,,,,,,376.18363189999945,376.19450439995853,376.19450439995853,376.19450439995853,379.17168879997917,j,2.1336572999716736,0.14404920005472377,379.1717318999581,379.1717442999943,None,,,,,,,,,,,,,,00047,001,2026-01-18_10h42.03.071,MST_task,2024.2.0,59.63491504711179,2026-01-18 10h56.02.957003 +0530,
,Objects\090a.jpg,73,0,74,,,,,,,f,2.420665599987842,0.10387750004883856,None,,,,,,74,0,73,379.1884561999468,,,,,,,,,,,,,,,,,,,,,,,,,,,,,,379.1718149999506,379.1884561999468,379.6734177999897,,,,,,,,,,,,,,,,,,,,,,,,379.69717599998694,379.70719099999405,379.70719099999405,379.70719099999405,382.6842125999974,f,2.420665599987842,0.10387750004883856,382.6842655999935,382.68427779997,None,,,,,,,,,,,,,,00047,001,2026-01-18_10h42.03.071,MST_task,2024.2.0,59.63491504711179,2026-01-18 10h56.02.957003 +0530,
,Objects\098a.jpg,74,0,75,,,,,,,f,1.1489008000353351,0.1606729999766685,None,,,,,,75,0,74,382.7006330000004,,,,,,,,,,,,,,,,,,,,,,,,,,,,,,382.6843481999822,382.7006330000004,383.18582739995327,,,,,,,,,,,,,,,,,,,,,,,,383.20873719995143,383.2191114999587,383.2191114999587,383.2191114999587,386.19640319998143,f,1.1489008000353351,0.1606729999766685,386.1964500999893,386.19646369997645,None,,,,,,,,,,,,,,00047,001,2026-01-18_10h42.03.071,MST_task,2024.2.0,59.63491504711179,2026-01-18 10h56.02.957003 +0530,
,Objects\071a.jpg,75,0,76,,,,,,,None,,,j,1.074245499970857,None,,,,76,0,75,386.21306719997665,,,,,,,,,,,,,,,,,,,,,,,,,,,,,,386.1965804999927,386.21306719997665,386.6983190999599,,,,,,,,,,,,,,,,,,,,,,,,386.7202197999577,386.73149729997385,386.73149729997385,386.73149729997385,389.70855789998313,None,,,389.70859849994304,390.8131082999753,j,389.7254304999951,389.7254304999951,1.074245499970857,None,,,,,,,,,,00047,001,2026-01-18_10h42.03.071,MST_task,2024.2.0,59.63491504711179,2026-01-18 10h56.02.957003 +0530,
,Objects\151a.jpg,76,0,77,,,,,,,f,1.060615600028541,0.1119874999858439,None,,,,,,77,0,76,390.82945059996564,,,,,,,,,,,,,,,,,,,,,,,,,,,,,,390.81323459994746,390.82945059996564,391.31416809995426,,,,,,,,,,,,,,,,,,,,,,,,391.3363465999719,391.3478163999971,391.3478163999971,391.3478163999971,394.32546469999943,f,1.060615600028541,0.1119874999858439,394.325519099948,394.32553399994504,None,,,,,,,,,,,,,,00047,001,2026-01-18_10h42.03.071,MST_task,2024.2.0,59.63491504711179,2026-01-18 10h56.02.957003 +0530,
,Scenes\054a.jpg,77,0,78,,,,,,,j,2.2201734999543987,0.17599870002595708,None,,,,,,78,0,77,394.34152199997334,,,,,,,,,,,,,,,,,,,,,,,,,,,,,,394.3256230999832,394.34152199997334,394.82660529995337,,,,,,,,,,,,,,,,,,,,,,,,394.8539132999722,394.87661639996804,394.87661639996804,394.87661639996804,397.83714069996495,j,2.2201734999543987,0.17599870002595708,397.83850339998025,397.8385608999524,None,,,,,,,,,,,,,,00047,001,2026-01-18_10h42.03.071,MST_task,2024.2.0,59.63491504711179,2026-01-18 10h56.02.957003 +0530,
,Scenes\006a.jpg,78,0,79,,,,,,,None,,,f,0.42598920001182705,None,,,,79,0,78,397.8538087999914,,,,,,,,,,,,,,,,,,,,,,,,,,,,,,397.83871059998637,397.8538087999914,398.33890159998555,,,,,,,,,,,,,,,,,,,,,,,,398.3611529999762,398.371544499998,398.371544499998,398.371544499998,401.34943589998875,None,,,401.34947339998325,401.80154619994573,f,401.36600369994994,401.36600369994994,0.42598920001182705,None,,,,,,,,,,00047,001,2026-01-18_10h42.03.071,MST_task,2024.2.0,59.63491504711179,2026-01-18 10h56.02.957003 +0530,
,Scenes\002a.jpg,79,0,80,,,,,,,j,0.8468495999695733,0.19182900001760572,None,,,,,,80,0,79,401.81771859998116,,,,,,,,,,,,,,,,,,,,,,,,,,,,,,401.8016396999592,401.81771859998116,402.3026787999552,,,,,,,,,,,,,,,,,,,,,,,,402.3305189999519,402.35353209997993,402.35353209997993,402.35353209997993,405.3132362999604,j,0.8468495999695733,0.19182900001760572,405.31330349994823,405.3133208999643,None,,,,,,,,,,,,,,00047,001,2026-01-18_10h42.03.071,MST_task,2024.2.0,59.63491504711179,2026-01-18 10h56.02.957003 +0530,
,Scenes\077a.jpg,80,0,81,,,,,,,j,1.0151060000061989,0.19259619998047128,None,,,,,,81,0,80,405.32999179995386,,,,,,,,,,,,,,,,,,,,,,,,,,,,,,405.313580899965,405.32999179995386,405.8149785999558,,,,,,,,,,,,,,,,,,,,,,,,405.83699349995004,405.8487024999922,405.8487024999922,405.8487024999922,408.8255480999942,j,1.0151060000061989,0.19259619998047128,408.8256018999964,408.825617399998,None,,,,,,,,,,,,,,00047,001,2026-01-18_10h42.03.071,MST_task,2024.2.0,59.63491504711179,2026-01-18 10h56.02.957003 +0530,
,Scenes\142a.jpg,81,0,82,,,,,,,j,0.7983462000265718,0.18499969999538735,None,,,,,,82,0,81,408.8422935999697,,,,,,,,,,,,,,,,,,,,,,,,,,,,,,408.8256879999535,408.8422935999697,409.3274033999769,,,,,,,,,,,,,,,,,,,,,,,,409.35287099995185,409.3774004999432,409.3774004999432,409.3774004999432,412.3379314999911,j,0.7983462000265718,0.18499969999538735,412.3379728999571,412.3379847999895,None,,,,,,,,,,,,,,00047,001,2026-01-18_10h42.03.071,MST_task,2024.2.0,59.63491504711179,2026-01-18 10h56.02.957003 +0530,
,Scenes\047a.jpg,82,0,83,,,,,,,j,1.5823652999824844,0.16725020000012591,None,,,,,,83,0,82,412.35449789999984,,,,,,,,,,,,,,,,,,,,,,,,,,,,,,412.3380900999764,412.35449789999984,412.8398237999645,,,,,,,,,,,,,,,,,,,,,,,,412.8640990999993,412.8898110999726,412.8898110999726,412.8898110999726,415.85011369996937,j,1.5823652999824844,0.16725020000012591,415.85015539999586,415.8501679999754,None,,,,,,,,,,,,,,00047,001,2026-01-18_10h42.03.071,MST_task,2024.2.0,59.63491504711179,2026-01-18 10h56.02.957003 +0530,
,Scenes\001a.jpg,83,0,84,,,,,,,f,0.956966400030069,0.14384599996265024,None,,,,,,84,0,83,415.86690479994286,,,,,,,,,,,,,,,,,,,,,,,,,,,,,,415.8502727999585,415.86690479994286,416.3518631999614,,,,,,,,,,,,,,,,,,,,,,,,416.38306359999115,416.40282489999663,416.40282489999663,416.40282489999663,419.3624493999523,f,0.956966400030069,0.14384599996265024,419.3625058999751,419.3625236999942,None,,,,,,,,,,,,,,00047,001,2026-01-18_10h42.03.071,MST_task,2024.2.0,59.63491504711179,2026-01-18 10h56.02.957003 +0530,
,Objects\125a.jpg,84,0,85,,,,,,,j,1.1578535999869928,0.16801239998312667,None,,,,,,85,0,84,419.3791974999476,,,,,,,,,,,,,,,,,,,,,,,,,,,,,,419.36279879999347,419.3791974999476,419.8641828999971,,,,,,,,,,,,,,,,,,,,,,,,419.8889634999796,419.89835789997596,419.89835789997596,419.89835789997596,422.8748314999975,j,1.1578535999869928,0.16801239998312667,422.8770441999659,422.87706479994813,None,,,,,,,,,,,,,,00047,001,2026-01-18_10h42.03.071,MST_task,2024.2.0,59.63491504711179,2026-01-18 10h56.02.957003 +0530,
,Objects\144a.jpg,85,0,86,,,,,,,f,1.3016489000292495,0.18453309999313205,None,,,,,,86,0,85,422.89137289999053,,,,,,,,,,,,,,,,,,,,,,,,,,,,,,422.8771820999682,422.89137289999053,423.37681099999463,,,,,,,,,,,,,,,,423.4098604999599,,,,,,,,423.400053499965,423.4098604999599,423.4098604999599,423.4098604999599,426.38731649995316,f,1.3016489000292495,0.18453309999313205,426.3873624999542,426.38737479998963,None,,,,,,,,,,,,,,00047,001,2026-01-18_10h42.03.071,MST_task,2024.2.0,59.63491504711179,2026-01-18 10h56.02.957003 +0530,
,Objects\042a.jpg,86,0,87,,,,,,,j,2.3011785999988206,0.168915799993556,None,,,,,,87,0,86,426.40368299995316,,,,,,,,,,,,,,,,,,,,,,,,,,,,,,426.3874987999443,426.40368299995316,426.8888862999738,,,,,,,,,,,,,,,,,,,,,,,,426.91173019999405,426.92245129996445,426.92245129996445,426.92245129996445,429.89929559995653,j,2.3011785999988206,0.168915799993556,429.89935139997397,429.89936389995273,None,,,,,,,,,,,,,,00047,001,2026-01-18_10h42.03.071,MST_task,2024.2.0,59.63491504711179,2026-01-18 10h56.02.957003 +0530,
,Objects\029a.jpg,87,0,88,,,,,,,f,0.9811471000430174,0.13746379996882752,None,,,,,,88,0,87,429.91608219995396,,,,,,,,,,,,,,,,,,,,,,,,,,,,,,429.8994335999596,429.91608219995396,430.401040799974,,,,,,,,,,,,,,,,,,,,,,,,430.4253630999592,430.43457759998273,430.43457759998273,430.43457759998273,433.4117390999454,f,0.9811471000430174,0.13746379996882752,433.41218559996923,433.41224089998286,None,,,,,,,,,,,,,,00047,001,2026-01-18_10h42.03.071,MST_task,2024.2.0,59.63491504711179,2026-01-18 10h56.02.957003 +0530,
,Objects\056a.jpg,88,0,89,,,,,,,f,1.3093011999735609,0.15332929999567568,None,,,,,,89,0,88,433.42826689995127,,,,,,,,,,,,,,,,,,,,,,,,,,,,,,433.4123820999521,433.42826689995127,433.9151865999447,,,,,,,,,,,,,,,,,,,,,,,,433.938695299963,433.94656899996335,433.94656899996335,433.94656899996335,436.92389969999203,f,1.3093011999735609,0.15332929999567568,436.9239423999679,436.923955199949,None,,,,,,,,,,,,,,00047,001,2026-01-18_10h42.03.071,MST_task,2024.2.0,59.63491504711179,2026-01-18 10h56.02.957003 +0530,
,Objects\017a.jpg,89,0,90,,,,,,,f,1.7582213999703526,0.15806870005326346,None,,,,,,90,0,89,436.940700999985,,,,,,,,,,,,,,,,,,,,,,,,,,,,,,436.9240275999764,436.940700999985,437.4258363999543,,,,,,,,,,,,,,,,,,,,,,,,437.4475822999957,437.4591734999558,437.4591734999558,437.4591734999558,440.43635219999123,f,1.7582213999703526,0.15806870005326346,440.43640779994894,440.43641939997906,None,,,,,,,,,,,,,,00047,001,2026-01-18_10h42.03.071,MST_task,2024.2.0,59.63491504711179,2026-01-18 10h56.02.957003 +0530,
,Objects\188a.jpg,90,0,91,,,,,,,f,0.8121241999906488,0.15247910004109144,None,,,,,,91,0,90,440.45299629995134,,,,,,,,,,,,,,,,,,,,,,,,,,,,,,440.43648899998516,440.45299629995134,440.93797979998635,,,,,,,,,,,,,,,,,,,,,,,,440.9602952999994,440.97147789999144,440.97147789999144,440.97147789999144,443.94863959995564,f,0.8121241999906488,0.15247910004109144,443.94885409995914,443.94886749994475,None,,,,,,,,,,,,,,00047,001,2026-01-18_10h42.03.071,MST_task,2024.2.0,59.63491504711179,2026-01-18 10h56.02.957003 +0530,
,Scenes\120a.jpg,91,0,92,,,,,,,j,0.7470581000088714,0.17699219996575266,None,,,,,,92,0,91,443.9651732999482,,,,,,,,,,,,,,,,,,,,,,,,,,,,,,443.94898269994883,443.9651732999482,444.4503863999853,,,,,,,,,,,,,,,,,,,,,,,,444.4839130999753,444.50125649996335,444.50125649996335,444.50125649996335,447.46104499994544,j,0.7470581000088714,0.17699219996575266,447.462836599967,447.46285319997696,None,,,,,,,,,,,,,,00047,001,2026-01-18_10h42.03.071,MST_task,2024.2.0,59.63491504711179,2026-01-18 10h56.02.957003 +0530,
,Scenes\128a.jpg,92,0,93,,,,,,,j,0.6992431000107899,0.17671289999270812,None,,,,,,93,0,92,447.47748759994283,,,,,,,,,,,,,,,,,,,,,,,,,,,,,,447.4629650999559,447.47748759994283,447.9629480000003,,,,,,,,,,,,,,,,,,,,,,,,447.9913610999938,448.01353429997107,448.01353429997107,448.01353429997107,450.9731167999562,j,0.6992431000107899,0.17671289999270812,450.9731622999534,450.97317489999114,None,,,,,,,,,,,,,,00047,001,2026-01-18_10h42.03.071,MST_task,2024.2.0,59.63491504711179,2026-01-18 10h56.02.957003 +0530,
,Scenes\072a.jpg,93,0,94,,,,,,,j,0.7544313999824226,0.17697179998503998,None,,,,,,94,0,93,450.9898940999992,,,,,,,,,,,,,,,,,,,,,,,,,,,,,,450.97328019997803,450.9898940999992,451.4748990999651,,,,,,,,,,,,,,,,,,,,,,,,451.50152559997514,451.52500029996736,451.52500029996736,451.52500029996736,454.4856344999862,j,0.7544313999824226,0.17697179998503998,454.4856897999998,454.4857019999763,None,,,,,,,,,,,,,,00047,001,2026-01-18_10h42.03.071,MST_task,2024.2.0,59.63491504711179,2026-01-18 10h56.02.957003 +0530,
,Scenes\132a.jpg,94,0,95,,,,,,,f,1.3234937999513932,0.17582530004438013,None,,,,,,95,0,94,454.50224069994874,,,,,,,,,,,,,,,,,,,,,,,,,,,,,,454.4858194999979,454.50224069994874,454.9874623999931,,,,,,,,,,,,,,,,,,,,,,,,455.00881989998743,455.02061359997606,455.02061359997606,455.02061359997606,457.9978879999835,f,1.3234937999513932,0.17582530004438013,457.99793499999214,457.9979479999747,None,,,,,,,,,,,,,,00047,001,2026-01-18_10h42.03.071,MST_task,2024.2.0,59.63491504711179,2026-01-18 10h56.02.957003 +0530,
,Scenes\074a.jpg,95,0,96,,,,,,,j,1.1148193000117317,0.1604149999911897,None,,,,,,96,0,95,458.01461559999734,,,,,,,,,,,,,,,,,,,,,,,,,,,,,,457.9984235999873,458.01461559999734,458.4994635999901,,,,,,,,,,,,,,,,,,,,,,,,458.5225195999956,458.54959069995675,458.54959069995675,458.54959069995675,461.51021099998616,j,1.1148193000117317,0.1604149999911897,461.51025319995824,461.51026539999293,None,,,,,,,,,,,,,,00047,001,2026-01-18_10h42.03.071,MST_task,2024.2.0,59.63491504711179,2026-01-18 10h56.02.957003 +0530,
,Scenes\042a.jpg,96,0,97,,,,,,,j,1.0987704999861307,0.19347260001813993,None,,,,,,97,0,96,461.5266691999859,,,,,,,,,,,,,,,,,,,,,,,,,,,,,,461.51037009997526,461.5266691999859,462.0119073999813,,,,,,,,,,,,,,,,,,,,,,,,462.03483499999857,462.0447515999549,462.0447515999549,462.0447515999549,465.02254299999913,j,1.0987704999861307,0.19347260001813993,465.02258429996436,465.022596099996,None,,,,,,,,,,,,,,00047,001,2026-01-18_10h42.03.071,MST_task,2024.2.0,59.63491504711179,2026-01-18 10h56.02.957003 +0530,
,Scenes\027a.jpg,97,0,98,,,,,,,f,0.8886820999905467,0.1441732000093907,None,,,,,,98,0,97,465.0389736999641,,,,,,,,,,,,,,,,,,,,,,,,,,,,,,465.0226674999576,465.0389736999641,465.5242097999435,,,,,,,,,,,,,,,,,,,,,,,,465.5463991999859,465.57528949994594,465.57528949994594,465.57528949994594,468.53459599998314,f,0.8886820999905467,0.1441732000093907,468.5346379999537,468.5346496999846,None,,,,,,,,,,,,,,00047,001,2026-01-18_10h42.03.071,MST_task,2024.2.0,59.63491504711179,2026-01-18 10h56.02.957003 +0530,
,Objects\168a.jpg,98,0,99,,,,,,,f,1.5202826000167988,0.15309500001603737,None,,,,,,99,0,98,468.55151049996493,,,,,,,,,,,,,,,,,,,,,,,,,,,,,,468.53471959999297,468.55151049996493,469.03641529998276,,,,,,,,,,,,,,,,,,,,,,,,469.0635503999656,469.0874214999494,469.0874214999494,469.0874214999494,472.0470276999986,f,1.5202826000167988,0.15309500001603737,472.0484259999939,472.04915009997785,None,,,,,,,,,,,,,,00047,001,2026-01-18_10h42.03.071,MST_task,2024.2.0,59.63491504711179,2026-01-18 10h56.02.957003 +0530,
,Objects\129a.jpg,99,0,100,,,,,,,f,0.8582414999837056,0.1355386000359431,None,,,,,,100,0,99,472.06357049994403,,,,,,,,,,,,,,,,,,,,,,,,,,,,,,472.04926419997355,472.06357049994403,472.54904529999476,,,,,,,,,,,,,,,,472.58204819995444,,,,,,,,472.5704428999452,472.58204819995444,472.58204819995444,472.58204819995444,475.5594712999882,f,0.8582414999837056,0.1355386000359431,475.5595137999626,475.5595259999973,None,,,,,,,,,,,,,,00047,001,2026-01-18_10h42.03.071,MST_task,2024.2.0,59.63491504711179,2026-01-18 10h56.02.957003 +0530,
,Objects\113a.jpg,100,0,101,,,,,,,j,2.8094033999950625,None,None,,,,,,101,0,100,475.5760714999633,,,,,,,,,,,,,,,,,,,,,,,,,,,,,,475.55963239999255,475.5760714999633,476.0611403999501,,,,,,,,,,,,,,,,,,,,,,,,476.0837845999631,476.0943594999844,476.0943594999844,476.0943594999844,479.07154779997654,j,2.8094033999950625,None,479.07159639999736,479.0716096999822,None,,,,,,,,,,,,,,00047,001,2026-01-18_10h42.03.071,MST_task,2024.2.0,59.63491504711179,2026-01-18 10h56.02.957003 +0530,
,Objects\153a.jpg,101,0,102,,,,,,,f,1.0736815999844112,0.14321050001308322,None,,,,,,102,0,101,479.0883019999601,,,,,,,,,,,,,,,,,,,,,,,,,,,,,,479.0716821999522,479.0883019999601,479.57331459998386,,,,,,,,,,,,,,,,,,,,,,,,479.59513719996903,479.6067685999442,479.6067685999442,479.6067685999442,482.5842381999828,f,1.0736815999844112,0.14321050001308322,482.58428179996554,482.58429389999947,None,,,,,,,,,,,,,,00047,001,2026-01-18_10h42.03.071,MST_task,2024.2.0,59.63491504711179,2026-01-18 10h56.02.957003 +0530,
,Objects\180a.jpg,102,0,103,,,,,,,f,1.664357099973131,0.1454278000164777,None,,,,,,103,0,102,482.6004672999843,,,,,,,,,,,,,,,,,,,,,,,,,,,,,,482.58436399995117,482.6004672999843,483.0856696999981,,,,,,,,,,,,,,,,,,,,,,,,483.1088081999915,483.1190678999992,483.1190678999992,483.1190678999992,486.0961749999551,f,1.664357099973131,0.1454278000164777,486.0962210999569,486.0962345999433,None,,,,,,,,,,,,,,00047,001,2026-01-18_10h42.03.071,MST_task,2024.2.0,59.63491504711179,2026-01-18 10h56.02.957003 +0530,
,Objects\170a.jpg,103,0,104,,,,,,,None,,,f,0.006760900025255978,None,,,,104,0,103,486.11288599995896,,,,,,,,,,,,,,,,,,,,,,,,,,,,,,486.096319699951,486.11288599995896,486.5978789999499,,,,,,,,,,,,,,,,,,,,,,,,486.62073169997893,486.6314535999554,486.6314535999554,486.6314535999554,489.60852519999025,None,,,489.6085863999906,489.64258629997494,f,489.6250671999878,489.6250671999878,0.006760900025255978,None,,,,,,,,,,00047,001,2026-01-18_10h42.03.071,MST_task,2024.2.0,59.63491504711179,2026-01-18 10h56.02.957003 +0530,
,Objects\083a.jpg,104,0,105,,,,,,,f,0.743124499975238,0.13591700000688434,None,,,,,,105,0,104,489.6585213999497,,,,,,,,,,,,,,,,,,,,,,,,,,,,,,489.64266779995523,489.6585213999497,490.1437402999727,,,,,,,,,,,,,,,,,,,,,,,,490.1677332999534,490.1770073999651,490.1770073999651,490.1770073999651,493.1543385999976,f,0.743124499975238,0.13591700000688434,493.154383999994,493.15439739997964,None,,,,,,,,,,,,,,00047,001,2026-01-18_10h42.03.071,MST_task,2024.2.0,59.63491504711179,2026-01-18 10h56.02.957003 +0530,
,Scenes\130a.jpg,105,0,106,,,,,,,j,0.8219248999957927,0.15068630001042038,None,,,,,,106,0,105,493.17081250000047,,,,,,,,,,,,,,,,,,,,,,,,,,,,,,493.1545159999514,493.17081250000047,493.6560880999896,,,,,,,,,,,,,,,,,,,,,,,,493.6904220999568,493.70693819998996,493.70693819998996,493.70693819998996,496.66646649996983,j,0.8219248999957927,0.15068630001042038,496.66804499999853,496.6680625999579,None,,,,,,,,,,,,,,00047,001,2026-01-18_10h42.03.071,MST_task,2024.2.0,59.63491504711179,2026-01-18 10h56.02.957003 +0530,
,Scenes\173a.jpg,106,0,107,,,,,,,j,0.580766599974595,0.1765298999962397,None,,,,,,107,0,106,496.68325259996345,,,,,,,,,,,,,,,,,,,,,,,,,,,,,,496.6681339999777,496.68325259996345,497.16831559996353,,,,,,,,,,,,,,,,,,,,,,,,497.19422829995165,497.21931959997164,497.21931959997164,497.21931959997164,500.178824899951,j,0.580766599974595,0.1765298999962397,500.1788716999581,500.1788841999951,None,,,,,,,,,,,,,,00047,001,2026-01-18_10h42.03.071,MST_task,2024.2.0,59.63491504711179,2026-01-18 10h56.02.957003 +0530,
,Scenes\106a.jpg,107,0,108,,,,,,,j,1.2930885000387207,0.18421460001263767,None,,,,,,108,0,107,500.19553409999935,,,,,,,,,,,,,,,,,,,,,,,,,,,,,,500.17945759999566,500.19553409999935,500.6805115999887,,,,,,,,,,,,,,,,,,,,,,,,500.7054535999778,500.7306339999777,500.7306339999777,500.7306339999777,503.6913309999509,j,1.2930885000387207,0.18421460001263767,503.691373699985,503.691386099963,None,,,,,,,,,,,,,,00047,001,2026-01-18_10h42.03.071,MST_task,2024.2.0,59.63491504711179,2026-01-18 10h56.02.957003 +0530,
,Scenes\177a.jpg,108,0,109,,,,,,,j,1.0293748000403866,0.1673947999952361,None,,,,,,109,0,108,503.70772009994835,,,,,,,,,,,,,,,,,,,,,,,,,,,,,,503.69150749995606,503.70772009994835,504.1935319999466,,,,,,,,,,,,,,,,,,,,,,,,504.21694139996544,504.2430357999983,504.2430357999983,504.2430357999983,507.20352589996764,j,1.0293748000403866,0.1673947999952361,507.20358179998584,507.203864399984,None,,,,,,,,,,,,,,00047,001,2026-01-18_10h42.03.071,MST_task,2024.2.0,59.63491504711179,2026-01-18 10h56.02.957003 +0530,
,Scenes\035a.jpg,109,0,110,,,,,,,j,1.620916899992153,0.16111470002215356,None,,,,,,110,0,109,507.22014539997326,,,,,,,,,,,,,,,,,,,,,,,,,,,,,,507.20394059998216,507.22014539997326,507.7052376999636,,,,,,,,,,,,,,,,,,,,,,,,507.7309275000007,507.7553454999579,507.7553454999579,507.7553454999579,510.7157031999668,j,1.620916899992153,0.16111470002215356,510.7157468999503,510.71575949998805,None,,,,,,,,,,,,,,00047,001,2026-01-18_10h42.03.071,MST_task,2024.2.0,59.63491504711179,2026-01-18 10h56.02.957003 +0530,
,Scenes\124a.jpg,110,0,111,,,,,,,None,,,f,0.10008070000912994,None,,,,111,0,110,510.7323281999561,,,,,,,,,,,,,,,,,,,,,,,,,,,,,,510.71609479998006,510.7323281999561,511.2174141999567,,,,,,,,,,,,,,,,,,,,,,,,511.2398687999812,511.2499163999455,511.2499163999455,511.2499163999455,514.2280136999907,None,,,514.2280537999468,514.3456698999507,f,514.2447518999688,514.2447518999688,0.10008070000912994,None,,,,,,,,,,00047,001,2026-01-18_10h42.03.071,MST_task,2024.2.0,59.63491504711179,2026-01-18 10h56.02.957003 +0530,
,Scenes\134a.jpg,111,0,112,,,,,,,j,1.4545228000497445,0.19091469998238608,None,,,,,,112,0,111,514.3619215999497,,,,,,,,,,,,,,,,,,,,,,,,,,,,,,514.3458014999633,514.3619215999497,514.8471140999463,,,,,,,,,,,,,,,,,,,,,,,,514.8716058999998,514.8983601999935,514.8983601999935,514.8983601999935,517.8573761999724,j,1.4545228000497445,0.19091469998238608,517.857417399995,517.8574302999768,None,,,,,,,,,,,,,,00047,001,2026-01-18_10h42.03.071,MST_task,2024.2.0,59.63491504711179,2026-01-18 10h56.02.957003 +0530,
,Objects\073a.jpg,112,0,113,,,,,,,f,1.3910951999714598,0.1673323000431992,None,,,,,,113,0,112,517.874320599949,,,,,,,,,,,,,,,,,,,,,,,,,,,,,,517.8575708999997,517.874320599949,518.3598346999497,,,,,,,,,,,,,,,,,,,,,,,,518.3835944999591,518.3938313999679,518.3938313999679,518.3938313999679,521.3698009999935,f,1.3910951999714598,0.1673323000431992,521.37119049998,521.37120949995,None,,,,,,,,,,,,,,00047,001,2026-01-18_10h42.03.071,MST_task,2024.2.0,59.63491504711179,2026-01-18 10h56.02.957003 +0530,
,Objects\105a.jpg,113,0,114,,,,,,,f,0.9032209999859333,0.17622530000517145,None,,,,,,114,0,113,521.3866004999727,,,,,,,,,,,,,,,,,,,,,,,,,,,,,,521.3713250999572,521.3866004999727,521.8714076999458,,,,,,,,,,,,,,,,,,,,,,,,521.8946464999462,521.9050420999993,521.9050420999993,521.9050420999993,524.8820328999427,f,0.9032209999859333,0.17622530000517145,524.8820763999829,524.8820896999678,None,,,,,,,,,,,,,,00047,001,2026-01-18_10h42.03.071,MST_task,2024.2.0,59.63491504711179,2026-01-18 10h56.02.957003 +0530,
,Objects\034a.jpg,114,0,115,,,,,,,f,0.9514137000078335,0.1588874000008218,None,,,,,,115,0,114,524.8985809999867,,,,,,,,,,,,,,,,,,,,,,,,,,,,,,524.8822135999799,524.8985809999867,525.3840384999639,,,,,,,,,,,,,,,,,,,,,,,,525.4060315999668,525.4172527999617,525.4172527999617,525.4172527999617,528.3952201999491,f,0.9514137000078335,0.1588874000008218,528.3952624999802,528.3952746999566,None,,,,,,,,,,,,,,00047,001,2026-01-18_10h42.03.071,MST_task,2024.2.0,59.63491504711179,2026-01-18 10h56.02.957003 +0530,
,Objects\040a.jpg,115,0,116,,,,,,,f,2.4146941999788396,0.1443048000219278,None,,,,,,116,0,115,528.4115578999626,,,,,,,,,,,,,,,,,,,,,,,,,,,,,,528.3953983999672,528.4115578999626,528.8961724999826,,,,,,,,,,,,,,,,,,,,,,,,528.9189327999484,528.9295519999578,528.9295519999578,528.9295519999578,531.9069381999434,f,2.4146941999788396,0.1443048000219278,531.9069928999525,531.907009699964,None,,,,,,,,,,,,,,00047,001,2026-01-18_10h42.03.071,MST_task,2024.2.0,59.63491504711179,2026-01-18 10h56.02.957003 +0530,
,Objects\013a.jpg,116,0,117,,,,,,,j,2.422437900037039,0.1681463000131771,None,,,,,,117,0,116,531.9231736999936,,,,,,,,,,,,,,,,,,,,,,,,,,,,,,531.907085099956,531.9231736999936,532.4083961999859,,,,,,,,,,,,,,,,,,,,,,,,532.4301479999558,532.4416580999969,532.4416580999969,532.4416580999969,535.418821099971,j,2.422437900037039,0.1681463000131771,535.4188623999944,535.4188741999678,None,,,,,,,,,,,,,,00047,001,2026-01-18_10h42.03.071,MST_task,2024.2.0,59.63491504711179,2026-01-18 10h56.02.957003 +0530,
,Objects\041a.jpg,117,0,118,,,,,,,j,1.3899375000037253,0.16097750002518296,None,,,,,,118,0,117,535.4356094999821,,,,,,,,,,,,,,,,,,,,,,,,,,,,,,535.4189560999512,535.4356094999821,535.9205908000004,,,,,,,,,,,,,,,,,,,,,,,,535.9422579999664,535.9542240999872,535.9542240999872,535.9542240999872,538.9312211999786,j,1.3899375000037253,0.16097750002518296,538.93127619999,538.9312882999657,None,,,,,,,,,,,,,,00047,001,2026-01-18_10h42.03.071,MST_task,2024.2.0,59.63491504711179,2026-01-18 10h56.02.957003 +0530,
,Objects\147a.jpg,118,0,119,,,,,,,f,1.1496525999973528,0.16862110001966357,None,,,,,,119,0,118,538.9477670999477,,,,,,,,,,,,,,,,,,,,,,,,,,,,,,538.9315423999797,538.9477670999477,539.4330258999835,,,,,,,,,,,,,,,,,,,,,,,,539.4561861999682,539.4662825999549,539.4662825999549,539.4662825999549,542.4434127999702,f,1.1496525999973528,0.16862110001966357,542.4434560999507,542.4434684999869,None,,,,,,,,,,,,,,00047,001,2026-01-18_10h42.03.071,MST_task,2024.2.0,59.63491504711179,2026-01-18 10h56.02.957003 +0530,
,Scenes\085a.jpg,119,0,120,,,,,,,j,1.4133768000174314,0.14342819998273626,None,,,,,,120,0,119,542.4602002999745,,,,,,,,,,,,,,,,,,,,,,,,,,,,,,542.4435673999833,542.4602002999745,542.9452285000007,,,,,,,,,,,,,,,,,,,,,,,,542.9718231000006,542.9954146999517,542.9954146999517,542.9954146999517,545.9558365999837,j,1.4133768000174314,0.14342819998273626,545.9571732999757,545.9571922999457,None,,,,,,,,,,,,,,00047,001,2026-01-18_10h42.03.071,MST_task,2024.2.0,59.63491504711179,2026-01-18 10h56.02.957003 +0530,
,Scenes\160a.jpg,120,0,121,,,,,,,j,0.7157900999882258,0.16183019999880344,None,,,,,,121,0,120,545.9723750999547,,,,,,,,,,,,,,,,,,,,,,,,,,,,,,545.9573043999844,545.9723750999547,546.4576712999842,,,,,,,,,,,,,,,,,,,,,,,,546.4807840999565,546.5077235999634,546.5077235999634,546.5077235999634,549.4681742999819,j,0.7157900999882258,0.16183019999880344,549.4682154999464,549.4682516999892,None,,,,,,,,,,,,,,00047,001,2026-01-18_10h42.03.071,MST_task,2024.2.0,59.63491504711179,2026-01-18 10h56.02.957003 +0530,
,Scenes\028a.jpg,121,0,122,,,,,,,j,0.7417771999607794,0.16691270004957914,None,,,,,,122,0,121,549.4849772999878,,,,,,,,,,,,,,,,,,,,,,,,,,,,,,549.468378999969,549.4849772999878,549.9702962999581,,,,,,,,,,,,,,,,,,,,,,,,549.9877343999688,550.0034060999751,550.0034060999751,550.0034060999751,552.9804550999543,j,0.7417771999607794,0.16691270004957914,552.980780199985,552.9807941999752,None,,,,,,,,,,,,,,00047,001,2026-01-18_10h42.03.071,MST_task,2024.2.0,59.63491504711179,2026-01-18 10h56.02.957003 +0530,
,Scenes\102a.jpg,122,0,123,,,,,,,f,2.23526360001415,0.1370071999845095,None,,,,,,123,0,122,552.9970017999876,,,,,,,,,,,,,,,,,,,,,,,,,,,,,,552.9809248999809,552.9970017999876,553.4822069999645,,,,,,,,,,,,,,,,,,,,,,,,553.5082754999748,553.5323093999759,553.5323093999759,553.5323093999759,556.4926921999431,f,2.23526360001415,0.1370071999845095,556.4927465999499,556.4927610999439,None,,,,,,,,,,,,,,00047,001,2026-01-18_10h42.03.071,MST_task,2024.2.0,59.63491504711179,2026-01-18 10h56.02.957003 +0530,
,Scenes\112a.jpg,123,0,124,,,,,,,j,1.5705696999793872,0.17610029998468235,None,,,,,,124,0,123,556.5093917999766,,,,,,,,,,,,,,,,,,,,,,,,,,,,,,556.4928712999681,556.5093917999766,556.994903099956,,,,,,,,,,,,,,,,,,,,,,,,557.0206404999481,557.0453258999623,557.0453258999623,557.0453258999623,560.0051030999748,j,1.5705696999793872,0.17610029998468235,560.0051476999652,560.0051606999477,None,,,,,,,,,,,,,,00047,001,2026-01-18_10h42.03.071,MST_task,2024.2.0,59.63491504711179,2026-01-18 10h56.02.957003 +0530,
,Scenes\095a.jpg,124,0,125,,,,,,,f,1.1239302000030875,0.13617869996232912,None,,,,,,125,0,124,560.0215840999736,,,,,,,,,,,,,,,,,,,,,,,,,,,,,,560.005231499963,560.0215840999736,560.5068052999559,,,,,,,,,,,,,,,,,,,,,,,,560.5303226999822,560.5569183999905,560.5569183999905,560.5569183999905,563.5173552999622,f,1.1239302000030875,0.13617869996232912,563.5173990999465,563.5174112999812,None,,,,,,,,,,,,,,00047,001,2026-01-18_10h42.03.071,MST_task,2024.2.0,59.63491504711179,2026-01-18 10h56.02.957003 +0530,
,Scenes\089a.jpg,125,0,126,,,,,,,j,1.8590380999958143,0.20031280000694096,None,,,,,,126,0,125,563.5339967999607,,,,,,,,,,,,,,,,,,,,,,,,,,,,,,563.5175466999644,563.5339967999607,564.0189681999618,,,,,,,,,,,,,,,,,,,,,,,,564.0458639999852,564.0690875999862,564.0690875999862,564.0690875999862,567.030102299992,j,1.8590380999958143,0.20031280000694096,567.0301450999686,567.030158199952,None,,,,,,,,,,,,,,00047,001,2026-01-18_10h42.03.071,MST_task,2024.2.0,59.63491504711179,2026-01-18 10h56.02.957003 +0530,
,Objects\148a.jpg,126,0,127,,,,,,,f,1.4672892999951728,0.1763319000019692,None,,,,,,127,0,126,567.0462041999563,,,,,,,,,,,,,,,,,,,,,,,,,,,,,,567.0302303999779,567.0462041999563,567.5315322999959,,,,,,,,,,,,,,,,,,,,,,,,567.5564756999956,567.5647194999619,567.5647194999619,567.5647194999619,570.5422362999525,f,1.4672892999951728,0.1763319000019692,570.543635799957,570.5436543999822,None,,,,,,,,,,,,,,00047,001,2026-01-18_10h42.03.071,MST_task,2024.2.0,59.63491504711179,2026-01-18 10h56.02.957003 +0530,
,Objects\157a.jpg,127,0,128,,,,,,,f,1.3543723999755457,0.15347690001362935,None,,,,,,128,0,127,570.5584853999899,,,,,,,,,,,,,,,,,,,,,,,,,,,,,,570.5437260999461,570.5584853999899,571.04392799997,,,,,,,,,,,,,,,,,,,,,,,,571.0670074999798,571.0771198999719,571.0771198999719,571.0771198999719,574.0541375999455,f,1.3543723999755457,0.15347690001362935,574.0541959999828,574.0542205999955,None,,,,,,,,,,,,,,00047,001,2026-01-18_10h42.03.071,MST_task,2024.2.0,59.63491504711179,2026-01-18 10h56.02.957003 +0530,
,Objects\135a.jpg,128,0,129,,,,,,,f,2.3227337999851443,0.13611260004108772,None,,,,,,129,0,128,574.0711933999555,,,,,,,,,,,,,,,,,,,,,,,,,,,,,,574.0545929999789,574.0711933999555,574.5558583999518,,,,,,,,,,,,,,,,,,,,,,,,574.5768857999938,574.5893693999969,574.5893693999969,574.5893693999969,577.5665078999591,f,2.3227337999851443,0.13611260004108772,577.5665618999628,577.5665740999975,None,,,,,,,,,,,,,,00047,001,2026-01-18_10h42.03.071,MST_task,2024.2.0,59.63491504711179,2026-01-18 10h56.02.957003 +0530,
,Objects\120a.jpg,129,0,130,,,,,,,f,1.2499798000208102,0.16049669997300953,None,,,,,,130,0,129,577.5830644999514,,,,,,,,,,,,,,,,,,,,,,,,,,,,,,577.5666818999453,577.5830644999514,578.0682037999504,,,,,,,,,,,,,,,,,,,,,,,,578.0910927999648,578.1018919999478,578.1018919999478,578.1018919999478,581.0788205999997,f,1.2499798000208102,0.16049669997300953,581.0790124999476,581.0790257999906,None,,,,,,,,,,,,,,00047,001,2026-01-18_10h42.03.071,MST_task,2024.2.0,59.63491504711179,2026-01-18 10h56.02.957003 +0530,
,Objects\068a.jpg,130,0,131,,,,,,,f,2.8018069000099786,0.12004219996742904,None,,,,,,131,0,130,581.0953734999639,,,,,,,,,,,,,,,,,,,,,,,,,,,,,,581.0791002999758,581.0953734999639,581.5807492999593,,,,,,,,,,,,,,,,,,,,,,,,581.6020661999937,581.6139862999553,581.6139862999553,581.6139862999553,584.5910088999663,f,2.8018069000099786,0.12004219996742904,584.5910519999452,584.5910680999514,None,,,,,,,,,,,,,,00047,001,2026-01-18_10h42.03.071,MST_task,2024.2.0,59.63491504711179,2026-01-18 10h56.02.957003 +0530,
,Objects\033a.jpg,131,0,132,,,,,,,f,1.249250299995765,0.1844713999889791,None,,,,,,132,0,131,584.6077842999948,,,,,,,,,,,,,,,,,,,,,,,,,,,,,,584.5911383999628,584.6077842999948,585.0928019999992,,,,,,,,,,,,,,,,,,,,,,,,585.1156234999653,585.1264156999532,585.1264156999532,585.1264156999532,588.1035459999694,f,1.249250299995765,0.1844713999889791,588.103591299965,588.1036039999453,None,,,,,,,,,,,,,,00047,001,2026-01-18_10h42.03.071,MST_task,2024.2.0,59.63491504711179,2026-01-18 10h56.02.957003 +0530,
,Objects\092a.jpg,132,0,133,,,,,,,f,1.842370199970901,0.1517716000089422,None,,,,,,133,0,132,588.1199523999821,,,,,,,,,,,,,,,,,,,,,,,,,,,,,,588.103676299972,588.1199523999821,588.6051714999485,,,,,,,,,,,,,,,,,,,,,,,,588.6280030999915,588.6384607999935,588.6384607999935,588.6384607999935,591.6156058999477,f,1.842370199970901,0.1517716000089422,591.6156616999651,591.6156744999462,None,,,,,,,,,,,,,,00047,001,2026-01-18_10h42.03.071,MST_task,2024.2.0,59.63491504711179,2026-01-18 10h56.02.957003 +0530,
,Scenes\162a.jpg,133,0,134,,,,,,,j,0.8430614999961108,0.166216500045266,None,,,,,,134,0,133,591.6327733999933,,,,,,,,,,,,,,,,,,,,,,,,,,,,,,591.6157862999826,591.6327733999933,592.1173617999884,,,,,,,,,,,,,,,,,,,,,,,,592.1393141999724,592.1501270999433,592.1501270999433,592.1501270999433,595.1282147999736,j,0.8430614999961108,0.166216500045266,595.1298172999523,595.1298355999752,None,,,,,,,,,,,,,,00047,001,2026-01-18_10h42.03.071,MST_task,2024.2.0,59.63491504711179,2026-01-18 10h56.02.957003 +0530,
,Scenes\094a.jpg,134,0,135,,,,,,,None,,,f,1.4386090000043623,None,,,,135,0,134,595.1445886999718,,,,,,,,,,,,,,,,,,,,,,,,,,,,,,595.129946299945,595.1445886999718,595.6298242999474,,,,,,,,,,,,,,,,595.6797818999621,,,,,,,,595.6560308999615,595.6797818999621,595.6797818999621,595.6797818999621,598.6403050999506,None,,,598.6404993999749,600.1127428999753,f,598.656872499967,598.656872499967,1.4386090000043623,None,,,,,,,,,,00047,001,2026-01-18_10h42.03.071,MST_task,2024.2.0,59.63491504711179,2026-01-18 10h56.02.957003 +0530,
,Scenes\154a.jpg,135,0,136,,,,,,,j,1.8737251000129618,0.18287299998337403,None,,,,,,136,0,135,600.1288129999884,,,,,,,,,,,,,,,,,,,,,,,,,,,,,,600.112832499959,600.1288129999884,600.6139186999644,,,,,,,,,,,,,,,,,,,,,,,,600.635601099988,600.6471295999945,600.6471295999945,600.6471295999945,603.6244836999686,j,1.8737251000129618,0.18287299998337403,603.6245393999852,603.6245525999693,None,,,,,,,,,,,,,,00047,001,2026-01-18_10h42.03.071,MST_task,2024.2.0,59.63491504711179,2026-01-18 10h56.02.957003 +0530,
,Scenes\020a.jpg,136,0,137,,,,,,,f,1.319094699982088,0.15984899998875335,None,,,,,,137,0,136,603.6409961999743,,,,,,,,,,,,,,,,,,,,,,,,,,,,,,603.6246968999621,603.6409961999743,604.1262073999969,,,,,,,,,,,,,,,,,,,,,,,,604.1585719999857,604.1770943999873,604.1770943999873,604.1770943999873,607.1366361999535,f,1.319094699982088,0.15984899998875335,607.1366873999941,607.1367000999744,None,,,,,,,,,,,,,,00047,001,2026-01-18_10h42.03.071,MST_task,2024.2.0,59.63491504711179,2026-01-18 10h56.02.957003 +0530,
,Scenes\018a.jpg,137,0,138,,,,,,,f,1.0325397999840789,0.17528299998957664,None,,,,,,138,0,137,607.1534140999429,,,,,,,,,,,,,,,,,,,,,,,,,,,,,,607.136829599971,607.1534140999429,607.6384479999542,,,,,,,,,,,,,,,,,,,,,,,,607.6593218999915,607.6717926999554,607.6717926999554,607.6717926999554,610.6489044999471,f,1.0325397999840789,0.17528299998957664,610.6489594999584,610.6489720999962,None,,,,,,,,,,,,,,00047,001,2026-01-18_10h42.03.071,MST_task,2024.2.0,59.63491504711179,2026-01-18 10h56.02.957003 +0530,
,Scenes\014a.jpg,138,0,139,,,,,,,None,,,j,0.7512908999924548,None,,,,139,0,138,610.665695499978,,,,,,,,,,,,,,,,,,,,,,,,,,,,,,610.6490425999509,610.665695499978,611.1508241999545,,,,,,,,,,,,,,,,,,,,,,,,611.1760893999599,611.1843229999649,611.1843229999649,611.1843229999649,614.1612146999687,None,,,614.1612578999484,614.9312382999924,j,614.1780014999676,614.1780014999676,0.7512908999924548,None,,,,,,,,,,00047,001,2026-01-18_10h42.03.071,MST_task,2024.2.0,59.63491504711179,2026-01-18 10h56.02.957003 +0530,
,Scenes\176a.jpg,139,0,140,,,,,,,j,0.8864176999777555,0.190392000018619,None,,,,,,140,0,139,614.9473746999865,,,,,,,,,,,,,,,,,,,,,,,,,,,,,,614.9313333999598,614.9473746999865,615.4324430999695,,,,,,,,,,,,,,,,,,,,,,,,615.4577000999707,615.4832476999727,615.4832476999727,615.4832476999727,618.4428763999604,j,0.8864176999777555,0.190392000018619,618.4429199000006,618.4429334999877,None,,,,,,,,,,,,,,00047,001,2026-01-18_10h42.03.071,MST_task,2024.2.0,59.63491504711179,2026-01-18 10h56.02.957003 +0530,
,Objects\008a.jpg,140,0,141,,,,,,,f,1.4928181999712251,0.15907620004145429,None,,,,,,141,0,140,618.4596694999491,,,,,,,,,,,,,,,,,,,,,,,,,,,,,,618.4431492999429,618.4596694999491,618.9447057999787,,,,,,,,,,,,,,,,,,,,,,,,618.9722669999464,618.9957509999513,618.9957509999513,618.9957509999513,621.9552918999689,f,1.4928181999712251,0.15907620004145429,621.9569112999598,621.9569310999941,None,,,,,,,,,,,,,,00047,001,2026-01-18_10h42.03.071,MST_task,2024.2.0,59.63491504711179,2026-01-18 10h56.02.957003 +0530,
,Objects\001a.jpg,141,0,142,,,,,,,f,0.8706609000219032,0.14321740000741556,None,,,,,,142,0,141,621.9719632999622,,,,,,,,,,,,,,,,,,,,,,,,,,,,,,621.9570428999723,621.9719632999622,622.4570589999785,,,,,,,,,,,,,,,,,,,,,,,,622.4817846999504,622.4903605,622.4903605,622.4903605,625.4674623999745,f,0.8706609000219032,0.14321740000741556,625.4675162999774,625.46752929996,None,,,,,,,,,,,,,,00047,001,2026-01-18_10h42.03.071,MST_task,2024.2.0,59.63491504711179,2026-01-18 10h56.02.957003 +0530,
,Objects\053a.jpg,142,0,143,,,,,,,f,1.084652699995786,0.16900920000625774,None,,,,,,143,0,142,625.4845510999439,,,,,,,,,,,,,,,,,,,,,,,,,,,,,,625.4676007999806,625.4845510999439,625.9692159999977,,,,,,,,,,,,,,,,,,,,,,,,625.9921216999646,626.0027410999755,626.0027410999755,626.0027410999755,628.9800689999829,f,1.084652699995786,0.16900920000625774,628.9801259999513,628.9801386999898,None,,,,,,,,,,,,,,00047,001,2026-01-18_10h42.03.071,MST_task,2024.2.0,59.63491504711179,2026-01-18 10h56.02.957003 +0530,
,Objects\095a.jpg,143,0,144,,,,,,,f,0.9167920000036247,0.1528262000065297,None,,,,,,144,0,143,628.9964460999472,,,,,,,,,,,,,,,,,,,,,,,,,,,,,,628.9802453999873,628.9964460999472,629.4816308999434,,,,,,,,,,,,,,,,,,,,,,,,629.5040446999483,629.5150284999982,629.5150284999982,629.5150284999982,632.4920852999785,f,0.9167920000036247,0.1528262000065297,632.4921424999484,632.4921796999988,None,,,,,,,,,,,,,,00047,001,2026-01-18_10h42.03.071,MST_task,2024.2.0,59.63491504711179,2026-01-18 10h56.02.957003 +0530,
,Objects\189a.jpg,144,0,145,,,,,,,j,2.220776100002695,0.19190010003512725,None,,,,,,145,0,144,632.50886609999,,,,,,,,,,,,,,,,,,,,,,,,,,,,,,632.4925793999573,632.50886609999,632.9938450999907,,,,,,,,,,,,,,,,,,,,,,,,633.0178687999723,633.0274587999447,633.0274587999447,633.0274587999447,636.004784299992,j,2.220776100002695,0.19190010003512725,636.0048258999595,636.004837799992,None,,,,,,,,,,,,,,00047,001,2026-01-18_10h42.03.071,MST_task,2024.2.0,59.63491504711179,2026-01-18 10h56.02.957003 +0530,
,Objects\099a.jpg,145,0,146,,,,,,,j,2.0036101000150666,0.16094959998736158,None,,,,,,146,0,145,636.0210345999803,,,,,,,,,,,,,,,,,,,,,,,,,,,,,,636.004958799982,636.0210345999803,636.5062334999675,,,,,,,,,,,,,,,,,,,,,,,,636.5298382999608,636.5400923999841,636.5400923999841,636.5400923999841,639.5167301999754,j,2.0036101000150666,0.16094959998736158,639.5167789999978,639.5167921999819,None,,,,,,,,,,,,,,00047,001,2026-01-18_10h42.03.071,MST_task,2024.2.0,59.63491504711179,2026-01-18 10h56.02.957003 +0530,
,Objects\027a.jpg,146,0,147,,,,,,,j,2.2205784999532625,0.15136360004544258,None,,,,,,147,0,146,639.5334631999722,,,,,,,,,,,,,,,,,,,,,,,,,,,,,,639.5168702999945,639.5334631999722,640.0184217999922,,,,,,,,,,,,,,,,,,,,,,,,640.0414623999968,640.0519279,640.0519279,640.0519279,643.0290816999623,j,2.2205784999532625,0.15136360004544258,643.0292789999512,643.0292946999543,None,,,,,,,,,,,,,,00047,001,2026-01-18_10h42.03.071,MST_task,2024.2.0,59.63491504711179,2026-01-18 10h56.02.957003 +0530,
,Scenes\100a.jpg,147,0,148,,,,,,,j,2.3468197000329383,0.1371015000040643,None,,,,,,148,0,147,643.0456430999911,,,,,,,,,,,,,,,,,,,,,,,,,,,,,,643.0293659999734,643.0456430999911,643.5308461999521,,,,,,,,,,,,,,,,,,,,,,,,643.555557899992,643.5808382999967,643.5808382999967,643.5808382999967,646.5419853999629,j,2.3468197000329383,0.1371015000040643,646.5433874999871,646.543406999961,None,,,,,,,,,,,,,,00047,001,2026-01-18_10h42.03.071,MST_task,2024.2.0,59.63491504711179,2026-01-18 10h56.02.957003 +0530,
,Scenes\137a.jpg,148,0,149,,,,,,,j,1.0441452999948524,0.12715870002284646,None,,,,,,149,0,148,646.5580482999794,,,,,,,,,,,,,,,,,,,,,,,,,,,,,,646.5435475999839,646.5580482999794,647.0435115,,,,,,,,,,,,,,,,,,,,,,,,647.0644557999913,647.0766171999858,647.0766171999858,647.0766171999858,650.0535780999926,j,1.0441452999948524,0.12715870002284646,650.0536566999508,650.0536722999532,None,,,,,,,,,,,,,,00047,001,2026-01-18_10h42.03.071,MST_task,2024.2.0,59.63491504711179,2026-01-18 10h56.02.957003 +0530,
,Scenes\088a.jpg,149,0,150,,,,,,,j,0.7859268999891356,0.13627789996098727,None,,,,,,150,0,149,650.0703587999451,,,,,,,,,,,,,,,,,,,,,,,,,,,,,,650.0538200999727,650.0703587999451,650.5553392999573,,,,,,,,,,,,,,,,,,,,,,,,650.5865851999843,650.6063789999462,650.6063789999462,650.6063789999462,653.5659829999786,j,0.7859268999891356,0.13627789996098727,653.5661935999524,653.5662069999962,None,,,,,,,,,,,,,,00047,001,2026-01-18_10h42.03.071,MST_task,2024.2.0,59.63491504711179,2026-01-18 10h56.02.957003 +0530,
,Scenes\179a.jpg,150,0,151,,,,,,,j,0.9633357999846339,0.16783130000112578,None,,,,,,151,0,150,653.5825280999998,,,,,,,,,,,,,,,,,,,,,,,,,,,,,,653.566319399979,653.5825280999998,654.0679256999865,,,,,,,,,,,,,,,,,,,,,,,,654.0891709999996,654.1009720999864,654.1009720999864,654.1009720999864,657.0786201999872,j,0.9633357999846339,0.16783130000112578,657.0786708999658,657.0786840999499,None,,,,,,,,,,,,,,00047,001,2026-01-18_10h42.03.071,MST_task,2024.2.0,59.63491504711179,2026-01-18 10h56.02.957003 +0530,
,Scenes\082a.jpg,151,0,152,,,,,,,f,2.312912299996242,0.13533509999979287,None,,,,,,152,0,151,657.0949760999647,,,,,,,,,,,,,,,,,,,,,,,,,,,,,,657.0787616999587,657.0949760999647,657.5800424999907,,,,,,,,,,,,,,,,,,,,,,,,657.6070099999779,657.6311336999643,657.6311336999643,657.6311336999643,660.5904694999917,f,2.312912299996242,0.13533509999979287,660.5905120999669,660.5905250999494,None,,,,,,,,,,,,,,00047,001,2026-01-18_10h42.03.071,MST_task,2024.2.0,59.63491504711179,2026-01-18 10h56.02.957003 +0530,
,Scenes\040a.jpg,152,0,153,,,,,,,f,1.0825808999943547,0.17606050003087148,None,,,,,,153,0,152,660.6072559999884,,,,,,,,,,,,,,,,,,,,,,,,,,,,,,660.5907922999468,660.6072559999884,661.0928646999528,,,,,,,,,,,,,,,,,,,,,,,,661.1095099999802,661.1257469999837,661.1257469999837,661.1257469999837,664.1030751999933,f,1.0825808999943547,0.17606050003087148,664.1031176999677,664.1031312999548,None,,,,,,,,,,,,,,00047,001,2026-01-18_10h42.03.071,MST_task,2024.2.0,59.63491504711179,2026-01-18 10h56.02.957003 +0530,
,Scenes\075a.jpg,153,0,154,,,,,,,j,0.793762199988123,0.16749820002587512,None,,,,,,154,0,153,664.1196266999468,,,,,,,,,,,,,,,,,,,,,,,,,,,,,,664.1032366,664.1196266999468,664.6046492999885,,,,,,,,,,,,,,,,,,,,,,,,664.6242723999894,664.6380657999543,664.6380657999543,664.6380657999543,667.6151809999719,j,0.793762199988123,0.16749820002587512,667.6152436999837,667.6152612000005,None,,,,,,,,,,,,,,00047,001,2026-01-18_10h42.03.071,MST_task,2024.2.0,59.63491504711179,2026-01-18 10h56.02.957003 +0530,
,Objects\048a.jpg,154,0,155,,,,,,,j,1.9931688999640755,0.15999490005197003,None,,,,,,155,0,154,667.6317285999539,,,,,,,,,,,,,,,,,,,,,,,,,,,,,,667.615387399972,667.6317285999539,668.1169351999997,,,,,,,,,,,,,,,,,,,,,,,,668.1421790999593,668.1502067999681,668.1502067999681,668.1502067999681,671.127495099965,j,1.9931688999640755,0.15999490005197003,671.1288809999824,671.1288991999463,None,,,,,,,,,,,,,,00047,001,2026-01-18_10h42.03.071,MST_task,2024.2.0,59.63491504711179,2026-01-18 10h56.02.957003 +0530,
,Objects\171a.jpg,155,0,156,,,,,,,j,1.4017064000363462,0.16753420000895858,None,,,,,,156,0,155,671.1440574999433,,,,,,,,,,,,,,,,,,,,,,,,,,,,,,671.1289719999768,671.1440574999433,671.6293758999673,,,,,,,,,,,,,,,,,,,,,,,,671.6515473999898,671.6625026999973,671.6625026999973,671.6625026999973,674.6398165999562,j,1.4017064000363462,0.16753420000895858,674.6398649999755,674.6398780999589,None,,,,,,,,,,,,,,00047,001,2026-01-18_10h42.03.071,MST_task,2024.2.0,59.63491504711179,2026-01-18 10h56.02.957003 +0530,
,Objects\191a.jpg,156,0,157,,,,,,,f,1.793207100010477,0.1598132000071928,None,,,,,,157,0,156,674.6565286999685,,,,,,,,,,,,,,,,,,,,,,,,,,,,,,674.6399871999747,674.6565286999685,675.1414147999603,,,,,,,,,,,,,,,,,,,,,,,,675.163605699956,675.1749247999978,675.1749247999978,675.1749247999978,678.1520789999631,f,1.793207100010477,0.1598132000071928,678.1521212999942,678.1521338999737,None,,,,,,,,,,,,,,00047,001,2026-01-18_10h42.03.071,MST_task,2024.2.0,59.63491504711179,2026-01-18 10h56.02.957003 +0530,
,Objects\183a.jpg,157,0,158,,,,,,,j,1.38399770000251,0.1847684999811463,None,,,,,,158,0,157,678.1686400999897,,,,,,,,,,,,,,,,,,,,,,,,,,,,,,678.1522389999591,678.1686400999897,678.6538225999684,,,,,,,,,,,,,,,,,,,,,,,,678.6773060999694,678.6874305999954,678.6874305999954,678.6874305999954,681.6645540999598,j,1.38399770000251,0.1847684999811463,681.6645942999749,681.6646063999506,None,,,,,,,,,,,,,,00047,001,2026-01-18_10h42.03.071,MST_task,2024.2.0,59.63491504711179,2026-01-18 10h56.02.957003 +0530,
,Objects\057a.jpg,158,0,159,,,,,,,f,1.1605641999631189,0.18418490001931787,None,,,,,,159,0,158,681.6809441999649,,,,,,,,,,,,,,,,,,,,,,,,,,,,,,681.6647197999991,681.6809441999649,682.1662220999715,,,,,,,,,,,,,,,,,,,,,,,,682.1908848999883,682.1993684999761,682.1993684999761,682.1993684999761,685.1766934999614,f,1.1605641999631189,0.18418490001931787,685.1767514999956,685.1767650999827,None,,,,,,,,,,,,,,00047,001,2026-01-18_10h42.03.071,MST_task,2024.2.0,59.63491504711179,2026-01-18 10h56.02.957003 +0530,
,Objects\078a.jpg,159,0,160,,,,,,,f,2.2250276999548078,0.16728689998853952,None,,,,,,160,0,159,685.1932236999855,,,,,,,,,,,,,,,,,,,,,,,,,,,,,,685.1768360999995,685.1932236999855,685.6784369999659,,,,,,,,,,,,,,,,,,,,,,,,685.702624699974,685.7117227999843,685.7117227999843,685.7117227999843,688.6888794999686,f,2.2250276999548078,0.16728689998853952,688.6889482999686,688.6889649999794,None,,,,,,,,,,,,,,00047,001,2026-01-18_10h42.03.071,MST_task,2024.2.0,59.63491504711179,2026-01-18 10h56.02.957003 +0530,
,Objects\122a.jpg,160,0,161,,,,,,,f,1.4639519999618642,0.17640550003852695,None,,,,,,161,0,160,688.7057702999446,,,,,,,,,,,,,,,,,,,,,,,,,,,,,,688.6894477999886,688.7057702999446,689.1905983999604,,,,,,,,,,,,,,,,,,,,,,,,689.2143130999757,689.224121599982,689.224121599982,689.224121599982,692.2012562999735,f,1.4639519999618642,0.17640550003852695,692.2012985999463,692.201310799981,None,,,,,,,,,,,,,,00047,001,2026-01-18_10h42.03.071,MST_task,2024.2.0,59.63491504711179,2026-01-18 10h56.02.957003 +0530,
,Scenes\184a.jpg,161,0,162,,,,,,,j,0.8950511000002734,0.19202720001339912,None,,,,,,162,0,161,692.2178456999827,,,,,,,,,,,,,,,,,,,,,,,,,,,,,,692.2013798999833,692.2178456999827,692.7035626999568,,,,,,,,,,,,,,,,,,,,,,,,692.7290362999775,692.7530340999947,692.7530340999947,692.7530340999947,695.7135835999507,j,0.8950511000002734,0.19202720001339912,695.7153079999844,695.7153252999997,None,,,,,,,,,,,,,,00047,001,2026-01-18_10h42.03.071,MST_task,2024.2.0,59.63491504711179,2026-01-18 10h56.02.957003 +0530,
,Scenes\046a.jpg,162,0,163,,,,,,,j,1.3419802999706008,0.168352100008633,None,,,,,,163,0,162,695.730357399967,,,,,,,,,,,,,,,,,,,,,,,,,,,,,,695.7153936999966,695.730357399967,696.2156164999469,,,,,,,,,,,,,,,,696.2667267999495,,,,,,,,696.2473918999895,696.2667267999495,696.2667267999495,696.2667267999495,699.2259273999953,j,1.3419802999706008,0.168352100008633,699.2259752999526,699.2259885999956,None,,,,,,,,,,,,,,00047,001,2026-01-18_10h42.03.071,MST_task,2024.2.0,59.63491504711179,2026-01-18 10h56.02.957003 +0530,
,Scenes\086a.jpg,163,0,164,,,,,,,j,0.7739738000091165,0.19231569999828935,None,,,,,,164,0,163,699.2425352999708,,,,,,,,,,,,,,,,,,,,,,,,,,,,,,699.2260996999685,699.2425352999708,699.7276075999835,,,,,,,,,,,,,,,,,,,,,,,,699.7555233999738,699.7776472999831,699.7776472999831,699.7776472999831,702.7381696999655,j,0.7739738000091165,0.19231569999828935,702.7382177999825,702.738249099988,None,,,,,,,,,,,,,,00047,001,2026-01-18_10h42.03.071,MST_task,2024.2.0,59.63491504711179,2026-01-18 10h56.02.957003 +0530,
,Scenes\136a.jpg,164,0,165,,,,,,,None,,,f,0.9403143000090495,None,,,,165,0,164,702.7548660999746,,,,,,,,,,,,,,,,,,,,,,,,,,,,,,702.738327399944,702.7548660999746,703.2400729999645,,,,,,,,,,,,,,,,,,,,,,,,703.2633430999704,703.290068799979,703.290068799979,703.290068799979,706.2503465999616,None,,,706.2503838999546,707.2209672999452,f,706.2671354999766,706.2671354999766,0.9403143000090495,None,,,,,,,,,,00047,001,2026-01-18_10h42.03.071,MST_task,2024.2.0,59.63491504711179,2026-01-18 10h56.02.957003 +0530,
,Scenes\166a.jpg,165,0,166,,,,,,,j,1.4687263000523672,0.17575090000173077,None,,,,,,166,0,165,707.2372086999821,,,,,,,,,,,,,,,,,,,,,,,,,,,,,,707.2210974999471,707.2372086999821,707.722180199984,,,,,,,,,,,,,,,,,,,,,,,,707.7416672999971,707.7558250000002,707.7558250000002,707.7558250000002,710.7329035999719,j,1.4687263000523672,0.17575090000173077,710.7329451999976,710.7329584999825,None,,,,,,,,,,,,,,00047,001,2026-01-18_10h42.03.071,MST_task,2024.2.0,59.63491504711179,2026-01-18 10h56.02.957003 +0530,
,Scenes\189a.jpg,166,0,167,,,,,,,j,0.9087767999735661,0.1986748999916017,None,,,,,,167,0,166,710.7496620999882,,,,,,,,,,,,,,,,,,,,,,,,,,,,,,710.7330304999487,710.7496620999882,711.2347633999889,,,,,,,,,,,,,,,,,,,,,,,,711.2605251999921,711.284847199975,711.284847199975,711.284847199975,714.2453079999541,j,0.9087767999735661,0.1986748999916017,714.2453604999464,714.2454000999569,None,,,,,,,,,,,,,,00047,001,2026-01-18_10h42.03.071,MST_task,2024.2.0,59.63491504711179,2026-01-18 10h56.02.957003 +0530,
,Scenes\069a.jpg,167,0,168,,,,,,,j,0.7232873000320978,0.14377259998582304,None,,,,,,168,0,167,714.2619015999953,,,,,,,,,,,,,,,,,,,,,,,,,,,,,,714.245477999968,714.2619015999953,714.7470989999711,,,,,,,,,,,,,,,,,,,,,,,,714.767463999975,714.7804252999485,714.7804252999485,714.7804252999485,717.7575949999737,j,0.7232873000320978,0.14377259998582304,717.7576378999511,717.7576502999873,None,,,,,,,,,,,,,,00047,001,2026-01-18_10h42.03.071,MST_task,2024.2.0,59.63491504711179,2026-01-18 10h56.02.957003 +0530,
,Objects\028a.jpg,168,0,169,,,,,,,None,,,f,0.07400309998774901,None,,,,169,0,168,717.7741499999538,,,,,,,,,,,,,,,,,,,,,,,,,,,,,,717.7577561999788,717.7741499999538,718.2598419999704,,,,,,,,,,,,,,,,,,,,,,,,718.2834333999781,718.2931222999468,718.2931222999468,718.2931222999468,721.2699637999758,None,,,721.2713721999899,721.3710128999664,f,721.2864703999949,721.2864703999949,0.07400309998774901,None,,,,,,,,,,00047,001,2026-01-18_10h42.03.071,MST_task,2024.2.0,59.63491504711179,2026-01-18 10h56.02.957003 +0530,
,Objects\187a.jpg,169,0,170,,,,,,,f,1.0311958999955095,0.12737429997650906,None,,,,,,170,0,169,721.3868485999992,,,,,,,,,,,,,,,,,,,,,,,,,,,,,,721.3711369999801,721.3868485999992,721.8720679999678,,,,,,,,,,,,,,,,,,,,,,,,721.8932567999582,721.9052735999576,721.9052735999576,721.9052735999576,724.882437799999,f,1.0311958999955095,0.12737429997650906,724.8824946999666,724.8825202999869,None,,,,,,,,,,,,,,00047,001,2026-01-18_10h42.03.071,MST_task,2024.2.0,59.63491504711179,2026-01-18 10h56.02.957003 +0530,
,Objects\176a.jpg,170,0,171,,,,,,,j,0.9427153000142425,0.15117670001927763,None,,,,,,171,0,170,724.8992174999439,,,,,,,,,,,,,,,,,,,,,,,,,,,,,,724.8826467999606,724.8992174999439,725.384553299984,,,,,,,,,,,,,,,,,,,,,,,,725.4065381999826,725.417699099984,725.417699099984,725.417699099984,728.3946719999658,j,0.9427153000142425,0.15117670001927763,728.3947145999991,728.3947276999825,None,,,,,,,,,,,,,,00047,001,2026-01-18_10h42.03.071,MST_task,2024.2.0,59.63491504711179,2026-01-18 10h56.02.957003 +0530,
,Objects\064a.jpg,171,0,172,,,,,,,f,1.3656806999933906,0.1370396999991499,None,,,,,,172,0,171,728.4124716999941,,,,,,,,,,,,,,,,,,,,,,,,,,,,,,728.3948631999665,728.4124716999941,728.8966006999835,,,,,,,,,,,,,,,,,,,,,,,,728.9189329999499,728.9297776999883,728.9297776999883,728.9297776999883,731.9068671999848,f,1.3656806999933906,0.1370396999991499,731.9069094999577,731.9069223999977,None,,,,,,,,,,,,,,00047,001,2026-01-18_10h42.03.071,MST_task,2024.2.0,59.63491504711179,2026-01-18 10h56.02.957003 +0530,
,Objects\067a.jpg,172,0,173,,,,,,,f,1.654907300020568,0.13432979997014627,None,,,,,,173,0,172,731.9236583999591,,,,,,,,,,,,,,,,,,,,,,,,,,,,,,731.9070286999922,731.9236583999591,732.4088668999611,,,,,,,,,,,,,,,,,,,,,,,,732.4317258999799,732.4422661999706,732.4422661999706,732.4422661999706,735.4192820999888,f,1.654907300020568,0.13432979997014627,735.4196688999655,735.419683999964,None,,,,,,,,,,,,,,00047,001,2026-01-18_10h42.03.071,MST_task,2024.2.0,59.63491504711179,2026-01-18 10h56.02.957003 +0530,
,Objects\130a.jpg,173,0,174,,,,,,,j,1.4700653000036255,0.1512067000148818,None,,,,,,174,0,173,735.4359577999567,,,,,,,,,,,,,,,,,,,,,,,,,,,,,,735.4197607999668,735.4359577999567,735.9210661999532,,,,,,,,,,,,,,,,,,,,,,,,735.9442929999786,735.9544169000001,735.9544169000001,735.9544169000001,738.9315833,j,1.4700653000036255,0.1512067000148818,738.9316241999622,738.9316361999954,None,,,,,,,,,,,,,,00047,001,2026-01-18_10h42.03.071,MST_task,2024.2.0,59.63491504711179,2026-01-18 10h56.02.957003 +0530,
,Objects\172a.jpg,174,0,175,,,,,,,j,1.732706400041934,0.17699000000720844,None,,,,,,175,0,174,738.948259399971,,,,,,,,,,,,,,,,,,,,,,,,,,,,,,738.9317058999441,738.948259399971,739.4335220999783,,,,,,,,,,,,,,,,,,,,,,,,739.4559494999703,739.4667927999981,739.4667927999981,739.4667927999981,742.4438754000003,j,1.732706400041934,0.17699000000720844,742.4439297999488,742.4439424999873,None,,,,,,,,,,,,,,00047,001,2026-01-18_10h42.03.071,MST_task,2024.2.0,59.63491504711179,2026-01-18 10h56.02.957003 +0530,
,Scenes\183a.jpg,175,0,176,,,,,,,j,1.2441694000153802,0.16810379998059943,None,,,,,,176,0,175,742.4605406999472,,,,,,,,,,,,,,,,,,,,,,,,,,,,,,742.4440512999427,742.4605406999472,742.9455111999996,,,,,,,,,,,,,,,,,,,,,,,,742.9730003000004,742.995761499973,742.995761499973,742.995761499973,745.9562110999832,j,1.2441694000153802,0.16810379998059943,745.9575812999974,745.957598399953,None,,,,,,,,,,,,,,00047,001,2026-01-18_10h42.03.071,MST_task,2024.2.0,59.63491504711179,2026-01-18 10h56.02.957003 +0530,
,Scenes\012a.jpg,176,0,177,,,,,,,j,1.1799772000522353,0.14388249994954094,None,,,,,,177,0,176,745.9728560999501,,,,,,,,,,,,,,,,,,,,,,,,,,,,,,745.9577129999525,745.9728560999501,746.4579214999685,,,,,,,,,,,,,,,,,,,,,,,,746.4853395999526,746.5079394999775,746.5079394999775,746.5079394999775,749.4686009999714,j,1.1799772000522353,0.14388249994954094,749.4686426999979,749.4686549999751,None,,,,,,,,,,,,,,00047,001,2026-01-18_10h42.03.071,MST_task,2024.2.0,59.63491504711179,2026-01-18 10h56.02.957003 +0530,
,Scenes\161a.jpg,177,0,178,,,,,,,j,0.811078800004907,0.14442720002261922,None,,,,,,178,0,177,749.4851452999865,,,,,,,,,,,,,,,,,,,,,,,,,,,,,,749.4687918999698,749.4851452999865,749.9702296999749,,,,,,,,,,,,,,,,,,,,,,,,749.9955918999622,750.0205341999535,750.0205341999535,750.0205341999535,752.980642599985,j,0.811078800004907,0.14442720002261922,752.9807040999876,752.9807176999748,None,,,,,,,,,,,,,,00047,001,2026-01-18_10h42.03.071,MST_task,2024.2.0,59.63491504711179,2026-01-18 10h56.02.957003 +0530,
,Scenes\150a.jpg,178,0,179,,,,,,,j,0.9474454000010155,0.15123289998155087,None,,,,,,179,0,178,752.9974386999966,,,,,,,,,,,,,,,,,,,,,,,,,,,,,,752.980829899956,752.9974386999966,753.4825318999938,,,,,,,,,,,,,,,,,,,,,,,,753.5067291999585,753.5327659999602,753.5327659999602,753.5327659999602,756.492957999988,j,0.9474454000010155,0.15123289998155087,756.4929995999555,756.4930123999948,None,,,,,,,,,,,,,,00047,001,2026-01-18_10h42.03.071,MST_task,2024.2.0,59.63491504711179,2026-01-18 10h56.02.957003 +0530,
,Scenes\091a.jpg,179,0,180,,,,,,,j,0.7243397999554873,0.15984820004086941,None,,,,,,180,0,179,756.5097419999656,,,,,,,,,,,,,,,,,,,,,,,,,,,,,,756.4931407999829,756.5097419999656,756.9947137999698,,,,,,,,,,,,,,,,,,,,,,,,757.0170786999515,757.0279750999762,757.0279750999762,757.0279750999762,760.0052470999653,j,0.7243397999554873,0.15984820004086941,760.0052895999979,760.0053020999767,None,,,,,,,,,,,,,,00047,001,2026-01-18_10h42.03.071,MST_task,2024.2.0,59.63491504711179,2026-01-18 10h56.02.957003 +0530,
