thisN,thisTrialN,thisRepN,key_resp_3.keys,key_resp_3.rt,key_resp_3.duration,trials.thisRepN,trials.thisTrialN,trials.thisN,thisRow.t,notes,intro_page.started,text.started,key_resp.started,intro_page.stopped,key_resp.keys,key_resp.rt,key_resp.duration,instructions.started,text_2.started,key_resp_2.started,instructions.stopped,key_resp_2.keys,key_resp_2.rt,key_resp_2.duration,demo1.started,image_1.started,image_2.started,text_7.started,key_resp_6.started,text_9.started,demo1.stopped,key_resp_6.keys,key_resp_6.rt,key_resp_6.duration,demo2.started,image_5.started,image_6.started,text_11.started,text_12.started,key_resp_8.started,demo2.stopped,key_resp_8.keys,key_resp_8.rt,key_resp_8.duration,demo_conclusion.started,text_13.started,key_resp_9.started,demo_conclusion.stopped,key_resp_9.keys,key_resp_9.rt,key_resp_9.duration,start_test.started,text_6.started,key_resp_5.started,start_test.stopped,key_resp_5.keys,key_resp_5.rt,key_resp_5.duration,ISI.started,text_4.started,text_4.stopped,ISI.stopped,routine_1.started,image.started,text_3.started,key_resp_3.started,routine_1.stopped,image_path,position_of_stimuli,trials.key_resp_3.keys,trials.key_resp_3.rt,trials.key_resp_3.duration,End_page.started,text_5.started,key_resp_4.started,End_page.stopped,key_resp_4.keys,key_resp_4.rt,key_resp_4.duration,participant,session,date,expName,psychopyVersion,frameRate,expStart,
,,,,,,,,,,,0.0011008000001311302,0.0026860999932978302,0.0026860999932978302,3.323694799997611,space,3.3145721000037156,None,,,,,,,,,,,,,,,,,,,,,,,,,,,,,,,,,,,,,,,,,,,,,,,,,,,,,,,,,,,,,,,00040,001,2026-01-17_12h02.35.455,MST_test,2024.2.0,59.88156624271919,2026-01-17 12h02.44.636873 +0530,
,,,,,,,,,,,,,,,,,,3.3237283999915235,3.3383439000172075,3.3383439000172075,9.439112499996554,space,6.091640300001018,None,,,,,,,,,,,,,,,,,,,,,,,,,,,,,,,,,,,,,,,,,,,,,,,,,,,,,,,,00040,001,2026-01-17_12h02.35.455,MST_test,2024.2.0,59.88156624271919,2026-01-17 12h02.44.636873 +0530,
,,,,,,,,,,,,,,,,,,,,,,,,,9.439144200005103,9.455544600001303,9.455544600001303,9.455544600001303,9.455544600001303,9.455544600001303,13.87228780001169,space,4.406137599988142,None,,,,,,,,,,,,,,,,,,,,,,,,,,,,,,,,,,,,,,,,,,,,,,00040,001,2026-01-17_12h02.35.455,MST_test,2024.2.0,59.88156624271919,2026-01-17 12h02.44.636873 +0530,
,,,,,,,,,,,,,,,,,,,,,,,,,,,,,,,,,,,13.872320099995704,13.888789899996482,13.888789899996482,13.888789899996482,13.888789899996482,13.888789899996482,16.289342700009,space,2.39604180000606,None,,,,,,,,,,,,,,,,,,,,,,,,,,,,,,,,,,,,00040,001,2026-01-17_12h02.35.455,MST_test,2024.2.0,59.88156624271919,2026-01-17 12h02.44.636873 +0530,
,,,,,,,,,,,,,,,,,,,,,,,,,,,,,,,,,,,,,,,,,,,,,16.289372700004606,16.30517979999422,16.30517979999422,31.788796600012574,space,15.47649050000473,None,,,,,,,,,,,,,,,,,,,,,,,,,,,,,00040,001,2026-01-17_12h02.35.455,MST_test,2024.2.0,59.88156624271919,2026-01-17 12h02.44.636873 +0530,
,,,,,,,,,,,,,,,,,,,,,,,,,,,,,,,,,,,,,,,,,,,,,,,,,,,,31.788827200012747,31.805035600002157,31.805035600002157,93.10553840000648,space,61.287996200000634,None,,,,,,,,,,,,,,,,,,,,,,00040,001,2026-01-17_12h02.35.455,MST_test,2024.2.0,59.88156624271919,2026-01-17 12h02.44.636873 +0530,
0,0,1,n,3.8511078000010457,None,1,0,0,93.12177980001434,,,,,,,,,,,,,,,,,,,,,,,,,,,,,,,,,,,,,,,,,,,,,,,,,,93.10970120001002,93.12177980001434,93.62579910000204,93.60535840000375,93.6236152999918,93.62579910000204,93.62579910000204,93.62579910000204,97.48912869999185,Foils\105a.jpg,none,n,3.8511078000010457,None,,,,,,,,00040,001,2026-01-17_12h02.35.455,MST_test,2024.2.0,59.88156624271919,2026-01-17 12h02.44.636873 +0530,
1,0,2,s,2.8586960999818984,None,2,0,1,97.50512499999604,,,,,,,,,,,,,,,,,,,,,,,,,,,,,,,,,,,,,,,,,,,,,,,,,,97.48922399998992,97.50512499999604,98.01047420001123,97.9887079000182,98.0081627999898,98.01047420001123,98.01047420001123,98.01047420001123,100.87221729999874,Scenes\142b.jpg,pre,s,2.8586960999818984,None,,,,,,,,00040,001,2026-01-17_12h02.35.455,MST_test,2024.2.0,59.88156624271919,2026-01-17 12h02.44.636873 +0530,
2,0,3,o,2.3126507999841124,None,3,0,2,100.88844750000862,,,,,,,,,,,,,,,,,,,,,,,,,,,,,,,,,,,,,,,,,,,,,,,,,,100.87231070001144,100.88844750000862,101.3886410999985,101.37195990001783,101.38340150000295,101.3886410999985,101.3886410999985,101.3886410999985,103.70569970001816,Objects\030b.jpg,post,o,2.3126507999841124,None,,,,,,,,00040,001,2026-01-17_12h02.35.455,MST_test,2024.2.0,59.88156624271919,2026-01-17 12h02.44.636873 +0530,
3,0,4,o,1.4953493000066373,None,4,0,3,103.72180630001822,,,,,,,,,,,,,,,,,,,,,,,,,,,,,,,,,,,,,,,,,,,,,,,,,,103.70579120001639,103.72180630001822,104.22239539999282,104.20539449999342,104.21574720001081,104.22239539999282,104.22239539999282,104.22239539999282,105.72239229999832,Scenes\026a.jpg,pre,o,1.4953493000066373,None,,,,,,,,00040,001,2026-01-17_12h02.35.455,MST_test,2024.2.0,59.88156624271919,2026-01-17 12h02.44.636873 +0530,
4,0,5,n,3.0457023000053596,None,5,0,4,105.73854700001539,,,,,,,,,,,,,,,,,,,,,,,,,,,,,,,,,,,,,,,,,,,,,,,,,,105.722488600004,105.73854700001539,106.2390194000036,106.22193709999556,106.230418799998,106.2390194000036,106.2390194000036,106.2390194000036,109.2890311999945,Foils\scenes18.jpg,none,n,3.0457023000053596,None,,,,,,,,00040,001,2026-01-17_12h02.35.455,MST_test,2024.2.0,59.88156624271919,2026-01-17 12h02.44.636873 +0530,
5,0,6,s,1.5111886999802664,None,6,0,5,109.30515470000682,,,,,,,,,,,,,,,,,,,,,,,,,,,,,,,,,,,,,,,,,,,,,,,,,,109.2891259000171,109.30515470000682,109.80558660000679,109.78878350000014,109.79606140000396,109.80558660000679,109.80558660000679,109.80558660000679,111.32222830000683,Scenes\157a.jpg,post,s,1.5111886999802664,None,,,,,,,,00040,001,2026-01-17_12h02.35.455,MST_test,2024.2.0,59.88156624271919,2026-01-17 12h02.44.636873 +0530,
6,0,7,o,1.4057307000039145,None,7,0,6,111.33848060001037,,,,,,,,,,,,,,,,,,,,,,,,,,,,,,,,,,,,,,,,,,,,,,,,,,111.3223197000043,111.33848060001037,111.83906510000816,111.82209040000453,111.8300256000075,111.83906510000816,111.83906510000816,111.83906510000816,113.25576770000043,Scenes\115a.jpg,post,o,1.4057307000039145,None,,,,,,,,00040,001,2026-01-17_12h02.35.455,MST_test,2024.2.0,59.88156624271919,2026-01-17 12h02.44.636873 +0530,
7,0,8,n,2.041060599993216,None,8,0,7,113.27186999999685,,,,,,,,,,,,,,,,,,,,,,,,,,,,,,,,,,,,,,,,,,,,,,,,,,113.25586440000916,113.27186999999685,113.77211119999993,113.75540029999684,113.76465190001181,113.77211119999993,113.77211119999993,113.77211119999993,115.82248619999154,Foils\scenes16.jpg,none,n,2.041060599993216,None,,,,,,,,00040,001,2026-01-17_12h02.35.455,MST_test,2024.2.0,59.88156624271919,2026-01-17 12h02.44.636873 +0530,
8,0,9,s,2.530163099989295,None,9,0,8,115.83841490000486,,,,,,,,,,,,,,,,,,,,,,,,,,,,,,,,,,,,,,,,,,,,,,,,,,115.82257980000577,115.83841490000486,116.33891720001702,116.32209480000893,116.3366084000154,116.33891720001702,116.33891720001702,116.33891720001702,118.8723958999908,Scenes\121b.jpg,mid,s,2.530163099989295,None,,,,,,,,00040,001,2026-01-17_12h02.35.455,MST_test,2024.2.0,59.88156624271919,2026-01-17 12h02.44.636873 +0530,
9,0,10,o,1.3097125999920536,None,10,0,9,118.88839649999863,,,,,,,,,,,,,,,,,,,,,,,,,,,,,,,,,,,,,,,,,,,,,,,,,,118.87249040001188,118.88839649999863,119.39174340001773,119.3720575000043,119.38952870000503,119.39174340001773,119.39174340001773,119.39174340001773,120.70591980000609,Scenes\031b.jpg,post,o,1.3097125999920536,None,,,,,,,,00040,001,2026-01-17_12h02.35.455,MST_test,2024.2.0,59.88156624271919,2026-01-17 12h02.44.636873 +0530,
10,0,11,n,1.3036421000142582,None,11,0,10,120.72167009999976,,,,,,,,,,,,,,,,,,,,,,,,,,,,,,,,,,,,,,,,,,,,,,,,,,120.7060133999912,120.72167009999976,121.22229700000025,121.20543370000087,121.21530460001668,121.22229700000025,121.22229700000025,121.22229700000025,122.5389967999945,Foils\034a.jpg,none,n,1.3036421000142582,None,,,,,,,,00040,001,2026-01-17_12h02.35.455,MST_test,2024.2.0,59.88156624271919,2026-01-17 12h02.44.636873 +0530,
11,0,12,s,2.0781906000047456,None,12,0,11,122.55501229999936,,,,,,,,,,,,,,,,,,,,,,,,,,,,,,,,,,,,,,,,,,,,,,,,,,122.53909840001143,122.55501229999936,123.05553310000687,123.0387602999981,123.05252100000507,123.05553310000687,123.05553310000687,123.05553310000687,125.13919489999535,Scenes\075b.jpg,mid,s,2.0781906000047456,None,,,,,,,,00040,001,2026-01-17_12h02.35.455,MST_test,2024.2.0,59.88156624271919,2026-01-17 12h02.44.636873 +0530,
12,0,13,n,1.9982416999991983,None,13,0,12,125.15508709999267,,,,,,,,,,,,,,,,,,,,,,,,,,,,,,,,,,,,,,,,,,,,,,,,,,125.13929439999629,125.15508709999267,125.65559919999214,125.63873860001331,125.64886410001782,125.65559919999214,125.65559919999214,125.65559919999214,127.65582640000503,Objects\060b.jpg,mid,n,1.9982416999991983,None,,,,,,,,00040,001,2026-01-17_12h02.35.455,MST_test,2024.2.0,59.88156624271919,2026-01-17 12h02.44.636873 +0530,
13,0,14,s,2.8485227999917697,None,14,0,13,127.6716379999998,,,,,,,,,,,,,,,,,,,,,,,,,,,,,,,,,,,,,,,,,,,,,,,,,,127.65592720001587,127.6716379999998,128.17246420000447,128.1553331000032,128.16581740000402,128.17246420000447,128.17246420000447,128.17246420000447,131.0224251000036,Scenes\102a.jpg,pre,s,2.8485227999917697,None,,,,,,,,00040,001,2026-01-17_12h02.35.455,MST_test,2024.2.0,59.88156624271919,2026-01-17 12h02.44.636873 +0530,
14,0,15,s,1.786338900012197,None,15,0,14,131.03852999999071,,,,,,,,,,,,,,,,,,,,,,,,,,,,,,,,,,,,,,,,,,,,,,,,,,131.02251629999955,131.03852999999071,131.53875780000817,131.52200940001057,131.5313056000159,131.53875780000817,131.53875780000817,131.53875780000817,133.3390747999947,Scenes\081a.jpg,pre,s,1.786338900012197,None,,,,,,,,00040,001,2026-01-17_12h02.35.455,MST_test,2024.2.0,59.88156624271919,2026-01-17 12h02.44.636873 +0530,
15,0,16,s,1.9069293000211474,None,16,0,15,133.35514140001033,,,,,,,,,,,,,,,,,,,,,,,,,,,,,,,,,,,,,,,,,,,,,,,,,,133.33916730000055,133.35514140001033,133.85800639999798,133.8387219000142,133.85574210001505,133.85800639999798,133.85800639999798,133.85800639999798,135.77232610000647,Scenes\107b.jpg,pre,s,1.9069293000211474,None,,,,,,,,00040,001,2026-01-17_12h02.35.455,MST_test,2024.2.0,59.88156624271919,2026-01-17 12h02.44.636873 +0530,
16,0,17,o,2.7886367999890354,None,17,0,16,135.78841169999214,,,,,,,,,,,,,,,,,,,,,,,,,,,,,,,,,,,,,,,,,,,,,,,,,,135.77241880001384,135.78841169999214,136.2889484000043,136.27206580000347,136.27538669999922,136.2889484000043,136.2889484000043,136.2889484000043,139.08902059998945,Objects\122a.jpg,mid,o,2.7886367999890354,None,,,,,,,,00040,001,2026-01-17_12h02.35.455,MST_test,2024.2.0,59.88156624271919,2026-01-17 12h02.44.636873 +0530,
17,0,18,s,4.831010499998229,None,18,0,17,139.10516920001828,,,,,,,,,,,,,,,,,,,,,,,,,,,,,,,,,,,,,,,,,,,,,,,,,,139.0891125999915,139.10516920001828,139.60572640001192,139.58879080001498,139.59897960000671,139.60572640001192,139.60572640001192,139.60572640001192,144.43912409999757,Scenes\060a.jpg,pre,s,4.831010499998229,None,,,,,,,,00040,001,2026-01-17_12h02.35.455,MST_test,2024.2.0,59.88156624271919,2026-01-17 12h02.44.636873 +0530,
18,0,19,n,1.1303946000116412,None,19,0,18,144.4551541999972,,,,,,,,,,,,,,,,,,,,,,,,,,,,,,,,,,,,,,,,,,,,,,,,,,144.4392147999897,144.4551541999972,144.95549839999876,144.93867880001199,144.94840670001577,144.95549839999876,144.95549839999876,144.95549839999876,146.08907260000706,Foils\106a.jpg,none,n,1.1303946000116412,None,,,,,,,,00040,001,2026-01-17_12h02.35.455,MST_test,2024.2.0,59.88156624271919,2026-01-17 12h02.44.636873 +0530,
19,0,20,o,1.4718604999943636,None,20,0,19,146.1050816999923,,,,,,,,,,,,,,,,,,,,,,,,,,,,,,,,,,,,,,,,,,,,,,,,,,146.08916339999996,146.1050816999923,146.60534239999834,146.58872860000702,146.59768350000377,146.60534239999834,146.60534239999834,146.60534239999834,148.08886540000094,Objects\166b.jpg,mid,o,1.4718604999943636,None,,,,,,,,00040,001,2026-01-17_12h02.35.455,MST_test,2024.2.0,59.88156624271919,2026-01-17 12h02.44.636873 +0530,
20,0,21,o,1.1673381000000518,None,21,0,20,148.10504809999838,,,,,,,,,,,,,,,,,,,,,,,,,,,,,,,,,,,,,,,,,,,,,,,,,,148.08895720000146,148.10504809999838,148.6056002000114,148.58854349999456,148.59559460001765,148.6056002000114,148.6056002000114,148.6056002000114,149.78904289999628,Scenes\027a.jpg,mid,o,1.1673381000000518,None,,,,,,,,00040,001,2026-01-17_12h02.35.455,MST_test,2024.2.0,59.88156624271919,2026-01-17 12h02.44.636873 +0530,
21,0,22,o,0.900176700000884,None,22,0,21,149.80506330000935,,,,,,,,,,,,,,,,,,,,,,,,,,,,,,,,,,,,,,,,,,,,,,,,,,149.7891413999896,149.80506330000935,150.30546070000855,150.2886480000161,150.29851960000815,150.30546070000855,150.30546070000855,150.30546070000855,151.222173200018,Objects\057b.jpg,post,o,0.900176700000884,None,,,,,,,,00040,001,2026-01-17_12h02.35.455,MST_test,2024.2.0,59.88156624271919,2026-01-17 12h02.44.636873 +0530,
22,0,23,o,1.3276032000139821,None,23,0,22,151.23836990000564,,,,,,,,,,,,,,,,,,,,,,,,,,,,,,,,,,,,,,,,,,,,,,,,,,151.22226360000786,151.23836990000564,151.74131539999507,151.72180240001762,151.73917770001572,151.74131539999507,151.74131539999507,151.74131539999507,153.0725628999935,Scenes\085b.jpg,mid,o,1.3276032000139821,None,,,,,,,,00040,001,2026-01-17_12h02.35.455,MST_test,2024.2.0,59.88156624271919,2026-01-17 12h02.44.636873 +0530,
23,0,24,o,1.2405847000190988,None,24,0,23,153.08832080001594,,,,,,,,,,,,,,,,,,,,,,,,,,,,,,,,,,,,,,,,,,,,,,,,,,153.07265799999004,153.08832080001594,153.58890229999088,153.57190270000137,153.58250170000247,153.58890229999088,153.58890229999088,153.58890229999088,154.838911800005,Scenes\114a.jpg,post,o,1.2405847000190988,None,,,,,,,,00040,001,2026-01-17_12h02.35.455,MST_test,2024.2.0,59.88156624271919,2026-01-17 12h02.44.636873 +0530,
24,0,25,o,3.721413699997356,None,25,0,24,154.8550671999983,,,,,,,,,,,,,,,,,,,,,,,,,,,,,,,,,,,,,,,,,,,,,,,,,,154.83900450001238,154.8550671999983,155.35567200000514,155.33867090000422,155.34686570000486,155.35567200000514,155.35567200000514,155.35567200000514,159.08898339999723,Scenes\144a.jpg,pre,o,3.721413699997356,None,,,,,,,,00040,001,2026-01-17_12h02.35.455,MST_test,2024.2.0,59.88156624271919,2026-01-17 12h02.44.636873 +0530,
25,0,26,n,1.6461925000185147,None,26,0,25,159.10506550001446,,,,,,,,,,,,,,,,,,,,,,,,,,,,,,,,,,,,,,,,,,,,,,,,,,159.0890774000145,159.10506550001446,159.83089089998975,159.58864470000844,159.82640799999353,159.83089089998975,159.83089089998975,159.83089089998975,161.48913989998982,Foils\scenes26.jpg,none,n,1.6461925000185147,None,,,,,,,,00040,001,2026-01-17_12h02.35.455,MST_test,2024.2.0,59.88156624271919,2026-01-17 12h02.44.636873 +0530,
26,0,27,n,1.183193900011247,None,27,0,26,161.50504950000322,,,,,,,,,,,,,,,,,,,,,,,,,,,,,,,,,,,,,,,,,,,,,,,,,,161.48923840001225,161.50504950000322,162.03026560001308,161.9886245999951,162.02829320001183,162.03026560001308,162.03026560001308,162.03026560001308,163.22223000001395,Foils\scenes3.jpg,none,n,1.183193900011247,None,,,,,,,,00040,001,2026-01-17_12h02.35.455,MST_test,2024.2.0,59.88156624271919,2026-01-17 12h02.44.636873 +0530,
27,0,28,o,1.4740741999994498,None,28,0,27,163.23840170001495,,,,,,,,,,,,,,,,,,,,,,,,,,,,,,,,,,,,,,,,,,,,,,,,,,163.222322000016,163.23840170001495,163.73879619999207,163.72183620001306,163.73222579999128,163.73879619999207,163.73879619999207,163.73879619999207,165.22221269999864,Scenes\029a.jpg,post,o,1.4740741999994498,None,,,,,,,,00040,001,2026-01-17_12h02.35.455,MST_test,2024.2.0,59.88156624271919,2026-01-17 12h02.44.636873 +0530,
28,0,29,o,3.43497760000173,None,29,0,28,165.2383875999949,,,,,,,,,,,,,,,,,,,,,,,,,,,,,,,,,,,,,,,,,,,,,,,,,,165.22230449999915,165.2383875999949,165.73881640000036,165.72189859999344,165.7323316000111,165.73881640000036,165.73881640000036,165.73881640000036,169.18897170000128,Objects\119b.jpg,mid,o,3.43497760000173,None,,,,,,,,00040,001,2026-01-17_12h02.35.455,MST_test,2024.2.0,59.88156624271919,2026-01-17 12h02.44.636873 +0530,
29,0,30,o,1.3285362999886274,None,30,0,29,169.2049979000003,,,,,,,,,,,,,,,,,,,,,,,,,,,,,,,,,,,,,,,,,,,,,,,,,,169.18906239999342,169.2049979000003,169.7088985000155,169.68864440001198,169.70655410000472,169.7088985000155,169.7088985000155,169.7088985000155,171.03930400000536,Scenes\066b.jpg,pre,o,1.3285362999886274,None,,,,,,,,00040,001,2026-01-17_12h02.35.455,MST_test,2024.2.0,59.88156624271919,2026-01-17 12h02.44.636873 +0530,
30,0,31,o,0.8974363999732304,None,31,0,30,171.05506330000935,,,,,,,,,,,,,,,,,,,,,,,,,,,,,,,,,,,,,,,,,,,,,,,,,,171.03940030001104,171.05506330000935,171.55568170000333,171.5386361000128,171.5495324000076,171.55568170000333,171.55568170000333,171.55568170000333,172.4557133000053,Objects\171b.jpg,mid,o,0.8974363999732304,None,,,,,,,,00040,001,2026-01-17_12h02.35.455,MST_test,2024.2.0,59.88156624271919,2026-01-17 12h02.44.636873 +0530,
31,0,32,o,1.6401699999987613,None,32,0,31,172.4716550000012,,,,,,,,,,,,,,,,,,,,,,,,,,,,,,,,,,,,,,,,,,,,,,,,,,172.45580650001648,172.4716550000012,172.97264650001307,172.95577500000945,172.96631779999007,172.97264650001307,172.97264650001307,172.97264650001307,174.6221208999923,Objects\051b.jpg,pre,o,1.6401699999987613,None,,,,,,,,00040,001,2026-01-17_12h02.35.455,MST_test,2024.2.0,59.88156624271919,2026-01-17 12h02.44.636873 +0530,
32,0,33,s,3.4098159999994095,None,33,0,32,174.6383930000011,,,,,,,,,,,,,,,,,,,,,,,,,,,,,,,,,,,,,,,,,,,,,,,,,,174.62221259999205,174.6383930000011,175.13901670000632,175.12189519999083,175.13248629998998,175.13901670000632,175.13901670000632,175.13901670000632,178.5555280999979,Objects\019b.jpg,post,s,3.4098159999994095,None,,,,,,,,00040,001,2026-01-17_12h02.35.455,MST_test,2024.2.0,59.88156624271919,2026-01-17 12h02.44.636873 +0530,
33,0,34,n,2.429089599987492,None,34,0,33,178.57158920000074,,,,,,,,,,,,,,,,,,,,,,,,,,,,,,,,,,,,,,,,,,,,,,,,,,178.555620500003,178.57158920000074,179.07218630000716,179.05523220001487,179.06963600000017,179.07218630000716,179.07218630000716,179.07218630000716,181.50556019999203,Scenes\173b.jpg,mid,n,2.429089599987492,None,,,,,,,,00040,001,2026-01-17_12h02.35.455,MST_test,2024.2.0,59.88156624271919,2026-01-17 12h02.44.636873 +0530,
34,0,35,n,2.4792645999987144,None,35,0,34,181.52184639999177,,,,,,,,,,,,,,,,,,,,,,,,,,,,,,,,,,,,,,,,,,,,,,,,,,181.50565510001616,181.52184639999177,182.02205870000762,182.00523850001628,182.01507690001745,182.02205870000762,182.02205870000762,182.02205870000762,184.50563550001243,Foils\093b.jpg,none,n,2.4792645999987144,None,,,,,,,,00040,001,2026-01-17_12h02.35.455,MST_test,2024.2.0,59.88156624271919,2026-01-17 12h02.44.636873 +0530,
35,0,36,n,2.925504299986642,None,36,0,35,184.5216280000168,,,,,,,,,,,,,,,,,,,,,,,,,,,,,,,,,,,,,,,,,,,,,,,,,,184.50572600000305,184.5216280000168,185.02340450001066,185.00539380000555,185.02136610000161,185.02340450001066,185.02340450001066,185.02340450001066,187.95559890000732,Scenes\119b.jpg,pre,n,2.925504299986642,None,,,,,,,,00040,001,2026-01-17_12h02.35.455,MST_test,2024.2.0,59.88156624271919,2026-01-17 12h02.44.636873 +0530,
36,0,37,s,4.128461999993306,None,37,0,36,187.9715991000121,,,,,,,,,,,,,,,,,,,,,,,,,,,,,,,,,,,,,,,,,,,,,,,,,,187.95568909999565,187.9715991000121,188.47654709999915,188.45535450000898,188.4744486999989,188.47654709999915,188.47654709999915,188.47654709999915,192.6057756000082,Scenes\084b.jpg,post,s,4.128461999993306,None,,,,,,,,00040,001,2026-01-17_12h02.35.455,MST_test,2024.2.0,59.88156624271919,2026-01-17 12h02.44.636873 +0530,
37,0,38,n,1.059671700000763,None,38,0,37,192.62165899999673,,,,,,,,,,,,,,,,,,,,,,,,,,,,,,,,,,,,,,,,,,,,,,,,,,192.60587319999468,192.62165899999673,193.12217560000136,193.10533769999165,193.1168852999981,193.12217560000136,193.12217560000136,193.12217560000136,194.18915730001754,Foils\101b.jpg,none,n,1.059671700000763,None,,,,,,,,00040,001,2026-01-17_12h02.35.455,MST_test,2024.2.0,59.88156624271919,2026-01-17 12h02.44.636873 +0530,
38,0,39,s,1.6038292000012007,None,39,0,38,194.20503790001385,,,,,,,,,,,,,,,,,,,,,,,,,,,,,,,,,,,,,,,,,,,,,,,,,,194.18925769999623,194.20503790001385,194.70523220000905,194.6885944000096,194.69768030001433,194.70523220000905,194.70523220000905,194.70523220000905,196.32204100000672,Objects\011b.jpg,mid,s,1.6038292000012007,None,,,,,,,,00040,001,2026-01-17_12h02.35.455,MST_test,2024.2.0,59.88156624271919,2026-01-17 12h02.44.636873 +0530,
39,0,40,o,2.45380240000668,None,40,0,39,196.3383706000168,,,,,,,,,,,,,,,,,,,,,,,,,,,,,,,,,,,,,,,,,,,,,,,,,,196.32214720000047,196.3383706000168,196.83908430000884,196.82172989999526,196.82455879999907,196.83908430000884,196.83908430000884,196.83908430000884,199.30553859999054,Objects\131a.jpg,post,o,2.45380240000668,None,,,,,,,,00040,001,2026-01-17_12h02.35.455,MST_test,2024.2.0,59.88156624271919,2026-01-17 12h02.44.636873 +0530,
40,0,41,o,1.311783600016497,None,41,0,40,199.32166010001674,,,,,,,,,,,,,,,,,,,,,,,,,,,,,,,,,,,,,,,,,,,,,,,,,,199.30563220000477,199.32166010001674,199.82209649999277,199.80539049999788,199.81455650000134,199.82209649999277,199.82209649999277,199.82209649999277,201.13922070001718,Scenes\122a.jpg,pre,o,1.311783600016497,None,,,,,,,,00040,001,2026-01-17_12h02.35.455,MST_test,2024.2.0,59.88156624271919,2026-01-17 12h02.44.636873 +0530,
41,0,42,s,2.9503274000016972,None,42,0,41,201.1550516000134,,,,,,,,,,,,,,,,,,,,,,,,,,,,,,,,,,,,,,,,,,,,,,,,,,201.13931729999604,201.1550516000134,201.65556060001836,201.63867750001373,201.64864639998996,201.65556060001836,201.65556060001836,201.65556060001836,204.6222073000099,Foils\086a.jpg,none,s,2.9503274000016972,None,,,,,,,,00040,001,2026-01-17_12h02.35.455,MST_test,2024.2.0,59.88156624271919,2026-01-17 12h02.44.636873 +0530,
42,0,43,o,2.290406999993138,None,43,0,42,204.63840130000608,,,,,,,,,,,,,,,,,,,,,,,,,,,,,,,,,,,,,,,,,,,,,,,,,,204.62230010001804,204.63840130000608,205.13863090000814,205.12175230000867,205.1310378999915,205.13863090000814,205.13863090000814,205.13863090000814,207.43895109998994,Objects\128b.jpg,pre,o,2.290406999993138,None,,,,,,,,00040,001,2026-01-17_12h02.35.455,MST_test,2024.2.0,59.88156624271919,2026-01-17 12h02.44.636873 +0530,
43,0,44,n,1.6418654000153765,None,44,0,43,207.45508159999736,,,,,,,,,,,,,,,,,,,,,,,,,,,,,,,,,,,,,,,,,,,,,,,,,,207.43906030000653,207.45508159999736,207.9554049000144,207.9386736000015,207.94157860000269,207.9554049000144,207.9554049000144,207.9554049000144,209.60572610000963,Objects\001a.jpg,post,n,1.6418654000153765,None,,,,,,,,00040,001,2026-01-17_12h02.35.455,MST_test,2024.2.0,59.88156624271919,2026-01-17 12h02.44.636873 +0530,
44,0,45,n,1.416925600002287,None,45,0,44,209.62184279999929,,,,,,,,,,,,,,,,,,,,,,,,,,,,,,,,,,,,,,,,,,,,,,,,,,209.60581899998942,209.62184279999929,210.12450470001204,210.1056654000131,210.12231380000594,210.12450470001204,210.12450470001204,210.12450470001204,211.55573029999505,Foils\scenes22.jpg,none,n,1.416925600002287,None,,,,,,,,00040,001,2026-01-17_12h02.35.455,MST_test,2024.2.0,59.88156624271919,2026-01-17 12h02.44.636873 +0530,
45,0,46,o,1.3330651999858674,None,46,0,45,211.57191490000696,,,,,,,,,,,,,,,,,,,,,,,,,,,,,,,,,,,,,,,,,,,,,,,,,,211.5558263999992,211.57191490000696,212.07270360001712,212.05541239999002,212.0614457000047,212.07270360001712,212.07270360001712,212.07270360001712,213.42231930000708,Scenes\018a.jpg,post,o,1.3330651999858674,None,,,,,,,,00040,001,2026-01-17_12h02.35.455,MST_test,2024.2.0,59.88156624271919,2026-01-17 12h02.44.636873 +0530,
46,0,47,o,4.113843400002224,None,47,0,46,213.43851740000537,,,,,,,,,,,,,,,,,,,,,,,,,,,,,,,,,,,,,,,,,,,,,,,,,,213.42241250001825,213.43851740000537,213.93908499999088,213.92203819999122,213.93230559999938,213.93908499999088,213.93908499999088,213.93908499999088,218.05561619999935,Objects\135b.jpg,post,o,4.113843400002224,None,,,,,,,,00040,001,2026-01-17_12h02.35.455,MST_test,2024.2.0,59.88156624271919,2026-01-17 12h02.44.636873 +0530,
47,0,48,o,1.6889724000066053,None,48,0,47,218.0716752000153,,,,,,,,,,,,,,,,,,,,,,,,,,,,,,,,,,,,,,,,,,,,,,,,,,218.05571340001188,218.0716752000153,218.57256490000873,218.55543410000973,218.5665920000174,218.57256490000873,218.57256490000873,218.57256490000873,220.2724554000015,Scenes\011a.jpg,mid,o,1.6889724000066053,None,,,,,,,,00040,001,2026-01-17_12h02.35.455,MST_test,2024.2.0,59.88156624271919,2026-01-17 12h02.44.636873 +0530,
48,0,49,n,6.1931915000022855,None,49,0,48,220.28847359999781,,,,,,,,,,,,,,,,,,,,,,,,,,,,,,,,,,,,,,,,,,,,,,,,,,220.27255520000472,220.28847359999781,220.78895879999618,220.77227200000198,220.78166979999514,220.78895879999618,220.78895879999618,220.78895879999618,226.98921850000625,Foils\018a.jpg,none,n,6.1931915000022855,None,,,,,,,,00040,001,2026-01-17_12h02.35.455,MST_test,2024.2.0,59.88156624271919,2026-01-17 12h02.44.636873 +0530,
49,0,50,o,2.491414899996016,None,50,0,49,227.0051430000167,,,,,,,,,,,,,,,,,,,,,,,,,,,,,,,,,,,,,,,,,,,,,,,,,,226.98931870001252,227.0051430000167,227.5058327000006,227.48881310000434,227.49540149999666,227.5058327000006,227.5058327000006,227.5058327000006,230.00572079999256,Scenes\006a.jpg,post,o,2.491414899996016,None,,,,,,,,00040,001,2026-01-17_12h02.35.455,MST_test,2024.2.0,59.88156624271919,2026-01-17 12h02.44.636873 +0530,
50,0,51,o,1.155138200003421,None,51,0,50,230.02180149999913,,,,,,,,,,,,,,,,,,,,,,,,,,,,,,,,,,,,,,,,,,,,,,,,,,230.00581430000602,230.02180149999913,230.52230730000883,230.5055709000153,230.50885740001104,230.52230730000883,230.52230730000883,230.52230730000883,231.68898100001388,Objects\081a.jpg,pre,o,1.155138200003421,None,,,,,,,,00040,001,2026-01-17_12h02.35.455,MST_test,2024.2.0,59.88156624271919,2026-01-17 12h02.44.636873 +0530,
51,0,52,n,1.8872365000133868,None,52,0,51,231.70517370000016,,,,,,,,,,,,,,,,,,,,,,,,,,,,,,,,,,,,,,,,,,,,,,,,,,231.6890737999929,231.70517370000016,232.20557039999403,232.18874660000438,232.1976923000184,232.20557039999403,232.20557039999403,232.20557039999403,234.10574359999737,Foils\121a.jpg,none,n,1.8872365000133868,None,,,,,,,,00040,001,2026-01-17_12h02.35.455,MST_test,2024.2.0,59.88156624271919,2026-01-17 12h02.44.636873 +0530,
52,0,53,n,2.0468131999950856,None,53,0,52,234.12174570001662,,,,,,,,,,,,,,,,,,,,,,,,,,,,,,,,,,,,,,,,,,,,,,,,,,234.10583970000152,234.12174570001662,234.62201730001834,234.605432500015,234.61521220000577,234.62201730001834,234.62201730001834,234.62201730001834,236.67230979999295,Foils\026a.jpg,none,n,2.0468131999950856,None,,,,,,,,00040,001,2026-01-17_12h02.35.455,MST_test,2024.2.0,59.88156624271919,2026-01-17 12h02.44.636873 +0530,
53,0,54,o,3.5845026999886613,None,54,0,53,236.68854659999488,,,,,,,,,,,,,,,,,,,,,,,,,,,,,,,,,,,,,,,,,,,,,,,,,,236.67240340000717,236.68854659999488,237.1889943999995,237.1719502999913,237.17842119999113,237.1889943999995,237.1889943999995,237.1889943999995,240.78928799999994,Scenes\186a.jpg,pre,o,3.5845026999886613,None,,,,,,,,00040,001,2026-01-17_12h02.35.455,MST_test,2024.2.0,59.88156624271919,2026-01-17 12h02.44.636873 +0530,
54,0,55,n,4.995760400022846,None,55,0,54,240.8050911000173,,,,,,,,,,,,,,,,,,,,,,,,,,,,,,,,,,,,,,,,,,,,,,,,,,240.7893890000123,240.8050911000173,241.3057245000091,241.2888169999933,241.2991919000051,241.3057245000091,241.3057245000091,241.3057245000091,246.30581799999345,Foils\049a.jpg,none,n,4.995760400022846,None,,,,,,,,00040,001,2026-01-17_12h02.35.455,MST_test,2024.2.0,59.88156624271919,2026-01-17 12h02.44.636873 +0530,
55,0,56,o,2.310818300000392,None,56,0,55,246.32170870000846,,,,,,,,,,,,,,,,,,,,,,,,,,,,,,,,,,,,,,,,,,,,,,,,,,246.30590959999245,246.32170870000846,246.82215469999937,246.8053557999956,246.80834779998986,246.82215469999937,246.82215469999937,246.82215469999937,249.13920800000778,Objects\094a.jpg,mid,o,2.310818300000392,None,,,,,,,,00040,001,2026-01-17_12h02.35.455,MST_test,2024.2.0,59.88156624271919,2026-01-17 12h02.44.636873 +0530,
56,0,57,o,0.9581686000165064,None,57,0,56,249.15512260000105,,,,,,,,,,,,,,,,,,,,,,,,,,,,,,,,,,,,,,,,,,,,,,,,,,249.13929829999688,249.15512260000105,249.65539550001267,249.63883350000833,249.64136040001176,249.65539550001267,249.65539550001267,249.65539550001267,250.62260269999388,Objects\129a.jpg,post,o,0.9581686000165064,None,,,,,,,,00040,001,2026-01-17_12h02.35.455,MST_test,2024.2.0,59.88156624271919,2026-01-17 12h02.44.636873 +0530,
57,0,58,o,0.9949659999983851,None,58,0,57,250.63851230000728,,,,,,,,,,,,,,,,,,,,,,,,,,,,,,,,,,,,,,,,,,,,,,,,,,250.62270000000717,250.63851230000728,251.13870539999334,251.12208900001133,251.12499850001768,251.13870539999334,251.13870539999334,251.13870539999334,252.13907100001234,Objects\066a.jpg,mid,o,0.9949659999983851,None,,,,,,,,00040,001,2026-01-17_12h02.35.455,MST_test,2024.2.0,59.88156624271919,2026-01-17 12h02.44.636873 +0530,
58,0,59,n,1.9508510000014212,None,59,0,58,252.15508530000807,,,,,,,,,,,,,,,,,,,,,,,,,,,,,,,,,,,,,,,,,,,,,,,,,,252.13916200000676,252.15508530000807,252.65560910000931,252.63881659999606,252.64935870000045,252.65560910000931,252.65560910000931,252.65560910000931,254.62244890001602,Foils\scenes30.jpg,none,n,1.9508510000014212,None,,,,,,,,00040,001,2026-01-17_12h02.35.455,MST_test,2024.2.0,59.88156624271919,2026-01-17 12h02.44.636873 +0530,
59,0,60,o,2.130231500021182,None,60,0,59,254.63850200001616,,,,,,,,,,,,,,,,,,,,,,,,,,,,,,,,,,,,,,,,,,,,,,,,,,254.62255020000157,254.63850200001616,255.13880210000207,255.12210050001158,255.12520860001678,255.13880210000207,255.13880210000207,255.13880210000207,257.27251529999194,Objects\111a.jpg,mid,o,2.130231500021182,None,,,,,,,,00040,001,2026-01-17_12h02.35.455,MST_test,2024.2.0,59.88156624271919,2026-01-17 12h02.44.636873 +0530,
60,0,61,o,1.6402158999990206,None,61,0,60,257.288541899994,,,,,,,,,,,,,,,,,,,,,,,,,,,,,,,,,,,,,,,,,,,,,,,,,,257.2726096000115,257.288541899994,257.78867790001095,257.772243000014,257.7752044000081,257.78867790001095,257.78867790001095,257.78867790001095,259.4391838000156,Objects\093a.jpg,mid,o,1.6402158999990206,None,,,,,,,,00040,001,2026-01-17_12h02.35.455,MST_test,2024.2.0,59.88156624271919,2026-01-17 12h02.44.636873 +0530,
61,0,62,o,1.7613802000123542,None,62,0,61,259.4552079999994,,,,,,,,,,,,,,,,,,,,,,,,,,,,,,,,,,,,,,,,,,,,,,,,,,259.4392783000076,259.4552079999994,259.9555330000003,259.9387112999975,259.9460700000054,259.9555330000003,259.9555330000003,259.9555330000003,261.72255259999656,Scenes\008a.jpg,mid,o,1.7613802000123542,None,,,,,,,,00040,001,2026-01-17_12h02.35.455,MST_test,2024.2.0,59.88156624271919,2026-01-17 12h02.44.636873 +0530,
62,0,63,o,1.5262420999933966,None,63,0,62,261.7384871999966,,,,,,,,,,,,,,,,,,,,,,,,,,,,,,,,,,,,,,,,,,,,,,,,,,261.7226474999916,261.7384871999966,262.23902730000555,262.2221165999945,262.2319605000084,262.23902730000555,262.23902730000555,262.23902730000555,263.7724162999948,Objects\088b.jpg,post,o,1.5262420999933966,None,,,,,,,,00040,001,2026-01-17_12h02.35.455,MST_test,2024.2.0,59.88156624271919,2026-01-17 12h02.44.636873 +0530,
63,0,64,n,2.1486152000143193,None,64,0,63,263.7884314999974,,,,,,,,,,,,,,,,,,,,,,,,,,,,,,,,,,,,,,,,,,,,,,,,,,263.7725078999938,263.7884314999974,264.2887538000068,264.2720981000166,264.2834187000117,264.2887538000068,264.2887538000068,264.2887538000068,266.43914719999884,Foils\098a.jpg,none,n,2.1486152000143193,None,,,,,,,,00040,001,2026-01-17_12h02.35.455,MST_test,2024.2.0,59.88156624271919,2026-01-17 12h02.44.636873 +0530,
64,0,65,n,1.7295909999811556,None,65,0,64,266.45521620000363,,,,,,,,,,,,,,,,,,,,,,,,,,,,,,,,,,,,,,,,,,,,,,,,,,266.4392443000106,266.45521620000363,266.9552931000071,266.9389271000109,266.9493432000163,266.9552931000071,266.9552931000071,266.9552931000071,268.68907009999384,Foils\002a.jpg,none,n,1.7295909999811556,None,,,,,,,,00040,001,2026-01-17_12h02.35.455,MST_test,2024.2.0,59.88156624271919,2026-01-17 12h02.44.636873 +0530,
65,0,66,o,1.9202525000146125,None,66,0,65,268.70508340001106,,,,,,,,,,,,,,,,,,,,,,,,,,,,,,,,,,,,,,,,,,,,,,,,,,268.6891634000058,268.70508340001106,269.20535790000577,269.18867160001537,269.1977290000068,269.20535790000577,269.20535790000577,269.20535790000577,271.1394864000031,Objects\059b.jpg,pre,o,1.9202525000146125,None,,,,,,,,00040,001,2026-01-17_12h02.35.455,MST_test,2024.2.0,59.88156624271919,2026-01-17 12h02.44.636873 +0530,
66,0,67,o,1.3986494000128005,None,67,0,66,271.15527600000496,,,,,,,,,,,,,,,,,,,,,,,,,,,,,,,,,,,,,,,,,,,,,,,,,,271.1396051000047,271.15527600000496,271.6552348000114,271.63862620000145,271.6411613000091,271.6552348000114,271.6552348000114,271.6552348000114,273.05560900000273,Objects\101a.jpg,mid,o,1.3986494000128005,None,,,,,,,,00040,001,2026-01-17_12h02.35.455,MST_test,2024.2.0,59.88156624271919,2026-01-17 12h02.44.636873 +0530,
67,0,68,o,0.9143744000175502,None,68,0,67,273.07161250000354,,,,,,,,,,,,,,,,,,,,,,,,,,,,,,,,,,,,,,,,,,,,,,,,,,273.05569999999716,273.07161250000354,273.57174310000846,273.5553498000081,273.5582008000056,273.57174310000846,273.57174310000846,273.57174310000846,274.4889211000118,Objects\092a.jpg,mid,o,0.9143744000175502,None,,,,,,,,00040,001,2026-01-17_12h02.35.455,MST_test,2024.2.0,59.88156624271919,2026-01-17 12h02.44.636873 +0530,
68,0,69,o,1.1756214000051841,None,69,0,68,274.5051301000058,,,,,,,,,,,,,,,,,,,,,,,,,,,,,,,,,,,,,,,,,,,,,,,,,,274.4890228000004,274.5051301000058,275.00525180000113,274.98868810001295,274.99850290000904,275.00525180000113,275.00525180000113,275.00525180000113,276.1891081999929,Objects\087b.jpg,post,o,1.1756214000051841,None,,,,,,,,00040,001,2026-01-17_12h02.35.455,MST_test,2024.2.0,59.88156624271919,2026-01-17 12h02.44.636873 +0530,
69,0,70,o,3.179818400007207,None,70,0,69,276.2050214000046,,,,,,,,,,,,,,,,,,,,,,,,,,,,,,,,,,,,,,,,,,,,,,,,,,276.1891988000134,276.2050214000046,276.7056344000157,276.6887119000021,276.69402809999883,276.7056344000157,276.7056344000157,276.7056344000157,279.8889829000109,Scenes\139a.jpg,mid,o,3.179818400007207,None,,,,,,,,00040,001,2026-01-17_12h02.35.455,MST_test,2024.2.0,59.88156624271919,2026-01-17 12h02.44.636873 +0530,
70,0,71,s,2.1123870000010356,None,71,0,70,279.90501990000485,,,,,,,,,,,,,,,,,,,,,,,,,,,,,,,,,,,,,,,,,,,,,,,,,,279.8890783000097,279.90501990000485,280.40551350000896,280.3886266000045,280.3980672000034,280.40551350000896,280.40551350000896,280.40551350000896,282.5223052999936,Foils\scenes6.jpg,none,s,2.1123870000010356,None,,,,,,,,00040,001,2026-01-17_12h02.35.455,MST_test,2024.2.0,59.88156624271919,2026-01-17 12h02.44.636873 +0530,
71,0,72,n,2.374676199979149,None,72,0,71,282.53841060001287,,,,,,,,,,,,,,,,,,,,,,,,,,,,,,,,,,,,,,,,,,,,,,,,,,282.5224029000092,282.53841060001287,283.0387455000018,283.0219325000071,283.0304727999901,283.0387455000018,283.0387455000018,283.0387455000018,285.42223170000943,Foils\scenes4.jpg,none,n,2.374676199979149,None,,,,,,,,00040,001,2026-01-17_12h02.35.455,MST_test,2024.2.0,59.88156624271919,2026-01-17 12h02.44.636873 +0530,
72,0,73,s,1.6501524000195786,None,73,0,72,285.43846050000866,,,,,,,,,,,,,,,,,,,,,,,,,,,,,,,,,,,,,,,,,,,,,,,,,,285.4223347000079,285.43846050000866,285.93869670000277,285.921952100005,285.93211940000765,285.93869670000277,285.93869670000277,285.93869670000277,287.60550020000665,Objects\158b.jpg,pre,s,1.6501524000195786,None,,,,,,,,00040,001,2026-01-17_12h02.35.455,MST_test,2024.2.0,59.88156624271919,2026-01-17 12h02.44.636873 +0530,
73,0,74,s,2.066744400013704,None,74,0,73,287.6216228000121,,,,,,,,,,,,,,,,,,,,,,,,,,,,,,,,,,,,,,,,,,,,,,,,,,287.60559439999633,287.6216228000121,288.12223050001194,288.10536360001424,288.11898600001587,288.12223050001194,288.12223050001194,288.12223050001194,290.20557109999936,Scenes\051b.jpg,mid,s,2.066744400013704,None,,,,,,,,00040,001,2026-01-17_12h02.35.455,MST_test,2024.2.0,59.88156624271919,2026-01-17 12h02.44.636873 +0530,
74,0,75,s,5.122509500011802,None,75,0,74,290.2216894000012,,,,,,,,,,,,,,,,,,,,,,,,,,,,,,,,,,,,,,,,,,,,,,,,,,290.20566710000276,290.2216894000012,290.7237441999896,290.7053475000139,290.72152630001074,290.7237441999896,290.7237441999896,290.7237441999896,295.85569170000963,Scenes\120b.jpg,post,s,5.122509500011802,None,,,,,,,,00040,001,2026-01-17_12h02.35.455,MST_test,2024.2.0,59.88156624271919,2026-01-17 12h02.44.636873 +0530,
75,0,76,n,1.457596599997487,None,76,0,75,295.8715734000143,,,,,,,,,,,,,,,,,,,,,,,,,,,,,,,,,,,,,,,,,,,,,,,,,,295.85578169999644,295.8715734000143,296.372163299995,296.3554065999924,296.3658095000137,296.372163299995,296.372163299995,296.372163299995,297.83902320000925,Objects\076b.jpg,pre,n,1.457596599997487,None,,,,,,,,00040,001,2026-01-17_12h02.35.455,MST_test,2024.2.0,59.88156624271919,2026-01-17 12h02.44.636873 +0530,
76,0,77,o,1.642283099994529,None,77,0,76,297.85509270001785,,,,,,,,,,,,,,,,,,,,,,,,,,,,,,,,,,,,,,,,,,,,,,,,,,297.83911430000444,297.85509270001785,298.3552764999913,298.338607600017,298.3411288000061,298.3552764999913,298.3552764999913,298.3552764999913,300.00570070001413,Objects\107a.jpg,mid,o,1.642283099994529,None,,,,,,,,00040,001,2026-01-17_12h02.35.455,MST_test,2024.2.0,59.88156624271919,2026-01-17 12h02.44.636873 +0530,
77,0,78,o,1.9767277000064496,None,78,0,77,300.0216606000031,,,,,,,,,,,,,,,,,,,,,,,,,,,,,,,,,,,,,,,,,,,,,,,,,,300.0057927000162,300.0216606000031,300.5245461000013,300.5052633000014,300.5224116000172,300.5245461000013,300.5245461000013,300.5245461000013,302.5057122000144,Scenes\063b.jpg,mid,o,1.9767277000064496,None,,,,,,,,00040,001,2026-01-17_12h02.35.455,MST_test,2024.2.0,59.88156624271919,2026-01-17 12h02.44.636873 +0530,
78,0,79,o,1.2636015999887604,None,79,0,78,302.5216838000051,,,,,,,,,,,,,,,,,,,,,,,,,,,,,,,,,,,,,,,,,,,,,,,,,,302.50580340001034,302.5216838000051,303.0221736000094,303.00534100001096,303.01786029999494,303.0221736000094,303.0221736000094,303.0221736000094,304.2891111999925,Scenes\088a.jpg,post,o,1.2636015999887604,None,,,,,,,,00040,001,2026-01-17_12h02.35.455,MST_test,2024.2.0,59.88156624271919,2026-01-17 12h02.44.636873 +0530,
79,0,80,n,3.463834800000768,None,80,0,79,304.3050815000024,,,,,,,,,,,,,,,,,,,,,,,,,,,,,,,,,,,,,,,,,,,,,,,,,,304.2892050000082,304.3050815000024,304.8057301999943,304.78884709998965,304.7998693000118,304.8057301999943,304.8057301999943,304.8057301999943,308.27218930001254,Scenes\112b.jpg,pre,n,3.463834800000768,None,,,,,,,,00040,001,2026-01-17_12h02.35.455,MST_test,2024.2.0,59.88156624271919,2026-01-17 12h02.44.636873 +0530,
80,0,81,o,4.352761000016471,None,81,0,80,308.2884485000104,,,,,,,,,,,,,,,,,,,,,,,,,,,,,,,,,,,,,,,,,,,,,,,,,,308.27228840001044,308.2884485000104,308.78888440001174,308.77185089999693,308.783613800013,308.78888440001174,308.78888440001174,308.78888440001174,313.15570910001406,Objects\164b.jpg,pre,o,4.352761000016471,None,,,,,,,,00040,001,2026-01-17_12h02.35.455,MST_test,2024.2.0,59.88156624271919,2026-01-17 12h02.44.636873 +0530,
81,0,82,n,1.765458200010471,None,82,0,81,313.171935499995,,,,,,,,,,,,,,,,,,,,,,,,,,,,,,,,,,,,,,,,,,,,,,,,,,313.15579990000697,313.171935499995,313.672055300005,313.6552922000119,313.66608739999356,313.672055300005,313.672055300005,313.672055300005,315.43929280000157,Scenes\096b.jpg,mid,n,1.765458200010471,None,,,,,,,,00040,001,2026-01-17_12h02.35.455,MST_test,2024.2.0,59.88156624271919,2026-01-17 12h02.44.636873 +0530,
82,0,83,n,1.125248800002737,None,83,0,82,315.4551977000083,,,,,,,,,,,,,,,,,,,,,,,,,,,,,,,,,,,,,,,,,,,,,,,,,,315.4393964000046,315.4551977000083,315.96013710001716,315.93865769999684,315.9580247999984,315.96013710001716,315.96013710001716,315.96013710001716,317.0889894000138,Scenes\012b.jpg,mid,n,1.125248800002737,None,,,,,,,,00040,001,2026-01-17_12h02.35.455,MST_test,2024.2.0,59.88156624271919,2026-01-17 12h02.44.636873 +0530,
83,0,84,s,2.527134299976751,None,84,0,83,317.1050991000084,,,,,,,,,,,,,,,,,,,,,,,,,,,,,,,,,,,,,,,,,,,,,,,,,,317.08908269999665,317.1050991000084,317.605927800003,317.5887243000034,317.5988886000123,317.605927800003,317.605927800003,317.605927800003,320.13902440000675,Objects\132b.jpg,pre,s,2.527134299976751,None,,,,,,,,00040,001,2026-01-17_12h02.35.455,MST_test,2024.2.0,59.88156624271919,2026-01-17 12h02.44.636873 +0530,
84,0,85,n,4.4623976000002585,None,85,0,84,320.15514620000613,,,,,,,,,,,,,,,,,,,,,,,,,,,,,,,,,,,,,,,,,,,,,,,,,,320.13938380000764,320.15514620000613,320.6552561999997,320.63863810000475,320.6478839000047,320.6552561999997,320.6552561999997,320.6552561999997,325.12226309999824,Objects\077b.jpg,post,n,4.4623976000002585,None,,,,,,,,00040,001,2026-01-17_12h02.35.455,MST_test,2024.2.0,59.88156624271919,2026-01-17 12h02.44.636873 +0530,
85,0,86,s,1.8038877999933902,None,86,0,85,325.1384154999978,,,,,,,,,,,,,,,,,,,,,,,,,,,,,,,,,,,,,,,,,,,,,,,,,,325.1223522000073,325.1384154999978,325.64152910001576,325.6219335999922,325.6393916000088,325.64152910001576,325.64152910001576,325.64152910001576,327.45570540000335,Scenes\076b.jpg,post,s,1.8038877999933902,None,,,,,,,,00040,001,2026-01-17_12h02.35.455,MST_test,2024.2.0,59.88156624271919,2026-01-17 12h02.44.636873 +0530,
86,0,87,n,1.8016062999959104,None,87,0,86,327.47164170001633,,,,,,,,,,,,,,,,,,,,,,,,,,,,,,,,,,,,,,,,,,,,,,,,,,327.45580270001665,327.47164170001633,327.972394100012,327.95537219999824,327.96607329999097,327.972394100012,327.972394100012,327.972394100012,329.78915759999654,Objects\183b.jpg,post,n,1.8016062999959104,None,,,,,,,,00040,001,2026-01-17_12h02.35.455,MST_test,2024.2.0,59.88156624271919,2026-01-17 12h02.44.636873 +0530,
87,0,88,s,1.3876695999933872,None,88,0,87,329.80514630000107,,,,,,,,,,,,,,,,,,,,,,,,,,,,,,,,,,,,,,,,,,,,,,,,,,329.789247800014,329.80514630000107,330.30546950001735,330.2887965000118,330.29831050001667,330.30546950001735,330.30546950001735,330.30546950001735,331.70571889998973,Objects\039b.jpg,mid,s,1.3876695999933872,None,,,,,,,,00040,001,2026-01-17_12h02.35.455,MST_test,2024.2.0,59.88156624271919,2026-01-17 12h02.44.636873 +0530,
88,0,89,n,9.022509700007504,None,89,0,88,331.72187300000223,,,,,,,,,,,,,,,,,,,,,,,,,,,,,,,,,,,,,,,,,,,,,,,,,,331.7058206000074,331.72187300000223,332.2224065999908,332.2055706999963,332.21386099999654,332.2224065999908,332.2224065999908,332.2224065999908,341.2557158000127,Scenes\131a.jpg,pre,n,9.022509700007504,None,,,,,,,,00040,001,2026-01-17_12h02.35.455,MST_test,2024.2.0,59.88156624271919,2026-01-17 12h02.44.636873 +0530,
89,0,90,s,4.457308400014881,None,90,0,89,341.2718434999988,,,,,,,,,,,,,,,,,,,,,,,,,,,,,,,,,,,,,,,,,,,,,,,,,,341.2558102000039,341.2718434999988,341.77227730001323,341.7553729999927,341.75864390001516,341.77227730001323,341.77227730001323,341.77227730001323,346.23902959999396,Objects\169a.jpg,mid,s,4.457308400014881,None,,,,,,,,00040,001,2026-01-17_12h02.35.455,MST_test,2024.2.0,59.88156624271919,2026-01-17 12h02.44.636873 +0530,
90,0,91,n,1.4821613999956753,None,91,0,90,346.2552188000118,,,,,,,,,,,,,,,,,,,,,,,,,,,,,,,,,,,,,,,,,,,,,,,,,,346.2391276000126,346.2552188000118,346.7557930999901,346.7388503999973,346.75119310000446,346.7557930999901,346.7557930999901,346.7557930999901,348.23912690000725,Scenes\046a.jpg,pre,n,1.4821613999956753,None,,,,,,,,00040,001,2026-01-17_12h02.35.455,MST_test,2024.2.0,59.88156624271919,2026-01-17 12h02.44.636873 +0530,
91,0,92,s,2.34579130000202,None,92,0,91,348.255227000016,,,,,,,,,,,,,,,,,,,,,,,,,,,,,,,,,,,,,,,,,,,,,,,,,,348.2392178000009,348.255227000016,348.75591199999326,348.73879500001203,348.748656700016,348.75591199999326,348.75591199999326,348.75591199999326,351.1058241999999,Scenes\174a.jpg,pre,s,2.34579130000202,None,,,,,,,,00040,001,2026-01-17_12h02.35.455,MST_test,2024.2.0,59.88156624271919,2026-01-17 12h02.44.636873 +0530,
92,0,93,n,3.7909983999852557,None,93,0,92,351.12175029999344,,,,,,,,,,,,,,,,,,,,,,,,,,,,,,,,,,,,,,,,,,,,,,,,,,351.1059191999957,351.12175029999344,351.62235290001263,351.6054943999916,351.6145449000178,351.62235290001263,351.62235290001263,351.62235290001263,355.4225061000034,Foils\scenes2.jpg,none,n,3.7909983999852557,None,,,,,,,,00040,001,2026-01-17_12h02.35.455,MST_test,2024.2.0,59.88156624271919,2026-01-17 12h02.44.636873 +0530,
93,0,94,n,3.8826263999799266,None,94,0,93,355.43847399999504,,,,,,,,,,,,,,,,,,,,,,,,,,,,,,,,,,,,,,,,,,,,,,,,,,355.42259649999323,355.43847399999504,355.93886769999517,355.9221411999897,355.93198150000535,355.93886769999517,355.93886769999517,355.93886769999517,359.822276699997,Scenes\190a.jpg,mid,n,3.8826263999799266,None,,,,,,,,00040,001,2026-01-17_12h02.35.455,MST_test,2024.2.0,59.88156624271919,2026-01-17 12h02.44.636873 +0530,
94,0,95,n,1.314379999996163,None,95,0,94,359.838608799997,,,,,,,,,,,,,,,,,,,,,,,,,,,,,,,,,,,,,,,,,,,,,,,,,,359.82237800001167,359.838608799997,360.3389421000029,360.3218896999897,360.3305964000174,360.3389421000029,360.3389421000029,360.3389421000029,361.6557822000177,Foils\scenes20.jpg,none,n,1.314379999996163,None,,,,,,,,00040,001,2026-01-17_12h02.35.455,MST_test,2024.2.0,59.88156624271919,2026-01-17 12h02.44.636873 +0530,
95,0,96,o,2.1693768999830354,None,96,0,95,361.67166250001173,,,,,,,,,,,,,,,,,,,,,,,,,,,,,,,,,,,,,,,,,,,,,,,,,,361.65589359999285,361.67166250001173,362.1720341000182,362.1552980999986,362.15849920001347,362.1720341000182,362.1720341000182,362.1720341000182,364.35570220000227,Objects\106a.jpg,pre,o,2.1693768999830354,None,,,,,,,,00040,001,2026-01-17_12h02.35.455,MST_test,2024.2.0,59.88156624271919,2026-01-17 12h02.44.636873 +0530,
96,0,97,o,5.493875099986326,None,97,0,96,364.37165139999706,,,,,,,,,,,,,,,,,,,,,,,,,,,,,,,,,,,,,,,,,,,,,,,,,,364.3557969999965,364.37165139999706,364.8722803000128,364.8554576000024,364.8649965999939,364.8722803000128,364.8722803000128,364.8722803000128,370.37230580000323,Scenes\070a.jpg,pre,o,5.493875099986326,None,,,,,,,,00040,001,2026-01-17_12h02.35.455,MST_test,2024.2.0,59.88156624271919,2026-01-17 12h02.44.636873 +0530,
97,0,98,o,1.5013885999796912,None,98,0,97,370.3885669000156,,,,,,,,,,,,,,,,,,,,,,,,,,,,,,,,,,,,,,,,,,,,,,,,,,370.37240120000206,370.3885669000156,370.8889528000145,370.8719026000181,370.8751368999947,370.8889528000145,370.8889528000145,370.8889528000145,372.4057248000172,Objects\073a.jpg,post,o,1.5013885999796912,None,,,,,,,,00040,001,2026-01-17_12h02.35.455,MST_test,2024.2.0,59.88156624271919,2026-01-17 12h02.44.636873 +0530,
98,0,99,s,1.419775300018955,None,99,0,98,372.4216359000129,,,,,,,,,,,,,,,,,,,,,,,,,,,,,,,,,,,,,,,,,,,,,,,,,,372.40582889999496,372.4216359000129,372.9220791000116,372.90541289999965,372.91619429999264,372.9220791000116,372.9220791000116,372.9220791000116,374.355618600006,Objects\114b.jpg,pre,s,1.419775300018955,None,,,,,,,,00040,001,2026-01-17_12h02.35.455,MST_test,2024.2.0,59.88156624271919,2026-01-17 12h02.44.636873 +0530,
99,0,100,o,1.6369290000002366,None,100,0,99,374.37157750001643,,,,,,,,,,,,,,,,,,,,,,,,,,,,,,,,,,,,,,,,,,,,,,,,,,374.3557109000103,374.37157750001643,374.87191899999743,374.8553696000017,374.8579738000117,374.87191899999743,374.87191899999743,374.87191899999743,376.522220200015,Objects\033a.jpg,post,o,1.6369290000002366,None,,,,,,,,00040,001,2026-01-17_12h02.35.455,MST_test,2024.2.0,59.88156624271919,2026-01-17 12h02.44.636873 +0530,
100,0,101,o,1.2545173999969848,None,101,0,100,376.53844070000923,,,,,,,,,,,,,,,,,,,,,,,,,,,,,,,,,,,,,,,,,,,,,,,,,,376.5223138000001,376.53844070000923,377.0387208000175,377.0218826000055,377.0246957000054,377.0387208000175,377.0387208000175,377.0387208000175,378.30587620000006,Objects\102a.jpg,pre,o,1.2545173999969848,None,,,,,,,,00040,001,2026-01-17_12h02.35.455,MST_test,2024.2.0,59.88156624271919,2026-01-17 12h02.44.636873 +0530,
101,0,102,n,4.015669899992645,None,102,0,101,378.3216672000126,,,,,,,,,,,,,,,,,,,,,,,,,,,,,,,,,,,,,,,,,,,,,,,,,,378.3059690000082,378.3216672000126,378.82190199999604,378.80552460000035,378.81516500000726,378.82190199999604,378.82190199999604,378.82190199999604,382.8392964999948,Foils\017a.jpg,none,n,4.015669899992645,None,,,,,,,,00040,001,2026-01-17_12h02.35.455,MST_test,2024.2.0,59.88156624271919,2026-01-17 12h02.44.636873 +0530,
102,0,103,o,2.273063100001309,None,103,0,102,382.85516999999527,,,,,,,,,,,,,,,,,,,,,,,,,,,,,,,,,,,,,,,,,,,,,,,,,,382.83939649999957,382.85516999999527,383.35578760001226,383.3387573999935,383.34885820001364,383.35578760001226,383.35578760001226,383.35578760001226,385.6390944000159,Scenes\103a.jpg,mid,o,2.273063100001309,None,,,,,,,,00040,001,2026-01-17_12h02.35.455,MST_test,2024.2.0,59.88156624271919,2026-01-17 12h02.44.636873 +0530,
103,0,104,n,6.946120200009318,None,104,0,103,385.6551093000162,,,,,,,,,,,,,,,,,,,,,,,,,,,,,,,,,,,,,,,,,,,,,,,,,,385.63918759999797,385.6551093000162,386.15561519999756,386.1387747999979,386.1485759000061,386.15561519999756,386.15561519999756,386.15561519999756,393.105865599995,Foils\074a.jpg,none,n,6.946120200009318,None,,,,,,,,00040,001,2026-01-17_12h02.35.455,MST_test,2024.2.0,59.88156624271919,2026-01-17 12h02.44.636873 +0530,
104,0,105,n,1.7683055000088643,None,105,0,104,393.12184209999396,,,,,,,,,,,,,,,,,,,,,,,,,,,,,,,,,,,,,,,,,,,,,,,,,,393.1059671000112,393.12184209999396,393.62221520001185,393.60536330001196,393.61765410000226,393.62221520001185,393.62221520001185,393.62221520001185,395.40570550001576,Scenes\155b.jpg,mid,n,1.7683055000088643,None,,,,,,,,00040,001,2026-01-17_12h02.35.455,MST_test,2024.2.0,59.88156624271919,2026-01-17 12h02.44.636873 +0530,
105,0,106,o,1.8428548000229057,None,106,0,105,395.42165160001605,,,,,,,,,,,,,,,,,,,,,,,,,,,,,,,,,,,,,,,,,,,,,,,,,,395.40580249999766,395.42165160001605,395.9221797999926,395.9054304000165,395.91238560000784,395.9221797999926,395.9221797999926,395.9221797999926,397.77228030000697,Scenes\185a.jpg,post,o,1.8428548000229057,None,,,,,,,,00040,001,2026-01-17_12h02.35.455,MST_test,2024.2.0,59.88156624271919,2026-01-17 12h02.44.636873 +0530,
106,0,107,o,1.1648979999881703,None,107,0,106,397.78839870000957,,,,,,,,,,,,,,,,,,,,,,,,,,,,,,,,,,,,,,,,,,,,,,,,,,397.77237270001206,397.78839870000957,398.28892340001767,398.27200090000406,398.27550540000084,398.28892340001767,398.28892340001767,398.28892340001767,399.4557149000175,Objects\070a.jpg,pre,o,1.1648979999881703,None,,,,,,,,00040,001,2026-01-17_12h02.35.455,MST_test,2024.2.0,59.88156624271919,2026-01-17 12h02.44.636873 +0530,
107,0,108,o,0.953773999994155,None,108,0,107,399.47162560001016,,,,,,,,,,,,,,,,,,,,,,,,,,,,,,,,,,,,,,,,,,,,,,,,,,399.4558076999965,399.47162560001016,399.97180150001077,399.9555686000094,399.9650694000011,399.97180150001077,399.97180150001077,399.97180150001077,400.9390782999981,Objects\185b.jpg,post,o,0.953773999994155,None,,,,,,,,00040,001,2026-01-17_12h02.35.455,MST_test,2024.2.0,59.88156624271919,2026-01-17 12h02.44.636873 +0530,
108,0,109,s,2.31032730001607,None,109,0,108,400.95512379999855,,,,,,,,,,,,,,,,,,,,,,,,,,,,,,,,,,,,,,,,,,,,,,,,,,400.93917100000544,400.95512379999855,401.45530590001727,401.43874070001766,401.44127569999546,401.45530590001727,401.45530590001727,401.45530590001727,403.77227750001475,Objects\064a.jpg,pre,s,2.31032730001607,None,,,,,,,,00040,001,2026-01-17_12h02.35.455,MST_test,2024.2.0,59.88156624271919,2026-01-17 12h02.44.636873 +0530,
109,0,110,o,2.5051627999928314,None,110,0,109,403.7884330000088,,,,,,,,,,,,,,,,,,,,,,,,,,,,,,,,,,,,,,,,,,,,,,,,,,403.7723743999959,403.7884330000088,404.29161010001553,404.2719350999978,404.28955680000945,404.29161010001553,404.29161010001553,404.29161010001553,406.80569999999716,Scenes\035b.jpg,pre,o,2.5051627999928314,None,,,,,,,,00040,001,2026-01-17_12h02.35.455,MST_test,2024.2.0,59.88156624271919,2026-01-17 12h02.44.636873 +0530,
110,0,111,n,1.251310999999987,None,111,0,110,406.82161970000016,,,,,,,,,,,,,,,,,,,,,,,,,,,,,,,,,,,,,,,,,,,,,,,,,,406.805803700001,406.82161970000016,407.3222641000175,407.30537509999704,407.31929189999937,407.3222641000175,407.3222641000175,407.3222641000175,408.5890572000062,Scenes\168b.jpg,mid,n,1.251310999999987,None,,,,,,,,00040,001,2026-01-17_12h02.35.455,MST_test,2024.2.0,59.88156624271919,2026-01-17 12h02.44.636873 +0530,
111,0,112,o,1.6837689999956638,None,112,0,111,408.60509480000474,,,,,,,,,,,,,,,,,,,,,,,,,,,,,,,,,,,,,,,,,,,,,,,,,,408.58915200000047,408.60509480000474,409.1056011999899,409.0887022000097,409.0918864000123,409.1056011999899,409.1056011999899,409.1056011999899,410.7903597000113,Objects\174a.jpg,pre,o,1.6837689999956638,None,,,,,,,,00040,001,2026-01-17_12h02.35.455,MST_test,2024.2.0,59.88156624271919,2026-01-17 12h02.44.636873 +0530,
112,0,113,n,4.642567299975781,None,113,0,112,410.8053087000153,,,,,,,,,,,,,,,,,,,,,,,,,,,,,,,,,,,,,,,,,,,,,,,,,,410.7904659000051,410.8053087000153,411.30637380000553,411.28866730001755,411.3041696000146,411.30637380000553,411.30637380000553,411.30637380000553,415.95564379999996,Scenes\167b.jpg,pre,n,4.642567299975781,None,,,,,,,,00040,001,2026-01-17_12h02.35.455,MST_test,2024.2.0,59.88156624271919,2026-01-17 12h02.44.636873 +0530,
113,0,114,o,2.9968031000171322,None,114,0,113,415.9717253000126,,,,,,,,,,,,,,,,,,,,,,,,,,,,,,,,,,,,,,,,,,,,,,,,,,415.9557417000178,415.9717253000126,416.4721747000003,416.4559431000089,416.45918629999505,416.4721747000003,416.4721747000003,416.4721747000003,419.47227810000186,Objects\141a.jpg,pre,o,2.9968031000171322,None,,,,,,,,00040,001,2026-01-17_12h02.35.455,MST_test,2024.2.0,59.88156624271919,2026-01-17 12h02.44.636873 +0530,
114,0,115,n,1.728540799987968,None,115,0,114,419.4884575000033,,,,,,,,,,,,,,,,,,,,,,,,,,,,,,,,,,,,,,,,,,,,,,,,,,419.4723692999978,419.4884575000033,419.9889853000059,419.9719973000174,419.979404600017,419.9889853000059,419.9889853000059,419.9889853000059,421.722210500011,Scenes\138a.jpg,post,n,1.728540799987968,None,,,,,,,,00040,001,2026-01-17_12h02.35.455,MST_test,2024.2.0,59.88156624271919,2026-01-17 12h02.44.636873 +0530,
115,0,116,n,3.8789381999813486,None,116,0,115,421.7384638999938,,,,,,,,,,,,,,,,,,,,,,,,,,,,,,,,,,,,,,,,,,,,,,,,,,421.72230090000085,421.7384638999938,422.2388856000034,422.2219095000182,422.231492299994,422.2388856000034,422.2388856000034,422.2388856000034,426.12226619999274,Foils\082a.jpg,none,n,3.8789381999813486,None,,,,,,,,00040,001,2026-01-17_12h02.35.455,MST_test,2024.2.0,59.88156624271919,2026-01-17 12h02.44.636873 +0530,
116,0,117,s,2.4145642000075895,None,117,0,116,426.13846300001023,,,,,,,,,,,,,,,,,,,,,,,,,,,,,,,,,,,,,,,,,,,,,,,,,,426.1223578999925,426.13846300001023,426.63861379999435,426.62195910001174,426.6318720999989,426.63861379999435,426.63861379999435,426.63861379999435,429.0556041999953,Objects\082b.jpg,pre,s,2.4145642000075895,None,,,,,,,,00040,001,2026-01-17_12h02.35.455,MST_test,2024.2.0,59.88156624271919,2026-01-17 12h02.44.636873 +0530,
117,0,118,o,1.649504499975592,None,118,0,117,429.0717117000022,,,,,,,,,,,,,,,,,,,,,,,,,,,,,,,,,,,,,,,,,,,,,,,,,,429.05569430001196,429.0717117000022,429.57226010001614,429.55544520000694,429.5613396000117,429.57226010001614,429.57226010001614,429.57226010001614,431.2224728000001,Scenes\191a.jpg,post,o,1.649504499975592,None,,,,,,,,00040,001,2026-01-17_12h02.35.455,MST_test,2024.2.0,59.88156624271919,2026-01-17 12h02.44.636873 +0530,
118,0,119,o,3.593947199988179,None,119,0,118,431.23847149999347,,,,,,,,,,,,,,,,,,,,,,,,,,,,,,,,,,,,,,,,,,,,,,,,,,431.222562800016,431.23847149999347,431.73898170000757,431.7220601000008,431.73146000001,431.73898170000757,431.73898170000757,431.73898170000757,435.33907049999107,Scenes\143a.jpg,post,o,3.593947199988179,None,,,,,,,,00040,001,2026-01-17_12h02.35.455,MST_test,2024.2.0,59.88156624271919,2026-01-17 12h02.44.636873 +0530,
119,0,120,o,1.0130487000278663,None,120,0,119,435.3550923000148,,,,,,,,,,,,,,,,,,,,,,,,,,,,,,,,,,,,,,,,,,,,,,,,,,435.3391612000123,435.3550923000148,435.8558502999949,435.83888220001245,435.84995639999397,435.8558502999949,435.8558502999949,435.8558502999949,436.87229140001,Scenes\130a.jpg,pre,o,1.0130487000278663,None,,,,,,,,00040,001,2026-01-17_12h02.35.455,MST_test,2024.2.0,59.88156624271919,2026-01-17 12h02.44.636873 +0530,
120,0,121,o,1.8006925000227056,None,121,0,120,436.88845880000736,,,,,,,,,,,,,,,,,,,,,,,,,,,,,,,,,,,,,,,,,,,,,,,,,,436.87238290000823,436.88845880000736,,437.3723508999974,437.3758438999939,437.3889884999953,437.3889884999953,437.3889884999953,439.20574269999634,Objects\052a.jpg,mid,o,1.8006925000227056,None,,,,,,,,00040,001,2026-01-17_12h02.35.455,MST_test,2024.2.0,59.88156624271919,2026-01-17 12h02.44.636873 +0530,
121,0,122,n,1.180083299987018,None,122,0,121,439.2216366000066,,,,,,,,,,,,,,,,,,,,,,,,,,,,,,,,,,,,,,,,,,,,,,,,,,439.2058326000115,439.2216366000066,439.728826400009,439.7053919000027,439.7263452000043,439.728826400009,439.728826400009,439.728826400009,440.9222383000015,Foils\scenes28.jpg,none,n,1.180083299987018,None,,,,,,,,00040,001,2026-01-17_12h02.35.455,MST_test,2024.2.0,59.88156624271919,2026-01-17 12h02.44.636873 +0530,
122,0,123,n,1.5589024999935646,None,123,0,122,440.93846599999233,,,,,,,,,,,,,,,,,,,,,,,,,,,,,,,,,,,,,,,,,,,,,,,,,,440.9223289999936,440.93846599999233,441.43936039999244,441.4222773000074,441.4366798000119,441.43936039999244,441.43936039999244,441.43936039999244,443.0057196000125,Scenes\028b.jpg,pre,n,1.5589024999935646,None,,,,,,,,00040,001,2026-01-17_12h02.35.455,MST_test,2024.2.0,59.88156624271919,2026-01-17 12h02.44.636873 +0530,
123,0,124,n,1.5075997000094503,None,124,0,123,443.021730700013,,,,,,,,,,,,,,,,,,,,,,,,,,,,,,,,,,,,,,,,,,,,,,,,,,443.00581780000357,443.021730700013,443.5220637000166,443.5053931000002,443.51517669999157,443.5220637000166,443.5220637000166,443.5220637000166,445.03912649999256,Objects\041b.jpg,pre,n,1.5075997000094503,None,,,,,,,,00040,001,2026-01-17_12h02.35.455,MST_test,2024.2.0,59.88156624271919,2026-01-17 12h02.44.636873 +0530,
124,0,125,n,0.4979472999984864,None,125,0,124,445.0551373999915,,,,,,,,,,,,,,,,,,,,,,,,,,,,,,,,,,,,,,,,,,,,,,,,,,445.03921809999156,445.0551373999915,445.55534890000126,445.5387098999927,445.5477544000023,445.55534890000126,445.55534890000126,445.55534890000126,446.0557739000069,Foils\042a.jpg,none,n,0.4979472999984864,None,,,,,,,,00040,001,2026-01-17_12h02.35.455,MST_test,2024.2.0,59.88156624271919,2026-01-17 12h02.44.636873 +0530,
125,0,126,o,1.385726499982411,None,126,0,125,446.07173689999036,,,,,,,,,,,,,,,,,,,,,,,,,,,,,,,,,,,,,,,,,,,,,,,,,,446.05586590000894,446.07173689999036,446.5718801000039,446.5553835000028,446.558030300017,446.5718801000039,446.5718801000039,446.5718801000039,447.9724322000111,Objects\188a.jpg,post,o,1.385726499982411,None,,,,,,,,00040,001,2026-01-17_12h02.35.455,MST_test,2024.2.0,59.88156624271919,2026-01-17 12h02.44.636873 +0530,
126,0,127,s,1.8449258000182454,None,127,0,126,447.9885568000027,,,,,,,,,,,,,,,,,,,,,,,,,,,,,,,,,,,,,,,,,,,,,,,,,,447.9725344000035,447.9885568000027,448.48877009999705,448.47215829999186,448.4819676000043,448.48877009999705,448.48877009999705,448.48877009999705,450.339163800003,Objects\043b.jpg,mid,s,1.8449258000182454,None,,,,,,,,00040,001,2026-01-17_12h02.35.455,MST_test,2024.2.0,59.88156624271919,2026-01-17 12h02.44.636873 +0530,
127,0,128,o,1.4053923999890685,None,128,0,127,450.3552224000159,,,,,,,,,,,,,,,,,,,,,,,,,,,,,,,,,,,,,,,,,,,,,,,,,,450.33925449999515,450.3552224000159,450.8554678999935,450.8387980000116,450.8417855000007,450.8554678999935,450.8554678999935,450.8554678999935,452.27231289999327,Objects\156a.jpg,mid,o,1.4053923999890685,None,,,,,,,,00040,001,2026-01-17_12h02.35.455,MST_test,2024.2.0,59.88156624271919,2026-01-17 12h02.44.636873 +0530,
128,0,129,o,1.6398601999972016,None,129,0,128,452.2885954999947,,,,,,,,,,,,,,,,,,,,,,,,,,,,,,,,,,,,,,,,,,,,,,,,,,452.27240300000994,452.2885954999947,452.78892009999254,452.7721142999944,452.78252229999634,452.78892009999254,452.78892009999254,452.78892009999254,454.43920590000926,Scenes\016b.jpg,post,o,1.6398601999972016,None,,,,,,,,00040,001,2026-01-17_12h02.35.455,MST_test,2024.2.0,59.88156624271919,2026-01-17 12h02.44.636873 +0530,
129,0,130,n,1.0731952000060119,None,130,0,129,454.45525450000423,,,,,,,,,,,,,,,,,,,,,,,,,,,,,,,,,,,,,,,,,,,,,,,,,,454.4392988999898,454.45525450000423,454.9557094000047,454.9388498000044,454.9478264999925,454.9557094000047,454.9557094000047,454.9557094000047,456.0391287000093,Foils\scenes19.jpg,none,n,1.0731952000060119,None,,,,,,,,00040,001,2026-01-17_12h02.35.455,MST_test,2024.2.0,59.88156624271919,2026-01-17 12h02.44.636873 +0530,
130,0,131,n,1.586510900000576,None,131,0,130,456.0552551000146,,,,,,,,,,,,,,,,,,,,,,,,,,,,,,,,,,,,,,,,,,,,,,,,,,456.0392195000022,456.0552551000146,456.55555459999596,456.53897799999686,456.542380400002,456.55555459999596,456.55555459999596,456.55555459999596,458.15577720000874,Objects\187a.jpg,post,n,1.586510900000576,None,,,,,,,,00040,001,2026-01-17_12h02.35.455,MST_test,2024.2.0,59.88156624271919,2026-01-17 12h02.44.636873 +0530,
131,0,132,s,2.6445601000159513,None,132,0,131,458.1718976999982,,,,,,,,,,,,,,,,,,,,,,,,,,,,,,,,,,,,,,,,,,,,,,,,,,458.15586749999784,458.1718976999982,458.6723142999981,458.6554268000182,458.6647184000176,458.6723142999981,458.6723142999981,458.6723142999981,461.32238349999534,Foils\scenes8.jpg,none,s,2.6445601000159513,None,,,,,,,,00040,001,2026-01-17_12h02.35.455,MST_test,2024.2.0,59.88156624271919,2026-01-17 12h02.44.636873 +0530,
132,0,133,n,5.782889299996896,None,133,0,132,461.3385939,,,,,,,,,,,,,,,,,,,,,,,,,,,,,,,,,,,,,,,,,,,,,,,,,,461.3224751999951,461.3385939,461.83879660000093,461.82206500001485,461.83196619999944,461.83879660000093,461.83879660000093,461.83879660000093,467.6224189999921,Foils\scenes11.jpg,none,n,5.782889299996896,None,,,,,,,,00040,001,2026-01-17_12h02.35.455,MST_test,2024.2.0,59.88156624271919,2026-01-17 12h02.44.636873 +0530,
133,0,134,s,1.234275599999819,None,134,0,133,467.63850719999755,,,,,,,,,,,,,,,,,,,,,,,,,,,,,,,,,,,,,,,,,,,,,,,,,,467.62251139999717,467.63850719999755,468.1391999000043,468.12212360001286,468.13626349999686,468.1391999000043,468.1391999000043,468.1391999000043,469.38946579999174,Scenes\178b.jpg,mid,s,1.234275599999819,None,,,,,,,,00040,001,2026-01-17_12h02.35.455,MST_test,2024.2.0,59.88156624271919,2026-01-17 12h02.44.636873 +0530,
134,0,135,o,1.2278591000067536,None,135,0,134,469.40528040000936,,,,,,,,,,,,,,,,,,,,,,,,,,,,,,,,,,,,,,,,,,,,,,,,,,469.38956410001265,469.40528040000936,469.9058273000119,469.8887603000039,469.8984441999928,469.9058273000119,469.9058273000119,469.9058273000119,471.1391617000045,Scenes\104a.jpg,mid,o,1.2278591000067536,None,,,,,,,,00040,001,2026-01-17_12h02.35.455,MST_test,2024.2.0,59.88156624271919,2026-01-17 12h02.44.636873 +0530,
135,0,136,o,1.2378540000063367,None,136,0,135,471.15523540001595,,,,,,,,,,,,,,,,,,,,,,,,,,,,,,,,,,,,,,,,,,,,,,,,,,471.13925130001735,471.15523540001595,471.65573420000146,471.63894629999413,471.6493086999981,471.65573420000146,471.65573420000146,471.65573420000146,472.9058210999938,Objects\046b.jpg,post,o,1.2378540000063367,None,,,,,,,,00040,001,2026-01-17_12h02.35.455,MST_test,2024.2.0,59.88156624271919,2026-01-17 12h02.44.636873 +0530,
136,0,137,n,2.558920000010403,None,137,0,136,472.92193519999273,,,,,,,,,,,,,,,,,,,,,,,,,,,,,,,,,,,,,,,,,,,,,,,,,,472.9059111000097,472.92193519999273,473.42244819999905,473.4055003999965,473.4152177000069,473.42244819999905,473.42244819999905,473.42244819999905,475.9891826999956,Scenes\033b.jpg,post,n,2.558920000010403,None,,,,,,,,00040,001,2026-01-17_12h02.35.455,MST_test,2024.2.0,59.88156624271919,2026-01-17 12h02.44.636873 +0530,
137,0,138,n,2.8833372000081,None,138,0,137,476.0052177000034,,,,,,,,,,,,,,,,,,,,,,,,,,,,,,,,,,,,,,,,,,,,,,,,,,475.9892799000081,476.0052177000034,476.50586669999757,476.4887539999909,476.4990517999977,476.50586669999757,476.50586669999757,476.50586669999757,479.40584910000325,Scenes\086a.jpg,post,n,2.8833372000081,None,,,,,,,,00040,001,2026-01-17_12h02.35.455,MST_test,2024.2.0,59.88156624271919,2026-01-17 12h02.44.636873 +0530,
138,0,139,o,1.3709420999803115,None,139,0,138,479.42192900000373,,,,,,,,,,,,,,,,,,,,,,,,,,,,,,,,,,,,,,,,,,,,,,,,,,479.40594019999844,479.42192900000373,479.9220323000045,479.9054956000182,479.9137530000007,479.9220323000045,479.9220323000045,479.9220323000045,481.3057048000046,Scenes\093a.jpg,post,o,1.3709420999803115,None,,,,,,,,00040,001,2026-01-17_12h02.35.455,MST_test,2024.2.0,59.88156624271919,2026-01-17 12h02.44.636873 +0530,
139,0,140,o,2.103428799979156,None,140,0,139,481.32189240001026,,,,,,,,,,,,,,,,,,,,,,,,,,,,,,,,,,,,,,,,,,,,,,,,,,481.3057944000175,481.32189240001026,481.8223177000182,481.8054380000103,481.80860160000157,481.8223177000182,481.8223177000182,481.8223177000182,483.9391315999965,Objects\168a.jpg,pre,o,2.103428799979156,None,,,,,,,,00040,001,2026-01-17_12h02.35.455,MST_test,2024.2.0,59.88156624271919,2026-01-17 12h02.44.636873 +0530,
140,0,141,s,1.1652698000252713,None,141,0,140,483.95525009999983,,,,,,,,,,,,,,,,,,,,,,,,,,,,,,,,,,,,,,,,,,,,,,,,,,483.93922090000706,483.95525009999983,484.45554270001594,484.43896639999,484.4495334000094,484.45554270001594,484.45554270001594,484.45554270001594,485.6223444000061,Objects\034b.jpg,pre,s,1.1652698000252713,None,,,,,,,,00040,001,2026-01-17_12h02.35.455,MST_test,2024.2.0,59.88156624271919,2026-01-17 12h02.44.636873 +0530,
141,0,142,s,2.418745900009526,None,142,0,141,485.6385908999946,,,,,,,,,,,,,,,,,,,,,,,,,,,,,,,,,,,,,,,,,,,,,,,,,,485.62243560000206,485.6385908999946,486.1386744999909,486.12202400001115,486.13082220000797,486.1386744999909,486.1386744999909,486.1386744999909,488.57249680001405,Objects\161b.jpg,pre,s,2.418745900009526,None,,,,,,,,00040,001,2026-01-17_12h02.35.455,MST_test,2024.2.0,59.88156624271919,2026-01-17 12h02.44.636873 +0530,
142,0,143,o,1.3727485999988858,None,143,0,142,488.58853519998956,,,,,,,,,,,,,,,,,,,,,,,,,,,,,,,,,,,,,,,,,,,,,,,,,,488.57258659999934,488.58853519998956,489.08874929999,489.07218990000547,489.0818688000145,489.08874929999,489.08874929999,489.08874929999,490.4725919000048,Objects\023b.jpg,post,o,1.3727485999988858,None,,,,,,,,00040,001,2026-01-17_12h02.35.455,MST_test,2024.2.0,59.88156624271919,2026-01-17 12h02.44.636873 +0530,
143,0,144,n,1.9768928999837954,None,144,0,143,490.48857790001784,,,,,,,,,,,,,,,,,,,,,,,,,,,,,,,,,,,,,,,,,,,,,,,,,,490.47268900001654,490.48857790001784,490.98884150001686,490.9720532000065,490.98311130001093,490.98884150001686,490.98884150001686,490.98884150001686,492.9723582000006,Objects\065b.jpg,post,n,1.9768928999837954,None,,,,,,,,00040,001,2026-01-17_12h02.35.455,MST_test,2024.2.0,59.88156624271919,2026-01-17 12h02.44.636873 +0530,
144,0,145,o,1.204306200001156,None,145,0,144,492.9886155000131,,,,,,,,,,,,,,,,,,,,,,,,,,,,,,,,,,,,,,,,,,,,,,,,,,492.9724518000148,492.9886155000131,493.4889844999998,493.47216120001394,493.4851815000002,493.4889844999998,493.4889844999998,493.4889844999998,494.7060584000137,Scenes\071b.jpg,mid,o,1.204306200001156,None,,,,,,,,00040,001,2026-01-17_12h02.35.455,MST_test,2024.2.0,59.88156624271919,2026-01-17 12h02.44.636873 +0530,
145,0,146,n,3.4359445000009146,None,146,0,145,494.72187320000376,,,,,,,,,,,,,,,,,,,,,,,,,,,,,,,,,,,,,,,,,,,,,,,,,,494.7061728000117,494.72187320000376,495.22544050001306,495.2054372999992,495.22327469999436,495.22544050001306,495.22544050001306,495.22544050001306,498.67250590000185,Scenes\054b.jpg,mid,n,3.4359445000009146,None,,,,,,,,00040,001,2026-01-17_12h02.35.455,MST_test,2024.2.0,59.88156624271919,2026-01-17 12h02.44.636873 +0530,
146,0,147,o,1.2885049999749754,None,147,0,146,498.6885125999979,,,,,,,,,,,,,,,,,,,,,,,,,,,,,,,,,,,,,,,,,,,,,,,,,,498.6725979000039,498.6885125999979,499.1889359999914,499.1719901000033,499.17530970001826,499.1889359999914,499.1889359999914,499.1889359999914,500.48941460001515,Objects\026a.jpg,mid,o,1.2885049999749754,None,,,,,,,,00040,001,2026-01-17_12h02.35.455,MST_test,2024.2.0,59.88156624271919,2026-01-17 12h02.44.636873 +0530,
147,0,148,o,1.2003772000025492,None,148,0,147,500.5052633000014,,,,,,,,,,,,,,,,,,,,,,,,,,,,,,,,,,,,,,,,,,,,,,,,,,500.4895189999952,500.5052633000014,501.00540860000183,500.988740300003,500.99160840001423,501.00540860000183,501.00540860000183,501.00540860000183,502.2065699000086,Objects\085a.jpg,mid,o,1.2003772000025492,None,,,,,,,,00040,001,2026-01-17_12h02.35.455,MST_test,2024.2.0,59.88156624271919,2026-01-17 12h02.44.636873 +0530,
148,0,149,o,0.778981899988139,None,149,0,148,502.2219077000045,,,,,,,,,,,,,,,,,,,,,,,,,,,,,,,,,,,,,,,,,,,,,,,,,,502.20666190001066,502.2219077000045,502.72203000000445,502.70558169999276,502.71504929999355,502.72203000000445,502.72203000000445,502.72203000000445,503.5057441999961,Objects\125b.jpg,post,o,0.778981899988139,None,,,,,,,,00040,001,2026-01-17_12h02.35.455,MST_test,2024.2.0,59.88156624271919,2026-01-17 12h02.44.636873 +0530,
149,0,150,n,1.5396054000011645,None,150,0,149,503.5219419999921,,,,,,,,,,,,,,,,,,,,,,,,,,,,,,,,,,,,,,,,,,,,,,,,,,503.50584399999934,503.5219419999921,504.0259583000152,504.00562770001125,504.0238600000157,504.0259583000152,504.0259583000152,504.0259583000152,505.57250609999755,Scenes\045b.jpg,post,n,1.5396054000011645,None,,,,,,,,00040,001,2026-01-17_12h02.35.455,MST_test,2024.2.0,59.88156624271919,2026-01-17 12h02.44.636873 +0530,
,,,,,,,,,,,,,,,,,,,,,,,,,,,,,,,,,,,,,,,,,,,,,,,,,,,,,,,,,,,,,,,,,,,,,,,,,505.5725705999939,505.58855899999617,505.58855899999617,506.93924110001535,space,1.3449645999935456,None,00040,001,2026-01-17_12h02.35.455,MST_test,2024.2.0,59.88156624271919,2026-01-17 12h02.44.636873 +0530,
