thisN,thisTrialN,thisRepN,key_resp_3.keys,key_resp_3.rt,key_resp_3.duration,trials.thisRepN,trials.thisTrialN,trials.thisN,thisRow.t,notes,intro_page.started,text.started,key_resp.started,intro_page.stopped,key_resp.keys,key_resp.rt,key_resp.duration,instructions.started,text_2.started,key_resp_2.started,instructions.stopped,key_resp_2.keys,key_resp_2.rt,key_resp_2.duration,demo1.started,image_1.started,image_2.started,text_7.started,key_resp_6.started,text_9.started,demo1.stopped,key_resp_6.keys,key_resp_6.rt,key_resp_6.duration,demo2.started,image_5.started,image_6.started,text_11.started,text_12.started,key_resp_8.started,demo2.stopped,key_resp_8.keys,key_resp_8.rt,key_resp_8.duration,demo_conclusion.started,text_13.started,key_resp_9.started,demo_conclusion.stopped,key_resp_9.keys,key_resp_9.rt,key_resp_9.duration,start_test.started,text_6.started,key_resp_5.started,start_test.stopped,key_resp_5.keys,key_resp_5.rt,key_resp_5.duration,ISI.started,text_4.started,ISI.stopped,routine_1.started,image.started,text_3.started,key_resp_3.started,routine_1.stopped,image_path,position_of_stimuli,trials.key_resp_3.keys,trials.key_resp_3.rt,trials.key_resp_3.duration,End_page.started,text_5.started,key_resp_4.started,End_page.stopped,key_resp_4.keys,key_resp_4.rt,key_resp_4.duration,participant,session,date,expName,psychopyVersion,frameRate,expStart,
,,,,,,,,,,,0.016919300018344074,0.03328269999474287,0.03328269999474287,2.5961203000042588,space,2.546608600008767,None,,,,,,,,,,,,,,,,,,,,,,,,,,,,,,,,,,,,,,,,,,,,,,,,,,,,,,,,,,,,,,00047,001,2026-01-18_11h21.32.587,MST_test,2024.2.0,59.839212032036244,2026-01-18 11h21.45.224759 +0530,
,,,,,,,,,,,,,,,,,,2.5961551999789663,2.6272615999914706,2.6272615999914706,13.499775999982376,space,10.864816099987365,None,,,,,,,,,,,,,,,,,,,,,,,,,,,,,,,,,,,,,,,,,,,,,,,,,,,,,,,00047,001,2026-01-18_11h21.32.587,MST_test,2024.2.0,59.839212032036244,2026-01-18 11h21.45.224759 +0530,
,,,,,,,,,,,,,,,,,,,,,,,,,13.499805699975695,13.515585699991789,13.515585699991789,13.515585699991789,13.515585699991789,13.515585699991789,17.998535300022922,space,4.472868299984839,None,,,,,,,,,,,,,,,,,,,,,,,,,,,,,,,,,,,,,,,,,,,,,00047,001,2026-01-18_11h21.32.587,MST_test,2024.2.0,59.839212032036244,2026-01-18 11h21.45.224759 +0530,
,,,,,,,,,,,,,,,,,,,,,,,,,,,,,,,,,,,17.9985619999934,18.01480740000261,18.01480740000261,18.01480740000261,18.01480740000261,18.01480740000261,23.45093039999483,space,5.420886499981862,None,,,,,,,,,,,,,,,,,,,,,,,,,,,,,,,,,,,00047,001,2026-01-18_11h21.32.587,MST_test,2024.2.0,59.839212032036244,2026-01-18 11h21.45.224759 +0530,
,,,,,,,,,,,,,,,,,,,,,,,,,,,,,,,,,,,,,,,,,,,,,23.45095939998282,23.467339500028174,23.467339500028174,35.47669079998741,space,11.993100800027605,None,,,,,,,,,,,,,,,,,,,,,,,,,,,,00047,001,2026-01-18_11h21.32.587,MST_test,2024.2.0,59.839212032036244,2026-01-18 11h21.45.224759 +0530,
,,,,,,,,,,,,,,,,,,,,,,,,,,,,,,,,,,,,,,,,,,,,,,,,,,,,35.47671929997159,35.492561399994884,35.492561399994884,57.31967040000018,space,21.82356190000428,None,,,,,,,,,,,,,,,,,,,,,00047,001,2026-01-18_11h21.32.587,MST_test,2024.2.0,59.839212032036244,2026-01-18 11h21.45.224759 +0530,
0,0,1,s,1.7640512999496423,None,1,0,0,57.33583009999711,,,,,,,,,,,,,,,,,,,,,,,,,,,,,,,,,,,,,,,,,,,,,,,,,,57.32277570001315,57.33583009999711,57.82080470002256,57.85317700001178,57.8720914000296,57.8720914000296,57.8720914000296,59.64469410001766,Scenes\139b.jpg,mid,s,1.7640512999496423,None,,,,,,,,00047,001,2026-01-18_11h21.32.587,MST_test,2024.2.0,59.839212032036244,2026-01-18 11h21.45.224759 +0530,
1,0,2,s,2.3764558999682777,None,2,0,1,59.6607534000068,,,,,,,,,,,,,,,,,,,,,,,,,,,,,,,,,,,,,,,,,,,,,,,,,,59.644789599988144,59.6607534000068,60.145709300006274,60.17298640002264,60.19573300000047,60.19573300000047,60.19573300000047,62.58806999999797,Scenes\077b.jpg,mid,s,2.3764558999682777,None,,,,,,,,00047,001,2026-01-18_11h21.32.587,MST_test,2024.2.0,59.839212032036244,2026-01-18 11h21.45.224759 +0530,
2,0,3,s,2.0644500000053085,None,3,0,2,62.60415369999828,,,,,,,,,,,,,,,,,,,,,,,,,,,,,,,,,,,,,,,,,,,,,,,,,,62.588168399990536,62.60415369999828,63.089571100019384,63.11634920001961,63.14035220001824,63.14035220001824,63.14035220001824,65.21395679999841,Objects\126b.jpg,pre,s,2.0644500000053085,None,,,,,,,,00047,001,2026-01-18_11h21.32.587,MST_test,2024.2.0,59.839212032036244,2026-01-18 11h21.45.224759 +0530,
3,0,4,o,5.927697199978866,None,4,0,3,65.23003450001124,,,,,,,,,,,,,,,,,,,,,,,,,,,,,,,,,,,,,,,,,,,,,,,,,,65.21405379998032,65.23003450001124,65.7153981999727,65.73111990001053,65.74851710000075,65.74851710000075,65.74851710000075,71.68676790001336,Objects\084a.jpg,post,o,5.927697199978866,None,,,,,,,,00047,001,2026-01-18_11h21.32.587,MST_test,2024.2.0,59.839212032036244,2026-01-18 11h21.45.224759 +0530,
4,0,5,s,2.4857666000025347,None,5,0,4,71.70268779998878,,,,,,,,,,,,,,,,,,,,,,,,,,,,,,,,,,,,,,,,,,,,,,,,,,71.686862499977,71.70268779998878,72.18789070000639,72.20554049999919,72.2223595000105,72.2223595000105,72.2223595000105,74.71394280000823,Scenes\100a.jpg,post,s,2.4857666000025347,None,,,,,,,,00047,001,2026-01-18_11h21.32.587,MST_test,2024.2.0,59.839212032036244,2026-01-18 11h21.45.224759 +0530,
5,0,6,o,1.444039200025145,None,6,0,5,74.73008379997918,,,,,,,,,,,,,,,,,,,,,,,,,,,,,,,,,,,,,,,,,,,,,,,,,,74.7140368000255,74.73008379997918,75.21506700001191,75.23084289999679,75.24844260001555,75.24844260001555,75.24844260001555,76.70423730002949,Scenes\147a.jpg,mid,o,1.444039200025145,None,,,,,,,,00047,001,2026-01-18_11h21.32.587,MST_test,2024.2.0,59.839212032036244,2026-01-18 11h21.45.224759 +0530,
6,0,7,o,0.9319869999890216,None,7,0,6,76.72027910000179,,,,,,,,,,,,,,,,,,,,,,,,,,,,,,,,,,,,,,,,,,,,,,,,,,76.70433049998246,76.72027910000179,77.20565600000555,77.22847460000776,77.25661939999554,77.25661939999554,77.25661939999554,78.19306139997207,Scenes\076a.jpg,mid,o,0.9319869999890216,None,,,,,,,,00047,001,2026-01-18_11h21.32.587,MST_test,2024.2.0,59.839212032036244,2026-01-18 11h21.45.224759 +0530,
7,0,8,o,0.9727902999729849,None,8,0,7,78.20879850001074,,,,,,,,,,,,,,,,,,,,,,,,,,,,,,,,,,,,,,,,,,,,,,,,,,78.193154699984,78.20879850001074,78.69399669999257,78.71419530001003,78.72734470001888,78.72734470001888,78.72734470001888,79.71477860002778,Scenes\089a.jpg,pre,o,0.9727902999729849,None,,,,,,,,00047,001,2026-01-18_11h21.32.587,MST_test,2024.2.0,59.839212032036244,2026-01-18 11h21.45.224759 +0530,
8,0,9,o,0.9538224000134505,None,9,0,8,79.73092790000373,,,,,,,,,,,,,,,,,,,,,,,,,,,,,,,,,,,,,,,,,,,,,,,,,,79.71488240000326,79.73092790000373,80.21604219998699,80.24019209999824,80.25014179997379,80.25014179997379,80.25014179997379,81.22004789998755,Foils\066a.jpg,none,o,0.9538224000134505,None,,,,,,,,00047,001,2026-01-18_11h21.32.587,MST_test,2024.2.0,59.839212032036244,2026-01-18 11h21.45.224759 +0530,
9,0,10,o,1.207895900006406,None,10,0,9,81.23620079999091,,,,,,,,,,,,,,,,,,,,,,,,,,,,,,,,,,,,,,,,,,,,,,,,,,81.22014629998012,81.23620079999091,81.72141030000057,81.75374950002879,81.77230120002059,81.77230120002059,81.77230120002059,82.99291690002428,Scenes\020b.jpg,mid,o,1.207895900006406,None,,,,,,,,00047,001,2026-01-18_11h21.32.587,MST_test,2024.2.0,59.839212032036244,2026-01-18 11h21.45.224759 +0530,
10,0,11,s,1.396818000008352,None,11,0,10,83.00918860000093,,,,,,,,,,,,,,,,,,,,,,,,,,,,,,,,,,,,,,,,,,,,,,,,,,82.99302290001651,83.00918860000093,83.49403669999447,83.51811760000419,83.52756850002334,83.52756850002334,83.52756850002334,84.93297830002848,Objects\183b.jpg,mid,s,1.396818000008352,None,,,,,,,,00047,001,2026-01-18_11h21.32.587,MST_test,2024.2.0,59.839212032036244,2026-01-18 11h21.45.224759 +0530,
11,0,12,o,1.1840395999606699,None,12,0,11,84.94919180002762,,,,,,,,,,,,,,,,,,,,,,,,,,,,,,,,,,,,,,,,,,,,,,,,,,84.93307169998297,84.94919180002762,85.43428320001112,85.45095799997216,85.46770249999827,85.46770249999827,85.46770249999827,86.65579699998489,Objects\178a.jpg,post,o,1.1840395999606699,None,,,,,,,,00047,001,2026-01-18_11h21.32.587,MST_test,2024.2.0,59.839212032036244,2026-01-18 11h21.45.224759 +0530,
12,0,13,s,1.6536224999581464,None,13,0,12,86.67189709999366,,,,,,,,,,,,,,,,,,,,,,,,,,,,,,,,,,,,,,,,,,,,,,,,,,86.65589160000673,86.67189709999366,87.1568680999917,87.17467159999069,87.19114990002709,87.19114990002709,87.19114990002709,88.84666879998986,Foils\scenes16.jpg,none,s,1.6536224999581464,None,,,,,,,,00047,001,2026-01-18_11h21.32.587,MST_test,2024.2.0,59.839212032036244,2026-01-18 11h21.45.224759 +0530,
13,0,14,s,1.8794440999627113,None,14,0,13,88.86290840001311,,,,,,,,,,,,,,,,,,,,,,,,,,,,,,,,,,,,,,,,,,,,,,,,,,88.84676560002845,88.86290840001311,89.34787180001149,89.37239889998455,89.38137479999568,89.38137479999568,89.38137479999568,91.27191190002486,Objects\029b.jpg,mid,s,1.8794440999627113,None,,,,,,,,00047,001,2026-01-18_11h21.32.587,MST_test,2024.2.0,59.839212032036244,2026-01-18 11h21.45.224759 +0530,
14,0,15,s,4.972012099984568,None,15,0,14,91.28805919998558,,,,,,,,,,,,,,,,,,,,,,,,,,,,,,,,,,,,,,,,,,,,,,,,,,91.27200940001057,91.28805919998558,91.7730256000068,91.81322990002809,91.8409159000148,91.8409159000148,91.8409159000148,96.82455239997944,Foils\scenes23.jpg,none,s,4.972012099984568,None,,,,,,,,00047,001,2026-01-18_11h21.32.587,MST_test,2024.2.0,59.839212032036244,2026-01-18 11h21.45.224759 +0530,
15,0,16,s,2.4860154999769293,None,16,0,15,96.84084570000414,,,,,,,,,,,,,,,,,,,,,,,,,,,,,,,,,,,,,,,,,,,,,,,,,,96.82464509998681,96.84084570000414,97.32593150000321,97.35186860000249,97.35850059997756,97.35850059997756,97.35850059997756,99.85191969998414,Objects\002b.jpg,pre,s,2.4860154999769293,None,,,,,,,,00047,001,2026-01-18_11h21.32.587,MST_test,2024.2.0,59.839212032036244,2026-01-18 11h21.45.224759 +0530,
16,0,17,n,1.6574895000085235,None,17,0,16,99.86826080002356,,,,,,,,,,,,,,,,,,,,,,,,,,,,,,,,,,,,,,,,,,,,,,,,,,99.85204089997569,99.86826080002356,100.35325039998861,100.37745269999141,100.38679969997611,100.38679969997611,100.38679969997611,102.05976129998453,Foils\010a.jpg,none,n,1.6574895000085235,None,,,,,,,,00047,001,2026-01-18_11h21.32.587,MST_test,2024.2.0,59.839212032036244,2026-01-18 11h21.45.224759 +0530,
17,0,18,s,1.8722810000181198,None,18,0,17,102.07591670000693,,,,,,,,,,,,,,,,,,,,,,,,,,,,,,,,,,,,,,,,,,,,,,,,,,102.05986069998471,102.07591670000693,102.56109759997344,102.59558660001494,102.61179569998058,102.61179569998058,102.61179569998058,104.48497659998247,Scenes\168b.jpg,pre,s,1.8722810000181198,None,,,,,,,,00047,001,2026-01-18_11h21.32.587,MST_test,2024.2.0,59.839212032036244,2026-01-18 11h21.45.224759 +0530,
18,0,19,o,1.335924500017427,None,19,0,18,104.5010004999931,,,,,,,,,,,,,,,,,,,,,,,,,,,,,,,,,,,,,,,,,,,,,,,,,,104.4850693999906,104.5010004999931,104.98614380002255,105.01956290000817,105.03608970000641,105.03608970000641,105.03608970000641,106.37491249997402,Scenes\146a.jpg,post,o,1.335924500017427,None,,,,,,,,00047,001,2026-01-18_11h21.32.587,MST_test,2024.2.0,59.839212032036244,2026-01-18 11h21.45.224759 +0530,
19,0,20,s,2.189271799987182,None,20,0,19,106.391116600018,,,,,,,,,,,,,,,,,,,,,,,,,,,,,,,,,,,,,,,,,,,,,,,,,,106.37501229997724,106.391116600018,106.87593330000527,106.91202829999384,106.92720360000385,106.92720360000385,106.92720360000385,109.11861280002631,Scenes\027b.jpg,pre,s,2.189271799987182,None,,,,,,,,00047,001,2026-01-18_11h21.32.587,MST_test,2024.2.0,59.839212032036244,2026-01-18 11h21.45.224759 +0530,
20,0,21,s,3.7188774999813177,None,21,0,20,109.13376960001187,,,,,,,,,,,,,,,,,,,,,,,,,,,,,,,,,,,,,,,,,,,,,,,,,,109.11871409998275,109.13376960001187,109.61897439998575,109.63497130002361,109.65319380001165,109.65319380001165,109.65319380001165,113.38275140000042,Objects\073a.jpg,post,s,3.7188774999813177,None,,,,,,,,00047,001,2026-01-18_11h21.32.587,MST_test,2024.2.0,59.839212032036244,2026-01-18 11h21.45.224759 +0530,
21,0,22,s,1.7421252999920398,None,22,0,21,113.39883419999387,,,,,,,,,,,,,,,,,,,,,,,,,,,,,,,,,,,,,,,,,,,,,,,,,,113.38286020001397,113.39883419999387,113.88406720000785,113.91943260002881,113.93392149999272,113.93392149999272,113.93392149999272,115.69097479997436,Scenes\140b.jpg,post,s,1.7421252999920398,None,,,,,,,,00047,001,2026-01-18_11h21.32.587,MST_test,2024.2.0,59.839212032036244,2026-01-18 11h21.45.224759 +0530,
22,0,23,o,1.2431668000062928,None,23,0,22,115.70690140000079,,,,,,,,,,,,,,,,,,,,,,,,,,,,,,,,,,,,,,,,,,,,,,,,,,115.69107100000838,115.70690140000079,116.1919844999793,116.20873960002791,116.22538070002338,116.22538070002338,116.22538070002338,117.4802879000199,Objects\039a.jpg,pre,o,1.2431668000062928,None,,,,,,,,00047,001,2026-01-18_11h21.32.587,MST_test,2024.2.0,59.839212032036244,2026-01-18 11h21.45.224759 +0530,
23,0,24,o,1.1229838999570347,None,24,0,23,117.49649519997183,,,,,,,,,,,,,,,,,,,,,,,,,,,,,,,,,,,,,,,,,,,,,,,,,,117.48038909997558,117.49649519997183,117.98160950001329,118.00933989998884,118.0326192000066,118.0326192000066,118.0326192000066,119.16982810001355,Scenes\080a.jpg,pre,o,1.1229838999570347,None,,,,,,,,00047,001,2026-01-18_11h21.32.587,MST_test,2024.2.0,59.839212032036244,2026-01-18 11h21.45.224759 +0530,
24,0,25,o,1.5946176000288688,None,25,0,24,119.18564159999369,,,,,,,,,,,,,,,,,,,,,,,,,,,,,,,,,,,,,,,,,,,,,,,,,,119.16992000001483,119.18564159999369,119.67095300002256,119.70786550000776,119.72096060001059,119.72096060001059,119.72096060001059,121.32725239999127,Scenes\143b.jpg,post,o,1.5946176000288688,None,,,,,,,,00047,001,2026-01-18_11h21.32.587,MST_test,2024.2.0,59.839212032036244,2026-01-18 11h21.45.224759 +0530,
25,0,26,n,1.23787979996996,None,26,0,25,121.34319949999917,,,,,,,,,,,,,,,,,,,,,,,,,,,,,,,,,,,,,,,,,,,,,,,,,,121.32734590000473,121.34319949999917,121.82837709999876,121.85606010002084,121.87850400002208,121.87850400002208,121.87850400002208,123.11688869999489,Foils\017a.jpg,none,n,1.23787979996996,None,,,,,,,,00047,001,2026-01-18_11h21.32.587,MST_test,2024.2.0,59.839212032036244,2026-01-18 11h21.45.224759 +0530,
26,0,27,o,3.8248410999658518,None,27,0,26,123.13279870001134,,,,,,,,,,,,,,,,,,,,,,,,,,,,,,,,,,,,,,,,,,,,,,,,,,123.11698420002358,123.13279870001134,123.61823289998574,123.64049159997376,123.65134470001794,123.65134470001794,123.65134470001794,127.48201729997527,Scenes\118a.jpg,post,o,3.8248410999658518,None,,,,,,,,00047,001,2026-01-18_11h21.32.587,MST_test,2024.2.0,59.839212032036244,2026-01-18 11h21.45.224759 +0530,
27,0,28,s,1.249571799999103,None,28,0,27,127.49808569997549,,,,,,,,,,,,,,,,,,,,,,,,,,,,,,,,,,,,,,,,,,,,,,,,,,127.48211069998797,127.49808569997549,127.98318450001534,128.02064539998537,128.03403500001878,128.03403500001878,128.03403500001878,129.2884580999962,Scenes\176b.jpg,pre,s,1.249571799999103,None,,,,,,,,00047,001,2026-01-18_11h21.32.587,MST_test,2024.2.0,59.839212032036244,2026-01-18 11h21.45.224759 +0530,
28,0,29,s,6.238443100010045,None,29,0,28,129.30440800002543,,,,,,,,,,,,,,,,,,,,,,,,,,,,,,,,,,,,,,,,,,,,,,,,,,129.28856219997397,129.30440800002543,129.78960880002705,129.81564149999758,129.82271799998125,129.82271799998125,129.82271799998125,136.06259089999367,Objects\040b.jpg,mid,s,6.238443100010045,None,,,,,,,,00047,001,2026-01-18_11h21.32.587,MST_test,2024.2.0,59.839212032036244,2026-01-18 11h21.45.224759 +0530,
29,0,30,n,3.400001499976497,None,30,0,29,136.07875749998493,,,,,,,,,,,,,,,,,,,,,,,,,,,,,,,,,,,,,,,,,,,,,,,,,,136.06269079999765,136.07875749998493,136.5640076000127,136.58056829997804,136.59722170000896,136.59722170000896,136.59722170000896,140.009239099978,Objects\008a.jpg,post,n,3.400001499976497,None,,,,,,,,00047,001,2026-01-18_11h21.32.587,MST_test,2024.2.0,59.839212032036244,2026-01-18 11h21.45.224759 +0530,
30,0,31,s,6.690179600031115,None,31,0,30,140.0254521999741,,,,,,,,,,,,,,,,,,,,,,,,,,,,,,,,,,,,,,,,,,,,,,,,,,140.00936139997793,140.0254521999741,140.51064460002817,140.53906290000305,140.56150630000047,140.56150630000047,140.56150630000047,147.26789850002388,Scenes\055a.jpg,mid,s,6.690179600031115,None,,,,,,,,00047,001,2026-01-18_11h21.32.587,MST_test,2024.2.0,59.839212032036244,2026-01-18 11h21.45.224759 +0530,
31,0,32,o,1.5443005999550223,None,32,0,31,147.2841488000122,,,,,,,,,,,,,,,,,,,,,,,,,,,,,,,,,,,,,,,,,,,,,,,,,,147.26799109997228,147.2841488000122,147.76915020000888,147.79653240001062,147.81922940001823,147.81922940001823,147.81922940001823,149.37572220002767,Scenes\136a.jpg,mid,o,1.5443005999550223,None,,,,,,,,00047,001,2026-01-18_11h21.32.587,MST_test,2024.2.0,59.839212032036244,2026-01-18 11h21.45.224759 +0530,
32,0,33,o,1.8279920000350103,None,33,0,32,149.39142090000678,,,,,,,,,,,,,,,,,,,,,,,,,,,,,,,,,,,,,,,,,,,,,,,,,,149.37581509997835,149.39142090000678,149.87688629998593,149.9169133999967,149.92773320002016,149.92773320002016,149.92773320002016,151.7675511999987,Scenes\120a.jpg,post,o,1.8279920000350103,None,,,,,,,,00047,001,2026-01-18_11h21.32.587,MST_test,2024.2.0,59.839212032036244,2026-01-18 11h21.45.224759 +0530,
33,0,34,o,1.0369624000159092,None,34,0,33,151.7833943000296,,,,,,,,,,,,,,,,,,,,,,,,,,,,,,,,,,,,,,,,,,,,,,,,,,151.76764660002664,151.7833943000296,152.26823240000522,152.28556779999053,152.30270170001313,152.30270170001313,152.30270170001313,153.35738780000247,Objects\147a.jpg,pre,o,1.0369624000159092,None,,,,,,,,00047,001,2026-01-18_11h21.32.587,MST_test,2024.2.0,59.839212032036244,2026-01-18 11h21.45.224759 +0530,
34,0,35,o,0.8584057000116445,None,35,0,34,153.37228820001474,,,,,,,,,,,,,,,,,,,,,,,,,,,,,,,,,,,,,,,,,,,,,,,,,,153.35748040000908,153.37228820001474,153.85759359999793,153.879138600023,153.89076119998936,153.89076119998936,153.89076119998936,154.76141779997852,Objects\064b.jpg,mid,o,0.8584057000116445,None,,,,,,,,00047,001,2026-01-18_11h21.32.587,MST_test,2024.2.0,59.839212032036244,2026-01-18 11h21.45.224759 +0530,
35,0,36,s,2.227985200006515,None,36,0,35,154.7779502000194,,,,,,,,,,,,,,,,,,,,,,,,,,,,,,,,,,,,,,,,,,,,,,,,,,154.76151350000873,154.7779502000194,155.26232410001103,155.2803362000268,155.29622060002293,155.29622060002293,155.29622060002293,157.53728699998464,Foils\scenes1.jpg,none,s,2.227985200006515,None,,,,,,,,00047,001,2026-01-18_11h21.32.587,MST_test,2024.2.0,59.839212032036244,2026-01-18 11h21.45.224759 +0530,
36,0,37,o,1.1163728999672458,None,37,0,36,157.5534773999825,,,,,,,,,,,,,,,,,,,,,,,,,,,,,,,,,,,,,,,,,,,,,,,,,,157.53749989997596,157.5534773999825,158.03841909999028,158.05447490001097,158.0719217999722,158.0719217999722,158.0719217999722,159.19308009999804,Objects\134a.jpg,post,o,1.1163728999672458,None,,,,,,,,00047,001,2026-01-18_11h21.32.587,MST_test,2024.2.0,59.839212032036244,2026-01-18 11h21.45.224759 +0530,
37,0,38,n,2.168280699988827,None,38,0,37,159.20925180002814,,,,,,,,,,,,,,,,,,,,,,,,,,,,,,,,,,,,,,,,,,,,,,,,,,159.19317599997157,159.20925180002814,159.69422800000757,159.77004889998352,159.79562490002718,159.79562490002718,159.79562490002718,161.96949679998215,Foils\scenes15.jpg,none,n,2.168280699988827,None,,,,,,,,00047,001,2026-01-18_11h21.32.587,MST_test,2024.2.0,59.839212032036244,2026-01-18 11h21.45.224759 +0530,
38,0,39,o,1.4844403000315651,None,39,0,38,161.98616600001696,,,,,,,,,,,,,,,,,,,,,,,,,,,,,,,,,,,,,,,,,,,,,,,,,,161.9695994000067,161.98616600001696,162.47059460001765,162.4903552000178,162.5042008999735,162.5042008999735,162.5042008999735,163.99337280000327,Objects\188a.jpg,pre,o,1.4844403000315651,None,,,,,,,,00047,001,2026-01-18_11h21.32.587,MST_test,2024.2.0,59.839212032036244,2026-01-18 11h21.45.224759 +0530,
39,0,40,s,6.5959409000352025,None,40,0,39,164.00949460000265,,,,,,,,,,,,,,,,,,,,,,,,,,,,,,,,,,,,,,,,,,,,,,,,,,163.99346760002663,164.00949460000265,164.49447779997718,164.51074810000136,164.5279294999782,164.5279294999782,164.5279294999782,171.13508829998318,Objects\124a.jpg,mid,s,6.5959409000352025,None,,,,,,,,00047,001,2026-01-18_11h21.32.587,MST_test,2024.2.0,59.839212032036244,2026-01-18 11h21.45.224759 +0530,
40,0,41,o,1.3265842000255361,None,41,0,40,171.15107409999473,,,,,,,,,,,,,,,,,,,,,,,,,,,,,,,,,,,,,,,,,,,,,,,,,,171.13518430001568,171.15107409999473,171.63621149997925,171.65198010002496,171.66955260001123,171.66955260001123,171.66955260001123,173.0080190000008,Objects\109a.jpg,mid,o,1.3265842000255361,None,,,,,,,,00047,001,2026-01-18_11h21.32.587,MST_test,2024.2.0,59.839212032036244,2026-01-18 11h21.45.224759 +0530,
41,0,42,o,1.6699813000159338,None,42,0,41,173.02416769997217,,,,,,,,,,,,,,,,,,,,,,,,,,,,,,,,,,,,,,,,,,,,,,,,,,173.00813829997787,173.02416769997217,173.50938810000662,173.52476180001395,173.54280719999224,173.54280719999224,173.54280719999224,175.2159221000038,Objects\148a.jpg,post,o,1.6699813000159338,None,,,,,,,,00047,001,2026-01-18_11h21.32.587,MST_test,2024.2.0,59.839212032036244,2026-01-18 11h21.45.224759 +0530,
42,0,43,o,0.8140428999904543,None,43,0,42,175.2319576999871,,,,,,,,,,,,,,,,,,,,,,,,,,,,,,,,,,,,,,,,,,,,,,,,,,175.2160126999952,175.2319576999871,175.7170872000279,175.731421399978,175.75049220002256,175.75049220002256,175.75049220002256,176.57111329998588,Objects\190a.jpg,mid,o,0.8140428999904543,None,,,,,,,,00047,001,2026-01-18_11h21.32.587,MST_test,2024.2.0,59.839212032036244,2026-01-18 11h21.45.224759 +0530,
43,0,44,n,1.20273909997195,None,44,0,43,176.58676660002675,,,,,,,,,,,,,,,,,,,,,,,,,,,,,,,,,,,,,,,,,,,,,,,,,,176.57120579999173,176.58676660002675,177.07172710000305,177.09425899997586,177.10522670001956,177.10522670001956,177.10522670001956,178.3100408000173,Objects\150b.jpg,post,n,1.20273909997195,None,,,,,,,,00047,001,2026-01-18_11h21.32.587,MST_test,2024.2.0,59.839212032036244,2026-01-18 11h21.45.224759 +0530,
44,0,45,s,1.2869640000280924,None,45,0,44,178.3260727999732,,,,,,,,,,,,,,,,,,,,,,,,,,,,,,,,,,,,,,,,,,,,,,,,,,178.31013459997484,178.3260727999732,178.81128079997143,178.83418190001976,178.84464139997726,178.84464139997726,178.84464139997726,180.1334134999779,Objects\116b.jpg,mid,s,1.2869640000280924,None,,,,,,,,00047,001,2026-01-18_11h21.32.587,MST_test,2024.2.0,59.839212032036244,2026-01-18 11h21.45.224759 +0530,
45,0,46,n,1.5353849999955855,None,46,0,45,180.14913169998908,,,,,,,,,,,,,,,,,,,,,,,,,,,,,,,,,,,,,,,,,,,,,,,,,,180.1335068999906,180.14913169998908,180.6343174999929,180.6655069999979,180.68510840000818,180.68510840000818,180.68510840000818,182.22380079998402,Scenes\024a.jpg,post,n,1.5353849999955855,None,,,,,,,,00047,001,2026-01-18_11h21.32.587,MST_test,2024.2.0,59.839212032036244,2026-01-18 11h21.45.224759 +0530,
46,0,47,s,3.2066256999969482,None,47,0,46,182.2397568000015,,,,,,,,,,,,,,,,,,,,,,,,,,,,,,,,,,,,,,,,,,,,,,,,,,182.2239014999941,182.2397568000015,182.72498130000895,182.75093999999808,182.75752019998617,182.75752019998617,182.75752019998617,185.97027380001964,Objects\122b.jpg,pre,s,3.2066256999969482,None,,,,,,,,00047,001,2026-01-18_11h21.32.587,MST_test,2024.2.0,59.839212032036244,2026-01-18 11h21.45.224759 +0530,
47,0,48,o,1.1553880999563262,None,48,0,47,185.98622650001198,,,,,,,,,,,,,,,,,,,,,,,,,,,,,,,,,,,,,,,,,,,,,,,,,,185.97037160000764,185.98622650001198,186.47143410000717,186.49393150000833,186.50472580001224,186.50472580001224,186.50472580001224,187.67627890000585,Scenes\163a.jpg,pre,o,1.1553880999563262,None,,,,,,,,00047,001,2026-01-18_11h21.32.587,MST_test,2024.2.0,59.839212032036244,2026-01-18 11h21.45.224759 +0530,
48,0,49,s,2.369431299972348,None,49,0,48,187.69232620002003,,,,,,,,,,,,,,,,,,,,,,,,,,,,,,,,,,,,,,,,,,,,,,,,,,187.6763797000167,187.69232620002003,188.1772758999723,188.1995167999994,188.210689599975,188.210689599975,188.210689599975,190.5864261999959,Objects\044b.jpg,mid,s,2.369431299972348,None,,,,,,,,00047,001,2026-01-18_11h21.32.587,MST_test,2024.2.0,59.839212032036244,2026-01-18 11h21.45.224759 +0530,
49,0,50,n,1.2110701999627054,None,50,0,49,190.60272979998263,,,,,,,,,,,,,,,,,,,,,,,,,,,,,,,,,,,,,,,,,,,,,,,,,,190.58652940002503,190.60272979998263,191.08751270000357,191.1109972000122,191.12121549999574,191.12121549999574,191.12121549999574,192.34262940002372,Objects\030b.jpg,post,n,1.2110701999627054,None,,,,,,,,00047,001,2026-01-18_11h21.32.587,MST_test,2024.2.0,59.839212032036244,2026-01-18 11h21.45.224759 +0530,
50,0,51,s,7.917435200011823,None,51,0,50,192.3586666000192,,,,,,,,,,,,,,,,,,,,,,,,,,,,,,,,,,,,,,,,,,,,,,,,,,192.34272369998507,192.3586666000192,192.84368930000346,192.89261560002342,192.91134160000365,192.91134160000365,192.91134160000365,200.83892960002413,Scenes\001b.jpg,pre,s,7.917435200011823,None,,,,,,,,00047,001,2026-01-18_11h21.32.587,MST_test,2024.2.0,59.839212032036244,2026-01-18 11h21.45.224759 +0530,
51,0,52,n,2.0447594000143,None,52,0,51,200.8556725999806,,,,,,,,,,,,,,,,,,,,,,,,,,,,,,,,,,,,,,,,,,,,,,,,,,200.83903430000646,200.8556725999806,201.34007779997773,201.3669539000257,201.39102089998778,201.39102089998778,201.39102089998778,203.44836630002828,Scenes\152a.jpg,post,n,2.0447594000143,None,,,,,,,,00047,001,2026-01-18_11h21.32.587,MST_test,2024.2.0,59.839212032036244,2026-01-18 11h21.45.224759 +0530,
52,0,53,o,2.1076331000076607,None,53,0,52,203.4641121000168,,,,,,,,,,,,,,,,,,,,,,,,,,,,,,,,,,,,,,,,,,,,,,,,,,203.44846230000257,203.4641121000168,203.949305200018,203.97386520000873,203.98391220002668,203.98391220002668,203.98391220002668,206.10727789998055,Objects\175b.jpg,mid,o,2.1076331000076607,None,,,,,,,,00047,001,2026-01-18_11h21.32.587,MST_test,2024.2.0,59.839212032036244,2026-01-18 11h21.45.224759 +0530,
53,0,54,o,1.2422044000122696,None,54,0,53,206.1235153999878,,,,,,,,,,,,,,,,,,,,,,,,,,,,,,,,,,,,,,,,,,,,,,,,,,206.10737689997768,206.1235153999878,206.6086016999907,206.62444819998927,206.64208670001244,206.64208670001244,206.64208670001244,207.89685969997663,Objects\132a.jpg,pre,o,1.2422044000122696,None,,,,,,,,00047,001,2026-01-18_11h21.32.587,MST_test,2024.2.0,59.839212032036244,2026-01-18 11h21.45.224759 +0530,
54,0,55,o,1.1885009999969043,None,55,0,54,207.91311229998246,,,,,,,,,,,,,,,,,,,,,,,,,,,,,,,,,,,,,,,,,,,,,,,,,,207.8969550000038,207.91311229998246,208.3981123000267,208.42801029997645,208.4483427000232,208.4483427000232,208.4483427000232,209.6531026000157,Scenes\085a.jpg,post,o,1.1885009999969043,None,,,,,,,,00047,001,2026-01-18_11h21.32.587,MST_test,2024.2.0,59.839212032036244,2026-01-18 11h21.45.224759 +0530,
55,0,56,s,1.7186534000211395,None,56,0,55,209.6691638000193,,,,,,,,,,,,,,,,,,,,,,,,,,,,,,,,,,,,,,,,,,,,,,,,,,209.65319869999075,209.6691638000193,210.15457920002518,210.19094350002706,210.20541440002853,210.20541440002853,210.20541440002853,211.92789200000698,Scenes\186b.jpg,pre,s,1.7186534000211395,None,,,,,,,,00047,001,2026-01-18_11h21.32.587,MST_test,2024.2.0,59.839212032036244,2026-01-18 11h21.45.224759 +0530,
56,0,57,o,2.3084087999886833,None,57,0,56,211.9439119999879,,,,,,,,,,,,,,,,,,,,,,,,,,,,,,,,,,,,,,,,,,,,,,,,,,211.92798580002273,211.9439119999879,212.42901409999467,212.44534159998875,212.4631421000231,212.4631421000231,212.4631421000231,214.78792339999927,Objects\179a.jpg,mid,o,2.3084087999886833,None,,,,,,,,00047,001,2026-01-18_11h21.32.587,MST_test,2024.2.0,59.839212032036244,2026-01-18 11h21.45.224759 +0530,
57,0,58,o,1.065328299999237,None,58,0,57,214.80381279997528,,,,,,,,,,,,,,,,,,,,,,,,,,,,,,,,,,,,,,,,,,,,,,,,,,214.78801840002416,214.80381279997528,215.28899929998443,215.30357539997203,215.32242430001497,215.32242430001497,215.32242430001497,216.39335139998002,Objects\172a.jpg,pre,o,1.065328299999237,None,,,,,,,,00047,001,2026-01-18_11h21.32.587,MST_test,2024.2.0,59.839212032036244,2026-01-18 11h21.45.224759 +0530,
58,0,59,s,2.7953900000429712,None,59,0,58,216.409616000019,,,,,,,,,,,,,,,,,,,,,,,,,,,,,,,,,,,,,,,,,,,,,,,,,,216.39344830001937,216.409616000019,216.89473549998365,216.91249580000294,216.9288937000092,216.9288937000092,216.9288937000092,219.7385862999945,Foils\scenes19.jpg,none,s,2.7953900000429712,None,,,,,,,,00047,001,2026-01-18_11h21.32.587,MST_test,2024.2.0,59.839212032036244,2026-01-18 11h21.45.224759 +0530,
59,0,60,s,4.21853579999879,None,60,0,59,219.7545981000294,,,,,,,,,,,,,,,,,,,,,,,,,,,,,,,,,,,,,,,,,,,,,,,,,,219.73868269997183,219.7545981000294,220.23957269999664,220.2556886000093,220.27307749999454,220.27307749999454,220.27307749999454,224.5054342999938,Objects\181a.jpg,pre,s,4.21853579999879,None,,,,,,,,00047,001,2026-01-18_11h21.32.587,MST_test,2024.2.0,59.839212032036244,2026-01-18 11h21.45.224759 +0530,
60,0,61,s,4.140537199971732,None,61,0,60,224.5214095999836,,,,,,,,,,,,,,,,,,,,,,,,,,,,,,,,,,,,,,,,,,,,,,,,,,224.50552910001716,224.5214095999836,225.0062815999845,225.0288211000152,225.03987889998825,225.03987889998825,225.03987889998825,229.1886102000135,Objects\153b.jpg,mid,s,4.140537199971732,None,,,,,,,,00047,001,2026-01-18_11h21.32.587,MST_test,2024.2.0,59.839212032036244,2026-01-18 11h21.45.224759 +0530,
61,0,62,s,2.1289586999919266,None,62,0,61,229.20422449999023,,,,,,,,,,,,,,,,,,,,,,,,,,,,,,,,,,,,,,,,,,,,,,,,,,229.18871100002434,229.20422449999023,229.6894516000175,229.71403849998023,229.72282680001808,229.72282680001808,229.72282680001808,231.86424590001116,Objects\036b.jpg,post,s,2.1289586999919266,None,,,,,,,,00047,001,2026-01-18_11h21.32.587,MST_test,2024.2.0,59.839212032036244,2026-01-18 11h21.45.224759 +0530,
62,0,63,o,2.0933271999820136,None,63,0,62,231.88040670001647,,,,,,,,,,,,,,,,,,,,,,,,,,,,,,,,,,,,,,,,,,,,,,,,,,231.86434189998545,231.88040670001647,232.36554700002307,232.381595999992,232.39902259997325,232.39902259997325,232.39902259997325,234.50682379998034,Objects\023a.jpg,pre,o,2.0933271999820136,None,,,,,,,,00047,001,2026-01-18_11h21.32.587,MST_test,2024.2.0,59.839212032036244,2026-01-18 11h21.45.224759 +0530,
63,0,64,s,5.865098299982492,None,64,0,63,234.5229741000221,,,,,,,,,,,,,,,,,,,,,,,,,,,,,,,,,,,,,,,,,,,,,,,,,,234.50691679999,234.5229741000221,235.00794919999316,235.04129149997607,235.05898239999078,235.05898239999078,235.05898239999078,240.92956620000768,Scenes\162b.jpg,post,s,5.865098299982492,None,,,,,,,,00047,001,2026-01-18_11h21.32.587,MST_test,2024.2.0,59.839212032036244,2026-01-18 11h21.45.224759 +0530,
64,0,65,s,1.5954978000372648,None,65,0,64,240.94547179999063,,,,,,,,,,,,,,,,,,,,,,,,,,,,,,,,,,,,,,,,,,,,,,,,,,240.92966259998502,240.94547179999063,241.4304453000077,241.4610847000149,241.4805557000218,241.4805557000218,241.4805557000218,243.08659349998925,Scenes\004a.jpg,mid,s,1.5954978000372648,None,,,,,,,,00047,001,2026-01-18_11h21.32.587,MST_test,2024.2.0,59.839212032036244,2026-01-18 11h21.45.224759 +0530,
65,0,66,s,21.111642899981234,None,66,0,65,243.10316340002464,,,,,,,,,,,,,,,,,,,,,,,,,,,,,,,,,,,,,,,,,,,,,,,,,,243.08669109997572,243.10316340002464,243.5880900999764,243.61439760000212,243.62059479998425,243.62059479998425,243.62059479998425,264.74615259998245,Objects\120b.jpg,mid,s,21.111642899981234,None,,,,,,,,00047,001,2026-01-18_11h21.32.587,MST_test,2024.2.0,59.839212032036244,2026-01-18 11h21.45.224759 +0530,
66,0,67,o,1.5786114999791607,None,67,0,66,264.762194800016,,,,,,,,,,,,,,,,,,,,,,,,,,,,,,,,,,,,,,,,,,,,,,,,,,264.7462467000005,264.762194800016,265.2471977000241,265.2722279999871,265.2809145000065,265.2809145000065,265.2809145000065,266.8702025000239,Objects\094b.jpg,pre,o,1.5786114999791607,None,,,,,,,,00047,001,2026-01-18_11h21.32.587,MST_test,2024.2.0,59.839212032036244,2026-01-18 11h21.45.224759 +0530,
67,0,68,o,1.0708900999743491,None,68,0,67,266.8864253999782,,,,,,,,,,,,,,,,,,,,,,,,,,,,,,,,,,,,,,,,,,,,,,,,,,266.8702983999974,266.8864253999782,267.37130469997646,267.39421320002293,267.40479140001116,267.40479140001116,267.40479140001116,268.4925037000212,Objects\028b.jpg,post,o,1.0708900999743491,None,,,,,,,,00047,001,2026-01-18_11h21.32.587,MST_test,2024.2.0,59.839212032036244,2026-01-18 11h21.45.224759 +0530,
68,0,69,s,1.911863200017251,None,69,0,68,268.50854850001633,,,,,,,,,,,,,,,,,,,,,,,,,,,,,,,,,,,,,,,,,,,,,,,,,,268.49259739997797,268.50854850001633,268.9938895999803,269.0132871000096,269.0283243000158,269.0283243000158,269.0283243000158,270.95108610001625,Foils\scenes6.jpg,none,s,1.911863200017251,None,,,,,,,,00047,001,2026-01-18_11h21.32.587,MST_test,2024.2.0,59.839212032036244,2026-01-18 11h21.45.224759 +0530,
69,0,70,n,1.2703360000159591,None,70,0,69,270.9673111999873,,,,,,,,,,,,,,,,,,,,,,,,,,,,,,,,,,,,,,,,,,,,,,,,,,270.95121550001204,270.9673111999873,271.4526014000294,271.47389590000967,271.4858692000271,271.4858692000271,271.4858692000271,272.7576999000157,Foils\113a.jpg,none,n,1.2703360000159591,None,,,,,,,,00047,001,2026-01-18_11h21.32.587,MST_test,2024.2.0,59.839212032036244,2026-01-18 11h21.45.224759 +0530,
70,0,71,o,6.608133900037501,None,71,0,70,272.77374079998117,,,,,,,,,,,,,,,,,,,,,,,,,,,,,,,,,,,,,,,,,,,,,,,,,,272.75779609999154,272.77374079998117,273.2587519999943,273.27335229999153,273.29226150002796,273.29226150002796,273.29226150002796,279.9158432999975,Objects\119a.jpg,mid,o,6.608133900037501,None,,,,,,,,00047,001,2026-01-18_11h21.32.587,MST_test,2024.2.0,59.839212032036244,2026-01-18 11h21.45.224759 +0530,
71,0,72,o,1.0336516000097618,None,72,0,71,279.932034700003,,,,,,,,,,,,,,,,,,,,,,,,,,,,,,,,,,,,,,,,,,,,,,,,,,279.915941299987,279.932034700003,280.417663900007,280.43183610000415,280.4505432000151,280.4505432000151,280.4505432000151,281.48804199998267,Objects\128a.jpg,mid,o,1.0336516000097618,None,,,,,,,,00047,001,2026-01-18_11h21.32.587,MST_test,2024.2.0,59.839212032036244,2026-01-18 11h21.45.224759 +0530,
72,0,73,o,0.9959171999944374,None,73,0,72,281.50423309998587,,,,,,,,,,,,,,,,,,,,,,,,,,,,,,,,,,,,,,,,,,,,,,,,,,281.4881428999943,281.50423309998587,281.9893226000131,282.02878240001155,282.04048149997834,282.04048149997834,282.04048149997834,283.04338340001414,Scenes\015a.jpg,mid,o,0.9959171999944374,None,,,,,,,,00047,001,2026-01-18_11h21.32.587,MST_test,2024.2.0,59.839212032036244,2026-01-18 11h21.45.224759 +0530,
73,0,74,s,2.231835199985653,None,74,0,73,283.05968880001456,,,,,,,,,,,,,,,,,,,,,,,,,,,,,,,,,,,,,,,,,,,,,,,,,,283.0434981000144,283.05968880001456,283.5448684000294,283.5823589999927,283.5961190999951,283.5961190999951,283.5961190999951,285.83632810000563,Scenes\058b.jpg,pre,s,2.231835199985653,None,,,,,,,,00047,001,2026-01-18_11h21.32.587,MST_test,2024.2.0,59.839212032036244,2026-01-18 11h21.45.224759 +0530,
74,0,75,n,2.2795836000004783,None,75,0,74,285.8528945000144,,,,,,,,,,,,,,,,,,,,,,,,,,,,,,,,,,,,,,,,,,,,,,,,,,285.8364286000142,285.8528945000144,286.3379964000196,286.3617159000132,286.3723934000009,286.3723934000009,286.3723934000009,288.6630115999724,Foils\034a.jpg,none,n,2.2795836000004783,None,,,,,,,,00047,001,2026-01-18_11h21.32.587,MST_test,2024.2.0,59.839212032036244,2026-01-18 11h21.45.224759 +0530,
75,0,76,n,7.303766100027133,None,76,0,75,288.679460400017,,,,,,,,,,,,,,,,,,,,,,,,,,,,,,,,,,,,,,,,,,,,,,,,,,288.66314110002713,288.679460400017,289.1644212999963,289.48359999997774,289.5162650999846,289.5162650999846,289.5162650999846,296.82516250002664,Foils\scenes26.jpg,none,n,7.303766100027133,None,,,,,,,,00047,001,2026-01-18_11h21.32.587,MST_test,2024.2.0,59.839212032036244,2026-01-18 11h21.45.224759 +0530,
76,0,77,n,5.52447620005114,None,77,0,76,296.8411910000141,,,,,,,,,,,,,,,,,,,,,,,,,,,,,,,,,,,,,,,,,,,,,,,,,,296.82526569999754,296.8411910000141,297.32618239999283,297.52583370002685,297.54452509997645,297.54452509997645,297.54452509997645,303.08042730001034,Foils\scenes25.jpg,none,n,5.52447620005114,None,,,,,,,,00047,001,2026-01-18_11h21.32.587,MST_test,2024.2.0,59.839212032036244,2026-01-18 11h21.45.224759 +0530,
77,0,78,s,1.5873280999949202,None,78,0,77,303.09644420002587,,,,,,,,,,,,,,,,,,,,,,,,,,,,,,,,,,,,,,,,,,,,,,,,,,303.0805195000139,303.09644420002587,303.58140760002425,303.6233009999851,303.6327040999895,303.6327040999895,303.6327040999895,305.2212565999944,Scenes\102b.jpg,mid,s,1.5873280999949202,None,,,,,,,,00047,001,2026-01-18_11h21.32.587,MST_test,2024.2.0,59.839212032036244,2026-01-18 11h21.45.224759 +0530,
78,0,79,s,1.3672984999720939,None,79,0,78,305.2372698999825,,,,,,,,,,,,,,,,,,,,,,,,,,,,,,,,,,,,,,,,,,,,,,,,,,305.2213558999938,305.2372698999825,305.7222848000238,305.74979319999693,305.773377000005,305.773377000005,305.773377000005,307.1445531999925,Objects\192b.jpg,mid,s,1.3672984999720939,None,,,,,,,,00047,001,2026-01-18_11h21.32.587,MST_test,2024.2.0,59.839212032036244,2026-01-18 11h21.45.224759 +0530,
79,0,80,n,2.1643698000116274,None,80,0,79,307.1606809999794,,,,,,,,,,,,,,,,,,,,,,,,,,,,,,,,,,,,,,,,,,,,,,,,,,307.144650799979,307.1606809999794,307.645663400006,307.6728092000121,307.695901900006,307.695901900006,307.695901900006,309.87070109997876,Foils\009a.jpg,none,n,2.1643698000116274,None,,,,,,,,00047,001,2026-01-18_11h21.32.587,MST_test,2024.2.0,59.839212032036244,2026-01-18 11h21.45.224759 +0530,
80,0,81,o,5.22155879996717,None,81,0,80,309.8867789999931,,,,,,,,,,,,,,,,,,,,,,,,,,,,,,,,,,,,,,,,,,,,,,,,,,309.87080390000483,309.8867789999931,310.37199890002375,310.4006951000192,310.42198199999984,310.42198199999984,310.42198199999984,315.65762650000397,Scenes\183a.jpg,post,o,5.22155879996717,None,,,,,,,,00047,001,2026-01-18_11h21.32.587,MST_test,2024.2.0,59.839212032036244,2026-01-18 11h21.45.224759 +0530,
81,0,82,s,1.26755679998314,None,82,0,81,315.6737088999944,,,,,,,,,,,,,,,,,,,,,,,,,,,,,,,,,,,,,,,,,,,,,,,,,,315.65772000001743,315.6737088999944,316.15959910000674,316.1753742999863,316.1923067999887,316.1923067999887,316.1923067999887,317.4643523999839,Objects\083a.jpg,pre,s,1.26755679998314,None,,,,,,,,00047,001,2026-01-18_11h21.32.587,MST_test,2024.2.0,59.839212032036244,2026-01-18 11h21.45.224759 +0530,
82,0,83,s,1.4447347999666817,None,83,0,82,317.48001140000997,,,,,,,,,,,,,,,,,,,,,,,,,,,,,,,,,,,,,,,,,,,,,,,,,,317.4644477000111,317.48001140000997,317.9652290000231,318.0048353999737,318.0152397999773,318.0152397999773,318.0152397999773,319.4708963999874,Scenes\171b.jpg,pre,s,1.4447347999666817,None,,,,,,,,00047,001,2026-01-18_11h21.32.587,MST_test,2024.2.0,59.839212032036244,2026-01-18 11h21.45.224759 +0530,
83,0,84,s,3.790581299981568,None,84,0,83,319.4870614000247,,,,,,,,,,,,,,,,,,,,,,,,,,,,,,,,,,,,,,,,,,,,,,,,,,319.47099170001457,319.4870614000247,319.97240069997497,319.9966724999831,320.0056504000095,320.0056504000095,320.0056504000095,323.8030229000142,Foils\065a.jpg,none,s,3.790581299981568,None,,,,,,,,00047,001,2026-01-18_11h21.32.587,MST_test,2024.2.0,59.839212032036244,2026-01-18 11h21.45.224759 +0530,
84,0,85,s,4.385652499971911,None,85,0,84,323.81899960001465,,,,,,,,,,,,,,,,,,,,,,,,,,,,,,,,,,,,,,,,,,,,,,,,,,323.8031144000124,323.81899960001465,324.3042166000232,324.3401878000004,324.3551000999869,324.3551000999869,324.3551000999869,328.7535645000171,Scenes\123b.jpg,pre,s,4.385652499971911,None,,,,,,,,00047,001,2026-01-18_11h21.32.587,MST_test,2024.2.0,59.839212032036244,2026-01-18 11h21.45.224759 +0530,
85,0,86,n,1.1239598999964073,None,86,0,85,328.76955490000546,,,,,,,,,,,,,,,,,,,,,,,,,,,,,,,,,,,,,,,,,,,,,,,,,,328.75365780002903,328.76955490000546,329.2547744999756,329.27860620000865,329.28818789997604,329.28818789997604,329.28818789997604,330.4261302999803,Foils\074a.jpg,none,n,1.1239598999964073,None,,,,,,,,00047,001,2026-01-18_11h21.32.587,MST_test,2024.2.0,59.839212032036244,2026-01-18 11h21.45.224759 +0530,
86,0,87,s,2.515684499987401,None,87,0,86,330.4420931999921,,,,,,,,,,,,,,,,,,,,,,,,,,,,,,,,,,,,,,,,,,,,,,,,,,330.4262226999854,330.4420931999921,330.92758289998164,330.95003750000615,330.9606525999843,330.9606525999843,330.9606525999843,333.48701159999473,Objects\107b.jpg,pre,s,2.515684499987401,None,,,,,,,,00047,001,2026-01-18_11h21.32.587,MST_test,2024.2.0,59.839212032036244,2026-01-18 11h21.45.224759 +0530,
87,0,88,s,2.076986300002318,None,88,0,87,333.5028085000231,,,,,,,,,,,,,,,,,,,,,,,,,,,,,,,,,,,,,,,,,,,,,,,,,,333.4871035999968,333.5028085000231,333.98819210001966,334.0203640999971,334.03876660001697,334.03876660001697,334.03876660001697,336.12924199999543,Scenes\132b.jpg,mid,s,2.076986300002318,None,,,,,,,,00047,001,2026-01-18_11h21.32.587,MST_test,2024.2.0,59.839212032036244,2026-01-18 11h21.45.224759 +0530,
88,0,89,s,2.4524155000108294,None,89,0,88,336.14565040002344,,,,,,,,,,,,,,,,,,,,,,,,,,,,,,,,,,,,,,,,,,,,,,,,,,336.12933219998376,336.14565040002344,336.63069650001125,336.65008290001424,336.66411830001744,336.66411830001744,336.66411830001744,339.1232807000051,Scenes\113a.jpg,pre,s,2.4524155000108294,None,,,,,,,,00047,001,2026-01-18_11h21.32.587,MST_test,2024.2.0,59.839212032036244,2026-01-18 11h21.45.224759 +0530,
89,0,90,s,3.858433999994304,None,90,0,89,339.1393198000151,,,,,,,,,,,,,,,,,,,,,,,,,,,,,,,,,,,,,,,,,,,,,,,,,,339.12337169999955,339.1393198000151,339.6244719999959,339.6413235000218,339.65779580001254,339.65779580001254,339.65779580001254,343.5220731999725,Objects\168a.jpg,post,s,3.858433999994304,None,,,,,,,,00047,001,2026-01-18_11h21.32.587,MST_test,2024.2.0,59.839212032036244,2026-01-18 11h21.45.224759 +0530,
90,0,91,o,1.04500729998108,None,91,0,90,343.53793230000883,,,,,,,,,,,,,,,,,,,,,,,,,,,,,,,,,,,,,,,,,,,,,,,,,,343.5221643000259,343.53793230000883,344.0231469999999,344.0392608999973,344.0564149999991,344.0564149999991,344.0564149999991,345.11074069997994,Objects\174a.jpg,post,o,1.04500729998108,None,,,,,,,,00047,001,2026-01-18_11h21.32.587,MST_test,2024.2.0,59.839212032036244,2026-01-18 11h21.45.224759 +0530,
91,0,92,n,1.6060251999879256,None,92,0,91,345.126832799986,,,,,,,,,,,,,,,,,,,,,,,,,,,,,,,,,,,,,,,,,,,,,,,,,,345.11083329998655,345.126832799986,345.61227360001067,345.6369378999807,345.6454270000104,345.6454270000104,345.6454270000104,347.2681799000129,Foils\101b.jpg,none,n,1.6060251999879256,None,,,,,,,,00047,001,2026-01-18_11h21.32.587,MST_test,2024.2.0,59.839212032036244,2026-01-18 11h21.45.224759 +0530,
92,0,93,o,1.1284135999740101,None,93,0,92,347.28439990000334,,,,,,,,,,,,,,,,,,,,,,,,,,,,,,,,,,,,,,,,,,,,,,,,,,347.2682736000279,347.28439990000334,347.77012130001094,347.8022751000244,347.81960300001083,347.81960300001083,347.81960300001083,348.95769499999005,Scenes\069b.jpg,pre,o,1.1284135999740101,None,,,,,,,,00047,001,2026-01-18_11h21.32.587,MST_test,2024.2.0,59.839212032036244,2026-01-18 11h21.45.224759 +0530,
93,0,94,o,0.9271627999842167,None,94,0,93,348.9737992999726,,,,,,,,,,,,,,,,,,,,,,,,,,,,,,,,,,,,,,,,,,,,,,,,,,348.95778890000656,348.9737992999726,349.4587769000209,349.48329649999505,349.4934649000061,349.4934649000061,349.4934649000061,350.4295423000003,Scenes\033b.jpg,pre,o,0.9271627999842167,None,,,,,,,,00047,001,2026-01-18_11h21.32.587,MST_test,2024.2.0,59.839212032036244,2026-01-18 11h21.45.224759 +0530,
94,0,95,o,0.9990266999811865,None,95,0,94,350.44558970001526,,,,,,,,,,,,,,,,,,,,,,,,,,,,,,,,,,,,,,,,,,,,,,,,,,350.42963540001074,350.44558970001526,350.930543399998,350.9464537000167,350.9651755000232,350.9651755000232,350.9651755000232,351.96804850001354,Objects\092a.jpg,pre,o,0.9990266999811865,None,,,,,,,,00047,001,2026-01-18_11h21.32.587,MST_test,2024.2.0,59.839212032036244,2026-01-18 11h21.45.224759 +0530,
95,0,96,s,1.5179312999825925,None,96,0,95,351.9841912999982,,,,,,,,,,,,,,,,,,,,,,,,,,,,,,,,,,,,,,,,,,,,,,,,,,351.96814369998174,351.9841912999982,352.46956800000044,352.4956899000099,352.50209269998595,352.50209269998595,352.50209269998595,354.02545309998095,Objects\095b.jpg,mid,s,1.5179312999825925,None,,,,,,,,00047,001,2026-01-18_11h21.32.587,MST_test,2024.2.0,59.839212032036244,2026-01-18 11h21.45.224759 +0530,
96,0,97,s,4.46745340002235,None,97,0,96,354.0413982999744,,,,,,,,,,,,,,,,,,,,,,,,,,,,,,,,,,,,,,,,,,,,,,,,,,354.0255458999891,354.0413982999744,354.52660829998786,354.54974049999146,354.5601590999868,354.5601590999868,354.5601590999868,359.0428274999722,Objects\151b.jpg,pre,s,4.46745340002235,None,,,,,,,,00047,001,2026-01-18_11h21.32.587,MST_test,2024.2.0,59.839212032036244,2026-01-18 11h21.45.224759 +0530,
97,0,98,s,3.481954999966547,None,98,0,97,359.05896310001845,,,,,,,,,,,,,,,,,,,,,,,,,,,,,,,,,,,,,,,,,,,,,,,,,,359.042923800007,359.05896310001845,359.5441365999868,359.58412810001755,359.5951347000082,359.5951347000082,359.5951347000082,363.0904930999968,Scenes\054b.jpg,post,s,3.481954999966547,None,,,,,,,,00047,001,2026-01-18_11h21.32.587,MST_test,2024.2.0,59.839212032036244,2026-01-18 11h21.45.224759 +0530,
98,0,99,o,0.8996705999597907,None,99,0,98,363.10647300002165,,,,,,,,,,,,,,,,,,,,,,,,,,,,,,,,,,,,,,,,,,,,,,,,,,363.0905861000065,363.10647300002165,363.59168339997996,363.6156820000033,363.62517120002303,363.62517120002303,363.62517120002303,364.52874360000715,Scenes\153a.jpg,post,o,0.8996705999597907,None,,,,,,,,00047,001,2026-01-18_11h21.32.587,MST_test,2024.2.0,59.839212032036244,2026-01-18 11h21.45.224759 +0530,
99,0,100,n,2.012437900004443,None,100,0,99,364.5448435000144,,,,,,,,,,,,,,,,,,,,,,,,,,,,,,,,,,,,,,,,,,,,,,,,,,364.52884039998753,364.5448435000144,365.0302642000024,365.05284469999606,365.06343490001746,365.06343490001746,365.06343490001746,367.0876751000178,Foils\105a.jpg,none,n,2.012437900004443,None,,,,,,,,00047,001,2026-01-18_11h21.32.587,MST_test,2024.2.0,59.839212032036244,2026-01-18 11h21.45.224759 +0530,
100,0,101,n,2.115565999993123,None,101,0,100,367.1039078999893,,,,,,,,,,,,,,,,,,,,,,,,,,,,,,,,,,,,,,,,,,,,,,,,,,367.08777430001646,367.1039078999893,367.58888970001135,367.6414468999719,367.65649770002346,367.65649770002346,367.65649770002346,369.78074379998725,Foils\scenes22.jpg,none,n,2.115565999993123,None,,,,,,,,00047,001,2026-01-18_11h21.32.587,MST_test,2024.2.0,59.839212032036244,2026-01-18 11h21.45.224759 +0530,
101,0,102,s,2.121672999986913,None,102,0,101,369.7967549000168,,,,,,,,,,,,,,,,,,,,,,,,,,,,,,,,,,,,,,,,,,,,,,,,,,369.780837600003,369.7967549000168,370.2817716000136,370.3082785999868,370.3145397999906,370.3145397999906,370.3145397999906,372.43987709999783,Objects\112b.jpg,pre,s,2.121672999986913,None,,,,,,,,00047,001,2026-01-18_11h21.32.587,MST_test,2024.2.0,59.839212032036244,2026-01-18 11h21.45.224759 +0530,
102,0,103,s,2.8917340000043623,None,103,0,102,372.45598869997775,,,,,,,,,,,,,,,,,,,,,,,,,,,,,,,,,,,,,,,,,,,,,,,,,,372.4399751999881,372.45598869997775,372.94095339998603,372.969105999975,372.9919804999954,372.9919804999954,372.9919804999954,375.88541769998847,Scenes\110a.jpg,pre,s,2.8917340000043623,None,,,,,,,,00047,001,2026-01-18_11h21.32.587,MST_test,2024.2.0,59.839212032036244,2026-01-18 11h21.45.224759 +0530,
103,0,104,n,1.8883131999755278,None,104,0,103,375.90127660002327,,,,,,,,,,,,,,,,,,,,,,,,,,,,,,,,,,,,,,,,,,,,,,,,,,375.8855136000202,375.90127660002327,376.3864843000192,376.41047820000676,376.41987979999976,376.41987979999976,376.41987979999976,378.3104956999887,Foils\093b.jpg,none,n,1.8883131999755278,None,,,,,,,,00047,001,2026-01-18_11h21.32.587,MST_test,2024.2.0,59.839212032036244,2026-01-18 11h21.45.224759 +0530,
104,0,105,n,1.367398599977605,None,105,0,104,378.3264593000058,,,,,,,,,,,,,,,,,,,,,,,,,,,,,,,,,,,,,,,,,,,,,,,,,,378.3105893000029,378.3264593000058,378.81164039997384,378.8345099000144,378.84504629997537,378.84504629997537,378.84504629997537,380.2170801999746,Foils\097a.jpg,none,n,1.367398599977605,None,,,,,,,,00047,001,2026-01-18_11h21.32.587,MST_test,2024.2.0,59.839212032036244,2026-01-18 11h21.45.224759 +0530,
105,0,106,o,1.236505200038664,None,106,0,105,380.2332293000072,,,,,,,,,,,,,,,,,,,,,,,,,,,,,,,,,,,,,,,,,,,,,,,,,,380.2171710000257,380.2332293000072,380.7183405000251,380.7353443999891,380.7520928999875,380.7520928999875,380.7520928999875,381.9898501000134,Objects\173a.jpg,mid,o,1.236505200038664,None,,,,,,,,00047,001,2026-01-18_11h21.32.587,MST_test,2024.2.0,59.839212032036244,2026-01-18 11h21.45.224759 +0530,
106,0,107,o,1.840391300036572,None,107,0,106,382.0061578999739,,,,,,,,,,,,,,,,,,,,,,,,,,,,,,,,,,,,,,,,,,,,,,,,,,381.98994240001775,382.0061578999739,382.49119460000657,382.51492320001125,382.52446990000317,382.52446990000317,382.52446990000317,384.3819068999728,Objects\103b.jpg,post,o,1.840391300036572,None,,,,,,,,00047,001,2026-01-18_11h21.32.587,MST_test,2024.2.0,59.839212032036244,2026-01-18 11h21.45.224759 +0530,
107,0,108,n,2.559968499990646,None,108,0,107,384.3976773999748,,,,,,,,,,,,,,,,,,,,,,,,,,,,,,,,,,,,,,,,,,,,,,,,,,384.3819970000186,384.3976773999748,384.88289770000847,384.90844490000745,384.91699110000627,384.91699110000627,384.91699110000627,387.4924798000138,Scenes\107a.jpg,mid,n,2.559968499990646,None,,,,,,,,00047,001,2026-01-18_11h21.32.587,MST_test,2024.2.0,59.839212032036244,2026-01-18 11h21.45.224759 +0530,
108,0,109,o,3.6241382000152953,None,109,0,108,387.5088472000207,,,,,,,,,,,,,,,,,,,,,,,,,,,,,,,,,,,,,,,,,,,,,,,,,,387.49257539998507,387.5088472000207,387.99372580001364,388.03358619997744,388.0441390000051,388.0441390000051,388.0441390000051,391.673957800027,Scenes\103b.jpg,post,o,3.6241382000152953,None,,,,,,,,00047,001,2026-01-18_11h21.32.587,MST_test,2024.2.0,59.839212032036244,2026-01-18 11h21.45.224759 +0530,
109,0,110,s,1.2991372999968007,None,110,0,109,391.68989879998844,,,,,,,,,,,,,,,,,,,,,,,,,,,,,,,,,,,,,,,,,,,,,,,,,,391.6740939000156,391.68989879998844,392.17547369998647,392.2130447999807,392.2251234999858,392.2251234999858,392.2251234999858,393.530168999976,Scenes\184b.jpg,post,s,1.2991372999968007,None,,,,,,,,00047,001,2026-01-18_11h21.32.587,MST_test,2024.2.0,59.839212032036244,2026-01-18 11h21.45.224759 +0530,
110,0,111,o,1.025686200009659,None,111,0,110,393.546647900017,,,,,,,,,,,,,,,,,,,,,,,,,,,,,,,,,,,,,,,,,,,,,,,,,,393.5302650000085,393.546647900017,394.03149129997473,394.0611186000169,394.08268749999115,394.08268749999115,394.08268749999115,395.11922669998603,Scenes\071a.jpg,mid,o,1.025686200009659,None,,,,,,,,00047,001,2026-01-18_11h21.32.587,MST_test,2024.2.0,59.839212032036244,2026-01-18 11h21.45.224759 +0530,
111,0,112,s,4.918842899962328,None,112,0,111,395.1353026999859,,,,,,,,,,,,,,,,,,,,,,,,,,,,,,,,,,,,,,,,,,,,,,,,,,395.1193212000071,395.1353026999859,395.6205008000252,395.64448219997576,395.65381480002543,395.65381480002543,395.65381480002543,400.58829390001483,Scenes\177a.jpg,mid,s,4.918842899962328,None,,,,,,,,00047,001,2026-01-18_11h21.32.587,MST_test,2024.2.0,59.839212032036244,2026-01-18 11h21.45.224759 +0530,
112,0,113,n,6.489023100002669,None,113,0,112,400.60445049998816,,,,,,,,,,,,,,,,,,,,,,,,,,,,,,,,,,,,,,,,,,,,,,,,,,400.58838570001535,400.60445049998816,401.0898038999876,401.1155880999868,401.1232212000177,401.1232212000177,401.1232212000177,407.6133685000241,Foils\026a.jpg,none,n,6.489023100002669,None,,,,,,,,00047,001,2026-01-18_11h21.32.587,MST_test,2024.2.0,59.839212032036244,2026-01-18 11h21.45.224759 +0530,
113,0,114,s,2.736350200022571,None,114,0,113,407.6291818000027,,,,,,,,,,,,,,,,,,,,,,,,,,,,,,,,,,,,,,,,,,,,,,,,,,407.6134606000269,407.6291818000027,408.11415480001597,408.14767049998045,408.16436970001087,408.16436970001087,408.16436970001087,410.90768300002674,Scenes\073b.jpg,post,s,2.736350200022571,None,,,,,,,,00047,001,2026-01-18_11h21.32.587,MST_test,2024.2.0,59.839212032036244,2026-01-18 11h21.45.224759 +0530,
114,0,115,o,1.88876679999521,None,115,0,114,410.92403190000914,,,,,,,,,,,,,,,,,,,,,,,,,,,,,,,,,,,,,,,,,,,,,,,,,,410.90779369999655,410.92403190000914,411.4089979000273,411.4330082000233,411.44349460001104,411.44349460001104,411.44349460001104,413.33330429997295,Scenes\022b.jpg,post,o,1.88876679999521,None,,,,,,,,00047,001,2026-01-18_11h21.32.587,MST_test,2024.2.0,59.839212032036244,2026-01-18 11h21.45.224759 +0530,
115,0,116,n,1.1438349999953061,None,116,0,115,413.3491957000224,,,,,,,,,,,,,,,,,,,,,,,,,,,,,,,,,,,,,,,,,,,,,,,,,,413.33339949999936,413.3491957000224,413.83417079999344,413.858189999999,413.86859219998587,413.86859219998587,413.86859219998587,415.02218979998725,Foils\081a.jpg,none,n,1.1438349999953061,None,,,,,,,,00047,001,2026-01-18_11h21.32.587,MST_test,2024.2.0,59.839212032036244,2026-01-18 11h21.45.224759 +0530,
116,0,117,s,1.6395014000008814,None,117,0,116,415.03843000001507,,,,,,,,,,,,,,,,,,,,,,,,,,,,,,,,,,,,,,,,,,,,,,,,,,415.0222865000251,415.03843000001507,415.52345699997386,415.5454253000207,415.55702210002346,415.55702210002346,415.55702210002346,417.21335410000756,Objects\009b.jpg,post,s,1.6395014000008814,None,,,,,,,,00047,001,2026-01-18_11h21.32.587,MST_test,2024.2.0,59.839212032036244,2026-01-18 11h21.45.224759 +0530,
117,0,118,n,2.8075292999856174,None,118,0,117,417.2294565999764,,,,,,,,,,,,,,,,,,,,,,,,,,,,,,,,,,,,,,,,,,,,,,,,,,417.2134479000233,417.2294565999764,417.71487540000817,417.7483097999939,417.7646788000129,417.7646788000129,417.7646788000129,420.57504839997273,Scenes\169b.jpg,pre,n,2.8075292999856174,None,,,,,,,,00047,001,2026-01-18_11h21.32.587,MST_test,2024.2.0,59.839212032036244,2026-01-18 11h21.45.224759 +0530,
118,0,119,n,4.166627799975686,None,119,0,118,420.5911130000022,,,,,,,,,,,,,,,,,,,,,,,,,,,,,,,,,,,,,,,,,,,,,,,,,,420.57514309999533,420.5911130000022,421.07631169998785,421.0986140000168,421.1095675000106,421.1095675000106,421.1095675000106,425.2916590999812,Foils\049a.jpg,none,n,4.166627799975686,None,,,,,,,,00047,001,2026-01-18_11h21.32.587,MST_test,2024.2.0,59.839212032036244,2026-01-18 11h21.45.224759 +0530,
119,0,120,o,3.4888534999918193,None,120,0,119,425.3077443999937,,,,,,,,,,,,,,,,,,,,,,,,,,,,,,,,,,,,,,,,,,,,,,,,,,425.29175620002206,425.3077443999937,425.79333600000245,425.8190425999928,425.84293949999847,425.84293949999847,425.84293949999847,429.33900769997854,Scenes\164a.jpg,pre,o,3.4888534999918193,None,,,,,,,,00047,001,2026-01-18_11h21.32.587,MST_test,2024.2.0,59.839212032036244,2026-01-18 11h21.45.224759 +0530,
120,0,121,o,0.9548384000081569,None,121,0,120,429.3552373999846,,,,,,,,,,,,,,,,,,,,,,,,,,,,,,,,,,,,,,,,,,,,,,,,,,429.33910909999395,429.3552373999846,429.8402071999735,429.85656490002293,429.873712599976,429.873712599976,429.873712599976,430.8442564000143,Objects\004a.jpg,pre,o,0.9548384000081569,None,,,,,,,,00047,001,2026-01-18_11h21.32.587,MST_test,2024.2.0,59.839212032036244,2026-01-18 11h21.45.224759 +0530,
121,0,122,o,0.8089665999868885,None,122,0,121,430.8603899999871,,,,,,,,,,,,,,,,,,,,,,,,,,,,,,,,,,,,,,,,,,,,,,,,,,430.8443484000163,430.8603899999871,431.3455955000245,431.3711695999955,431.3790299000102,431.3790299000102,431.3790299000102,432.19897329999367,Objects\027b.jpg,pre,o,0.8089665999868885,None,,,,,,,,00047,001,2026-01-18_11h21.32.587,MST_test,2024.2.0,59.839212032036244,2026-01-18 11h21.45.224759 +0530,
122,0,123,s,3.893901499977801,None,123,0,122,432.2151308999746,,,,,,,,,,,,,,,,,,,,,,,,,,,,,,,,,,,,,,,,,,,,,,,,,,432.1990640999866,432.2151308999746,432.7003913000226,432.73918199999025,432.75045059999684,432.75045059999684,432.75045059999684,436.6486265999847,Scenes\039b.jpg,mid,s,3.893901499977801,None,,,,,,,,00047,001,2026-01-18_11h21.32.587,MST_test,2024.2.0,59.839212032036244,2026-01-18 11h21.45.224759 +0530,
123,0,124,o,1.7336002999800257,None,124,0,123,436.66404449997935,,,,,,,,,,,,,,,,,,,,,,,,,,,,,,,,,,,,,,,,,,,,,,,,,,436.6493259000126,436.66404449997935,437.1492507000221,437.17340420000255,437.18269069999224,437.18269069999224,437.18269069999224,438.923332699982,Objects\125b.jpg,post,o,1.7336002999800257,None,,,,,,,,00047,001,2026-01-18_11h21.32.587,MST_test,2024.2.0,59.839212032036244,2026-01-18 11h21.45.224759 +0530,
124,0,125,s,3.3853105999878608,None,125,0,124,438.9388207999873,,,,,,,,,,,,,,,,,,,,,,,,,,,,,,,,,,,,,,,,,,,,,,,,,,438.92344039998716,438.9388207999873,439.4239522999851,439.4561748999986,439.47494400001597,439.47494400001597,439.47494400001597,442.8698280000244,Scenes\134a.jpg,pre,s,3.3853105999878608,None,,,,,,,,00047,001,2026-01-18_11h21.32.587,MST_test,2024.2.0,59.839212032036244,2026-01-18 11h21.45.224759 +0530,
125,0,126,o,1.5678882999927737,None,126,0,125,442.8859635000117,,,,,,,,,,,,,,,,,,,,,,,,,,,,,,,,,,,,,,,,,,,,,,,,,,442.86992129997816,442.8859635000117,443.37096369999927,443.38795090001076,443.4044448999921,443.4044448999921,443.4044448999921,444.97721929999534,Objects\045a.jpg,post,o,1.5678882999927737,None,,,,,,,,00047,001,2026-01-18_11h21.32.587,MST_test,2024.2.0,59.839212032036244,2026-01-18 11h21.45.224759 +0530,
126,0,127,o,0.9610579999862239,None,127,0,126,444.9933317999821,,,,,,,,,,,,,,,,,,,,,,,,,,,,,,,,,,,,,,,,,,,,,,,,,,444.97731659997953,444.9933317999821,445.4782956999843,445.50361010001507,445.56293509999523,445.56293509999523,445.56293509999523,446.5331979999901,Scenes\179a.jpg,mid,o,0.9610579999862239,None,,,,,,,,00047,001,2026-01-18_11h21.32.587,MST_test,2024.2.0,59.839212032036244,2026-01-18 11h21.45.224759 +0530,
127,0,128,n,3.5844689999939874,None,128,0,127,446.5486740000197,,,,,,,,,,,,,,,,,,,,,,,,,,,,,,,,,,,,,,,,,,,,,,,,,,446.53329559997655,446.5486740000197,447.03383879998,447.0568413999863,447.0671314999927,447.0671314999927,447.0671314999927,450.663850300014,Foils\090a.jpg,none,n,3.5844689999939874,None,,,,,,,,00047,001,2026-01-18_11h21.32.587,MST_test,2024.2.0,59.839212032036244,2026-01-18 11h21.45.224759 +0530,
128,0,129,o,4.988106200005859,None,129,0,128,450.67979219998233,,,,,,,,,,,,,,,,,,,,,,,,,,,,,,,,,,,,,,,,,,,,,,,,,,450.66394290002063,450.67979219998233,451.1652183000115,451.1974706000183,451.2157684999984,451.2157684999984,451.2157684999984,456.21663789998274,Scenes\062a.jpg,mid,o,4.988106200005859,None,,,,,,,,00047,001,2026-01-18_11h21.32.587,MST_test,2024.2.0,59.839212032036244,2026-01-18 11h21.45.224759 +0530,
129,0,130,s,3.0438302000402473,None,130,0,129,456.2325850999914,,,,,,,,,,,,,,,,,,,,,,,,,,,,,,,,,,,,,,,,,,,,,,,,,,456.21673159999773,456.2325850999914,456.7178272000165,456.7502335999743,456.76861780002946,456.76861780002946,456.76861780002946,459.8291849999805,Scenes\157b.jpg,post,s,3.0438302000402473,None,,,,,,,,00047,001,2026-01-18_11h21.32.587,MST_test,2024.2.0,59.839212032036244,2026-01-18 11h21.45.224759 +0530,
130,0,131,o,1.5038028999697417,None,131,0,130,459.84521920001134,,,,,,,,,,,,,,,,,,,,,,,,,,,,,,,,,,,,,,,,,,,,,,,,,,459.82941770000616,459.84521920001134,460.3304347000085,460.3465746999718,460.36447849997785,460.36447849997785,460.36447849997785,461.8699735000264,Objects\006a.jpg,mid,o,1.5038028999697417,None,,,,,,,,00047,001,2026-01-18_11h21.32.587,MST_test,2024.2.0,59.839212032036244,2026-01-18 11h21.45.224759 +0530,
131,0,132,n,1.2156376999919303,None,132,0,131,461.8856966000167,,,,,,,,,,,,,,,,,,,,,,,,,,,,,,,,,,,,,,,,,,,,,,,,,,461.8700712000136,461.8856966000167,462.3711020000046,462.3938087000279,462.40436059999047,462.40436059999047,462.40436059999047,463.62581930001033,Objects\065b.jpg,post,n,1.2156376999919303,None,,,,,,,,00047,001,2026-01-18_11h21.32.587,MST_test,2024.2.0,59.839212032036244,2026-01-18 11h21.45.224759 +0530,
132,0,133,s,1.85961700003827,None,133,0,132,463.64185820001876,,,,,,,,,,,,,,,,,,,,,,,,,,,,,,,,,,,,,,,,,,,,,,,,,,463.62591469998006,463.64185820001876,464.12705730000744,464.15000660001533,464.16045440000016,464.16045440000016,464.16045440000016,466.034349100024,Foils\058a.jpg,none,s,1.85961700003827,None,,,,,,,,00047,001,2026-01-18_11h21.32.587,MST_test,2024.2.0,59.839212032036244,2026-01-18 11h21.45.224759 +0530,
133,0,134,s,1.1711905000265688,None,134,0,133,466.05041429999983,,,,,,,,,,,,,,,,,,,,,,,,,,,,,,,,,,,,,,,,,,,,,,,,,,466.03445059998194,466.05041429999983,466.53540529997554,466.5591542000184,466.56893880001735,466.56893880001735,466.56893880001735,467.75694539997494,Objects\145b.jpg,post,s,1.1711905000265688,None,,,,,,,,00047,001,2026-01-18_11h21.32.587,MST_test,2024.2.0,59.839212032036244,2026-01-18 11h21.45.224759 +0530,
134,0,135,s,1.8069334999890998,None,135,0,134,467.7731121000252,,,,,,,,,,,,,,,,,,,,,,,,,,,,,,,,,,,,,,,,,,,,,,,,,,467.7570450999774,467.7731121000252,468.25822040002095,468.27758549997816,468.2924953000038,468.2924953000038,468.2924953000038,470.1154382000095,Foils\scenes8.jpg,none,s,1.8069334999890998,None,,,,,,,,00047,001,2026-01-18_11h21.32.587,MST_test,2024.2.0,59.839212032036244,2026-01-18 11h21.45.224759 +0530,
135,0,136,o,2.114283900009468,None,136,0,135,470.131363100023,,,,,,,,,,,,,,,,,,,,,,,,,,,,,,,,,,,,,,,,,,,,,,,,,,470.1155325000291,470.131363100023,470.616335299972,470.63368560001254,470.6498377000098,470.6498377000098,470.6498377000098,472.7747992000077,Objects\048a.jpg,post,o,2.114283900009468,None,,,,,,,,00047,001,2026-01-18_11h21.32.587,MST_test,2024.2.0,59.839212032036244,2026-01-18 11h21.45.224759 +0530,
136,0,137,s,2.452633800043259,None,137,0,136,472.7906681000022,,,,,,,,,,,,,,,,,,,,,,,,,,,,,,,,,,,,,,,,,,,,,,,,,,472.77490299998317,472.7906681000022,473.2757771000033,473.3121200000169,473.3267989999731,473.3267989999731,473.3267989999731,475.7850605000276,Scenes\017a.jpg,mid,s,2.452633800043259,None,,,,,,,,00047,001,2026-01-18_11h21.32.587,MST_test,2024.2.0,59.839212032036244,2026-01-18 11h21.45.224759 +0530,
137,0,138,s,4.292062999971677,None,138,0,137,475.80122949997894,,,,,,,,,,,,,,,,,,,,,,,,,,,,,,,,,,,,,,,,,,,,,,,,,,475.78515399998287,475.80122949997894,476.28634420002345,476.30295159999514,476.31970950000687,476.31970950000687,476.31970950000687,480.6187564000138,Objects\127a.jpg,pre,s,4.292062999971677,None,,,,,,,,00047,001,2026-01-18_11h21.32.587,MST_test,2024.2.0,59.839212032036244,2026-01-18 11h21.45.224759 +0530,
138,0,139,s,1.3712674000416882,None,139,0,138,480.6346897999756,,,,,,,,,,,,,,,,,,,,,,,,,,,,,,,,,,,,,,,,,,,,,,,,,,480.61884990002727,480.6346897999756,481.12006589997327,481.1421517999843,481.15316639997764,481.15316639997764,481.15316639997764,482.52531669999007,Objects\090b.jpg,mid,s,1.3712674000416882,None,,,,,,,,00047,001,2026-01-18_11h21.32.587,MST_test,2024.2.0,59.839212032036244,2026-01-18 11h21.45.224759 +0530,
139,0,140,s,5.303768100042362,None,140,0,139,482.54150059999665,,,,,,,,,,,,,,,,,,,,,,,,,,,,,,,,,,,,,,,,,,,,,,,,,,482.52541090000886,482.54150059999665,483.0265218000277,483.04267519997666,483.0600224999944,483.0600224999944,483.0600224999944,488.37906060001114,Objects\104a.jpg,post,s,5.303768100042362,None,,,,,,,,00047,001,2026-01-18_11h21.32.587,MST_test,2024.2.0,59.839212032036244,2026-01-18 11h21.45.224759 +0530,
140,0,141,s,1.0348331999848597,None,141,0,140,488.3953177999938,,,,,,,,,,,,,,,,,,,,,,,,,,,,,,,,,,,,,,,,,,,,,,,,,,488.3791521000094,488.3953177999938,488.8805841000285,488.89605270000175,488.91367460001493,488.91367460001493,488.91367460001493,489.9513576999889,Objects\052a.jpg,pre,s,1.0348331999848597,None,,,,,,,,00047,001,2026-01-18_11h21.32.587,MST_test,2024.2.0,59.839212032036244,2026-01-18 11h21.45.224759 +0530,
141,0,142,s,1.1727484000148252,None,142,0,141,489.96749399998225,,,,,,,,,,,,,,,,,,,,,,,,,,,,,,,,,,,,,,,,,,,,,,,,,,489.9514478999772,489.96749399998225,490.4524980999995,490.4883950999938,490.5037844000035,490.5037844000035,490.5037844000035,491.69069770001806,Scenes\141b.jpg,mid,s,1.1727484000148252,None,,,,,,,,00047,001,2026-01-18_11h21.32.587,MST_test,2024.2.0,59.839212032036244,2026-01-18 11h21.45.224759 +0530,
142,0,143,n,7.049360800010618,None,143,0,142,491.7068924999912,,,,,,,,,,,,,,,,,,,,,,,,,,,,,,,,,,,,,,,,,,,,,,,,,,491.69078980002087,491.7068924999912,492.19209949998185,492.2369583999971,492.2599775000126,492.2599775000126,492.2599775000126,499.3176396000199,Scenes\192b.jpg,post,n,7.049360800010618,None,,,,,,,,00047,001,2026-01-18_11h21.32.587,MST_test,2024.2.0,59.839212032036244,2026-01-18 11h21.45.224759 +0530,
143,0,144,s,1.1919661000138149,None,144,0,143,499.333792600024,,,,,,,,,,,,,,,,,,,,,,,,,,,,,,,,,,,,,,,,,,,,,,,,,,499.31773619999876,499.333792600024,499.81869169999845,499.8538537999848,499.8688265000237,499.8688265000237,499.8688265000237,501.0737310000113,Scenes\116b.jpg,pre,s,1.1919661000138149,None,,,,,,,,00047,001,2026-01-18_11h21.32.587,MST_test,2024.2.0,59.839212032036244,2026-01-18 11h21.45.224759 +0530,
144,0,145,n,5.507108199992217,None,145,0,144,501.089657399978,,,,,,,,,,,,,,,,,,,,,,,,,,,,,,,,,,,,,,,,,,,,,,,,,,501.07383020001,501.089657399978,501.5748760999995,501.5983875999809,501.6091759999981,501.6091759999981,501.6091759999981,507.1281298000249,Foils\018a.jpg,none,n,5.507108199992217,None,,,,,,,,00047,001,2026-01-18_11h21.32.587,MST_test,2024.2.0,59.839212032036244,2026-01-18 11h21.45.224759 +0530,
145,0,146,s,1.5243929999996908,None,146,0,145,507.14432439999655,,,,,,,,,,,,,,,,,,,,,,,,,,,,,,,,,,,,,,,,,,,,,,,,,,507.1282242999878,507.14432439999655,507.6292812000029,507.64739599998575,507.6639534999849,507.6639534999849,507.6639534999849,509.20213599997805,Foils\scenes7.jpg,none,s,1.5243929999996908,None,,,,,,,,00047,001,2026-01-18_11h21.32.587,MST_test,2024.2.0,59.839212032036244,2026-01-18 11h21.45.224759 +0530,
146,0,147,s,4.5143078999826685,None,147,0,146,509.2182420999743,,,,,,,,,,,,,,,,,,,,,,,,,,,,,,,,,,,,,,,,,,,,,,,,,,509.20224439998856,509.2182420999743,509.703304500028,509.72610680002254,509.7375984999817,509.7375984999817,509.7375984999817,514.2534323,Scenes\075a.jpg,pre,s,4.5143078999826685,None,,,,,,,,00047,001,2026-01-18_11h21.32.587,MST_test,2024.2.0,59.839212032036244,2026-01-18 11h21.45.224759 +0530,
147,0,148,n,3.391911699960474,None,148,0,147,514.2691474999883,,,,,,,,,,,,,,,,,,,,,,,,,,,,,,,,,,,,,,,,,,,,,,,,,,514.2535277000279,514.2691474999883,514.7543444000185,514.7943780000205,514.8045110999956,514.8045110999956,514.8045110999956,518.200225699984,Scenes\150b.jpg,mid,n,3.391911699960474,None,,,,,,,,00047,001,2026-01-18_11h21.32.587,MST_test,2024.2.0,59.839212032036244,2026-01-18 11h21.45.224759 +0530,
148,0,149,s,1.4600512000033632,None,149,0,148,518.2162994000246,,,,,,,,,,,,,,,,,,,,,,,,,,,,,,,,,,,,,,,,,,,,,,,,,,518.2003178999876,518.2162994000246,518.7017392999842,518.738940500014,518.751501700026,518.751501700026,518.751501700026,520.2242734999745,Scenes\130b.jpg,post,s,1.4600512000033632,None,,,,,,,,00047,001,2026-01-18_11h21.32.587,MST_test,2024.2.0,59.839212032036244,2026-01-18 11h21.45.224759 +0530,
149,0,150,n,1.6612290000193752,None,150,0,149,520.2401787000126,,,,,,,,,,,,,,,,,,,,,,,,,,,,,,,,,,,,,,,,,,,,,,,,,,520.2243791000219,520.2401787000126,520.7251632999978,520.7493260999909,520.7588804999832,520.7588804999832,520.7588804999832,522.431728399999,Foils\033a.jpg,none,n,1.6612290000193752,None,,,,,,,,00047,001,2026-01-18_11h21.32.587,MST_test,2024.2.0,59.839212032036244,2026-01-18 11h21.45.224759 +0530,
,,,,,,,,,,,,,,,,,,,,,,,,,,,,,,,,,,,,,,,,,,,,,,,,,,,,,,,,,,,,,,,,,,,,,,,,522.4317918000161,522.4477840000181,522.4477840000181,524.1545759,space,1.7004332999931648,None,00047,001,2026-01-18_11h21.32.587,MST_test,2024.2.0,59.839212032036244,2026-01-18 11h21.45.224759 +0530,
