Sl_no,image_path,thisN,thisTrialN,thisRepN,key_resp_5.keys,key_resp_5.rt,key_resp_5.duration,key_resp_7.keys,key_resp_7.rt,key_resp_7.duration,key_resp_9.keys,key_resp_9.rt,key_resp_9.duration,key_resp_8.keys,key_resp_8.rt,key_resp_8.duration,practice.thisRepN,practice.thisTrialN,practice.thisN,trials.thisRepN,trials.thisTrialN,trials.thisN,thisRow.t,notes,welcome_page.started,text.started,key_resp.started,welcome_page.stopped,key_resp.keys,key_resp.rt,key_resp.duration,instructions.started,ins.started,key_resp_2.started,instructions.stopped,key_resp_2.keys,key_resp_2.rt,key_resp_2.duration,instructions_2.started,text_10.started,key_resp_10.started,instructions_2.stopped,key_resp_10.keys,key_resp_10.rt,key_resp_10.duration,objects_only_instruction.started,text_3.started,key_resp_3.started,objects_only_instruction.stopped,key_resp_3.keys,key_resp_3.rt,key_resp_3.duration,ISI.started,text_4.started,text_4.stopped,ISI.stopped,practice_block.started,image.started,text_5.started,key_resp_5.started,practice_block.stopped,practice.key_resp_5.keys,practice.key_resp_5.rt,practice.key_resp_5.duration,indoor_outdoor.started,indoor_outdoor.stopped,practice.key_resp_7.keys,image.stopped,text_5.stopped,key_resp_5.stopped,text_7.started,key_resp_7.started,practice.key_resp_7.rt,practice.key_resp_7.duration,practice_to_main.started,text_2.started,key_resp_4.started,practice_to_main.stopped,key_resp_4.keys,key_resp_4.rt,key_resp_4.duration,objects.started,image_2.started,text_9.started,key_resp_9.started,objects.stopped,trials.key_resp_9.keys,trials.key_resp_9.rt,trials.key_resp_9.duration,encoding_task.started,encoding_task.stopped,trials.key_resp_8.keys,image_2.stopped,text_9.stopped,key_resp_9.stopped,text_8.started,key_resp_8.started,trials.key_resp_8.rt,trials.key_resp_8.duration,end_experiment.started,text_6.started,key_resp_6.started,end_experiment.stopped,key_resp_6.keys,key_resp_6.rt,key_resp_6.duration,list_of_stimuli,encoding_task_accuracy,participant,session,date,expName,psychopyVersion,frameRate,expStart,
,,,,,,,,,,,,,,,,,,,,,,,,,0.0014330999983940274,0.0049702000032993965,0.0049702000032993965,1432.930716200004,space,1432.9057240000038,None,,,,,,,,,,,,,,,,,,,,,,,,,,,,,,,,,,,,,,,,,,,,,,,,,,,,,,,,,,,,,,,,,,,,,,,,,,,,,,00042,001,2026-01-17_15h05.40.791,MST_task,2024.2.0,60.03366688165085,2026-01-17 15h06.02.981741 +0530,
,,,,,,,,,,,,,,,,,,,,,,,,,,,,,,,,1432.9308003999977,1432.9498214999985,1432.9498214999985,1452.7094302999976,space,19.744686399993952,None,,,,,,,,,,,,,,,,,,,,,,,,,,,,,,,,,,,,,,,,,,,,,,,,,,,,,,,,,,,,,,,,,,,,,,,00042,001,2026-01-17_15h05.40.791,MST_task,2024.2.0,60.03366688165085,2026-01-17 15h06.02.981741 +0530,
,,,,,,,,,,,,,,,,,,,,,,,,,,,,,,,,,,,,,,,1452.7095415000003,1452.723791999997,1452.723791999997,1472.2088949000026,space,19.482199500002025,None,,,,,,,,,,,,,,,,,,,,,,,,,,,,,,,,,,,,,,,,,,,,,,,,,,,,,,,,,,,,,,,,00042,001,2026-01-17_15h05.40.791,MST_task,2024.2.0,60.03366688165085,2026-01-17 15h06.02.981741 +0530,
,,,,,,,,,,,,,,,,,,,,,,,,,,,,,,,,,,,,,,,,,,,,,,1472.2090325000026,1472.224112900003,1472.224112900003,1487.2921169999972,space,15.053750099999888,None,,,,,,,,,,,,,,,,,,,,,,,,,,,,,,,,,,,,,,,,,,,,,,,,,,,,,,,,,00042,001,2026-01-17_15h05.40.791,MST_task,2024.2.0,60.03366688165085,2026-01-17 15h06.02.981741 +0530,
10,practice_images/182a.jpg,0,0,1,f,2.8791602999990573,None,None,,,,,,,,,1,0,0,,,,1487.3070920000027,,,,,,,,,,,,,,,,,,,,,,,,,,,,,,1487.301838600004,1487.3070920000027,1487.839799399997,1487.7916869000037,1487.8056545,1487.839799399997,1487.839799399997,1487.839799399997,1490.8075667000012,f,2.8791602999990573,None,1490.8120740000013,1490.812126900004,None,,,,,,,,,,,,,,,,,,,,,,,,,,,,,,,,,,,,,,,,,,00042,001,2026-01-17_15h05.40.791,MST_task,2024.2.0,60.03366688165085,2026-01-17 15h06.02.981741 +0530,
6,practice_images/158a.jpg,1,1,1,j,1.3072087000036845,0.11978850000014063,None,,,,,,,,,1,1,1,,,,1490.823827500004,,,,,,,,,,,,,,,,,,,,,,,,,,,,,,1490.8123295999976,1490.823827500004,1491.3238564999992,1491.3080026000025,1491.3140133999987,1491.3238564999992,1491.3238564999992,1491.3238564999992,1494.3085797000022,j,1.3072087000036845,0.11978850000014063,1494.308694899999,1494.3087433999972,None,1494.3238133999985,1494.3238133999985,1494.3238133999985,,,,,,,,,,,,,,,,,,,,,,,,,,,,,,,,,,,,,,,00042,001,2026-01-17_15h05.40.791,MST_task,2024.2.0,60.03366688165085,2026-01-17 15h06.02.981741 +0530,
5,practice_images/139a.jpg,2,2,1,None,,,f,1.4860390999965603,None,,,,,,,1,2,2,,,,1494.3238133999985,,,,,,,,,,,,,,,,,,,,,,,,,,,,,,1494.308965199998,1494.3238133999985,1494.823933599997,1494.8084400000007,1494.8133106000023,1494.823933599997,1494.823933599997,1494.823933599997,1497.8083848000024,None,,,1497.8085169999977,1499.3256447000022,f,1497.8238001999998,1497.8238001999998,1497.8238001999998,1497.8238001999998,1497.8238001999998,1.4860390999965603,None,,,,,,,,,,,,,,,,,,,,,,,,,,,,,,,,,,,00042,001,2026-01-17_15h05.40.791,MST_task,2024.2.0,60.03366688165085,2026-01-17 15h06.02.981741 +0530,
2,practice_images/031a.jpg,3,3,1,f,0.7897599999996601,0.16032029999769293,None,,,,,,,,,1,3,3,,,,1499.3403152000028,,,,,,,,,,,,,,,,,,,,,,,,,,,,,,1499.325886300001,1499.3403152000028,1499.8404673999976,1499.8247953000027,1499.8289442000023,1499.8404673999976,1499.8404673999976,1499.8404673999976,1502.8249778000027,f,0.7897599999996601,0.16032029999769293,1502.8250598000013,1502.8250954000032,None,1502.8406280999989,1502.8406280999989,1502.8406280999989,,,,,,,,,,,,,,,,,,,,,,,,,,,,,,,,,,,,,,,00042,001,2026-01-17_15h05.40.791,MST_task,2024.2.0,60.03366688165085,2026-01-17 15h06.02.981741 +0530,
3,practice_images/037a.jpg,4,4,1,f,0.8833481999972719,0.16652050000266172,None,,,,,,,,,1,4,4,,,,1502.8406280999989,,,,,,,,,,,,,,,,,,,,,,,,,,,,,,1502.8253181999971,1502.8406280999989,1503.340751900003,1503.3255963999982,1503.330117700003,1503.340751900003,1503.340751900003,1503.340751900003,1506.325316800001,f,0.8833481999972719,0.16652050000266172,1506.3254473999987,1506.3254909000025,None,1506.3405305999986,1506.3405305999986,1506.3405305999986,,,,,,,,,,,,,,,,,,,,,,,,,,,,,,,,,,,,,,,00042,001,2026-01-17_15h05.40.791,MST_task,2024.2.0,60.03366688165085,2026-01-17 15h06.02.981741 +0530,
1,practice_images/013a.jpg,5,5,1,j,0.7579549000001862,0.1434311000048183,None,,,,,,,,,1,5,5,,,,1506.3405305999986,,,,,,,,,,,,,,,,,,,,,,,,,,,,,,1506.3256897000028,1506.3405305999986,1506.8403766999982,1506.8248815999978,1506.832804800004,1506.8403766999982,1506.8403766999982,1506.8403766999982,1509.8250848000025,j,0.7579549000001862,0.1434311000048183,1509.830585100004,1509.8306299000033,None,1509.8404725,1509.8404725,1509.8404725,,,,,,,,,,,,,,,,,,,,,,,,,,,,,,,,,,,,,,,00042,001,2026-01-17_15h05.40.791,MST_task,2024.2.0,60.03366688165085,2026-01-17 15h06.02.981741 +0530,
9,practice_images/180a.jpg,6,6,1,f,0.7062349999978323,0.16787219999969238,None,,,,,,,,,1,6,6,,,,1509.8404725,,,,,,,,,,,,,,,,,,,,,,,,,,,,,,1509.8308080999996,1509.8404725,1510.3407948000022,1510.3252125,1510.3291508000038,1510.3407948000022,1510.3407948000022,1510.3407948000022,1513.3249913000036,f,0.7062349999978323,0.16787219999969238,1513.3251065000004,1513.325155300001,None,1513.340446000002,1513.340446000002,1513.340446000002,,,,,,,,,,,,,,,,,,,,,,,,,,,,,,,,,,,,,,,00042,001,2026-01-17_15h05.40.791,MST_task,2024.2.0,60.03366688165085,2026-01-17 15h06.02.981741 +0530,
8,practice_images/178a.jpg,7,7,1,None,,,f,0.03731080000579823,None,,,,,,,1,7,7,,,,1513.340446000002,,,,,,,,,,,,,,,,,,,,,,,,,,,,,,1513.3253735000035,1513.340446000002,1513.8406956000035,1513.8247620999973,1513.8282383999976,1513.8406956000035,1513.8406956000035,1513.8406956000035,1516.8249381999995,None,,,1516.825042000004,1516.8925235999995,f,1516.840516700002,1516.840516700002,1516.840516700002,1516.840516700002,1516.840516700002,0.03731080000579823,None,,,,,,,,,,,,,,,,,,,,,,,,,,,,,,,,,,,00042,001,2026-01-17_15h05.40.791,MST_task,2024.2.0,60.03366688165085,2026-01-17 15h06.02.981741 +0530,
7,practice_images/166a.jpg,8,8,1,f,0.927025799996045,0.13652659999934258,None,,,,,,,,,1,8,8,,,,1516.9073779000028,,,,,,,,,,,,,,,,,,,,,,,,,,,,,,1516.8928944,1516.9073779000028,1517.407615199998,1517.3916051999986,1517.395385900003,1517.407615199998,1517.407615199998,1517.407615199998,1520.3918447000033,f,0.927025799996045,0.13652659999934258,1520.3919975000026,1520.3920679000003,None,1520.4072527000026,1520.4072527000026,1520.4072527000026,,,,,,,,,,,,,,,,,,,,,,,,,,,,,,,,,,,,,,,00042,001,2026-01-17_15h05.40.791,MST_task,2024.2.0,60.03366688165085,2026-01-17 15h06.02.981741 +0530,
4,practice_images/002b.jpg,9,9,1,f,0.8111392999999225,0.13607480000064243,None,,,,,,,,,1,9,9,,,,1520.4072527000026,,,,,,,,,,,,,,,,,,,,,,,,,,,,,,1520.3923227999985,1520.4072527000026,1520.9072477000009,1520.8916609000007,1520.8960509000026,1520.9072477000009,1520.9072477000009,1520.9072477000009,1523.8914864000035,f,0.8111392999999225,0.13607480000064243,1523.8915880999994,1523.891630799997,None,1523.9070044999971,1523.9070044999971,1523.9070044999971,,,,,,,,,,,,,,,,,,,,,,,,,,,,,,,,,,,,,,,00042,001,2026-01-17_15h05.40.791,MST_task,2024.2.0,60.03366688165085,2026-01-17 15h06.02.981741 +0530,
,,,,,,,,,,,,,,,,,,,,,,,,,,,,,,,,,,,,,,,,,,,,,,,,,,,,,,,,,,,,,,,,,,,,,,,,,,,1523.891790900001,1523.9070044999971,1523.9070044999971,1530.3755549999987,space,6.458614600000146,None,,,,,,,,,,,,,,,,,,,,,,,,,,,,00042,001,2026-01-17_15h05.40.791,MST_task,2024.2.0,60.03366688165085,2026-01-17 15h06.02.981741 +0530,
,Scenes\008a.jpg,0,0,1,,,,,,,j,0.8054054000022006,0.1438230999992811,None,,,,,,1,0,0,1530.3908177999983,,,,,,,,,,,,,,,,,,,,,,,,,,,,,,1530.377827000004,1530.3908177999983,1530.896674100004,1530.8748419999974,,,,,,,,,,,,,,,,,,,,,,,,,,1530.8918347,1530.896674100004,1530.896674100004,1530.896674100004,1533.8907381000026,j,0.8054054000022006,0.1438230999992811,1533.8961629000041,1533.8962291999997,None,,,,,,,,,,,,,,,,,00042,001,2026-01-17_15h05.40.791,MST_task,2024.2.0,60.03366688165085,2026-01-17 15h06.02.981741 +0530,
,Scenes\019a.jpg,1,0,2,,,,,,,j,1.2048040000008768,0.1435284999970463,None,,,,,,2,0,1,1533.9071635,,,,,,,,,,,,,,,,,,,,,,,,,,,,,,1533.8964345999993,1533.9071635,1534.4664645000012,1534.3914212000018,,,,,,,,,,,,,,,,,,,,,,,,,,1534.4634011000016,1534.4664645000012,1534.4664645000012,1534.4664645000012,1537.4074954000025,j,1.2048040000008768,0.1435284999970463,1537.4076561999973,1537.407701600001,None,,,,,,,,,,,,,,,,,00042,001,2026-01-17_15h05.40.791,MST_task,2024.2.0,60.03366688165085,2026-01-17 15h06.02.981741 +0530,
,Scenes\013a.jpg,2,0,3,,,,,,,j,2.296710599999642,0.1273469000007026,None,,,,,,3,0,2,1537.4240150999976,,,,,,,,,,,,,,,,,,,,,,,,,,,,,,1537.4079423000003,1537.4240150999976,1537.9267566999988,1537.9084000000003,,,,,,,,,,,,,,,,,,,,,,,,,,1537.923558399998,1537.9267566999988,1537.9267566999988,1537.9267566999988,1540.9241629000026,j,2.296710599999642,0.1273469000007026,1540.9243346000003,1540.9243922000023,None,,,,,,,,,,,,,,,,,00042,001,2026-01-17_15h05.40.791,MST_task,2024.2.0,60.03366688165085,2026-01-17 15h06.02.981741 +0530,
,Scenes\132a.jpg,3,0,4,,,,,,,j,1.6654670999996597,0.1284120999989682,None,,,,,,4,0,3,1540.941458399997,,,,,,,,,,,,,,,,,,,,,,,,,,,,,,1540.9247634999992,1540.941458399997,1541.4442259999996,1541.4248174000022,,,,,,,,,,,,,,,,,,,,,,,,,,1541.441118200004,1541.4442259999996,1541.4442259999996,1541.4442259999996,1544.4409730999978,j,1.6654670999996597,0.1284120999989682,1544.4410878999988,1544.4411274000013,None,,,,,,,,,,,,,,,,,00042,001,2026-01-17_15h05.40.791,MST_task,2024.2.0,60.03366688165085,2026-01-17 15h06.02.981741 +0530,
,Scenes\124a.jpg,4,0,5,,,,,,,None,,,j,1.9531468999994104,None,,,,5,0,4,1544.457043100003,,,,,,,,,,,,,,,,,,,,,,,,,,,,,,1544.4413365,1544.457043100003,1544.9574885999973,1544.9414971000006,,,,,,,,,,,,,,,,,,,,,,,,,,1544.951015700004,1544.9574885999973,1544.9574885999973,1544.9574885999973,1547.942402200002,None,,,1547.9425287999984,1549.9255331000022,j,1547.957086100003,1547.957086100003,1547.957086100003,1547.957086100003,1547.957086100003,1.9531468999994104,None,,,,,,,,,,00042,001,2026-01-17_15h05.40.791,MST_task,2024.2.0,60.03366688165085,2026-01-17 15h06.02.981741 +0530,
,Scenes\097a.jpg,5,0,6,,,,,,,None,,,f,6.7890322000021115,None,,,,6,0,5,1549.9405374999988,,,,,,,,,,,,,,,,,,,,,,,,,,,,,,1549.9260336000007,1549.9405374999988,1550.4405628000022,1550.4247820000019,,,,,,,,,,,,,,,,,,,,,,,,,,1550.4359436000013,1550.4405628000022,1550.4405628000022,1550.4405628000022,1553.425683100002,None,,,1553.4257967000012,1560.2424436000001,f,1553.4405626000007,1553.4405626000007,1553.4405626000007,1553.4405626000007,1553.4405626000007,6.7890322000021115,None,,,,,,,,,,00042,001,2026-01-17_15h05.40.791,MST_task,2024.2.0,60.03366688165085,2026-01-17 15h06.02.981741 +0530,
,Scenes\175a.jpg,6,0,7,,,,,,,None,,,j,0.529868700003135,None,,,,7,0,6,1560.2570935999975,,,,,,,,,,,,,,,,,,,,,,,,,,,,,,1560.242996699999,1560.2570935999975,1560.7576248999976,1560.7417324999988,,,,,,,,,,,,,,,,,,,,,,,,,,1560.7515924000036,1560.7576248999976,1560.7576248999976,1560.7576248999976,1563.7422267000002,None,,,1563.7423789000022,1564.2919496000031,j,1563.7570705000035,1563.7570705000035,1563.7570705000035,1563.7570705000035,1563.7570705000035,0.529868700003135,None,,,,,,,,,,00042,001,2026-01-17_15h05.40.791,MST_task,2024.2.0,60.03366688165085,2026-01-17 15h06.02.981741 +0530,
,Objects\164a.jpg,7,0,8,,,,,,,None,,,f,0.3347192000001087,None,,,,8,0,7,1564.3070853000027,,,,,,,,,,,,,,,,,,,,,,,,,,,,,,1564.293042899997,1564.3070853000027,1564.8653273000018,1564.7914711999983,,,,,,,,,,,,,,,,,,,,,,,,,,1564.8620150999996,1564.8653273000018,1564.8653273000018,1564.8653273000018,1567.8077688999983,None,,,1567.8152885000018,1568.1756886000003,f,,,,1567.8237205999976,1567.8237205999976,0.3347192000001087,None,,,,,,,,,,00042,001,2026-01-17_15h05.40.791,MST_task,2024.2.0,60.03366688165085,2026-01-17 15h06.02.981741 +0530,
,Objects\161a.jpg,8,0,9,,,,,,,f,2.626085099996999,0.23955710000154795,None,,,,,,9,0,8,1568.1905563000037,,,,,,,,,,,,,,,,,,,,,,,,,,,,,,1568.1761998000002,1568.1905563000037,1568.724815499998,1568.6747056000022,,,,,,,,,,,,,,,,,,,,,,,,,,1568.7218407000037,1568.724815499998,1568.724815499998,1568.724815499998,1571.6907358000026,f,2.626085099996999,0.23955710000154795,1571.6909010000018,1571.6909639000005,None,,,,,,,,,,,,,,,,,00042,001,2026-01-17_15h05.40.791,MST_task,2024.2.0,60.03366688165085,2026-01-17 15h06.02.981741 +0530,
,Objects\046a.jpg,9,0,10,,,,,,,f,0.134731300000567,0.11998769999627257,None,,,,,,10,0,9,1571.7071491000024,,,,,,,,,,,,,,,,,,,,,,,,,,,,,,1571.6913026999973,1571.7071491000024,1572.2074388999972,1572.1916574999996,,,,,,,,,,,,,,,,,,,,,,,,,,1572.1992867000008,1572.2074388999972,1572.2074388999972,1572.2074388999972,1575.192454600001,f,0.134731300000567,0.11998769999627257,1575.1925715000034,1575.1926099999982,None,1575.2072050999996,1575.2072050999996,1575.2072050999996,,,,,,,,,,,,,,00042,001,2026-01-17_15h05.40.791,MST_task,2024.2.0,60.03366688165085,2026-01-17 15h06.02.981741 +0530,
,Objects\065a.jpg,10,0,11,,,,,,,j,1.9866924000016297,0.17621649999637157,None,,,,,,11,0,10,1575.2072050999996,,,,,,,,,,,,,,,,,,,,,,,,,,,,,,1575.192815100003,1575.2072050999996,1575.7075669999977,1575.6915816999972,,,,,,,,,,,,,,,,,,,,,,,,,,1575.697071399998,1575.7075669999977,1575.7075669999977,1575.7075669999977,1578.6925904000018,j,1.9866924000016297,0.17621649999637157,1578.6926966000028,1578.6927504999985,None,1578.7071875000038,1578.7071875000038,1578.7071875000038,,,,,,,,,,,,,,00042,001,2026-01-17_15h05.40.791,MST_task,2024.2.0,60.03366688165085,2026-01-17 15h06.02.981741 +0530,
,Objects\014a.jpg,11,0,12,,,,,,,f,1.006389999995008,0.14480900000489783,None,,,,,,12,0,11,1578.7071875000038,,,,,,,,,,,,,,,,,,,,,,,,,,,,,,1578.693188899997,1578.7071875000038,1579.2073225999993,1579.1919688999988,,,,,,,,,,,,,,,,,,,,,,,,,,1579.200652600004,1579.2073225999993,1579.2073225999993,1579.2073225999993,1582.1920613999973,f,1.006389999995008,0.14480900000489783,1582.192186100001,1582.1922247999973,None,1582.2070313000004,1582.2070313000004,1582.2070313000004,,,,,,,,,,,,,,00042,001,2026-01-17_15h05.40.791,MST_task,2024.2.0,60.03366688165085,2026-01-17 15h06.02.981741 +0530,
,Objects\096a.jpg,12,0,13,,,,,,,j,2.1125482999996166,0.18385999999736669,None,,,,,,13,0,12,1582.2070313000004,,,,,,,,,,,,,,,,,,,,,,,,,,,,,,1582.1926200000016,1582.2070313000004,1582.7261560999978,1582.6918153000006,,,,,,,,,,,,,,,,,,,,,,,,,,1582.7231832000034,1582.7261560999978,1582.7261560999978,1582.7261560999978,1585.707678400002,j,2.1125482999996166,0.18385999999736669,1585.7078229000035,1585.7078703000006,None,,,,,,,,,,,,,,,,,00042,001,2026-01-17_15h05.40.791,MST_task,2024.2.0,60.03366688165085,2026-01-17 15h06.02.981741 +0530,
,Objects\135a.jpg,13,0,14,,,,,,,f,1.2469800999970175,0.16773560000001453,None,,,,,,14,0,13,1585.7236789000017,,,,,,,,,,,,,,,,,,,,,,,,,,,,,,1585.7081214999998,1585.7236789000017,1586.2238970000035,1586.2081583000036,,,,,,,,,,,,,,,,,,,,,,,,,,1586.2163616000034,1586.2238970000035,1586.2238970000035,1586.2238970000035,1589.2086590000035,f,1.2469800999970175,0.16773560000001453,1589.2087685000006,1589.2088046999997,None,1589.2237900999971,1589.2237900999971,1589.2237900999971,,,,,,,,,,,,,,00042,001,2026-01-17_15h05.40.791,MST_task,2024.2.0,60.03366688165085,2026-01-17 15h06.02.981741 +0530,
,Scenes\120a.jpg,14,0,15,,,,,,,j,2.046359300002223,0.15984259999822825,None,,,,,,15,0,14,1589.2237900999971,,,,,,,,,,,,,,,,,,,,,,,,,,,,,,1589.2091828999983,1589.2237900999971,1589.728399300002,1589.7088862000019,,,,,,,,,,,,,,,,,,,,,,,,,,1589.7237995000032,1589.728399300002,1589.728399300002,1589.728399300002,1592.7242092000015,j,2.046359300002223,0.15984259999822825,1592.7278816000035,1592.727910900001,None,,,,,,,,,,,,,,,,,00042,001,2026-01-17_15h05.40.791,MST_task,2024.2.0,60.03366688165085,2026-01-17 15h06.02.981741 +0530,
,Scenes\147a.jpg,15,0,16,,,,,,,j,1.6080279000016162,0.15151460000197403,None,,,,,,16,0,15,1592.7407439000017,,,,,,,,,,,,,,,,,,,,,,,,,,,,,,1592.7280802000023,1592.7407439000017,1593.2790209000013,1593.224737299999,,,,,,,,,,,,,,,,,,,,,,,,,,1593.2755480999986,1593.2790209000013,1593.2790209000013,1593.2790209000013,1596.2406955999977,j,1.6080279000016162,0.15151460000197403,1596.2408605000019,1596.2409033000004,None,,,,,,,,,,,,,,,,,00042,001,2026-01-17_15h05.40.791,MST_task,2024.2.0,60.03366688165085,2026-01-17 15h06.02.981741 +0530,
,Scenes\128a.jpg,16,0,17,,,,,,,j,1.5606813999984297,0.16862979999859817,None,,,,,,17,0,16,1596.2570760000017,,,,,,,,,,,,,,,,,,,,,,,,,,,,,,1596.241239199997,1596.2570760000017,,1596.7412241999991,,,,,,,,,,,,,,,,,,,,,,,,,,1596.752952200004,1596.7575587000028,1596.7575587000028,1596.7575587000028,1599.741900699999,j,1.5606813999984297,0.16862979999859817,1599.7420825000008,1599.742149800004,None,1599.757100200004,1599.757100200004,1599.757100200004,,,,,,,,,,,,,,00042,001,2026-01-17_15h05.40.791,MST_task,2024.2.0,60.03366688165085,2026-01-17 15h06.02.981741 +0530,
,Scenes\165a.jpg,17,0,18,,,,,,,None,,,f,0.2047935000009602,None,,,,18,0,17,1599.757100200004,,,,,,,,,,,,,,,,,,,,,,,,,,,,,,1599.7425599999988,1599.757100200004,1600.257661399999,1600.2405885999979,,,,,,,,,,,,,,,,,,,,,,,,,,1600.2542497000031,1600.257661399999,1600.257661399999,1600.257661399999,1603.2421643999987,None,,,1603.242306799999,1603.475739900001,f,1603.2572670000009,1603.2572670000009,1603.2572670000009,1603.2572670000009,1603.2572670000009,0.2047935000009602,None,,,,,,,,,,00042,001,2026-01-17_15h05.40.791,MST_task,2024.2.0,60.03366688165085,2026-01-17 15h06.02.981741 +0530,
,Scenes\016a.jpg,18,0,19,,,,,,,j,1.4015014000033261,0.19170560000202386,None,,,,,,19,0,18,1603.4904145999972,,,,,,,,,,,,,,,,,,,,,,,,,,,,,,1603.476063299997,1603.4904145999972,1604.0139849999978,1603.9747635000022,,,,,,,,,,,,,,,,,,,,,,,,,,1604.0105345999982,1604.0139849999978,1604.0139849999978,1604.0139849999978,1606.991034300001,j,1.4015014000033261,0.19170560000202386,1606.9911463000026,1606.991183099999,None,,,,,,,,,,,,,,,,,00042,001,2026-01-17_15h05.40.791,MST_task,2024.2.0,60.03366688165085,2026-01-17 15h06.02.981741 +0530,
,Scenes\154a.jpg,19,0,20,,,,,,,None,,,j,0.411320600003819,None,,,,20,0,19,1607.0072510000027,,,,,,,,,,,,,,,,,,,,,,,,,,,,,,1606.9914427999975,1607.0072510000027,1607.507701100003,1607.4914352999986,,,,,,,,,,,,,,,,,,,,,,,,,,1607.5018775999997,1607.507701100003,1607.507701100003,1607.507701100003,1610.4923668999982,None,,,1610.4925260000018,1610.9264898999973,j,1610.5072817999971,1610.5072817999971,1610.5072817999971,1610.5072817999971,1610.5072817999971,0.411320600003819,None,,,,,,,,,,00042,001,2026-01-17_15h05.40.791,MST_task,2024.2.0,60.03366688165085,2026-01-17 15h06.02.981741 +0530,
,Scenes\034a.jpg,20,0,21,,,,,,,None,,,j,1.1819003999989945,None,,,,21,0,20,1610.9403842000029,,,,,,,,,,,,,,,,,,,,,,,,,,,,,,1610.9270077999972,1610.9403842000029,1611.5000270000019,1611.4249697999985,,,,,,,,,,,,,,,,,,,,,,,,,,1611.4955956999984,1611.5000270000019,1611.5000270000019,1611.5000270000019,1614.441106899998,None,,,1614.4412446999995,1615.6425100999986,j,,,,1614.4570663999984,1614.4570663999984,1.1819003999989945,None,,,,,,,,,,00042,001,2026-01-17_15h05.40.791,MST_task,2024.2.0,60.03366688165085,2026-01-17 15h06.02.981741 +0530,
,Objects\120a.jpg,21,0,22,,,,,,,None,,,f,0.36053610000089975,None,,,,22,0,21,1615.657100700002,,,,,,,,,,,,,,,,,,,,,,,,,,,,,,1615.6429356000008,1615.657100700002,1616.1581166000033,1616.1418782999972,,,,,,,,,,,,,,,,,,,,,,,,,,1616.1500385000036,1616.1581166000033,1616.1581166000033,1616.1581166000033,1619.1574234,None,,,1619.163669499998,1619.5420521999986,f,,,,1619.1738086000041,1619.1738086000041,0.36053610000089975,None,,,,,,,,,,00042,001,2026-01-17_15h05.40.791,MST_task,2024.2.0,60.03366688165085,2026-01-17 15h06.02.981741 +0530,
,Objects\142a.jpg,22,0,23,,,,,,,None,,,f,0.5085223999994923,None,,,,23,0,22,1619.557058600003,,,,,,,,,,,,,,,,,,,,,,,,,,,,,,1619.5422938999982,1619.557058600003,1620.0572619000013,1620.041801600004,,,,,,,,,,,,,,,,,,,,,,,,,,1620.0476531000022,1620.0572619000013,1620.0572619000013,1620.0572619000013,1623.0424834000005,None,,,1623.0425885000004,1623.5756919999985,f,1623.0570969999972,1623.0570969999972,1623.0570969999972,1623.0570969999972,1623.0570969999972,0.5085223999994923,None,,,,,,,,,,00042,001,2026-01-17_15h05.40.791,MST_task,2024.2.0,60.03366688165085,2026-01-17 15h06.02.981741 +0530,
,Objects\020a.jpg,23,0,24,,,,,,,None,,,f,0.4432535000014468,None,,,,24,0,23,1623.590602199998,,,,,,,,,,,,,,,,,,,,,,,,,,,,,,1623.5761311000024,1623.590602199998,1624.1196417000028,1624.0746909000009,,,,,,,,,,,,,,,,,,,,,,,,,,1624.116253799999,1624.1196417000028,1624.1196417000028,1624.1196417000028,1627.0911486999976,None,,,1627.091297699997,1627.5587374000024,f,,,,1627.1070764000033,1627.1070764000033,0.4432535000014468,None,,,,,,,,,,00042,001,2026-01-17_15h05.40.791,MST_task,2024.2.0,60.03366688165085,2026-01-17 15h06.02.981741 +0530,
,Objects\141a.jpg,24,0,25,,,,,,,None,,,j,0.37191389999497915,None,,,,25,0,24,1627.5740291000038,,,,,,,,,,,,,,,,,,,,,,,,,,,,,,1627.5591287999996,1627.5740291000038,1628.0745263999997,1628.0581127999976,,,,,,,,,,,,,,,,,,,,,,,,,,1628.0642221000016,1628.0745263999997,1628.0745263999997,1628.0745263999997,1631.0589273000005,None,,,1631.059080500003,1631.4580623000002,j,1631.0738176000013,1631.0738176000013,1631.0738176000013,1631.0738176000013,1631.0738176000013,0.37191389999497915,None,,,,,,,,,,00042,001,2026-01-17_15h05.40.791,MST_task,2024.2.0,60.03366688165085,2026-01-17 15h06.02.981741 +0530,
,Objects\144a.jpg,25,0,26,,,,,,,None,,,j,1.3761338999975123,None,,,,26,0,25,1631.4737858000008,,,,,,,,,,,,,,,,,,,,,,,,,,,,,,1631.4582484999992,1631.4737858000008,1631.9742830000032,1631.9581078999981,,,,,,,,,,,,,,,,,,,,,,,,,,1631.9670321000012,1631.9742830000032,1631.9742830000032,1631.9742830000032,1634.9588845000035,None,,,1634.9590444999994,1636.3590938999987,j,1634.9738557000019,1634.9738557000019,1634.9738557000019,1634.9738557000019,1634.9738557000019,1.3761338999975123,None,,,,,,,,,,00042,001,2026-01-17_15h05.40.791,MST_task,2024.2.0,60.03366688165085,2026-01-17 15h06.02.981741 +0530,
,Objects\169a.jpg,26,0,27,,,,,,,None,,,j,0.5726211000001058,None,,,,27,0,26,1636.3736836000026,,,,,,,,,,,,,,,,,,,,,,,,,,,,,,1636.3594890000022,1636.3736836000026,1636.8740241999985,1636.8583246999988,,,,,,,,,,,,,,,,,,,,,,,,,,1636.8645191000032,1636.8740241999985,1636.8740241999985,1636.8740241999985,1639.8591615000041,None,,,1639.8593303000016,1640.4590307000035,j,1639.8740794000041,1639.8740794000041,1639.8740794000041,1639.8740794000041,1639.8740794000041,0.5726211000001058,None,,,,,,,,,,00042,001,2026-01-17_15h05.40.791,MST_task,2024.2.0,60.03366688165085,2026-01-17 15h06.02.981741 +0530,
,Objects\040a.jpg,27,0,28,,,,,,,None,,,j,0.5122910000063712,None,,,,28,0,27,1640.4737393000032,,,,,,,,,,,,,,,,,,,,,,,,,,,,,,1640.4594576000018,1640.4737393000032,1640.9739125999986,1640.9582310000042,,,,,,,,,,,,,,,,,,,,,,,,,,1640.9647633999994,1640.9739125999986,1640.9739125999986,1640.9739125999986,1643.9588425999973,None,,,1643.9589618000027,1644.4923746999993,j,1643.973865,1643.973865,1643.973865,1643.973865,1643.973865,0.5122910000063712,None,,,,,,,,,,00042,001,2026-01-17_15h05.40.791,MST_task,2024.2.0,60.03366688165085,2026-01-17 15h06.02.981741 +0530,
,Scenes\142a.jpg,28,0,29,,,,,,,None,,,j,0.49381300000095507,None,,,,29,0,28,1644.5071334000022,,,,,,,,,,,,,,,,,,,,,,,,,,,,,,1644.4926608000023,1644.5071334000022,1645.0169174000039,1644.991708200003,,,,,,,,,,,,,,,,,,,,,,,,,,1645.0134235000005,1645.0169174000039,1645.0169174000039,1645.0169174000039,1648.0077621000019,None,,,1648.0115033000038,1648.5254707999993,j,,,,1648.0247174000033,1648.0247174000033,0.49381300000095507,None,,,,,,,,,,00042,001,2026-01-17_15h05.40.791,MST_task,2024.2.0,60.03366688165085,2026-01-17 15h06.02.981741 +0530,
,Scenes\079a.jpg,29,0,30,,,,,,,None,,,j,0.34132839999801945,None,,,,30,0,29,1648.540556,,,,,,,,,,,,,,,,,,,,,,,,,,,,,,1648.525796300004,1648.540556,1649.1149217999991,1649.024688700003,,,,,,,,,,,,,,,,,,,,,,,,,,1649.1112539000023,1649.1149217999991,1649.1149217999991,1649.1149217999991,1652.0409126000013,None,,,1652.0410591000036,1652.409302,j,,,,1652.0572442999983,1652.0572442999983,0.34132839999801945,None,,,,,,,,,,00042,001,2026-01-17_15h05.40.791,MST_task,2024.2.0,60.03366688165085,2026-01-17 15h06.02.981741 +0530,
,Scenes\131a.jpg,30,0,31,,,,,,,None,,,j,0.38534680000157095,None,,,,31,0,30,1652.423603700001,,,,,,,,,,,,,,,,,,,,,,,,,,,,,,1652.4097344999973,1652.423603700001,1652.9262559999988,1652.9082103999972,,,,,,,,,,,,,,,,,,,,,,,,,,1652.923138500002,1652.9262559999988,1652.9262559999988,1652.9262559999988,1655.924336600001,None,,,1655.9244817,1656.3424750999984,j,,,,1655.9404523999983,1655.9404523999983,0.38534680000157095,None,,,,,,,,,,00042,001,2026-01-17_15h05.40.791,MST_task,2024.2.0,60.03366688165085,2026-01-17 15h06.02.981741 +0530,
,Scenes\186a.jpg,31,0,32,,,,,,,None,,,j,0.3644466000041575,None,,,,32,0,31,1656.3570787999997,,,,,,,,,,,,,,,,,,,,,,,,,,,,,,1656.3429311,1656.3570787999997,1656.8627558000007,1656.8415395999982,,,,,,,,,,,,,,,,,,,,,,,,,,1656.8594113,1656.8627558000007,1656.8627558000007,1656.8627558000007,1659.857503500003,None,,,1659.8576596999992,1660.2421231999979,j,,,,1659.873913299998,1659.873913299998,0.3644466000041575,None,,,,,,,,,,00042,001,2026-01-17_15h05.40.791,MST_task,2024.2.0,60.03366688165085,2026-01-17 15h06.02.981741 +0530,
,Scenes\029a.jpg,32,0,33,,,,,,,None,,,j,0.2875293999968562,None,,,,33,0,32,1660.257100499999,,,,,,,,,,,,,,,,,,,,,,,,,,,,,,1660.242446199998,1660.257100499999,1660.7622335999986,1660.7415124000036,,,,,,,,,,,,,,,,,,,,,,,,,,1660.7591928999973,1660.7622335999986,1660.7622335999986,1660.7622335999986,1663.757515199999,None,,,1663.7576673000003,1664.0753325000042,j,,,,1663.7740443000002,1663.7740443000002,0.2875293999968562,None,,,,,,,,,,00042,001,2026-01-17_15h05.40.791,MST_task,2024.2.0,60.03366688165085,2026-01-17 15h06.02.981741 +0530,
,Scenes\081a.jpg,33,0,34,,,,,,,None,,,j,0.3432528999983333,None,,,,34,0,33,1664.090439599997,,,,,,,,,,,,,,,,,,,,,,,,,,,,,,1664.0757792000004,1664.090439599997,1664.5953625000038,1664.5746337000019,,,,,,,,,,,,,,,,,,,,,,,,,,1664.5923594999986,1664.5953625000038,1664.5953625000038,1664.5953625000038,1667.5911543999973,None,,,1667.5913206999976,1667.958806900002,j,,,,1667.6071588999985,1667.6071588999985,0.3432528999983333,None,,,,,,,,,,00042,001,2026-01-17_15h05.40.791,MST_task,2024.2.0,60.03366688165085,2026-01-17 15h06.02.981741 +0530,
,Scenes\028a.jpg,34,0,35,,,,,,,None,,,j,0.3080885000017588,None,,,,35,0,34,1667.9740365000034,,,,,,,,,,,,,,,,,,,,,,,,,,,,,,1667.9593594000034,1667.9740365000034,1668.4742879999976,1668.4581089999992,,,,,,,,,,,,,,,,,,,,,,,,,,1668.4684492000015,1668.4742879999976,1668.4742879999976,1668.4742879999976,1671.4583672000008,None,,,1671.4584958999985,1671.7924906999979,j,1671.4741295999993,1671.4741295999993,1671.4741295999993,1671.4741295999993,1671.4741295999993,0.3080885000017588,None,,,,,,,,,,00042,001,2026-01-17_15h05.40.791,MST_task,2024.2.0,60.03366688165085,2026-01-17 15h06.02.981741 +0530,
,Objects\122a.jpg,35,0,36,,,,,,,None,,,f,0.3224961000014446,None,,,,36,0,35,1671.8070335000011,,,,,,,,,,,,,,,,,,,,,,,,,,,,,,1671.7929656999986,1671.8070335000011,1672.3076587000032,1672.2915515999994,,,,,,,,,,,,,,,,,,,,,,,,,,1672.3032236,1672.3076587000032,1672.3076587000032,1672.3076587000032,1675.2925842999975,None,,,1675.296419600003,1675.6424591000032,f,1675.3071719,1675.3071719,1675.3071719,1675.3071719,1675.3071719,0.3224961000014446,None,,,,,,,,,,00042,001,2026-01-17_15h05.40.791,MST_task,2024.2.0,60.03366688165085,2026-01-17 15h06.02.981741 +0530,
,Objects\044a.jpg,36,0,37,,,,,,,None,,,f,0.48134659999777796,None,,,,37,0,36,1675.6571282000004,,,,,,,,,,,,,,,,,,,,,,,,,,,,,,1675.642858500003,1675.6571282000004,1676.1573506999994,1676.1415835000007,,,,,,,,,,,,,,,,,,,,,,,,,,1676.149567200002,1676.1573506999994,1676.1573506999994,1676.1573506999994,1679.1422097000031,None,,,1679.142367499997,1679.6421854,f,1679.1571083000017,1679.1571083000017,1679.1571083000017,1679.1571083000017,1679.1571083000017,0.48134659999777796,None,,,,,,,,,,00042,001,2026-01-17_15h05.40.791,MST_task,2024.2.0,60.03366688165085,2026-01-17 15h06.02.981741 +0530,
,Objects\155a.jpg,37,0,38,,,,,,,None,,,f,0.42483130000618985,None,,,,38,0,37,1679.6570556000006,,,,,,,,,,,,,,,,,,,,,,,,,,,,,,1679.6423991999982,1679.6570556000006,1680.1575617999988,1680.142022,,,,,,,,,,,,,,,,,,,,,,,,,,1680.1493119000006,1680.1575617999988,1680.1575617999988,1680.1575617999988,1683.1421434000004,None,,,1683.1423054999977,1683.5921394000034,f,1683.1576075999983,1683.1576075999983,1683.1576075999983,1683.1576075999983,1683.1576075999983,0.42483130000618985,None,,,,,,,,,,00042,001,2026-01-17_15h05.40.791,MST_task,2024.2.0,60.03366688165085,2026-01-17 15h06.02.981741 +0530,
,Objects\143a.jpg,38,0,39,,,,,,,None,,,j,0.8111893999957829,None,,,,39,0,38,1683.6075064000033,,,,,,,,,,,,,,,,,,,,,,,,,,,,,,1683.5924642000027,1683.6075064000033,1684.1073526999971,1684.0915365999972,,,,,,,,,,,,,,,,,,,,,,,,,,1684.0982270000022,1684.1073526999971,1684.1073526999971,1684.1073526999971,1687.0922812999997,None,,,1687.092430800003,1687.9258082000015,j,1687.1069719000006,1687.1069719000006,1687.1069719000006,1687.1069719000006,1687.1069719000006,0.8111893999957829,None,,,,,,,,,,00042,001,2026-01-17_15h05.40.791,MST_task,2024.2.0,60.03366688165085,2026-01-17 15h06.02.981741 +0530,
,Objects\171a.jpg,39,0,40,,,,,,,None,,,j,0.34869760000583483,None,,,,40,0,39,1687.9405041999999,,,,,,,,,,,,,,,,,,,,,,,,,,,,,,1687.9260983999993,1687.9405041999999,1688.4406174000032,1688.4250221999973,,,,,,,,,,,,,,,,,,,,,,,,,,1688.433077200003,1688.4406174000032,1688.4406174000032,1688.4406174000032,1691.4256093000004,None,,,1691.4257652000015,1691.7924270000003,j,1691.4410244000028,1691.4410244000028,1691.4410244000028,1691.4410244000028,1691.4410244000028,0.34869760000583483,None,,,,,,,,,,00042,001,2026-01-17_15h05.40.791,MST_task,2024.2.0,60.03366688165085,2026-01-17 15h06.02.981741 +0530,
,Objects\186a.jpg,40,0,41,,,,,,,None,,,f,0.315619399996649,None,,,,41,0,40,1691.8071945999982,,,,,,,,,,,,,,,,,,,,,,,,,,,,,,1691.7928089999987,1691.8071945999982,1692.3075125000032,1692.2917364000023,,,,,,,,,,,,,,,,,,,,,,,,,,1692.3002734999973,1692.3075125000032,1692.3075125000032,1692.3075125000032,1695.2923895999993,None,,,1695.2925467000023,1695.6254068999988,f,1695.3071875000023,1695.3071875000023,1695.3071875000023,1695.3071875000023,1695.3071875000023,0.315619399996649,None,,,,,,,,,,00042,001,2026-01-17_15h05.40.791,MST_task,2024.2.0,60.03366688165085,2026-01-17 15h06.02.981741 +0530,
,Objects\116a.jpg,41,0,42,,,,,,,None,,,f,0.3369916000010562,None,,,,42,0,41,1695.6403907999993,,,,,,,,,,,,,,,,,,,,,,,,,,,,,,1695.6256456999981,1695.6403907999993,1696.1773450000037,1696.1250588999974,,,,,,,,,,,,,,,,,,,,,,,,,,1696.1740428999983,1696.1773450000037,1696.1773450000037,1696.1773450000037,1699.1408034999986,None,,,1699.1409496999986,1699.508918200001,f,,,,1699.157276799997,1699.157276799997,0.3369916000010562,None,,,,,,,,,,00042,001,2026-01-17_15h05.40.791,MST_task,2024.2.0,60.03366688165085,2026-01-17 15h06.02.981741 +0530,
,Scenes\104a.jpg,42,0,43,,,,,,,None,,,j,0.26965190000191797,None,,,,43,0,42,1699.5238011999973,,,,,,,,,,,,,,,,,,,,,,,,,,,,,,1699.5093597000014,1699.5238011999973,1700.0273895999999,1700.0081264000037,,,,,,,,,,,,,,,,,,,,,,,,,,1700.024276600001,1700.0273895999999,1700.0273895999999,1700.0273895999999,1703.0244716000016,None,,,1703.0281633999984,1703.3255869999994,j,,,,1703.0404424000008,1703.0404424000008,0.26965190000191797,None,,,,,,,,,,00042,001,2026-01-17_15h05.40.791,MST_task,2024.2.0,60.03366688165085,2026-01-17 15h06.02.981741 +0530,
,Scenes\046a.jpg,43,0,44,,,,,,,None,,,j,0.31663299999490846,None,,,,44,0,43,1703.340358100002,,,,,,,,,,,,,,,,,,,,,,,,,,,,,,1703.3258411999996,1703.340358100002,1703.9282418000003,1703.8248999999996,,,,,,,,,,,,,,,,,,,,,,,,,,1703.9250409000015,1703.9282418000003,1703.9282418000003,1703.9282418000003,1706.8408254000024,None,,,1706.8410053999978,1707.1759454999992,j,,,,1706.857023800003,1706.857023800003,0.31663299999490846,None,,,,,,,,,,00042,001,2026-01-17_15h05.40.791,MST_task,2024.2.0,60.03366688165085,2026-01-17 15h06.02.981741 +0530,
,Scenes\181a.jpg,44,0,45,,,,,,,None,,,f,0.2832300999943982,None,,,,45,0,44,1707.1904434000026,,,,,,,,,,,,,,,,,,,,,,,,,,,,,,1707.1763599999977,1707.1904434000026,1707.6920434999993,1707.6749137000006,,,,,,,,,,,,,,,,,,,,,,,,,,1707.6884524999987,1707.6920434999993,1707.6920434999993,1707.6920434999993,1710.6908908999976,None,,,1710.6910388000033,1710.9924958999982,f,,,,1710.7070104000013,1710.7070104000013,0.2832300999943982,None,,,,,,,,,,00042,001,2026-01-17_15h05.40.791,MST_task,2024.2.0,60.03366688165085,2026-01-17 15h06.02.981741 +0530,
,Scenes\180a.jpg,45,0,46,,,,,,,None,,,j,0.34687490000214893,None,,,,46,0,45,1711.0071222999977,,,,,,,,,,,,,,,,,,,,,,,,,,,,,,1710.9928409999993,1711.0071222999977,1711.5079262,1711.4914233000018,,,,,,,,,,,,,,,,,,,,,,,,,,1711.5034349999987,1711.5079262,1711.5079262,1711.5079262,1714.4926725000041,None,,,1714.4928572999997,1714.8589116000003,j,1714.5071250000037,1714.5071250000037,1714.5071250000037,1714.5071250000037,1714.5071250000037,0.34687490000214893,None,,,,,,,,,,00042,001,2026-01-17_15h05.40.791,MST_task,2024.2.0,60.03366688165085,2026-01-17 15h06.02.981741 +0530,
,Scenes\134a.jpg,46,0,47,,,,,,,None,,,j,0.32769120000011753,None,,,,47,0,46,1714.8738817999983,,,,,,,,,,,,,,,,,,,,,,,,,,,,,,1714.8591615000041,1714.8738817999983,1715.3785446999973,1715.3582209000015,,,,,,,,,,,,,,,,,,,,,,,,,,1715.375649900001,1715.3785446999973,1715.3785446999973,1715.3785446999973,1718.3742206000024,None,,,1718.3743706000023,1718.7256607000018,j,,,,1718.390887200003,1718.390887200003,0.32769120000011753,None,,,,,,,,,,00042,001,2026-01-17_15h05.40.791,MST_task,2024.2.0,60.03366688165085,2026-01-17 15h06.02.981741 +0530,
,Scenes\020a.jpg,47,0,48,,,,,,,None,,,f,0.5417613000026904,None,,,,48,0,47,1718.7404399000006,,,,,,,,,,,,,,,,,,,,,,,,,,,,,,1718.7260977999977,1718.7404399000006,1719.2488852000024,1719.2250077999997,,,,,,,,,,,,,,,,,,,,,,,,,,1719.2442263999983,1719.2488852000024,1719.2488852000024,1719.2488852000024,1722.2409487999976,None,,,1722.2411094999989,1722.809298100001,f,,,,1722.2570181999981,1722.2570181999981,0.5417613000026904,None,,,,,,,,,,00042,001,2026-01-17_15h05.40.791,MST_task,2024.2.0,60.03366688165085,2026-01-17 15h06.02.981741 +0530,
,Scenes\149a.jpg,48,0,49,,,,,,,None,,,f,0.3212262000015471,None,,,,49,0,48,1722.823919800001,,,,,,,,,,,,,,,,,,,,,,,,,,,,,,1722.809648100003,1722.823919800001,1723.328224500001,1723.308514299999,,,,,,,,,,,,,,,,,,,,,,,,,,1723.3247271,1723.328224500001,1723.328224500001,1723.328224500001,1726.3245638000008,None,,,1726.3247168000016,1726.6754980000042,f,,,,1726.3404701000036,1726.3404701000036,0.3212262000015471,None,,,,,,,,,,00042,001,2026-01-17_15h05.40.791,MST_task,2024.2.0,60.03366688165085,2026-01-17 15h06.02.981741 +0530,
,Objects\127a.jpg,49,0,50,,,,,,,None,,,f,0.328347800001211,None,,,,50,0,49,1726.6905312000017,,,,,,,,,,,,,,,,,,,,,,,,,,,,,,1726.6757620999997,1726.6905312000017,1727.1912239000012,1727.1747939999987,,,,,,,,,,,,,,,,,,,,,,,,,,1727.1819010000036,1727.1912239000012,1727.1912239000012,1727.1912239000012,1730.1761189000026,None,,,1730.1802118999985,1730.5252731,f,1730.1904493999973,1730.1904493999973,1730.1904493999973,1730.1904493999973,1730.1904493999973,0.328347800001211,None,,,,,,,,,,00042,001,2026-01-17_15h05.40.791,MST_task,2024.2.0,60.03366688165085,2026-01-17 15h06.02.981741 +0530,
,Objects\139a.jpg,50,0,51,,,,,,,None,,,f,0.32548599999427097,None,,,,51,0,50,1730.5408208000008,,,,,,,,,,,,,,,,,,,,,,,,,,,,,,1730.5256233000036,1730.5408208000008,1731.0772356000016,1731.0247234999988,,,,,,,,,,,,,,,,,,,,,,,,,,1731.074167400002,1731.0772356000016,1731.0772356000016,1731.0772356000016,1734.0410660999987,None,,,1734.0412211000003,1734.392408300002,f,,,,1734.0570818999986,1734.0570818999986,0.32548599999427097,None,,,,,,,,,,00042,001,2026-01-17_15h05.40.791,MST_task,2024.2.0,60.03366688165085,2026-01-17 15h06.02.981741 +0530,
,Objects\152a.jpg,51,0,52,,,,,,,None,,,f,0.41062289999536006,None,,,,52,0,51,1734.407137299997,,,,,,,,,,,,,,,,,,,,,,,,,,,,,,1734.392793799998,1734.407137299997,1734.9077499999985,1734.8916192000033,,,,,,,,,,,,,,,,,,,,,,,,,,1734.897878900003,1734.9077499999985,1734.9077499999985,1734.9077499999985,1737.8923919000008,None,,,1737.892545900002,1738.3252721000026,f,1737.9079340000026,1737.9079340000026,1737.9079340000026,1737.9079340000026,1737.9079340000026,0.41062289999536006,None,,,,,,,,,,00042,001,2026-01-17_15h05.40.791,MST_task,2024.2.0,60.03366688165085,2026-01-17 15h06.02.981741 +0530,
,Objects\031a.jpg,52,0,53,,,,,,,None,,,j,0.3259284999949159,None,,,,53,0,52,1738.3407080000034,,,,,,,,,,,,,,,,,,,,,,,,,,,,,,1738.3257843000029,1738.3407080000034,1738.841683999999,1738.8258330000026,,,,,,,,,,,,,,,,,,,,,,,,,,1738.831522499997,1738.841683999999,1738.841683999999,1738.841683999999,1741.8257911000037,None,,,1741.8259424999997,1742.1758171999973,j,1741.8403994000037,1741.8403994000037,1741.8403994000037,1741.8403994000037,1741.8403994000037,0.3259284999949159,None,,,,,,,,,,00042,001,2026-01-17_15h05.40.791,MST_task,2024.2.0,60.03366688165085,2026-01-17 15h06.02.981741 +0530,
,Objects\182a.jpg,53,0,54,,,,,,,None,,,j,1.5553196999971988,None,,,,54,0,53,1742.1904656999977,,,,,,,,,,,,,,,,,,,,,,,,,,,,,,1742.1762251999971,1742.1904656999977,1742.6908027000027,1742.6748527000018,,,,,,,,,,,,,,,,,,,,,,,,,,1742.6833385999998,1742.6908027000027,1742.6908027000027,1742.6908027000027,1745.6753753000012,None,,,1745.675531599998,1747.258919400003,j,1745.6908025000012,1745.6908025000012,1745.6908025000012,1745.6908025000012,1745.6908025000012,1.5553196999971988,None,,,,,,,,,,00042,001,2026-01-17_15h05.40.791,MST_task,2024.2.0,60.03366688165085,2026-01-17 15h06.02.981741 +0530,
,Objects\052a.jpg,54,0,55,,,,,,,None,,,f,0.3124937999964459,None,,,,55,0,54,1747.2737355999998,,,,,,,,,,,,,,,,,,,,,,,,,,,,,,1747.2592282000041,1747.2737355999998,1747.7740142000039,1747.7587341000035,,,,,,,,,,,,,,,,,,,,,,,,,,1747.765297799997,1747.7740142000039,1747.7740142000039,1747.7740142000039,1750.7591419000019,None,,,1750.7592972999992,1751.0925827000028,f,1750.7737075999976,1750.7737075999976,1750.7737075999976,1750.7737075999976,1750.7737075999976,0.3124937999964459,None,,,,,,,,,,00042,001,2026-01-17_15h05.40.791,MST_task,2024.2.0,60.03366688165085,2026-01-17 15h06.02.981741 +0530,
,Objects\110a.jpg,55,0,56,,,,,,,None,,,j,0.3182699000026332,None,,,,56,0,55,1751.1073630000028,,,,,,,,,,,,,,,,,,,,,,,,,,,,,,1751.0928789000027,1751.1073630000028,1751.6073241999984,1751.591758100003,,,,,,,,,,,,,,,,,,,,,,,,,,1751.5996608999994,1751.6073241999984,1751.6073241999984,1751.6073241999984,1754.5923170000024,None,,,1754.5924842000022,1754.942339000001,j,1754.6074197999988,1754.6074197999988,1754.6074197999988,1754.6074197999988,1754.6074197999988,0.3182699000026332,None,,,,,,,,,,00042,001,2026-01-17_15h05.40.791,MST_task,2024.2.0,60.03366688165085,2026-01-17 15h06.02.981741 +0530,
,Scenes\065a.jpg,56,0,57,,,,,,,None,,,j,0.3179216999997152,None,,,,57,0,56,1754.9571044999975,,,,,,,,,,,,,,,,,,,,,,,,,,,,,,1754.9426808999997,1754.9571044999975,1755.4579881000027,1755.4416309000007,,,,,,,,,,,,,,,,,,,,,,,,,,1755.4542530000035,1755.4579881000027,1755.4579881000027,1755.4579881000027,1758.4419333000042,None,,,1758.4465081000017,1758.7924953999973,j,1758.4569123000038,1758.4569123000038,1758.4569123000038,1758.4569123000038,1758.4569123000038,0.3179216999997152,None,,,,,,,,,,00042,001,2026-01-17_15h05.40.791,MST_task,2024.2.0,60.03366688165085,2026-01-17 15h06.02.981741 +0530,
,Scenes\182a.jpg,57,0,58,,,,,,,None,,,j,0.3553422000040882,None,,,,58,0,57,1758.8071304999976,,,,,,,,,,,,,,,,,,,,,,,,,,,,,,1758.792813400003,1758.8071304999976,1759.3081384000034,1759.291480400003,,,,,,,,,,,,,,,,,,,,,,,,,,1759.3044401000006,1759.3081384000034,1759.3081384000034,1759.3081384000034,1762.2925149000002,None,,,1762.2926741999981,1762.6756585999974,j,1762.3070965000006,1762.3070965000006,1762.3070965000006,1762.3070965000006,1762.3070965000006,0.3553422000040882,None,,,,,,,,,,00042,001,2026-01-17_15h05.40.791,MST_task,2024.2.0,60.03366688165085,2026-01-17 15h06.02.981741 +0530,
,Scenes\122a.jpg,58,0,59,,,,,,,None,,,f,0.34323959999892395,None,,,,59,0,58,1762.6908205,,,,,,,,,,,,,,,,,,,,,,,,,,,,,,1762.6758990000017,1762.6908205,1763.252304499998,1763.174976299997,,,,,,,,,,,,,,,,,,,,,,,,,,1763.249123900001,1763.252304499998,1763.252304499998,1763.252304499998,1766.1918081999975,None,,,1766.1919075000042,1766.5588659999994,f,,,,1766.2070340999999,1766.2070340999999,0.34323959999892395,None,,,,,,,,,,00042,001,2026-01-17_15h05.40.791,MST_task,2024.2.0,60.03366688165085,2026-01-17 15h06.02.981741 +0530,
,Scenes\116a.jpg,59,0,60,,,,,,,None,,,j,0.30844100000103936,None,,,,60,0,59,1766.5739252999992,,,,,,,,,,,,,,,,,,,,,,,,,,,,,,1766.5593647999995,1766.5739252999992,1767.074397999997,1767.0581152000013,,,,,,,,,,,,,,,,,,,,,,,,,,1767.0710631000038,1767.074397999997,1767.074397999997,1767.074397999997,1770.0587601000007,None,,,1770.0589082000006,1770.3921422999993,j,1770.074202099997,1770.074202099997,1770.074202099997,1770.074202099997,1770.074202099997,0.30844100000103936,None,,,,,,,,,,00042,001,2026-01-17_15h05.40.791,MST_task,2024.2.0,60.03366688165085,2026-01-17 15h06.02.981741 +0530,
,Scenes\153a.jpg,60,0,61,,,,,,,None,,,j,0.2669796000045608,None,,,,61,0,60,1770.4072731999986,,,,,,,,,,,,,,,,,,,,,,,,,,,,,,1770.3924744000033,1770.4072731999986,1770.9073203000007,1770.8915978000005,,,,,,,,,,,,,,,,,,,,,,,,,,1770.9032525000002,1770.9073203000007,1770.9073203000007,1770.9073203000007,1773.8924312000017,None,,,1773.892574999998,1774.1764429000032,j,1773.9069986000031,1773.9069986000031,1773.9069986000031,1773.9069986000031,1773.9069986000031,0.2669796000045608,None,,,,,,,,,,00042,001,2026-01-17_15h05.40.791,MST_task,2024.2.0,60.03366688165085,2026-01-17 15h06.02.981741 +0530,
,Scenes\025a.jpg,61,0,62,,,,,,,None,,,j,0.33096560000558384,None,,,,62,0,61,1774.1905144999982,,,,,,,,,,,,,,,,,,,,,,,,,,,,,,1774.176932100003,1774.1905144999982,1774.6985723000034,1774.674933000002,,,,,,,,,,,,,,,,,,,,,,,,,,1774.695390300003,1774.6985723000034,1774.6985723000034,1774.6985723000034,1777.690935300001,None,,,1777.6910293000037,1778.0422696000023,j,,,,1777.7072438000032,1777.7072438000032,0.33096560000558384,None,,,,,,,,,,00042,001,2026-01-17_15h05.40.791,MST_task,2024.2.0,60.03366688165085,2026-01-17 15h06.02.981741 +0530,
,Scenes\051a.jpg,62,0,63,,,,,,,None,,,j,1.0001382999980706,None,,,,63,0,62,1778.0571049999999,,,,,,,,,,,,,,,,,,,,,,,,,,,,,,1778.0426099000033,1778.0571049999999,1778.5609843999991,1778.541401399998,,,,,,,,,,,,,,,,,,,,,,,,,,1778.5575601000019,1778.5609843999991,1778.5609843999991,1778.5609843999991,1781.5574312000026,None,,,1781.5575738999978,1782.5752858999986,j,,,,1781.5739450999972,1781.5739450999972,1.0001382999980706,None,,,,,,,,,,00042,001,2026-01-17_15h05.40.791,MST_task,2024.2.0,60.03366688165085,2026-01-17 15h06.02.981741 +0530,
,Objects\026a.jpg,63,0,64,,,,,,,None,,,f,0.3807669999951031,None,,,,64,0,63,1782.590599199997,,,,,,,,,,,,,,,,,,,,,,,,,,,,,,1782.5755735999992,1782.590599199997,1783.090834900002,1783.0751347000041,,,,,,,,,,,,,,,,,,,,,,,,,,1783.0861920000025,1783.090834900002,1783.090834900002,1783.090834900002,1786.0754933999997,None,,,1786.0806814000025,1786.474986000001,f,1786.0904531999986,1786.0904531999986,1786.0904531999986,1786.0904531999986,1786.0904531999986,0.3807669999951031,None,,,,,,,,,,00042,001,2026-01-17_15h05.40.791,MST_task,2024.2.0,60.03366688165085,2026-01-17 15h06.02.981741 +0530,
,Objects\093a.jpg,64,0,65,,,,,,,None,,,j,0.39822519999870565,None,,,,65,0,64,1786.490342600002,,,,,,,,,,,,,,,,,,,,,,,,,,,,,,1786.4753249999994,1786.490342600002,1787.0141148000039,1786.9746492999984,,,,,,,,,,,,,,,,,,,,,,,,,,1787.0111658000023,1787.0141148000039,1787.0141148000039,1787.0141148000039,1789.9909018000035,None,,,1789.991055700004,1790.4086143000022,j,,,,1790.0074288000033,1790.0074288000033,0.39822519999870565,None,,,,,,,,,,00042,001,2026-01-17_15h05.40.791,MST_task,2024.2.0,60.03366688165085,2026-01-17 15h06.02.981741 +0530,
,Objects\145a.jpg,65,0,66,,,,,,,None,,,f,0.29783270000189077,None,,,,66,0,65,1790.4237979000027,,,,,,,,,,,,,,,,,,,,,,,,,,,,,,1790.4089343000014,1790.4237979000027,1790.924392599998,1790.908066600001,,,,,,,,,,,,,,,,,,,,,,,,,,1790.916339000003,1790.924392599998,1790.924392599998,1790.924392599998,1793.908967700001,None,,,1793.909062300001,1794.2260897000015,f,1793.9237971999974,1793.9237971999974,1793.9237971999974,1793.9237971999974,1793.9237971999974,0.29783270000189077,None,,,,,,,,,,00042,001,2026-01-17_15h05.40.791,MST_task,2024.2.0,60.03366688165085,2026-01-17 15h06.02.981741 +0530,
,Objects\177a.jpg,66,0,67,,,,,,,None,,,j,0.3622232999987318,None,,,,67,0,66,1794.2406324999974,,,,,,,,,,,,,,,,,,,,,,,,,,,,,,1794.2264590999985,1794.2406324999974,1794.740561999999,1794.7247562999983,,,,,,,,,,,,,,,,,,,,,,,,,,1794.7303573000027,1794.740561999999,1794.740561999999,1794.740561999999,1797.7251217000012,None,,,1797.7252099000034,1798.1090003999998,j,1797.7404413999975,1797.7404413999975,1797.7404413999975,1797.7404413999975,1797.7404413999975,0.3622232999987318,None,,,,,,,,,,00042,001,2026-01-17_15h05.40.791,MST_task,2024.2.0,60.03366688165085,2026-01-17 15h06.02.981741 +0530,
,Objects\083a.jpg,67,0,68,,,,,,,None,,,f,0.4224759999997332,None,,,,68,0,67,1798.1238359999988,,,,,,,,,,,,,,,,,,,,,,,,,,,,,,1798.1095279,1798.1238359999988,1798.6240172000034,1798.6082704,,,,,,,,,,,,,,,,,,,,,,,,,,1798.6150110000017,1798.6240172000034,1798.6240172000034,1798.6240172000034,1801.6089973999988,None,,,1801.609104700001,1802.058991400001,f,1801.623901400002,1801.623901400002,1801.623901400002,1801.623901400002,1801.623901400002,0.4224759999997332,None,,,,,,,,,,00042,001,2026-01-17_15h05.40.791,MST_task,2024.2.0,60.03366688165085,2026-01-17 15h06.02.981741 +0530,
,Objects\176a.jpg,68,0,69,,,,,,,None,,,j,0.38418129999627126,None,,,,69,0,68,1802.073728700001,,,,,,,,,,,,,,,,,,,,,,,,,,,,,,1802.0593625999973,1802.073728700001,1802.5744620000041,1802.5583886000022,,,,,,,,,,,,,,,,,,,,,,,,,,1802.5649932000015,1802.5744620000041,1802.5744620000041,1802.5744620000041,1805.5589338999998,None,,,1805.5590360999995,1805.9600174000007,j,1805.5738716999986,1805.5738716999986,1805.5738716999986,1805.5738716999986,1805.5738716999986,0.38418129999627126,None,,,,,,,,,,00042,001,2026-01-17_15h05.40.791,MST_task,2024.2.0,60.03366688165085,2026-01-17 15h06.02.981741 +0530,
,Objects\189a.jpg,69,0,70,,,,,,,None,,,j,0.30768969999917317,None,,,,70,0,69,1805.9741059000007,,,,,,,,,,,,,,,,,,,,,,,,,,,,,,1805.9604362000027,1805.9741059000007,1806.4742006000015,1806.458040999998,,,,,,,,,,,,,,,,,,,,,,,,,,1806.4644668999972,1806.4742006000015,1806.4742006000015,1806.4742006000015,1809.4578094000026,None,,,1809.4578774999973,1809.7918789000032,j,1809.4738922000033,1809.4738922000033,1809.4738922000033,1809.4738922000033,1809.4738922000033,0.30768969999917317,None,,,,,,,,,,00042,001,2026-01-17_15h05.40.791,MST_task,2024.2.0,60.03366688165085,2026-01-17 15h06.02.981741 +0530,
,Scenes\100a.jpg,70,0,71,,,,,,,None,,,f,0.1943221000037738,None,,,,71,0,70,1809.8070009000003,,,,,,,,,,,,,,,,,,,,,,,,,,,,,,1809.7921843000004,1809.8070009000003,1810.3087568999981,1810.2915932000033,,,,,,,,,,,,,,,,,,,,,,,,,,1810.3058404999974,1810.3087568999981,1810.3087568999981,1810.3087568999981,1813.3076359999977,None,,,1813.312232999997,1813.5260953000034,f,,,,1813.3237681000028,1813.3237681000028,0.1943221000037738,None,,,,,,,,,,00042,001,2026-01-17_15h05.40.791,MST_task,2024.2.0,60.03366688165085,2026-01-17 15h06.02.981741 +0530,
,Scenes\037a.jpg,71,0,72,,,,,,,None,,,j,0.34105260000069393,None,,,,72,0,71,1813.5403640000004,,,,,,,,,,,,,,,,,,,,,,,,,,,,,,1813.5265323999993,1813.5403640000004,1814.0409545000002,1814.0248976000003,,,,,,,,,,,,,,,,,,,,,,,,,,1814.0351966000017,1814.0409545000002,1814.0409545000002,1814.0409545000002,1817.025797000002,None,,,1817.0259441000017,1817.392488999998,j,1817.0403702999974,1817.0403702999974,1817.0403702999974,1817.0403702999974,1817.0403702999974,0.34105260000069393,None,,,,,,,,,,00042,001,2026-01-17_15h05.40.791,MST_task,2024.2.0,60.03366688165085,2026-01-17 15h06.02.981741 +0530,
,Scenes\073a.jpg,72,0,73,,,,,,,None,,,j,0.47362799999973504,None,,,,73,0,72,1817.4074852999984,,,,,,,,,,,,,,,,,,,,,,,,,,,,,,1817.3928357999976,1817.4074852999984,1817.910820600002,1817.8915371999974,,,,,,,,,,,,,,,,,,,,,,,,,,1817.9073728000003,1817.910820600002,1817.910820600002,1817.910820600002,1820.907340400001,None,,,1820.907489199999,1821.4076343999986,j,,,,1820.9241056000028,1820.9241056000028,0.47362799999973504,None,,,,,,,,,,00042,001,2026-01-17_15h05.40.791,MST_task,2024.2.0,60.03366688165085,2026-01-17 15h06.02.981741 +0530,
,Scenes\096a.jpg,73,0,74,,,,,,,None,,,j,1.882152899997891,None,,,,74,0,73,1821.423781700003,,,,,,,,,,,,,,,,,,,,,,,,,,,,,,1821.4078045999995,1821.423781700003,1821.9821426999988,1821.9080513000008,,,,,,,,,,,,,,,,,,,,,,,,,,1821.9791860000041,1821.9821426999988,1821.9821426999988,1821.9821426999988,1824.9242874999982,None,,,1824.9244197000007,1826.826020499997,j,,,,1824.940419999999,1824.940419999999,1.882152899997891,None,,,,,,,,,,00042,001,2026-01-17_15h05.40.791,MST_task,2024.2.0,60.03366688165085,2026-01-17 15h06.02.981741 +0530,
,Scenes\161a.jpg,74,0,75,,,,,,,None,,,j,0.3613379999951576,None,,,,75,0,74,1826.8402975999998,,,,,,,,,,,,,,,,,,,,,,,,,,,,,,1826.8265442999982,1826.8402975999998,1827.3415516000023,1827.324923100001,,,,,,,,,,,,,,,,,,,,,,,,,,1827.3387148000038,1827.3415516000023,1827.3415516000023,1827.3415516000023,1830.3258522000033,None,,,1830.3260037,1830.7092010999986,j,1830.3406318999987,1830.3406318999987,1830.3406318999987,1830.3406318999987,1830.3406318999987,0.3613379999951576,None,,,,,,,,,,00042,001,2026-01-17_15h05.40.791,MST_task,2024.2.0,60.03366688165085,2026-01-17 15h06.02.981741 +0530,
,Scenes\059a.jpg,75,0,76,,,,,,,None,,,j,1.7019165000019711,None,,,,76,0,75,1830.7237509999977,,,,,,,,,,,,,,,,,,,,,,,,,,,,,,1830.7096996999971,1830.7237509999977,1831.2283451999974,1831.208217200001,,,,,,,,,,,,,,,,,,,,,,,,,,1831.224693600001,1831.2283451999974,1831.2283451999974,1831.2283451999974,1834.2242944000027,None,,,1834.2244361999983,1835.9592349000013,j,,,,1834.240232600001,1834.240232600001,1.7019165000019711,None,,,,,,,,,,00042,001,2026-01-17_15h05.40.791,MST_task,2024.2.0,60.03366688165085,2026-01-17 15h06.02.981741 +0530,
,Scenes\027a.jpg,76,0,77,,,,,,,None,,,f,0.4995887999975821,None,,,,77,0,76,1835.9741145000007,,,,,,,,,,,,,,,,,,,,,,,,,,,,,,1835.9596736000021,1835.9741145000007,1836.474354099999,1836.45766,,,,,,,,,,,,,,,,,,,,,,,,,,1836.4705469999972,1836.474354099999,1836.474354099999,1836.474354099999,1839.458326400003,None,,,1839.4583815000005,1839.975477699998,f,1839.4739652999997,1839.4739652999997,1839.4739652999997,1839.4739652999997,1839.4739652999997,0.4995887999975821,None,,,,,,,,,,00042,001,2026-01-17_15h05.40.791,MST_task,2024.2.0,60.03366688165085,2026-01-17 15h06.02.981741 +0530,
,Objects\073a.jpg,77,0,78,,,,,,,None,,,f,0.3864966000037384,None,,,,78,0,77,1839.990383999997,,,,,,,,,,,,,,,,,,,,,,,,,,,,,,1839.9758703999978,1839.990383999997,1840.5209774000032,1840.4750187000027,,,,,,,,,,,,,,,,,,,,,,,,,,1840.5179534999988,1840.5209774000032,1840.5209774000032,1840.5209774000032,1843.4906770000016,None,,,1843.4957503999976,1843.9090884000034,f,,,,1843.5071618000002,1843.5071618000002,0.3864966000037384,None,,,,,,,,,,00042,001,2026-01-17_15h05.40.791,MST_task,2024.2.0,60.03366688165085,2026-01-17 15h06.02.981741 +0530,
,Objects\101a.jpg,78,0,79,,,,,,,None,,,f,0.5020931999970344,None,,,,79,0,78,1843.9237261000017,,,,,,,,,,,,,,,,,,,,,,,,,,,,,,1843.9095326000024,1843.9237261000017,1844.4240795000005,1844.4083067000029,,,,,,,,,,,,,,,,,,,,,,,,,,1844.4151586000007,1844.4240795000005,1844.4240795000005,1844.4240795000005,1847.4087026999987,None,,,1847.4088403999995,1847.9431968999997,f,1847.4238215000005,1847.4238215000005,1847.4238215000005,1847.4238215000005,1847.4238215000005,0.5020931999970344,None,,,,,,,,,,00042,001,2026-01-17_15h05.40.791,MST_task,2024.2.0,60.03366688165085,2026-01-17 15h06.02.981741 +0530,
,Objects\134a.jpg,79,0,80,,,,,,,None,,,j,0.36491669999668375,None,,,,80,0,79,1847.957130200004,,,,,,,,,,,,,,,,,,,,,,,,,,,,,,1847.943595800003,1847.957130200004,1848.5378494000033,1848.441558700004,,,,,,,,,,,,,,,,,,,,,,,,,,1848.5344754000034,1848.5378494000033,1848.5378494000033,1848.5378494000033,1851.4579599999997,None,,,1851.4580388000031,1851.8421161000006,j,,,,1851.473780799999,1851.473780799999,0.36491669999668375,None,,,,,,,,,,00042,001,2026-01-17_15h05.40.791,MST_task,2024.2.0,60.03366688165085,2026-01-17 15h06.02.981741 +0530,
,Objects\156a.jpg,80,0,81,,,,,,,None,,,f,0.4177955000050133,None,,,,81,0,80,1851.8573260999983,,,,,,,,,,,,,,,,,,,,,,,,,,,,,,1851.8424498000022,1851.8573260999983,1852.3574475999994,1852.3414548,,,,,,,,,,,,,,,,,,,,,,,,,,1852.3491677999991,1852.3574475999994,1852.3574475999994,1852.3574475999994,1855.3423101000008,None,,,1855.342427399999,1855.7768999000036,f,1855.357261899997,1855.357261899997,1855.357261899997,1855.357261899997,1855.357261899997,0.4177955000050133,None,,,,,,,,,,00042,001,2026-01-17_15h05.40.791,MST_task,2024.2.0,60.03366688165085,2026-01-17 15h06.02.981741 +0530,
,Objects\054a.jpg,81,0,82,,,,,,,None,,,j,0.37798579999798676,None,,,,82,0,81,1855.7904800000033,,,,,,,,,,,,,,,,,,,,,,,,,,,,,,1855.7771673000025,1855.7904800000033,1856.3295004000029,1856.2747175999975,,,,,,,,,,,,,,,,,,,,,,,,,,1856.3258268999998,1856.3295004000029,1856.3295004000029,1856.3295004000029,1859.290986,None,,,1859.2911502999996,1859.6926403000034,j,,,,1859.3074917999984,1859.3074917999984,0.37798579999798676,None,,,,,,,,,,00042,001,2026-01-17_15h05.40.791,MST_task,2024.2.0,60.03366688165085,2026-01-17 15h06.02.981741 +0530,
,Objects\013a.jpg,82,0,83,,,,,,,None,,,j,0.47085279999737395,None,,,,83,0,82,1859.7072182999982,,,,,,,,,,,,,,,,,,,,,,,,,,,,,,1859.6931192999982,1859.7072182999982,1860.2244219999993,1860.1915062999979,,,,,,,,,,,,,,,,,,,,,,,,,,1860.2215351999985,1860.2244219999993,1860.2244219999993,1860.2244219999993,1863.2073241000035,None,,,1863.2074358000027,1863.7091891000018,j,,,,1863.2237724000006,1863.2237724000006,0.47085279999737395,None,,,,,,,,,,00042,001,2026-01-17_15h05.40.791,MST_task,2024.2.0,60.03366688165085,2026-01-17 15h06.02.981741 +0530,
,Objects\010a.jpg,83,0,84,,,,,,,None,,,f,0.2943703999990248,None,,,,84,0,83,1863.7240754000013,,,,,,,,,,,,,,,,,,,,,,,,,,,,,,1863.7095697999976,1863.7240754000013,1864.224283800002,1864.2081556999983,,,,,,,,,,,,,,,,,,,,,,,,,,1864.2163341999985,1864.224283800002,1864.224283800002,1864.224283800002,1867.2089665000021,None,,,1867.2091161999997,1867.5256615000035,f,1867.2237862000038,1867.2237862000038,1867.2237862000038,1867.2237862000038,1867.2237862000038,0.2943703999990248,None,,,,,,,,,,00042,001,2026-01-17_15h05.40.791,MST_task,2024.2.0,60.03366688165085,2026-01-17 15h06.02.981741 +0530,
,Scenes\049a.jpg,84,0,85,,,,,,,None,,,j,0.40469869999651564,None,,,,85,0,84,1867.5408029000027,,,,,,,,,,,,,,,,,,,,,,,,,,,,,,1867.5260409999973,1867.5408029000027,1868.1018146999995,1868.0248285999987,,,,,,,,,,,,,,,,,,,,,,,,,,1868.0989597000007,1868.1018146999995,1868.1018146999995,1868.1018146999995,1871.0407419999974,None,,,1871.0458378999974,1871.4752937000012,j,,,,1871.0572377999997,1871.0572377999997,0.40469869999651564,None,,,,,,,,,,00042,001,2026-01-17_15h05.40.791,MST_task,2024.2.0,60.03366688165085,2026-01-17 15h06.02.981741 +0530,
,Scenes\091a.jpg,85,0,86,,,,,,,None,,,j,0.3184268999975757,None,,,,86,0,85,1871.4906097999992,,,,,,,,,,,,,,,,,,,,,,,,,,,,,,1871.475667300001,1871.4906097999992,1872.0744261,1871.9747184000007,,,,,,,,,,,,,,,,,,,,,,,,,,1872.0710409000021,1872.0744261,1872.0744261,1872.0744261,1874.9911418999982,None,,,1874.9912480999992,1875.3424889000016,j,,,,1875.007068699997,1875.007068699997,0.3184268999975757,None,,,,,,,,,,00042,001,2026-01-17_15h05.40.791,MST_task,2024.2.0,60.03366688165085,2026-01-17 15h06.02.981741 +0530,
,Scenes\139a.jpg,86,0,87,,,,,,,None,,,j,0.45219380000344245,None,,,,87,0,86,1875.3573051999992,,,,,,,,,,,,,,,,,,,,,,,,,,,,,,1875.3428915999975,1875.3573051999992,1875.8576844999989,1875.841677700002,,,,,,,,,,,,,,,,,,,,,,,,,,1875.8538447000028,1875.8576844999989,1875.8576844999989,1875.8576844999989,1878.8423471999995,None,,,1878.842455799997,1879.325559099998,j,1878.8572716999988,1878.8572716999988,1878.8572716999988,1878.8572716999988,1878.8572716999988,0.45219380000344245,None,,,,,,,,,,00042,001,2026-01-17_15h05.40.791,MST_task,2024.2.0,60.03366688165085,2026-01-17 15h06.02.981741 +0530,
,Scenes\191a.jpg,87,0,88,,,,,,,None,,,j,0.477520700005698,None,,,,88,0,87,1879.3405125999998,,,,,,,,,,,,,,,,,,,,,,,,,,,,,,1879.3260831000007,1879.3405125999998,1879.917041599998,1879.8250282000008,,,,,,,,,,,,,,,,,,,,,,,,,,1879.9137131000025,1879.917041599998,1879.917041599998,1879.917041599998,1882.841082400002,None,,,1882.8411846000017,1883.342753900004,j,,,,1882.8570632999981,1882.8570632999981,0.477520700005698,None,,,,,,,,,,00042,001,2026-01-17_15h05.40.791,MST_task,2024.2.0,60.03366688165085,2026-01-17 15h06.02.981741 +0530,
,Scenes\123a.jpg,88,0,89,,,,,,,None,,,j,0.32570269999996526,None,,,,89,0,88,1883.3570427000013,,,,,,,,,,,,,,,,,,,,,,,,,,,,,,1883.3431375,1883.3570427000013,1883.8578588000018,1883.841261200003,,,,,,,,,,,,,,,,,,,,,,,,,,1883.8514116000006,1883.8578588000018,1883.8578588000018,1883.8578588000018,1886.8419974999997,None,,,1886.8421594000029,1887.1920599000005,j,1886.8569981999972,1886.8569981999972,1886.8569981999972,1886.8569981999972,1886.8569981999972,0.32570269999996526,None,,,,,,,,,,00042,001,2026-01-17_15h05.40.791,MST_task,2024.2.0,60.03366688165085,2026-01-17 15h06.02.981741 +0530,
,Scenes\043a.jpg,89,0,90,,,,,,,None,,,j,0.36954859999968903,None,,,,90,0,89,1887.2071221000006,,,,,,,,,,,,,,,,,,,,,,,,,,,,,,1887.1924977000017,1887.2071221000006,1887.790152499998,1887.6917536999972,,,,,,,,,,,,,,,,,,,,,,,,,,1887.7868965000016,1887.790152499998,1887.790152499998,1887.790152499998,1890.7076063999993,None,,,1890.7077486999988,1891.1088070000042,j,,,,1890.7237279000037,1890.7237279000037,0.36954859999968903,None,,,,,,,,,,00042,001,2026-01-17_15h05.40.791,MST_task,2024.2.0,60.03366688165085,2026-01-17 15h06.02.981741 +0530,
,Scenes\032a.jpg,90,0,91,,,,,,,None,,,j,0.9177617999957874,None,,,,91,0,90,1891.1237669999973,,,,,,,,,,,,,,,,,,,,,,,,,,,,,,1891.1091153000016,1891.1237669999973,1891.6314069,1891.6083891000017,,,,,,,,,,,,,,,,,,,,,,,,,,1891.6277894000013,1891.6314069,1891.6314069,1891.6314069,1894.6243367999996,None,,,1894.6244251000026,1895.5754920000036,j,,,,1894.6404631000041,1894.6404631000041,0.9177617999957874,None,,,,,,,,,,00042,001,2026-01-17_15h05.40.791,MST_task,2024.2.0,60.03366688165085,2026-01-17 15h06.02.981741 +0530,
,Objects\172a.jpg,91,0,92,,,,,,,None,,,j,0.274953899999673,None,,,,92,0,91,1895.5904160999999,,,,,,,,,,,,,,,,,,,,,,,,,,,,,,1895.5758905999974,1895.5904160999999,1896.0916190999997,1896.0747790000023,,,,,,,,,,,,,,,,,,,,,,,,,,1896.0827728000004,1896.0916190999997,1896.0916190999997,1896.0916190999997,1899.0910603000011,None,,,1899.0946966999982,1899.392236599997,j,,,,1899.1075119000016,1899.1075119000016,0.274953899999673,None,,,,,,,,,,00042,001,2026-01-17_15h05.40.791,MST_task,2024.2.0,60.03366688165085,2026-01-17 15h06.02.981741 +0530,
,Objects\062a.jpg,92,0,93,,,,,,,None,,,j,0.27511490000324557,None,,,,93,0,92,1899.4071229999972,,,,,,,,,,,,,,,,,,,,,,,,,,,,,,1899.3925691999975,1899.4071229999972,1899.9074316999977,1899.8914867999993,,,,,,,,,,,,,,,,,,,,,,,,,,1899.898978600002,1899.9074316999977,1899.9074316999977,1899.9074316999977,1902.8966719000018,None,,,1902.896743899997,1903.1927289000014,j,1902.9071134000042,1902.9071134000042,1902.9071134000042,1902.9071134000042,1902.9071134000042,0.27511490000324557,None,,,,,,,,,,00042,001,2026-01-17_15h05.40.791,MST_task,2024.2.0,60.03366688165085,2026-01-17 15h06.02.981741 +0530,
,Objects\136a.jpg,93,0,94,,,,,,,None,,,f,0.5308087000012165,None,,,,94,0,93,1903.2071675999978,,,,,,,,,,,,,,,,,,,,,,,,,,,,,,1903.1931170000025,1903.2071675999978,1903.7076536000022,1903.6917544000025,,,,,,,,,,,,,,,,,,,,,,,,,,1903.6992174999978,1903.7076536000022,1903.7076536000022,1903.7076536000022,1906.6930109000023,None,,,1906.6931540000005,1907.2420467999982,f,1906.7074992999987,1906.7074992999987,1906.7074992999987,1906.7074992999987,1906.7074992999987,0.5308087000012165,None,,,,,,,,,,00042,001,2026-01-17_15h05.40.791,MST_task,2024.2.0,60.03366688165085,2026-01-17 15h06.02.981741 +0530,
,Objects\085a.jpg,94,0,95,,,,,,,None,,,j,0.5050269999992452,None,,,,95,0,94,1907.2571315000023,,,,,,,,,,,,,,,,,,,,,,,,,,,,,,1907.2424314000018,1907.2571315000023,1907.757327600004,1907.7414541000035,,,,,,,,,,,,,,,,,,,,,,,,,,1907.7478550000014,1907.757327600004,1907.757327600004,1907.757327600004,1910.7421317999979,None,,,1910.7422762999995,1911.275546900004,j,1910.7571604999976,1910.7571604999976,1910.7571604999976,1910.7571604999976,1910.7571604999976,0.5050269999992452,None,,,,,,,,,,00042,001,2026-01-17_15h05.40.791,MST_task,2024.2.0,60.03366688165085,2026-01-17 15h06.02.981741 +0530,
,Objects\106a.jpg,95,0,96,,,,,,,None,,,f,0.33479829999851063,None,,,,96,0,95,1911.2904970000018,,,,,,,,,,,,,,,,,,,,,,,,,,,,,,1911.2759364000012,1911.2904970000018,1911.790794200002,1911.774877900003,,,,,,,,,,,,,,,,,,,,,,,,,,1911.7810090999992,1911.790794200002,1911.790794200002,1911.790794200002,1914.7756147000036,None,,,1914.7757703000025,1915.142685699997,f,1914.790438600001,1914.790438600001,1914.790438600001,1914.790438600001,1914.790438600001,0.33479829999851063,None,,,,,,,,,,00042,001,2026-01-17_15h05.40.791,MST_task,2024.2.0,60.03366688165085,2026-01-17 15h06.02.981741 +0530,
,Objects\034a.jpg,96,0,97,,,,,,,None,,,f,0.38826159999734955,None,,,,97,0,96,1915.1572175000038,,,,,,,,,,,,,,,,,,,,,,,,,,,,,,1915.1432055000041,1915.1572175000038,1915.6573104999989,1915.6417750000037,,,,,,,,,,,,,,,,,,,,,,,,,,1915.6489546000012,1915.6573104999989,1915.6573104999989,1915.6573104999989,1918.642072499999,None,,,1918.642156300004,1919.058878099997,f,1918.6572511999984,1918.6572511999984,1918.6572511999984,1918.6572511999984,1918.6572511999984,0.38826159999734955,None,,,,,,,,,,00042,001,2026-01-17_15h05.40.791,MST_task,2024.2.0,60.03366688165085,2026-01-17 15h06.02.981741 +0530,
,Objects\147a.jpg,97,0,98,,,,,,,None,,,j,0.479790099998354,None,,,,98,0,97,1919.073817299999,,,,,,,,,,,,,,,,,,,,,,,,,,,,,,1919.059420999998,1919.073817299999,1919.574149,1919.5581862000035,,,,,,,,,,,,,,,,,,,,,,,,,,1919.5648164000013,1919.574149,1919.574149,1919.574149,1922.5592749999996,None,,,1922.5594208999973,1923.059509300001,j,1922.5739147999993,1922.5739147999993,1922.5739147999993,1922.5739147999993,1922.5739147999993,0.479790099998354,None,,,,,,,,,,00042,001,2026-01-17_15h05.40.791,MST_task,2024.2.0,60.03366688165085,2026-01-17 15h06.02.981741 +0530,
,Scenes\172a.jpg,98,0,99,,,,,,,j,1.8797231999997166,0.024241799997980706,None,,,,,,99,0,98,1923.0737867999997,,,,,,,,,,,,,,,,,,,,,,,,,,,,,,1923.0598503,1923.0737867999997,1923.5744094000038,1923.5583133999971,,,,,,,,,,,,,,,,,,,,,,,,,,1923.5704026000021,1923.5744094000038,1923.5744094000038,1923.5744094000038,1926.5593783000004,j,1.8797231999997166,0.024241799997980706,1926.5629190000036,1926.5629464000012,None,1926.5735808000027,1926.5735808000027,1926.5735808000027,,,,,,,,,,,,,,00042,001,2026-01-17_15h05.40.791,MST_task,2024.2.0,60.03366688165085,2026-01-17 15h06.02.981741 +0530,
,Scenes\092a.jpg,99,0,100,,,,,,,None,,,j,0.7959851999985403,None,,,,100,0,99,1926.5735808000027,,,,,,,,,,,,,,,,,,,,,,,,,,,,,,1926.5630610000007,1926.5735808000027,1927.1539093000029,1927.0585088000007,,,,,,,,,,,,,,,,,,,,,,,,,,1927.1509460000016,1927.1539093000029,1927.1539093000029,1927.1539093000029,1930.0747926999975,None,,,1930.0749079000016,1930.8921575999993,j,,,,1930.0904880000016,1930.0904880000016,0.7959851999985403,None,,,,,,,,,,00042,001,2026-01-17_15h05.40.791,MST_task,2024.2.0,60.03366688165085,2026-01-17 15h06.02.981741 +0530,
,Scenes\189a.jpg,100,0,101,,,,,,,None,,,j,0.463120299995353,None,,,,101,0,100,1930.9071617000009,,,,,,,,,,,,,,,,,,,,,,,,,,,,,,1930.8924291000003,1930.9071617000009,1931.4100210000033,1931.3917765000006,,,,,,,,,,,,,,,,,,,,,,,,,,1931.4066708000028,1931.4100210000033,1931.4100210000033,1931.4100210000033,1934.4073923000033,None,,,1934.4074911999996,1934.8923849999992,j,,,,1934.4237294999984,1934.4237294999984,0.463120299995353,None,,,,,,,,,,00042,001,2026-01-17_15h05.40.791,MST_task,2024.2.0,60.03366688165085,2026-01-17 15h06.02.981741 +0530,
,Scenes\041a.jpg,101,0,102,,,,,,,None,,,j,0.38269640000362415,None,,,,102,0,101,1934.9071197000012,,,,,,,,,,,,,,,,,,,,,,,,,,,,,,1934.892639800004,1934.9071197000012,1935.4875087000037,1935.3917015999978,,,,,,,,,,,,,,,,,,,,,,,,,,1935.4842503000036,1935.4875087000037,1935.4875087000037,1935.4875087000037,1938.407630900001,None,,,1938.407745000004,1938.8089787999997,j,,,,1938.4237827000034,1938.4237827000034,0.38269640000362415,None,,,,,,,,,,00042,001,2026-01-17_15h05.40.791,MST_task,2024.2.0,60.03366688165085,2026-01-17 15h06.02.981741 +0530,
,Scenes\163a.jpg,102,0,103,,,,,,,None,,,j,0.337814000005892,None,,,,103,0,102,1938.8241017000037,,,,,,,,,,,,,,,,,,,,,,,,,,,,,,1938.809215100002,1938.8241017000037,1939.3260235999987,1939.3083301000006,,,,,,,,,,,,,,,,,,,,,,,,,,1939.3225330999994,1939.3260235999987,1939.3260235999987,1939.3260235999987,1942.324125799998,None,,,1942.3242381000018,1942.6923853999979,j,,,,1942.3405036999975,1942.3405036999975,0.337814000005892,None,,,,,,,,,,00042,001,2026-01-17_15h05.40.791,MST_task,2024.2.0,60.03366688165085,2026-01-17 15h06.02.981741 +0530,
,Scenes\072a.jpg,103,0,104,,,,,,,None,,,j,0.31730570000217995,None,,,,104,0,103,1942.7072695000024,,,,,,,,,,,,,,,,,,,,,,,,,,,,,,1942.6929442999972,1942.7072695000024,1943.215026400001,1943.1916652,,,,,,,,,,,,,,,,,,,,,,,,,,1943.211991199998,1943.215026400001,1943.215026400001,1943.215026400001,1946.2076936000012,None,,,1946.2078478999974,1946.5590854999973,j,,,,1946.224087100003,1946.224087100003,0.31730570000217995,None,,,,,,,,,,00042,001,2026-01-17_15h05.40.791,MST_task,2024.2.0,60.03366688165085,2026-01-17 15h06.02.981741 +0530,
,Scenes\074a.jpg,104,0,105,,,,,,,None,,,j,0.3072475000008126,None,,,,105,0,104,1946.573705499999,,,,,,,,,,,,,,,,,,,,,,,,,,,,,,1946.5596170999997,1946.573705499999,1947.0796849000035,1947.0581441000031,,,,,,,,,,,,,,,,,,,,,,,,,,1947.0759526000038,1947.0796849000035,1947.0796849000035,1947.0796849000035,1950.0744916999975,None,,,1950.0745840000018,1950.4089959999983,j,,,,1950.0907824000024,1950.0907824000024,0.3072475000008126,None,,,,,,,,,,00042,001,2026-01-17_15h05.40.791,MST_task,2024.2.0,60.03366688165085,2026-01-17 15h06.02.981741 +0530,
,Objects\150a.jpg,105,0,106,,,,,,,None,,,j,0.282453899999382,None,,,,106,0,105,1950.4236535000018,,,,,,,,,,,,,,,,,,,,,,,,,,,,,,1950.4093857999978,1950.4236535000018,1950.9522834000018,1950.9080565999975,,,,,,,,,,,,,,,,,,,,,,,,,,1950.9485247999983,1950.9522834000018,1950.9522834000018,1950.9522834000018,1953.9241007000019,None,,,1953.9279279000039,1954.2255489000017,j,,,,1953.9405818000014,1953.9405818000014,0.282453899999382,None,,,,,,,,,,00042,001,2026-01-17_15h05.40.791,MST_task,2024.2.0,60.03366688165085,2026-01-17 15h06.02.981741 +0530,
,Objects\123a.jpg,106,0,107,,,,,,,None,,,j,0.20146509999904083,None,,,,107,0,106,1954.240453899998,,,,,,,,,,,,,,,,,,,,,,,,,,,,,,1954.2259350000022,1954.240453899998,1954.7406934000028,1954.7247922000024,,,,,,,,,,,,,,,,,,,,,,,,,,1954.733124899998,1954.7406934000028,1954.7406934000028,1954.7406934000028,1957.725450500002,None,,,1957.7255951999978,1957.9593127999979,j,1957.7407951999994,1957.7407951999994,1957.7407951999994,1957.7407951999994,1957.7407951999994,0.20146509999904083,None,,,,,,,,,,00042,001,2026-01-17_15h05.40.791,MST_task,2024.2.0,60.03366688165085,2026-01-17 15h06.02.981741 +0530,
,Objects\064a.jpg,107,0,108,,,,,,,None,,,f,0.40474040000117384,None,,,,108,0,107,1957.974046700001,,,,,,,,,,,,,,,,,,,,,,,,,,,,,,1957.9596026,1957.974046700001,1958.4739846000011,1958.4581311000002,,,,,,,,,,,,,,,,,,,,,,,,,,1958.4637876999986,1958.4739846000011,1958.4739846000011,1958.4739846000011,1961.4585431000014,None,,,1961.4586619000038,1961.8926778000023,f,1961.473695200002,1961.473695200002,1961.473695200002,1961.473695200002,1961.473695200002,0.40474040000117384,None,,,,,,,,,,00042,001,2026-01-17_15h05.40.791,MST_task,2024.2.0,60.03366688165085,2026-01-17 15h06.02.981741 +0530,
,Objects\112a.jpg,108,0,109,,,,,,,f,1.098472400000901,0.27313889999641106,None,,,,,,109,0,108,1961.9075576000032,,,,,,,,,,,,,,,,,,,,,,,,,,,,,,1961.8929817000026,1961.9075576000032,1962.4588397999978,1962.3918379000024,,,,,,,,,,,,,,,,,,,,,,,,,,1962.4561652999982,1962.4588397999978,1962.4588397999978,1962.4588397999978,1965.4074904000008,f,1.098472400000901,0.27313889999641106,1965.4076570000034,1965.4076929000003,None,,,,,,,,,,,,,,,,,00042,001,2026-01-17_15h05.40.791,MST_task,2024.2.0,60.03366688165085,2026-01-17 15h06.02.981741 +0530,
,Objects\183a.jpg,109,0,110,,,,,,,j,1.1537932999999612,0.13621520000015153,None,,,,,,110,0,109,1965.423902800001,,,,,,,,,,,,,,,,,,,,,,,,,,,,,,1965.4078808999984,1965.423902800001,1965.9244078999982,1965.9082342999973,,,,,,,,,,,,,,,,,,,,,,,,,,1965.9141068000026,1965.9244078999982,1965.9244078999982,1965.9244078999982,1968.9089492999992,j,1.1537932999999612,0.13621520000015153,1968.9090744999994,1968.909107600004,None,1968.9240267999994,1968.9240267999994,1968.9240267999994,,,,,,,,,,,,,,00042,001,2026-01-17_15h05.40.791,MST_task,2024.2.0,60.03366688165085,2026-01-17 15h06.02.981741 +0530,
,Objects\125a.jpg,110,0,111,,,,,,,j,0.9582678000006126,0.12067450000176905,None,,,,,,111,0,110,1968.9240267999994,,,,,,,,,,,,,,,,,,,,,,,,,,,,,,1968.909345699998,1968.9240267999994,1969.4241602999973,1969.4081982999996,,,,,,,,,,,,,,,,,,,,,,,,,,1969.4138517000029,1969.4241602999973,1969.4241602999973,1969.4241602999973,1972.4094246000022,j,0.9582678000006126,0.12067450000176905,1972.4095306000017,1972.4095663999979,None,1972.4239748000036,1972.4239748000036,1972.4239748000036,,,,,,,,,,,,,,00042,001,2026-01-17_15h05.40.791,MST_task,2024.2.0,60.03366688165085,2026-01-17 15h06.02.981741 +0530,
,Objects\038a.jpg,111,0,112,,,,,,,f,0.9858528999975533,0.10437310000270372,None,,,,,,112,0,111,1972.4239748000036,,,,,,,,,,,,,,,,,,,,,,,,,,,,,,1972.409842000001,1972.4239748000036,1972.9239604000031,1972.9084765000007,,,,,,,,,,,,,,,,,,,,,,,,,,1972.914491100004,1972.9239604000031,1972.9239604000031,1972.9239604000031,1975.908431900003,f,0.9858528999975533,0.10437310000270372,1975.9085360000026,1975.908571699998,None,1975.9239267000012,1975.9239267000012,1975.9239267000012,,,,,,,,,,,,,,00042,001,2026-01-17_15h05.40.791,MST_task,2024.2.0,60.03366688165085,2026-01-17 15h06.02.981741 +0530,
,Scenes\042a.jpg,112,0,113,,,,,,,j,0.867677399997774,0.1926554000019678,None,,,,,,113,0,112,1975.9239267000012,,,,,,,,,,,,,,,,,,,,,,,,,,,,,,1975.9088467999973,1975.9239267000012,1976.4261562000029,1976.4081214000034,,,,,,,,,,,,,,,,,,,,,,,,,,1976.4230661000038,1976.4261562000029,1976.4261562000029,1976.4261562000029,1979.4245558999974,j,0.867677399997774,0.1926554000019678,1979.4302040000039,1979.4302639000016,None,,,,,,,,,,,,,,,,,00042,001,2026-01-17_15h05.40.791,MST_task,2024.2.0,60.03366688165085,2026-01-17 15h06.02.981741 +0530,
,Scenes\166a.jpg,113,0,114,,,,,,,j,2.586838600000192,0.16719809999631252,None,,,,,,114,0,113,1979.4405019000042,,,,,,,,,,,,,,,,,,,,,,,,,,,,,,1979.4304249999986,1979.4405019000042,1979.9955048999982,1979.9249660999994,,,,,,,,,,,,,,,,,,,,,,,,,,1979.992743200004,1979.9955048999982,1979.9955048999982,1979.9955048999982,1982.9409033999982,j,2.586838600000192,0.16719809999631252,1982.9410637999972,1982.9411239999972,None,,,,,,,,,,,,,,,,,00042,001,2026-01-17_15h05.40.791,MST_task,2024.2.0,60.03366688165085,2026-01-17 15h06.02.981741 +0530,
,Scenes\009a.jpg,114,0,115,,,,,,,None,,,f,0.3563469000000623,None,,,,115,0,114,1982.9576271999977,,,,,,,,,,,,,,,,,,,,,,,,,,,,,,1982.9413684000028,1982.9576271999977,1983.4623446999976,1983.4415976000018,,,,,,,,,,,,,,,,,,,,,,,,,,1983.4588184000022,1983.4623446999976,1983.4623446999976,1983.4623446999976,1986.4574515999993,None,,,1986.457617,1986.842183599998,f,,,,1986.473963999997,1986.473963999997,0.3563469000000623,None,,,,,,,,,,00042,001,2026-01-17_15h05.40.791,MST_task,2024.2.0,60.03366688165085,2026-01-17 15h06.02.981741 +0530,
,Scenes\109a.jpg,115,0,116,,,,,,,j,2.256664599997748,0.19281939999928,None,,,,,,116,0,115,1986.8574775000016,,,,,,,,,,,,,,,,,,,,,,,,,,,,,,1986.8424965000013,1986.8574775000016,1987.3576468000028,1987.3414447000032,,,,,,,,,,,,,,,,,,,,,,,,,,1987.3528917000003,1987.3576468000028,1987.3576468000028,1987.3576468000028,1990.3430931999974,j,2.256664599997748,0.19281939999928,1990.3432651999974,1990.3433253999974,None,1990.357171100004,1990.357171100004,1990.357171100004,,,,,,,,,,,,,,00042,001,2026-01-17_15h05.40.791,MST_task,2024.2.0,60.03366688165085,2026-01-17 15h06.02.981741 +0530,
,Scenes\164a.jpg,116,0,117,,,,,,,j,1.1319696999998996,0.167693400006101,None,,,,,,117,0,116,1990.357171100004,,,,,,,,,,,,,,,,,,,,,,,,,,,,,,1990.3436096000005,1990.357171100004,1990.8578681,1990.8415002999973,,,,,,,,,,,,,,,,,,,,,,,,,,1990.8523907999988,1990.8578681,1990.8578681,1990.8578681,1993.842467800001,j,1.1319696999998996,0.167693400006101,1993.8427231000023,1993.8427886999998,None,1993.8571448000002,1993.8571448000002,1993.8571448000002,,,,,,,,,,,,,,00042,001,2026-01-17_15h05.40.791,MST_task,2024.2.0,60.03366688165085,2026-01-17 15h06.02.981741 +0530,
,Scenes\063a.jpg,117,0,118,,,,,,,j,1.3181801999962772,0.16771230000449577,None,,,,,,118,0,117,1993.8571448000002,,,,,,,,,,,,,,,,,,,,,,,,,,,,,,1993.8430499000024,1993.8571448000002,1994.3595187000028,1994.3419458999997,,,,,,,,,,,,,,,,,,,,,,,,,,1994.3551348000037,1994.3595187000028,1994.3595187000028,1994.3595187000028,1997.3576743000012,j,1.3181801999962772,0.16771230000449577,1997.3577748000025,1997.357808599998,None,,,,,,,,,,,,,,,,,00042,001,2026-01-17_15h05.40.791,MST_task,2024.2.0,60.03366688165085,2026-01-17 15h06.02.981741 +0530,
,Scenes\101a.jpg,118,0,119,,,,,,,j,1.577699000001303,0.21585049999703187,None,,,,,,119,0,118,1997.3737271999998,,,,,,,,,,,,,,,,,,,,,,,,,,,,,,1997.3580705999993,1997.3737271999998,1997.9479090000023,1997.8581825,,,,,,,,,,,,,,,,,,,,,,,,,,1997.944405000002,1997.9479090000023,1997.9479090000023,1997.9479090000023,2000.8743267000027,j,1.577699000001303,0.21585049999703187,2000.8744903999977,2000.8745514999973,None,,,,,,,,,,,,,,,,,00042,001,2026-01-17_15h05.40.791,MST_task,2024.2.0,60.03366688165085,2026-01-17 15h06.02.981741 +0530,
,Objects\151a.jpg,119,0,120,,,,,,,f,1.1505108999990625,0.07216049999988172,None,,,,,,120,0,119,2000.890925300002,,,,,,,,,,,,,,,,,,,,,,,,,,,,,,2000.8749030000035,2000.890925300002,2001.3911221000017,2001.3748487999983,,,,,,,,,,,,,,,,,,,,,,,,,,2001.3851060000015,2001.3911221000017,2001.3911221000017,2001.3911221000017,2004.3756639999992,f,1.1505108999990625,0.07216049999988172,2004.3799530000033,2004.3799868999995,None,2004.3905984000012,2004.3905984000012,2004.3905984000012,,,,,,,,,,,,,,00042,001,2026-01-17_15h05.40.791,MST_task,2024.2.0,60.03366688165085,2026-01-17 15h06.02.981741 +0530,
,Objects\160a.jpg,120,0,121,,,,,,,f,0.8504032999990159,0.14500219999899855,None,,,,,,121,0,120,2004.3905984000012,,,,,,,,,,,,,,,,,,,,,,,,,,,,,,2004.3801322,2004.3905984000012,2004.8912525999986,2004.8749118999986,,,,,,,,,,,,,,,,,,,,,,,,,,2004.8828872000013,2004.8912525999986,2004.8912525999986,2004.8912525999986,2007.875633399999,f,0.8504032999990159,0.14500219999899855,2007.875802100003,2007.8758565000026,None,2007.8904417000012,2007.8904417000012,2007.8904417000012,,,,,,,,,,,,,,00042,001,2026-01-17_15h05.40.791,MST_task,2024.2.0,60.03366688165085,2026-01-17 15h06.02.981741 +0530,
,Objects\095a.jpg,121,0,122,,,,,,,f,1.175082100002328,0.13580309999815654,None,,,,,,122,0,121,2007.8904417000012,,,,,,,,,,,,,,,,,,,,,,,,,,,,,,2007.8761479000023,2007.8904417000012,2008.3907663999998,2008.3751250999994,,,,,,,,,,,,,,,,,,,,,,,,,,2008.380932699998,2008.3907663999998,2008.3907663999998,2008.3907663999998,2011.3752709000037,f,1.175082100002328,0.13580309999815654,2011.3753759000028,2011.3754122000028,None,2011.390423900004,2011.390423900004,2011.390423900004,,,,,,,,,,,,,,00042,001,2026-01-17_15h05.40.791,MST_task,2024.2.0,60.03366688165085,2026-01-17 15h06.02.981741 +0530,
,Objects\154a.jpg,122,0,123,,,,,,,j,2.4999344000025303,0.23878220000187866,None,,,,,,123,0,122,2011.390423900004,,,,,,,,,,,,,,,,,,,,,,,,,,,,,,2011.3757794999983,2011.390423900004,2011.891091700003,2011.874996300001,,,,,,,,,,,,,,,,,,,,,,,,,,2011.8814627000029,2011.891091700003,2011.891091700003,2011.891091700003,2014.8756684000036,j,2.4999344000025303,0.23878220000187866,2014.875796100001,2014.875840300003,None,2014.8903917999996,2014.8903917999996,2014.8903917999996,,,,,,,,,,,,,,00042,001,2026-01-17_15h05.40.791,MST_task,2024.2.0,60.03366688165085,2026-01-17 15h06.02.981741 +0530,
,Objects\027a.jpg,123,0,124,,,,,,,j,2.790701199999603,0.12810510000417707,None,,,,,,124,0,123,2014.8903917999996,,,,,,,,,,,,,,,,,,,,,,,,,,,,,,2014.8762360999972,2014.8903917999996,2015.390713300003,2015.375063200001,,,,,,,,,,,,,,,,,,,,,,,,,,2015.3841021999979,2015.390713300003,2015.390713300003,2015.390713300003,2018.375919500002,j,2.790701199999603,0.12810510000417707,2018.3760659000036,2018.376142699999,None,2018.3907495000021,2018.3907495000021,2018.3907495000021,,,,,,,,,,,,,,00042,001,2026-01-17_15h05.40.791,MST_task,2024.2.0,60.03366688165085,2026-01-17 15h06.02.981741 +0530,
,Objects\072a.jpg,124,0,125,,,,,,,f,1.6442974999954458,0.22374960000161082,None,,,,,,125,0,124,2018.3907495000021,,,,,,,,,,,,,,,,,,,,,,,,,,,,,,2018.3764269000021,2018.3907495000021,2018.913807900004,2018.8748656000025,,,,,,,,,,,,,,,,,,,,,,,,,,2018.9108132999972,2018.913807900004,2018.913807900004,2018.913807900004,2021.8911391000001,f,1.6442974999954458,0.22374960000161082,2021.8912550000023,2021.8912952000028,None,,,,,,,,,,,,,,,,,00042,001,2026-01-17_15h05.40.791,MST_task,2024.2.0,60.03366688165085,2026-01-17 15h06.02.981741 +0530,
,Objects\037a.jpg,125,0,126,,,,,,,f,0.98656089999713,0.19183909999992466,None,,,,,,126,0,125,2021.9073110000027,,,,,,,,,,,,,,,,,,,,,,,,,,,,,,2021.8915038999985,2021.9073110000027,2022.427347900004,2022.391650999998,,,,,,,,,,,,,,,,,,,,,,,,,,2022.4244765999974,2022.427347900004,2022.427347900004,2022.427347900004,2025.407847800001,f,0.98656089999713,0.19183909999992466,2025.4080073000005,2025.4080409000017,None,,,,,,,,,,,,,,,,,00042,001,2026-01-17_15h05.40.791,MST_task,2024.2.0,60.03366688165085,2026-01-17 15h06.02.981741 +0530,
,Scenes\094a.jpg,126,0,127,,,,,,,j,1.64339050000126,0.18380310000065947,None,,,,,,127,0,126,2025.4238468999974,,,,,,,,,,,,,,,,,,,,,,,,,,,,,,2025.408299900002,2025.4238468999974,2025.9305110999994,2025.9081727000012,,,,,,,,,,,,,,,,,,,,,,,,,,2025.927036000001,2025.9305110999994,2025.9305110999994,2025.9305110999994,2028.924289900002,j,1.64339050000126,0.18380310000065947,2028.929725300004,2028.929790000002,None,,,,,,,,,,,,,,,,,00042,001,2026-01-17_15h05.40.791,MST_task,2024.2.0,60.03366688165085,2026-01-17 15h06.02.981741 +0530,
,Scenes\022a.jpg,127,0,128,,,,,,,j,1.4247506000028807,0.175991600000998,None,,,,,,128,0,127,2028.940556900001,,,,,,,,,,,,,,,,,,,,,,,,,,,,,,2028.930055900004,2028.940556900001,2029.460912399998,2029.4249474000026,,,,,,,,,,,,,,,,,,,,,,,,,,2029.4565691000025,2029.460912399998,2029.460912399998,2029.460912399998,2032.4407073000039,j,1.4247506000028807,0.175991600000998,2032.4408186,2032.4408550000007,None,,,,,,,,,,,,,,,,,00042,001,2026-01-17_15h05.40.791,MST_task,2024.2.0,60.03366688165085,2026-01-17 15h06.02.981741 +0530,
,Scenes\045a.jpg,128,0,129,,,,,,,f,2.3458361999946646,0.1603679000036209,None,,,,,,129,0,128,2032.4570720999982,,,,,,,,,,,,,,,,,,,,,,,,,,,,,,2032.4411144000042,2032.4570720999982,,2032.941150700004,,,,,,,,,,,,,,,,,,,,,,,,,,2032.9600242000015,2032.9633719999983,2032.9633719999983,2032.9633719999983,2035.9414042999997,f,2.3458361999946646,0.1603679000036209,2035.9415369999988,2035.9415835000036,None,,,,,,,,,,,,,,,,,00042,001,2026-01-17_15h05.40.791,MST_task,2024.2.0,60.03366688165085,2026-01-17 15h06.02.981741 +0530,
,Scenes\145a.jpg,129,0,130,,,,,,,j,0.9826768999992055,0.1605282000018633,None,,,,,,130,0,129,2035.9571332999985,,,,,,,,,,,,,,,,,,,,,,,,,,,,,,2035.9418256999998,2035.9571332999985,2036.4631713999988,2036.4418944999998,,,,,,,,,,,,,,,,,,,,,,,,,,2036.459718099999,2036.4631713999988,2036.4631713999988,2036.4631713999988,2039.457550500003,j,0.9826768999992055,0.1605282000018633,2039.457712299998,2039.4577577000018,None,,,,,,,,,,,,,,,,,00042,001,2026-01-17_15h05.40.791,MST_task,2024.2.0,60.03366688165085,2026-01-17 15h06.02.981741 +0530,
,Scenes\012a.jpg,130,0,131,,,,,,,j,1.6054129999974975,0.16045519999897806,None,,,,,,131,0,130,2039.4737804000033,,,,,,,,,,,,,,,,,,,,,,,,,,,,,,2039.4580241000003,2039.4737804000033,2039.9762313000028,2039.958249000003,,,,,,,,,,,,,,,,,,,,,,,,,,2039.9729127000028,2039.9762313000028,2039.9762313000028,2039.9762313000028,2042.9744795000006,j,1.6054129999974975,0.16045519999897806,2042.9746407999992,2042.974703400003,None,,,,,,,,,,,,,,,,,00042,001,2026-01-17_15h05.40.791,MST_task,2024.2.0,60.03366688165085,2026-01-17 15h06.02.981741 +0530,
,Scenes\023a.jpg,131,0,132,,,,,,,f,1.96619940000528,0.16755409999313997,None,,,,,,132,0,131,2042.9903715000037,,,,,,,,,,,,,,,,,,,,,,,,,,,,,,2042.9750652000002,2042.9903715000037,2043.4960176000022,2043.4750217000037,,,,,,,,,,,,,,,,,,,,,,,,,,2043.4925115000005,2043.4960176000022,2043.4960176000022,2043.4960176000022,2046.4909989000007,f,1.96619940000528,0.16755409999313997,2046.4911638999984,2046.4912062000003,None,,,,,,,,,,,,,,,,,00042,001,2026-01-17_15h05.40.791,MST_task,2024.2.0,60.03366688165085,2026-01-17 15h06.02.981741 +0530,
,Scenes\183a.jpg,132,0,133,,,,,,,f,0.8499391999939689,0.19159130000480218,None,,,,,,133,0,132,2046.5072584000009,,,,,,,,,,,,,,,,,,,,,,,,,,,,,,2046.491512200002,2046.5072584000009,2047.0120572000014,2046.9915993000031,,,,,,,,,,,,,,,,,,,,,,,,,,2047.008584700001,2047.0120572000014,2047.0120572000014,2047.0120572000014,2050.0076959,f,0.8499391999939689,0.19159130000480218,2050.0078403000007,2050.007877600001,None,,,,,,,,,,,,,,,,,00042,001,2026-01-17_15h05.40.791,MST_task,2024.2.0,60.03366688165085,2026-01-17 15h06.02.981741 +0530,
,Objects\053a.jpg,133,0,134,,,,,,,f,2.7937516999954823,None,None,,,,,,134,0,133,2050.0240768000003,,,,,,,,,,,,,,,,,,,,,,,,,,,,,,2050.0081445000033,2050.0240768000003,2050.5243680999993,2050.5081219999993,,,,,,,,,,,,,,,,,,,,,,,,,,2050.5206335999974,2050.5243680999993,2050.5243680999993,2050.5243680999993,2053.509518400002,f,2.7937516999954823,None,2053.5136784999995,2053.5137099999993,None,2053.5238145999974,2053.5238145999974,2053.5238145999974,,,,,,,,,,,,,,00042,001,2026-01-17_15h05.40.791,MST_task,2024.2.0,60.03366688165085,2026-01-17 15h06.02.981741 +0530,
,Objects\107a.jpg,134,0,135,,,,,,,j,1.8034160999959568,0.167440400000487,None,,,,,,135,0,134,2053.5238145999974,,,,,,,,,,,,,,,,,,,,,,,,,,,,,,2053.513896700002,2053.5238145999974,2054.058650699997,2054.008364699999,,,,,,,,,,,,,,,,,,,,,,,,,,2054.055570299999,2054.058650699997,2054.058650699997,2054.058650699997,2057.024119499998,j,1.8034160999959568,0.167440400000487,2057.0242304999992,2057.0242837999976,None,,,,,,,,,,,,,,,,,00042,001,2026-01-17_15h05.40.791,MST_task,2024.2.0,60.03366688165085,2026-01-17 15h06.02.981741 +0530,
,Objects\089a.jpg,135,0,136,,,,,,,j,1.5128655000007711,0.16789450000214856,None,,,,,,136,0,135,2057.040418299999,,,,,,,,,,,,,,,,,,,,,,,,,,,,,,2057.024688999998,2057.040418299999,2057.541010699999,2057.525236100002,,,,,,,,,,,,,,,,,,,,,,,,,,2057.5309118000005,2057.541010699999,2057.541010699999,2057.541010699999,2060.525817900001,j,1.5128655000007711,0.16789450000214856,2060.5259845000037,2060.5260449999987,None,2060.540561300004,2060.540561300004,2060.540561300004,,,,,,,,,,,,,,00042,001,2026-01-17_15h05.40.791,MST_task,2024.2.0,60.03366688165085,2026-01-17 15h06.02.981741 +0530,
,Objects\185a.jpg,136,0,137,,,,,,,f,1.7812632999994094,0.15232489999471,None,,,,,,137,0,136,2060.540561300004,,,,,,,,,,,,,,,,,,,,,,,,,,,,,,2060.5263615000003,2060.540561300004,2061.0406170999995,2061.0251839999983,,,,,,,,,,,,,,,,,,,,,,,,,,2061.0309135999996,2061.0406170999995,2061.0406170999995,2061.0406170999995,2064.0252064000015,f,1.7812632999994094,0.15232489999471,2064.025363300003,2064.025423699997,None,2064.040683799998,2064.040683799998,2064.040683799998,,,,,,,,,,,,,,00042,001,2026-01-17_15h05.40.791,MST_task,2024.2.0,60.03366688165085,2026-01-17 15h06.02.981741 +0530,
,Objects\163a.jpg,137,0,138,,,,,,,None,,,j,1.0963259000054677,None,,,,138,0,137,2064.040683799998,,,,,,,,,,,,,,,,,,,,,,,,,,,,,,2064.0260425000015,2064.040683799998,2064.5692084999973,2064.5253722999987,,,,,,,,,,,,,,,,,,,,,,,,,,2064.565974199999,2064.5692084999973,2064.5692084999973,2064.5692084999973,2067.541223699998,None,,,2067.5413147,2068.658501800004,j,,,,2067.5570406999977,2067.5570406999977,1.0963259000054677,None,,,,,,,,,,00042,001,2026-01-17_15h05.40.791,MST_task,2024.2.0,60.03366688165085,2026-01-17 15h06.02.981741 +0530,
,Objects\042a.jpg,138,0,139,,,,,,,j,1.7830729999986943,0.16079110000282526,None,,,,,,139,0,138,2068.674144700002,,,,,,,,,,,,,,,,,,,,,,,,,,,,,,2068.6586347999983,2068.674144700002,2069.174146700003,2069.158370099998,,,,,,,,,,,,,,,,,,,,,,,,,,2069.1673115000012,2069.174146700003,2069.174146700003,2069.174146700003,2072.1587949000022,j,1.7830729999986943,0.16079110000282526,2072.158903000003,2072.158972700003,None,2072.174220300003,2072.174220300003,2072.174220300003,,,,,,,,,,,,,,00042,001,2026-01-17_15h05.40.791,MST_task,2024.2.0,60.03366688165085,2026-01-17 15h06.02.981741 +0530,
,Objects\033a.jpg,139,0,140,,,,,,,None,,,j,0.12367259999882663,None,,,,140,0,139,2072.174220300003,,,,,,,,,,,,,,,,,,,,,,,,,,,,,,2072.1592796999976,2072.174220300003,2072.707540299998,2072.6586290999985,,,,,,,,,,,,,,,,,,,,,,,,,,2072.7043465000024,2072.707540299998,2072.707540299998,2072.707540299998,2075.674509299999,None,,,2075.6746507999997,2075.8258233000015,j,,,,2075.6905541000015,2075.6905541000015,0.12367259999882663,None,,,,,,,,,,00042,001,2026-01-17_15h05.40.791,MST_task,2024.2.0,60.03366688165085,2026-01-17 15h06.02.981741 +0530,
,Scenes\054a.jpg,140,0,141,,,,,,,j,1.8301856000034604,0.1833755999978166,None,,,,,,141,0,140,2075.840672999999,,,,,,,,,,,,,,,,,,,,,,,,,,,,,,2075.8260588999983,2075.840672999999,2076.416349400002,2076.3248246000003,,,,,,,,,,,,,,,,,,,,,,,,,,2076.413071499999,2076.416349400002,2076.416349400002,2076.416349400002,2079.340810200003,j,1.8301856000034604,0.1833755999978166,2079.344507499998,2079.344551000002,None,,,,,,,,,,,,,,,,,00042,001,2026-01-17_15h05.40.791,MST_task,2024.2.0,60.03366688165085,2026-01-17 15h06.02.981741 +0530,
,Scenes\088a.jpg,141,0,142,,,,,,,j,0.7135244000019156,0.14357359999848995,None,,,,,,142,0,141,2079.3570416000002,,,,,,,,,,,,,,,,,,,,,,,,,,,,,,2079.3447818999994,2079.3570416000002,2079.9009856999983,2079.841979900004,,,,,,,,,,,,,,,,,,,,,,,,,,2079.8976124000037,2079.9009856999983,2079.9009856999983,2079.9009856999983,2082.8578540000017,j,0.7135244000019156,0.14357359999848995,2082.8580253000036,2082.8580648999996,None,,,,,,,,,,,,,,,,,00042,001,2026-01-17_15h05.40.791,MST_task,2024.2.0,60.03366688165085,2026-01-17 15h06.02.981741 +0530,
,Scenes\152a.jpg,142,0,143,,,,,,,j,0.8316600000034668,0.18325719999847934,None,,,,,,143,0,142,2082.873931000002,,,,,,,,,,,,,,,,,,,,,,,,,,,,,,2082.8583580999984,2082.873931000002,2083.374661499998,2083.358166799997,,,,,,,,,,,,,,,,,,,,,,,,,,2083.3685673,2083.374661499998,2083.374661499998,2083.374661499998,2086.3588586999977,j,0.8316600000034668,0.18325719999847934,2086.3590375999993,2086.3590992000027,None,2086.374159500003,2086.374159500003,2086.374159500003,,,,,,,,,,,,,,00042,001,2026-01-17_15h05.40.791,MST_task,2024.2.0,60.03366688165085,2026-01-17 15h06.02.981741 +0530,
,Scenes\010a.jpg,143,0,144,,,,,,,None,,,j,1.0995111000011093,None,,,,144,0,143,2086.374159500003,,,,,,,,,,,,,,,,,,,,,,,,,,,,,,2086.3594028000007,2086.374159500003,2086.877117199998,2086.858449600004,,,,,,,,,,,,,,,,,,,,,,,,,,2086.874019900002,2086.877117199998,2086.877117199998,2086.877117199998,2089.8744197999986,None,,,2089.874571799999,2090.9926946999985,j,,,,2089.890513700004,2089.890513700004,1.0995111000011093,None,,,,,,,,,,00042,001,2026-01-17_15h05.40.791,MST_task,2024.2.0,60.03366688165085,2026-01-17 15h06.02.981741 +0530,
,Scenes\111a.jpg,144,0,145,,,,,,,j,1.3139738000027137,0.1915480999959982,None,,,,,,145,0,144,2091.007111799998,,,,,,,,,,,,,,,,,,,,,,,,,,,,,,2090.9931060000017,2091.007111799998,2091.508005800002,2091.4921565999975,,,,,,,,,,,,,,,,,,,,,,,,,,2091.503200799998,2091.508005800002,2091.508005800002,2091.508005800002,2094.4918572000024,j,1.3139738000027137,0.1915480999959982,2094.492019600002,2094.492074499998,None,2094.507341999997,2094.507341999997,2094.507341999997,,,,,,,,,,,,,,00042,001,2026-01-17_15h05.40.791,MST_task,2024.2.0,60.03366688165085,2026-01-17 15h06.02.981741 +0530,
,Scenes\011a.jpg,145,0,146,,,,,,,j,1.7761069999978645,0.15257930000370834,None,,,,,,146,0,145,2094.507341999997,,,,,,,,,,,,,,,,,,,,,,,,,,,,,,2094.492356200004,2094.507341999997,2095.0692443000007,2094.991485300001,,,,,,,,,,,,,,,,,,,,,,,,,,2095.0654877999987,2095.0692443000007,2095.0692443000007,2095.0692443000007,2098.0077211000025,j,1.7761069999978645,0.15257930000370834,2098.0078453000024,2098.0078869999998,None,,,,,,,,,,,,,,,,,00042,001,2026-01-17_15h05.40.791,MST_task,2024.2.0,60.03366688165085,2026-01-17 15h06.02.981741 +0530,
,Scenes\050a.jpg,146,0,147,,,,,,,j,1.137292500003241,0.14360869999654824,None,,,,,,147,0,146,2098.0239618999985,,,,,,,,,,,,,,,,,,,,,,,,,,,,,,2098.008211100001,2098.0239618999985,2098.524704000003,2098.5083763000002,,,,,,,,,,,,,,,,,,,,,,,,,,2098.5179258999997,2098.524704000003,2098.524704000003,2098.524704000003,2101.5093441999998,j,1.137292500003241,0.14360869999654824,2101.5095126000015,2101.5095729000022,None,2101.5236109000034,2101.5236109000034,2101.5236109000034,,,,,,,,,,,,,,00042,001,2026-01-17_15h05.40.791,MST_task,2024.2.0,60.03366688165085,2026-01-17 15h06.02.981741 +0530,
,Objects\133a.jpg,147,0,148,,,,,,,j,1.573539899996831,0.16853400000400143,None,,,,,,148,0,147,2101.5236109000034,,,,,,,,,,,,,,,,,,,,,,,,,,,,,,2101.509947700004,2101.5236109000034,2102.0244066000014,2102.0080719000034,,,,,,,,,,,,,,,,,,,,,,,,,,2102.0192274,2102.0244066000014,2102.0244066000014,2102.0244066000014,2105.008913800004,j,1.573539899996831,0.16853400000400143,2105.0133295999985,2105.0133733999974,None,2105.0237105999986,2105.0237105999986,2105.0237105999986,,,,,,,,,,,,,,00042,001,2026-01-17_15h05.40.791,MST_task,2024.2.0,60.03366688165085,2026-01-17 15h06.02.981741 +0530,
,Objects\084a.jpg,148,0,149,,,,,,,j,2.5052196999968146,0.12074469999788562,None,,,,,,149,0,148,2105.0237105999986,,,,,,,,,,,,,,,,,,,,,,,,,,,,,,2105.0135726000008,2105.0237105999986,2105.524169000004,2105.5082619000023,,,,,,,,,,,,,,,,,,,,,,,,,,2105.5141355000014,2105.524169000004,2105.524169000004,2105.524169000004,2108.5085000000036,j,2.5052196999968146,0.12074469999788562,2108.508609000004,2108.508644499998,None,2108.523965200002,2108.523965200002,2108.523965200002,,,,,,,,,,,,,,00042,001,2026-01-17_15h05.40.791,MST_task,2024.2.0,60.03366688165085,2026-01-17 15h06.02.981741 +0530,
,Objects\060a.jpg,149,0,150,,,,,,,j,1.9010880999994697,0.14509580000594724,None,,,,,,150,0,149,2108.523965200002,,,,,,,,,,,,,,,,,,,,,,,,,,,,,,2108.5089152,2108.523965200002,2109.0240857000026,2109.0085710999992,,,,,,,,,,,,,,,,,,,,,,,,,,2109.0163598,2109.0240857000026,2109.0240857000026,2109.0240857000026,2112.008719999998,j,1.9010880999994697,0.14509580000594724,2112.008886900003,2112.008947100003,None,2112.024105700002,2112.024105700002,2112.024105700002,,,,,,,,,,,,,,00042,001,2026-01-17_15h05.40.791,MST_task,2024.2.0,60.03366688165085,2026-01-17 15h06.02.981741 +0530,
,Objects\021a.jpg,150,0,151,,,,,,,None,,,j,4.297491099998297,None,,,,151,0,150,2112.024105700002,,,,,,,,,,,,,,,,,,,,,,,,,,,,,,2112.0092528000023,2112.024105700002,2112.547082199999,2112.5086962999994,,,,,,,,,,,,,,,,,,,,,,,,,,2112.5434145000036,2112.547082199999,2112.547082199999,2112.547082199999,2115.524134799998,None,,,2115.524239700004,2119.841911399999,j,,,,2115.5404596000008,2115.5404596000008,4.297491099998297,None,,,,,,,,,,00042,001,2026-01-17_15h05.40.791,MST_task,2024.2.0,60.03366688165085,2026-01-17 15h06.02.981741 +0530,
,Objects\076a.jpg,151,0,152,,,,,,,f,1.7513642999983858,0.19266290000086883,None,,,,,,152,0,151,2119.857789499998,,,,,,,,,,,,,,,,,,,,,,,,,,,,,,2119.842127099997,2119.857789499998,2120.374281999997,2120.341716499999,,,,,,,,,,,,,,,,,,,,,,,,,,2120.371665700004,2120.374281999997,2120.374281999997,2120.374281999997,2123.357402499998,f,1.7513642999983858,0.19266290000086883,2123.3575149000026,2123.3575542000035,None,,,,,,,,,,,,,,,,,00042,001,2026-01-17_15h05.40.791,MST_task,2024.2.0,60.03366688165085,2026-01-17 15h06.02.981741 +0530,
,Objects\069a.jpg,152,0,153,,,,,,,j,0.8909616000019014,0.16001849999884143,None,,,,,,153,0,152,2123.3737392999974,,,,,,,,,,,,,,,,,,,,,,,,,,,,,,2123.357834800001,2123.3737392999974,,2123.857775700002,,,,,,,,,,,,,,,,,,,,,,,,,,2123.8958740000016,2123.8988014999995,2123.8988014999995,2123.8988014999995,2126.8745122000037,j,0.8909616000019014,0.16001849999884143,2126.874675500003,2126.8747390999997,None,,,,,,,,,,,,,,,,,00042,001,2026-01-17_15h05.40.791,MST_task,2024.2.0,60.03366688165085,2026-01-17 15h06.02.981741 +0530,
,Objects\126a.jpg,153,0,154,,,,,,,j,1.2699270000011893,0.15197120000084396,None,,,,,,154,0,153,2126.890495200001,,,,,,,,,,,,,,,,,,,,,,,,,,,,,,2126.875102099999,2126.890495200001,2127.4234614000015,2127.3749604999975,,,,,,,,,,,,,,,,,,,,,,,,,,2127.4201029000033,2127.4234614000015,2127.4234614000015,2127.4234614000015,2130.390845599999,j,1.2699270000011893,0.15197120000084396,2130.3910073000006,2130.391069999998,None,,,,,,,,,,,,,,,,,00042,001,2026-01-17_15h05.40.791,MST_task,2024.2.0,60.03366688165085,2026-01-17 15h06.02.981741 +0530,
,Scenes\107a.jpg,154,0,155,,,,,,,j,1.48166769999807,0.14354939999611815,None,,,,,,155,0,154,2130.4081624000028,,,,,,,,,,,,,,,,,,,,,,,,,,,,,,2130.3914068000013,2130.4081624000028,,2130.9074035000012,,,,,,,,,,,,,,,,,,,,,,,,,,2130.919590999998,2130.9245760999984,2130.9245760999984,2130.9245760999984,2133.908116300001,j,1.48166769999807,0.14354939999611815,2133.9114702000006,2133.911501100003,None,,,,,,,,,,,,,,,,,00042,001,2026-01-17_15h05.40.791,MST_task,2024.2.0,60.03366688165085,2026-01-17 15h06.02.981741 +0530,
,Scenes\082a.jpg,155,0,156,,,,,,,f,1.1198167000038666,0.15966250000201399,None,,,,,,156,0,155,2133.923851899999,,,,,,,,,,,,,,,,,,,,,,,,,,,,,,2133.9116213000016,2133.923851899999,2134.430629100003,2134.4086033999993,,,,,,,,,,,,,,,,,,,,,,,,,,2134.4261903000006,2134.430629100003,2134.430629100003,2134.430629100003,2137.424297700003,f,1.1198167000038666,0.15966250000201399,2137.424446199999,2137.4244930999994,None,,,,,,,,,,,,,,,,,00042,001,2026-01-17_15h05.40.791,MST_task,2024.2.0,60.03366688165085,2026-01-17 15h06.02.981741 +0530,
,Scenes\068a.jpg,156,0,157,,,,,,,j,0.8240652999957092,0.14328060000116238,None,,,,,,157,0,156,2137.440384900001,,,,,,,,,,,,,,,,,,,,,,,,,,,,,,2137.424824200003,2137.440384900001,2137.9420997999987,2137.9252850999983,,,,,,,,,,,,,,,,,,,,,,,,,,2137.9390948,2137.9420997999987,2137.9420997999987,2137.9420997999987,2140.941167900004,j,0.8240652999957092,0.14328060000116238,2140.9413361999977,2140.9414125999974,None,,,,,,,,,,,,,,,,,00042,001,2026-01-17_15h05.40.791,MST_task,2024.2.0,60.03366688165085,2026-01-17 15h06.02.981741 +0530,
,Scenes\162a.jpg,157,0,158,,,,,,,j,1.203447400002915,0.1681650999962585,None,,,,,,158,0,157,2140.957612500002,,,,,,,,,,,,,,,,,,,,,,,,,,,,,,2140.9416907999985,2140.957612500002,2141.457860499999,2141.4415272999977,,,,,,,,,,,,,,,,,,,,,,,,,,2141.4515551000004,2141.457860499999,2141.457860499999,2141.457860499999,2144.4421624000024,j,1.203447400002915,0.1681650999962585,2144.442334899999,2144.4423965000024,None,2144.4570583000022,2144.4570583000022,2144.4570583000022,,,,,,,,,,,,,,00042,001,2026-01-17_15h05.40.791,MST_task,2024.2.0,60.03366688165085,2026-01-17 15h06.02.981741 +0530,
,Scenes\121a.jpg,158,0,159,,,,,,,j,2.6670544000007794,0.15934610000113025,None,,,,,,159,0,158,2144.4570583000022,,,,,,,,,,,,,,,,,,,,,,,,,,,,,,2144.4429272999987,2144.4570583000022,2144.9633663999994,2144.9418000000005,,,,,,,,,,,,,,,,,,,,,,,,,,2144.9587004999994,2144.9633663999994,2144.9633663999994,2144.9633663999994,2147.9577156000014,j,2.6670544000007794,0.15934610000113025,2147.957874699998,2147.9579368999985,None,,,,,,,,,,,,,,,,,00042,001,2026-01-17_15h05.40.791,MST_task,2024.2.0,60.03366688165085,2026-01-17 15h06.02.981741 +0530,
,Scenes\113a.jpg,159,0,160,,,,,,,j,2.0758547999939765,0.16820080000616144,None,,,,,,160,0,159,2147.9738939000017,,,,,,,,,,,,,,,,,,,,,,,,,,,,,,2147.9582572,2147.9738939000017,2148.4745240999982,2148.4579266,,,,,,,,,,,,,,,,,,,,,,,,,,2148.465305800004,2148.4745240999982,2148.4745240999982,2148.4745240999982,2151.4582481000034,j,2.0758547999939765,0.16820080000616144,2151.4583262000015,2151.458348699998,None,2151.4740834999975,2151.4740834999975,2151.4740834999975,,,,,,,,,,,,,,00042,001,2026-01-17_15h05.40.791,MST_task,2024.2.0,60.03366688165085,2026-01-17 15h06.02.981741 +0530,
,Scenes\168a.jpg,160,0,161,,,,,,,j,1.0171551000021282,0.21455479999713134,None,,,,,,161,0,160,2151.4740834999975,,,,,,,,,,,,,,,,,,,,,,,,,,,,,,2151.4585879000006,2151.4740834999975,2152.0134891999987,2151.9581822000036,,,,,,,,,,,,,,,,,,,,,,,,,,2152.0102353999973,2152.0134891999987,2152.0134891999987,2152.0134891999987,2154.974271699997,j,1.0171551000021282,0.21455479999713134,2154.9744321000035,2154.9744740000024,None,,,,,,,,,,,,,,,,,00042,001,2026-01-17_15h05.40.791,MST_task,2024.2.0,60.03366688165085,2026-01-17 15h06.02.981741 +0530,
