thisN,thisTrialN,thisRepN,key_resp_3.keys,key_resp_3.rt,key_resp_3.duration,trials.thisRepN,trials.thisTrialN,trials.thisN,thisRow.t,notes,intro_page.started,text.started,key_resp.started,intro_page.stopped,key_resp.keys,key_resp.rt,key_resp.duration,instructions.started,text_2.started,key_resp_2.started,instructions.stopped,key_resp_2.keys,key_resp_2.rt,key_resp_2.duration,demo1.started,image_1.started,image_2.started,text_7.started,key_resp_6.started,text_9.started,demo1.stopped,key_resp_6.keys,key_resp_6.rt,key_resp_6.duration,demo2.started,image_5.started,image_6.started,text_11.started,text_12.started,key_resp_8.started,demo2.stopped,key_resp_8.keys,key_resp_8.rt,key_resp_8.duration,demo_conclusion.started,text_13.started,key_resp_9.started,demo_conclusion.stopped,key_resp_9.keys,key_resp_9.rt,key_resp_9.duration,start_test.started,text_6.started,key_resp_5.started,start_test.stopped,key_resp_5.keys,key_resp_5.rt,key_resp_5.duration,ISI.started,text_4.started,text_4.stopped,ISI.stopped,routine_1.started,image.started,text_3.started,key_resp_3.started,routine_1.stopped,image_path,position_of_stimuli,trials.key_resp_3.keys,trials.key_resp_3.rt,trials.key_resp_3.duration,End_page.started,text_5.started,key_resp_4.started,End_page.stopped,key_resp_4.keys,key_resp_4.rt,key_resp_4.duration,participant,session,date,expName,psychopyVersion,frameRate,expStart,
,,,,,,,,,,,0.001476300007198006,0.0031282000127248466,0.0031282000127248466,2.5503908000537194,space,2.530450199963525,None,,,,,,,,,,,,,,,,,,,,,,,,,,,,,,,,,,,,,,,,,,,,,,,,,,,,,,,,,,,,,,,00049,001,2026-01-18_12h55.08.788,MST_test,2024.2.0,59.99905201474454,2026-01-18 12h55.17.600458 +0530,
,,,,,,,,,,,,,,,,,,2.5504269000375643,2.5648344000219367,2.5648344000219367,12.748695000016596,space,10.177441400010139,None,,,,,,,,,,,,,,,,,,,,,,,,,,,,,,,,,,,,,,,,,,,,,,,,,,,,,,,,00049,001,2026-01-18_12h55.08.788,MST_test,2024.2.0,59.99905201474454,2026-01-18 12h55.17.600458 +0530,
,,,,,,,,,,,,,,,,,,,,,,,,,12.748722900054418,12.7653122000047,12.7653122000047,12.7653122000047,12.7653122000047,12.7653122000047,29.332097900041845,space,16.553267400013283,None,,,,,,,,,,,,,,,,,,,,,,,,,,,,,,,,,,,,,,,,,,,,,,00049,001,2026-01-18_12h55.08.788,MST_test,2024.2.0,59.99905201474454,2026-01-18 12h55.17.600458 +0530,
,,,,,,,,,,,,,,,,,,,,,,,,,,,,,,,,,,,29.332126400026027,29.34862190001877,29.34862190001877,29.34862190001877,29.34862190001877,29.34862190001877,32.3488363000215,space,2.9935384999844246,None,,,,,,,,,,,,,,,,,,,,,,,,,,,,,,,,,,,,00049,001,2026-01-18_12h55.08.788,MST_test,2024.2.0,59.99905201474454,2026-01-18 12h55.17.600458 +0530,
,,,,,,,,,,,,,,,,,,,,,,,,,,,,,,,,,,,,,,,,,,,,,32.348864800005686,32.364890500030015,32.364890500030015,57.98205460002646,space,25.609888100007083,None,,,,,,,,,,,,,,,,,,,,,,,,,,,,,00049,001,2026-01-18_12h55.08.788,MST_test,2024.2.0,59.99905201474454,2026-01-18 12h55.17.600458 +0530,
,,,,,,,,,,,,,,,,,,,,,,,,,,,,,,,,,,,,,,,,,,,,,,,,,,,,57.98208490002435,57.99818380002398,57.99818380002398,119.63189420005074,space,61.62377299997024,None,,,,,,,,,,,,,,,,,,,,,,00049,001,2026-01-18_12h55.08.788,MST_test,2024.2.0,59.99905201474454,2026-01-18 12h55.17.600458 +0530,
0,0,1,s,5.683189500006847,None,1,0,0,119.64811400003964,,,,,,,,,,,,,,,,,,,,,,,,,,,,,,,,,,,,,,,,,,,,,,,,,,119.63611350004794,119.64811400003964,120.15498230000958,120.13169910002034,120.15242340002442,120.15498230000958,120.15498230000958,120.15498230000958,125.84917590004625,Objects\029b.jpg,pre,s,5.683189500006847,None,,,,,,,,00049,001,2026-01-18_12h55.08.788,MST_test,2024.2.0,59.99905201474454,2026-01-18 12h55.17.600458 +0530,
1,0,2,n,3.5683021000004373,None,2,0,1,125.86486020003213,,,,,,,,,,,,,,,,,,,,,,,,,,,,,,,,,,,,,,,,,,,,,,,,,,125.8492808000301,125.86486020003213,126.36509220005246,126.3484327000333,126.35832670005038,126.36509220005246,126.36509220005246,126.36509220005246,129.94869010004913,Foils\026a.jpg,none,n,3.5683021000004373,None,,,,,,,,00049,001,2026-01-18_12h55.08.788,MST_test,2024.2.0,59.99905201474454,2026-01-18 12h55.17.600458 +0530,
2,0,3,s,3.218213999993168,None,3,0,2,129.9648008000222,,,,,,,,,,,,,,,,,,,,,,,,,,,,,,,,,,,,,,,,,,,,,,,,,,129.94878210005118,129.9648008000222,130.4682540000067,130.44850980001502,130.46630620001815,130.4682540000067,130.4682540000067,130.4682540000067,133.69892799999798,Scenes\106b.jpg,mid,s,3.218213999993168,None,,,,,,,,00049,001,2026-01-18_12h55.08.788,MST_test,2024.2.0,59.99905201474454,2026-01-18 12h55.17.600458 +0530,
3,0,4,o,3.7494151999708265,None,4,0,3,133.71489260002272,,,,,,,,,,,,,,,,,,,,,,,,,,,,,,,,,,,,,,,,,,,,,,,,,,133.69902490003733,133.71489260002272,134.21681650000392,134.1983665000298,134.21469400002388,134.21681650000392,134.21681650000392,134.21681650000392,137.98229620000347,Scenes\078b.jpg,pre,o,3.7494151999708265,None,,,,,,,,00049,001,2026-01-18_12h55.08.788,MST_test,2024.2.0,59.99905201474454,2026-01-18 12h55.17.600458 +0530,
4,0,5,o,3.435841500002425,None,5,0,4,137.99826790002408,,,,,,,,,,,,,,,,,,,,,,,,,,,,,,,,,,,,,,,,,,,,,,,,,,137.98239250003826,137.99826790002408,138.49877540004672,138.4816796000232,138.48938330000965,138.49877540004672,138.49877540004672,138.49877540004672,141.94872310000937,Scenes\101a.jpg,post,o,3.435841500002425,None,,,,,,,,00049,001,2026-01-18_12h55.08.788,MST_test,2024.2.0,59.99905201474454,2026-01-18 12h55.17.600458 +0530,
5,0,6,o,1.869303400046192,None,6,0,5,141.96485630003735,,,,,,,,,,,,,,,,,,,,,,,,,,,,,,,,,,,,,,,,,,,,,,,,,,141.94881510001142,141.96485630003735,142.46543250000104,142.44842980004614,142.4566349000088,142.46543250000104,142.46543250000104,142.46543250000104,144.34870550001506,Scenes\052a.jpg,post,o,1.869303400046192,None,,,,,,,,00049,001,2026-01-18_12h55.08.788,MST_test,2024.2.0,59.99905201474454,2026-01-18 12h55.17.600458 +0530,
6,0,7,o,2.0208289999864064,None,7,0,6,144.3649226000416,,,,,,,,,,,,,,,,,,,,,,,,,,,,,,,,,,,,,,,,,,,,,,,,,,144.34879720001481,144.3649226000416,144.86517560004722,144.8485851000296,144.8599908000324,144.86517560004722,144.86517560004722,144.86517560004722,146.89867260004394,Objects\114b.jpg,pre,o,2.0208289999864064,None,,,,,,,,00049,001,2026-01-18_12h55.08.788,MST_test,2024.2.0,59.99905201474454,2026-01-18 12h55.17.600458 +0530,
7,0,8,n,1.5196097000152804,None,8,0,7,146.91485610004747,,,,,,,,,,,,,,,,,,,,,,,,,,,,,,,,,,,,,,,,,,,,,,,,,,146.8987635000376,146.91485610004747,147.41527940001106,147.39845480001532,147.40766450000228,147.41527940001106,147.41527940001106,147.41527940001106,148.94867900002282,Foils\scenes16.jpg,none,n,1.5196097000152804,None,,,,,,,,00049,001,2026-01-18_12h55.08.788,MST_test,2024.2.0,59.99905201474454,2026-01-18 12h55.17.600458 +0530,
8,0,9,n,14.500671699992381,None,9,0,8,148.9648559000343,,,,,,,,,,,,,,,,,,,,,,,,,,,,,,,,,,,,,,,,,,,,,,,,,,148.9487748000538,148.9648559000343,149.46524260001024,149.44852890004404,149.45831860002363,149.46524260001024,149.46524260001024,149.46524260001024,163.98223830002826,Objects\168b.jpg,pre,n,14.500671699992381,None,,,,,,,,00049,001,2026-01-18_12h55.08.788,MST_test,2024.2.0,59.99905201474454,2026-01-18 12h55.17.600458 +0530,
9,0,10,s,2.5072847999981605,None,10,0,9,163.99819860002026,,,,,,,,,,,,,,,,,,,,,,,,,,,,,,,,,,,,,,,,,,,,,,,,,,163.9823373000254,163.99819860002026,164.49877190002007,164.4816764999996,164.4888181000133,164.49877190002007,164.49877190002007,164.49877190002007,167.0158999999985,Scenes\147a.jpg,pre,s,2.5072847999981605,None,,,,,,,,00049,001,2026-01-18_12h55.08.788,MST_test,2024.2.0,59.99905201474454,2026-01-18 12h55.17.600458 +0530,
10,0,11,s,2.730209900008049,None,11,0,10,167.03153530001873,,,,,,,,,,,,,,,,,,,,,,,,,,,,,,,,,,,,,,,,,,,,,,,,,,167.016012600041,167.03153530001873,167.53204050002387,167.51506710000103,167.52370910003083,167.53204050002387,167.53204050002387,167.53204050002387,170.26585440000053,Scenes\107a.jpg,post,s,2.730209900008049,None,,,,,,,,00049,001,2026-01-18_12h55.08.788,MST_test,2024.2.0,59.99905201474454,2026-01-18 12h55.17.600458 +0530,
11,0,12,o,7.031631899997592,None,12,0,11,170.2815196000156,,,,,,,,,,,,,,,,,,,,,,,,,,,,,,,,,,,,,,,,,,,,,,,,,,170.2659564000205,170.2815196000156,170.78196580003714,170.76512630004436,170.776239000028,170.78196580003714,170.78196580003714,170.78196580003714,177.8155121000018,Objects\015b.jpg,pre,o,7.031631899997592,None,,,,,,,,00049,001,2026-01-18_12h55.08.788,MST_test,2024.2.0,59.99905201474454,2026-01-18 12h55.17.600458 +0530,
12,0,13,o,1.0105334000545554,None,13,0,12,177.83160990005126,,,,,,,,,,,,,,,,,,,,,,,,,,,,,,,,,,,,,,,,,,,,,,,,,,177.8156138000195,177.83160990005126,178.33163520001108,178.31516200001352,178.3179074000218,178.33163520001108,178.33163520001108,178.33163520001108,179.34876910003368,Objects\181a.jpg,post,o,1.0105334000545554,None,,,,,,,,00049,001,2026-01-18_12h55.08.788,MST_test,2024.2.0,59.99905201474454,2026-01-18 12h55.17.600458 +0530,
13,0,14,o,0.8285928999539465,None,14,0,13,179.36498450004729,,,,,,,,,,,,,,,,,,,,,,,,,,,,,,,,,,,,,,,,,,,,,,,,,,179.34885800001211,179.36498450004729,179.86520130001009,179.8485952000483,179.85114810004598,179.86520130001009,179.86520130001009,179.86520130001009,180.69913810002618,Objects\184a.jpg,pre,o,0.8285928999539465,None,,,,,,,,00049,001,2026-01-18_12h55.08.788,MST_test,2024.2.0,59.99905201474454,2026-01-18 12h55.17.600458 +0530,
14,0,15,n,1.1181770999683067,None,15,0,14,180.7148370000068,,,,,,,,,,,,,,,,,,,,,,,,,,,,,,,,,,,,,,,,,,,,,,,,,,180.69923750002636,180.7148370000068,181.21548370004166,181.19856430002255,181.2093740000273,181.21548370004166,181.21548370004166,181.21548370004166,182.3488852000446,Foils\106a.jpg,none,n,1.1181770999683067,None,,,,,,,,00049,001,2026-01-18_12h55.08.788,MST_test,2024.2.0,59.99905201474454,2026-01-18 12h55.17.600458 +0530,
15,0,16,o,3.453526899975259,None,16,0,15,182.3648952000076,,,,,,,,,,,,,,,,,,,,,,,,,,,,,,,,,,,,,,,,,,,,,,,,,,182.34897480002837,182.3648952000076,182.86516650003614,182.8485398000339,182.8580783000216,182.86516650003614,182.86516650003614,182.86516650003614,186.3321441000444,Objects\107b.jpg,mid,o,3.453526899975259,None,,,,,,,,00049,001,2026-01-18_12h55.08.788,MST_test,2024.2.0,59.99905201474454,2026-01-18 12h55.17.600458 +0530,
16,0,17,o,1.7408595000160858,None,17,0,16,186.34833470004378,,,,,,,,,,,,,,,,,,,,,,,,,,,,,,,,,,,,,,,,,,,,,,,,,,186.33223530004034,186.34833470004378,186.848532300035,186.83183290000306,186.83428440004354,186.848532300035,186.848532300035,186.848532300035,188.5988270000089,Objects\062a.jpg,mid,o,1.7408595000160858,None,,,,,,,,00049,001,2026-01-18_12h55.08.788,MST_test,2024.2.0,59.99905201474454,2026-01-18 12h55.17.600458 +0530,
17,0,18,o,1.098502000037115,None,18,0,17,188.61498050001683,,,,,,,,,,,,,,,,,,,,,,,,,,,,,,,,,,,,,,,,,,,,,,,,,,188.59891940001398,188.61498050001683,189.11550920002628,189.09856400004355,189.1066579000326,189.11550920002628,189.11550920002628,189.11550920002628,190.21563980000792,Scenes\110a.jpg,post,o,1.098502000037115,None,,,,,,,,00049,001,2026-01-18_12h55.08.788,MST_test,2024.2.0,59.99905201474454,2026-01-18 12h55.17.600458 +0530,
18,0,19,n,1.897307900013402,None,19,0,18,190.2316764999996,,,,,,,,,,,,,,,,,,,,,,,,,,,,,,,,,,,,,,,,,,,,,,,,,,190.21573240001453,190.2316764999996,190.73215500003425,190.71522760001244,190.72468400001526,190.73215500003425,190.73215500003425,190.73215500003425,192.63204440003028,Foils\113a.jpg,none,n,1.897307900013402,None,,,,,,,,00049,001,2026-01-18_12h55.08.788,MST_test,2024.2.0,59.99905201474454,2026-01-18 12h55.17.600458 +0530,
19,0,20,n,1.5221528999973089,None,20,0,19,192.64832500001648,,,,,,,,,,,,,,,,,,,,,,,,,,,,,,,,,,,,,,,,,,,,,,,,,,192.63213720003841,192.64832500001648,193.14846190001117,193.13202250003815,193.14156720001483,193.14846190001117,193.14846190001117,193.14846190001117,194.68223110004328,Objects\048b.jpg,post,n,1.5221528999973089,None,,,,,,,,00049,001,2026-01-18_12h55.08.788,MST_test,2024.2.0,59.99905201474454,2026-01-18 12h55.17.600458 +0530,
20,0,21,o,2.431994599988684,None,21,0,20,194.69840930000646,,,,,,,,,,,,,,,,,,,,,,,,,,,,,,,,,,,,,,,,,,,,,,,,,,194.68232260004152,194.69840930000646,195.19856220000656,195.18194690003293,195.19210929999826,195.19856220000656,195.19856220000656,195.19856220000656,197.6324542000075,Objects\113b.jpg,post,o,2.431994599988684,None,,,,,,,,00049,001,2026-01-18_12h55.08.788,MST_test,2024.2.0,59.99905201474454,2026-01-18 12h55.17.600458 +0530,
21,0,22,n,2.849507300008554,None,22,0,21,197.64845620002598,,,,,,,,,,,,,,,,,,,,,,,,,,,,,,,,,,,,,,,,,,,,,,,,,,197.632562600018,197.64845620002598,198.14856030000374,198.13188710005488,198.14111520000733,198.14856030000374,198.14856030000374,198.14856030000374,200.99891449999996,Foils\101b.jpg,none,n,2.849507300008554,None,,,,,,,,00049,001,2026-01-18_12h55.08.788,MST_test,2024.2.0,59.99905201474454,2026-01-18 12h55.17.600458 +0530,
22,0,23,o,1.275045400019735,None,23,0,22,201.01501040003495,,,,,,,,,,,,,,,,,,,,,,,,,,,,,,,,,,,,,,,,,,,,,,,,,,200.9990174000268,201.01501040003495,201.51520970003912,201.49851020000642,201.50116860005073,201.51520970003912,201.51520970003912,201.51520970003912,202.79881730000488,Objects\147a.jpg,mid,o,1.275045400019735,None,,,,,,,,00049,001,2026-01-18_12h55.08.788,MST_test,2024.2.0,59.99905201474454,2026-01-18 12h55.17.600458 +0530,
23,0,24,s,6.182461699994747,None,24,0,23,202.81501050002407,,,,,,,,,,,,,,,,,,,,,,,,,,,,,,,,,,,,,,,,,,,,,,,,,,202.7989096000092,202.81501050002407,203.3191705000354,203.29859050002415,203.31680760002928,203.3191705000354,203.3191705000354,203.3191705000354,209.51549220003653,Scenes\094b.jpg,post,s,6.182461699994747,None,,,,,,,,00049,001,2026-01-18_12h55.08.788,MST_test,2024.2.0,59.99905201474454,2026-01-18 12h55.17.600458 +0530,
24,0,25,o,2.597237400012091,None,25,0,24,209.53162400005385,,,,,,,,,,,,,,,,,,,,,,,,,,,,,,,,,,,,,,,,,,,,,,,,,,209.5155831000302,209.53162400005385,210.0322285000002,210.0153306000284,210.02183220000006,210.0322285000002,210.0322285000002,210.0322285000002,212.63210790004814,Scenes\160a.jpg,post,o,2.597237400012091,None,,,,,,,,00049,001,2026-01-18_12h55.08.788,MST_test,2024.2.0,59.99905201474454,2026-01-18 12h55.17.600458 +0530,
25,0,26,o,1.0488103000097908,None,26,0,25,212.64831890002824,,,,,,,,,,,,,,,,,,,,,,,,,,,,,,,,,,,,,,,,,,,,,,,,,,212.6321991000441,212.64831890002824,213.1487715000403,213.13178400002653,213.13528320001205,213.1487715000403,213.1487715000403,213.1487715000403,214.19895750004798,Objects\125a.jpg,pre,o,1.0488103000097908,None,,,,,,,,00049,001,2026-01-18_12h55.08.788,MST_test,2024.2.0,59.99905201474454,2026-01-18 12h55.17.600458 +0530,
26,0,27,o,1.5473851999850012,None,27,0,26,214.21506020001834,,,,,,,,,,,,,,,,,,,,,,,,,,,,,,,,,,,,,,,,,,,,,,,,,,214.19905020005535,214.21506020001834,214.71532040002057,214.69853660004446,214.70451890002005,214.71532040002057,214.71532040002057,214.71532040002057,216.26554260001285,Scenes\137a.jpg,pre,o,1.5473851999850012,None,,,,,,,,00049,001,2026-01-18_12h55.08.788,MST_test,2024.2.0,59.99905201474454,2026-01-18 12h55.17.600458 +0530,
27,0,28,s,2.4779724000254646,None,28,0,27,216.28161679999903,,,,,,,,,,,,,,,,,,,,,,,,,,,,,,,,,,,,,,,,,,,,,,,,,,216.26564670004882,216.28161679999903,216.7842968000332,216.76525640004547,216.78197690000525,216.7842968000332,216.7842968000332,216.7842968000332,219.26575320004486,Scenes\055b.jpg,pre,s,2.4779724000254646,None,,,,,,,,00049,001,2026-01-18_12h55.08.788,MST_test,2024.2.0,59.99905201474454,2026-01-18 12h55.17.600458 +0530,
28,0,29,s,3.295785300026182,None,29,0,28,219.28143830003683,,,,,,,,,,,,,,,,,,,,,,,,,,,,,,,,,,,,,,,,,,,,,,,,,,219.265856300015,219.28143830003683,219.78216480003903,219.76507770002354,219.77668390003964,219.78216480003903,219.78216480003903,219.78216480003903,223.08270180004183,Scenes\023a.jpg,pre,s,3.295785300026182,None,,,,,,,,00049,001,2026-01-18_12h55.08.788,MST_test,2024.2.0,59.99905201474454,2026-01-18 12h55.17.600458 +0530,
29,0,30,s,5.175328700046521,None,30,0,29,223.09836040000664,,,,,,,,,,,,,,,,,,,,,,,,,,,,,,,,,,,,,,,,,,,,,,,,,,223.08280670002569,223.09836040000664,223.59884130000137,223.58176460000686,223.595231000043,223.59884130000137,223.59884130000137,223.59884130000137,228.7821848000167,Scenes\006b.jpg,pre,s,5.175328700046521,None,,,,,,,,00049,001,2026-01-18_12h55.08.788,MST_test,2024.2.0,59.99905201474454,2026-01-18 12h55.17.600458 +0530,
30,0,31,o,1.1471442999900319,None,31,0,30,228.79829140001675,,,,,,,,,,,,,,,,,,,,,,,,,,,,,,,,,,,,,,,,,,,,,,,,,,228.782273000048,228.79829140001675,229.29888470005244,229.28209030005382,229.29096400004346,229.29888470005244,229.29888470005244,229.29888470005244,230.44880110002123,Scenes\019a.jpg,pre,o,1.1471442999900319,None,,,,,,,,00049,001,2026-01-18_12h55.08.788,MST_test,2024.2.0,59.99905201474454,2026-01-18 12h55.17.600458 +0530,
31,0,32,s,1.4565857000416145,None,32,0,31,230.464976200019,,,,,,,,,,,,,,,,,,,,,,,,,,,,,,,,,,,,,,,,,,,,,,,,,,230.44889180001337,230.464976200019,230.96535480004968,230.9485696000047,230.95878169999924,230.96535480004968,230.96535480004968,230.96535480004968,232.43217220000224,Objects\177b.jpg,pre,s,1.4565857000416145,None,,,,,,,,00049,001,2026-01-18_12h55.08.788,MST_test,2024.2.0,59.99905201474454,2026-01-18 12h55.17.600458 +0530,
32,0,33,o,1.1618344000307843,None,33,0,32,232.44825700001093,,,,,,,,,,,,,,,,,,,,,,,,,,,,,,,,,,,,,,,,,,,,,,,,,,232.43226220004726,232.44825700001093,232.94869500002824,232.93179940001573,232.94423280004412,232.94869500002824,232.94869500002824,232.94869500002824,234.11561970005278,Scenes\046a.jpg,pre,o,1.1618344000307843,None,,,,,,,,00049,001,2026-01-18_12h55.08.788,MST_test,2024.2.0,59.99905201474454,2026-01-18 12h55.17.600458 +0530,
33,0,34,s,3.4295430000056513,None,34,0,33,234.13148950005416,,,,,,,,,,,,,,,,,,,,,,,,,,,,,,,,,,,,,,,,,,,,,,,,,,234.11571840004763,234.13148950005416,234.63198810000904,234.615265200031,234.62791600002674,234.63198810000904,234.63198810000904,234.63198810000904,238.065488799999,Scenes\079b.jpg,pre,s,3.4295430000056513,None,,,,,,,,00049,001,2026-01-18_12h55.08.788,MST_test,2024.2.0,59.99905201474454,2026-01-18 12h55.17.600458 +0530,
34,0,35,n,4.1762282000272535,None,35,0,34,238.08138640003745,,,,,,,,,,,,,,,,,,,,,,,,,,,,,,,,,,,,,,,,,,,,,,,,,,238.06558059999952,238.08138640003745,238.58195980003802,238.5652751000016,238.56855640001595,238.58195980003802,238.58195980003802,238.58195980003802,242.7655178999994,Objects\025a.jpg,mid,n,4.1762282000272535,None,,,,,,,,00049,001,2026-01-18_12h55.08.788,MST_test,2024.2.0,59.99905201474454,2026-01-18 12h55.17.600458 +0530,
35,0,36,s,3.9079544999985956,None,36,0,35,242.78141630004393,,,,,,,,,,,,,,,,,,,,,,,,,,,,,,,,,,,,,,,,,,,,,,,,,,242.765610500006,242.78141630004393,243.28169410000555,243.26520220004022,243.26852979999967,243.28169410000555,243.28169410000555,243.28169410000555,247.19881080003688,Objects\090a.jpg,post,s,3.9079544999985956,None,,,,,,,,00049,001,2026-01-18_12h55.08.788,MST_test,2024.2.0,59.99905201474454,2026-01-18 12h55.17.600458 +0530,
36,0,37,s,2.6381403999985196,None,37,0,36,247.21482120000292,,,,,,,,,,,,,,,,,,,,,,,,,,,,,,,,,,,,,,,,,,,,,,,,,,247.19890499999747,247.21482120000292,247.72020989999874,247.69845830003032,247.71816290001152,247.72020989999874,247.72020989999874,247.72020989999874,250.3655275000492,Scenes\125b.jpg,mid,s,2.6381403999985196,None,,,,,,,,00049,001,2026-01-18_12h55.08.788,MST_test,2024.2.0,59.99905201474454,2026-01-18 12h55.17.600458 +0530,
37,0,38,n,1.948037399968598,None,38,0,37,250.3814043000457,,,,,,,,,,,,,,,,,,,,,,,,,,,,,,,,,,,,,,,,,,,,,,,,,,250.3656199000543,250.3814043000457,250.88198030000785,250.8651392000029,250.86849810002604,250.88198030000785,250.88198030000785,250.88198030000785,252.8321455999976,Objects\032a.jpg,post,n,1.948037399968598,None,,,,,,,,00049,001,2026-01-18_12h55.08.788,MST_test,2024.2.0,59.99905201474454,2026-01-18 12h55.17.600458 +0530,
38,0,39,n,3.057831200014334,None,39,0,38,252.84817040001508,,,,,,,,,,,,,,,,,,,,,,,,,,,,,,,,,,,,,,,,,,,,,,,,,,252.83223610004643,252.84817040001508,253.34860100003425,253.33180189999985,253.34058750001714,253.34860100003425,253.34860100003425,253.34860100003425,256.41553510003723,Foils\scenes2.jpg,none,n,3.057831200014334,None,,,,,,,,00049,001,2026-01-18_12h55.08.788,MST_test,2024.2.0,59.99905201474454,2026-01-18 12h55.17.600458 +0530,
39,0,40,n,1.5864988000248559,None,40,0,39,256.43144900002517,,,,,,,,,,,,,,,,,,,,,,,,,,,,,,,,,,,,,,,,,,,,,,,,,,256.4156258000294,256.43144900002517,256.9318201999995,256.9152133000316,256.92468230001396,256.9318201999995,256.9318201999995,256.9318201999995,258.53208820003783,Scenes\176a.jpg,pre,n,1.5864988000248559,None,,,,,,,,00049,001,2026-01-18_12h55.08.788,MST_test,2024.2.0,59.99905201474454,2026-01-18 12h55.17.600458 +0530,
40,0,41,s,1.5573524999781512,None,41,0,40,258.54823450004915,,,,,,,,,,,,,,,,,,,,,,,,,,,,,,,,,,,,,,,,,,,,,,,,,,258.5321889000479,258.54823450004915,259.0487748000305,259.0318577000289,259.0442952000303,259.0487748000305,259.0487748000305,259.0487748000305,260.6154421000392,Scenes\113b.jpg,pre,s,1.5573524999781512,None,,,,,,,,00049,001,2026-01-18_12h55.08.788,MST_test,2024.2.0,59.99905201474454,2026-01-18 12h55.17.600458 +0530,
41,0,42,s,6.417843100032769,None,42,0,41,260.6314910000074,,,,,,,,,,,,,,,,,,,,,,,,,,,,,,,,,,,,,,,,,,,,,,,,,,260.6155348000466,260.6314910000074,261.13202509999974,261.115138400055,261.1207846000325,261.13202509999974,261.13202509999974,261.13202509999974,267.5656291000196,Scenes\051a.jpg,post,s,6.417843100032769,None,,,,,,,,00049,001,2026-01-18_12h55.08.788,MST_test,2024.2.0,59.99905201474454,2026-01-18 12h55.17.600458 +0530,
42,0,43,o,1.3324529000092298,None,43,0,42,267.5815906000207,,,,,,,,,,,,,,,,,,,,,,,,,,,,,,,,,,,,,,,,,,,,,,,,,,267.565724300046,267.5815906000207,268.0821490000235,268.06515960005345,268.07241060002707,268.0821490000235,268.0821490000235,268.0821490000235,269.4157463000156,Scenes\008a.jpg,pre,o,1.3324529000092298,None,,,,,,,,00049,001,2026-01-18_12h55.08.788,MST_test,2024.2.0,59.99905201474454,2026-01-18 12h55.17.600458 +0530,
43,0,44,s,4.298306100012269,None,44,0,43,269.4316843000124,,,,,,,,,,,,,,,,,,,,,,,,,,,,,,,,,,,,,,,,,,,,,,,,,,269.4158439000021,269.4316843000124,269.93203020002693,269.91526360000717,269.925399300002,269.93203020002693,269.93203020002693,269.93203020002693,274.23200880002696,Scenes\033b.jpg,mid,s,4.298306100012269,None,,,,,,,,00049,001,2026-01-18_12h55.08.788,MST_test,2024.2.0,59.99905201474454,2026-01-18 12h55.17.600458 +0530,
44,0,45,n,1.1596273999894038,None,45,0,44,274.24833890004084,,,,,,,,,,,,,,,,,,,,,,,,,,,,,,,,,,,,,,,,,,,,,,,,,,274.23209990002215,274.24833890004084,274.75103189999936,274.7317629000172,274.7489988000016,274.75103189999936,274.75103189999936,274.75103189999936,275.9159825000097,Scenes\041b.jpg,mid,n,1.1596273999894038,None,,,,,,,,00049,001,2026-01-18_12h55.08.788,MST_test,2024.2.0,59.99905201474454,2026-01-18 12h55.17.600458 +0530,
45,0,46,s,1.429689300013706,None,46,0,45,275.93150210002204,,,,,,,,,,,,,,,,,,,,,,,,,,,,,,,,,,,,,,,,,,,,,,,,,,275.91608100000303,275.93150210002204,276.4319296000176,276.41509190003853,276.4184487000457,276.4319296000176,276.4319296000176,276.4319296000176,277.8655175000313,Objects\192a.jpg,pre,s,1.429689300013706,None,,,,,,,,00049,001,2026-01-18_12h55.08.788,MST_test,2024.2.0,59.99905201474454,2026-01-18 12h55.17.600458 +0530,
46,0,47,o,1.0635309999925084,None,47,0,46,277.8814234000165,,,,,,,,,,,,,,,,,,,,,,,,,,,,,,,,,,,,,,,,,,,,,,,,,,277.8656074000173,277.8814234000165,278.382040000055,278.36514550005086,278.37541460001376,278.382040000055,278.382040000055,278.382040000055,279.44939070002874,Scenes\062a.jpg,post,o,1.0635309999925084,None,,,,,,,,00049,001,2026-01-18_12h55.08.788,MST_test,2024.2.0,59.99905201474454,2026-01-18 12h55.17.600458 +0530,
47,0,48,s,1.928786400007084,None,48,0,47,279.4650288000121,,,,,,,,,,,,,,,,,,,,,,,,,,,,,,,,,,,,,,,,,,,,,,,,,,279.44950010004686,279.4650288000121,279.96544830000494,279.9485915999976,279.951900700049,279.96544830000494,279.96544830000494,279.96544830000494,281.898887700052,Scenes\022a.jpg,mid,s,1.928786400007084,None,,,,,,,,00049,001,2026-01-18_12h55.08.788,MST_test,2024.2.0,59.99905201474454,2026-01-18 12h55.17.600458 +0530,
48,0,49,o,1.3107909999671392,None,49,0,48,281.9148883000016,,,,,,,,,,,,,,,,,,,,,,,,,,,,,,,,,,,,,,,,,,,,,,,,,,281.8989826000179,281.9148883000016,282.41552570002386,282.3986942000338,282.40536420000717,282.41552570002386,282.41552570002386,282.41552570002386,283.73189710004954,Scenes\136a.jpg,mid,o,1.3107909999671392,None,,,,,,,,00049,001,2026-01-18_12h55.08.788,MST_test,2024.2.0,59.99905201474454,2026-01-18 12h55.17.600458 +0530,
49,0,50,o,1.4125890999566764,None,50,0,49,283.7482399000437,,,,,,,,,,,,,,,,,,,,,,,,,,,,,,,,,,,,,,,,,,,,,,,,,,283.7319911000086,283.7482399000437,284.2490008000168,284.23168900003657,284.2420423000003,284.2490008000168,284.2490008000168,284.2490008000168,285.6654876000248,Scenes\045a.jpg,pre,o,1.4125890999566764,None,,,,,,,,00049,001,2026-01-18_12h55.08.788,MST_test,2024.2.0,59.99905201474454,2026-01-18 12h55.17.600458 +0530,
50,0,51,n,1.1680901999934576,None,51,0,50,285.68140270002186,,,,,,,,,,,,,,,,,,,,,,,,,,,,,,,,,,,,,,,,,,,,,,,,,,285.6655869000242,285.68140270002186,286.18215900001815,286.16507350001484,286.1781139000086,286.18215900001815,286.18215900001815,286.18215900001815,287.3654872000334,Scenes\179b.jpg,mid,n,1.1680901999934576,None,,,,,,,,00049,001,2026-01-18_12h55.08.788,MST_test,2024.2.0,59.99905201474454,2026-01-18 12h55.17.600458 +0530,
51,0,52,n,3.3722696999902837,None,52,0,51,287.3813298000023,,,,,,,,,,,,,,,,,,,,,,,,,,,,,,,,,,,,,,,,,,,,,,,,,,287.36558070004685,287.3813298000023,287.881869200035,287.86509170004865,287.8742843000218,287.881869200035,287.881869200035,287.881869200035,291.2654891000129,Foils\scenes5.jpg,none,n,3.3722696999902837,None,,,,,,,,00049,001,2026-01-18_12h55.08.788,MST_test,2024.2.0,59.99905201474454,2026-01-18 12h55.17.600458 +0530,
52,0,53,n,1.1126757999882102,None,53,0,52,291.2815021999995,,,,,,,,,,,,,,,,,,,,,,,,,,,,,,,,,,,,,,,,,,,,,,,,,,291.26558040000964,291.2815021999995,291.78175960003864,291.7651756000123,291.77531600004295,291.78175960003864,291.78175960003864,291.78175960003864,292.89892900001723,Foils\073a.jpg,none,n,1.1126757999882102,None,,,,,,,,00049,001,2026-01-18_12h55.08.788,MST_test,2024.2.0,59.99905201474454,2026-01-18 12h55.17.600458 +0530,
53,0,54,n,2.583272500021849,None,54,0,53,292.9148912000237,,,,,,,,,,,,,,,,,,,,,,,,,,,,,,,,,,,,,,,,,,,,,,,,,,292.8990238000406,292.9148912000237,293.41547420003917,293.39850900002057,293.41304870002205,293.41547420003917,293.41547420003917,293.41547420003917,296.01577360002557,Scenes\027b.jpg,pre,n,2.583272500021849,None,,,,,,,,00049,001,2026-01-18_12h55.08.788,MST_test,2024.2.0,59.99905201474454,2026-01-18 12h55.17.600458 +0530,
54,0,55,n,1.1061189000029117,None,55,0,54,296.0317100000102,,,,,,,,,,,,,,,,,,,,,,,,,,,,,,,,,,,,,,,,,,,,,,,,,,296.0158799000201,296.0317100000102,296.5320567000308,296.51523940003244,296.52680630004033,296.5320567000308,296.5320567000308,296.5320567000308,297.6488196999999,Foils\090a.jpg,none,n,1.1061189000029117,None,,,,,,,,00049,001,2026-01-18_12h55.08.788,MST_test,2024.2.0,59.99905201474454,2026-01-18 12h55.17.600458 +0530,
55,0,56,s,1.2722629000199959,None,56,0,55,297.66500590002397,,,,,,,,,,,,,,,,,,,,,,,,,,,,,,,,,,,,,,,,,,,,,,,,,,297.64891810005065,297.66500590002397,298.16530040005455,298.14858800004004,298.15104530000826,298.16530040005455,298.16530040005455,298.16530040005455,299.4492319000419,Objects\183a.jpg,pre,s,1.2722629000199959,None,,,,,,,,00049,001,2026-01-18_12h55.08.788,MST_test,2024.2.0,59.99905201474454,2026-01-18 12h55.17.600458 +0530,
56,0,57,n,2.1449235000181943,None,57,0,56,299.4650419000536,,,,,,,,,,,,,,,,,,,,,,,,,,,,,,,,,,,,,,,,,,,,,,,,,,299.44932760001393,299.4650419000536,299.9651980000199,299.948830600013,299.9590252000489,299.9651980000199,299.9651980000199,299.9651980000199,302.1155074000126,Foils\121a.jpg,none,n,2.1449235000181943,None,,,,,,,,00049,001,2026-01-18_12h55.08.788,MST_test,2024.2.0,59.99905201474454,2026-01-18 12h55.17.600458 +0530,
57,0,58,n,11.853712500014808,None,58,0,57,302.1316741000046,,,,,,,,,,,,,,,,,,,,,,,,,,,,,,,,,,,,,,,,,,,,,,,,,,302.11560580000514,302.1316741000046,302.6323315000045,302.6152970000403,302.62684930005344,302.6323315000045,302.6323315000045,302.6323315000045,314.5001824000501,Scenes\112b.jpg,mid,n,11.853712500014808,None,,,,,,,,00049,001,2026-01-18_12h55.08.788,MST_test,2024.2.0,59.99905201474454,2026-01-18 12h55.17.600458 +0530,
58,0,59,n,5.230665000039153,None,59,0,58,314.51503530004993,,,,,,,,,,,,,,,,,,,,,,,,,,,,,,,,,,,,,,,,,,,,,,,,,,314.50028650002787,314.51503530004993,315.0155751000275,314.99857820000034,315.0118303000345,315.0155751000275,315.0155751000275,315.0155751000275,320.2489578000386,Scenes\163b.jpg,mid,n,5.230665000039153,None,,,,,,,,00049,001,2026-01-18_12h55.08.788,MST_test,2024.2.0,59.99905201474454,2026-01-18 12h55.17.600458 +0530,
59,0,60,s,1.5205133999697864,None,60,0,59,320.26502650004113,,,,,,,,,,,,,,,,,,,,,,,,,,,,,,,,,,,,,,,,,,,,,,,,,,320.2490554000251,320.26502650004113,320.76549810002325,320.7485938000027,320.7517909000162,320.76549810002325,320.76549810002325,320.76549810002325,322.29883760004304,Objects\108a.jpg,post,s,1.5205133999697864,None,,,,,,,,00049,001,2026-01-18_12h55.08.788,MST_test,2024.2.0,59.99905201474454,2026-01-18 12h55.17.600458 +0530,
60,0,61,s,1.8467181999585591,None,61,0,60,322.31520230002934,,,,,,,,,,,,,,,,,,,,,,,,,,,,,,,,,,,,,,,,,,,,,,,,,,322.2989384000539,322.31520230002934,322.8151915000053,322.79852060001576,322.8083060000208,322.8151915000053,322.8151915000053,322.8151915000053,324.66569960000925,Objects\038b.jpg,pre,s,1.8467181999585591,None,,,,,,,,00049,001,2026-01-18_12h55.08.788,MST_test,2024.2.0,59.99905201474454,2026-01-18 12h55.17.600458 +0530,
61,0,62,s,0.7682695999974385,None,62,0,61,324.68172050005523,,,,,,,,,,,,,,,,,,,,,,,,,,,,,,,,,,,,,,,,,,,,,,,,,,324.6657899999991,324.68172050005523,325.1818248000345,325.1653768000542,325.16784860001644,325.1818248000345,325.1818248000345,325.1818248000345,325.9656275000307,Objects\028a.jpg,post,s,0.7682695999974385,None,,,,,,,,00049,001,2026-01-18_12h55.08.788,MST_test,2024.2.0,59.99905201474454,2026-01-18 12h55.17.600458 +0530,
62,0,63,n,3.9236981999711134,None,63,0,62,325.98164300003555,,,,,,,,,,,,,,,,,,,,,,,,,,,,,,,,,,,,,,,,,,,,,,,,,,325.9657196000335,325.98164300003555,326.4819417000399,326.4654908000375,326.46798850002233,326.4819417000399,326.4819417000399,326.4819417000399,330.41571020003175,Objects\077a.jpg,post,n,3.9236981999711134,None,,,,,,,,00049,001,2026-01-18_12h55.08.788,MST_test,2024.2.0,59.99905201474454,2026-01-18 12h55.17.600458 +0530,
63,0,64,s,1.2908958999905735,None,64,0,63,330.43144800001755,,,,,,,,,,,,,,,,,,,,,,,,,,,,,,,,,,,,,,,,,,,,,,,,,,330.4158048000536,330.43144800001755,330.93192330002785,330.9152684000437,330.9248051000177,330.93192330002785,330.93192330002785,330.93192330002785,332.23220420000143,Foils\scenes1.jpg,none,s,1.2908958999905735,None,,,,,,,,00049,001,2026-01-18_12h55.08.788,MST_test,2024.2.0,59.99905201474454,2026-01-18 12h55.17.600458 +0530,
64,0,65,n,4.5135869000223465,None,65,0,64,332.24836940004025,,,,,,,,,,,,,,,,,,,,,,,,,,,,,,,,,,,,,,,,,,,,,,,,,,332.2322975000134,332.24836940004025,332.74891270004446,332.7320393000264,332.7424093000009,332.74891270004446,332.74891270004446,332.74891270004446,337.2655704000499,Foils\049a.jpg,none,n,4.5135869000223465,None,,,,,,,,00049,001,2026-01-18_12h55.08.788,MST_test,2024.2.0,59.99905201474454,2026-01-18 12h55.17.600458 +0530,
65,0,66,s,1.4715692999889143,None,66,0,65,337.28148480004165,,,,,,,,,,,,,,,,,,,,,,,,,,,,,,,,,,,,,,,,,,,,,,,,,,337.2656744000269,337.28148480004165,337.7818828000454,337.76520080002956,337.77491570002167,337.7818828000454,337.7818828000454,337.7818828000454,339.26556870003697,Objects\103b.jpg,post,s,1.4715692999889143,None,,,,,,,,00049,001,2026-01-18_12h55.08.788,MST_test,2024.2.0,59.99905201474454,2026-01-18 12h55.17.600458 +0530,
66,0,67,n,1.2621959000243805,None,67,0,66,339.28163250000216,,,,,,,,,,,,,,,,,,,,,,,,,,,,,,,,,,,,,,,,,,,,,,,,,,339.26565800001845,339.28163250000216,339.7839954000083,339.76527170004556,339.7818735000328,339.7839954000083,339.7839954000083,339.7839954000083,341.0489135000389,Scenes\159b.jpg,pre,n,1.2621959000243805,None,,,,,,,,00049,001,2026-01-18_12h55.08.788,MST_test,2024.2.0,59.99905201474454,2026-01-18 12h55.17.600458 +0530,
67,0,68,o,1.3407983000506647,None,68,0,67,341.06507730000885,,,,,,,,,,,,,,,,,,,,,,,,,,,,,,,,,,,,,,,,,,,,,,,,,,341.04900710005313,341.06507730000885,341.568679900025,341.5486874000053,341.5667538000271,341.568679900025,341.568679900025,341.568679900025,342.91552239999874,Scenes\035b.jpg,post,o,1.3407983000506647,None,,,,,,,,00049,001,2026-01-18_12h55.08.788,MST_test,2024.2.0,59.99905201474454,2026-01-18 12h55.17.600458 +0530,
68,0,69,n,1.3991512000211515,None,69,0,68,342.9315170000191,,,,,,,,,,,,,,,,,,,,,,,,,,,,,,,,,,,,,,,,,,,,,,,,,,342.91561320004985,342.9315170000191,343.43191340001067,343.4152816000278,343.42574780003633,343.43191340001067,343.43191340001067,343.43191340001067,344.8324141000048,Foils\058a.jpg,none,n,1.3991512000211515,None,,,,,,,,00049,001,2026-01-18_12h55.08.788,MST_test,2024.2.0,59.99905201474454,2026-01-18 12h55.17.600458 +0530,
69,0,70,n,1.8336861000279896,None,70,0,69,344.8483789000311,,,,,,,,,,,,,,,,,,,,,,,,,,,,,,,,,,,,,,,,,,,,,,,,,,344.8325143000111,344.8483789000311,345.3485616000253,345.3319330000086,345.3346076000016,345.3485616000253,345.3485616000253,345.3485616000253,347.1988423000439,Objects\099a.jpg,mid,n,1.8336861000279896,None,,,,,,,,00049,001,2026-01-18_12h55.08.788,MST_test,2024.2.0,59.99905201474454,2026-01-18 12h55.17.600458 +0530,
70,0,71,n,3.571032700012438,None,71,0,70,347.21495590003906,,,,,,,,,,,,,,,,,,,,,,,,,,,,,,,,,,,,,,,,,,,,,,,,,,347.19894000003114,347.21495590003906,347.7155695000547,347.69867970002815,347.70686860004207,347.7155695000547,347.7155695000547,347.7155695000547,351.2989451000467,Scenes\131a.jpg,mid,n,3.571032700012438,None,,,,,,,,00049,001,2026-01-18_12h55.08.788,MST_test,2024.2.0,59.99905201474454,2026-01-18 12h55.17.600458 +0530,
71,0,72,o,1.486242900020443,None,72,0,71,351.3148960000253,,,,,,,,,,,,,,,,,,,,,,,,,,,,,,,,,,,,,,,,,,,,,,,,,,351.2990481000161,351.3148960000253,351.81558100000257,351.79925850004656,351.807818100031,351.81558100000257,351.81558100000257,351.81558100000257,353.31552460003877,Scenes\074a.jpg,post,o,1.486242900020443,None,,,,,,,,00049,001,2026-01-18_12h55.08.788,MST_test,2024.2.0,59.99905201474454,2026-01-18 12h55.17.600458 +0530,
72,0,73,s,2.903235699981451,None,73,0,72,353.3314590000082,,,,,,,,,,,,,,,,,,,,,,,,,,,,,,,,,,,,,,,,,,,,,,,,,,353.31561780004995,353.3314590000082,353.8319911000435,353.8153026000364,353.8296323000104,353.8319911000435,353.8319911000435,353.8319911000435,356.74917740002275,Scenes\177b.jpg,post,s,2.903235699981451,None,,,,,,,,00049,001,2026-01-18_12h55.08.788,MST_test,2024.2.0,59.99905201474454,2026-01-18 12h55.17.600458 +0530,
73,0,74,n,1.0922068999498151,None,74,0,73,356.7653045000043,,,,,,,,,,,,,,,,,,,,,,,,,,,,,,,,,,,,,,,,,,,,,,,,,,356.7492805000511,356.7653045000043,357.2653882000013,357.24851970002055,357.2598197000334,357.2653882000013,357.2653882000013,357.2653882000013,358.3653790000244,Foils\042a.jpg,none,n,1.0922068999498151,None,,,,,,,,00049,001,2026-01-18_12h55.08.788,MST_test,2024.2.0,59.99905201474454,2026-01-18 12h55.17.600458 +0530,
74,0,75,o,1.0519019999774173,None,75,0,74,358.3814209999982,,,,,,,,,,,,,,,,,,,,,,,,,,,,,,,,,,,,,,,,,,,,,,,,,,358.3654719000333,358.3814209999982,358.88164450001204,358.86508630000753,358.867489700031,358.88164450001204,358.88164450001204,358.88164450001204,359.9489419000456,Objects\175a.jpg,pre,o,1.0519019999774173,None,,,,,,,,00049,001,2026-01-18_12h55.08.788,MST_test,2024.2.0,59.99905201474454,2026-01-18 12h55.17.600458 +0530,
75,0,76,s,1.453077599988319,None,76,0,75,359.96493190003093,,,,,,,,,,,,,,,,,,,,,,,,,,,,,,,,,,,,,,,,,,,,,,,,,,359.9490353000001,359.96493190003093,360.4650909000193,360.44851210003253,360.4585122000426,360.4650909000193,360.4650909000193,360.4650909000193,361.9322267000098,Objects\176b.jpg,mid,s,1.453077599988319,None,,,,,,,,00049,001,2026-01-18_12h55.08.788,MST_test,2024.2.0,59.99905201474454,2026-01-18 12h55.17.600458 +0530,
76,0,77,s,1.6056870000320487,None,77,0,76,361.9482674000319,,,,,,,,,,,,,,,,,,,,,,,,,,,,,,,,,,,,,,,,,,,,,,,,,,361.9323216000339,361.9482674000319,362.4487596000545,362.43171090004034,362.444296200003,362.4487596000545,362.4487596000545,362.4487596000545,364.06554770004004,Scenes\014b.jpg,post,s,1.6056870000320487,None,,,,,,,,00049,001,2026-01-18_12h55.08.788,MST_test,2024.2.0,59.99905201474454,2026-01-18 12h55.17.600458 +0530,
77,0,78,o,1.8964197000022978,None,78,0,77,364.0814499000553,,,,,,,,,,,,,,,,,,,,,,,,,,,,,,,,,,,,,,,,,,,,,,,,,,364.06564370001433,364.0814499000553,364.58181480003987,364.5654226000188,364.56867490004515,364.58181480003987,364.58181480003987,364.58181480003987,366.4822583000059,Objects\167a.jpg,post,o,1.8964197000022978,None,,,,,,,,00049,001,2026-01-18_12h55.08.788,MST_test,2024.2.0,59.99905201474454,2026-01-18 12h55.17.600458 +0530,
78,0,79,n,5.511801699991338,None,79,0,78,366.498273300007,,,,,,,,,,,,,,,,,,,,,,,,,,,,,,,,,,,,,,,,,,,,,,,,,,366.4823536000331,366.498273300007,366.9986160999979,366.9817968000425,366.9909679000266,366.9986160999979,366.9986160999979,366.9986160999979,372.5155738000176,Foils\scenes6.jpg,none,n,5.511801699991338,None,,,,,,,,00049,001,2026-01-18_12h55.08.788,MST_test,2024.2.0,59.99905201474454,2026-01-18 12h55.17.600458 +0530,
79,0,80,s,4.3654262000345625,None,80,0,79,372.531450200011,,,,,,,,,,,,,,,,,,,,,,,,,,,,,,,,,,,,,,,,,,,,,,,,,,372.51566600002116,372.531450200011,373.0322257000371,373.0151404000353,373.0283608000027,373.0322257000371,373.0322257000371,373.0322257000371,377.39890130003914,Scenes\044b.jpg,mid,s,4.3654262000345625,None,,,,,,,,00049,001,2026-01-18_12h55.08.788,MST_test,2024.2.0,59.99905201474454,2026-01-18 12h55.17.600458 +0530,
80,0,81,s,6.870438200014178,None,81,0,80,377.4148682000232,,,,,,,,,,,,,,,,,,,,,,,,,,,,,,,,,,,,,,,,,,,,,,,,,,377.39899240003433,377.4148682000232,377.91950260003796,377.89851760002784,377.9172842000262,377.91950260003796,377.91950260003796,377.91950260003796,384.7988245000015,Scenes\114b.jpg,mid,s,6.870438200014178,None,,,,,,,,00049,001,2026-01-18_12h55.08.788,MST_test,2024.2.0,59.99905201474454,2026-01-18 12h55.17.600458 +0530,
81,0,82,o,2.098949300008826,None,82,0,81,384.81493839999894,,,,,,,,,,,,,,,,,,,,,,,,,,,,,,,,,,,,,,,,,,,,,,,,,,384.7989249000093,384.81493839999894,385.31534850003663,385.2985254000523,385.30796750000445,385.31534850003663,385.31534850003663,385.31534850003663,387.41553009999916,Objects\056b.jpg,pre,o,2.098949300008826,None,,,,,,,,00049,001,2026-01-18_12h55.08.788,MST_test,2024.2.0,59.99905201474454,2026-01-18 12h55.17.600458 +0530,
82,0,83,n,3.098513999953866,None,83,0,82,387.43145390000427,,,,,,,,,,,,,,,,,,,,,,,,,,,,,,,,,,,,,,,,,,,,,,,,,,387.41562020004494,387.43145390000427,387.9318777000299,387.91530630004127,387.9243573000422,387.9318777000299,387.9318777000299,387.9318777000299,391.0323071000166,Foils\scenes19.jpg,none,n,3.098513999953866,None,,,,,,,,00049,001,2026-01-18_12h55.08.788,MST_test,2024.2.0,59.99905201474454,2026-01-18 12h55.17.600458 +0530,
83,0,84,s,5.331399200018495,None,84,0,83,391.04827770002885,,,,,,,,,,,,,,,,,,,,,,,,,,,,,,,,,,,,,,,,,,,,,,,,,,391.0324001000263,391.04827770002885,391.5550666000345,391.531720900035,391.55302020005183,391.5550666000345,391.5550666000345,391.5550666000345,396.8988372000167,Scenes\065b.jpg,post,s,5.331399200018495,None,,,,,,,,00049,001,2026-01-18_12h55.08.788,MST_test,2024.2.0,59.99905201474454,2026-01-18 12h55.17.600458 +0530,
84,0,85,s,2.366638800012879,None,85,0,84,396.9149344000034,,,,,,,,,,,,,,,,,,,,,,,,,,,,,,,,,,,,,,,,,,,,,,,,,,396.8989275000058,396.9149344000034,397.415410400019,397.39844200003427,397.4016988000367,397.415410400019,397.415410400019,397.415410400019,399.79883939999854,Objects\002a.jpg,mid,s,2.366638800012879,None,,,,,,,,00049,001,2026-01-18_12h55.08.788,MST_test,2024.2.0,59.99905201474454,2026-01-18 12h55.17.600458 +0530,
85,0,86,o,1.06687179999426,None,86,0,85,399.8149271000293,,,,,,,,,,,,,,,,,,,,,,,,,,,,,,,,,,,,,,,,,,,,,,,,,,399.79892840003595,399.8149271000293,400.31520360003924,400.2985800000024,400.30136380001204,400.31520360003924,400.31520360003924,400.31520360003924,401.39875510003185,Objects\003a.jpg,mid,o,1.06687179999426,None,,,,,,,,00049,001,2026-01-18_12h55.08.788,MST_test,2024.2.0,59.99905201474454,2026-01-18 12h55.17.600458 +0530,
86,0,87,n,2.442448300018441,None,87,0,86,401.41487350000534,,,,,,,,,,,,,,,,,,,,,,,,,,,,,,,,,,,,,,,,,,,,,,,,,,401.39884410001105,401.41487350000534,401.9151665000245,401.8984553000191,401.9008131000446,401.9151665000245,401.9151665000245,401.9151665000245,404.36553440004354,Objects\165a.jpg,post,n,2.442448300018441,None,,,,,,,,00049,001,2026-01-18_12h55.08.788,MST_test,2024.2.0,59.99905201474454,2026-01-18 12h55.17.600458 +0530,
87,0,88,o,0.9557416000170633,None,88,0,87,404.38143700000364,,,,,,,,,,,,,,,,,,,,,,,,,,,,,,,,,,,,,,,,,,,,,,,,,,404.3656277000555,404.38143700000364,404.8818320000428,404.86523450003006,404.87517240003217,404.8818320000428,404.8818320000428,404.8818320000428,405.8488045000122,Objects\135b.jpg,pre,o,0.9557416000170633,None,,,,,,,,00049,001,2026-01-18_12h55.08.788,MST_test,2024.2.0,59.99905201474454,2026-01-18 12h55.17.600458 +0530,
88,0,89,s,2.4965121000423096,None,89,0,88,405.86492840002757,,,,,,,,,,,,,,,,,,,,,,,,,,,,,,,,,,,,,,,,,,,,,,,,,,405.8488951000036,405.86492840002757,406.36513460002607,406.3484456000151,406.35781950003,406.36513460002607,406.36513460002607,406.36513460002607,408.86546970001655,Foils\050a.jpg,none,s,2.4965121000423096,None,,,,,,,,00049,001,2026-01-18_12h55.08.788,MST_test,2024.2.0,59.99905201474454,2026-01-18 12h55.17.600458 +0530,
89,0,90,s,8.139693800010718,None,90,0,89,408.88143280002987,,,,,,,,,,,,,,,,,,,,,,,,,,,,,,,,,,,,,,,,,,,,,,,,,,408.86557030002587,408.88143280002987,409.3867853000411,409.36533620004775,409.3846388000529,409.3867853000411,409.3867853000411,409.3867853000411,417.5322078000172,Scenes\134b.jpg,post,s,8.139693800010718,None,,,,,,,,00049,001,2026-01-18_12h55.08.788,MST_test,2024.2.0,59.99905201474454,2026-01-18 12h55.17.600458 +0530,
90,0,91,s,2.1471807999769226,None,91,0,90,417.5483826000127,,,,,,,,,,,,,,,,,,,,,,,,,,,,,,,,,,,,,,,,,,,,,,,,,,417.5323071000166,417.5483826000127,418.0514814000344,418.03177660005167,418.04930980002973,418.0514814000344,418.0514814000344,418.0514814000344,420.19916380004724,Scenes\028b.jpg,post,s,2.1471807999769226,None,,,,,,,,00049,001,2026-01-18_12h55.08.788,MST_test,2024.2.0,59.99905201474454,2026-01-18 12h55.17.600458 +0530,
91,0,92,o,0.8905225999769755,None,92,0,91,420.2149630000349,,,,,,,,,,,,,,,,,,,,,,,,,,,,,,,,,,,,,,,,,,,,,,,,,,420.1992553000455,420.2149630000349,420.7154908000375,420.6985549000092,420.7024207000504,420.7154908000375,420.7154908000375,420.7154908000375,421.6156050999998,Objects\024a.jpg,mid,o,0.8905225999769755,None,,,,,,,,00049,001,2026-01-18_12h55.08.788,MST_test,2024.2.0,59.99905201474454,2026-01-18 12h55.17.600458 +0530,
92,0,93,o,1.8337195999920368,None,93,0,92,421.63171250000596,,,,,,,,,,,,,,,,,,,,,,,,,,,,,,,,,,,,,,,,,,,,,,,,,,421.6156941000372,421.63171250000596,422.13193610002054,422.11530830000993,422.12461440003244,422.13193610002054,422.13193610002054,422.13193610002054,423.98221550002927,Objects\149b.jpg,post,o,1.8337195999920368,None,,,,,,,,00049,001,2026-01-18_12h55.08.788,MST_test,2024.2.0,59.99905201474454,2026-01-18 12h55.17.600458 +0530,
93,0,94,n,2.710972600034438,None,94,0,93,423.99839190003695,,,,,,,,,,,,,,,,,,,,,,,,,,,,,,,,,,,,,,,,,,,,,,,,,,423.98230610002065,423.99839190003695,424.5025583000388,424.4821182000451,424.5004608000163,424.5025583000388,424.5025583000388,424.5025583000388,427.2158800000325,Scenes\076b.jpg,post,n,2.710972600034438,None,,,,,,,,00049,001,2026-01-18_12h55.08.788,MST_test,2024.2.0,59.99905201474454,2026-01-18 12h55.17.600458 +0530,
94,0,95,o,2.113320600008592,None,95,0,94,427.2315970000345,,,,,,,,,,,,,,,,,,,,,,,,,,,,,,,,,,,,,,,,,,,,,,,,,,427.21597190003376,427.2315970000345,427.73218760004966,427.715355500055,427.7254101000144,427.73218760004966,427.73218760004966,427.73218760004966,429.8489972000243,Objects\128b.jpg,post,o,2.113320600008592,None,,,,,,,,00049,001,2026-01-18_12h55.08.788,MST_test,2024.2.0,59.99905201474454,2026-01-18 12h55.17.600458 +0530,
95,0,96,o,0.8644171999767423,None,96,0,95,429.8649840000435,,,,,,,,,,,,,,,,,,,,,,,,,,,,,,,,,,,,,,,,,,,,,,,,,,429.84908640000504,429.8649840000435,430.3652372000506,430.3487080000341,430.35874100000365,430.3652372000506,430.3652372000506,430.3652372000506,431.2322650999995,Objects\154b.jpg,mid,o,0.8644171999767423,None,,,,,,,,00049,001,2026-01-18_12h55.08.788,MST_test,2024.2.0,59.99905201474454,2026-01-18 12h55.17.600458 +0530,
96,0,97,s,1.937089399958495,None,97,0,96,431.2484124000184,,,,,,,,,,,,,,,,,,,,,,,,,,,,,,,,,,,,,,,,,,,,,,,,,,431.23235530004604,431.2484124000184,431.7485203000251,431.7318338000332,431.74162800004706,431.7485203000251,431.7485203000251,431.7485203000251,433.69908460002625,Foils\034a.jpg,none,s,1.937089399958495,None,,,,,,,,00049,001,2026-01-18_12h55.08.788,MST_test,2024.2.0,59.99905201474454,2026-01-18 12h55.17.600458 +0530,
97,0,98,o,1.0227415999979712,None,98,0,97,433.715017700044,,,,,,,,,,,,,,,,,,,,,,,,,,,,,,,,,,,,,,,,,,,,,,,,,,433.6991769000306,433.715017700044,434.21519960003207,434.1985380999977,434.2078589000157,434.21519960003207,434.21519960003207,434.21519960003207,435.24891560000833,Objects\016b.jpg,pre,o,1.0227415999979712,None,,,,,,,,00049,001,2026-01-18_12h55.08.788,MST_test,2024.2.0,59.99905201474454,2026-01-18 12h55.17.600458 +0530,
98,0,99,n,1.2000120000448078,None,99,0,98,435.26491880003596,,,,,,,,,,,,,,,,,,,,,,,,,,,,,,,,,,,,,,,,,,,,,,,,,,435.2490174000268,435.26491880003596,435.7654405000503,435.74855980003485,435.75780690001557,435.7654405000503,435.7654405000503,435.7654405000503,436.96603220002726,Foils\scenes29.jpg,none,n,1.2000120000448078,None,,,,,,,,00049,001,2026-01-18_12h55.08.788,MST_test,2024.2.0,59.99905201474454,2026-01-18 12h55.17.600458 +0530,
99,0,100,n,2.186118199955672,None,100,0,99,436.981619600032,,,,,,,,,,,,,,,,,,,,,,,,,,,,,,,,,,,,,,,,,,,,,,,,,,436.96612230001483,436.981619600032,437.4841743000434,437.4654536000453,437.4817352000391,437.4841743000434,437.4841743000434,437.4841743000434,439.68235070002265,Foils\scenes27.jpg,none,n,2.186118199955672,None,,,,,,,,00049,001,2026-01-18_12h55.08.788,MST_test,2024.2.0,59.99905201474454,2026-01-18 12h55.17.600458 +0530,
100,0,101,s,1.878656700020656,None,101,0,100,439.69833270000527,,,,,,,,,,,,,,,,,,,,,,,,,,,,,,,,,,,,,,,,,,,,,,,,,,439.68244800000684,439.69833270000527,440.1988764000125,440.1819651000551,440.19232900004135,440.1988764000125,440.1988764000125,440.1988764000125,442.08219520002604,Objects\083b.jpg,mid,s,1.878656700020656,None,,,,,,,,00049,001,2026-01-18_12h55.08.788,MST_test,2024.2.0,59.99905201474454,2026-01-18 12h55.17.600458 +0530,
101,0,102,n,4.007443600043189,None,102,0,101,442.09838680003304,,,,,,,,,,,,,,,,,,,,,,,,,,,,,,,,,,,,,,,,,,,,,,,,,,442.0822845000075,442.09838680003304,442.59887630003504,442.5818514000275,442.5880374000408,442.59887630003504,442.59887630003504,442.59887630003504,446.6155324000283,Scenes\069a.jpg,mid,n,4.007443600043189,None,,,,,,,,00049,001,2026-01-18_12h55.08.788,MST_test,2024.2.0,59.99905201474454,2026-01-18 12h55.17.600458 +0530,
102,0,103,o,2.801439200004097,None,103,0,102,446.63170480000554,,,,,,,,,,,,,,,,,,,,,,,,,,,,,,,,,,,,,,,,,,,,,,,,,,446.61562730005244,446.63170480000554,447.13209960004315,447.11519470001804,447.1246658000164,447.13209960004315,447.13209960004315,447.13209960004315,449.948880400043,Scenes\017a.jpg,mid,o,2.801439200004097,None,,,,,,,,00049,001,2026-01-18_12h55.08.788,MST_test,2024.2.0,59.99905201474454,2026-01-18 12h55.17.600458 +0530,
103,0,104,o,1.6229640999808908,None,104,0,103,449.9649433000013,,,,,,,,,,,,,,,,,,,,,,,,,,,,,,,,,,,,,,,,,,,,,,,,,,449.94897100003436,449.9649433000013,450.47136980004143,450.4485411000205,450.46914380003,450.47136980004143,450.47136980004143,450.47136980004143,452.09889420005493,Scenes\032b.jpg,mid,o,1.6229640999808908,None,,,,,,,,00049,001,2026-01-18_12h55.08.788,MST_test,2024.2.0,59.99905201474454,2026-01-18 12h55.17.600458 +0530,
104,0,105,o,1.7873443000135012,None,105,0,104,452.11495330004254,,,,,,,,,,,,,,,,,,,,,,,,,,,,,,,,,,,,,,,,,,,,,,,,,,452.0989910000353,452.11495330004254,452.6187836000463,452.59853220003424,452.6167555000284,452.6187836000463,452.6187836000463,452.6187836000463,454.4155709000188,Scenes\020b.jpg,post,o,1.7873443000135012,None,,,,,,,,00049,001,2026-01-18_12h55.08.788,MST_test,2024.2.0,59.99905201474454,2026-01-18 12h55.17.600458 +0530,
105,0,106,s,2.386291100003291,None,106,0,105,454.43150310002966,,,,,,,,,,,,,,,,,,,,,,,,,,,,,,,,,,,,,,,,,,,,,,,,,,454.41566100000637,454.43150310002966,454.93210590002127,454.91520180000225,454.9185154000297,454.93210590002127,454.93210590002127,454.93210590002127,457.33211519999895,Objects\008a.jpg,pre,s,2.386291100003291,None,,,,,,,,00049,001,2026-01-18_12h55.08.788,MST_test,2024.2.0,59.99905201474454,2026-01-18 12h55.17.600458 +0530,
106,0,107,n,2.958252700045705,None,107,0,106,457.34829700004775,,,,,,,,,,,,,,,,,,,,,,,,,,,,,,,,,,,,,,,,,,,,,,,,,,457.33220730000176,457.34829700004775,457.84858650004026,457.83190000004834,457.8417430000263,457.84858650004026,457.84858650004026,457.84858650004026,460.8154448000132,Foils\002a.jpg,none,n,2.958252700045705,None,,,,,,,,00049,001,2026-01-18_12h55.08.788,MST_test,2024.2.0,59.99905201474454,2026-01-18 12h55.17.600458 +0530,
107,0,108,s,4.506359599996358,None,108,0,107,460.8315583000076,,,,,,,,,,,,,,,,,,,,,,,,,,,,,,,,,,,,,,,,,,,,,,,,,,460.81553520000307,460.8315583000076,461.3317552000517,461.31521260004956,461.32477410003776,461.3317552000517,461.3317552000517,461.3317552000517,465.84882040001685,Objects\155b.jpg,post,s,4.506359599996358,None,,,,,,,,00049,001,2026-01-18_12h55.08.788,MST_test,2024.2.0,59.99905201474454,2026-01-18 12h55.17.600458 +0530,
108,0,109,s,5.120043200033251,None,109,0,108,465.8649575000163,,,,,,,,,,,,,,,,,,,,,,,,,,,,,,,,,,,,,,,,,,,,,,,,,,465.84891410003183,465.8649575000163,466.3654995000106,466.348513600009,466.35883280000417,466.3654995000106,466.3654995000106,466.3654995000106,471.49888840003405,Scenes\128a.jpg,mid,s,5.120043200033251,None,,,,,,,,00049,001,2026-01-18_12h55.08.788,MST_test,2024.2.0,59.99905201474454,2026-01-18 12h55.17.600458 +0530,
109,0,110,s,1.3744673000182956,None,110,0,109,471.5149433000479,,,,,,,,,,,,,,,,,,,,,,,,,,,,,,,,,,,,,,,,,,,,,,,,,,471.4989801000338,471.5149433000479,472.01542390004033,471.99863330001244,472.0018243000377,472.01542390004033,472.01542390004033,472.01542390004033,473.39884570002323,Objects\171a.jpg,pre,s,1.3744673000182956,None,,,,,,,,00049,001,2026-01-18_12h55.08.788,MST_test,2024.2.0,59.99905201474454,2026-01-18 12h55.17.600458 +0530,
110,0,111,n,1.6190529000014067,None,111,0,110,473.4149551000446,,,,,,,,,,,,,,,,,,,,,,,,,,,,,,,,,,,,,,,,,,,,,,,,,,473.3989350000047,473.4149551000446,473.91531800001394,473.89853280002717,473.9081400000141,473.91531800001394,473.91531800001394,473.91531800001394,475.54899229999864,Objects\174b.jpg,mid,n,1.6190529000014067,None,,,,,,,,00049,001,2026-01-18_12h55.08.788,MST_test,2024.2.0,59.99905201474454,2026-01-18 12h55.17.600458 +0530,
111,0,112,s,2.2443302999599837,None,112,0,111,475.5650394000113,,,,,,,,,,,,,,,,,,,,,,,,,,,,,,,,,,,,,,,,,,,,,,,,,,475.5490843000007,475.5650394000113,476.0652591000544,476.0485255000531,476.0509554000455,476.0652591000544,476.0652591000544,476.0652591000544,478.3157295000274,Objects\138a.jpg,mid,s,2.2443302999599837,None,,,,,,,,00049,001,2026-01-18_12h55.08.788,MST_test,2024.2.0,59.99905201474454,2026-01-18 12h55.17.600458 +0530,
112,0,113,n,2.2301258000079542,None,113,0,112,478.33158120000735,,,,,,,,,,,,,,,,,,,,,,,,,,,,,,,,,,,,,,,,,,,,,,,,,,478.31582790001994,478.33158120000735,478.8316623000428,478.8154937000363,478.82406550005544,478.8316623000428,478.8316623000428,478.8316623000428,481.0654808000545,Objects\160b.jpg,post,n,2.2301258000079542,None,,,,,,,,00049,001,2026-01-18_12h55.08.788,MST_test,2024.2.0,59.99905201474454,2026-01-18 12h55.17.600458 +0530,
113,0,114,n,10.448211100010667,None,114,0,113,481.081555700046,,,,,,,,,,,,,,,,,,,,,,,,,,,,,,,,,,,,,,,,,,,,,,,,,,481.0655745000113,481.081555700046,481.5816391000408,481.56532829999924,481.5680306000286,481.5816391000408,481.5816391000408,481.5816391000408,492.0322714000358,Objects\180a.jpg,pre,n,10.448211100010667,None,,,,,,,,00049,001,2026-01-18_12h55.08.788,MST_test,2024.2.0,59.99905201474454,2026-01-18 12h55.17.600458 +0530,
114,0,115,s,3.4336718000122346,None,115,0,114,492.0482426000526,,,,,,,,,,,,,,,,,,,,,,,,,,,,,,,,,,,,,,,,,,,,,,,,,,492.0323657000554,492.0482426000526,492.5484417999978,492.5317414000165,492.53444150002906,492.5484417999978,492.5484417999978,492.5484417999978,495.9987887000316,Objects\065a.jpg,post,s,3.4336718000122346,None,,,,,,,,00049,001,2026-01-18_12h55.08.788,MST_test,2024.2.0,59.99905201474454,2026-01-18 12h55.17.600458 +0530,
115,0,116,n,1.0023087000008672,None,116,0,115,496.0149292999995,,,,,,,,,,,,,,,,,,,,,,,,,,,,,,,,,,,,,,,,,,,,,,,,,,495.9988759000553,496.0149292999995,496.5151751000085,496.49865600001067,496.50118560000556,496.5151751000085,496.5151751000085,496.5151751000085,497.5321804000414,Objects\033a.jpg,post,n,1.0023087000008672,None,,,,,,,,00049,001,2026-01-18_12h55.08.788,MST_test,2024.2.0,59.99905201474454,2026-01-18 12h55.17.600458 +0530,
116,0,117,s,1.492850799986627,None,117,0,116,497.54823650000617,,,,,,,,,,,,,,,,,,,,,,,,,,,,,,,,,,,,,,,,,,,,,,,,,,497.53227030002745,497.54823650000617,498.0487244000542,498.03210290003335,498.04179480002495,498.0487244000542,498.0487244000542,498.0487244000542,499.5489402000094,Objects\187b.jpg,pre,s,1.492850799986627,None,,,,,,,,00049,001,2026-01-18_12h55.08.788,MST_test,2024.2.0,59.99905201474454,2026-01-18 12h55.17.600458 +0530,
117,0,118,s,3.9086123000015505,None,118,0,117,499.56489720003447,,,,,,,,,,,,,,,,,,,,,,,,,,,,,,,,,,,,,,,,,,,,,,,,,,499.54903160000686,499.56489720003447,500.0651952000335,500.0485128000146,500.05802930000937,500.0651952000335,500.0651952000335,500.0651952000335,503.9823269000044,Foils\009a.jpg,none,s,3.9086123000015505,None,,,,,,,,00049,001,2026-01-18_12h55.08.788,MST_test,2024.2.0,59.99905201474454,2026-01-18 12h55.17.600458 +0530,
118,0,119,s,4.651036399998702,None,119,0,118,503.99827229999937,,,,,,,,,,,,,,,,,,,,,,,,,,,,,,,,,,,,,,,,,,,,,,,,,,503.9824224000331,503.99827229999937,504.49875020002946,504.48197050002636,504.49459820002085,504.49875020002946,504.49875020002946,504.49875020002946,509.1654588000383,Scenes\140b.jpg,mid,s,4.651036399998702,None,,,,,,,,00049,001,2026-01-18_12h55.08.788,MST_test,2024.2.0,59.99905201474454,2026-01-18 12h55.17.600458 +0530,
119,0,120,n,1.7399336000089534,None,120,0,119,509.1815553000197,,,,,,,,,,,,,,,,,,,,,,,,,,,,,,,,,,,,,,,,,,,,,,,,,,509.1655510000419,509.1815553000197,509.6820509000099,509.6652596000349,509.6752987000509,509.6820509000099,509.6820509000099,509.6820509000099,511.4321452000295,Objects\133b.jpg,mid,n,1.7399336000089534,None,,,,,,,,00049,001,2026-01-18_12h55.08.788,MST_test,2024.2.0,59.99905201474454,2026-01-18 12h55.17.600458 +0530,
120,0,121,s,1.7109353000414558,None,121,0,120,511.44822750001913,,,,,,,,,,,,,,,,,,,,,,,,,,,,,,,,,,,,,,,,,,,,,,,,,,511.4322352000163,511.44822750001913,511.95075050002197,511.9318072000169,511.94866750005167,511.95075050002197,511.95075050002197,511.95075050002197,513.6655676000519,Scenes\143b.jpg,mid,s,1.7109353000414558,None,,,,,,,,00049,001,2026-01-18_12h55.08.788,MST_test,2024.2.0,59.99905201474454,2026-01-18 12h55.17.600458 +0530,
121,0,122,s,2.4555787999997847,None,122,0,121,513.6815116000362,,,,,,,,,,,,,,,,,,,,,,,,,,,,,,,,,,,,,,,,,,,,,,,,,,513.6656963000423,513.6815116000362,514.1820952999988,514.1652319999994,514.1750196000212,514.1820952999988,514.1820952999988,514.1820952999988,516.6489305000287,Objects\117b.jpg,post,s,2.4555787999997847,None,,,,,,,,00049,001,2026-01-18_12h55.08.788,MST_test,2024.2.0,59.99905201474454,2026-01-18 12h55.17.600458 +0530,
122,0,123,n,1.4088191000046209,None,123,0,122,516.6649421000038,,,,,,,,,,,,,,,,,,,,,,,,,,,,,,,,,,,,,,,,,,,,,,,,,,516.6490224000299,516.6649421000038,517.1651129000238,517.1485529000056,517.1513711000443,517.1651129000238,517.1651129000238,517.1651129000238,518.58232830005,Objects\145a.jpg,mid,n,1.4088191000046209,None,,,,,,,,00049,001,2026-01-18_12h55.08.788,MST_test,2024.2.0,59.99905201474454,2026-01-18 12h55.17.600458 +0530,
123,0,124,s,2.961622200033162,None,124,0,123,518.5982284000493,,,,,,,,,,,,,,,,,,,,,,,,,,,,,,,,,,,,,,,,,,,,,,,,,,518.5824235000182,518.5982284000493,519.1001165000489,519.0817063000286,519.0978829000378,519.1001165000489,519.1001165000489,519.1001165000489,522.065816300048,Scenes\161b.jpg,post,s,2.961622200033162,None,,,,,,,,00049,001,2026-01-18_12h55.08.788,MST_test,2024.2.0,59.99905201474454,2026-01-18 12h55.17.600458 +0530,
124,0,125,s,4.100244400033262,None,125,0,124,522.0815907000215,,,,,,,,,,,,,,,,,,,,,,,,,,,,,,,,,,,,,,,,,,,,,,,,,,522.0659184000106,522.0815907000215,522.5943098000134,522.5654881000519,522.5918100000126,522.5943098000134,522.5943098000134,522.5943098000134,526.6987965000444,Foils\scenes23.jpg,none,s,4.100244400033262,None,,,,,,,,00049,001,2026-01-18_12h55.08.788,MST_test,2024.2.0,59.99905201474454,2026-01-18 12h55.17.600458 +0530,
125,0,126,n,1.3026698000030592,None,126,0,125,526.7149084000266,,,,,,,,,,,,,,,,,,,,,,,,,,,,,,,,,,,,,,,,,,,,,,,,,,526.6988862000289,526.7149084000266,527.2151256000507,527.1984987000469,527.2104375000345,527.2151256000507,527.2151256000507,527.2151256000507,528.5320183000294,Foils\074a.jpg,none,n,1.3026698000030592,None,,,,,,,,00049,001,2026-01-18_12h55.08.788,MST_test,2024.2.0,59.99905201474454,2026-01-18 12h55.17.600458 +0530,
126,0,127,o,1.3385777999646962,None,127,0,126,528.5482332000392,,,,,,,,,,,,,,,,,,,,,,,,,,,,,,,,,,,,,,,,,,,,,,,,,,528.5321117000422,528.5482332000392,529.0516064000549,529.0316585000255,529.0492891000467,529.0516064000549,529.0516064000549,529.0516064000549,530.3990056000184,Scenes\084b.jpg,post,o,1.3385777999646962,None,,,,,,,,00049,001,2026-01-18_12h55.08.788,MST_test,2024.2.0,59.99905201474454,2026-01-18 12h55.17.600458 +0530,
127,0,128,s,3.1545973000465892,None,128,0,127,530.4149494000012,,,,,,,,,,,,,,,,,,,,,,,,,,,,,,,,,,,,,,,,,,,,,,,,,,530.399110600003,530.4149494000012,530.9155384000042,530.898464500031,530.9056732000317,530.9155384000042,530.9155384000042,530.9155384000042,534.0820105000166,Scenes\175a.jpg,mid,s,3.1545973000465892,None,,,,,,,,00049,001,2026-01-18_12h55.08.788,MST_test,2024.2.0,59.99905201474454,2026-01-18 12h55.17.600458 +0530,
128,0,129,n,6.404250500025228,None,129,0,128,534.0982842000085,,,,,,,,,,,,,,,,,,,,,,,,,,,,,,,,,,,,,,,,,,,,,,,,,,534.0821033000248,534.0982842000085,534.6023361000116,534.5816584000131,534.6002042000182,534.6023361000116,534.6023361000116,534.6023361000116,541.0157260000124,Scenes\015b.jpg,post,n,6.404250500025228,None,,,,,,,,00049,001,2026-01-18_12h55.08.788,MST_test,2024.2.0,59.99905201474454,2026-01-18 12h55.17.600458 +0530,
129,0,130,n,1.4818058999953791,None,130,0,129,541.031660800043,,,,,,,,,,,,,,,,,,,,,,,,,,,,,,,,,,,,,,,,,,,,,,,,,,541.0158180000144,541.031660800043,541.5321856000228,541.5154634000501,541.526172700047,541.5321856000228,541.5321856000228,541.5321856000228,543.0155319000478,Foils\018a.jpg,none,n,1.4818058999953791,None,,,,,,,,00049,001,2026-01-18_12h55.08.788,MST_test,2024.2.0,59.99905201474454,2026-01-18 12h55.17.600458 +0530,
130,0,131,s,1.4821227000211366,None,131,0,130,543.0317214000388,,,,,,,,,,,,,,,,,,,,,,,,,,,,,,,,,,,,,,,,,,,,,,,,,,543.0156246999977,543.0317214000388,543.5319395000115,543.5153142000199,543.5177813000046,543.5319395000115,543.5319395000115,543.5319395000115,545.0159256000188,Objects\071a.jpg,mid,s,1.4821227000211366,None,,,,,,,,00049,001,2026-01-18_12h55.08.788,MST_test,2024.2.0,59.99905201474454,2026-01-18 12h55.17.600458 +0530,
131,0,132,n,1.3777897999971174,None,132,0,131,545.0317986000446,,,,,,,,,,,,,,,,,,,,,,,,,,,,,,,,,,,,,,,,,,,,,,,,,,545.0160218000528,545.0317986000446,545.5320715000271,545.5153174000443,545.5243638000102,545.5320715000271,545.5320715000271,545.5320715000271,546.9155409000232,Objects\075b.jpg,mid,n,1.3777897999971174,None,,,,,,,,00049,001,2026-01-18_12h55.08.788,MST_test,2024.2.0,59.99905201474454,2026-01-18 12h55.17.600458 +0530,
132,0,133,n,3.2219723000307567,None,133,0,132,546.931741300039,,,,,,,,,,,,,,,,,,,,,,,,,,,,,,,,,,,,,,,,,,,,,,,,,,546.915633400029,546.931741300039,547.4321920000366,547.415585300012,547.4247202000115,547.4321920000366,547.4321920000366,547.4321920000366,550.6658920000191,Objects\134b.jpg,pre,n,3.2219723000307567,None,,,,,,,,00049,001,2026-01-18_12h55.08.788,MST_test,2024.2.0,59.99905201474454,2026-01-18 12h55.17.600458 +0530,
133,0,134,o,1.6077476000064053,None,134,0,133,550.6818564000423,,,,,,,,,,,,,,,,,,,,,,,,,,,,,,,,,,,,,,,,,,,,,,,,,,550.6659913000185,550.6818564000423,551.181956400047,551.1653609000496,551.1677142000408,551.181956400047,551.181956400047,551.181956400047,552.7990216000471,Objects\010a.jpg,post,o,1.6077476000064053,None,,,,,,,,00049,001,2026-01-18_12h55.08.788,MST_test,2024.2.0,59.99905201474454,2026-01-18 12h55.17.600458 +0530,
134,0,135,n,1.8427696999860927,None,135,0,134,552.8151603000006,,,,,,,,,,,,,,,,,,,,,,,,,,,,,,,,,,,,,,,,,,,,,,,,,,552.7991112000309,552.8151603000006,553.315312300052,553.2988456000458,553.301363000006,553.315312300052,553.315312300052,553.315312300052,555.1655954000307,Objects\110a.jpg,post,n,1.8427696999860927,None,,,,,,,,00049,001,2026-01-18_12h55.08.788,MST_test,2024.2.0,59.99905201474454,2026-01-18 12h55.17.600458 +0530,
135,0,136,n,1.2951317999977618,None,136,0,135,555.1817401000299,,,,,,,,,,,,,,,,,,,,,,,,,,,,,,,,,,,,,,,,,,,,,,,,,,555.1656842000084,555.1817401000299,555.7584341000183,555.6653337000171,555.7554486000445,555.7584341000183,555.7584341000183,555.7584341000183,557.0656093000434,Foils\scenes25.jpg,none,n,1.2951317999977618,None,,,,,,,,00049,001,2026-01-18_12h55.08.788,MST_test,2024.2.0,59.99905201474454,2026-01-18 12h55.17.600458 +0530,
136,0,137,s,1.6040269000222906,None,137,0,136,557.0817052000202,,,,,,,,,,,,,,,,,,,,,,,,,,,,,,,,,,,,,,,,,,,,,,,,,,557.0657007000409,557.0817052000202,557.5858238000073,557.5653501000488,557.5825004000217,557.5858238000073,557.5858238000073,557.5858238000073,559.1991139000165,Objects\092b.jpg,mid,s,1.6040269000222906,None,,,,,,,,00049,001,2026-01-18_12h55.08.788,MST_test,2024.2.0,59.99905201474454,2026-01-18 12h55.17.600458 +0530,
137,0,138,n,2.4029457999859005,None,138,0,137,559.2150524000172,,,,,,,,,,,,,,,,,,,,,,,,,,,,,,,,,,,,,,,,,,,,,,,,,,559.1992168000434,559.2150524000172,559.7153959000134,559.6987081000116,559.7081654000212,559.7153959000134,559.7153959000134,559.7153959000134,562.1326898000552,Foils\057a.jpg,none,n,2.4029457999859005,None,,,,,,,,00049,001,2026-01-18_12h55.08.788,MST_test,2024.2.0,59.99905201474454,2026-01-18 12h55.17.600458 +0530,
138,0,139,o,1.3173462999984622,None,139,0,138,562.1485388000146,,,,,,,,,,,,,,,,,,,,,,,,,,,,,,,,,,,,,,,,,,,,,,,,,,562.1327871000394,562.1485388000146,562.6489503000048,562.6319992000354,562.6467279000208,562.6489503000048,562.6489503000048,562.6489503000048,563.9825493000099,Scenes\111b.jpg,pre,o,1.3173462999984622,None,,,,,,,,00049,001,2026-01-18_12h55.08.788,MST_test,2024.2.0,59.99905201474454,2026-01-18 12h55.17.600458 +0530,
139,0,140,n,3.427618099958636,None,140,0,139,563.9983926000423,,,,,,,,,,,,,,,,,,,,,,,,,,,,,,,,,,,,,,,,,,,,,,,,,,563.9826542000519,563.9983926000423,564.4989205000456,564.4818684000056,564.4908577000024,564.4989205000456,564.4989205000456,564.4989205000456,567.9322015000507,Foils\scenes7.jpg,none,n,3.427618099958636,None,,,,,,,,00049,001,2026-01-18_12h55.08.788,MST_test,2024.2.0,59.99905201474454,2026-01-18 12h55.17.600458 +0530,
140,0,141,s,4.1088564999517985,None,141,0,140,567.9484108000179,,,,,,,,,,,,,,,,,,,,,,,,,,,,,,,,,,,,,,,,,,,,,,,,,,567.9322923000436,567.9484108000179,568.4487646000343,568.4320045000059,568.4409164000535,568.4487646000343,568.4487646000343,568.4487646000343,572.5658228000393,Foils\scenes12.jpg,none,s,4.1088564999517985,None,,,,,,,,00049,001,2026-01-18_12h55.08.788,MST_test,2024.2.0,59.99905201474454,2026-01-18 12h55.17.600458 +0530,
141,0,142,s,1.2760749000008218,None,142,0,141,572.5816876000026,,,,,,,,,,,,,,,,,,,,,,,,,,,,,,,,,,,,,,,,,,,,,,,,,,572.5659159000497,572.5816876000026,573.0820756000467,573.0653362000012,573.0686465000035,573.0820756000467,573.0820756000467,573.0820756000467,574.3656287000049,Objects\049a.jpg,mid,s,1.2760749000008218,None,,,,,,,,00049,001,2026-01-18_12h55.08.788,MST_test,2024.2.0,59.99905201474454,2026-01-18 12h55.17.600458 +0530,
142,0,143,o,1.1477053000126034,None,143,0,142,574.3817410000484,,,,,,,,,,,,,,,,,,,,,,,,,,,,,,,,,,,,,,,,,,,,,,,,,,574.3657198000001,574.3817410000484,574.8822860000073,574.8653595000505,574.8747668000287,574.8822860000073,574.8822860000073,574.8822860000073,576.0325764000299,Scenes\142a.jpg,pre,o,1.1477053000126034,None,,,,,,,,00049,001,2026-01-18_12h55.08.788,MST_test,2024.2.0,59.99905201474454,2026-01-18 12h55.17.600458 +0530,
143,0,144,o,1.2185569999855943,None,144,0,143,576.048448000045,,,,,,,,,,,,,,,,,,,,,,,,,,,,,,,,,,,,,,,,,,,,,,,,,,576.0326852000435,576.048448000045,576.5486609000363,576.5320564000285,576.5409931000322,576.5486609000363,576.5486609000363,576.5486609000363,577.7822899000021,Scenes\040a.jpg,mid,o,1.2185569999855943,None,,,,,,,,00049,001,2026-01-18_12h55.08.788,MST_test,2024.2.0,59.99905201474454,2026-01-18 12h55.17.600458 +0530,
144,0,145,s,2.563016499974765,None,145,0,144,577.7983363000094,,,,,,,,,,,,,,,,,,,,,,,,,,,,,,,,,,,,,,,,,,,,,,,,,,577.7823811999988,577.7983363000094,578.29887280002,578.2819897000445,578.2850457000313,578.29887280002,578.29887280002,578.29887280002,580.8656622000271,Objects\123a.jpg,pre,s,2.563016499974765,None,,,,,,,,00049,001,2026-01-18_12h55.08.788,MST_test,2024.2.0,59.99905201474454,2026-01-18 12h55.17.600458 +0530,
145,0,146,s,2.871804800000973,None,146,0,145,580.8815188000444,,,,,,,,,,,,,,,,,,,,,,,,,,,,,,,,,,,,,,,,,,,,,,,,,,580.8657576000551,580.8815188000444,581.382192500052,581.3653595000505,581.3754608000163,581.382192500052,581.382192500052,581.382192500052,584.2655739000184,Scenes\043a.jpg,pre,s,2.871804800000973,None,,,,,,,,00049,001,2026-01-18_12h55.08.788,MST_test,2024.2.0,59.99905201474454,2026-01-18 12h55.17.600458 +0530,
146,0,147,n,1.543387799989432,None,147,0,146,584.2817469000001,,,,,,,,,,,,,,,,,,,,,,,,,,,,,,,,,,,,,,,,,,,,,,,,,,584.2656716000056,584.2817469000001,584.7821905000019,584.7653452000231,584.7756070000469,584.7821905000019,584.7821905000019,584.7821905000019,586.3323683000053,Foils\033a.jpg,none,n,1.543387799989432,None,,,,,,,,00049,001,2026-01-18_12h55.08.788,MST_test,2024.2.0,59.99905201474454,2026-01-18 12h55.17.600458 +0530,
147,0,148,o,3.4936854999978095,None,148,0,147,586.3484001000179,,,,,,,,,,,,,,,,,,,,,,,,,,,,,,,,,,,,,,,,,,,,,,,,,,586.3324657000485,586.3484001000179,586.8486067000194,586.8319978000363,586.8344387000543,586.8486067000194,586.8486067000194,586.8486067000194,590.3489772000466,Objects\013a.jpg,mid,o,3.4936854999978095,None,,,,,,,,00049,001,2026-01-18_12h55.08.788,MST_test,2024.2.0,59.99905201474454,2026-01-18 12h55.17.600458 +0530,
148,0,149,n,1.517124200006947,None,149,0,148,590.3651090000058,,,,,,,,,,,,,,,,,,,,,,,,,,,,,,,,,,,,,,,,,,,,,,,,,,590.3490705000004,590.3651090000058,590.8654562000302,590.8485171000357,590.8615317000076,590.8654562000302,590.8654562000302,590.8654562000302,592.3991976000252,Scenes\091b.jpg,pre,n,1.517124200006947,None,,,,,,,,00049,001,2026-01-18_12h55.08.788,MST_test,2024.2.0,59.99905201474454,2026-01-18 12h55.17.600458 +0530,
149,0,150,s,2.0821746999863535,None,150,0,149,592.4151204000227,,,,,,,,,,,,,,,,,,,,,,,,,,,,,,,,,,,,,,,,,,,,,,,,,,592.3992984000361,592.4151204000227,592.91548960004,592.8987226000172,592.9078787000035,592.91548960004,592.91548960004,592.91548960004,594.9989689000067,Scenes\187a.jpg,pre,s,2.0821746999863535,None,,,,,,,,00049,001,2026-01-18_12h55.08.788,MST_test,2024.2.0,59.99905201474454,2026-01-18 12h55.17.600458 +0530,
,,,,,,,,,,,,,,,,,,,,,,,,,,,,,,,,,,,,,,,,,,,,,,,,,,,,,,,,,,,,,,,,,,,,,,,,,594.9990329000284,595.0151275000535,595.0151275000535,597.1820597000187,space,2.1519364999840036,None,00049,001,2026-01-18_12h55.08.788,MST_test,2024.2.0,59.99905201474454,2026-01-18 12h55.17.600458 +0530,
