Sl_no,image_path,thisN,thisTrialN,thisRepN,key_resp_5.keys,key_resp_7.keys,key_resp_7.rt,key_resp_7.duration,key_resp_5.rt,key_resp_5.duration,key_resp_9.keys,key_resp_8.keys,key_resp_8.rt,key_resp_8.duration,key_resp_9.rt,key_resp_9.duration,practice.thisRepN,practice.thisTrialN,practice.thisN,trials.thisRepN,trials.thisTrialN,trials.thisN,thisRow.t,notes,welcome_page.started,text.started,key_resp.started,welcome_page.stopped,key_resp.keys,key_resp.rt,key_resp.duration,instructions.started,ins.started,key_resp_2.started,instructions.stopped,key_resp_2.keys,key_resp_2.rt,key_resp_2.duration,instructions_2.started,text_10.started,key_resp_10.started,instructions_2.stopped,key_resp_10.keys,key_resp_10.rt,key_resp_10.duration,objects_only_instruction.started,text_3.started,key_resp_3.started,objects_only_instruction.stopped,key_resp_3.keys,key_resp_3.rt,key_resp_3.duration,ISI.started,text_4.started,ISI.stopped,practice_block.started,image.started,text_5.started,key_resp_5.started,practice_block.stopped,practice.key_resp_5.keys,indoor_outdoor.started,text_7.started,key_resp_7.started,indoor_outdoor.stopped,practice.key_resp_7.keys,practice.key_resp_7.rt,practice.key_resp_7.duration,text_4.stopped,image.stopped,text_5.stopped,key_resp_5.stopped,practice.key_resp_5.rt,practice.key_resp_5.duration,practice_to_main.started,text_2.started,key_resp_4.started,practice_to_main.stopped,key_resp_4.keys,key_resp_4.rt,key_resp_4.duration,objects.started,image_2.started,text_9.started,key_resp_9.started,image_2.stopped,text_9.stopped,key_resp_9.stopped,objects.stopped,trials.key_resp_9.keys,encoding_task.started,text_8.started,key_resp_8.started,encoding_task.stopped,trials.key_resp_8.keys,trials.key_resp_8.rt,trials.key_resp_8.duration,trials.key_resp_9.rt,trials.key_resp_9.duration,end_experiment.started,text_6.started,key_resp_6.started,end_experiment.stopped,key_resp_6.keys,key_resp_6.rt,key_resp_6.duration,list_of_stimuli,encoding_task_accuracy,participant,session,date,expName,psychopyVersion,frameRate,expStart,
,,,,,,,,,,,,,,,,,,,,,,,,,0.0011437999783083797,0.0026254999975208193,0.0026254999975208193,1254.6922377999872,space,1254.6308032000088,None,,,,,,,,,,,,,,,,,,,,,,,,,,,,,,,,,,,,,,,,,,,,,,,,,,,,,,,,,,,,,,,,,,,,,,,,,,,,,,00043,001,2026-01-17_15h59.33.115,MST_task,2024.2.0,59.9518227113477,2026-01-17 15h59.41.579092 +0530,
,,,,,,,,,,,,,,,,,,,,,,,,,,,,,,,,1254.6922885999957,1254.705014199979,1254.705014199979,1291.2470677999954,space,36.52884919999633,None,,,,,,,,,,,,,,,,,,,,,,,,,,,,,,,,,,,,,,,,,,,,,,,,,,,,,,,,,,,,,,,,,,,,,,,00043,001,2026-01-17_15h59.33.115,MST_task,2024.2.0,59.9518227113477,2026-01-17 15h59.41.579092 +0530,
,,,,,,,,,,,,,,,,,,,,,,,,,,,,,,,,,,,,,,,1291.2470939999912,1291.2634158,1291.2634158,1339.9638987999933,space,48.6975434999913,None,,,,,,,,,,,,,,,,,,,,,,,,,,,,,,,,,,,,,,,,,,,,,,,,,,,,,,,,,,,,,,,,00043,001,2026-01-17_15h59.33.115,MST_task,2024.2.0,59.9518227113477,2026-01-17 15h59.41.579092 +0530,
,,,,,,,,,,,,,,,,,,,,,,,,,,,,,,,,,,,,,,,,,,,,,,1339.9639301999996,1339.9800965999893,1339.9800965999893,1358.7808393999876,space,18.79669330001343,None,,,,,,,,,,,,,,,,,,,,,,,,,,,,,,,,,,,,,,,,,,,,,,,,,,,,,,,,,00043,001,2026-01-17_15h59.33.115,MST_task,2024.2.0,59.9518227113477,2026-01-17 15h59.41.579092 +0530,
10,practice_images/182a.jpg,0,0,1,None,f,1.7512097000144422,None,,,,,,,,,1,0,0,,,,1358.8013835999882,,,,,,,,,,,,,,,,,,,,,,,,,,,,,,1358.799140899995,1358.8013835999882,1359.2969706000003,1359.3107683999988,1359.3223712999898,1359.3223712999898,1359.3223712999898,1362.296994299977,None,1362.2988000999903,1362.3135704999731,1362.3135704999731,1364.0806299999822,f,1.7512097000144422,None,,,,,,,,,,,,,,,,,,,,,,,,,,,,,,,,,,,,,,,,,00043,001,2026-01-17_15h59.33.115,MST_task,2024.2.0,59.9518227113477,2026-01-17 15h59.41.579092 +0530,
9,practice_images/180a.jpg,1,1,1,None,f,2.99689069998567,None,,,,,,,,,1,1,1,,,,1364.096896299976,,,,,,,,,,,,,,,,,,,,,,,,,,,,,,1364.080716299999,1364.096896299976,1364.5806257999793,1364.588433500001,1364.5971379999828,1364.5971379999828,1364.5971379999828,1367.580531399988,None,1367.5805658999889,1367.5968538999732,1367.5968538999732,1370.5974264999968,f,2.99689069998567,None,1364.5971379999828,1367.5968538999732,1367.5968538999732,1367.5968538999732,,,,,,,,,,,,,,,,,,,,,,,,,,,,,,,,,,,,,00043,001,2026-01-17_15h59.33.115,MST_task,2024.2.0,59.9518227113477,2026-01-17 15h59.41.579092 +0530,
4,practice_images/002b.jpg,2,2,1,None,f,0.6478768000088166,None,,,,,,,,,1,2,2,,,,1370.613456399995,,,,,,,,,,,,,,,,,,,,,,,,,,,,,,1370.5975131999876,1370.613456399995,1371.0972222999844,1371.105698200001,1371.1138362999773,1371.1138362999773,1371.1138362999773,1374.0972409999813,None,1374.0972853999992,1374.1135004999815,1374.1135004999815,1374.7641147999966,f,0.6478768000088166,None,1371.1138362999773,1374.1135004999815,1374.1135004999815,1374.1135004999815,,,,,,,,,,,,,,,,,,,,,,,,,,,,,,,,,,,,,00043,001,2026-01-17_15h59.33.115,MST_task,2024.2.0,59.9518227113477,2026-01-17 15h59.41.579092 +0530,
7,practice_images/166a.jpg,3,3,1,None,f,1.2487504000018816,None,,,,,,,,,1,3,3,,,,1374.7801419999741,,,,,,,,,,,,,,,,,,,,,,,,,,,,,,1374.7642044999811,1374.7801419999741,1375.2637230999826,1375.271676799981,1375.2803996999864,1375.2803996999864,1375.2803996999864,1378.2638731999905,None,1378.263909399975,1378.2801024999935,1378.2801024999935,1379.530541199987,f,1.2487504000018816,None,1375.2803996999864,1378.2801024999935,1378.2801024999935,1378.2801024999935,,,,,,,,,,,,,,,,,,,,,,,,,,,,,,,,,,,,,00043,001,2026-01-17_15h59.33.115,MST_task,2024.2.0,59.9518227113477,2026-01-17 15h59.41.579092 +0530,
5,practice_images/139a.jpg,4,4,1,None,f,2.2181382999988273,None,,,,,,,,,1,4,4,,,,1379.5468469999905,,,,,,,,,,,,,,,,,,,,,,,,,,,,,,1379.5306250999856,1379.5468469999905,1380.0304547999986,1380.0383932999976,1380.0470601999841,1380.0470601999841,1380.0470601999841,1383.0305367999827,None,1383.0305824999814,1383.046659899992,1383.046659899992,1385.2805783999793,f,2.2181382999988273,None,1380.0470601999841,1383.046659899992,1383.046659899992,1383.046659899992,,,,,,,,,,,,,,,,,,,,,,,,,,,,,,,,,,,,,00043,001,2026-01-17_15h59.33.115,MST_task,2024.2.0,59.9518227113477,2026-01-17 15h59.41.579092 +0530,
6,practice_images/158a.jpg,5,5,1,None,j,2.516641200025333,None,,,,,,,,,1,5,5,,,,1385.2967896999908,,,,,,,,,,,,,,,,,,,,,,,,,,,,,,1385.2806618999748,1385.2967896999908,1385.7803797999804,1385.7919700999919,1385.7969860000012,1385.7969860000012,1385.7969860000012,1388.7805525999865,None,1388.783550299995,1388.796855499997,1388.796855499997,1391.314158699999,j,2.516641200025333,None,1385.7969860000012,1388.796855499997,1388.796855499997,1388.796855499997,,,,,,,,,,,,,,,,,,,,,,,,,,,,,,,,,,,,,00043,001,2026-01-17_15h59.33.115,MST_task,2024.2.0,59.9518227113477,2026-01-17 15h59.41.579092 +0530,
2,practice_images/031a.jpg,6,6,1,None,j,2.8828077999933157,None,,,,,,,,,1,6,6,,,,1391.3302058999834,,,,,,,,,,,,,,,,,,,,,,,,,,,,,,1391.3142434999754,1391.3302058999834,1391.8138046999811,1391.822277499974,1391.8302816999785,1391.8302816999785,1391.8302816999785,1394.8139682999754,None,1394.814006599976,1394.8301018999773,1394.8301018999773,1397.714124399994,j,2.8828077999933157,None,1391.8302816999785,1394.8301018999773,1394.8301018999773,1394.8301018999773,,,,,,,,,,,,,,,,,,,,,,,,,,,,,,,,,,,,,00043,001,2026-01-17_15h59.33.115,MST_task,2024.2.0,59.9518227113477,2026-01-17 15h59.41.579092 +0530,
3,practice_images/037a.jpg,7,7,1,None,f,0.4432935999939218,None,,,,,,,,,1,7,7,,,,1397.7301746999728,,,,,,,,,,,,,,,,,,,,,,,,,,,,,,1397.7142091999995,1397.7301746999728,1398.213755099976,1398.2230488999921,1398.2302805999934,1398.2302805999934,1398.2302805999934,1401.2139359999856,None,1401.2139700999833,1401.2302206999739,1401.2302206999739,1401.6806638999842,f,0.4432935999939218,None,1398.2302805999934,1401.2302206999739,1401.2302206999739,1401.2302206999739,,,,,,,,,,,,,,,,,,,,,,,,,,,,,,,,,,,,,00043,001,2026-01-17_15h59.33.115,MST_task,2024.2.0,59.9518227113477,2026-01-17 15h59.41.579092 +0530,
8,practice_images/178a.jpg,8,8,1,None,f,0.09202860001823865,None,,,,,,,,,1,8,8,,,,1401.6968392999843,,,,,,,,,,,,,,,,,,,,,,,,,,,,,,1401.6807477999828,1401.6968392999843,1402.180435999995,1402.1880461999972,1402.1970542999916,1402.1970542999916,1402.1970542999916,1405.1806057999784,None,1405.1806420999928,1405.1968458999763,1405.1968458999763,1405.2972569999984,f,0.09202860001823865,None,1402.1970542999916,1405.1968458999763,1405.1968458999763,1405.1968458999763,,,,,,,,,,,,,,,,,,,,,,,,,,,,,,,,,,,,,00043,001,2026-01-17_15h59.33.115,MST_task,2024.2.0,59.9518227113477,2026-01-17 15h59.41.579092 +0530,
1,practice_images/013a.jpg,9,9,1,f,None,,,2.419721699989168,0.2400000000197906,,,,,,,1,9,9,,,,1405.3135417999874,,,,,,,,,,,,,,,,,,,,,,,,,,,,,,1405.2973373999994,1405.3135417999874,1405.7968440999975,1405.8048464999883,1405.8136543,1405.8136543,1405.8136543,1408.7972575999738,f,1408.7973021999933,,,1408.7973156999797,None,,,1405.8136543,1408.8134853999945,1408.8134853999945,1408.8134853999945,2.419721699989168,0.2400000000197906,,,,,,,,,,,,,,,,,,,,,,,,,,,,,,,,,,,00043,001,2026-01-17_15h59.33.115,MST_task,2024.2.0,59.9518227113477,2026-01-17 15h59.41.579092 +0530,
,,,,,,,,,,,,,,,,,,,,,,,,,,,,,,,,,,,,,,,,,,,,,,,,,,,,,,,,,,,,,,,,,,,,,,,,,,,1408.7973620999837,1408.8134853999945,1408.8134853999945,1422.2974214999995,space,13.483342599996831,None,,,,,,,,,,,,,,,,,,,,,,,,,,,,00043,001,2026-01-17_15h59.33.115,MST_task,2024.2.0,59.9518227113477,2026-01-17 15h59.41.579092 +0530,
,Objects\102a.jpg,0,0,1,,,,,,,None,f,0.04420120001304895,None,,,,,,1,0,0,1422.3134282999963,,,,,,,,,,,,,,,,,,,,,,,,,,,,,,1422.2981998999894,1422.3134282999963,1422.79697689999,,,,,,,,,,,,,,1422.8137300999952,,,,,,,,,,,,,1422.8095694999793,1422.8137300999952,1422.8137300999952,1422.8137300999952,1425.813479399978,1425.813479399978,1425.813479399978,1425.7975879999867,None,1425.8006247999729,1425.813479399978,1425.813479399978,1425.8639662999776,f,0.04420120001304895,None,,,,,,,,,,,,00043,001,2026-01-17_15h59.33.115,MST_task,2024.2.0,59.9518227113477,2026-01-17 15h59.41.579092 +0530,
,Objects\176a.jpg,1,0,2,,,,,,,None,j,0.6059940000122879,None,,,,,,2,0,1,1425.880034199974,,,,,,,,,,,,,,,,,,,,,,,,,,,,,,1425.8640526999952,1425.880034199974,1426.3636714999739,,,,,,,,,,,,,,1426.380604099977,,,,,,,,,,,,,1426.372764699976,1426.380604099977,1426.380604099977,1426.380604099977,1429.3801095999952,1429.3801095999952,1429.3801095999952,1429.3639966999763,None,1429.3640355999814,1429.3801095999952,1429.3801095999952,1429.997294699977,j,0.6059940000122879,None,,,,,,,,,,,,00043,001,2026-01-17_15h59.33.115,MST_task,2024.2.0,59.9518227113477,2026-01-17 15h59.41.579092 +0530,
,Objects\010a.jpg,2,0,3,,,,,,,f,None,,,2.8631918000173755,None,,,,3,0,2,1430.0135420999723,,,,,,,,,,,,,,,,,,,,,,,,,,,,,,1429.997426499991,1430.0135420999723,1430.4967843999912,,,,,,,,,,,,,,1430.5136750999955,,,,,,,,,,,,,1430.5058790999756,1430.5136750999955,1430.5136750999955,1430.5136750999955,1433.5134303999948,1433.5134303999948,1433.5134303999948,1433.4972066999762,f,1433.4972504999896,,,1433.4972624999937,None,,,2.8631918000173755,None,,,,,,,,,,00043,001,2026-01-17_15h59.33.115,MST_task,2024.2.0,59.9518227113477,2026-01-17 15h59.41.579092 +0530,
,Objects\043a.jpg,3,0,4,,,,,,,None,f,0.5879981000034604,None,,,,,,4,0,3,1433.5134303999948,,,,,,,,,,,,,,,,,,,,,,,,,,,,,,1433.4973310999922,1433.5134303999948,1433.9968875999912,,,,,,,,,,,,,,1434.0136161999835,,,,,,,,,,,,,1434.0061505999765,1434.0136161999835,1434.0136161999835,1434.0136161999835,1437.013437799993,1437.013437799993,1437.013437799993,1436.9972615999868,None,1436.9973051999987,1437.013437799993,1437.013437799993,1437.6138233999955,f,0.5879981000034604,None,,,,,,,,,,,,00043,001,2026-01-17_15h59.33.115,MST_task,2024.2.0,59.9518227113477,2026-01-17 15h59.41.579092 +0530,
,Objects\118a.jpg,4,0,5,,,,,,,None,f,1.2233116000134032,None,,,,,,5,0,4,1437.6301243999915,,,,,,,,,,,,,,,,,,,,,,,,,,,,,,1437.6139120000007,1437.6301243999915,1438.1138407999824,,,,,,,,,,,,,,1438.130352999986,,,,,,,,,,,,,1438.1234122999886,1438.130352999986,1438.130352999986,1438.130352999986,1441.1301309999835,1441.1301309999835,1441.1301309999835,1441.113952499989,None,1441.1140028999944,1441.1301309999835,1441.1301309999835,1442.3638402999786,f,1.2233116000134032,None,,,,,,,,,,,,00043,001,2026-01-17_15h59.33.115,MST_task,2024.2.0,59.9518227113477,2026-01-17 15h59.41.579092 +0530,
,Objects\132a.jpg,5,0,6,,,,,,,f,None,,,2.3047172999940813,0.20063190002110787,,,,6,0,5,1442.3801051999908,,,,,,,,,,,,,,,,,,,,,,,,,,,,,,1442.363927999977,1442.3801051999908,1442.8636922999867,,,,,,,,,,,,,,1442.8803439999756,,,,,,,,,,,,,1442.8730081999965,1442.8803439999756,1442.8803439999756,1442.8803439999756,1445.8801179000002,1445.8801179000002,1445.8801179000002,1445.86405069998,f,1445.8640977999894,,,1445.864109199989,None,,,2.3047172999940813,0.20063190002110787,,,,,,,,,,00043,001,2026-01-17_15h59.33.115,MST_task,2024.2.0,59.9518227113477,2026-01-17 15h59.41.579092 +0530,
,Objects\020a.jpg,6,0,7,,,,,,,None,f,0.8931887999933679,None,,,,,,7,0,6,1445.8801179000002,,,,,,,,,,,,,,,,,,,,,,,,,,,,,,1445.8642150999804,1445.8801179000002,1446.3637220999808,,,,,,,,,,,,,,1446.3803926999972,,,,,,,,,,,,,1446.372921399976,1446.3803926999972,1446.3803926999972,1446.3803926999972,1449.3801144999743,1449.3801144999743,1449.3801144999743,1449.3639133999823,None,1449.3639523999882,1449.3801144999743,1449.3801144999743,1450.2805532999919,f,0.8931887999933679,None,,,,,,,,,,,,00043,001,2026-01-17_15h59.33.115,MST_task,2024.2.0,59.9518227113477,2026-01-17 15h59.41.579092 +0530,
,Scenes\015a.jpg,7,0,8,,,,,,,None,j,0.72465230000671,None,,,,,,8,0,7,1450.2965912999935,,,,,,,,,,,,,,,,,,,,,,,,,,,,,,1450.2806718999927,1450.2965912999935,1450.7803554999991,,,,,,,,,,,,,,1450.803480499977,,,,,,,,,,,,,1450.80090989999,1450.803480499977,1450.803480499977,1450.803480499977,,,,1453.796874599997,None,1453.7985082999803,1453.8134581999911,1453.8134581999911,1454.5471224999928,j,0.72465230000671,None,,,,,,,,,,,,00043,001,2026-01-17_15h59.33.115,MST_task,2024.2.0,59.9518227113477,2026-01-17 15h59.41.579092 +0530,
,Scenes\121a.jpg,8,0,9,,,,,,,j,None,,,2.9598359999945387,None,,,,9,0,8,1454.5634365000005,,,,,,,,,,,,,,,,,,,,,,,,,,,,,,1454.5472453999973,1454.5634365000005,1455.0468828999728,,,,,,,,,,,,,,1455.065294399974,,,,,,,,,,,,,1455.0624374999898,1455.065294399974,1455.065294399974,1455.065294399974,,,,1458.0636569999915,j,1458.0637066999916,,,1458.0637190999987,None,,,2.9598359999945387,None,,,,,,,,,,00043,001,2026-01-17_15h59.33.115,MST_task,2024.2.0,59.9518227113477,2026-01-17 15h59.41.579092 +0530,
,Scenes\097a.jpg,9,0,10,,,,,,,f,None,,,2.5246201000118162,0.1999991000047885,,,,10,0,9,1458.0801667999767,,,,,,,,,,,,,,,,,,,,,,,,,,,,,,1458.0638298999984,1458.0801667999767,1458.563906299998,,,,,,,,,,,,,,1458.5803412999958,,,,,,,,,,,,,1458.5774549999915,1458.5803412999958,1458.5803412999958,1458.5803412999958,1461.5801605999877,1461.5801605999877,1461.5801605999877,1461.564333599992,f,1461.5643790999893,,,1461.5643898999842,None,,,2.5246201000118162,0.1999991000047885,,,,,,,,,,00043,001,2026-01-17_15h59.33.115,MST_task,2024.2.0,59.9518227113477,2026-01-17 15h59.41.579092 +0530,
,Scenes\161a.jpg,10,0,11,,,,,,,None,j,0.22456840000813827,None,,,,,,11,0,10,1461.5801605999877,,,,,,,,,,,,,,,,,,,,,,,,,,,,,,1461.5644883999776,1461.5801605999877,1462.0636605999898,,,,,,,,,,,,,,1462.0836301999807,,,,,,,,,,,,,1462.0812460999878,1462.0836301999807,1462.0836301999807,1462.0836301999807,,,,1465.0803968999826,None,1465.0804404999944,1465.0966360999737,1465.0966360999737,1465.3305430999899,j,0.22456840000813827,None,,,,,,,,,,,,00043,001,2026-01-17_15h59.33.115,MST_task,2024.2.0,59.9518227113477,2026-01-17 15h59.41.579092 +0530,
,Scenes\166a.jpg,11,0,12,,,,,,,j,None,,,2.282132399996044,0.23224869999103248,,,,12,0,11,1465.3467099999834,,,,,,,,,,,,,,,,,,,,,,,,,,,,,,1465.3306646999845,1465.3467099999834,1465.8303733999783,,,,,,,,,,,,,,1465.8473337999894,,,,,,,,,,,,,1465.8430236999993,1465.8473337999894,1465.8473337999894,1465.8473337999894,1468.8467086999735,1468.8467086999735,1468.8467086999735,1468.8305922999862,j,1468.830635099992,,,1468.8306464999914,None,,,2.282132399996044,0.23224869999103248,,,,,,,,,,00043,001,2026-01-17_15h59.33.115,MST_task,2024.2.0,59.9518227113477,2026-01-17 15h59.41.579092 +0530,
,Scenes\107a.jpg,12,0,13,,,,,,,j,None,,,2.3262772999878507,0.20746299999882467,,,,13,0,12,1468.8467086999735,,,,,,,,,,,,,,,,,,,,,,,,,,,,,,1468.8307169999753,1468.8467086999735,1469.3303977999894,,,,,,,,,,,,,,1469.3471227999835,,,,,,,,,,,,,1469.3447548999975,1469.3471227999835,1469.3471227999835,1469.3471227999835,1472.3469029999978,1472.3469029999978,1472.3469029999978,1472.3307014999737,j,1472.3307475999754,,,1472.330758600001,None,,,2.3262772999878507,0.20746299999882467,,,,,,,,,,00043,001,2026-01-17_15h59.33.115,MST_task,2024.2.0,59.9518227113477,2026-01-17 15h59.41.579092 +0530,
,Scenes\109a.jpg,13,0,14,,,,,,,None,f,0.8258473000023514,None,,,,,,14,0,13,1472.3469029999978,,,,,,,,,,,,,,,,,,,,,,,,,,,,,,1472.3308250999835,1472.3469029999978,1472.830407499976,,,,,,,,,,,,,,1472.8473249999806,,,,,,,,,,,,,1472.8447387999913,1472.8473249999806,1472.8473249999806,1472.8473249999806,1475.8468806999736,1475.8468806999736,1475.8468806999736,1475.830689800001,None,1475.8307291999809,1475.8468806999736,1475.8468806999736,1476.680871199991,f,0.8258473000023514,None,,,,,,,,,,,,00043,001,2026-01-17_15h59.33.115,MST_task,2024.2.0,59.9518227113477,2026-01-17 15h59.41.579092 +0530,
,Objects\192a.jpg,14,0,15,,,,,,,None,f,0.46777770001790486,None,,,,,,15,0,14,1476.6967513999844,,,,,,,,,,,,,,,,,,,,,,,,,,,,,,1476.6809671999945,1476.6967513999844,1477.1805841999885,,,,,,,,,,,,,,1477.197580099979,,,,,,,,,,,,,1477.1922209999757,1477.197580099979,1477.197580099979,1477.197580099979,1480.196907399979,1480.196907399979,1480.196907399979,1480.1807657999743,None,1480.18282799999,1480.196907399979,1480.196907399979,1480.680631700001,f,0.46777770001790486,None,,,,,,,,,,,,00043,001,2026-01-17_15h59.33.115,MST_task,2024.2.0,59.9518227113477,2026-01-17 15h59.41.579092 +0530,
,Objects\094a.jpg,15,0,16,,,,,,,None,j,3.1884617999894544,None,,,,,,16,0,15,1480.6967480999883,,,,,,,,,,,,,,,,,,,,,,,,,,,,,,1480.6807212999847,1480.6967480999883,1481.1803930999886,,,,,,,,,,,,,,1481.1973072999972,,,,,,,,,,,,,1481.189232899982,1481.1973072999972,1481.1973072999972,1481.1973072999972,1484.1969165999908,1484.1969165999908,1484.1969165999908,1484.1808003999759,None,1484.180842599977,1484.1969165999908,1484.1969165999908,1487.3973542999884,j,3.1884617999894544,None,,,,,,,,,,,,00043,001,2026-01-17_15h59.33.115,MST_task,2024.2.0,59.9518227113477,2026-01-17 15h59.41.579092 +0530,
,Objects\083a.jpg,16,0,17,,,,,,,f,None,,,2.272259799996391,0.3026471000048332,,,,17,0,16,1487.4134952999884,,,,,,,,,,,,,,,,,,,,,,,,,,,,,,1487.3974752999784,1487.4134952999884,1487.8970999999729,,,,,,,,,,,,,,1487.9138598999998,,,,,,,,,,,,,1487.9064328999957,1487.9138598999998,1487.9138598999998,1487.9138598999998,1490.9135809,1490.9135809,1490.9135809,1490.8974490999826,f,1490.8975107999868,,,1490.8975230999931,None,,,2.272259799996391,0.3026471000048332,,,,,,,,,,00043,001,2026-01-17_15h59.33.115,MST_task,2024.2.0,59.9518227113477,2026-01-17 15h59.41.579092 +0530,
,Objects\185a.jpg,17,0,18,,,,,,,None,f,0.5959386999893468,None,,,,,,18,0,17,1490.9135809,,,,,,,,,,,,,,,,,,,,,,,,,,,,,,1490.8975995999936,1490.9135809,1491.3970370999887,,,,,,,,,,,,,,1491.4137993999757,,,,,,,,,,,,,1491.4058506999863,1491.4137993999757,1491.4137993999757,1491.4137993999757,1494.4136003999738,1494.4136003999738,1494.4136003999738,1494.3974904999777,None,1494.397532199975,1494.4136003999738,1494.4136003999738,1495.0139816999726,f,0.5959386999893468,None,,,,,,,,,,,,00043,001,2026-01-17_15h59.33.115,MST_task,2024.2.0,59.9518227113477,2026-01-17 15h59.41.579092 +0530,
,Objects\077a.jpg,18,0,19,,,,,,,j,None,,,1.9112283999857027,0.2559165999991819,,,,19,0,18,1495.0302251999965,,,,,,,,,,,,,,,,,,,,,,,,,,,,,,1495.0141023999895,1495.0302251999965,1495.5139204999723,,,,,,,,,,,,,,1495.530396999995,,,,,,,,,,,,,1495.5234555999923,1495.530396999995,1495.530396999995,1495.530396999995,1498.5301539999782,1498.5301539999782,1498.5301539999782,1498.5140463999996,j,1498.514093099977,,,1498.514104699978,None,,,1.9112283999857027,0.2559165999991819,,,,,,,,,,00043,001,2026-01-17_15h59.33.115,MST_task,2024.2.0,59.9518227113477,2026-01-17 15h59.41.579092 +0530,
,Objects\100a.jpg,19,0,20,,,,,,,f,None,,,1.6748748999962118,0.2239838000095915,,,,20,0,19,1498.5301539999782,,,,,,,,,,,,,,,,,,,,,,,,,,,,,,1498.5142010999843,1498.5301539999782,1499.0138160999923,,,,,,,,,,,,,,1499.0305217999849,,,,,,,,,,,,,1499.0234199999832,1499.0305217999849,1499.0305217999849,1499.0305217999849,1502.030192199978,1502.030192199978,1502.030192199978,1502.014314399974,f,1502.014365399984,,,1502.014377399988,None,,,1.6748748999962118,0.2239838000095915,,,,,,,,,,00043,001,2026-01-17_15h59.33.115,MST_task,2024.2.0,59.9518227113477,2026-01-17 15h59.41.579092 +0530,
,Objects\107a.jpg,20,0,21,,,,,,,j,None,,,2.3185198999999557,0.19220320001477376,,,,21,0,20,1502.030192199978,,,,,,,,,,,,,,,,,,,,,,,,,,,,,,1502.0144492999825,1502.030192199978,1502.5137555999972,,,,,,,,,,,,,,1502.5303425999882,,,,,,,,,,,,,1502.52272909999,1502.5303425999882,1502.5303425999882,1502.5303425999882,1505.5302457999787,1505.5302457999787,1505.5302457999787,1505.5140210999816,j,1505.514070299978,,,1505.514081399975,None,,,2.3185198999999557,0.19220320001477376,,,,,,,,,,00043,001,2026-01-17_15h59.33.115,MST_task,2024.2.0,59.9518227113477,2026-01-17 15h59.41.579092 +0530,
,Scenes\089a.jpg,21,0,22,,,,,,,None,j,0.794284500007052,None,,,,,,22,0,21,1505.5302457999787,,,,,,,,,,,,,,,,,,,,,,,,,,,,,,1505.514179699996,1505.5302457999787,1506.0138493999839,,,,,,,,,,,,,,1506.0386963999772,,,,,,,,,,,,,1506.0362993999734,1506.0386963999772,1506.0386963999772,1506.0386963999772,,,,1509.0305153999943,None,1509.0322733999928,1509.0467915999761,1509.0467915999761,1509.8473091999767,j,0.794284500007052,None,,,,,,,,,,,,00043,001,2026-01-17_15h59.33.115,MST_task,2024.2.0,59.9518227113477,2026-01-17 15h59.41.579092 +0530,
,Scenes\011a.jpg,22,0,23,,,,,,,None,f,1.3731251000135671,None,,,,,,23,0,22,1509.8636431999912,,,,,,,,,,,,,,,,,,,,,,,,,,,,,,1509.847396999976,1509.8636431999912,1510.3471327000007,,,,,,,,,,,,,,1510.3708454000007,,,,,,,,,,,,,1510.3681943999836,1510.3708454000007,1510.3708454000007,1510.3708454000007,,,,1513.363737399981,None,1513.3637785999745,1513.380202100001,1513.380202100001,1514.7639659999986,f,1.3731251000135671,None,,,,,,,,,,,,00043,001,2026-01-17_15h59.33.115,MST_task,2024.2.0,59.9518227113477,2026-01-17 15h59.41.579092 +0530,
,Scenes\018a.jpg,23,0,24,,,,,,,None,j,0.7606274000136182,None,,,,,,24,0,23,1514.7803080999875,,,,,,,,,,,,,,,,,,,,,,,,,,,,,,1514.7640870999894,1514.7803080999875,1515.263817799976,,,,,,,,,,,,,,1515.2807535999746,,,,,,,,,,,,,1515.27626709998,1515.2807535999746,1515.2807535999746,1515.2807535999746,1518.2801526999974,1518.2801526999974,1518.2801526999974,1518.2641502999759,None,1518.2641914999986,1518.2801526999974,1518.2801526999974,1519.047233099991,j,0.7606274000136182,None,,,,,,,,,,,,00043,001,2026-01-17_15h59.33.115,MST_task,2024.2.0,59.9518227113477,2026-01-17 15h59.41.579092 +0530,
,Scenes\088a.jpg,24,0,25,,,,,,,j,None,,,2.8860785999859218,None,,,,25,0,24,1519.0634201999928,,,,,,,,,,,,,,,,,,,,,,,,,,,,,,1519.0473261000006,1519.0634201999928,1519.5471564999898,,,,,,,,,,,,,,1519.5712378999742,,,,,,,,,,,,,1519.5686695999757,1519.5712378999742,1519.5712378999742,1519.5712378999742,,,,1522.5637543999765,j,1522.5637982999906,,,1522.5638098999916,None,,,2.8860785999859218,None,,,,,,,,,,00043,001,2026-01-17_15h59.33.115,MST_task,2024.2.0,59.9518227113477,2026-01-17 15h59.41.579092 +0530,
,Scenes\023a.jpg,25,0,26,,,,,,,f,None,,,2.876218899997184,None,,,,26,0,25,1522.5802566999919,,,,,,,,,,,,,,,,,,,,,,,,,,,,,,1522.563908799988,1522.5802566999919,1523.0637167999812,,,,,,,,,,,,,,1523.085011999996,,,,,,,,,,,,,1523.0825446999806,1523.085011999996,1523.085011999996,1523.085011999996,,,,1526.080313399987,f,1526.0803605999972,,,1526.0803723999998,None,,,2.876218899997184,None,,,,,,,,,,00043,001,2026-01-17_15h59.33.115,MST_task,2024.2.0,59.9518227113477,2026-01-17 15h59.41.579092 +0530,
,Scenes\147a.jpg,26,0,27,,,,,,,j,None,,,2.267516699997941,0.24788310000440106,,,,27,0,26,1526.0966629999748,,,,,,,,,,,,,,,,,,,,,,,,,,,,,,1526.0804818999895,1526.0966629999748,1526.5804154999787,,,,,,,,,,,,,,1526.5976734999858,,,,,,,,,,,,,1526.5932133999886,1526.5976734999858,1526.5976734999858,1526.5976734999858,1529.597041799978,1529.597041799978,1529.597041799978,1529.5807134999777,j,1529.5807576999941,,,1529.5807682999875,None,,,2.267516699997941,0.24788310000440106,,,,,,,,,,00043,001,2026-01-17_15h59.33.115,MST_task,2024.2.0,59.9518227113477,2026-01-17 15h59.41.579092 +0530,
,Scenes\066a.jpg,27,0,28,,,,,,,None,j,0.33717780001461506,None,,,,,,28,0,27,1529.597041799978,,,,,,,,,,,,,,,,,,,,,,,,,,,,,,1529.580867199984,1529.597041799978,1530.0804815999873,,,,,,,,,,,,,,1530.0974770999746,,,,,,,,,,,,,1530.0911494999891,1530.0974770999746,1530.0974770999746,1530.0974770999746,1533.0968627999828,1533.0968627999828,1533.0968627999828,1533.0809561999922,None,1533.0810074999754,1533.0968627999828,1533.0968627999828,1533.4475625999912,j,0.33717780001461506,None,,,,,,,,,,,,00043,001,2026-01-17_15h59.33.115,MST_task,2024.2.0,59.9518227113477,2026-01-17 15h59.41.579092 +0530,
,Objects\122a.jpg,28,0,29,,,,,,,f,None,,,2.5015325999993365,0.23151520002284087,,,,29,0,28,1533.4634067000006,,,,,,,,,,,,,,,,,,,,,,,,,,,,,,1533.447706099978,1533.4634067000006,1533.94703879999,,,,,,,,,,,,,,1533.963927099976,,,,,,,,,,,,,1533.9586666999967,1533.963927099976,1533.963927099976,1533.963927099976,1536.9635037999833,1536.9635037999833,1536.9635037999833,1536.947136599978,f,1536.9492223999987,,,1536.949240499991,None,,,2.5015325999993365,0.23151520002284087,,,,,,,,,,00043,001,2026-01-17_15h59.33.115,MST_task,2024.2.0,59.9518227113477,2026-01-17 15h59.41.579092 +0530,
,Objects\062a.jpg,29,0,30,,,,,,,f,None,,,2.8093312999990303,None,,,,30,0,29,1536.9635037999833,,,,,,,,,,,,,,,,,,,,,,,,,,,,,,1536.9493103999994,1536.9635037999833,1537.447014299978,,,,,,,,,,,,,,1537.4636367999774,,,,,,,,,,,,,1537.4561852999905,1537.4636367999774,1537.4636367999774,1537.4636367999774,1540.4634796999744,1540.4634796999744,1540.4634796999744,1540.4472529999912,f,1540.447299499996,,,1540.4473107999947,None,,,2.8093312999990303,None,,,,,,,,,,00043,001,2026-01-17_15h59.33.115,MST_task,2024.2.0,59.9518227113477,2026-01-17 15h59.41.579092 +0530,
,Objects\146a.jpg,30,0,31,,,,,,,f,None,,,2.445359899982577,0.2565519000054337,,,,31,0,30,1540.4634796999744,,,,,,,,,,,,,,,,,,,,,,,,,,,,,,1540.4473778999818,1540.4634796999744,1540.946954599989,,,,,,,,,,,,,,1540.9637076999934,,,,,,,,,,,,,1540.955872599996,1540.9637076999934,1540.9637076999934,1540.9637076999934,1543.9633996999764,1543.9633996999764,1543.9633996999764,1543.9471823999775,f,1543.947225699987,,,1543.9472366999835,None,,,2.445359899982577,0.2565519000054337,,,,,,,,,,00043,001,2026-01-17_15h59.33.115,MST_task,2024.2.0,59.9518227113477,2026-01-17 15h59.41.579092 +0530,
,Objects\087a.jpg,31,0,32,,,,,,,None,j,0.35352720000082627,None,,,,,,32,0,31,1543.9633996999764,,,,,,,,,,,,,,,,,,,,,,,,,,,,,,1543.9473025999905,1543.9633996999764,1544.446843999991,,,,,,,,,,,,,,1544.4636624999985,,,,,,,,,,,,,1544.455775599985,1544.4636624999985,1544.4636624999985,1544.4636624999985,1547.4634721999755,1547.4634721999755,1547.4634721999755,1547.447128299973,None,1547.4471681999858,1547.4634721999755,1547.4634721999755,1547.8305277999898,j,0.35352720000082627,None,,,,,,,,,,,,00043,001,2026-01-17_15h59.33.115,MST_task,2024.2.0,59.9518227113477,2026-01-17 15h59.41.579092 +0530,
,Objects\144a.jpg,32,0,33,,,,,,,None,j,0.7900893999903928,None,,,,,,33,0,32,1547.8467393999745,,,,,,,,,,,,,,,,,,,,,,,,,,,,,,1547.8306497999874,1547.8467393999745,1548.3303825999901,,,,,,,,,,,,,,1548.3468785999867,,,,,,,,,,,,,1548.3401305000007,1548.3468785999867,1548.3468785999867,1548.3468785999867,1551.3467799999926,1551.3467799999926,1551.3467799999926,1551.330614699982,None,1551.3306556999742,1551.3467799999926,1551.3467799999926,1552.147139699984,j,0.7900893999903928,None,,,,,,,,,,,,00043,001,2026-01-17_15h59.33.115,MST_task,2024.2.0,59.9518227113477,2026-01-17 15h59.41.579092 +0530,
,Objects\155a.jpg,33,0,34,,,,,,,f,None,,,2.0335954999900423,0.24008740001590922,,,,34,0,33,1552.1634757999855,,,,,,,,,,,,,,,,,,,,,,,,,,,,,,1552.1472585999873,1552.1634757999855,1552.6470057999832,,,,,,,,,,,,,,1552.6637187999731,,,,,,,,,,,,,1552.6565727999841,1552.6637187999731,1552.6637187999731,1552.6637187999731,1555.6634533999895,1555.6634533999895,1555.6634533999895,1555.647309299995,f,1555.6473547999922,,,1555.647366099991,None,,,2.0335954999900423,0.24008740001590922,,,,,,,,,,00043,001,2026-01-17_15h59.33.115,MST_task,2024.2.0,59.9518227113477,2026-01-17 15h59.41.579092 +0530,
,Objects\079a.jpg,34,0,35,,,,,,,j,None,,,1.709388499992201,0.25758780000614934,,,,35,0,34,1555.6634533999895,,,,,,,,,,,,,,,,,,,,,,,,,,,,,,1555.6474643999827,1555.6634533999895,1556.1469630999782,,,,,,,,,,,,,,1556.1636418999988,,,,,,,,,,,,,1556.1562096999842,1556.1636418999988,1556.1636418999988,1556.1636418999988,1559.1636915999989,1559.1636915999989,1559.1636915999989,1559.147596099996,j,1559.1476488999906,,,1559.1476608999947,None,,,1.709388499992201,0.25758780000614934,,,,,,,,,,00043,001,2026-01-17_15h59.33.115,MST_task,2024.2.0,59.9518227113477,2026-01-17 15h59.41.579092 +0530,
,Scenes\012a.jpg,35,0,36,,,,,,,None,j,0.04932520000147633,None,,,,,,36,0,35,1559.1636915999989,,,,,,,,,,,,,,,,,,,,,,,,,,,,,,1559.147767699993,1559.1636915999989,1559.6468585999974,,,,,,,,,,,,,,1559.6684612999961,,,,,,,,,,,,,1559.6660607999947,1559.6684612999961,1559.6684612999961,1559.6684612999961,,,,1562.6637124999834,None,1562.6654312999744,1562.6801699999778,1562.6801699999778,1562.7305902999942,j,0.04932520000147633,None,,,,,,,,,,,,00043,001,2026-01-17_15h59.33.115,MST_task,2024.2.0,59.9518227113477,2026-01-17 15h59.41.579092 +0530,
,Scenes\091a.jpg,36,0,37,,,,,,,j,None,,,1.6514017999870703,0.20698000001721084,,,,37,0,36,1562.7467373999825,,,,,,,,,,,,,,,,,,,,,,,,,,,,,,1562.7307116999873,1562.7467373999825,1563.2303958999983,,,,,,,,,,,,,,1563.2471915999777,,,,,,,,,,,,,1563.2443537999934,1563.2471915999777,1563.2471915999777,1563.2471915999777,1566.246693699999,1566.246693699999,1566.246693699999,1566.2306179000007,j,1566.2306648999802,,,1566.2306759999774,None,,,1.6514017999870703,0.20698000001721084,,,,,,,,,,00043,001,2026-01-17_15h59.33.115,MST_task,2024.2.0,59.9518227113477,2026-01-17 15h59.41.579092 +0530,
,Scenes\053a.jpg,37,0,38,,,,,,,j,None,,,1.686614100006409,0.19906269997591153,,,,38,0,37,1566.246693699999,,,,,,,,,,,,,,,,,,,,,,,,,,,,,,1566.230773599993,1566.246693699999,1566.7304430999793,,,,,,,,,,,,,,1566.7472026999749,,,,,,,,,,,,,1566.7394179999828,1566.7472026999749,1566.7472026999749,1566.7472026999749,1569.7466659999918,1569.7466659999918,1569.7466659999918,1569.7306654999848,j,1569.7307124999934,,,1569.7307232999883,None,,,1.686614100006409,0.19906269997591153,,,,,,,,,,00043,001,2026-01-17_15h59.33.115,MST_task,2024.2.0,59.9518227113477,2026-01-17 15h59.41.579092 +0530,
,Scenes\136a.jpg,38,0,39,,,,,,,f,None,,,2.738658000016585,None,,,,39,0,38,1569.7466659999918,,,,,,,,,,,,,,,,,,,,,,,,,,,,,,1569.7308216999809,1569.7466659999918,1570.2304188999988,,,,,,,,,,,,,,1570.2472425999877,,,,,,,,,,,,,1570.2427729999763,1570.2472425999877,1570.2472425999877,1570.2472425999877,1573.2467265999876,1573.2467265999876,1573.2467265999876,1573.2307779999974,f,1573.230825799983,,,1573.2308366999787,None,,,2.738658000016585,None,,,,,,,,,,00043,001,2026-01-17_15h59.33.115,MST_task,2024.2.0,59.9518227113477,2026-01-17 15h59.41.579092 +0530,
,Scenes\137a.jpg,39,0,40,,,,,,,j,None,,,1.4455866999924183,0.2080402999999933,,,,40,0,39,1573.2467265999876,,,,,,,,,,,,,,,,,,,,,,,,,,,,,,1573.2309389000002,1573.2467265999876,1573.7303174999834,,,,,,,,,,,,,,1573.7472944999754,,,,,,,,,,,,,1573.743470699992,1573.7472944999754,1573.7472944999754,1573.7472944999754,1576.7466811999911,1576.7466811999911,1576.7466811999911,1576.7307164999947,j,1576.7307599999767,,,1576.730771099974,None,,,1.4455866999924183,0.2080402999999933,,,,,,,,,,00043,001,2026-01-17_15h59.33.115,MST_task,2024.2.0,59.9518227113477,2026-01-17 15h59.41.579092 +0530,
,Scenes\075a.jpg,40,0,41,,,,,,,j,None,,,2.0668426000047475,0.23898229998303577,,,,41,0,40,1576.7466811999911,,,,,,,,,,,,,,,,,,,,,,,,,,,,,,1576.7308714999817,1576.7466811999911,1577.2304699999804,,,,,,,,,,,,,,1577.2472682999796,,,,,,,,,,,,,1577.242572499992,1577.2472682999796,1577.2472682999796,1577.2472682999796,1580.2468997999968,1580.2468997999968,1580.2468997999968,1580.230897899979,j,1580.2309456999938,,,1580.2309568999917,None,,,2.0668426000047475,0.23898229998303577,,,,,,,,,,00043,001,2026-01-17_15h59.33.115,MST_task,2024.2.0,59.9518227113477,2026-01-17 15h59.41.579092 +0530,
,Scenes\082a.jpg,41,0,42,,,,,,,None,f,0.7257714000006672,None,,,,,,42,0,41,1580.2468997999968,,,,,,,,,,,,,,,,,,,,,,,,,,,,,,1580.2310667999845,1580.2468997999968,1580.730416699982,,,,,,,,,,,,,,1580.7526561999985,,,,,,,,,,,,,1580.7501376,1580.7526561999985,1580.7526561999985,1580.7526561999985,,,,1583.7470111000002,None,1583.7470508999832,1583.763610199996,1583.763610199996,1584.497145899979,f,0.7257714000006672,None,,,,,,,,,,,,00043,001,2026-01-17_15h59.33.115,MST_task,2024.2.0,59.9518227113477,2026-01-17 15h59.41.579092 +0530,
,Objects\108a.jpg,42,0,43,,,,,,,j,None,,,1.9078665999986697,0.24814809998497367,,,,43,0,42,1584.5134431999759,,,,,,,,,,,,,,,,,,,,,,,,,,,,,,1584.4972744999977,1584.5134431999759,1584.996909999987,,,,,,,,,,,,,,1585.0139643999864,,,,,,,,,,,,,1585.0087780999893,1585.0139643999864,1585.0139643999864,1585.0139643999864,1588.0134832999902,1588.0134832999902,1588.0134832999902,1587.9971121999843,j,1587.999145699985,,,1587.9991637999774,None,,,1.9078665999986697,0.24814809998497367,,,,,,,,,,00043,001,2026-01-17_15h59.33.115,MST_task,2024.2.0,59.9518227113477,2026-01-17 15h59.41.579092 +0530,
,Objects\114a.jpg,43,0,44,,,,,,,f,None,,,1.9516742000123486,0.2880462999746669,,,,44,0,43,1588.0134832999902,,,,,,,,,,,,,,,,,,,,,,,,,,,,,,1587.9992658999981,1588.0134832999902,1588.4969118999725,,,,,,,,,,,,,,1588.5137387999857,,,,,,,,,,,,,1588.5062783999892,1588.5137387999857,1588.5137387999857,1588.5137387999857,1591.5135727999732,1591.5135727999732,1591.5135727999732,1591.4975017999823,f,1591.497545899998,,,1591.4975568999944,None,,,1.9516742000123486,0.2880462999746669,,,,,,,,,,00043,001,2026-01-17_15h59.33.115,MST_task,2024.2.0,59.9518227113477,2026-01-17 15h59.41.579092 +0530,
,Objects\051a.jpg,44,0,45,,,,,,,None,j,2.0599921999964863,None,,,,,,45,0,44,1591.5135727999732,,,,,,,,,,,,,,,,,,,,,,,,,,,,,,1591.4976235999784,1591.5135727999732,1591.9971789999981,,,,,,,,,,,,,,1592.013692299981,,,,,,,,,,,,,1592.006296699983,1592.013692299981,1592.013692299981,1592.013692299981,1595.0135572,1595.0135572,1595.0135572,1594.9975034999952,None,1594.9975435999804,1595.0135572,1595.0135572,1597.0806838999852,j,2.0599921999964863,None,,,,,,,,,,,,00043,001,2026-01-17_15h59.33.115,MST_task,2024.2.0,59.9518227113477,2026-01-17 15h59.41.579092 +0530,
,Objects\076a.jpg,45,0,46,,,,,,,f,None,,,1.6119186999858357,0.27307749999454245,,,,46,0,45,1597.0968951999967,,,,,,,,,,,,,,,,,,,,,,,,,,,,,,1597.0807721999881,1597.0968951999967,1597.5809700999816,,,,,,,,,,,,,,1597.5971289000008,,,,,,,,,,,,,1597.5907508999808,1597.5971289000008,1597.5971289000008,1597.5971289000008,1600.5967531999922,1600.5967531999922,1600.5967531999922,1600.5810264999745,f,1600.5810796000005,,,1600.5810912999732,None,,,1.6119186999858357,0.27307749999454245,,,,,,,,,,00043,001,2026-01-17_15h59.33.115,MST_task,2024.2.0,59.9518227113477,2026-01-17 15h59.41.579092 +0530,
,Objects\166a.jpg,46,0,47,,,,,,,f,None,,,1.687788899987936,0.27995340002235025,,,,47,0,46,1600.5967531999922,,,,,,,,,,,,,,,,,,,,,,,,,,,,,,1600.5812126999954,1600.5967531999922,1601.0805292000005,,,,,,,,,,,,,,1601.0970199999865,,,,,,,,,,,,,1601.0897113999818,1601.0970199999865,1601.0970199999865,1601.0970199999865,1604.096921199991,1604.096921199991,1604.096921199991,1604.0807036999904,f,1604.0807488999853,,,1604.0807595999795,None,,,1.687788899987936,0.27995340002235025,,,,,,,,,,00043,001,2026-01-17_15h59.33.115,MST_task,2024.2.0,59.9518227113477,2026-01-17 15h59.41.579092 +0530,
,Objects\015a.jpg,47,0,48,,,,,,,f,None,,,1.8680621999956202,0.239974500000244,,,,48,0,47,1604.096921199991,,,,,,,,,,,,,,,,,,,,,,,,,,,,,,1604.0808572999958,1604.096921199991,1604.580489199987,,,,,,,,,,,,,,1604.5971808999893,,,,,,,,,,,,,1604.5907153000007,1604.5971808999893,1604.5971808999893,1604.5971808999893,1607.596931899985,1607.596931899985,1607.596931899985,1607.5807375999866,f,1607.5807819999754,,,1607.5807927999995,None,,,1.8680621999956202,0.239974500000244,,,,,,,,,,00043,001,2026-01-17_15h59.33.115,MST_task,2024.2.0,59.9518227113477,2026-01-17 15h59.41.579092 +0530,
,Objects\064a.jpg,48,0,49,,,,,,,f,None,,,1.6480864000041038,0.24003950000042096,,,,49,0,48,1607.596931899985,,,,,,,,,,,,,,,,,,,,,,,,,,,,,,1607.5808880999975,1607.596931899985,1608.0804175999947,,,,,,,,,,,,,,1608.0971044999897,,,,,,,,,,,,,1608.0893252999813,1608.0971044999897,1608.0971044999897,1608.0971044999897,1611.0969141999958,1611.0969141999958,1611.0969141999958,1611.0806787999754,f,1611.0807222999865,,,1611.0807329999807,None,,,1.6480864000041038,0.24003950000042096,,,,,,,,,,00043,001,2026-01-17_15h59.33.115,MST_task,2024.2.0,59.9518227113477,2026-01-17 15h59.41.579092 +0530,
,Scenes\090a.jpg,49,0,50,,,,,,,None,j,0.2519132000161335,None,,,,,,50,0,49,1611.0969141999958,,,,,,,,,,,,,,,,,,,,,,,,,,,,,,1611.080830299994,1611.0969141999958,1611.580596499989,,,,,,,,,,,,,,1611.60256509998,,,,,,,,,,,,,1611.6000573999772,1611.60256509998,1611.60256509998,1611.60256509998,,,,1614.5971769999887,None,1614.5988004999817,1614.6135792999994,1614.6135792999994,1614.8806721,j,0.2519132000161335,None,,,,,,,,,,,,00043,001,2026-01-17_15h59.33.115,MST_task,2024.2.0,59.9518227113477,2026-01-17 15h59.41.579092 +0530,
,Scenes\132a.jpg,50,0,51,,,,,,,j,None,,,2.572227600001497,0.26403510000091046,,,,51,0,50,1614.8969317999727,,,,,,,,,,,,,,,,,,,,,,,,,,,,,,1614.880795199977,1614.8969317999727,1615.380481899978,,,,,,,,,,,,,,1615.397176999977,,,,,,,,,,,,,1615.3940471999813,1615.397176999977,1615.397176999977,1615.397176999977,1618.39671489998,1618.39671489998,1618.39671489998,1618.3809548999998,j,1618.3810017999785,,,1618.3810136999818,None,,,2.572227600001497,0.26403510000091046,,,,,,,,,,00043,001,2026-01-17_15h59.33.115,MST_task,2024.2.0,59.9518227113477,2026-01-17 15h59.41.579092 +0530,
,Scenes\060a.jpg,51,0,52,,,,,,,j,None,,,2.1454446999996435,0.2880165999813471,,,,52,0,51,1618.39671489998,,,,,,,,,,,,,,,,,,,,,,,,,,,,,,1618.3810817999765,1618.39671489998,1618.8805154000001,,,,,,,,,,,,,,1618.9199642999738,,,,,,,,,,,,,1618.9175350999867,1618.9199642999738,1618.9199642999738,1618.9199642999738,,,,1621.8968859999732,j,1621.8969313999987,,,1621.896943699976,None,,,2.1454446999996435,0.2880165999813471,,,,,,,,,,00043,001,2026-01-17_15h59.33.115,MST_task,2024.2.0,59.9518227113477,2026-01-17 15h59.41.579092 +0530,
,Scenes\067a.jpg,52,0,53,,,,,,,f,None,,,1.4211603000003379,0.26945799999521114,,,,53,0,52,1621.9135124999739,,,,,,,,,,,,,,,,,,,,,,,,,,,,,,1621.8970437999815,1621.9135124999739,1622.3970519999857,,,,,,,,,,,,,,1622.4141201999737,,,,,,,,,,,,,1622.4113511999894,1622.4141201999737,1622.4141201999737,1622.4141201999737,,,,1625.3970291999867,f,1625.3970731999725,,,1625.3970843999996,None,,,1.4211603000003379,0.26945799999521114,,,,,,,,,,00043,001,2026-01-17_15h59.33.115,MST_task,2024.2.0,59.9518227113477,2026-01-17 15h59.41.579092 +0530,
,Scenes\131a.jpg,53,0,54,,,,,,,j,None,,,2.399060299998382,0.25597820000257343,,,,54,0,53,1625.4134342999896,,,,,,,,,,,,,,,,,,,,,,,,,,,,,,1625.3974660999957,1625.4134342999896,1625.8969414999883,,,,,,,,,,,,,,1625.9144568999764,,,,,,,,,,,,,1625.9119690999796,1625.9144568999764,1625.9144568999764,1625.9144568999764,1628.9136224999966,1628.9136224999966,1628.9136224999966,1628.8973072999797,j,1628.8973517999984,,,1628.8973626999941,None,,,2.399060299998382,0.25597820000257343,,,,,,,,,,00043,001,2026-01-17_15h59.33.115,MST_task,2024.2.0,59.9518227113477,2026-01-17 15h59.41.579092 +0530,
,Scenes\155a.jpg,54,0,55,,,,,,,j,None,,,2.5556819000048563,0.19912219999241643,,,,55,0,54,1628.9136224999966,,,,,,,,,,,,,,,,,,,,,,,,,,,,,,1628.8974397999991,1628.9136224999966,1629.3969398999761,,,,,,,,,,,,,,1629.4140043999942,,,,,,,,,,,,,1629.4114942999731,1629.4140043999942,1629.4140043999942,1629.4140043999942,1632.4134892000002,1632.4134892000002,1632.4134892000002,1632.3972384999797,j,1632.397282299993,,,1632.3972931999888,None,,,2.5556819000048563,0.19912219999241643,,,,,,,,,,00043,001,2026-01-17_15h59.33.115,MST_task,2024.2.0,59.9518227113477,2026-01-17 15h59.41.579092 +0530,
,Scenes\141a.jpg,55,0,56,,,,,,,j,None,,,2.3987042999942787,0.16785410000011325,,,,56,0,55,1632.4134892000002,,,,,,,,,,,,,,,,,,,,,,,,,,,,,,1632.3973939999996,1632.4134892000002,1632.8971066999948,,,,,,,,,,,,,,1632.914176099992,,,,,,,,,,,,,1632.9086786999833,1632.914176099992,1632.914176099992,1632.914176099992,1635.913520299975,1635.913520299975,1635.913520299975,1635.8973354999907,j,1635.8973923999874,,,1635.8974042999907,None,,,2.3987042999942787,0.16785410000011325,,,,,,,,,,00043,001,2026-01-17_15h59.33.115,MST_task,2024.2.0,59.9518227113477,2026-01-17 15h59.41.579092 +0530,
,Objects\089a.jpg,56,0,57,,,,,,,None,j,1.9561583000177052,None,,,,,,57,0,56,1635.913520299975,,,,,,,,,,,,,,,,,,,,,,,,,,,,,,1635.8975008999987,1635.913520299975,1636.3970471999783,,,,,,,,,,,,,,1636.4139855999965,,,,,,,,,,,,,1636.408853699977,1636.4139855999965,1636.4139855999965,1636.4139855999965,1639.4135268999962,1639.4135268999962,1639.4135268999962,1639.3974906999792,None,1639.4001012999797,1639.4135268999962,1639.4135268999962,1641.3809711999784,j,1.9561583000177052,None,,,,,,,,,,,,00043,001,2026-01-17_15h59.33.115,MST_task,2024.2.0,59.9518227113477,2026-01-17 15h59.41.579092 +0530,
,Objects\007a.jpg,57,0,58,,,,,,,None,f,1.1532835000252817,None,,,,,,58,0,57,1641.3967108999786,,,,,,,,,,,,,,,,,,,,,,,,,,,,,,1641.3811073999968,1641.3967108999786,1641.880551499984,,,,,,,,,,,,,,1641.8971089999832,,,,,,,,,,,,,1641.8917903999973,1641.8971089999832,1641.8971089999832,1641.8971089999832,1644.8966861999943,1644.8966861999943,1644.8966861999943,1644.8807066999725,None,1644.8807464999845,1644.8966861999943,1644.8966861999943,1646.0639121999848,f,1.1532835000252817,None,,,,,,,,,,,,00043,001,2026-01-17_15h59.33.115,MST_task,2024.2.0,59.9518227113477,2026-01-17 15h59.41.579092 +0530,
,Objects\141a.jpg,58,0,59,,,,,,,None,j,1.0297069000080228,None,,,,,,59,0,58,1646.0802048999758,,,,,,,,,,,,,,,,,,,,,,,,,,,,,,1646.0640035999822,1646.0802048999758,1646.5637049999787,,,,,,,,,,,,,,1646.5805213999993,,,,,,,,,,,,,1646.5733656999946,1646.5805213999993,1646.5805213999993,1646.5805213999993,1649.5801845999958,1649.5801845999958,1649.5801845999958,1649.5640490999795,None,1649.564089499996,1649.5801845999958,1649.5801845999958,1650.6141236999829,j,1.0297069000080228,None,,,,,,,,,,,,00043,001,2026-01-17_15h59.33.115,MST_task,2024.2.0,59.9518227113477,2026-01-17 15h59.41.579092 +0530,
,Objects\173a.jpg,59,0,60,,,,,,,f,None,,,1.60663840000052,0.2802437999926042,,,,60,0,59,1650.6301901999977,,,,,,,,,,,,,,,,,,,,,,,,,,,,,,1650.614217800001,1650.6301901999977,1651.1137570999854,,,,,,,,,,,,,,1651.130415599997,,,,,,,,,,,,,1651.1234347999853,1651.130415599997,1651.130415599997,1651.130415599997,1654.130163599999,1654.130163599999,1654.130163599999,1654.1140401999874,f,1654.1140847999777,,,1654.114096299978,None,,,1.60663840000052,0.2802437999926042,,,,,,,,,,00043,001,2026-01-17_15h59.33.115,MST_task,2024.2.0,59.9518227113477,2026-01-17 15h59.41.579092 +0530,
,Objects\151a.jpg,60,0,61,,,,,,,f,None,,,2.0431730000127573,0.2559620999963954,,,,61,0,60,1654.130163599999,,,,,,,,,,,,,,,,,,,,,,,,,,,,,,1654.1141942999966,1654.130163599999,1654.6137018999725,,,,,,,,,,,,,,1654.6304084000003,,,,,,,,,,,,,1654.6228248999978,1654.6304084000003,1654.6304084000003,1654.6304084000003,1657.6301420999807,1657.6301420999807,1657.6301420999807,1657.6141047999845,f,1657.6141512999893,,,1657.6141624999873,None,,,2.0431730000127573,0.2559620999963954,,,,,,,,,,00043,001,2026-01-17_15h59.33.115,MST_task,2024.2.0,59.9518227113477,2026-01-17 15h59.41.579092 +0530,
,Objects\164a.jpg,61,0,62,,,,,,,f,None,,,1.7103862999938428,0.2566738000023179,,,,62,0,61,1657.6301420999807,,,,,,,,,,,,,,,,,,,,,,,,,,,,,,1657.6142298999766,1657.6301420999807,1658.1137291999767,,,,,,,,,,,,,,1658.1304438999796,,,,,,,,,,,,,1658.1229936999734,1658.1304438999796,1658.1304438999796,1658.1304438999796,1661.1301764999807,1661.1301764999807,1661.1301764999807,1661.1139550999796,f,1661.1139987999923,,,1661.114009299985,None,,,1.7103862999938428,0.2566738000023179,,,,,,,,,,00043,001,2026-01-17_15h59.33.115,MST_task,2024.2.0,59.9518227113477,2026-01-17 15h59.41.579092 +0530,
,Objects\177a.jpg,62,0,63,,,,,,,f,None,,,2.2519900999905076,0.10300350000034086,,,,63,0,62,1661.1301764999807,,,,,,,,,,,,,,,,,,,,,,,,,,,,,,1661.1141059999936,1661.1301764999807,1661.6137682999833,,,,,,,,,,,,,,1661.6303886999958,,,,,,,,,,,,,1661.6234973999963,1661.6303886999958,1661.6303886999958,1661.6303886999958,1664.6301851999888,1664.6301851999888,1664.6301851999888,1664.614228099992,f,1664.6142830999743,,,1664.6142945999745,None,,,2.2519900999905076,0.10300350000034086,,,,,,,,,,00043,001,2026-01-17_15h59.33.115,MST_task,2024.2.0,59.9518227113477,2026-01-17 15h59.41.579092 +0530,
,Scenes\138a.jpg,63,0,64,,,,,,,j,None,,,1.669729900022503,0.2320049999980256,,,,64,0,63,1664.6301851999888,,,,,,,,,,,,,,,,,,,,,,,,,,,,,,1664.6144030999858,1664.6301851999888,1665.1137383999885,,,,,,,,,,,,,,1665.1319081999827,,,,,,,,,,,,,1665.129548899975,1665.1319081999827,1665.1319081999827,1665.1319081999827,,,,1668.130417599983,j,1668.1320524999755,,,1668.1320704999962,None,,,1.669729900022503,0.2320049999980256,,,,,,,,,,00043,001,2026-01-17_15h59.33.115,MST_task,2024.2.0,59.9518227113477,2026-01-17 15h59.41.579092 +0530,
,Scenes\070a.jpg,64,0,65,,,,,,,None,f,0.6732461000210606,None,,,,,,65,0,64,1668.146689199988,,,,,,,,,,,,,,,,,,,,,,,,,,,,,,1668.1321721999848,1668.146689199988,1668.6304543999722,,,,,,,,,,,,,,1668.6506419999932,,,,,,,,,,,,,1668.6481171999767,1668.6506419999932,1668.6506419999932,1668.6506419999932,,,,1671.646929999988,None,1671.6469716999854,1671.6635769999993,1671.6635769999993,1672.3470854999905,f,0.6732461000210606,None,,,,,,,,,,,,00043,001,2026-01-17_15h59.33.115,MST_task,2024.2.0,59.9518227113477,2026-01-17 15h59.41.579092 +0530,
,Scenes\183a.jpg,65,0,66,,,,,,,f,None,,,2.5836193000141066,0.21635370000149123,,,,66,0,65,1672.3635121999832,,,,,,,,,,,,,,,,,,,,,,,,,,,,,,1672.347205099999,1672.3635121999832,1672.8470903999987,,,,,,,,,,,,,,1672.8652104999928,,,,,,,,,,,,,1672.863169999997,1672.8652104999928,1672.8652104999928,1672.8652104999928,,,,1675.86377299999,f,1675.8638153999927,,,1675.863827299996,None,,,2.5836193000141066,0.21635370000149123,,,,,,,,,,00043,001,2026-01-17_15h59.33.115,MST_task,2024.2.0,59.9518227113477,2026-01-17 15h59.41.579092 +0530,
,Scenes\084a.jpg,66,0,67,,,,,,,j,None,,,1.4025607999938074,0.1667952999996487,,,,67,0,66,1675.8802022999735,,,,,,,,,,,,,,,,,,,,,,,,,,,,,,1675.8639286999824,1675.8802022999735,1676.363759299973,,,,,,,,,,,,,,1676.3835331999871,,,,,,,,,,,,,1676.381184799975,1676.3835331999871,1676.3835331999871,1676.3835331999871,,,,1679.3804781999788,j,1679.3805201999785,,,1679.380532399984,None,,,1.4025607999938074,0.1667952999996487,,,,,,,,,,00043,001,2026-01-17_15h59.33.115,MST_task,2024.2.0,59.9518227113477,2026-01-17 15h59.41.579092 +0530,
,Scenes\040a.jpg,67,0,68,,,,,,,f,None,,,2.31061650000629,0.20690520000061952,,,,68,0,67,1679.3967781999963,,,,,,,,,,,,,,,,,,,,,,,,,,,,,,1679.3806299999997,1679.3967781999963,1679.8804081999988,,,,,,,,,,,,,,1679.8993790999812,,,,,,,,,,,,,1679.8970359999803,1679.8993790999812,1679.8993790999812,1679.8993790999812,,,,1682.8969541999977,f,1682.896997599979,,,1682.8970090999792,None,,,2.31061650000629,0.20690520000061952,,,,,,,,,,00043,001,2026-01-17_15h59.33.115,MST_task,2024.2.0,59.9518227113477,2026-01-17 15h59.41.579092 +0530,
,Scenes\008a.jpg,68,0,69,,,,,,,None,f,1.1717485999979544,None,,,,,,69,0,68,1682.9135224999918,,,,,,,,,,,,,,,,,,,,,,,,,,,,,,1682.8971153999737,1682.9135224999918,1683.397020399978,,,,,,,,,,,,,,1683.4141392999736,,,,,,,,,,,,,1683.410570099979,1683.4141392999736,1683.4141392999736,1683.4141392999736,1686.4135137999838,1686.4135137999838,1686.4135137999838,1686.3971801999724,None,1686.3972190999775,1686.4135137999838,1686.4135137999838,1687.5971688999853,f,1.1717485999979544,None,,,,,,,,,,,,00043,001,2026-01-17_15h59.33.115,MST_task,2024.2.0,59.9518227113477,2026-01-17 15h59.41.579092 +0530,
,Scenes\184a.jpg,69,0,70,,,,,,,j,None,,,1.1427507000043988,0.2079387000121642,,,,70,0,69,1687.6134274999786,,,,,,,,,,,,,,,,,,,,,,,,,,,,,,1687.5972635999788,1687.6134274999786,1688.0971813999931,,,,,,,,,,,,,,1688.114119099977,,,,,,,,,,,,,1688.1105497999815,1688.114119099977,1688.114119099977,1688.114119099977,1691.1135157999815,1691.1135157999815,1691.1135157999815,1691.097313699982,j,1691.0973584999738,,,1691.097369999974,None,,,1.1427507000043988,0.2079387000121642,,,,,,,,,,00043,001,2026-01-17_15h59.33.115,MST_task,2024.2.0,59.9518227113477,2026-01-17 15h59.41.579092 +0530,
,Objects\113a.jpg,70,0,71,,,,,,,None,f,0.15553820002241991,None,,,,,,71,0,70,1691.1135157999815,,,,,,,,,,,,,,,,,,,,,,,,,,,,,,1691.0974347999727,1691.1135157999815,1691.5970324999944,,,,,,,,,,,,,,1691.6139956999978,,,,,,,,,,,,,1691.6101024999807,1691.6139956999978,1691.6139956999978,1691.6139956999978,1694.6135233999812,1694.6135233999812,1694.6135233999812,1694.5973489999888,None,1694.5994118999806,1694.6135233999812,1694.6135233999812,1694.7806563999911,f,0.15553820002241991,None,,,,,,,,,,,,00043,001,2026-01-17_15h59.33.115,MST_task,2024.2.0,59.9518227113477,2026-01-17 15h59.41.579092 +0530,
,Objects\054a.jpg,71,0,72,,,,,,,None,j,0.22531880001770332,None,,,,,,72,0,71,1694.7967043999815,,,,,,,,,,,,,,,,,,,,,,,,,,,,,,1694.780740999995,1694.7967043999815,1695.2803245999967,,,,,,,,,,,,,,1695.296989800001,,,,,,,,,,,,,1695.2894643999753,1695.296989800001,1695.296989800001,1695.296989800001,1698.2967886999832,1698.2967886999832,1698.2967886999832,1698.2809596999723,None,1698.2810006999935,1698.2967886999832,1698.2967886999832,1698.5308231999807,j,0.22531880001770332,None,,,,,,,,,,,,00043,001,2026-01-17_15h59.33.115,MST_task,2024.2.0,59.9518227113477,2026-01-17 15h59.41.579092 +0530,
,Objects\184a.jpg,72,0,73,,,,,,,j,None,,,2.6500498999957927,0.24001169999246486,,,,73,0,72,1698.5468379999802,,,,,,,,,,,,,,,,,,,,,,,,,,,,,,1698.5309626999951,1698.5468379999802,1699.0303606999805,,,,,,,,,,,,,,1699.0471458999964,,,,,,,,,,,,,1699.0415848999983,1699.0471458999964,1699.0471458999964,1699.0471458999964,1702.0467951999744,1702.0467951999744,1702.0467951999744,1702.0308094999928,j,1702.03085749998,,,1702.0308687999786,None,,,2.6500498999957927,0.24001169999246486,,,,,,,,,,00043,001,2026-01-17_15h59.33.115,MST_task,2024.2.0,59.9518227113477,2026-01-17 15h59.41.579092 +0530,
,Objects\109a.jpg,73,0,74,,,,,,,j,None,,,1.8623252999968827,0.2396971999842208,,,,74,0,73,1702.0467951999744,,,,,,,,,,,,,,,,,,,,,,,,,,,,,,1702.0309770999884,1702.0467951999744,1702.5303623999935,,,,,,,,,,,,,,1702.5468669999973,,,,,,,,,,,,,1702.5407392999914,1702.5468669999973,1702.5468669999973,1702.5468669999973,1705.546782999998,1705.546782999998,1705.546782999998,1705.5306529999943,j,1705.5306954999978,,,1705.530706599995,None,,,1.8623252999968827,0.2396971999842208,,,,,,,,,,00043,001,2026-01-17_15h59.33.115,MST_task,2024.2.0,59.9518227113477,2026-01-17 15h59.41.579092 +0530,
,Objects\137a.jpg,74,0,75,,,,,,,None,f,0.7390791999932844,None,,,,,,75,0,74,1705.546782999998,,,,,,,,,,,,,,,,,,,,,,,,,,,,,,1705.5308075999783,1705.546782999998,1706.0304498999903,,,,,,,,,,,,,,1706.0470679999853,,,,,,,,,,,,,1706.0399254999938,1706.0470679999853,1706.0470679999853,1706.0470679999853,1709.04673609999,1709.04673609999,1709.04673609999,1709.0309176999726,None,1709.0309609999822,1709.04673609999,1709.04673609999,1709.7971148999932,f,0.7390791999932844,None,,,,,,,,,,,,00043,001,2026-01-17_15h59.33.115,MST_task,2024.2.0,59.9518227113477,2026-01-17 15h59.41.579092 +0530,
,Objects\037a.jpg,75,0,76,,,,,,,f,None,,,1.6871783999959007,0.2479526000097394,,,,76,0,75,1709.8135053999722,,,,,,,,,,,,,,,,,,,,,,,,,,,,,,1709.797201199981,1709.8135053999722,1710.297016299999,,,,,,,,,,,,,,1710.3137128999806,,,,,,,,,,,,,1710.3071247999906,1710.3137128999806,1710.3137128999806,1710.3137128999806,1713.3136301999912,1713.3136301999912,1713.3136301999912,1713.2973564999993,f,1713.2974011999904,,,1713.2974122999876,None,,,1.6871783999959007,0.2479526000097394,,,,,,,,,,00043,001,2026-01-17_15h59.33.115,MST_task,2024.2.0,59.9518227113477,2026-01-17 15h59.41.579092 +0530,
,Objects\098a.jpg,76,0,77,,,,,,,f,None,,,1.5715416999883018,0.29573809998692013,,,,77,0,76,1713.3136301999912,,,,,,,,,,,,,,,,,,,,,,,,,,,,,,1713.2975087999948,1713.3136301999912,1713.7972133999865,,,,,,,,,,,,,,1713.8137597999885,,,,,,,,,,,,,1713.80648259999,1713.8137597999885,1713.8137597999885,1713.8137597999885,1716.8135454999865,1716.8135454999865,1716.8135454999865,1716.7975657999923,f,1716.7976086999988,,,1716.7976192999922,None,,,1.5715416999883018,0.29573809998692013,,,,,,,,,,00043,001,2026-01-17_15h59.33.115,MST_task,2024.2.0,59.9518227113477,2026-01-17 15h59.41.579092 +0530,
,Scenes\156a.jpg,77,0,78,,,,,,,j,None,,,1.6934007999952883,0.24874959999579005,,,,78,0,77,1716.8135454999865,,,,,,,,,,,,,,,,,,,,,,,,,,,,,,1716.7977145999903,1716.8135454999865,1717.297226499999,,,,,,,,,,,,,,1717.3154629999772,,,,,,,,,,,,,1717.3130523999862,1717.3154629999772,1717.3154629999772,1717.3154629999772,,,,1720.3138899999904,j,1720.3155066999898,,,1720.315524799982,None,,,1.6934007999952883,0.24874959999579005,,,,,,,,,,00043,001,2026-01-17_15h59.33.115,MST_task,2024.2.0,59.9518227113477,2026-01-17 15h59.41.579092 +0530,
,Scenes\059a.jpg,78,0,79,,,,,,,j,None,,,2.55944450001698,0.1829211000003852,,,,79,0,78,1720.3302158999722,,,,,,,,,,,,,,,,,,,,,,,,,,,,,,1720.3156302999996,1720.3302158999722,1720.8138931999856,,,,,,,,,,,,,,1720.8343945999804,,,,,,,,,,,,,1720.8319816000003,1720.8343945999804,1720.8343945999804,1720.8343945999804,,,,1723.830538099981,j,1723.8305812999897,,,1723.830593199993,None,,,2.55944450001698,0.1829211000003852,,,,,,,,,,00043,001,2026-01-17_15h59.33.115,MST_task,2024.2.0,59.9518227113477,2026-01-17 15h59.41.579092 +0530,
,Scenes\167a.jpg,79,0,80,,,,,,,f,None,,,2.13099860001239,0.23998240000219084,,,,80,0,79,1723.8468621999782,,,,,,,,,,,,,,,,,,,,,,,,,,,,,,1723.8306939999748,1723.8468621999782,1724.3305867999734,,,,,,,,,,,,,,1724.3499348999758,,,,,,,,,,,,,1724.3472422999912,1724.3499348999758,1724.3499348999758,1724.3499348999758,,,,1727.3470899999957,f,1727.3471357999952,,,1727.3471471999947,None,,,2.13099860001239,0.23998240000219084,,,,,,,,,,00043,001,2026-01-17_15h59.33.115,MST_task,2024.2.0,59.9518227113477,2026-01-17 15h59.41.579092 +0530,
,Scenes\160a.jpg,80,0,81,,,,,,,j,None,,,1.7930240000132471,0.21599949998199008,,,,81,0,80,1727.363593999995,,,,,,,,,,,,,,,,,,,,,,,,,,,,,,1727.347255999979,1727.363593999995,1727.8472053999722,,,,,,,,,,,,,,1727.8640986999962,,,,,,,,,,,,,1727.8608233999985,1727.8640986999962,1727.8640986999962,1727.8640986999962,,,,1730.847228699975,j,1730.8472777999996,,,1730.8472900999768,None,,,1.7930240000132471,0.21599949998199008,,,,,,,,,,00043,001,2026-01-17_15h59.33.115,MST_task,2024.2.0,59.9518227113477,2026-01-17 15h59.41.579092 +0530,
,Scenes\095a.jpg,81,0,82,,,,,,,f,None,,,2.732527200016193,0.1682868000061717,,,,82,0,81,1730.863634599984,,,,,,,,,,,,,,,,,,,,,,,,,,,,,,1730.8473889999732,1730.863634599984,1731.3470854999905,,,,,,,,,,,,,,1731.3642499999842,,,,,,,,,,,,,1731.3607006999955,1731.3642499999842,1731.3642499999842,1731.3642499999842,1734.363644099998,1734.363644099998,1734.363644099998,1734.347489399981,f,1734.3475313999807,,,1734.3475427999801,None,,,2.732527200016193,0.1682868000061717,,,,,,,,,,00043,001,2026-01-17_15h59.33.115,MST_task,2024.2.0,59.9518227113477,2026-01-17 15h59.41.579092 +0530,
,Scenes\187a.jpg,82,0,83,,,,,,,None,j,1.1846605999744497,None,,,,,,83,0,82,1734.363644099998,,,,,,,,,,,,,,,,,,,,,,,,,,,,,,1734.3476401999942,1734.363644099998,1734.8472501999931,,,,,,,,,,,,,,1734.8649871999805,,,,,,,,,,,,,1734.8622484999942,1734.8649871999805,1734.8649871999805,1734.8649871999805,,,,1737.8638549999741,None,1737.863899399992,1737.8803282999725,1737.8803282999725,1739.0806107999815,j,1.1846605999744497,None,,,,,,,,,,,,00043,001,2026-01-17_15h59.33.115,MST_task,2024.2.0,59.9518227113477,2026-01-17 15h59.41.579092 +0530,
,Scenes\049a.jpg,83,0,84,,,,,,,j,None,,,1.8200359999900684,0.1842123999958858,,,,84,0,83,1739.096916599985,,,,,,,,,,,,,,,,,,,,,,,,,,,,,,1739.080700599996,1739.096916599985,1739.5805821999966,,,,,,,,,,,,,,1739.5973789999844,,,,,,,,,,,,,1739.5936120999977,1739.5973789999844,1739.5973789999844,1739.5973789999844,1742.5969668999896,1742.5969668999896,1742.5969668999896,1742.5808330999862,j,1742.5808789999865,,,1742.580889999983,None,,,1.8200359999900684,0.1842123999958858,,,,,,,,,,00043,001,2026-01-17_15h59.33.115,MST_task,2024.2.0,59.9518227113477,2026-01-17 15h59.41.579092 +0530,
,Objects\075a.jpg,84,0,85,,,,,,,f,None,,,1.9834301999944728,0.2008862000075169,,,,85,0,84,1742.5969668999896,,,,,,,,,,,,,,,,,,,,,,,,,,,,,,1742.580989399983,1742.5969668999896,1743.0807057999773,,,,,,,,,,,,,,1743.0973270999966,,,,,,,,,,,,,1743.0932920999767,1743.0973270999966,1743.0973270999966,1743.0973270999966,1746.096955599991,1746.096955599991,1746.096955599991,1746.08086669998,f,1746.0829454999766,,,1746.082961899985,None,,,1.9834301999944728,0.2008862000075169,,,,,,,,,,00043,001,2026-01-17_15h59.33.115,MST_task,2024.2.0,59.9518227113477,2026-01-17 15h59.41.579092 +0530,
,Objects\009a.jpg,85,0,86,,,,,,,f,None,,,1.756280000001425,0.22420909997890703,,,,86,0,85,1746.096955599991,,,,,,,,,,,,,,,,,,,,,,,,,,,,,,1746.0832744999789,1746.096955599991,1746.580571599974,,,,,,,,,,,,,,1746.5971208999981,,,,,,,,,,,,,1746.5899563999847,1746.5971208999981,1746.5971208999981,1746.5971208999981,1749.596822499996,1749.596822499996,1749.596822499996,1749.580833199987,f,1749.5808789999865,,,1749.5808901999844,None,,,1.756280000001425,0.22420909997890703,,,,,,,,,,00043,001,2026-01-17_15h59.33.115,MST_task,2024.2.0,59.9518227113477,2026-01-17 15h59.41.579092 +0530,
,Objects\035a.jpg,86,0,87,,,,,,,f,None,,,1.9764828000043053,0.159965300001204,,,,87,0,86,1749.596822499996,,,,,,,,,,,,,,,,,,,,,,,,,,,,,,1749.5809590999852,1749.596822499996,1750.0805606999784,,,,,,,,,,,,,,1750.0972181999823,,,,,,,,,,,,,1750.089507799974,1750.0972181999823,1750.0972181999823,1750.0972181999823,1753.0968027999916,1753.0968027999916,1753.0968027999916,1753.0808148999931,f,1753.080857199995,,,1753.0808681999915,None,,,1.9764828000043053,0.159965300001204,,,,,,,,,,00043,001,2026-01-17_15h59.33.115,MST_task,2024.2.0,59.9518227113477,2026-01-17 15h59.41.579092 +0530,
,Objects\148a.jpg,87,0,88,,,,,,,f,None,,,2.5008798000053503,0.20789459999650717,,,,88,0,87,1753.0968027999916,,,,,,,,,,,,,,,,,,,,,,,,,,,,,,1753.0809333999932,1753.0968027999916,1753.580479999975,,,,,,,,,,,,,,1753.5970070999756,,,,,,,,,,,,,1753.5899787999806,1753.5970070999756,1753.5970070999756,1753.5970070999756,1756.5969018999895,1756.5969018999895,1756.5969018999895,1756.5809157999756,f,1756.5809605999966,,,1756.580971599993,None,,,2.5008798000053503,0.20789459999650717,,,,,,,,,,00043,001,2026-01-17_15h59.33.115,MST_task,2024.2.0,59.9518227113477,2026-01-17 15h59.41.579092 +0530,
,Objects\057a.jpg,88,0,89,,,,,,,None,f,0.3854329999885522,None,,,,,,89,0,88,1756.5969018999895,,,,,,,,,,,,,,,,,,,,,,,,,,,,,,1756.5810379999748,1756.5969018999895,1757.0805600999738,,,,,,,,,,,,,,1757.0972154999909,,,,,,,,,,,,,1757.089884999994,1757.0972154999909,1757.0972154999909,1757.0972154999909,1760.0969357999857,1760.0969357999857,1760.0969357999857,1760.080841499992,None,1760.0808801999956,1760.0969357999857,1760.0969357999857,1760.4973848999944,f,0.3854329999885522,None,,,,,,,,,,,,00043,001,2026-01-17_15h59.33.115,MST_task,2024.2.0,59.9518227113477,2026-01-17 15h59.41.579092 +0530,
,Objects\021a.jpg,89,0,90,,,,,,,None,f,0.37938320002285764,None,,,,,,90,0,89,1760.5135449999943,,,,,,,,,,,,,,,,,,,,,,,,,,,,,,1760.4974708999798,1760.5135449999943,1760.997105699993,,,,,,,,,,,,,,1761.013875899982,,,,,,,,,,,,,1761.007792199991,1761.013875899982,1761.013875899982,1761.013875899982,1764.0135660999804,1764.0135660999804,1764.0135660999804,1763.9975254999881,None,1763.997564899997,1764.0135660999804,1764.0135660999804,1764.3971556999895,f,0.37938320002285764,None,,,,,,,,,,,,00043,001,2026-01-17_15h59.33.115,MST_task,2024.2.0,59.9518227113477,2026-01-17 15h59.41.579092 +0530,
,Objects\027a.jpg,90,0,91,,,,,,,f,None,,,1.4635100000014063,0.23205089999828488,,,,91,0,90,1764.413505799981,,,,,,,,,,,,,,,,,,,,,,,,,,,,,,1764.3972485999984,1764.413505799981,1764.8970915999962,,,,,,,,,,,,,,1764.9137979999941,,,,,,,,,,,,,1764.9065365999995,1764.9137979999941,1764.9137979999941,1764.9137979999941,1767.9135690999974,1767.9135690999974,1767.9135690999974,1767.8974286999728,f,1767.8974755999807,,,1767.8974867999787,None,,,1.4635100000014063,0.23205089999828488,,,,,,,,,,00043,001,2026-01-17_15h59.33.115,MST_task,2024.2.0,59.9518227113477,2026-01-17 15h59.41.579092 +0530,
,Scenes\010a.jpg,91,0,92,,,,,,,j,None,,,2.558472599979723,0.14400130001013167,,,,92,0,91,1767.9135690999974,,,,,,,,,,,,,,,,,,,,,,,,,,,,,,1767.8975548999733,1767.9135690999974,1768.3970971999806,,,,,,,,,,,,,,1768.4189243,,,,,,,,,,,,,1768.4166079999995,1768.4189243,1768.4189243,1768.4189243,,,,1771.413725899998,j,1771.4153438999783,,,1771.415362299973,None,,,2.558472599979723,0.14400130001013167,,,,,,,,,,00043,001,2026-01-17_15h59.33.115,MST_task,2024.2.0,59.9518227113477,2026-01-17 15h59.41.579092 +0530,
,Scenes\144a.jpg,92,0,93,,,,,,,None,j,0.2633305999916047,None,,,,,,93,0,92,1771.4303085999854,,,,,,,,,,,,,,,,,,,,,,,,,,,,,,1771.4154661999783,1771.4303085999854,1771.9137123999826,,,,,,,,,,,,,,1771.9307390999747,,,,,,,,,,,,,1771.9271534,1771.9307390999747,1771.9307390999747,1771.9307390999747,1774.9302202999825,1774.9302202999825,1774.9302202999825,1774.9142088999797,None,1774.9142492999963,1774.9302202999825,1774.9302202999825,1775.1972130999784,j,0.2633305999916047,None,,,,,,,,,,,,00043,001,2026-01-17_15h59.33.115,MST_task,2024.2.0,59.9518227113477,2026-01-17 15h59.41.579092 +0530,
,Scenes\073a.jpg,93,0,94,,,,,,,j,None,,,2.0475818999984767,0.1359124000009615,,,,94,0,93,1775.213559099997,,,,,,,,,,,,,,,,,,,,,,,,,,,,,,1775.1973323999846,1775.213559099997,1775.6975562999723,,,,,,,,,,,,,,,,,,,,,,,,,,,1775.711257899995,1775.7140661999874,1775.7140661999874,1775.7140661999874,1778.7135520999727,1778.7135520999727,1778.7135520999727,1778.6974017999892,j,1778.6974458999757,,,1778.6974571999745,None,,,2.0475818999984767,0.1359124000009615,,,,,,,,,,00043,001,2026-01-17_15h59.33.115,MST_task,2024.2.0,59.9518227113477,2026-01-17 15h59.41.579092 +0530,
,Scenes\169a.jpg,94,0,95,,,,,,,j,None,,,2.0594470000069123,0.22420530000817962,,,,95,0,94,1778.7135520999727,,,,,,,,,,,,,,,,,,,,,,,,,,,,,,1778.6975693999848,1778.7135520999727,1779.1969557999982,,,,,,,,,,,,,,1779.2138417999959,,,,,,,,,,,,,1779.2091136999952,1779.2138417999959,1779.2138417999959,1779.2138417999959,1782.213605899975,1782.213605899975,1782.213605899975,1782.1973524999921,j,1782.197394799994,,,1782.1974052999867,None,,,2.0594470000069123,0.22420530000817962,,,,,,,,,,00043,001,2026-01-17_15h59.33.115,MST_task,2024.2.0,59.9518227113477,2026-01-17 15h59.41.579092 +0530,
,Scenes\086a.jpg,95,0,96,,,,,,,j,None,,,1.2444123000022955,0.2091006999835372,,,,96,0,95,1782.213605899975,,,,,,,,,,,,,,,,,,,,,,,,,,,,,,1782.1974792999972,1782.213605899975,1782.6970339999825,,,,,,,,,,,,,,1782.716678799974,,,,,,,,,,,,,1782.7143486999848,1782.716678799974,1782.716678799974,1782.716678799974,,,,1785.7138254999882,j,1785.71387029998,,,1785.7138820999826,None,,,1.2444123000022955,0.2091006999835372,,,,,,,,,,00043,001,2026-01-17_15h59.33.115,MST_task,2024.2.0,59.9518227113477,2026-01-17 15h59.41.579092 +0530,
,Scenes\123a.jpg,96,0,97,,,,,,,j,None,,,1.138998000009451,0.26406909999786876,,,,97,0,96,1785.7301923999912,,,,,,,,,,,,,,,,,,,,,,,,,,,,,,1785.7139499999757,1785.7301923999912,1786.2137136999809,,,,,,,,,,,,,,1786.2309295999876,,,,,,,,,,,,,1786.2271085999964,1786.2309295999876,1786.2309295999876,1786.2309295999876,1789.230221099977,1789.230221099977,1789.230221099977,1789.2140786999953,j,1789.2141254999733,,,1789.2141367000004,None,,,1.138998000009451,0.26406909999786876,,,,,,,,,,00043,001,2026-01-17_15h59.33.115,MST_task,2024.2.0,59.9518227113477,2026-01-17 15h59.41.579092 +0530,
,Scenes\032a.jpg,97,0,98,,,,,,,j,None,,,2.585832099983236,0.2079336000024341,,,,98,0,97,1789.230221099977,,,,,,,,,,,,,,,,,,,,,,,,,,,,,,1789.214240399975,1789.230221099977,1789.7137667999777,,,,,,,,,,,,,,1789.7352064999868,,,,,,,,,,,,,1789.732629599981,1789.7352064999868,1789.7352064999868,1789.7352064999868,,,,1792.7303956999967,j,1792.7304385999741,,,1792.730450299976,None,,,2.585832099983236,0.2079336000024341,,,,,,,,,,00043,001,2026-01-17_15h59.33.115,MST_task,2024.2.0,59.9518227113477,2026-01-17 15h59.41.579092 +0530,
,Objects\126a.jpg,98,0,99,,,,,,,None,f,1.8350238999992143,None,,,,,,99,0,98,1792.7468016999774,,,,,,,,,,,,,,,,,,,,,,,,,,,,,,1792.7305176999944,1792.7468016999774,1793.2303958999983,,,,,,,,,,,,,,1793.2472254999739,,,,,,,,,,,,,1793.2419827999838,1793.2472254999739,1793.2472254999739,1793.2472254999739,1796.2468353000004,1796.2468353000004,1796.2468353000004,1796.2307968999958,None,1796.232873299974,1796.2468353000004,1796.2468353000004,1798.0974496999988,f,1.8350238999992143,None,,,,,,,,,,,,00043,001,2026-01-17_15h59.33.115,MST_task,2024.2.0,59.9518227113477,2026-01-17 15h59.41.579092 +0530,
,Objects\070a.jpg,99,0,100,,,,,,,f,None,,,1.9159206000040285,0.232561299984809,,,,100,0,99,1798.113605199993,,,,,,,,,,,,,,,,,,,,,,,,,,,,,,1798.0975397999864,1798.113605199993,1798.5970074999786,,,,,,,,,,,,,,1798.6137299999828,,,,,,,,,,,,,1798.6066793999926,1798.6137299999828,1798.6137299999828,1798.6137299999828,1801.6135601999995,1801.6135601999995,1801.6135601999995,1801.5973469999735,f,1801.5973914999922,,,1801.5974030999932,None,,,1.9159206000040285,0.232561299984809,,,,,,,,,,00043,001,2026-01-17_15h59.33.115,MST_task,2024.2.0,59.9518227113477,2026-01-17 15h59.41.579092 +0530,
,Objects\163a.jpg,100,0,101,,,,,,,f,None,,,2.7120872999948915,0.23203069998999126,,,,101,0,100,1801.6135601999995,,,,,,,,,,,,,,,,,,,,,,,,,,,,,,1801.5974692999735,1801.6135601999995,1802.0970369999995,,,,,,,,,,,,,,1802.1137309999904,,,,,,,,,,,,,1802.1060511999822,1802.1137309999904,1802.1137309999904,1802.1137309999904,1805.113475799997,1805.113475799997,1805.113475799997,1805.0972363999754,f,1805.097279699985,,,1805.0972898999753,None,,,2.7120872999948915,0.23203069998999126,,,,,,,,,,00043,001,2026-01-17_15h59.33.115,MST_task,2024.2.0,59.9518227113477,2026-01-17 15h59.41.579092 +0530,
,Objects\149a.jpg,101,0,102,,,,,,,j,None,,,1.243106199981412,0.2160337000095751,,,,102,0,101,1805.113475799997,,,,,,,,,,,,,,,,,,,,,,,,,,,,,,1805.0973549999762,1805.113475799997,1805.5969755999977,,,,,,,,,,,,,,1805.6138816999737,,,,,,,,,,,,,1805.6059682999912,1805.6138816999737,1805.6138816999737,1805.6138816999737,1808.6135206999897,1808.6135206999897,1808.6135206999897,1808.597386599984,j,1808.5974302999966,,,1808.5974414999946,None,,,1.243106199981412,0.2160337000095751,,,,,,,,,,00043,001,2026-01-17_15h59.33.115,MST_task,2024.2.0,59.9518227113477,2026-01-17 15h59.41.579092 +0530,
,Objects\134a.jpg,102,0,103,,,,,,,j,None,,,2.439772700017784,0.2479715999797918,,,,103,0,102,1808.6135206999897,,,,,,,,,,,,,,,,,,,,,,,,,,,,,,1808.5975417000009,1808.6135206999897,1809.0970134999952,,,,,,,,,,,,,,1809.1137780999998,,,,,,,,,,,,,1809.105969199998,1809.1137780999998,1809.1137780999998,1809.1137780999998,1812.1135559999966,1812.1135559999966,1812.1135559999966,1812.0971715999767,j,1812.0972142999817,,,1812.0972250999766,None,,,2.439772700017784,0.2479715999797918,,,,,,,,,,00043,001,2026-01-17_15h59.33.115,MST_task,2024.2.0,59.9518227113477,2026-01-17 15h59.41.579092 +0530,
,Objects\078a.jpg,103,0,104,,,,,,,f,None,,,1.172743699979037,0.35102390000247397,,,,104,0,103,1812.1135559999966,,,,,,,,,,,,,,,,,,,,,,,,,,,,,,1812.0973215999838,1812.1135559999966,1812.5969862999918,,,,,,,,,,,,,,1812.6137873999833,,,,,,,,,,,,,1812.605257999996,1812.6137873999833,1812.6137873999833,1812.6137873999833,1815.6135966999864,1815.6135966999864,1815.6135966999864,1815.5972719999845,f,1815.5973138999834,,,1815.5973242999753,None,,,1.172743699979037,0.35102390000247397,,,,,,,,,,00043,001,2026-01-17_15h59.33.115,MST_task,2024.2.0,59.9518227113477,2026-01-17 15h59.41.579092 +0530,
,Objects\138a.jpg,104,0,105,,,,,,,j,None,,,1.1919849000114482,0.25539870001375675,,,,105,0,104,1815.6135966999864,,,,,,,,,,,,,,,,,,,,,,,,,,,,,,1815.5973900999816,1815.6135966999864,1816.0970343999797,,,,,,,,,,,,,,1816.1137307999888,,,,,,,,,,,,,1816.1061868999968,1816.1137307999888,1816.1137307999888,1816.1137307999888,1819.1135538999806,1819.1135538999806,1819.1135538999806,1819.0972064999805,j,1819.09724979999,,,1819.0972607999865,None,,,1.1919849000114482,0.25539870001375675,,,,,,,,,,00043,001,2026-01-17_15h59.33.115,MST_task,2024.2.0,59.9518227113477,2026-01-17 15h59.41.579092 +0530,
,Scenes\058a.jpg,105,0,106,,,,,,,f,None,,,2.7376271999964956,None,,,,106,0,105,1819.1135538999806,,,,,,,,,,,,,,,,,,,,,,,,,,,,,,1819.0973578999983,1819.1135538999806,1819.596994499996,,,,,,,,,,,,,,1819.6160477999947,,,,,,,,,,,,,1819.6137805999897,1819.6160477999947,1819.6160477999947,1819.6160477999947,,,,1822.6137898999732,f,1822.6154056999949,,,1822.615424299991,None,,,2.7376271999964956,None,,,,,,,,,,00043,001,2026-01-17_15h59.33.115,MST_task,2024.2.0,59.9518227113477,2026-01-17 15h59.41.579092 +0530,
,Scenes\034a.jpg,106,0,107,,,,,,,f,None,,,2.6789399000117555,0.25591149998945184,,,,107,0,106,1822.630215799989,,,,,,,,,,,,,,,,,,,,,,,,,,,,,,1822.615527499991,1822.630215799989,1823.113817799982,,,,,,,,,,,,,,1823.1387243999925,,,,,,,,,,,,,1823.1360576999723,1823.1387243999925,1823.1387243999925,1823.1387243999925,,,,1826.13047069998,f,1826.1305134999857,,,1826.130524999986,None,,,2.6789399000117555,0.25591149998945184,,,,,,,,,,00043,001,2026-01-17_15h59.33.115,MST_task,2024.2.0,59.9518227113477,2026-01-17 15h59.41.579092 +0530,
,Scenes\029a.jpg,107,0,108,,,,,,,j,None,,,1.5750859000254422,0.23997629998484626,,,,108,0,107,1826.1470519999857,,,,,,,,,,,,,,,,,,,,,,,,,,,,,,1826.1306240999838,1826.1470519999857,1826.630500499974,,,,,,,,,,,,,,1826.650224299985,,,,,,,,,,,,,1826.6476498999982,1826.650224299985,1826.650224299985,1826.650224299985,,,,1829.647062199976,j,1829.6471053999849,,,1829.6471168999851,None,,,1.5750859000254422,0.23997629998484626,,,,,,,,,,00043,001,2026-01-17_15h59.33.115,MST_task,2024.2.0,59.9518227113477,2026-01-17 15h59.41.579092 +0530,
,Scenes\068a.jpg,108,0,109,,,,,,,j,None,,,1.9411361000093166,0.239693499985151,,,,109,0,108,1829.6640439999755,,,,,,,,,,,,,,,,,,,,,,,,,,,,,,1829.6472177999967,1829.6640439999755,1830.1471953,,,,,,,,,,,,,,1830.1646909999836,,,,,,,,,,,,,1830.1625500999799,1830.1646909999836,1830.1646909999836,1830.1646909999836,,,,1833.16383949999,j,1833.1638826999988,,,1833.1638947999745,None,,,1.9411361000093166,0.239693499985151,,,,,,,,,,00043,001,2026-01-17_15h59.33.115,MST_task,2024.2.0,59.9518227113477,2026-01-17 15h59.41.579092 +0530,
,Scenes\077a.jpg,109,0,110,,,,,,,j,None,,,2.3764084999857005,0.21602910000365227,,,,110,0,109,1833.1803374999727,,,,,,,,,,,,,,,,,,,,,,,,,,,,,,1833.1639970999968,1833.1803374999727,1833.6638703999924,,,,,,,,,,,,,,1833.6809738999873,,,,,,,,,,,,,1833.6778921999794,1833.6809738999873,1833.6809738999873,1833.6809738999873,1836.680345699977,1836.680345699977,1836.680345699977,1836.6641340999922,j,1836.6641767999972,,,1836.664187199989,None,,,2.3764084999857005,0.21602910000365227,,,,,,,,,,00043,001,2026-01-17_15h59.33.115,MST_task,2024.2.0,59.9518227113477,2026-01-17 15h59.41.579092 +0530,
,Scenes\103a.jpg,110,0,111,,,,,,,j,None,,,1.977665700018406,0.2320029999827966,,,,111,0,110,1836.680345699977,,,,,,,,,,,,,,,,,,,,,,,,,,,,,,1836.6642570999975,1836.680345699977,1837.1639706999995,,,,,,,,,,,,,,1837.1831613999966,,,,,,,,,,,,,1837.1807607999945,1837.1831613999966,1837.1831613999966,1837.1831613999966,,,,1840.1806397999753,j,1840.1806848999986,,,1840.1806961999973,None,,,1.977665700018406,0.2320029999827966,,,,,,,,,,00043,001,2026-01-17_15h59.33.115,MST_task,2024.2.0,59.9518227113477,2026-01-17 15h59.41.579092 +0530,
,Scenes\164a.jpg,111,0,112,,,,,,,f,None,,,2.3194300000031944,0.2804003999917768,,,,112,0,111,1840.1968716999982,,,,,,,,,,,,,,,,,,,,,,,,,,,,,,1840.1808042999764,1840.1968716999982,1840.680665199994,,,,,,,,,,,,,,1840.6974352999823,,,,,,,,,,,,,1840.694821299985,1840.6974352999823,1840.6974352999823,1840.6974352999823,1843.6969954999804,1843.6969954999804,1843.6969954999804,1843.6809484999976,f,1843.6809909000003,,,1843.6810012999922,None,,,2.3194300000031944,0.2804003999917768,,,,,,,,,,00043,001,2026-01-17_15h59.33.115,MST_task,2024.2.0,59.9518227113477,2026-01-17 15h59.41.579092 +0530,
,Objects\157a.jpg,112,0,113,,,,,,,f,None,,,1.6438639999832958,0.28871150000486523,,,,113,0,112,1843.6969954999804,,,,,,,,,,,,,,,,,,,,,,,,,,,,,,1843.6810665999947,1843.6969954999804,1844.1805965999956,,,,,,,,,,,,,,1844.1975173999963,,,,,,,,,,,,,1844.192869599996,1844.1975173999963,1844.1975173999963,1844.1975173999963,1847.1969821999955,1847.1969821999955,1847.1969821999955,1847.1811108999827,f,1847.1830936999759,,,1847.1831112999935,None,,,1.6438639999832958,0.28871150000486523,,,,,,,,,,00043,001,2026-01-17_15h59.33.115,MST_task,2024.2.0,59.9518227113477,2026-01-17 15h59.41.579092 +0530,
,Objects\140a.jpg,113,0,114,,,,,,,j,None,,,1.7915079000231344,0.23318699997616932,,,,114,0,113,1847.1969821999955,,,,,,,,,,,,,,,,,,,,,,,,,,,,,,1847.1832130999828,1847.1969821999955,1847.6805832999817,,,,,,,,,,,,,,1847.6973589999834,,,,,,,,,,,,,1847.6896393999923,1847.6973589999834,1847.6973589999834,1847.6973589999834,1850.6969298999757,1850.6969298999757,1850.6969298999757,1850.6809377999743,j,1850.6809811999847,,,1850.6809921999811,None,,,1.7915079000231344,0.23318699997616932,,,,,,,,,,00043,001,2026-01-17_15h59.33.115,MST_task,2024.2.0,59.9518227113477,2026-01-17 15h59.41.579092 +0530,
,Objects\171a.jpg,114,0,115,,,,,,,j,None,,,1.3161249000113457,0.22335819998988882,,,,115,0,114,1850.6969298999757,,,,,,,,,,,,,,,,,,,,,,,,,,,,,,1850.6810600999743,1850.6969298999757,1851.1806898999785,,,,,,,,,,,,,,1851.1973729999736,,,,,,,,,,,,,1851.1900026999938,1851.1973729999736,1851.1973729999736,1851.1973729999736,1854.1970003999886,1854.1970003999886,1854.1970003999886,1854.180935899989,j,1854.1809784999932,,,1854.1809891999874,None,,,1.3161249000113457,0.22335819998988882,,,,,,,,,,00043,001,2026-01-17_15h59.33.115,MST_task,2024.2.0,59.9518227113477,2026-01-17 15h59.41.579092 +0530,
,Objects\093a.jpg,115,0,116,,,,,,,j,None,,,2.4884003000042867,0.23128770000766963,,,,116,0,115,1854.1970003999886,,,,,,,,,,,,,,,,,,,,,,,,,,,,,,1854.181087199977,1854.1970003999886,1854.680590999982,,,,,,,,,,,,,,1854.6971629999753,,,,,,,,,,,,,1854.689586099994,1854.6971629999753,1854.6971629999753,1854.6971629999753,1857.6968871999998,1857.6968871999998,1857.6968871999998,1857.6809617999825,j,1857.6810068999766,,,1857.6810177000007,None,,,2.4884003000042867,0.23128770000766963,,,,,,,,,,00043,001,2026-01-17_15h59.33.115,MST_task,2024.2.0,59.9518227113477,2026-01-17 15h59.41.579092 +0530,
,Objects\096a.jpg,116,0,117,,,,,,,f,None,,,1.276163499976974,0.2393840000149794,,,,117,0,116,1857.6968871999998,,,,,,,,,,,,,,,,,,,,,,,,,,,,,,1857.6810851999908,1857.6968871999998,1858.180558299995,,,,,,,,,,,,,,1858.1973999999755,,,,,,,,,,,,,1858.190334999992,1858.1973999999755,1858.1973999999755,1858.1973999999755,1861.196780499973,1861.196780499973,1861.196780499973,1861.180986499996,f,1861.1810402999981,,,1861.1810525999754,None,,,1.276163499976974,0.2393840000149794,,,,,,,,,,00043,001,2026-01-17_15h59.33.115,MST_task,2024.2.0,59.9518227113477,2026-01-17 15h59.41.579092 +0530,
,Objects\147a.jpg,117,0,118,,,,,,,None,j,0.8080519000068307,None,,,,,,118,0,117,1861.196780499973,,,,,,,,,,,,,,,,,,,,,,,,,,,,,,1861.181127799995,1861.196780499973,1861.6805795999826,,,,,,,,,,,,,,1861.6970107999805,,,,,,,,,,,,,1861.6897379999864,1861.6970107999805,1861.6970107999805,1861.6970107999805,1864.6969954999804,1864.6969954999804,1864.6969954999804,1864.680768899998,None,1864.68080859998,1864.6969954999804,1864.6969954999804,1865.5141165999812,j,0.8080519000068307,None,,,,,,,,,,,,00043,001,2026-01-17_15h59.33.115,MST_task,2024.2.0,59.9518227113477,2026-01-17 15h59.41.579092 +0530,
,Objects\047a.jpg,118,0,119,,,,,,,f,None,,,1.067255900008604,0.18317199999000877,,,,119,0,118,1865.5302628999925,,,,,,,,,,,,,,,,,,,,,,,,,,,,,,1865.5142029999988,1865.5302628999925,1866.0138118999894,,,,,,,,,,,,,,1866.0305889999727,,,,,,,,,,,,,1866.0233091999835,1866.0305889999727,1866.0305889999727,1866.0305889999727,1869.0303498999856,1869.0303498999856,1869.0303498999856,1869.0141944999923,f,1869.0142391999834,,,1869.0142503999814,None,,,1.067255900008604,0.18317199999000877,,,,,,,,,,00043,001,2026-01-17_15h59.33.115,MST_task,2024.2.0,59.9518227113477,2026-01-17 15h59.41.579092 +0530,
,Scenes\046a.jpg,119,0,120,,,,,,,j,None,,,2.3136938999814447,0.1582994000054896,,,,120,0,119,1869.0303498999856,,,,,,,,,,,,,,,,,,,,,,,,,,,,,,1869.0143485999724,1869.0303498999856,1869.513909399975,,,,,,,,,,,,,,1869.5369632999937,,,,,,,,,,,,,1869.5345254999993,1869.5369632999937,1869.5369632999937,1869.5369632999937,,,,1872.5305483999837,j,1872.5322188999853,,,1872.5322358999983,None,,,2.3136938999814447,0.1582994000054896,,,,,,,,,,00043,001,2026-01-17_15h59.33.115,MST_task,2024.2.0,59.9518227113477,2026-01-17 15h59.41.579092 +0530,
,Scenes\035a.jpg,120,0,121,,,,,,,f,None,,,2.727439400012372,0.23248139998759143,,,,121,0,120,1872.546958299994,,,,,,,,,,,,,,,,,,,,,,,,,,,,,,1872.5323389999976,1872.546958299994,1873.0306386999728,,,,,,,,,,,,,,1873.0498245999916,,,,,,,,,,,,,1873.0475349999906,1873.0498245999916,1873.0498245999916,1873.0498245999916,,,,1876.0471079999988,f,1876.047152299987,,,1876.0471647999948,None,,,2.727439400012372,0.23248139998759143,,,,,,,,,,00043,001,2026-01-17_15h59.33.115,MST_task,2024.2.0,59.9518227113477,2026-01-17 15h59.41.579092 +0530,
,Scenes\037a.jpg,121,0,122,,,,,,,j,None,,,2.093559200002346,0.2151327999890782,,,,122,0,121,1876.0636267999944,,,,,,,,,,,,,,,,,,,,,,,,,,,,,,1876.0472351999779,1876.0636267999944,1876.5473066999984,,,,,,,,,,,,,,1876.5642011999735,,,,,,,,,,,,,1876.5583879999758,1876.5642011999735,1876.5642011999735,1876.5642011999735,,,,1879.5472549999831,j,1879.547298199992,,,1879.5473103999975,None,,,2.093559200002346,0.2151327999890782,,,,,,,,,,00043,001,2026-01-17_15h59.33.115,MST_task,2024.2.0,59.9518227113477,2026-01-17 15h59.41.579092 +0530,
,Scenes\182a.jpg,122,0,123,,,,,,,j,None,,,2.705522500007646,0.17515120000462048,,,,123,0,122,1879.5635952999874,,,,,,,,,,,,,,,,,,,,,,,,,,,,,,1879.5473798999737,1879.5635952999874,1880.047497099993,,,,,,,,,,,,,,1880.0642019999796,,,,,,,,,,,,,1880.0608115999785,1880.0642019999796,1880.0642019999796,1880.0642019999796,1883.0636113999935,1883.0636113999935,1883.0636113999935,1883.047524099995,j,1883.0475751999766,,,1883.0475866999768,None,,,2.705522500007646,0.17515120000462048,,,,,,,,,,00043,001,2026-01-17_15h59.33.115,MST_task,2024.2.0,59.9518227113477,2026-01-17 15h59.41.579092 +0530,
,Scenes\140a.jpg,123,0,124,,,,,,,j,None,,,1.5485277000116184,0.22407990001374856,,,,124,0,123,1883.0636113999935,,,,,,,,,,,,,,,,,,,,,,,,,,,,,,1883.0476548000006,1883.0636113999935,1883.5471799999941,,,,,,,,,,,,,,1883.564701700001,,,,,,,,,,,,,1883.5621370999725,1883.564701700001,1883.564701700001,1883.564701700001,1886.5636921999976,1886.5636921999976,1886.5636921999976,1886.5474786999985,j,1886.547522799985,,,1886.5475340999837,None,,,1.5485277000116184,0.22407990001374856,,,,,,,,,,00043,001,2026-01-17_15h59.33.115,MST_task,2024.2.0,59.9518227113477,2026-01-17 15h59.41.579092 +0530,
,Scenes\050a.jpg,124,0,125,,,,,,,j,None,,,1.417023199988762,0.20826680000755005,,,,125,0,124,1886.5636921999976,,,,,,,,,,,,,,,,,,,,,,,,,,,,,,1886.5476327999786,1886.5636921999976,1887.047270799987,,,,,,,,,,,,,,1887.0642165999743,,,,,,,,,,,,,1887.0610566999821,1887.0642165999743,1887.0642165999743,1887.0642165999743,1890.0636395999754,1890.0636395999754,1890.0636395999754,1890.047842399974,j,1890.0478865999903,,,1890.0478972999845,None,,,1.417023199988762,0.20826680000755005,,,,,,,,,,00043,001,2026-01-17_15h59.33.115,MST_task,2024.2.0,59.9518227113477,2026-01-17 15h59.41.579092 +0530,
,Scenes\087a.jpg,125,0,126,,,,,,,j,None,,,1.9809467000013683,0.19229370000539348,,,,126,0,125,1890.0636395999754,,,,,,,,,,,,,,,,,,,,,,,,,,,,,,1890.0479953999748,1890.0636395999754,1890.5472444999905,,,,,,,,,,,,,,1890.5642408999847,,,,,,,,,,,,,1890.5590964999865,1890.5642408999847,1890.5642408999847,1890.5642408999847,1893.5635934999736,1893.5635934999736,1893.5635934999736,1893.547633899987,j,1893.5476817999734,,,1893.5476931000012,None,,,1.9809467000013683,0.19229370000539348,,,,,,,,,,00043,001,2026-01-17_15h59.33.115,MST_task,2024.2.0,59.9518227113477,2026-01-17 15h59.41.579092 +0530,
,Objects\005a.jpg,126,0,127,,,,,,,None,j,3.8974907999800052,None,,,,,,127,0,126,1893.5635934999736,,,,,,,,,,,,,,,,,,,,,,,,,,,,,,1893.5477632999828,1893.5635934999736,1894.0470956999925,,,,,,,,,,,,,,1894.0640596999729,,,,,,,,,,,,,1894.0590766999812,1894.0640596999729,1894.0640596999729,1894.0640596999729,1897.06358669998,1897.06358669998,1897.06358669998,1897.0474590999947,None,1897.049477499997,1897.06358669998,1897.06358669998,1900.9643172999786,j,3.8974907999800052,None,,,,,,,,,,,,00043,001,2026-01-17_15h59.33.115,MST_task,2024.2.0,59.9518227113477,2026-01-17 15h59.41.579092 +0530,
,Objects\025a.jpg,127,0,128,,,,,,,j,None,,,1.4007063999888487,0.17649730000994168,,,,128,0,127,1900.9802402999776,,,,,,,,,,,,,,,,,,,,,,,,,,,,,,1900.9644433999783,1900.9802402999776,1901.464084599982,,,,,,,,,,,,,,1901.4805760999734,,,,,,,,,,,,,1901.4739036999817,1901.4805760999734,1901.4805760999734,1901.4805760999734,1904.4802978999796,1904.4802978999796,1904.4802978999796,1904.4641219999758,j,1904.464165399986,,,1904.4642062999774,None,,,1.4007063999888487,0.17649730000994168,,,,,,,,,,00043,001,2026-01-17_15h59.33.115,MST_task,2024.2.0,59.9518227113477,2026-01-17 15h59.41.579092 +0530,
,Objects\060a.jpg,128,0,129,,,,,,,j,None,,,1.9091311999945901,0.16798739999649115,,,,129,0,128,1904.4802978999796,,,,,,,,,,,,,,,,,,,,,,,,,,,,,,1904.4643074999913,1904.4802978999796,1904.9638224999944,,,,,,,,,,,,,,1904.980419200001,,,,,,,,,,,,,1904.9729504999996,1904.980419200001,1904.980419200001,1904.980419200001,1907.9802422999928,1907.9802422999928,1907.9802422999928,1907.964121899975,j,1907.9641651999846,,,1907.9641762999818,None,,,1.9091311999945901,0.16798739999649115,,,,,,,,,,00043,001,2026-01-17_15h59.33.115,MST_task,2024.2.0,59.9518227113477,2026-01-17 15h59.41.579092 +0530,
,Objects\154a.jpg,129,0,130,,,,,,,j,None,,,1.881243000010727,0.19216859998414293,,,,130,0,129,1907.9802422999928,,,,,,,,,,,,,,,,,,,,,,,,,,,,,,1907.9642435999995,1907.9802422999928,1908.464112799993,,,,,,,,,,,,,,1908.4805116999778,,,,,,,,,,,,,1908.47406399998,1908.4805116999778,1908.4805116999778,1908.4805116999778,1911.4802433000004,1911.4802433000004,1911.4802433000004,1911.4641416999802,j,1911.4641883999866,,,1911.4641995999846,None,,,1.881243000010727,0.19216859998414293,,,,,,,,,,00043,001,2026-01-17_15h59.33.115,MST_task,2024.2.0,59.9518227113477,2026-01-17 15h59.41.579092 +0530,
,Objects\190a.jpg,130,0,131,,,,,,,f,None,,,1.19789129999117,0.2152457000047434,,,,131,0,130,1911.4802433000004,,,,,,,,,,,,,,,,,,,,,,,,,,,,,,1911.464305499976,1911.4802433000004,1911.9638127999788,,,,,,,,,,,,,,1911.9804217999917,,,,,,,,,,,,,1911.9729774999723,1911.9804217999917,1911.9804217999917,1911.9804217999917,1914.980243099999,1914.980243099999,1914.980243099999,1914.9641386999865,f,1914.9641826999723,,,1914.964193599997,None,,,1.19789129999117,0.2152457000047434,,,,,,,,,,00043,001,2026-01-17_15h59.33.115,MST_task,2024.2.0,59.9518227113477,2026-01-17 15h59.41.579092 +0530,
,Objects\073a.jpg,131,0,132,,,,,,,f,None,,,1.9854450999991968,0.2158192000060808,,,,132,0,131,1914.980243099999,,,,,,,,,,,,,,,,,,,,,,,,,,,,,,1914.9642612999887,1914.980243099999,1915.4638402999844,,,,,,,,,,,,,,1915.4804356999812,,,,,,,,,,,,,1915.4730459999992,1915.4804356999812,1915.4804356999812,1915.4804356999812,1918.4802586999722,1918.4802586999722,1918.4802586999722,1918.4641281999939,f,1918.4641716999759,,,1918.4641818999953,None,,,1.9854450999991968,0.2158192000060808,,,,,,,,,,00043,001,2026-01-17_15h59.33.115,MST_task,2024.2.0,59.9518227113477,2026-01-17 15h59.41.579092 +0530,
,Objects\044a.jpg,132,0,133,,,,,,,None,f,0.7413205000048038,None,,,,,,133,0,132,1918.4802586999722,,,,,,,,,,,,,,,,,,,,,,,,,,,,,,1918.4642867999792,1918.4802586999722,1918.9643140999833,,,,,,,,,,,,,,1918.9804250999878,,,,,,,,,,,,,1918.9736243999796,1918.9804250999878,1918.9804250999878,1918.9804250999878,1921.980269199994,1921.980269199994,1921.980269199994,1921.9641638999747,None,1921.9642032999836,1921.980269199994,1921.980269199994,1922.7306358999922,f,0.7413205000048038,None,,,,,,,,,,,,00043,001,2026-01-17_15h59.33.115,MST_task,2024.2.0,59.9518227113477,2026-01-17 15h59.41.579092 +0530,
,Scenes\122a.jpg,133,0,134,,,,,,,None,f,0.14594740001484752,None,,,,,,134,0,133,1922.7467718999833,,,,,,,,,,,,,,,,,,,,,,,,,,,,,,1922.7307238999929,1922.7467718999833,1923.230540199991,,,,,,,,,,,,,,1923.251892499975,,,,,,,,,,,,,1923.2496777999913,1923.251892499975,1923.251892499975,1923.251892499975,,,,1926.2472596999723,None,1926.2490132999956,1926.2637127999915,1926.2637127999915,1926.4140886999958,f,0.14594740001484752,None,,,,,,,,,,,,00043,001,2026-01-17_15h59.33.115,MST_task,2024.2.0,59.9518227113477,2026-01-17 15h59.41.579092 +0530,
,Scenes\063a.jpg,134,0,135,,,,,,,j,None,,,1.923773499991512,0.15198910000617616,,,,135,0,134,1926.430179899995,,,,,,,,,,,,,,,,,,,,,,,,,,,,,,1926.4142155000009,1926.430179899995,1926.9138237999869,,,,,,,,,,,,,,1926.9331759999914,,,,,,,,,,,,,1926.9305884999922,1926.9331759999914,1926.9331759999914,1926.9331759999914,,,,1929.9304267999833,j,1929.9304730999866,,,1929.9304858999967,None,,,1.923773499991512,0.15198910000617616,,,,,,,,,,00043,001,2026-01-17_15h59.33.115,MST_task,2024.2.0,59.9518227113477,2026-01-17 15h59.41.579092 +0530,
,Scenes\076a.jpg,135,0,136,,,,,,,j,None,,,1.6922832000127528,0.18412939997506328,,,,136,0,135,1929.9467242999817,,,,,,,,,,,,,,,,,,,,,,,,,,,,,,1929.9305896000005,1929.9467242999817,1930.4307639999897,,,,,,,,,,,,,,1930.4531818999967,,,,,,,,,,,,,1930.4506823999982,1930.4531818999967,1930.4531818999967,1930.4531818999967,,,,1933.4305728999898,j,1933.4306169999763,,,1933.4306280999735,None,,,1.6922832000127528,0.18412939997506328,,,,,,,,,,00043,001,2026-01-17_15h59.33.115,MST_task,2024.2.0,59.9518227113477,2026-01-17 15h59.41.579092 +0530,
,Scenes\019a.jpg,136,0,137,,,,,,,f,None,,,2.7409959999786224,0.18441100002382882,,,,137,0,136,1933.446845599974,,,,,,,,,,,,,,,,,,,,,,,,,,,,,,1933.4307299999928,1933.446845599974,1933.9305414999835,,,,,,,,,,,,,,1933.9480128999858,,,,,,,,,,,,,1933.9454000999976,1933.9480128999858,1933.9480128999858,1933.9480128999858,1936.9467874999973,1936.9467874999973,1936.9467874999973,1936.9309136999946,f,1936.9309559999965,,,1936.930966999993,None,,,2.7409959999786224,0.18441100002382882,,,,,,,,,,00043,001,2026-01-17_15h59.33.115,MST_task,2024.2.0,59.9518227113477,2026-01-17 15h59.41.579092 +0530,
,Scenes\051a.jpg,137,0,138,,,,,,,j,None,,,1.3617497000086587,0.20004399999743327,,,,138,0,137,1936.9467874999973,,,,,,,,,,,,,,,,,,,,,,,,,,,,,,1936.9310338999785,1936.9467874999973,1937.4305021999753,,,,,,,,,,,,,,1937.447319799976,,,,,,,,,,,,,1937.4423399999796,1937.447319799976,1937.447319799976,1937.447319799976,1940.4468635999947,1940.4468635999947,1940.4468635999947,1940.4309827999969,j,1940.4310280999925,,,1940.431039099989,None,,,1.3617497000086587,0.20004399999743327,,,,,,,,,,00043,001,2026-01-17_15h59.33.115,MST_task,2024.2.0,59.9518227113477,2026-01-17 15h59.41.579092 +0530,
,Scenes\162a.jpg,138,0,139,,,,,,,j,None,,,1.2624086000141688,0.1751001999946311,,,,139,0,138,1940.4468635999947,,,,,,,,,,,,,,,,,,,,,,,,,,,,,,1940.431142699992,1940.4468635999947,1940.9304712000012,,,,,,,,,,,,,,1940.947475199995,,,,,,,,,,,,,1940.9429202999745,1940.947475199995,1940.947475199995,1940.947475199995,1943.9468565999996,1943.9468565999996,1943.9468565999996,1943.9308249999885,j,1943.9308691999759,,,1943.9308805999754,None,,,1.2624086000141688,0.1751001999946311,,,,,,,,,,00043,001,2026-01-17_15h59.33.115,MST_task,2024.2.0,59.9518227113477,2026-01-17 15h59.41.579092 +0530,
,Scenes\179a.jpg,139,0,140,,,,,,,None,j,0.40343860001303256,None,,,,,,140,0,139,1943.9468565999996,,,,,,,,,,,,,,,,,,,,,,,,,,,,,,1943.930980199977,1943.9468565999996,1944.4306752999837,,,,,,,,,,,,,,1944.447387399996,,,,,,,,,,,,,1944.4446910999832,1944.447387399996,1944.447387399996,1944.447387399996,1947.4468627999886,1947.4468627999886,1947.4468627999886,1947.430845099996,None,1947.430881999986,1947.4468627999886,1947.4468627999886,1947.86398319999,j,0.40343860001303256,None,,,,,,,,,,,,00043,001,2026-01-17_15h59.33.115,MST_task,2024.2.0,59.9518227113477,2026-01-17 15h59.41.579092 +0530,
,Objects\030a.jpg,140,0,141,,,,,,,f,None,,,2.044224099983694,0.2090796000265982,,,,141,0,140,1947.8802362999995,,,,,,,,,,,,,,,,,,,,,,,,,,,,,,1947.8640694999776,1947.8802362999995,1948.3639008999744,,,,,,,,,,,,,,1948.3807373999734,,,,,,,,,,,,,1948.3757071,1948.3807373999734,1948.3807373999734,1948.3807373999734,1951.380377399997,1951.380377399997,1951.380377399997,1951.3642674000002,f,1951.3662889999978,,,1951.36630709999,None,,,2.044224099983694,0.2090796000265982,,,,,,,,,,00043,001,2026-01-17_15h59.33.115,MST_task,2024.2.0,59.9518227113477,2026-01-17 15h59.41.579092 +0530,
,Objects\179a.jpg,141,0,142,,,,,,,f,None,,,1.721249700000044,0.2231000000028871,,,,142,0,141,1951.380377399997,,,,,,,,,,,,,,,,,,,,,,,,,,,,,,1951.3664088999794,1951.380377399997,1951.8638766999939,,,,,,,,,,,,,,1951.8806038999755,,,,,,,,,,,,,1951.8728718999773,1951.8806038999755,1951.8806038999755,1951.8806038999755,1954.8803561999812,1954.8803561999812,1954.8803561999812,1954.8641107000003,f,1954.8641535999777,,,1954.8641645999742,None,,,1.721249700000044,0.2231000000028871,,,,,,,,,,00043,001,2026-01-17_15h59.33.115,MST_task,2024.2.0,59.9518227113477,2026-01-17 15h59.41.579092 +0530,
,Objects\133a.jpg,142,0,143,,,,,,,j,None,,,1.4532441000046674,0.17515860000276007,,,,143,0,142,1954.8803561999812,,,,,,,,,,,,,,,,,,,,,,,,,,,,,,1954.8642618999875,1954.8803561999812,1955.3638424999954,,,,,,,,,,,,,,1955.3804941999842,,,,,,,,,,,,,1955.3732449999952,1955.3804941999842,1955.3804941999842,1955.3804941999842,1958.3803174999775,1958.3803174999775,1958.3803174999775,1958.3641922999814,j,1958.364235199988,,,1958.3642459999828,None,,,1.4532441000046674,0.17515860000276007,,,,,,,,,,00043,001,2026-01-17_15h59.33.115,MST_task,2024.2.0,59.9518227113477,2026-01-17 15h59.41.579092 +0530,
,Objects\143a.jpg,143,0,144,,,,,,,j,None,,,1.5607777000113856,0.14397800000733696,,,,144,0,143,1958.3803174999775,,,,,,,,,,,,,,,,,,,,,,,,,,,,,,1958.3643121999921,1958.3803174999775,1958.8638568999886,,,,,,,,,,,,,,1958.8805480999872,,,,,,,,,,,,,1958.8729548999981,1958.8805480999872,1958.8805480999872,1958.8805480999872,1961.880365399993,1961.880365399993,1961.880365399993,1961.8641342999763,j,1961.864177099982,,,1961.864187899977,None,,,1.5607777000113856,0.14397800000733696,,,,,,,,,,00043,001,2026-01-17_15h59.33.115,MST_task,2024.2.0,59.9518227113477,2026-01-17 15h59.41.579092 +0530,
,Objects\188a.jpg,144,0,145,,,,,,,f,None,,,1.4375160999770742,0.20693159999791533,,,,145,0,144,1961.880365399993,,,,,,,,,,,,,,,,,,,,,,,,,,,,,,1961.8642544999893,1961.880365399993,1962.363984399999,,,,,,,,,,,,,,1962.380446700001,,,,,,,,,,,,,1962.3734296999755,1962.380446700001,1962.380446700001,1962.380446700001,1965.3803418999887,1965.3803418999887,1965.3803418999887,1965.364233499975,f,1965.364278299996,,,1965.3642886999878,None,,,1.4375160999770742,0.20693159999791533,,,,,,,,,,00043,001,2026-01-17_15h59.33.115,MST_task,2024.2.0,59.9518227113477,2026-01-17 15h59.41.579092 +0530,
,Objects\191a.jpg,145,0,146,,,,,,,f,None,,,2.568385400023544,0.18510089998017065,,,,146,0,145,1965.3803418999887,,,,,,,,,,,,,,,,,,,,,,,,,,,,,,1965.3643890999956,1965.3803418999887,1965.8638861999789,,,,,,,,,,,,,,1965.8806027999963,,,,,,,,,,,,,1965.8733423999802,1965.8806027999963,1965.8806027999963,1965.8806027999963,1968.8804394999752,1968.8804394999752,1968.8804394999752,1968.86422269998,f,1968.8642672999995,,,1968.864278299996,None,,,2.568385400023544,0.18510089998017065,,,,,,,,,,00043,001,2026-01-17_15h59.33.115,MST_task,2024.2.0,59.9518227113477,2026-01-17 15h59.41.579092 +0530,
,Objects\101a.jpg,146,0,147,,,,,,,j,None,,,2.3093572000216227,0.09547359999851324,,,,147,0,146,1968.8804394999752,,,,,,,,,,,,,,,,,,,,,,,,,,,,,,1968.8643775999954,1968.8804394999752,1969.3638508000004,,,,,,,,,,,,,,1969.380576399999,,,,,,,,,,,,,1969.3729736999958,1969.380576399999,1969.380576399999,1969.380576399999,1972.3803713999805,1972.3803713999805,1972.3803713999805,1972.3641960999812,j,1972.364237599977,,,1972.3642485999735,None,,,2.3093572000216227,0.09547359999851324,,,,,,,,,,00043,001,2026-01-17_15h59.33.115,MST_task,2024.2.0,59.9518227113477,2026-01-17 15h59.41.579092 +0530,
,Scenes\163a.jpg,147,0,148,,,,,,,j,None,,,1.753447099996265,0.15889580000657588,,,,148,0,147,1972.3803713999805,,,,,,,,,,,,,,,,,,,,,,,,,,,,,,1972.364315999992,1972.3803713999805,1972.8637411999807,,,,,,,,,,,,,,1972.8807811999868,,,,,,,,,,,,,1972.8773051999742,1972.8807811999868,1972.8807811999868,1972.8807811999868,1975.8803245999734,1975.8803245999734,1975.8803245999734,1975.8642175999994,j,1975.8658148999966,,,1975.8658310999745,None,,,1.753447099996265,0.15889580000657588,,,,,,,,,,00043,001,2026-01-17_15h59.33.115,MST_task,2024.2.0,59.9518227113477,2026-01-17 15h59.41.579092 +0530,
,Scenes\112a.jpg,148,0,149,,,,,,,j,None,,,1.3236209999886341,0.19260120001854375,,,,149,0,148,1975.8803245999734,,,,,,,,,,,,,,,,,,,,,,,,,,,,,,1975.865932399989,1975.8803245999734,1976.3644641999854,,,,,,,,,,,,,,1976.381405299995,,,,,,,,,,,,,1976.379097500001,1976.381405299995,1976.381405299995,1976.381405299995,1979.3805384999723,1979.3805384999723,1979.3805384999723,1979.3642965999898,j,1979.364338799991,,,1979.364349499985,None,,,1.3236209999886341,0.19260120001854375,,,,,,,,,,00043,001,2026-01-17_15h59.33.115,MST_task,2024.2.0,59.9518227113477,2026-01-17 15h59.41.579092 +0530,
,Scenes\152a.jpg,149,0,150,,,,,,,j,None,,,1.584018699999433,0.12044999998761341,,,,150,0,149,1979.3805384999723,,,,,,,,,,,,,,,,,,,,,,,,,,,,,,1979.3644157999952,1979.3805384999723,1979.8638619999983,,,,,,,,,,,,,,1979.8808217999758,,,,,,,,,,,,,1979.876373999985,1979.8808217999758,1979.8808217999758,1979.8808217999758,1982.8802577999886,1982.8802577999886,1982.8802577999886,1982.8641685999755,j,1982.8642109999782,,,1982.8642217999732,None,,,1.584018699999433,0.12044999998761341,,,,,,,,,,00043,001,2026-01-17_15h59.33.115,MST_task,2024.2.0,59.9518227113477,2026-01-17 15h59.41.579092 +0530,
,Scenes\111a.jpg,150,0,151,,,,,,,j,None,,,1.6532718000235036,0.20690150000154972,,,,151,0,150,1982.8802577999886,,,,,,,,,,,,,,,,,,,,,,,,,,,,,,1982.8643176999758,1982.8802577999886,1983.3638912999886,,,,,,,,,,,,,,1983.3809421999904,,,,,,,,,,,,,1983.3774596999865,1983.3809421999904,1983.3809421999904,1983.3809421999904,1986.3802680999797,1986.3802680999797,1986.3802680999797,1986.3640777999826,j,1986.3641208999907,,,1986.364131499984,None,,,1.6532718000235036,0.20690150000154972,,,,,,,,,,00043,001,2026-01-17_15h59.33.115,MST_task,2024.2.0,59.9518227113477,2026-01-17 15h59.41.579092 +0530,
,Scenes\078a.jpg,151,0,152,,,,,,,j,None,,,2.3199497000023257,0.16893129999516532,,,,152,0,151,1986.3802680999797,,,,,,,,,,,,,,,,,,,,,,,,,,,,,,1986.364196199982,1986.3802680999797,1986.8639301999938,,,,,,,,,,,,,,1986.8809060999774,,,,,,,,,,,,,1986.8787442999892,1986.8809060999774,1986.8809060999774,1986.8809060999774,1989.8802862999728,1989.8802862999728,1989.8802862999728,1989.8641611999774,j,1989.8642043999862,,,1989.8642153999826,None,,,2.3199497000023257,0.16893129999516532,,,,,,,,,,00043,001,2026-01-17_15h59.33.115,MST_task,2024.2.0,59.9518227113477,2026-01-17 15h59.41.579092 +0530,
,Scenes\143a.jpg,152,0,153,,,,,,,j,None,,,1.2415347000060137,0.1920250999974087,,,,153,0,152,1989.8802862999728,,,,,,,,,,,,,,,,,,,,,,,,,,,,,,1989.8643100999761,1989.8802862999728,1990.3637983999797,,,,,,,,,,,,,,1990.383803099976,,,,,,,,,,,,,1990.381404499989,1990.383803099976,1990.383803099976,1990.383803099976,,,,1993.3804738999752,j,1993.3805165999802,,,1993.380527899979,None,,,1.2415347000060137,0.1920250999974087,,,,,,,,,,00043,001,2026-01-17_15h59.33.115,MST_task,2024.2.0,59.9518227113477,2026-01-17 15h59.41.579092 +0530,
,Scenes\176a.jpg,153,0,154,,,,,,,j,None,,,2.55155659999582,0.151005299994722,,,,154,0,153,1993.3967676999746,,,,,,,,,,,,,,,,,,,,,,,,,,,,,,1993.380626099999,1993.3967676999746,1993.8804557999829,,,,,,,,,,,,,,1993.8990194999787,,,,,,,,,,,,,1993.896866199997,1993.8990194999787,1993.8990194999787,1993.8990194999787,,,,1996.8970635999867,j,1996.8971054999856,,,1996.8971174999897,None,,,2.55155659999582,0.151005299994722,,,,,,,,,,00043,001,2026-01-17_15h59.33.115,MST_task,2024.2.0,59.9518227113477,2026-01-17 15h59.41.579092 +0530,
,Objects\040a.jpg,154,0,155,,,,,,,f,None,,,2.3706375999900047,0.1760159000114072,,,,155,0,154,1996.9135950999917,,,,,,,,,,,,,,,,,,,,,,,,,,,,,,1996.8971872999973,1996.9135950999917,1997.397289799992,,,,,,,,,,,,,,1997.4143187999725,,,,,,,,,,,,,1997.4098403999815,1997.4143187999725,1997.4143187999725,1997.4143187999725,2000.4136737999797,2000.4136737999797,2000.4136737999797,2000.3976046999742,f,2000.3996530000004,,,2000.399670599989,None,,,2.3706375999900047,0.1760159000114072,,,,,,,,,,00043,001,2026-01-17_15h59.33.115,MST_task,2024.2.0,59.9518227113477,2026-01-17 15h59.41.579092 +0530,
,Objects\061a.jpg,155,0,156,,,,,,,j,None,,,1.431219299993245,0.15301209999597631,,,,156,0,155,2000.4136737999797,,,,,,,,,,,,,,,,,,,,,,,,,,,,,,2000.3997389999859,2000.4136737999797,2000.897066799982,,,,,,,,,,,,,,2000.91394269999,,,,,,,,,,,,,2000.9057806999772,2000.91394269999,2000.91394269999,2000.91394269999,2003.9136295999924,2003.9136295999924,2003.9136295999924,2003.897412899998,j,2003.89745769999,,,2003.8974684999848,None,,,1.431219299993245,0.15301209999597631,,,,,,,,,,00043,001,2026-01-17_15h59.33.115,MST_task,2024.2.0,59.9518227113477,2026-01-17 15h59.41.579092 +0530,
,Objects\174a.jpg,156,0,157,,,,,,,j,None,,,1.8513928999891505,0.1359420999942813,,,,157,0,156,2003.9136295999924,,,,,,,,,,,,,,,,,,,,,,,,,,,,,,2003.897564599989,2003.9136295999924,2004.3970495999965,,,,,,,,,,,,,,2004.413937299978,,,,,,,,,,,,,2004.4075802999723,2004.413937299978,2004.413937299978,2004.413937299978,2007.413602799992,2007.413602799992,2007.413602799992,2007.3973202999914,j,2007.3973619999888,,,2007.397372699983,None,,,1.8513928999891505,0.1359420999942813,,,,,,,,,,00043,001,2026-01-17_15h59.33.115,MST_task,2024.2.0,59.9518227113477,2026-01-17 15h59.41.579092 +0530,
