Sl_no,image_path,thisN,thisTrialN,thisRepN,key_resp_5.keys,key_resp_7.keys,key_resp_7.rt,key_resp_7.duration,key_resp_5.rt,key_resp_5.duration,key_resp_9.keys,key_resp_9.rt,key_resp_9.duration,key_resp_8.keys,key_resp_8.rt,key_resp_8.duration,practice.thisRepN,practice.thisTrialN,practice.thisN,trials.thisRepN,trials.thisTrialN,trials.thisN,thisRow.t,notes,welcome_page.started,text.started,key_resp.started,welcome_page.stopped,key_resp.keys,key_resp.rt,key_resp.duration,instructions.started,ins.started,key_resp_2.started,instructions.stopped,key_resp_2.keys,key_resp_2.rt,key_resp_2.duration,instructions_2.started,text_10.started,key_resp_10.started,instructions_2.stopped,key_resp_10.keys,key_resp_10.rt,key_resp_10.duration,objects_only_instruction.started,text_3.started,key_resp_3.started,objects_only_instruction.stopped,key_resp_3.keys,key_resp_3.rt,key_resp_3.duration,ISI.started,text_4.started,text_4.stopped,ISI.stopped,practice_block.started,image.started,text_5.started,key_resp_5.started,practice_block.stopped,practice.key_resp_5.keys,indoor_outdoor.started,text_7.started,key_resp_7.started,indoor_outdoor.stopped,practice.key_resp_7.keys,practice.key_resp_7.rt,practice.key_resp_7.duration,image.stopped,text_5.stopped,key_resp_5.stopped,practice.key_resp_5.rt,practice.key_resp_5.duration,practice_to_main.started,text_2.started,key_resp_4.started,practice_to_main.stopped,key_resp_4.keys,key_resp_4.rt,key_resp_4.duration,objects.started,image_2.started,text_9.started,key_resp_9.started,objects.stopped,trials.key_resp_9.keys,trials.key_resp_9.rt,trials.key_resp_9.duration,encoding_task.started,encoding_task.stopped,trials.key_resp_8.keys,image_2.stopped,text_9.stopped,key_resp_9.stopped,text_8.started,key_resp_8.started,trials.key_resp_8.rt,trials.key_resp_8.duration,end_experiment.started,text_6.started,key_resp_6.started,end_experiment.stopped,key_resp_6.keys,key_resp_6.rt,key_resp_6.duration,list_of_stimuli,encoding_task_accuracy,participant,session,date,expName,psychopyVersion,frameRate,expStart,
,,,,,,,,,,,,,,,,,,,,,,,,,0.0014016999921295792,0.003412399993976578,0.003412399993976578,361.61560750000353,space,361.6052548000007,None,,,,,,,,,,,,,,,,,,,,,,,,,,,,,,,,,,,,,,,,,,,,,,,,,,,,,,,,,,,,,,,,,,,,,,,,,,,,,,00044,001,2026-01-17_16h35.46.136,MST_task,2024.2.0,60.11522887332214,2026-01-17 16h36.01.321084 +0530,
,,,,,,,,,,,,,,,,,,,,,,,,,,,,,,,,361.6156545999984,361.6372912999941,361.6372912999941,373.42691339999146,space,11.779306700002053,None,,,,,,,,,,,,,,,,,,,,,,,,,,,,,,,,,,,,,,,,,,,,,,,,,,,,,,,,,,,,,,,,,,,,,,,00044,001,2026-01-17_16h35.46.136,MST_task,2024.2.0,60.11522887332214,2026-01-17 16h36.01.321084 +0530,
,,,,,,,,,,,,,,,,,,,,,,,,,,,,,,,,,,,,,,,373.42701499999384,373.4426194999978,373.4426194999978,384.6599387000024,space,11.21432040000218,None,,,,,,,,,,,,,,,,,,,,,,,,,,,,,,,,,,,,,,,,,,,,,,,,,,,,,,,,,,,,,,,,00044,001,2026-01-17_16h35.46.136,MST_task,2024.2.0,60.11522887332214,2026-01-17 16h36.01.321084 +0530,
,,,,,,,,,,,,,,,,,,,,,,,,,,,,,,,,,,,,,,,,,,,,,,384.66002870000375,384.67460810000193,384.67460810000193,400.04345539999485,space,15.365969000005862,None,,,,,,,,,,,,,,,,,,,,,,,,,,,,,,,,,,,,,,,,,,,,,,,,,,,,,,,,,00044,001,2026-01-17_16h35.46.136,MST_task,2024.2.0,60.11522887332214,2026-01-17 16h36.01.321084 +0530,
1,practice_images/013a.jpg,0,0,1,None,j,2.0816405000077793,None,,,,,,,,,1,0,0,,,,400.05805720000353,,,,,,,,,,,,,,,,,,,,,,,,,,,,,,400.0513171999919,400.05805720000353,400.5882605999941,400.5422469000041,400.5559007999982,400.5882605999941,400.5882605999941,400.5882605999941,403.55850009999995,None,403.5620190000045,403.5746764999931,403.5746764999931,405.6595093999931,j,2.0816405000077793,None,,,,,,,,,,,,,,,,,,,,,,,,,,,,,,,,,,,,,,,,00044,001,2026-01-17_16h35.46.136,MST_task,2024.2.0,60.11522887332214,2026-01-17 16h36.01.321084 +0530,
5,practice_images/139a.jpg,1,1,1,None,j,1.2735542000009445,None,,,,,,,,,1,1,1,,,,405.6748283999914,,,,,,,,,,,,,,,,,,,,,,,,,,,,,,405.6597069999989,405.6748283999914,406.1751004999969,406.15949289999844,406.16502169999876,406.1751004999969,406.1751004999969,406.1751004999969,409.1594575999916,None,409.1595878999942,409.17467949999264,409.17467949999264,410.4605171000003,j,1.2735542000009445,None,409.17467949999264,409.17467949999264,409.17467949999264,,,,,,,,,,,,,,,,,,,,,,,,,,,,,,,,,,,,,00044,001,2026-01-17_16h35.46.136,MST_task,2024.2.0,60.11522887332214,2026-01-17 16h36.01.321084 +0530,
6,practice_images/158a.jpg,2,2,1,None,j,0.3926396000024397,None,,,,,,,,,1,2,2,,,,410.4747930000012,,,,,,,,,,,,,,,,,,,,,,,,,,,,,,410.46076750000066,410.4747930000012,410.97506209999847,410.9599007999932,410.96539029999985,410.97506209999847,410.97506209999847,410.97506209999847,413.95939859999635,None,413.9595018999971,413.97468250000384,413.97468250000384,414.37658110000484,j,0.3926396000024397,None,413.97468250000384,413.97468250000384,413.97468250000384,,,,,,,,,,,,,,,,,,,,,,,,,,,,,,,,,,,,,00044,001,2026-01-17_16h35.46.136,MST_task,2024.2.0,60.11522887332214,2026-01-17 16h36.01.321084 +0530,
9,practice_images/180a.jpg,3,3,1,f,None,,,2.1003412999998545,0.18345379999664146,,,,,,,1,3,3,,,,414.391566899998,,,,,,,,,,,,,,,,,,,,,,,,,,,,,,414.3769035000005,414.391566899998,414.89176020000014,414.8758775000024,414.8796594000014,414.89176020000014,414.89176020000014,414.89176020000014,417.876308299994,f,417.8764152999938,,,417.8764579999988,None,,,417.8917436999909,417.8917436999909,417.8917436999909,2.1003412999998545,0.18345379999664146,,,,,,,,,,,,,,,,,,,,,,,,,,,,,,,,,,,00044,001,2026-01-17_16h35.46.136,MST_task,2024.2.0,60.11522887332214,2026-01-17 16h36.01.321084 +0530,
2,practice_images/031a.jpg,4,4,1,f,None,,,2.46451769999112,0.2157188999990467,,,,,,,1,4,4,,,,417.8917436999909,,,,,,,,,,,,,,,,,,,,,,,,,,,,,,417.87666710000485,417.8917436999909,418.39194139999745,418.37562700000126,418.37955409999995,418.39194139999745,418.39194139999745,418.39194139999745,421.37605330000224,f,421.37621180000133,,,421.37627700000303,None,,,421.39178459999675,421.39178459999675,421.39178459999675,2.46451769999112,0.2157188999990467,,,,,,,,,,,,,,,,,,,,,,,,,,,,,,,,,,,00044,001,2026-01-17_16h35.46.136,MST_task,2024.2.0,60.11522887332214,2026-01-17 16h36.01.321084 +0530,
3,practice_images/037a.jpg,5,5,1,None,f,0.15600129999802448,None,,,,,,,,,1,5,5,,,,421.39178459999675,,,,,,,,,,,,,,,,,,,,,,,,,,,,,,421.37651069999265,421.39178459999675,421.89153120000265,421.8757753999962,421.88586999999825,421.89153120000265,421.89153120000265,421.89153120000265,424.87606629999937,None,424.8816769999976,424.8914358000038,424.8914358000038,425.0600850000046,f,0.15600129999802448,None,424.8914358000038,424.8914358000038,424.8914358000038,,,,,,,,,,,,,,,,,,,,,,,,,,,,,,,,,,,,,00044,001,2026-01-17_16h35.46.136,MST_task,2024.2.0,60.11522887332214,2026-01-17 16h36.01.321084 +0530,
8,practice_images/178a.jpg,6,6,1,f,None,,,1.2252080999896862,0.17578280001180246,,,,,,,1,6,6,,,,425.07471699999587,,,,,,,,,,,,,,,,,,,,,,,,,,,,,,425.0603776999924,425.07471699999587,425.5750280999928,425.5593361999927,425.5646146999934,425.5750280999928,425.5750280999928,425.5750280999928,428.559594499995,f,428.55974280000373,,,428.55980499999714,None,,,428.57499090000056,428.57499090000056,428.57499090000056,1.2252080999896862,0.17578280001180246,,,,,,,,,,,,,,,,,,,,,,,,,,,,,,,,,,,00044,001,2026-01-17_16h35.46.136,MST_task,2024.2.0,60.11522887332214,2026-01-17 16h36.01.321084 +0530,
4,practice_images/002b.jpg,7,7,1,f,None,,,1.5967909000028158,0.20748810000077356,,,,,,,1,7,7,,,,428.57499090000056,,,,,,,,,,,,,,,,,,,,,,,,,,,,,,428.56007779999345,428.57499090000056,429.0753190999967,429.0602244000038,429.06389639999543,429.0753190999967,429.0753190999967,429.0753190999967,432.0594495999976,f,432.0595559999929,,,432.0595992000017,None,,,432.07497269999294,432.07497269999294,432.07497269999294,1.5967909000028158,0.20748810000077356,,,,,,,,,,,,,,,,,,,,,,,,,,,,,,,,,,,00044,001,2026-01-17_16h35.46.136,MST_task,2024.2.0,60.11522887332214,2026-01-17 16h36.01.321084 +0530,
10,practice_images/182a.jpg,8,8,1,f,None,,,1.7201383000065107,0.21595470000465866,,,,,,,1,8,8,,,,432.07497269999294,,,,,,,,,,,,,,,,,,,,,,,,,,,,,,432.05980380000256,432.07497269999294,432.5756251999992,432.55937289999565,432.5648915999918,432.5756251999992,432.5756251999992,432.5756251999992,435.5595539999922,f,435.5596721000038,,,435.55971560000035,None,,,435.5748306000023,435.5748306000023,435.5748306000023,1.7201383000065107,0.21595470000465866,,,,,,,,,,,,,,,,,,,,,,,,,,,,,,,,,,,00044,001,2026-01-17_16h35.46.136,MST_task,2024.2.0,60.11522887332214,2026-01-17 16h36.01.321084 +0530,
7,practice_images/166a.jpg,9,9,1,None,f,0.7254531999933533,None,,,,,,,,,1,9,9,,,,435.5748306000023,,,,,,,,,,,,,,,,,,,,,,,,,,,,,,435.55991019999783,435.5748306000023,436.07481399999233,436.0597131999966,436.0632426999946,436.07481399999233,436.07481399999233,436.07481399999233,439.05948799999896,None,439.05961240000033,439.07485180000367,439.07485180000367,439.8103384999995,f,0.7254531999933533,None,439.07485180000367,439.07485180000367,439.07485180000367,,,,,,,,,,,,,,,,,,,,,,,,,,,,,,,,,,,,,00044,001,2026-01-17_16h35.46.136,MST_task,2024.2.0,60.11522887332214,2026-01-17 16h36.01.321084 +0530,
,,,,,,,,,,,,,,,,,,,,,,,,,,,,,,,,,,,,,,,,,,,,,,,,,,,,,,,,,,,,,,,,,,,,,,,,,,,439.81060369999614,439.82448609999847,439.82448609999847,467.2435642999917,space,27.415897900005803,None,,,,,,,,,,,,,,,,,,,,,,,,,,,,00044,001,2026-01-17_16h35.46.136,MST_task,2024.2.0,60.11522887332214,2026-01-17 16h36.01.321084 +0530,
,Scenes\095a.jpg,0,0,1,,,,,,,j,1.1327599999931408,0.15299970000342,None,,,,,,1,0,0,467.25809960000333,,,,,,,,,,,,,,,,,,,,,,,,,,,,,,467.2457715999917,467.25809960000333,467.76222200000484,467.74250310000207,,,,,,,,,,,,,,,,,,,,,,,,,,467.7585776000051,467.76222200000484,467.76222200000484,467.76222200000484,470.758522499993,j,1.1327599999931408,0.15299970000342,470.7639199999976,470.7640051999915,None,,,,,,,,,,,,,,,,,00044,001,2026-01-17_16h35.46.136,MST_task,2024.2.0,60.11522887332214,2026-01-17 16h36.01.321084 +0530,
,Scenes\168a.jpg,1,0,2,,,,,,,j,1.1002794000087306,0.15252849999524187,None,,,,,,2,0,1,470.7744285999943,,,,,,,,,,,,,,,,,,,,,,,,,,,,,,470.76428279999527,470.7744285999943,471.27511129999766,471.257992800005,,,,,,,,,,,,,,,,,,,,,,,,,,471.2658489000023,471.27511129999766,471.27511129999766,471.27511129999766,474.26064049999695,j,1.1002794000087306,0.15252849999524187,474.26080479999655,474.2608404999919,None,474.2747779999918,474.2747779999918,474.2747779999918,,,,,,,,,,,,,,00044,001,2026-01-17_16h35.46.136,MST_task,2024.2.0,60.11522887332214,2026-01-17 16h36.01.321084 +0530,
,Scenes\174a.jpg,2,0,3,,,,,,,j,1.5452251999959117,0.11961330000485759,None,,,,,,3,0,2,474.2747779999918,,,,,,,,,,,,,,,,,,,,,,,,,,,,,,474.26103349999175,474.2747779999918,474.7828723999992,474.7592439,,,,,,,,,,,,,,,,,,,,,,,,,,474.7788465999911,474.7828723999992,474.7828723999992,474.7828723999992,477.77526589999616,j,1.5452251999959117,0.11961330000485759,477.77543549999245,477.7754806000012,None,,,,,,,,,,,,,,,,,00044,001,2026-01-17_16h35.46.136,MST_task,2024.2.0,60.11522887332214,2026-01-17 16h36.01.321084 +0530,
,Scenes\072a.jpg,3,0,4,,,,,,,j,1.5555044000066118,0.13560239999787882,None,,,,,,4,0,3,477.7919533999957,,,,,,,,,,,,,,,,,,,,,,,,,,,,,,477.7757158000022,477.7919533999957,478.3002998000011,478.2760086999915,,,,,,,,,,,,,,,,,,,,,,,,,,478.29680680000456,478.3002998000011,478.3002998000011,478.3002998000011,481.29222709999885,j,1.5555044000066118,0.13560239999787882,481.2924065999978,481.2924872000003,None,,,,,,,,,,,,,,,,,00044,001,2026-01-17_16h35.46.136,MST_task,2024.2.0,60.11522887332214,2026-01-17 16h36.01.321084 +0530,
,Scenes\175a.jpg,4,0,5,,,,,,,j,1.1113683999865316,0.14415850001387298,None,,,,,,5,0,4,481.30813320000016,,,,,,,,,,,,,,,,,,,,,,,,,,,,,,481.29285099999106,481.30813320000016,481.8088238999917,481.79336049999984,,,,,,,,,,,,,,,,,,,,,,,,,,481.8033967999945,481.8088238999917,481.8088238999917,481.8088238999917,484.79367260000436,j,1.1113683999865316,0.14415850001387298,484.79384969999956,484.79391079999914,None,484.8081247999944,484.8081247999944,484.8081247999944,,,,,,,,,,,,,,00044,001,2026-01-17_16h35.46.136,MST_task,2024.2.0,60.11522887332214,2026-01-17 16h36.01.321084 +0530,
,Scenes\083a.jpg,5,0,6,,,,,,,j,2.3498517999978503,0.18344959999376442,None,,,,,,6,0,5,484.8081247999944,,,,,,,,,,,,,,,,,,,,,,,,,,,,,,484.7941872999945,484.8081247999944,485.31381779999356,485.29250189999584,,,,,,,,,,,,,,,,,,,,,,,,,,485.3107128999982,485.31381779999356,485.31381779999356,485.31381779999356,488.30869350000285,j,2.3498517999978503,0.18344959999376442,488.30883280000126,488.30887539999094,None,,,,,,,,,,,,,,,,,00044,001,2026-01-17_16h35.46.136,MST_task,2024.2.0,60.11522887332214,2026-01-17 16h36.01.321084 +0530,
,Scenes\013a.jpg,6,0,7,,,,,,,j,1.7278987000026973,0.16804770000453573,None,,,,,,7,0,6,488.3247510999936,,,,,,,,,,,,,,,,,,,,,,,,,,,,,,488.30920249999326,488.3247510999936,488.832010099999,488.8093053000048,,,,,,,,,,,,,,,,,,,,,,,,,,488.8289014000038,488.832010099999,488.832010099999,488.832010099999,491.82529569999315,j,1.7278987000026973,0.16804770000453573,491.82547219999833,491.82553400000324,None,,,,,,,,,,,,,,,,,00044,001,2026-01-17_16h35.46.136,MST_task,2024.2.0,60.11522887332214,2026-01-17 16h36.01.321084 +0530,
,Objects\077a.jpg,7,0,8,,,,,,,j,2.1835750000027474,0.18456870000227354,None,,,,,,8,0,7,491.84144679999736,,,,,,,,,,,,,,,,,,,,,,,,,,,,,,491.8260016999993,491.84144679999736,492.343621299995,492.3258092000033,,,,,,,,,,,,,,,,,,,,,,,,,,492.3404601999937,492.343621299995,492.343621299995,492.343621299995,495.3422170999984,j,2.1835750000027474,0.18456870000227354,495.35011299999314,495.35015840000415,None,,,,,,,,,,,,,,,,,00044,001,2026-01-17_16h35.46.136,MST_task,2024.2.0,60.11522887332214,2026-01-17 16h36.01.321084 +0530,
,Objects\093a.jpg,8,0,9,,,,,,,f,1.5977925000042887,0.21564150000631344,None,,,,,,9,0,8,495.35828810000385,,,,,,,,,,,,,,,,,,,,,,,,,,,,,,495.35040329999174,495.35828810000385,495.85829839999496,495.84267489999183,,,,,,,,,,,,,,,,,,,,,,,,,,495.84891620000417,495.85829839999496,495.85829839999496,495.85829839999496,498.84327009999834,f,1.5977925000042887,0.21564150000631344,498.84345600000233,498.84351209999295,None,498.8581148999947,498.8581148999947,498.8581148999947,,,,,,,,,,,,,,00044,001,2026-01-17_16h35.46.136,MST_task,2024.2.0,60.11522887332214,2026-01-17 16h36.01.321084 +0530,
,Objects\171a.jpg,9,0,10,,,,,,,j,2.0565827999962494,0.16918900000746362,None,,,,,,10,0,9,498.8581148999947,,,,,,,,,,,,,,,,,,,,,,,,,,,,,,498.8438013999985,498.8581148999947,499.35845580000023,499.3426707000035,,,,,,,,,,,,,,,,,,,,,,,,,,499.3495741999941,499.35845580000023,499.35845580000023,499.35845580000023,502.3431355999928,j,2.0565827999962494,0.16918900000746362,502.3433168999909,502.34337859999505,None,502.3581200000044,502.3581200000044,502.3581200000044,,,,,,,,,,,,,,00044,001,2026-01-17_16h35.46.136,MST_task,2024.2.0,60.11522887332214,2026-01-17 16h36.01.321084 +0530,
,Objects\190a.jpg,10,0,11,,,,,,,f,1.1571538999996847,0.18470030000025872,None,,,,,,11,0,10,502.3581200000044,,,,,,,,,,,,,,,,,,,,,,,,,,,,,,502.34382369999366,502.3581200000044,502.85831470000267,502.8426480999915,,,,,,,,,,,,,,,,,,,,,,,,,,502.84871649999695,502.85831470000267,502.85831470000267,502.85831470000267,505.84330809999665,f,1.1571538999996847,0.18470030000025872,505.84349299999303,505.84355449999566,None,505.8582810999942,505.8582810999942,505.8582810999942,,,,,,,,,,,,,,00044,001,2026-01-17_16h35.46.136,MST_task,2024.2.0,60.11522887332214,2026-01-17 16h36.01.321084 +0530,
,Objects\124a.jpg,11,0,12,,,,,,,f,2.5264369000069564,0.25560539998696186,None,,,,,,12,0,11,505.8582810999942,,,,,,,,,,,,,,,,,,,,,,,,,,,,,,505.84383509999316,505.8582810999942,506.393576100003,506.34263879999344,,,,,,,,,,,,,,,,,,,,,,,,,,506.390393099995,506.393576100003,506.393576100003,506.393576100003,509.35874969999713,f,2.5264369000069564,0.25560539998696186,509.3588902000047,509.35892590000003,None,,,,,,,,,,,,,,,,,00044,001,2026-01-17_16h35.46.136,MST_task,2024.2.0,60.11522887332214,2026-01-17 16h36.01.321084 +0530,
,Objects\187a.jpg,12,0,13,,,,,,,f,1.2873298000049544,0.19155839999439195,None,,,,,,13,0,12,509.37498359999154,,,,,,,,,,,,,,,,,,,,,,,,,,,,,,509.3591904999921,509.37498359999154,509.90515759999107,509.859469499992,,,,,,,,,,,,,,,,,,,,,,,,,,509.90187790000346,509.90515759999107,509.90515759999107,509.90515759999107,512.8750424000027,f,1.2873298000049544,0.19155839999439195,512.8751805999927,512.8752267999953,None,,,,,,,,,,,,,,,,,00044,001,2026-01-17_16h35.46.136,MST_task,2024.2.0,60.11522887332214,2026-01-17 16h36.01.321084 +0530,
,Objects\166a.jpg,13,0,14,,,,,,,f,2.127839499997208,0.20745249999163207,None,,,,,,14,0,13,512.8913595000049,,,,,,,,,,,,,,,,,,,,,,,,,,,,,,512.875555199993,512.8913595000049,513.3917627999908,513.376065199991,,,,,,,,,,,,,,,,,,,,,,,,,,513.3851339999965,513.3917627999908,513.3917627999908,513.3917627999908,516.376598399991,f,2.127839499997208,0.20745249999163207,516.3767359999911,516.3767812000006,None,516.3916548999987,516.3916548999987,516.3916548999987,,,,,,,,,,,,,,00044,001,2026-01-17_16h35.46.136,MST_task,2024.2.0,60.11522887332214,2026-01-17 16h36.01.321084 +0530,
,Scenes\001a.jpg,14,0,15,,,,,,,f,2.755667599994922,0.20799359999364242,None,,,,,,15,0,14,516.3916548999987,,,,,,,,,,,,,,,,,,,,,,,,,,,,,,516.3772371999949,516.3916548999987,516.9005622999975,516.8759787000017,,,,,,,,,,,,,,,,,,,,,,,,,,516.8970043000008,516.9005622999975,516.9005622999975,516.9005622999975,519.8922697999951,f,2.755667599994922,0.20799359999364242,519.897037799994,519.8970885000017,None,,,,,,,,,,,,,,,,,00044,001,2026-01-17_16h35.46.136,MST_task,2024.2.0,60.11522887332214,2026-01-17 16h36.01.321084 +0530,
,Scenes\171a.jpg,15,0,16,,,,,,,f,1.9907926999876508,0.17513450000842568,None,,,,,,16,0,15,519.9082938999927,,,,,,,,,,,,,,,,,,,,,,,,,,,,,,519.8973734000028,519.9082938999927,520.4176470999955,520.3926737000002,,,,,,,,,,,,,,,,,,,,,,,,,,520.4141734000004,520.4176470999955,520.4176470999955,520.4176470999955,523.4085642999999,f,1.9907926999876508,0.17513450000842568,523.4087407000043,523.4087809000048,None,,,,,,,,,,,,,,,,,00044,001,2026-01-17_16h35.46.136,MST_task,2024.2.0,60.11522887332214,2026-01-17 16h36.01.321084 +0530,
,Scenes\055a.jpg,16,0,17,,,,,,,j,1.9190610999939963,0.18307040000217967,None,,,,,,17,0,16,523.4248383999948,,,,,,,,,,,,,,,,,,,,,,,,,,,,,,523.409067799992,523.4248383999948,523.9290509999992,523.9096264999971,,,,,,,,,,,,,,,,,,,,,,,,,,523.9257515999925,523.9290509999992,523.9290509999992,523.9290509999992,526.925662099995,j,1.9190610999939963,0.18307040000217967,526.9258048999909,526.9258553999971,None,,,,,,,,,,,,,,,,,00044,001,2026-01-17_16h35.46.136,MST_task,2024.2.0,60.11522887332214,2026-01-17 16h36.01.321084 +0530,
,Scenes\189a.jpg,17,0,18,,,,,,,j,2.251743999993778,0.18279700000130106,None,,,,,,18,0,17,526.941393400004,,,,,,,,,,,,,,,,,,,,,,,,,,,,,,526.926111599998,526.941393400004,527.4444038999936,527.4258343999973,,,,,,,,,,,,,,,,,,,,,,,,,,527.4417551999941,527.4444038999936,527.4444038999936,527.4444038999936,530.4424110999971,j,2.251743999993778,0.18279700000130106,530.4426095999952,530.4426730999985,None,,,,,,,,,,,,,,,,,00044,001,2026-01-17_16h35.46.136,MST_task,2024.2.0,60.11522887332214,2026-01-17 16h36.01.321084 +0530,
,Scenes\110a.jpg,18,0,19,,,,,,,j,1.989575200001127,0.16805429999658372,None,,,,,,19,0,18,530.4581524999958,,,,,,,,,,,,,,,,,,,,,,,,,,,,,,530.4429357000045,530.4581524999958,530.9624957000051,530.9425062999944,,,,,,,,,,,,,,,,,,,,,,,,,,530.9591778000031,530.9624957000051,530.9624957000051,530.9624957000051,533.9588321000047,j,1.989575200001127,0.16805429999658372,533.9590181999956,533.9590551000001,None,,,,,,,,,,,,,,,,,00044,001,2026-01-17_16h35.46.136,MST_task,2024.2.0,60.11522887332214,2026-01-17 16h36.01.321084 +0530,
,Scenes\136a.jpg,19,0,20,,,,,,,f,2.732515499999863,0.21474379999563098,None,,,,,,20,0,19,533.9748089999921,,,,,,,,,,,,,,,,,,,,,,,,,,,,,,533.9593293999933,533.9748089999921,534.4757417999936,534.4596915000002,,,,,,,,,,,,,,,,,,,,,,,,,,534.4698591000051,534.4757417999936,534.4757417999936,534.4757417999936,537.4594920999953,f,2.732515499999863,0.21474379999563098,537.4596689000027,537.4597307999938,None,,,,,,,,,,,,,,,,,00044,001,2026-01-17_16h35.46.136,MST_task,2024.2.0,60.11522887332214,2026-01-17 16h36.01.321084 +0530,
,Scenes\182a.jpg,20,0,21,,,,,,,None,,,j,0.03279040000052191,None,,,,21,0,20,537.474896700005,,,,,,,,,,,,,,,,,,,,,,,,,,,,,,537.4600975999929,537.474896700005,537.9791302999947,537.9593260999973,,,,,,,,,,,,,,,,,,,,,,,,,,537.9754440999968,537.9791302999947,537.9791302999947,537.9791302999947,540.9756055000034,None,,,540.9757567999914,541.0269173999986,j,,,,540.9914239999925,540.9914239999925,0.03279040000052191,None,,,,,,,,,,00044,001,2026-01-17_16h35.46.136,MST_task,2024.2.0,60.11522887332214,2026-01-17 16h36.01.321084 +0530,
,Objects\022a.jpg,21,0,22,,,,,,,f,1.514264400000684,0.17541609999898355,None,,,,,,22,0,21,541.0413360999955,,,,,,,,,,,,,,,,,,,,,,,,,,,,,,541.0272002999991,541.0413360999955,541.5419608999946,541.5262741000042,,,,,,,,,,,,,,,,,,,,,,,,,,541.5377608999988,541.5419608999946,541.5419608999946,541.5419608999946,544.5261918000033,f,1.514264400000684,0.17541609999898355,544.5309825000004,544.5310137000051,None,544.5416814999917,544.5416814999917,544.5416814999917,,,,,,,,,,,,,,00044,001,2026-01-17_16h35.46.136,MST_task,2024.2.0,60.11522887332214,2026-01-17 16h36.01.321084 +0530,
,Objects\090a.jpg,22,0,23,,,,,,,f,2.8463178999954835,None,None,,,,,,23,0,22,544.5416814999917,,,,,,,,,,,,,,,,,,,,,,,,,,,,,,544.5311532999913,544.5416814999917,545.0416647999955,545.025799199997,,,,,,,,,,,,,,,,,,,,,,,,,,545.0345986000029,545.0416647999955,545.0416647999955,545.0416647999955,548.0269537999993,f,2.8463178999954835,None,548.0271347999951,548.0271948000009,None,548.041352699991,548.041352699991,548.041352699991,,,,,,,,,,,,,,00044,001,2026-01-17_16h35.46.136,MST_task,2024.2.0,60.11522887332214,2026-01-17 16h36.01.321084 +0530,
,Objects\023a.jpg,23,0,24,,,,,,,f,1.411027499998454,0.18319990001327824,None,,,,,,24,0,23,548.041352699991,,,,,,,,,,,,,,,,,,,,,,,,,,,,,,548.0275368000002,548.041352699991,548.5418032000016,548.5260239999916,,,,,,,,,,,,,,,,,,,,,,,,,,548.5324802999967,548.5418032000016,548.5418032000016,548.5418032000016,551.5267940999911,f,1.411027499998454,0.18319990001327824,551.5274334999995,551.5274758000014,None,551.5413676000026,551.5413676000026,551.5413676000026,,,,,,,,,,,,,,00044,001,2026-01-17_16h35.46.136,MST_task,2024.2.0,60.11522887332214,2026-01-17 16h36.01.321084 +0530,
,Objects\005a.jpg,24,0,25,,,,,,,f,1.9665418999938993,0.18371559999650344,None,,,,,,25,0,24,551.5413676000026,,,,,,,,,,,,,,,,,,,,,,,,,,,,,,551.5276892999973,551.5413676000026,552.0417525999947,552.0263274000026,,,,,,,,,,,,,,,,,,,,,,,,,,552.0345578999986,552.0417525999947,552.0417525999947,552.0417525999947,555.0266660999914,f,1.9665418999938993,0.18371559999650344,555.0268483999971,555.026915399998,None,555.0416353000037,555.0416353000037,555.0416353000037,,,,,,,,,,,,,,00044,001,2026-01-17_16h35.46.136,MST_task,2024.2.0,60.11522887332214,2026-01-17 16h36.01.321084 +0530,
,Objects\082a.jpg,25,0,26,,,,,,,j,2.6421723999956157,0.215575499998522,None,,,,,,26,0,25,555.0416353000037,,,,,,,,,,,,,,,,,,,,,,,,,,,,,,555.0272784999979,555.0416353000037,555.5418770999968,555.5260013999941,,,,,,,,,,,,,,,,,,,,,,,,,,555.5327355999907,555.5418770999968,555.5418770999968,555.5418770999968,558.5272008000029,j,2.6421723999956157,0.215575499998522,558.5273847999924,558.5274457999913,None,558.5415716999996,558.5415716999996,558.5415716999996,,,,,,,,,,,,,,00044,001,2026-01-17_16h35.46.136,MST_task,2024.2.0,60.11522887332214,2026-01-17 16h36.01.321084 +0530,
,Objects\001a.jpg,26,0,27,,,,,,,f,1.6381206000078237,0.20821230000001378,None,,,,,,27,0,26,558.5415716999996,,,,,,,,,,,,,,,,,,,,,,,,,,,,,,558.5279079000029,558.5415716999996,559.0418265000044,559.0259504999995,,,,,,,,,,,,,,,,,,,,,,,,,,559.0318067000044,559.0418265000044,559.0418265000044,559.0418265000044,562.0269300999935,f,1.6381206000078237,0.20821230000001378,562.0271034000034,562.0271658999991,None,562.0413427000021,562.0413427000021,562.0413427000021,,,,,,,,,,,,,,00044,001,2026-01-17_16h35.46.136,MST_task,2024.2.0,60.11522887332214,2026-01-17 16h36.01.321084 +0530,
,Objects\040a.jpg,27,0,28,,,,,,,j,2.7696555000002263,None,None,,,,,,28,0,27,562.0413427000021,,,,,,,,,,,,,,,,,,,,,,,,,,,,,,562.0274285999913,562.0413427000021,562.5417482000048,562.5262233999965,,,,,,,,,,,,,,,,,,,,,,,,,,562.5317206000036,562.5417482000048,562.5417482000048,562.5417482000048,565.5268687999924,j,2.7696555000002263,None,565.5270116000029,565.5270709000033,None,565.5413933999953,565.5413933999953,565.5413933999953,,,,,,,,,,,,,,00044,001,2026-01-17_16h35.46.136,MST_task,2024.2.0,60.11522887332214,2026-01-17 16h36.01.321084 +0530,
,Scenes\150a.jpg,28,0,29,,,,,,,j,1.8039239999925485,0.15188279999711085,None,,,,,,29,0,28,565.5413933999953,,,,,,,,,,,,,,,,,,,,,,,,,,,,,,565.5273947999958,565.5413933999953,566.0435068999941,566.0262609999918,,,,,,,,,,,,,,,,,,,,,,,,,,566.0402548999991,566.0435068999941,566.0435068999941,566.0435068999941,569.0424237999978,j,1.8039239999925485,0.15188279999711085,569.0473456000036,569.0473662000004,None,,,,,,,,,,,,,,,,,00044,001,2026-01-17_16h35.46.136,MST_task,2024.2.0,60.11522887332214,2026-01-17 16h36.01.321084 +0530,
,Scenes\062a.jpg,29,0,30,,,,,,,None,,,j,0.5935909999971045,None,,,,30,0,29,569.0582524999918,,,,,,,,,,,,,,,,,,,,,,,,,,,,,,569.0474991999945,569.0582524999918,569.564618999997,569.5429082000046,,,,,,,,,,,,,,,,,,,,,,,,,,569.5609912999935,569.564618999997,569.564618999997,569.564618999997,572.5586977999919,None,,,572.5588207999972,573.1768124999944,j,,,,572.5748314999946,572.5748314999946,0.5935909999971045,None,,,,,,,,,,00044,001,2026-01-17_16h35.46.136,MST_task,2024.2.0,60.11522887332214,2026-01-17 16h36.01.321084 +0530,
,Scenes\043a.jpg,30,0,31,,,,,,,j,2.614728300002753,0.1922809999960009,None,,,,,,31,0,30,573.1914219000028,,,,,,,,,,,,,,,,,,,,,,,,,,,,,,573.177237099997,573.1914219000028,573.6967691000027,573.6757983999996,,,,,,,,,,,,,,,,,,,,,,,,,,573.6936010999925,573.6967691000027,573.6967691000027,573.6967691000027,576.6923639000015,j,2.614728300002753,0.1922809999960009,576.6925373999984,576.6926013000048,None,,,,,,,,,,,,,,,,,00044,001,2026-01-17_16h35.46.136,MST_task,2024.2.0,60.11522887332214,2026-01-17 16h36.01.321084 +0530,
,Scenes\038a.jpg,31,0,32,,,,,,,j,2.021829399993294,0.15284940000856295,None,,,,,,32,0,31,576.7082025999989,,,,,,,,,,,,,,,,,,,,,,,,,,,,,,576.6929472000047,576.7082025999989,577.2092394999927,577.1925435000012,,,,,,,,,,,,,,,,,,,,,,,,,,577.2059204999969,577.2092394999927,577.2092394999927,577.2092394999927,580.1933950999955,j,2.021829399993294,0.15284940000856295,580.1935076999944,580.1935358999908,None,580.2082165000029,580.2082165000029,580.2082165000029,,,,,,,,,,,,,,00044,001,2026-01-17_16h35.46.136,MST_task,2024.2.0,60.11522887332214,2026-01-17 16h36.01.321084 +0530,
,Scenes\084a.jpg,32,0,33,,,,,,,j,2.2733015999983763,0.14333970000734553,None,,,,,,33,0,32,580.2082165000029,,,,,,,,,,,,,,,,,,,,,,,,,,,,,,580.1937573000032,580.2082165000029,580.711433000004,580.6926018999948,,,,,,,,,,,,,,,,,,,,,,,,,,580.7077713000035,580.711433000004,580.711433000004,580.711433000004,583.7087826999923,j,2.2733015999983763,0.14333970000734553,583.7089554999984,583.7090171000018,None,,,,,,,,,,,,,,,,,00044,001,2026-01-17_16h35.46.136,MST_task,2024.2.0,60.11522887332214,2026-01-17 16h36.01.321084 +0530,
,Scenes\131a.jpg,33,0,34,,,,,,,j,2.812201399996411,None,None,,,,,,34,0,33,583.7256713999959,,,,,,,,,,,,,,,,,,,,,,,,,,,,,,583.7094748999953,583.7256713999959,584.227770700003,584.2090888999955,,,,,,,,,,,,,,,,,,,,,,,,,,584.2243515000009,584.227770700003,584.227770700003,584.227770700003,587.2260169999936,j,2.812201399996411,None,587.2262203999999,587.226282100004,None,,,,,,,,,,,,,,,,,00044,001,2026-01-17_16h35.46.136,MST_task,2024.2.0,60.11522887332214,2026-01-17 16h36.01.321084 +0530,
,Scenes\165a.jpg,34,0,35,,,,,,,f,2.2709968999988632,0.16909260000102222,None,,,,,,35,0,34,587.2413907000009,,,,,,,,,,,,,,,,,,,,,,,,,,,,,,587.2266017999937,587.2413907000009,587.7444244999933,587.7259254999954,,,,,,,,,,,,,,,,,,,,,,,,,,587.7411356999946,587.7444244999933,587.7444244999933,587.7444244999933,590.7422810999997,f,2.2709968999988632,0.16909260000102222,590.7423964999907,590.7424476000015,None,,,,,,,,,,,,,,,,,00044,001,2026-01-17_16h35.46.136,MST_task,2024.2.0,60.11522887332214,2026-01-17 16h36.01.321084 +0530,
,Objects\132a.jpg,35,0,36,,,,,,,f,1.5410216000018409,0.12727889999223407,None,,,,,,36,0,35,590.7581781000044,,,,,,,,,,,,,,,,,,,,,,,,,,,,,,590.7426452999935,590.7581781000044,591.2590027999977,591.2423956999992,,,,,,,,,,,,,,,,,,,,,,,,,,591.2544875000021,591.2590027999977,591.2590027999977,591.2590027999977,594.2432898999978,f,1.5410216000018409,0.12727889999223407,594.2482343000011,594.2482732999924,None,594.2587638999976,594.2587638999976,594.2587638999976,,,,,,,,,,,,,,00044,001,2026-01-17_16h35.46.136,MST_task,2024.2.0,60.11522887332214,2026-01-17 16h36.01.321084 +0530,
,Objects\041a.jpg,36,0,37,,,,,,,j,2.4649549999885494,0.14497940000728704,None,,,,,,37,0,36,594.2587638999976,,,,,,,,,,,,,,,,,,,,,,,,,,,,,,594.2485231000028,594.2587638999976,594.7583723999996,594.7426134999987,,,,,,,,,,,,,,,,,,,,,,,,,,594.7494675999915,594.7583723999996,594.7583723999996,594.7583723999996,597.7432159000018,j,2.4649549999885494,0.14497940000728704,597.7433128999983,597.7433449999953,None,597.7582339999935,597.7582339999935,597.7582339999935,,,,,,,,,,,,,,00044,001,2026-01-17_16h35.46.136,MST_task,2024.2.0,60.11522887332214,2026-01-17 16h36.01.321084 +0530,
,Objects\167a.jpg,37,0,38,,,,,,,f,2.4448976999992738,0.21565920001012273,None,,,,,,38,0,37,597.7582339999935,,,,,,,,,,,,,,,,,,,,,,,,,,,,,,597.743581399991,597.7582339999935,598.2588355000044,598.2430031999975,,,,,,,,,,,,,,,,,,,,,,,,,,598.2506180999917,598.2588355000044,598.2588355000044,598.2588355000044,601.2432765999984,f,2.4448976999992738,0.21565920001012273,601.2434495999914,601.243510699991,None,601.2581204000016,601.2581204000016,601.2581204000016,,,,,,,,,,,,,,00044,001,2026-01-17_16h35.46.136,MST_task,2024.2.0,60.11522887332214,2026-01-17 16h36.01.321084 +0530,
,Objects\184a.jpg,38,0,39,,,,,,,j,2.472250599996187,0.1912066000077175,None,,,,,,39,0,38,601.2581204000016,,,,,,,,,,,,,,,,,,,,,,,,,,,,,,601.2436952999997,601.2581204000016,601.7840062000032,601.7432020999986,,,,,,,,,,,,,,,,,,,,,,,,,,601.7804160999949,601.7840062000032,601.7840062000032,601.7840062000032,604.759191899997,j,2.472250599996187,0.1912066000077175,604.7593887999974,604.7594488000032,None,,,,,,,,,,,,,,,,,00044,001,2026-01-17_16h35.46.136,MST_task,2024.2.0,60.11522887332214,2026-01-17 16h36.01.321084 +0530,
,Objects\006a.jpg,39,0,40,,,,,,,f,2.1248663000005763,0.21500579999701586,None,,,,,,40,0,39,604.7748158000031,,,,,,,,,,,,,,,,,,,,,,,,,,,,,,604.7598571999988,604.7748158000031,605.2753112999926,605.259160799993,,,,,,,,,,,,,,,,,,,,,,,,,,605.2648850999976,605.2753112999926,605.2753112999926,605.2753112999926,608.2599922999943,f,2.1248663000005763,0.21500579999701586,608.2601277999929,608.260168199995,None,608.2754031999939,608.2754031999939,608.2754031999939,,,,,,,,,,,,,,00044,001,2026-01-17_16h35.46.136,MST_task,2024.2.0,60.11522887332214,2026-01-17 16h36.01.321084 +0530,
,Objects\038a.jpg,40,0,41,,,,,,,f,1.6248265999893192,0.22375920000195038,None,,,,,,41,0,40,608.2754031999939,,,,,,,,,,,,,,,,,,,,,,,,,,,,,,608.2604001,608.2754031999939,608.7752581999957,608.7592010999942,,,,,,,,,,,,,,,,,,,,,,,,,,608.7643416999927,608.7752581999957,608.7752581999957,608.7752581999957,611.7602954000031,f,1.6248265999893192,0.22375920000195038,611.7604198000045,611.7604558000021,None,611.7751940000016,611.7751940000016,611.7751940000016,,,,,,,,,,,,,,00044,001,2026-01-17_16h35.46.136,MST_task,2024.2.0,60.11522887332214,2026-01-17 16h36.01.321084 +0530,
,Objects\162a.jpg,41,0,42,,,,,,,f,1.9814193000056548,0.23893560000578873,None,,,,,,42,0,41,611.7751940000016,,,,,,,,,,,,,,,,,,,,,,,,,,,,,,611.7609112999926,611.7751940000016,612.2751543999912,612.259112899992,,,,,,,,,,,,,,,,,,,,,,,,,,612.2649052999914,612.2751543999912,612.2751543999912,612.2751543999912,615.2601255999907,f,1.9814193000056548,0.23893560000578873,615.2603039999958,615.2603779999918,None,615.2748003000015,615.2748003000015,615.2748003000015,,,,,,,,,,,,,,00044,001,2026-01-17_16h35.46.136,MST_task,2024.2.0,60.11522887332214,2026-01-17 16h36.01.321084 +0530,
,Scenes\026a.jpg,42,0,43,,,,,,,j,2.6279217999981483,0.19252869999036193,None,,,,,,43,0,42,615.2748003000015,,,,,,,,,,,,,,,,,,,,,,,,,,,,,,615.2605643999996,615.2748003000015,615.7790980999998,615.7593407999957,,,,,,,,,,,,,,,,,,,,,,,,,,615.776171999998,615.7790980999998,615.7790980999998,615.7790980999998,618.7756831000006,j,2.6279217999981483,0.19252869999036193,618.7788960000034,618.778922700003,None,,,,,,,,,,,,,,,,,00044,001,2026-01-17_16h35.46.136,MST_task,2024.2.0,60.11522887332214,2026-01-17 16h36.01.321084 +0530,
,Scenes\091a.jpg,43,0,44,,,,,,,j,1.82486959999369,0.2012405999994371,None,,,,,,44,0,43,618.7913580000022,,,,,,,,,,,,,,,,,,,,,,,,,,,,,,618.7790342999942,618.7913580000022,619.2940736000019,619.2759996999957,,,,,,,,,,,,,,,,,,,,,,,,,,619.2906967000017,619.2940736000019,619.2940736000019,619.2940736000019,622.2917098000034,j,1.82486959999369,0.2012405999994371,622.2918859999918,622.2919483000005,None,,,,,,,,,,,,,,,,,00044,001,2026-01-17_16h35.46.136,MST_task,2024.2.0,60.11522887332214,2026-01-17 16h36.01.321084 +0530,
,Scenes\122a.jpg,44,0,45,,,,,,,j,1.7857339000038337,0.24868819999392144,None,,,,,,45,0,44,622.308116500004,,,,,,,,,,,,,,,,,,,,,,,,,,,,,,622.2922831000033,622.308116500004,622.8131211,622.7929395999963,,,,,,,,,,,,,,,,,,,,,,,,,,622.8078813000029,622.8131211,622.8131211,622.8131211,625.8087227999931,j,1.7857339000038337,0.24868819999392144,625.8088281999953,625.808864199993,None,,,,,,,,,,,,,,,,,00044,001,2026-01-17_16h35.46.136,MST_task,2024.2.0,60.11522887332214,2026-01-17 16h36.01.321084 +0530,
,Scenes\123a.jpg,45,0,46,,,,,,,None,,,j,0.08985509999911301,None,,,,46,0,45,625.825125599993,,,,,,,,,,,,,,,,,,,,,,,,,,,,,,625.809116599994,625.825125599993,626.3287152999983,626.3094798999955,,,,,,,,,,,,,,,,,,,,,,,,,,626.3252002999943,626.3287152999983,626.3287152999983,626.3287152999983,629.325530999995,None,,,629.3256812000036,629.4429543000006,j,,,,629.3419489999942,629.3419489999942,0.08985509999911301,None,,,,,,,,,,00044,001,2026-01-17_16h35.46.136,MST_task,2024.2.0,60.11522887332214,2026-01-17 16h36.01.321084 +0530,
,Scenes\118a.jpg,46,0,47,,,,,,,j,1.5037655000051018,0.1518268999934662,None,,,,,,47,0,46,629.4583748000005,,,,,,,,,,,,,,,,,,,,,,,,,,,,,,629.4433810000046,629.4583748000005,629.9596858000004,629.9425964999973,,,,,,,,,,,,,,,,,,,,,,,,,,629.9527044999995,629.9596858000004,629.9596858000004,629.9596858000004,632.9584848999948,j,1.5037655000051018,0.1518268999934662,632.9586143999913,632.9586542000034,None,,,,,,,,,,,,,,,,,00044,001,2026-01-17_16h35.46.136,MST_task,2024.2.0,60.11522887332214,2026-01-17 16h36.01.321084 +0530,
,Scenes\093a.jpg,47,0,48,,,,,,,f,1.2344603999954415,0.2164721000008285,None,,,,,,48,0,47,632.9749813999952,,,,,,,,,,,,,,,,,,,,,,,,,,,,,,632.9589405000006,632.9749813999952,633.4767389000044,633.4590792999952,,,,,,,,,,,,,,,,,,,,,,,,,,633.4728104999958,633.4767389000044,633.4767389000044,633.4767389000044,636.4754991999944,f,1.2344603999954415,0.2164721000008285,636.4756171000045,636.4756571000034,None,,,,,,,,,,,,,,,,,00044,001,2026-01-17_16h35.46.136,MST_task,2024.2.0,60.11522887332214,2026-01-17 16h36.01.321084 +0530,
,Scenes\157a.jpg,48,0,49,,,,,,,j,1.9906326000054833,0.16855059999215882,None,,,,,,49,0,48,636.4914332000044,,,,,,,,,,,,,,,,,,,,,,,,,,,,,,636.4759494000027,636.4914332000044,636.9930247000011,636.9758476999996,,,,,,,,,,,,,,,,,,,,,,,,,,636.9897596999945,636.9930247000011,636.9930247000011,636.9930247000011,639.992121999996,j,1.9906326000054833,0.16855059999215882,639.9923029999918,639.9923659999913,None,,,,,,,,,,,,,,,,,00044,001,2026-01-17_16h35.46.136,MST_task,2024.2.0,60.11522887332214,2026-01-17 16h36.01.321084 +0530,
,Objects\182a.jpg,49,0,50,,,,,,,f,1.3308446000010008,0.14372670000011567,None,,,,,,50,0,49,640.0082679000043,,,,,,,,,,,,,,,,,,,,,,,,,,,,,,639.9927485999942,640.0082679000043,640.508660499996,640.4925884999975,,,,,,,,,,,,,,,,,,,,,,,,,,640.5039917999966,640.508660499996,640.508660499996,640.508660499996,643.4930469999963,f,1.3308446000010008,0.14372670000011567,643.4969321999961,643.4969615000009,None,643.5081608000037,643.5081608000037,643.5081608000037,,,,,,,,,,,,,,00044,001,2026-01-17_16h35.46.136,MST_task,2024.2.0,60.11522887332214,2026-01-17 16h36.01.321084 +0530,
,Objects\159a.jpg,50,0,51,,,,,,,f,1.6079005999927176,0.16662899999937508,None,,,,,,51,0,50,643.5081608000037,,,,,,,,,,,,,,,,,,,,,,,,,,,,,,643.497091600002,643.5081608000037,644.008407500005,643.9928117999953,,,,,,,,,,,,,,,,,,,,,,,,,,644.0016527999978,644.008407500005,644.008407500005,644.008407500005,646.993189899993,f,1.6079005999927176,0.16662899999937508,646.9933718999964,646.9934321000037,None,647.0082075999962,647.0082075999962,647.0082075999962,,,,,,,,,,,,,,00044,001,2026-01-17_16h35.46.136,MST_task,2024.2.0,60.11522887332214,2026-01-17 16h36.01.321084 +0530,
,Objects\076a.jpg,51,0,52,,,,,,,f,2.4027874000021257,0.17682960000820458,None,,,,,,52,0,51,647.0082075999962,,,,,,,,,,,,,,,,,,,,,,,,,,,,,,646.9937719000009,647.0082075999962,647.5084757000004,647.4925342999923,,,,,,,,,,,,,,,,,,,,,,,,,,647.4981477999972,647.5084757000004,647.5084757000004,647.5084757000004,650.4934099999955,f,2.4027874000021257,0.17682960000820458,650.4935369000013,650.4935776999919,None,650.5081953999907,650.5081953999907,650.5081953999907,,,,,,,,,,,,,,00044,001,2026-01-17_16h35.46.136,MST_task,2024.2.0,60.11522887332214,2026-01-17 16h36.01.321084 +0530,
,Objects\161a.jpg,52,0,53,,,,,,,f,1.0950290999899153,0.18343520000053104,None,,,,,,53,0,52,650.5081953999907,,,,,,,,,,,,,,,,,,,,,,,,,,,,,,650.493904899995,650.5081953999907,651.0089604999957,650.992848599999,,,,,,,,,,,,,,,,,,,,,,,,,,651.0018630999984,651.0089604999957,651.0089604999957,651.0089604999957,653.9934974999924,f,1.0950290999899153,0.18343520000053104,653.9936206999992,653.9936614000035,None,654.0081498999934,654.0081498999934,654.0081498999934,,,,,,,,,,,,,,00044,001,2026-01-17_16h35.46.136,MST_task,2024.2.0,60.11522887332214,2026-01-17 16h36.01.321084 +0530,
,Objects\099a.jpg,53,0,54,,,,,,,f,2.0666923999961,0.1922640999982832,None,,,,,,54,0,53,654.0081498999934,,,,,,,,,,,,,,,,,,,,,,,,,,,,,,653.9938734000025,654.0081498999934,654.5086969999975,654.4924449999962,,,,,,,,,,,,,,,,,,,,,,,,,,654.5009481000016,654.5086969999975,654.5086969999975,654.5086969999975,657.4932224999939,f,2.0666923999961,0.1922640999982832,657.4933271999907,657.4933681999973,None,657.5085192999977,657.5085192999977,657.5085192999977,,,,,,,,,,,,,,00044,001,2026-01-17_16h35.46.136,MST_task,2024.2.0,60.11522887332214,2026-01-17 16h36.01.321084 +0530,
,Objects\176a.jpg,54,0,55,,,,,,,None,,,j,0.6317391000047792,None,,,,55,0,54,657.5085192999977,,,,,,,,,,,,,,,,,,,,,,,,,,,,,,657.4935378999944,657.5085192999977,658.0088213999989,657.9928589999909,,,,,,,,,,,,,,,,,,,,,,,,,,658.0011419999937,658.0088213999989,658.0088213999989,658.0088213999989,660.9932903000008,None,,,660.9934109000023,661.6432273999962,j,661.0081877000048,661.0081877000048,661.0081877000048,661.0081877000048,661.0081877000048,0.6317391000047792,None,,,,,,,,,,00044,001,2026-01-17_16h35.46.136,MST_task,2024.2.0,60.11522887332214,2026-01-17 16h36.01.321084 +0530,
,Objects\002a.jpg,55,0,56,,,,,,,f,1.4953491000051145,0.1999336000008043,None,,,,,,56,0,55,661.6587885999907,,,,,,,,,,,,,,,,,,,,,,,,,,,,,,661.6436676000012,661.6587885999907,662.2001010999957,662.1425330999919,,,,,,,,,,,,,,,,,,,,,,,,,,662.1968824999931,662.2001010999957,662.2001010999957,662.2001010999957,665.1590864000027,f,1.4953491000051145,0.1999336000008043,665.1592047000013,665.1592450000026,None,,,,,,,,,,,,,,,,,00044,001,2026-01-17_16h35.46.136,MST_task,2024.2.0,60.11522887332214,2026-01-17 16h36.01.321084 +0530,
,Scenes\128a.jpg,56,0,57,,,,,,,j,1.0459054999955697,0.16841709999425802,None,,,,,,57,0,56,665.174838699997,,,,,,,,,,,,,,,,,,,,,,,,,,,,,,665.1595281999907,665.174838699997,665.6815408999973,665.6594576999923,,,,,,,,,,,,,,,,,,,,,,,,,,665.6785322999931,665.6815408999973,665.6815408999973,665.6815408999973,668.6755383999989,j,1.0459054999955697,0.16841709999425802,668.6808222999971,668.6808988999983,None,,,,,,,,,,,,,,,,,00044,001,2026-01-17_16h35.46.136,MST_task,2024.2.0,60.11522887332214,2026-01-17 16h36.01.321084 +0530,
,Scenes\142a.jpg,57,0,58,,,,,,,j,1.3232011999934912,0.16820300000836141,None,,,,,,58,0,57,668.6916706000047,,,,,,,,,,,,,,,,,,,,,,,,,,,,,,668.6812548000016,668.6916706000047,669.2038599999942,669.1759243999986,,,,,,,,,,,,,,,,,,,,,,,,,,669.2001324000012,669.2038599999942,669.2038599999942,669.2038599999942,672.1919835000008,j,1.3232011999934912,0.16820300000836141,672.1921568999969,672.1922171000042,None,,,,,,,,,,,,,,,,,00044,001,2026-01-17_16h35.46.136,MST_task,2024.2.0,60.11522887332214,2026-01-17 16h36.01.321084 +0530,
,Scenes\154a.jpg,58,0,59,,,,,,,j,1.9704980999958934,0.19208100000105333,None,,,,,,59,0,58,672.208214600003,,,,,,,,,,,,,,,,,,,,,,,,,,,,,,672.1925461999926,672.208214600003,672.7088803999941,672.6925224000006,,,,,,,,,,,,,,,,,,,,,,,,,,672.7051812999998,672.7088803999941,672.7088803999941,672.7088803999941,675.6938690999959,j,1.9704980999958934,0.19208100000105333,675.6940774999966,675.694138699997,None,675.7081319999998,675.7081319999998,675.7081319999998,,,,,,,,,,,,,,00044,001,2026-01-17_16h35.46.136,MST_task,2024.2.0,60.11522887332214,2026-01-17 16h36.01.321084 +0530,
,Scenes\147a.jpg,59,0,60,,,,,,,j,2.8865613999951165,None,None,,,,,,60,0,59,675.7081319999998,,,,,,,,,,,,,,,,,,,,,,,,,,,,,,675.6945016999962,675.7081319999998,676.208547400005,676.1924421000003,,,,,,,,,,,,,,,,,,,,,,,,,,676.2012609999947,676.208547400005,676.208547400005,676.208547400005,679.1933572999988,j,2.8865613999951165,None,679.1935349999985,679.1935958999966,None,679.2083868000045,679.2083868000045,679.2083868000045,,,,,,,,,,,,,,00044,001,2026-01-17_16h35.46.136,MST_task,2024.2.0,60.11522887332214,2026-01-17 16h36.01.321084 +0530,
,Scenes\121a.jpg,60,0,61,,,,,,,j,2.2897995000093943,0.17545199999585748,None,,,,,,61,0,60,679.2083868000045,,,,,,,,,,,,,,,,,,,,,,,,,,,,,,679.1940268000035,679.2083868000045,679.7098375999922,679.6928994000045,,,,,,,,,,,,,,,,,,,,,,,,,,679.7067169999937,679.7098375999922,679.7098375999922,679.7098375999922,682.7086858999974,j,2.2897995000093943,0.17545199999585748,682.7088434000034,682.7088843999954,None,,,,,,,,,,,,,,,,,00044,001,2026-01-17_16h35.46.136,MST_task,2024.2.0,60.11522887332214,2026-01-17 16h36.01.321084 +0530,
,Scenes\086a.jpg,61,0,62,,,,,,,j,2.282186099997489,0.1611663000076078,None,,,,,,62,0,61,682.7249099000037,,,,,,,,,,,,,,,,,,,,,,,,,,,,,,682.7092182000051,682.7249099000037,683.2289179999934,683.2090591000015,,,,,,,,,,,,,,,,,,,,,,,,,,683.2244113999914,683.2289179999934,683.2289179999934,683.2289179999934,686.2253943999967,j,2.282186099997489,0.1611663000076078,686.2255176000035,686.2255561999918,None,,,,,,,,,,,,,,,,,00044,001,2026-01-17_16h35.46.136,MST_task,2024.2.0,60.11522887332214,2026-01-17 16h36.01.321084 +0530,
,Scenes\187a.jpg,62,0,63,,,,,,,j,1.1005486999929417,0.1429260000004433,None,,,,,,63,0,62,686.2415639999963,,,,,,,,,,,,,,,,,,,,,,,,,,,,,,686.2257662000047,686.2415639999963,686.7480359000037,686.7260477999953,,,,,,,,,,,,,,,,,,,,,,,,,,686.7448105999938,686.7480359000037,686.7480359000037,686.7480359000037,689.7257248999958,j,1.1005486999929417,0.1429260000004433,689.725847099995,689.7258855999971,None,,,,,,,,,,,,,,,,,00044,001,2026-01-17_16h35.46.136,MST_task,2024.2.0,60.11522887332214,2026-01-17 16h36.01.321084 +0530,
,Objects\148a.jpg,63,0,64,,,,,,,f,1.030134900007397,0.19898509999620728,None,,,,,,64,0,63,689.7415156999923,,,,,,,,,,,,,,,,,,,,,,,,,,,,,,689.7261323999992,689.7415156999923,690.242118299997,690.225993,,,,,,,,,,,,,,,,,,,,,,,,,,690.2380093999964,690.242118299997,690.242118299997,690.242118299997,693.2266203000036,f,1.030134900007397,0.19898509999620728,693.2314306000044,693.2314713999949,None,693.241837900001,693.241837900001,693.241837900001,,,,,,,,,,,,,,00044,001,2026-01-17_16h35.46.136,MST_task,2024.2.0,60.11522887332214,2026-01-17 16h36.01.321084 +0530,
,Objects\117a.jpg,64,0,65,,,,,,,f,2.4975005999876885,0.16815389999828767,None,,,,,,65,0,64,693.241837900001,,,,,,,,,,,,,,,,,,,,,,,,,,,,,,693.2316523000045,693.241837900001,693.7420598000026,693.7264062000031,,,,,,,,,,,,,,,,,,,,,,,,,,693.7320233999926,693.7420598000026,693.7420598000026,693.7420598000026,696.7264744999993,f,2.4975005999876885,0.16815389999828767,696.7266153999954,696.7266609999933,None,696.741557699992,696.741557699992,696.741557699992,,,,,,,,,,,,,,00044,001,2026-01-17_16h35.46.136,MST_task,2024.2.0,60.11522887332214,2026-01-17 16h36.01.321084 +0530,
,Objects\014a.jpg,65,0,66,,,,,,,f,2.5976309000106994,0.1921334999933606,None,,,,,,66,0,65,696.741557699992,,,,,,,,,,,,,,,,,,,,,,,,,,,,,,696.7268881999917,696.741557699992,697.2419429000001,697.2261801999994,,,,,,,,,,,,,,,,,,,,,,,,,,697.2345150000037,697.2419429000001,697.2419429000001,697.2419429000001,700.2268352999963,f,2.5976309000106994,0.1921334999933606,700.2270179000043,700.2270786000008,None,700.2416838999925,700.2416838999925,700.2416838999925,,,,,,,,,,,,,,00044,001,2026-01-17_16h35.46.136,MST_task,2024.2.0,60.11522887332214,2026-01-17 16h36.01.321084 +0530,
,Objects\152a.jpg,66,0,67,,,,,,,f,1.9933793999953195,0.1757897000061348,None,,,,,,67,0,66,700.2416838999925,,,,,,,,,,,,,,,,,,,,,,,,,,,,,,700.2275419999933,700.2416838999925,700.7422511000041,700.7260393000033,,,,,,,,,,,,,,,,,,,,,,,,,,700.732634999993,700.7422511000041,700.7422511000041,700.7422511000041,703.7265326000052,f,1.9933793999953195,0.1757897000061348,703.7267146999948,703.7267714999907,None,703.7416012000031,703.7416012000031,703.7416012000031,,,,,,,,,,,,,,00044,001,2026-01-17_16h35.46.136,MST_task,2024.2.0,60.11522887332214,2026-01-17 16h36.01.321084 +0530,
,Objects\109a.jpg,67,0,68,,,,,,,j,1.8062695000116946,0.16811679999227636,None,,,,,,68,0,67,703.7416012000031,,,,,,,,,,,,,,,,,,,,,,,,,,,,,,703.7270567999949,703.7416012000031,704.2418350999942,704.2260568999918,,,,,,,,,,,,,,,,,,,,,,,,,,704.232353600004,704.2418350999942,704.2418350999942,704.2418350999942,707.2268426999944,j,1.8062695000116946,0.16811679999227636,707.2270738999941,707.2271122999955,None,707.2415000000037,707.2415000000037,707.2415000000037,,,,,,,,,,,,,,00044,001,2026-01-17_16h35.46.136,MST_task,2024.2.0,60.11522887332214,2026-01-17 16h36.01.321084 +0530,
,Objects\024a.jpg,68,0,69,,,,,,,f,1.018158399994718,0.21494620000885334,None,,,,,,69,0,68,707.2415000000037,,,,,,,,,,,,,,,,,,,,,,,,,,,,,,707.2273952999967,707.2415000000037,707.7417290000012,707.7260352000012,,,,,,,,,,,,,,,,,,,,,,,,,,707.7351773999981,707.7417290000012,707.7417290000012,707.7417290000012,710.7269998999982,f,1.018158399994718,0.21494620000885334,710.7271635999932,710.7271953000018,None,710.742169899997,710.742169899997,710.742169899997,,,,,,,,,,,,,,00044,001,2026-01-17_16h35.46.136,MST_task,2024.2.0,60.11522887332214,2026-01-17 16h36.01.321084 +0530,
,Objects\030a.jpg,69,0,70,,,,,,,None,,,f,0.8470324000081746,None,,,,70,0,69,710.742169899997,,,,,,,,,,,,,,,,,,,,,,,,,,,,,,710.7274325000035,710.742169899997,711.2421002000046,711.226138900005,,,,,,,,,,,,,,,,,,,,,,,,,,711.2344874999981,711.2421002000046,711.2421002000046,711.2421002000046,714.2266402999958,None,,,714.2267764999997,715.0944189000002,f,714.2414396999957,714.2414396999957,714.2414396999957,714.2414396999957,714.2414396999957,0.8470324000081746,None,,,,,,,,,,00044,001,2026-01-17_16h35.46.136,MST_task,2024.2.0,60.11522887332214,2026-01-17 16h36.01.321084 +0530,
,Scenes\127a.jpg,70,0,71,,,,,,,j,2.397836100004497,0.2003097999986494,None,,,,,,71,0,70,715.1081122000032,,,,,,,,,,,,,,,,,,,,,,,,,,,,,,715.0948088000005,715.1081122000032,715.6814474999992,715.5926374999981,,,,,,,,,,,,,,,,,,,,,,,,,,715.678430999993,715.6814474999992,715.6814474999992,715.6814474999992,718.6081192999991,j,2.397836100004497,0.2003097999986494,718.610147600004,718.610173699999,None,,,,,,,,,,,,,,,,,00044,001,2026-01-17_16h35.46.136,MST_task,2024.2.0,60.11522887332214,2026-01-17 16h36.01.321084 +0530,
,Scenes\070a.jpg,71,0,72,,,,,,,None,,,j,0.47435309999855235,None,,,,72,0,71,718.6244873999967,,,,,,,,,,,,,,,,,,,,,,,,,,,,,,718.6103067999939,718.6244873999967,719.1276813000004,719.1092548000015,,,,,,,,,,,,,,,,,,,,,,,,,,719.1242692999949,719.1276813000004,719.1276813000004,719.1276813000004,722.1256423000013,None,,,722.125792699997,722.6269411999965,j,,,,722.1416570000001,722.1416570000001,0.47435309999855235,None,,,,,,,,,,00044,001,2026-01-17_16h35.46.136,MST_task,2024.2.0,60.11522887332214,2026-01-17 16h36.01.321084 +0530,
,Scenes\024a.jpg,72,0,73,,,,,,,j,2.4739067999908,0.19185980000474956,None,,,,,,73,0,72,722.6415504000033,,,,,,,,,,,,,,,,,,,,,,,,,,,,,,722.6274868000037,722.6415504000033,723.198369699996,723.1260938999912,,,,,,,,,,,,,,,,,,,,,,,,,,723.1952254999924,723.198369699996,723.198369699996,723.198369699996,726.1427254000009,j,2.4739067999908,0.19185980000474956,726.1429046999983,726.1429673999955,None,,,,,,,,,,,,,,,,,00044,001,2026-01-17_16h35.46.136,MST_task,2024.2.0,60.11522887332214,2026-01-17 16h36.01.321084 +0530,
,Scenes\004a.jpg,73,0,74,,,,,,,j,1.848308700005873,0.1605859999981476,None,,,,,,74,0,73,726.1585503999959,,,,,,,,,,,,,,,,,,,,,,,,,,,,,,726.1432986,726.1585503999959,726.6625494000036,726.642646399996,,,,,,,,,,,,,,,,,,,,,,,,,,726.6596073999972,726.6625494000036,726.6625494000036,726.6625494000036,729.6586826999992,j,1.848308700005873,0.1605859999981476,729.658828700005,729.6588781000028,None,,,,,,,,,,,,,,,,,00044,001,2026-01-17_16h35.46.136,MST_task,2024.2.0,60.11522887332214,2026-01-17 16h36.01.321084 +0530,
,Scenes\018a.jpg,74,0,75,,,,,,,None,,,j,0.9047019999998156,None,,,,75,0,74,729.6750920999912,,,,,,,,,,,,,,,,,,,,,,,,,,,,,,729.659143900004,729.6750920999912,730.1759668000013,730.1595915999933,,,,,,,,,,,,,,,,,,,,,,,,,,730.1721363999968,730.1759668000013,730.1759668000013,730.1759668000013,733.1605542000034,None,,,733.160670199999,734.0933283000049,j,733.1749311000021,733.1749311000021,733.1749311000021,733.1749311000021,733.1749311000021,0.9047019999998156,None,,,,,,,,,,00044,001,2026-01-17_16h35.46.136,MST_task,2024.2.0,60.11522887332214,2026-01-17 16h36.01.321084 +0530,
,Scenes\143a.jpg,75,0,76,,,,,,,j,2.924879799989867,None,None,,,,,,76,0,75,734.1080411000003,,,,,,,,,,,,,,,,,,,,,,,,,,,,,,734.0935484999936,734.1080411000003,734.6105274000001,734.5928270000004,,,,,,,,,,,,,,,,,,,,,,,,,,734.6073627000005,734.6105274000001,734.6105274000001,734.6105274000001,737.6086894000036,j,2.924879799989867,None,737.6088764000015,737.6089379000041,None,,,,,,,,,,,,,,,,,00044,001,2026-01-17_16h35.46.136,MST_task,2024.2.0,60.11522887332214,2026-01-17 16h36.01.321084 +0530,
,Scenes\156a.jpg,76,0,77,,,,,,,j,2.930640599995968,None,None,,,,,,77,0,76,737.6249899999966,,,,,,,,,,,,,,,,,,,,,,,,,,,,,,737.6092964999989,737.6249899999966,738.1252802999952,738.1096659000032,,,,,,,,,,,,,,,,,,,,,,,,,,738.1202429999976,738.1252802999952,738.1252802999952,738.1252802999952,741.1101800000033,j,2.930640599995968,None,741.1103492999973,741.1104038000049,None,741.1247770999908,741.1247770999908,741.1247770999908,,,,,,,,,,,,,,00044,001,2026-01-17_16h35.46.136,MST_task,2024.2.0,60.11522887332214,2026-01-17 16h36.01.321084 +0530,
,Objects\051a.jpg,77,0,78,,,,,,,None,,,j,0.06199999999080319,None,,,,78,0,77,741.1247770999908,,,,,,,,,,,,,,,,,,,,,,,,,,,,,,741.1113928999985,741.1247770999908,741.6254730999935,741.6092021999939,,,,,,,,,,,,,,,,,,,,,,,,,,741.6205528999999,741.6254730999935,741.6254730999935,741.6254730999935,744.6107420000044,None,,,744.6165304000024,744.6935536999954,j,744.6248564999987,744.6248564999987,744.6248564999987,744.6248564999987,744.6248564999987,0.06199999999080319,None,,,,,,,,,,00044,001,2026-01-17_16h35.46.136,MST_task,2024.2.0,60.11522887332214,2026-01-17 16h36.01.321084 +0530,
,Objects\003a.jpg,78,0,79,,,,,,,j,1.6220561000081943,0.18524009999237023,None,,,,,,79,0,78,744.7081760000001,,,,,,,,,,,,,,,,,,,,,,,,,,,,,,744.693763599993,744.7081760000001,745.2090267000021,745.1925806999934,,,,,,,,,,,,,,,,,,,,,,,,,,745.1992840000021,745.2090267000021,745.2090267000021,745.2090267000021,748.1932256,j,1.6220561000081943,0.18524009999237023,748.1934005999938,748.193460399998,None,748.2084515000024,748.2084515000024,748.2084515000024,,,,,,,,,,,,,,00044,001,2026-01-17_16h35.46.136,MST_task,2024.2.0,60.11522887332214,2026-01-17 16h36.01.321084 +0530,
,Objects\165a.jpg,79,0,80,,,,,,,f,1.3396610000054352,0.18423040000197943,None,,,,,,80,0,79,748.2084515000024,,,,,,,,,,,,,,,,,,,,,,,,,,,,,,748.1937757999985,748.2084515000024,748.7083735999913,748.6924594000011,,,,,,,,,,,,,,,,,,,,,,,,,,748.6988922000019,748.7083735999913,748.7083735999913,748.7083735999913,751.6932806999976,f,1.3396610000054352,0.18423040000197943,751.6934073000011,751.6934628000017,None,751.7082785999955,751.7082785999955,751.7082785999955,,,,,,,,,,,,,,00044,001,2026-01-17_16h35.46.136,MST_task,2024.2.0,60.11522887332214,2026-01-17 16h36.01.321084 +0530,
,Objects\114a.jpg,80,0,81,,,,,,,f,1.151682499999879,0.20778060000156984,None,,,,,,81,0,80,751.7082785999955,,,,,,,,,,,,,,,,,,,,,,,,,,,,,,751.693901599996,751.7082785999955,752.2084446999943,752.1927067999932,,,,,,,,,,,,,,,,,,,,,,,,,,752.1984527000022,752.2084446999943,752.2084446999943,752.2084446999943,755.1931012999994,f,1.151682499999879,0.20778060000156984,755.1932049000025,755.1932392000017,None,755.2081056000025,755.2081056000025,755.2081056000025,,,,,,,,,,,,,,00044,001,2026-01-17_16h35.46.136,MST_task,2024.2.0,60.11522887332214,2026-01-17 16h36.01.321084 +0530,
,Objects\154a.jpg,81,0,82,,,,,,,j,1.3006529999984195,0.15899180000997148,None,,,,,,82,0,81,755.2081056000025,,,,,,,,,,,,,,,,,,,,,,,,,,,,,,755.1934896000021,755.2081056000025,755.7081531000003,755.6920041999983,,,,,,,,,,,,,,,,,,,,,,,,,,755.6984511000046,755.7081531000003,755.7081531000003,755.7081531000003,758.6930266999989,j,1.3006529999984195,0.15899180000997148,758.6930771000043,758.6930919000006,None,758.7081518999912,758.7081518999912,758.7081518999912,,,,,,,,,,,,,,00044,001,2026-01-17_16h35.46.136,MST_task,2024.2.0,60.11522887332214,2026-01-17 16h36.01.321084 +0530,
,Objects\087a.jpg,82,0,83,,,,,,,j,2.4714515000086976,0.12810539999918547,None,,,,,,83,0,82,758.7081518999912,,,,,,,,,,,,,,,,,,,,,,,,,,,,,,758.6932138999982,758.7081518999912,759.2084684000001,759.1925846999948,,,,,,,,,,,,,,,,,,,,,,,,,,759.198479300001,759.2084684000001,759.2084684000001,759.2084684000001,762.1933116,j,2.4714515000086976,0.12810539999918547,762.1934840000031,762.1935425999982,None,762.2087155999907,762.2087155999907,762.2087155999907,,,,,,,,,,,,,,00044,001,2026-01-17_16h35.46.136,MST_task,2024.2.0,60.11522887332214,2026-01-17 16h36.01.321084 +0530,
,Objects\143a.jpg,83,0,84,,,,,,,f,2.442956499988213,0.20710160001181066,None,,,,,,84,0,83,762.2087155999907,,,,,,,,,,,,,,,,,,,,,,,,,,,,,,762.1939758999943,762.2087155999907,762.7087972000008,762.692873299995,,,,,,,,,,,,,,,,,,,,,,,,,,762.6984637999994,762.7087972000008,762.7087972000008,762.7087972000008,765.6930932999967,f,2.442956499988213,0.20710160001181066,765.6932030000025,765.6932614999969,None,765.7086593999993,765.7086593999993,765.7086593999993,,,,,,,,,,,,,,00044,001,2026-01-17_16h35.46.136,MST_task,2024.2.0,60.11522887332214,2026-01-17 16h36.01.321084 +0530,
,Scenes\107a.jpg,84,0,85,,,,,,,j,1.3544801999960328,0.17620430000533815,None,,,,,,85,0,84,765.7086593999993,,,,,,,,,,,,,,,,,,,,,,,,,,,,,,765.6935610999935,765.7086593999993,766.2136407999933,766.1932363999949,,,,,,,,,,,,,,,,,,,,,,,,,,766.210725500001,766.2136407999933,766.2136407999933,766.2136407999933,769.2087501999922,j,1.3544801999960328,0.17620430000533815,769.213815199997,769.2138369000022,None,,,,,,,,,,,,,,,,,00044,001,2026-01-17_16h35.46.136,MST_task,2024.2.0,60.11522887332214,2026-01-17 16h36.01.321084 +0530,
,Scenes\113a.jpg,85,0,86,,,,,,,j,1.3689693999913288,0.1285970000026282,None,,,,,,86,0,85,769.2249470999959,,,,,,,,,,,,,,,,,,,,,,,,,,,,,,769.2139215999923,769.2249470999959,769.726324999996,769.7097417000041,,,,,,,,,,,,,,,,,,,,,,,,,,769.7196555999981,769.726324999996,769.726324999996,769.726324999996,772.7252911999967,j,1.3689693999913288,0.1285970000026282,772.7253954000043,772.7254295000021,None,,,,,,,,,,,,,,,,,00044,001,2026-01-17_16h35.46.136,MST_task,2024.2.0,60.11522887332214,2026-01-17 16h36.01.321084 +0530,
,Scenes\012a.jpg,86,0,87,,,,,,,j,1.340233499999158,0.1832140999904368,None,,,,,,87,0,86,772.7414342999982,,,,,,,,,,,,,,,,,,,,,,,,,,,,,,772.7256791999971,772.7414342999982,773.243650000004,773.2258041000023,,,,,,,,,,,,,,,,,,,,,,,,,,773.240409799997,773.243650000004,773.243650000004,773.243650000004,776.2258575000014,j,1.340233499999158,0.1832140999904368,776.2259763000038,776.2260148999922,None,,,,,,,,,,,,,,,,,00044,001,2026-01-17_16h35.46.136,MST_task,2024.2.0,60.11522887332214,2026-01-17 16h36.01.321084 +0530,
,Scenes\027a.jpg,87,0,88,,,,,,,f,2.296403400003328,0.1756431999965571,None,,,,,,88,0,87,776.2418539999926,,,,,,,,,,,,,,,,,,,,,,,,,,,,,,776.2263074999937,776.2418539999926,776.7438231999986,776.7265408999956,,,,,,,,,,,,,,,,,,,,,,,,,,776.7407919999969,776.7438231999986,776.7438231999986,776.7438231999986,779.7418391999963,f,2.296403400003328,0.1756431999965571,779.7419479999953,779.741984799999,None,,,,,,,,,,,,,,,,,00044,001,2026-01-17_16h35.46.136,MST_task,2024.2.0,60.11522887332214,2026-01-17 16h36.01.321084 +0530,
,Scenes\116a.jpg,88,0,89,,,,,,,j,2.0922655999893323,0.1594193000055384,None,,,,,,89,0,88,779.7582013999927,,,,,,,,,,,,,,,,,,,,,,,,,,,,,,779.7421762000013,779.7582013999927,780.259264399996,780.2425931000034,,,,,,,,,,,,,,,,,,,,,,,,,,780.2560398999922,780.259264399996,780.259264399996,780.259264399996,783.2433370999934,j,2.0922655999893323,0.1594193000055384,783.2435244999942,783.2435833999916,None,783.2582533999957,783.2582533999957,783.2582533999957,,,,,,,,,,,,,,00044,001,2026-01-17_16h35.46.136,MST_task,2024.2.0,60.11522887332214,2026-01-17 16h36.01.321084 +0530,
,Scenes\071a.jpg,89,0,90,,,,,,,j,2.0563239000039175,0.16842149999865796,None,,,,,,90,0,89,783.2582533999957,,,,,,,,,,,,,,,,,,,,,,,,,,,,,,783.2440160999977,783.2582533999957,783.7587179999973,783.742885899992,,,,,,,,,,,,,,,,,,,,,,,,,,783.754829700003,783.7587179999973,783.7587179999973,783.7587179999973,786.7434005999967,j,2.0563239000039175,0.16842149999865796,786.743504099999,786.7435374999914,None,786.7586168999987,786.7586168999987,786.7586168999987,,,,,,,,,,,,,,00044,001,2026-01-17_16h35.46.136,MST_task,2024.2.0,60.11522887332214,2026-01-17 16h36.01.321084 +0530,
,Scenes\028a.jpg,90,0,91,,,,,,,j,1.588214200004586,0.19191910000517964,None,,,,,,91,0,90,786.7586168999987,,,,,,,,,,,,,,,,,,,,,,,,,,,,,,786.7437867999979,786.7586168999987,787.2589106999949,787.2425251999957,,,,,,,,,,,,,,,,,,,,,,,,,,787.2543442000024,787.2589106999949,787.2589106999949,787.2589106999949,790.2432133999973,j,1.588214200004586,0.19191910000517964,790.2433118000044,790.2433428999939,None,790.2582989999937,790.2582989999937,790.2582989999937,,,,,,,,,,,,,,00044,001,2026-01-17_16h35.46.136,MST_task,2024.2.0,60.11522887332214,2026-01-17 16h36.01.321084 +0530,
,Objects\163a.jpg,91,0,92,,,,,,,None,,,j,0.225579399993876,None,,,,92,0,91,790.2582989999937,,,,,,,,,,,,,,,,,,,,,,,,,,,,,,790.2435820999963,790.2582989999937,790.7587755999994,790.7428721000033,,,,,,,,,,,,,,,,,,,,,,,,,,790.7517402999947,790.7587755999994,790.7587755999994,790.7587755999994,793.7431847999978,None,,,793.7474455000047,793.9941997999995,j,793.7584154999931,793.7584154999931,793.7584154999931,793.7584154999931,793.7584154999931,0.225579399993876,None,,,,,,,,,,00044,001,2026-01-17_16h35.46.136,MST_task,2024.2.0,60.11522887332214,2026-01-17 16h36.01.321084 +0530,
,Objects\098a.jpg,92,0,93,,,,,,,f,2.6676293999917107,0.23084850001032464,None,,,,,,93,0,92,794.0081886999978,,,,,,,,,,,,,,,,,,,,,,,,,,,,,,793.9944925000018,794.0081886999978,794.5085533999954,794.4927489999973,,,,,,,,,,,,,,,,,,,,,,,,,,794.5009510999953,794.5085533999954,794.5085533999954,794.5085533999954,797.4934286999924,f,2.6676293999917107,0.23084850001032464,797.4935771000019,797.4936134000018,None,797.5081582999992,797.5081582999992,797.5081582999992,,,,,,,,,,,,,,00044,001,2026-01-17_16h35.46.136,MST_task,2024.2.0,60.11522887332214,2026-01-17 16h36.01.321084 +0530,
,Objects\169a.jpg,93,0,94,,,,,,,None,,,f,0.5993577000044752,None,,,,94,0,93,797.5081582999992,,,,,,,,,,,,,,,,,,,,,,,,,,,,,,797.4939038000011,797.5081582999992,798.0089047999936,797.9925606000033,,,,,,,,,,,,,,,,,,,,,,,,,,798.0007218999963,798.0089047999936,798.0089047999936,798.0089047999936,800.9933242999978,None,,,800.9934686000051,801.6103269000014,f,801.0080912999983,801.0080912999983,801.0080912999983,801.0080912999983,801.0080912999983,0.5993577000044752,None,,,,,,,,,,00044,001,2026-01-17_16h35.46.136,MST_task,2024.2.0,60.11522887332214,2026-01-17 16h36.01.321084 +0530,
,Objects\107a.jpg,94,0,95,,,,,,,j,1.3381850000005215,0.1929375999898184,None,,,,,,95,0,94,801.6247621999937,,,,,,,,,,,,,,,,,,,,,,,,,,,,,,801.6107151000033,801.6247621999937,802.1249927000026,802.1096357999922,,,,,,,,,,,,,,,,,,,,,,,,,,802.1168202999979,802.1249927000026,802.1249927000026,802.1249927000026,805.1096760999935,j,1.3381850000005215,0.1929375999898184,805.1098413,805.1098969000013,None,805.1248564999987,805.1248564999987,805.1248564999987,,,,,,,,,,,,,,00044,001,2026-01-17_16h35.46.136,MST_task,2024.2.0,60.11522887332214,2026-01-17 16h36.01.321084 +0530,
,Objects\118a.jpg,95,0,96,,,,,,,f,1.0419132000097306,0.1999738000013167,None,,,,,,96,0,95,805.1248564999987,,,,,,,,,,,,,,,,,,,,,,,,,,,,,,805.1103074999992,805.1248564999987,805.6528579000005,805.6091944999935,,,,,,,,,,,,,,,,,,,,,,,,,,805.6500197999994,805.6528579000005,805.6528579000005,805.6528579000005,808.6253219999926,f,1.0419132000097306,0.1999738000013167,808.6254293999955,808.6254670999915,None,,,,,,,,,,,,,,,,,00044,001,2026-01-17_16h35.46.136,MST_task,2024.2.0,60.11522887332214,2026-01-17 16h36.01.321084 +0530,
,Objects\080a.jpg,96,0,97,,,,,,,f,1.2330635999969672,0.19975529999646824,None,,,,,,97,0,96,808.6414453000034,,,,,,,,,,,,,,,,,,,,,,,,,,,,,,808.625663999992,808.6414453000034,809.1421950999938,809.125973000002,,,,,,,,,,,,,,,,,,,,,,,,,,809.1343270999932,809.1421950999938,809.1421950999938,809.1421950999938,812.1257421000046,f,1.2330635999969672,0.19975529999646824,812.125910399991,812.1259705999983,None,,,,,,,,,,,,,,,,,00044,001,2026-01-17_16h35.46.136,MST_task,2024.2.0,60.11522887332214,2026-01-17 16h36.01.321084 +0530,
,Objects\136a.jpg,97,0,98,,,,,,,f,1.3335310999973444,0.19198640000831801,None,,,,,,98,0,97,812.1416768999916,,,,,,,,,,,,,,,,,,,,,,,,,,,,,,812.1263002000051,812.1416768999916,812.6417386999965,812.6261377000046,,,,,,,,,,,,,,,,,,,,,,,,,,812.6329326999985,812.6417386999965,812.6417386999965,812.6417386999965,815.6265779999958,f,1.3335310999973444,0.19198640000831801,815.6267536999949,815.6268123999907,None,815.6415313000034,815.6415313000034,815.6415313000034,,,,,,,,,,,,,,00044,001,2026-01-17_16h35.46.136,MST_task,2024.2.0,60.11522887332214,2026-01-17 16h36.01.321084 +0530,
,Scenes\179a.jpg,98,0,99,,,,,,,j,1.43306450000091,0.1669231999985641,None,,,,,,99,0,98,815.6415313000034,,,,,,,,,,,,,,,,,,,,,,,,,,,,,,815.6272515000019,815.6415313000034,816.1427422999986,816.1259092999971,,,,,,,,,,,,,,,,,,,,,,,,,,816.1395304000034,816.1427422999986,816.1427422999986,816.1427422999986,819.1273075999925,j,1.43306450000091,0.1669231999985641,819.1312157999928,819.131246799996,None,819.1418394999928,819.1418394999928,819.1418394999928,,,,,,,,,,,,,,00044,001,2026-01-17_16h35.46.136,MST_task,2024.2.0,60.11522887332214,2026-01-17 16h36.01.321084 +0530,
,Scenes\058a.jpg,99,0,100,,,,,,,f,2.9055748999962816,None,None,,,,,,100,0,99,819.1418394999928,,,,,,,,,,,,,,,,,,,,,,,,,,,,,,819.131378799997,819.1418394999928,819.6455190999986,819.6258213999972,,,,,,,,,,,,,,,,,,,,,,,,,,819.6414689999947,819.6455190999986,819.6455190999986,819.6455190999986,822.6418601000041,f,2.9055748999962816,None,822.6420229999931,822.6420666000049,None,,,,,,,,,,,,,,,,,00044,001,2026-01-17_16h35.46.136,MST_task,2024.2.0,60.11522887332214,2026-01-17 16h36.01.321084 +0530,
,Scenes\161a.jpg,100,0,101,,,,,,,j,1.5673249999963446,0.1922301000013249,None,,,,,,101,0,100,822.6580606999923,,,,,,,,,,,,,,,,,,,,,,,,,,,,,,822.6423942999972,822.6580606999923,823.160121199995,823.1425650000019,,,,,,,,,,,,,,,,,,,,,,,,,,823.1574744999962,823.160121199995,823.160121199995,823.160121199995,826.1589424999984,j,1.5673249999963446,0.1922301000013249,826.1591137999931,826.1591462999932,None,,,,,,,,,,,,,,,,,00044,001,2026-01-17_16h35.46.136,MST_task,2024.2.0,60.11522887332214,2026-01-17 16h36.01.321084 +0530,
,Scenes\166a.jpg,101,0,102,,,,,,,j,1.3386151000013342,0.1764371999888681,None,,,,,,102,0,101,826.1748510000034,,,,,,,,,,,,,,,,,,,,,,,,,,,,,,826.1593861000001,826.1748510000034,826.6763814000005,826.6591832999984,,,,,,,,,,,,,,,,,,,,,,,,,,826.672814000005,826.6763814000005,826.6763814000005,826.6763814000005,829.6756051999982,j,1.3386151000013342,0.1764371999888681,829.6757240000006,829.6757635999966,None,,,,,,,,,,,,,,,,,00044,001,2026-01-17_16h35.46.136,MST_task,2024.2.0,60.11522887332214,2026-01-17 16h36.01.321084 +0530,
,Scenes\050a.jpg,102,0,103,,,,,,,j,1.4479248999996344,0.21594419999746606,None,,,,,,103,0,102,829.6919089000003,,,,,,,,,,,,,,,,,,,,,,,,,,,,,,829.675974999991,829.6919089000003,830.192390199998,830.1759496000013,,,,,,,,,,,,,,,,,,,,,,,,,,830.1890392999921,830.192390199998,830.192390199998,830.192390199998,833.1766025999968,j,1.4479248999996344,0.21594419999746606,833.1767263999936,833.1767632999981,None,833.1914398999943,833.1914398999943,833.1914398999943,,,,,,,,,,,,,,00044,001,2026-01-17_16h35.46.136,MST_task,2024.2.0,60.11522887332214,2026-01-17 16h36.01.321084 +0530,
,Scenes\190a.jpg,103,0,104,,,,,,,j,0.7419662000029348,0.20794330000353511,None,,,,,,104,0,103,833.1914398999943,,,,,,,,,,,,,,,,,,,,,,,,,,,,,,833.1770656000008,833.1914398999943,833.6977407999948,833.6764149999944,,,,,,,,,,,,,,,,,,,,,,,,,,833.6945922000014,833.6977407999948,833.6977407999948,833.6977407999948,836.6917248999962,j,0.7419662000029348,0.20794330000353511,836.6918395999965,836.6918767000025,None,,,,,,,,,,,,,,,,,00044,001,2026-01-17_16h35.46.136,MST_task,2024.2.0,60.11522887332214,2026-01-17 16h36.01.321084 +0530,
,Scenes\041a.jpg,104,0,105,,,,,,,j,0.8174951999972109,0.21589510000194423,None,,,,,,105,0,104,836.7082347999967,,,,,,,,,,,,,,,,,,,,,,,,,,,,,,836.6920697000023,836.7082347999967,837.2133897000022,837.1924214000028,,,,,,,,,,,,,,,,,,,,,,,,,,837.2090031999978,837.2133897000022,837.2133897000022,837.2133897000022,840.2087077000033,j,0.8174951999972109,0.21589510000194423,840.2088168000046,840.2088515999931,None,,,,,,,,,,,,,,,,,00044,001,2026-01-17_16h35.46.136,MST_task,2024.2.0,60.11522887332214,2026-01-17 16h36.01.321084 +0530,
,Objects\057a.jpg,105,0,106,,,,,,,f,1.8181207000016002,0.24067260000447277,None,,,,,,106,0,105,840.2248292000004,,,,,,,,,,,,,,,,,,,,,,,,,,,,,,840.2090434999991,840.2248292000004,840.7254243999923,840.7096569999994,,,,,,,,,,,,,,,,,,,,,,,,,,840.7192058999935,840.7254243999923,840.7254243999923,840.7254243999923,843.710313299991,f,1.8181207000016002,0.24067260000447277,843.7145113000006,843.7145523999934,None,843.7257188999938,843.7257188999938,843.7257188999938,,,,,,,,,,,,,,00044,001,2026-01-17_16h35.46.136,MST_task,2024.2.0,60.11522887332214,2026-01-17 16h36.01.321084 +0530,
,Objects\121a.jpg,106,0,107,,,,,,,f,1.5096618000097806,0.19249969998782035,None,,,,,,107,0,106,843.7257188999938,,,,,,,,,,,,,,,,,,,,,,,,,,,,,,843.7147316999908,843.7257188999938,844.2256027999974,844.2094348999963,,,,,,,,,,,,,,,,,,,,,,,,,,844.2159914999938,844.2256027999974,844.2256027999974,844.2256027999974,847.2098881999991,f,1.5096618000097806,0.19249969998782035,847.2099976000027,847.210032300005,None,847.2248181000032,847.2248181000032,847.2248181000032,,,,,,,,,,,,,,00044,001,2026-01-17_16h35.46.136,MST_task,2024.2.0,60.11522887332214,2026-01-17 16h36.01.321084 +0530,
,Objects\108a.jpg,107,0,108,,,,,,,j,2.6986152000026777,0.16754010001022834,None,,,,,,108,0,107,847.2248181000032,,,,,,,,,,,,,,,,,,,,,,,,,,,,,,847.2103388999967,847.2248181000032,847.7251189999952,847.7102544999943,,,,,,,,,,,,,,,,,,,,,,,,,,847.7164938999922,847.7251189999952,847.7251189999952,847.7251189999952,850.7096962999931,j,2.6986152000026777,0.16754010001022834,850.7098048000043,850.7098382999975,None,850.7257695000008,850.7257695000008,850.7257695000008,,,,,,,,,,,,,,00044,001,2026-01-17_16h35.46.136,MST_task,2024.2.0,60.11522887332214,2026-01-17 16h36.01.321084 +0530,
,Objects\170a.jpg,108,0,109,,,,,,,f,1.070676100003766,0.168147799995495,None,,,,,,109,0,108,850.7257695000008,,,,,,,,,,,,,,,,,,,,,,,,,,,,,,850.7102091999986,850.7257695000008,851.2252363000007,851.209406199996,,,,,,,,,,,,,,,,,,,,,,,,,,851.2172728000005,851.2252363000007,851.2252363000007,851.2252363000007,854.2101171999966,f,1.070676100003766,0.168147799995495,854.2102794999955,854.2103319000016,None,854.2248395999923,854.2248395999923,854.2248395999923,,,,,,,,,,,,,,00044,001,2026-01-17_16h35.46.136,MST_task,2024.2.0,60.11522887332214,2026-01-17 16h36.01.321084 +0530,
,Objects\032a.jpg,109,0,110,,,,,,,j,1.74650439999823,0.22386840000399388,None,,,,,,110,0,109,854.2248395999923,,,,,,,,,,,,,,,,,,,,,,,,,,,,,,854.2105192000017,854.2248395999923,854.7254610999953,854.7100508000003,,,,,,,,,,,,,,,,,,,,,,,,,,854.7156869000028,854.7254610999953,854.7254610999953,854.7254610999953,857.710415900001,j,1.74650439999823,0.22386840000399388,857.7105389999924,857.7105796999967,None,857.7248683999933,857.7248683999933,857.7248683999933,,,,,,,,,,,,,,00044,001,2026-01-17_16h35.46.136,MST_task,2024.2.0,60.11522887332214,2026-01-17 16h36.01.321084 +0530,
,Objects\130a.jpg,110,0,111,,,,,,,f,2.278011600006721,0.24874880000425037,None,,,,,,111,0,110,857.7248683999933,,,,,,,,,,,,,,,,,,,,,,,,,,,,,,857.7109921999945,857.7248683999933,858.2250917999918,858.2092949999933,,,,,,,,,,,,,,,,,,,,,,,,,,858.2180284999922,858.2250917999918,858.2250917999918,858.2250917999918,861.209741300001,f,2.278011600006721,0.24874880000425037,861.2098667999962,861.209898599991,None,861.2249717999948,861.2249717999948,861.2249717999948,,,,,,,,,,,,,,00044,001,2026-01-17_16h35.46.136,MST_task,2024.2.0,60.11522887332214,2026-01-17 16h36.01.321084 +0530,
,Objects\078a.jpg,111,0,112,,,,,,,f,0.9384138000023086,0.22433759999694303,None,,,,,,112,0,111,861.2249717999948,,,,,,,,,,,,,,,,,,,,,,,,,,,,,,861.2100648999913,861.2249717999948,861.7252066999936,861.7093458000018,,,,,,,,,,,,,,,,,,,,,,,,,,861.7185544999957,861.7252066999936,861.7252066999936,861.7252066999936,864.7091670999944,f,0.9384138000023086,0.22433759999694303,864.7092367000005,864.7092508999922,None,864.7245831000037,864.7245831000037,864.7245831000037,,,,,,,,,,,,,,00044,001,2026-01-17_16h35.46.136,MST_task,2024.2.0,60.11522887332214,2026-01-17 16h36.01.321084 +0530,
,Scenes\191a.jpg,112,0,113,,,,,,,j,1.2812094999972032,0.16772209999908227,None,,,,,,113,0,112,864.7245831000037,,,,,,,,,,,,,,,,,,,,,,,,,,,,,,864.7093363000022,864.7245831000037,865.2300895999942,865.2097192999936,,,,,,,,,,,,,,,,,,,,,,,,,,865.2268383999908,865.2300895999942,865.2300895999942,865.2300895999942,868.2252144999948,j,1.2812094999972032,0.16772209999908227,868.2300095999963,868.230032499996,None,,,,,,,,,,,,,,,,,00044,001,2026-01-17_16h35.46.136,MST_task,2024.2.0,60.11522887332214,2026-01-17 16h36.01.321084 +0530,
,Scenes\096a.jpg,113,0,114,,,,,,,None,,,j,0.6336529000109294,None,,,,114,0,113,868.241525999998,,,,,,,,,,,,,,,,,,,,,,,,,,,,,,868.2301164999953,868.241525999998,868.7419007999997,868.7261844000022,,,,,,,,,,,,,,,,,,,,,,,,,,868.7356591999996,868.7419007999997,868.7419007999997,868.7419007999997,871.7269554999948,None,,,871.7271104999963,872.3774756999919,j,871.7413964000007,871.7413964000007,871.7413964000007,871.7413964000007,871.7413964000007,0.6336529000109294,None,,,,,,,,,,00044,001,2026-01-17_16h35.46.136,MST_task,2024.2.0,60.11522887332214,2026-01-17 16h36.01.321084 +0530,
,Scenes\003a.jpg,114,0,115,,,,,,,f,2.2213830999971833,0.2165246000076877,None,,,,,,115,0,114,872.3914504999993,,,,,,,,,,,,,,,,,,,,,,,,,,,,,,872.377951100003,872.3914504999993,872.969471999997,872.8762243999954,,,,,,,,,,,,,,,,,,,,,,,,,,872.9652496999915,872.969471999997,872.969471999997,872.969471999997,875.8915729,f,2.2213830999971833,0.2165246000076877,875.8917570999911,875.8918203999929,None,,,,,,,,,,,,,,,,,00044,001,2026-01-17_16h35.46.136,MST_task,2024.2.0,60.11522887332214,2026-01-17 16h36.01.321084 +0530,
,Scenes\092a.jpg,115,0,116,,,,,,,j,1.1270549000037136,0.14291869998851325,None,,,,,,116,0,115,875.9082613999926,,,,,,,,,,,,,,,,,,,,,,,,,,,,,,875.8922478000022,875.9082613999926,876.4090749000025,876.3925770999922,,,,,,,,,,,,,,,,,,,,,,,,,,876.4037511999923,876.4090749000025,876.4090749000025,876.4090749000025,879.3928594000026,j,1.1270549000037136,0.14291869998851325,879.3929704000038,879.3930048000038,None,879.408193299998,879.408193299998,879.408193299998,,,,,,,,,,,,,,00044,001,2026-01-17_16h35.46.136,MST_task,2024.2.0,60.11522887332214,2026-01-17 16h36.01.321084 +0530,
,Scenes\066a.jpg,116,0,117,,,,,,,j,1.5469951999984914,0.18262560000584926,None,,,,,,117,0,116,879.408193299998,,,,,,,,,,,,,,,,,,,,,,,,,,,,,,879.3931844000035,879.408193299998,879.9089909000031,879.8932050000003,,,,,,,,,,,,,,,,,,,,,,,,,,879.9010952999961,879.9089909000031,879.9089909000031,879.9089909000031,882.8932127000007,j,1.5469951999984914,0.18262560000584926,882.8933944000019,882.8934520000039,None,882.9081879000005,882.9081879000005,882.9081879000005,,,,,,,,,,,,,,00044,001,2026-01-17_16h35.46.136,MST_task,2024.2.0,60.11522887332214,2026-01-17 16h36.01.321084 +0530,
,Scenes\109a.jpg,117,0,118,,,,,,,j,2.772575800001505,0.18401660000381526,None,,,,,,118,0,117,882.9081879000005,,,,,,,,,,,,,,,,,,,,,,,,,,,,,,882.8937851999945,882.9081879000005,883.4114762999961,883.392706899991,,,,,,,,,,,,,,,,,,,,,,,,,,883.4084441000014,883.4114762999961,883.4114762999961,883.4114762999961,886.4085974000045,j,2.772575800001505,0.18401660000381526,886.4087136000016,886.4087522999907,None,,,,,,,,,,,,,,,,,00044,001,2026-01-17_16h35.46.136,MST_task,2024.2.0,60.11522887332214,2026-01-17 16h36.01.321084 +0530,
,Scenes\102a.jpg,118,0,119,,,,,,,f,1.6126351000129944,0.19951619999483228,None,,,,,,119,0,118,886.4249160000036,,,,,,,,,,,,,,,,,,,,,,,,,,,,,,886.4089583000023,886.4249160000036,886.9311394999968,886.9093619999912,,,,,,,,,,,,,,,,,,,,,,,,,,886.9279655999999,886.9311394999968,886.9311394999968,886.9311394999968,889.9090145999944,f,1.6126351000129944,0.19951619999483228,889.9091718999989,889.909224499992,None,,,,,,,,,,,,,,,,,00044,001,2026-01-17_16h35.46.136,MST_task,2024.2.0,60.11522887332214,2026-01-17 16h36.01.321084 +0530,
,Objects\071a.jpg,119,0,120,,,,,,,f,1.7427325999888126,0.18316060000506695,None,,,,,,120,0,119,889.9247338999994,,,,,,,,,,,,,,,,,,,,,,,,,,,,,,889.909624699998,889.9247338999994,890.4254088000016,890.4093148999964,,,,,,,,,,,,,,,,,,,,,,,,,,890.4212737999915,890.4254088000016,890.4254088000016,890.4254088000016,893.4096752000041,f,1.7427325999888126,0.18316060000506695,893.4143876000016,893.4144230999955,None,893.4250843000045,893.4250843000045,893.4250843000045,,,,,,,,,,,,,,00044,001,2026-01-17_16h35.46.136,MST_task,2024.2.0,60.11522887332214,2026-01-17 16h36.01.321084 +0530,
,Objects\017a.jpg,120,0,121,,,,,,,f,1.3926624000014272,0.23947659999248572,None,,,,,,121,0,120,893.4250843000045,,,,,,,,,,,,,,,,,,,,,,,,,,,,,,893.4146427999949,893.4250843000045,893.9671067000018,893.9094517000049,,,,,,,,,,,,,,,,,,,,,,,,,,893.9638469999918,893.9671067000018,893.9671067000018,893.9671067000018,896.9254207000049,f,1.3926624000014272,0.23947659999248572,896.9255855999945,896.925622099996,None,,,,,,,,,,,,,,,,,00044,001,2026-01-17_16h35.46.136,MST_task,2024.2.0,60.11522887332214,2026-01-17 16h36.01.321084 +0530,
,Objects\104a.jpg,121,0,122,,,,,,,f,0.9656438999954844,0.25446609999926295,None,,,,,,122,0,121,896.9414954999957,,,,,,,,,,,,,,,,,,,,,,,,,,,,,,896.925813599999,896.9414954999957,897.4425407999952,897.4261221999914,,,,,,,,,,,,,,,,,,,,,,,,,,897.4337623000029,897.4425407999952,897.4425407999952,897.4425407999952,900.4258836999943,f,0.9656438999954844,0.25446609999926295,900.4260125000001,900.4260504999984,None,,,,,,,,,,,,,,,,,00044,001,2026-01-17_16h35.46.136,MST_task,2024.2.0,60.11522887332214,2026-01-17 16h36.01.321084 +0530,
,Objects\137a.jpg,122,0,123,,,,,,,f,2.6740214000019478,None,None,,,,,,123,0,122,900.4414940999995,,,,,,,,,,,,,,,,,,,,,,,,,,,,,,900.4263391999993,900.4414940999995,900.9419033000013,900.9260570000042,,,,,,,,,,,,,,,,,,,,,,,,,,900.932152399997,900.9419033000013,900.9419033000013,900.9419033000013,903.9262634000042,f,2.6740214000019478,None,903.9263712999964,903.9264059999987,None,903.9417589999939,903.9417589999939,903.9417589999939,,,,,,,,,,,,,,00044,001,2026-01-17_16h35.46.136,MST_task,2024.2.0,60.11522887332214,2026-01-17 16h36.01.321084 +0530,
,Objects\039a.jpg,123,0,124,,,,,,,j,1.2692649999953574,0.1440434000105597,None,,,,,,124,0,123,903.9417589999939,,,,,,,,,,,,,,,,,,,,,,,,,,,,,,903.9265835999977,903.9417589999939,904.4416888999986,904.4263917999924,,,,,,,,,,,,,,,,,,,,,,,,,,904.4334347999975,904.4416888999986,904.4416888999986,904.4416888999986,907.4271445000049,j,1.2692649999953574,0.1440434000105597,907.4273176999995,907.4273775000038,None,907.441676100003,907.441676100003,907.441676100003,,,,,,,,,,,,,,00044,001,2026-01-17_16h35.46.136,MST_task,2024.2.0,60.11522887332214,2026-01-17 16h36.01.321084 +0530,
,Objects\086a.jpg,124,0,125,,,,,,,j,2.2014826999948127,0.1762656000064453,None,,,,,,125,0,124,907.441676100003,,,,,,,,,,,,,,,,,,,,,,,,,,,,,,907.4277656999911,907.441676100003,907.9418783000001,907.925897299996,,,,,,,,,,,,,,,,,,,,,,,,,,907.9336735999968,907.9418783000001,907.9418783000001,907.9418783000001,910.9267940999998,j,2.2014826999948127,0.1762656000064453,910.9269386999949,910.9269859000051,None,910.9423830000014,910.9423830000014,910.9423830000014,,,,,,,,,,,,,,00044,001,2026-01-17_16h35.46.136,MST_task,2024.2.0,60.11522887332214,2026-01-17 16h36.01.321084 +0530,
,Objects\004a.jpg,125,0,126,,,,,,,f,1.757142100002966,0.1915475999994669,None,,,,,,126,0,125,910.9423830000014,,,,,,,,,,,,,,,,,,,,,,,,,,,,,,910.9273971999937,910.9423830000014,911.4419344999915,911.4260554999928,,,,,,,,,,,,,,,,,,,,,,,,,,911.4323608999985,911.4419344999915,911.4419344999915,911.4419344999915,914.4266845999955,f,1.757142100002966,0.1915475999994669,914.4268461000029,914.426908399997,None,914.4418677999929,914.4418677999929,914.4418677999929,,,,,,,,,,,,,,00044,001,2026-01-17_16h35.46.136,MST_task,2024.2.0,60.11522887332214,2026-01-17 16h36.01.321084 +0530,
,Scenes\079a.jpg,126,0,127,,,,,,,j,1.1205481000069994,0.2167743000027258,None,,,,,,127,0,126,914.4418677999929,,,,,,,,,,,,,,,,,,,,,,,,,,,,,,914.4272156999941,914.4418677999929,914.9421670000011,914.9256626999995,,,,,,,,,,,,,,,,,,,,,,,,,,914.937634300004,914.9421670000011,914.9421670000011,914.9421670000011,917.9274517000013,j,1.1205481000069994,0.2167743000027258,917.9326245999982,917.9326713999908,None,917.9415077000012,917.9415077000012,917.9415077000012,,,,,,,,,,,,,,00044,001,2026-01-17_16h35.46.136,MST_task,2024.2.0,60.11522887332214,2026-01-17 16h36.01.321084 +0530,
,Scenes\114a.jpg,127,0,128,,,,,,,f,2.2631683999934467,0.19963000000279862,None,,,,,,128,0,127,917.9415077000012,,,,,,,,,,,,,,,,,,,,,,,,,,,,,,917.9329429999925,917.9415077000012,918.4481896999932,918.4260108000017,,,,,,,,,,,,,,,,,,,,,,,,,,918.4451150999957,918.4481896999932,918.4481896999932,918.4481896999932,921.4421736999939,f,2.2631683999934467,0.19963000000279862,921.4423433000047,921.4424067999935,None,,,,,,,,,,,,,,,,,00044,001,2026-01-17_16h35.46.136,MST_task,2024.2.0,60.11522887332214,2026-01-17 16h36.01.321084 +0530,
,Scenes\022a.jpg,128,0,129,,,,,,,j,2.047992699997849,0.2411366000014823,None,,,,,,129,0,128,921.4582793000009,,,,,,,,,,,,,,,,,,,,,,,,,,,,,,921.4427674000035,921.4582793000009,921.958744100004,921.9423822999961,,,,,,,,,,,,,,,,,,,,,,,,,,921.9486637999944,921.958744100004,921.958744100004,921.958744100004,924.9441044999985,j,2.047992699997849,0.2411366000014823,924.9442707999988,924.9443253999925,None,924.9579851000017,924.9579851000017,924.9579851000017,,,,,,,,,,,,,,00044,001,2026-01-17_16h35.46.136,MST_task,2024.2.0,60.11522887332214,2026-01-17 16h36.01.321084 +0530,
,Scenes\152a.jpg,129,0,130,,,,,,,j,0.9092677000007825,0.20708910000394098,None,,,,,,130,0,129,924.9579851000017,,,,,,,,,,,,,,,,,,,,,,,,,,,,,,924.9446629000013,924.9579851000017,925.4587485999946,925.4425278999988,,,,,,,,,,,,,,,,,,,,,,,,,,925.451927999995,925.4587485999946,925.4587485999946,925.4587485999946,928.4431694999948,j,0.9092677000007825,0.20708910000394098,928.443340400001,928.4433985999931,None,928.4582752999995,928.4582752999995,928.4582752999995,,,,,,,,,,,,,,00044,001,2026-01-17_16h35.46.136,MST_task,2024.2.0,60.11522887332214,2026-01-17 16h36.01.321084 +0530,
,Scenes\180a.jpg,130,0,131,,,,,,,j,0.8649428000062471,0.14398379999329336,None,,,,,,131,0,130,928.4582752999995,,,,,,,,,,,,,,,,,,,,,,,,,,,,,,928.4437812999968,928.4582752999995,928.958958999996,928.9457863999996,,,,,,,,,,,,,,,,,,,,,,,,,,928.9545335000003,928.958958999996,928.958958999996,928.958958999996,931.9437922999932,j,0.8649428000062471,0.14398379999329336,931.943941599995,931.9439920000004,None,931.9582138999976,931.9582138999976,931.9582138999976,,,,,,,,,,,,,,00044,001,2026-01-17_16h35.46.136,MST_task,2024.2.0,60.11522887332214,2026-01-17 16h36.01.321084 +0530,
,Scenes\149a.jpg,131,0,132,,,,,,,f,2.922946699996828,None,None,,,,,,132,0,131,931.9582138999976,,,,,,,,,,,,,,,,,,,,,,,,,,,,,,931.9442351000034,931.9582138999976,932.4606777000008,932.4428817000007,,,,,,,,,,,,,,,,,,,,,,,,,,932.4576440999954,932.4606777000008,932.4606777000008,932.4606777000008,935.4586436999962,f,2.922946699996828,None,935.4588171999931,935.4588776000019,None,,,,,,,,,,,,,,,,,00044,001,2026-01-17_16h35.46.136,MST_task,2024.2.0,60.11522887332214,2026-01-17 16h36.01.321084 +0530,
,Scenes\063a.jpg,132,0,133,,,,,,,j,1.7161773000116227,0.19302549998974428,None,,,,,,133,0,132,935.4751284999948,,,,,,,,,,,,,,,,,,,,,,,,,,,,,,935.4592051999934,935.4751284999948,935.9784757000016,935.9593604999973,,,,,,,,,,,,,,,,,,,,,,,,,,935.9751695000014,935.9784757000016,935.9784757000016,935.9784757000016,938.9590831999958,j,1.7161773000116227,0.19302549998974428,938.9592143999907,938.959256400005,None,,,,,,,,,,,,,,,,,00044,001,2026-01-17_16h35.46.136,MST_task,2024.2.0,60.11522887332214,2026-01-17 16h36.01.321084 +0530,
,Objects\106a.jpg,133,0,134,,,,,,,f,1.0991109000024153,0.2167893999867374,None,,,,,,134,0,133,938.9748313000018,,,,,,,,,,,,,,,,,,,,,,,,,,,,,,938.9595679999911,938.9748313000018,939.4756348999945,939.4593425999919,,,,,,,,,,,,,,,,,,,,,,,,,,939.470456199997,939.4756348999945,939.4756348999945,939.4756348999945,942.4598660999909,f,1.0991109000024153,0.2167893999867374,942.4650929999916,942.465128099997,None,942.4750216999964,942.4750216999964,942.4750216999964,,,,,,,,,,,,,,00044,001,2026-01-17_16h35.46.136,MST_task,2024.2.0,60.11522887332214,2026-01-17 16h36.01.321084 +0530,
,Objects\123a.jpg,134,0,135,,,,,,,f,1.3043729000055464,0.20878040000388864,None,,,,,,135,0,134,942.4750216999964,,,,,,,,,,,,,,,,,,,,,,,,,,,,,,942.4653470000048,942.4750216999964,942.9751188999944,942.9591903999972,,,,,,,,,,,,,,,,,,,,,,,,,,942.9646456999908,942.9751188999944,942.9751188999944,942.9751188999944,945.9599776999967,f,1.3043729000055464,0.20878040000388864,945.9601542000019,945.9602145999961,None,945.9752106999949,945.9752106999949,945.9752106999949,,,,,,,,,,,,,,00044,001,2026-01-17_16h35.46.136,MST_task,2024.2.0,60.11522887332214,2026-01-17 16h36.01.321084 +0530,
,Objects\067a.jpg,135,0,136,,,,,,,f,1.4916398999921512,0.16821570000320207,None,,,,,,136,0,135,945.9752106999949,,,,,,,,,,,,,,,,,,,,,,,,,,,,,,945.9605237999931,945.9752106999949,946.4751852999907,946.4593419000012,,,,,,,,,,,,,,,,,,,,,,,,,,946.465726800001,946.4751852999907,946.4751852999907,946.4751852999907,949.4593770999927,f,1.4916398999921512,0.16821570000320207,949.4594824999949,949.4595164999919,None,949.475139999995,949.475139999995,949.475139999995,,,,,,,,,,,,,,00044,001,2026-01-17_16h35.46.136,MST_task,2024.2.0,60.11522887332214,2026-01-17 16h36.01.321084 +0530,
,Objects\185a.jpg,136,0,137,,,,,,,f,1.40056700000423,0.167261900001904,None,,,,,,137,0,136,949.475139999995,,,,,,,,,,,,,,,,,,,,,,,,,,,,,,949.4596921000048,949.475139999995,949.9750954000046,949.9592221999919,,,,,,,,,,,,,,,,,,,,,,,,,,949.9649391999992,949.9750954000046,949.9750954000046,949.9750954000046,952.9602596000041,f,1.40056700000423,0.167261900001904,952.9604063000006,952.9604552999954,None,952.9752239999943,952.9752239999943,952.9752239999943,,,,,,,,,,,,,,00044,001,2026-01-17_16h35.46.136,MST_task,2024.2.0,60.11522887332214,2026-01-17 16h36.01.321084 +0530,
,Objects\094a.jpg,137,0,138,,,,,,,f,2.156409999995958,0.1834614999970654,None,,,,,,138,0,137,952.9752239999943,,,,,,,,,,,,,,,,,,,,,,,,,,,,,,952.9608688000008,952.9752239999943,953.4754352000018,953.4589367000008,,,,,,,,,,,,,,,,,,,,,,,,,,953.4646326999937,953.4754352000018,953.4754352000018,953.4754352000018,956.4602575000026,f,2.156409999995958,0.1834614999970654,956.4604263999936,956.4604852000048,None,956.4748926000029,956.4748926000029,956.4748926000029,,,,,,,,,,,,,,00044,001,2026-01-17_16h35.46.136,MST_task,2024.2.0,60.11522887332214,2026-01-17 16h36.01.321084 +0530,
,Objects\060a.jpg,138,0,139,,,,,,,f,2.8797940999938874,None,None,,,,,,139,0,138,956.4748926000029,,,,,,,,,,,,,,,,,,,,,,,,,,,,,,956.4609061999945,956.4748926000029,956.9750319000013,956.9592868000036,,,,,,,,,,,,,,,,,,,,,,,,,,956.9659152999957,956.9750319000013,956.9750319000013,956.9750319000013,959.9598573999974,f,2.8797940999938874,None,959.9600279000006,959.9600874000025,None,959.9749983999936,959.9749983999936,959.9749983999936,,,,,,,,,,,,,,00044,001,2026-01-17_16h35.46.136,MST_task,2024.2.0,60.11522887332214,2026-01-17 16h36.01.321084 +0530,
,Objects\138a.jpg,139,0,140,,,,,,,j,1.2038592000026256,0.20922229999268893,None,,,,,,140,0,139,959.9749983999936,,,,,,,,,,,,,,,,,,,,,,,,,,,,,,959.9602833999961,959.9749983999936,960.4751029000035,960.4595506000041,,,,,,,,,,,,,,,,,,,,,,,,,,960.4679565999977,960.4751029000035,960.4751029000035,960.4751029000035,963.4599645999988,j,1.2038592000026256,0.20922229999268893,963.4601289999991,963.4601753000024,None,963.4753609000036,963.4753609000036,963.4753609000036,,,,,,,,,,,,,,00044,001,2026-01-17_16h35.46.136,MST_task,2024.2.0,60.11522887332214,2026-01-17 16h36.01.321084 +0530,
,Scenes\035a.jpg,140,0,141,,,,,,,j,1.6097719999961555,0.20713349999277852,None,,,,,,141,0,140,963.4753609000036,,,,,,,,,,,,,,,,,,,,,,,,,,,,,,963.4604314000026,963.4753609000036,963.9817457000026,963.9592956999986,,,,,,,,,,,,,,,,,,,,,,,,,,963.9782988999941,963.9817457000026,963.9817457000026,963.9817457000026,966.975297500001,j,1.6097719999961555,0.20713349999277852,966.9790991000045,966.9791317999916,None,,,,,,,,,,,,,,,,,00044,001,2026-01-17_16h35.46.136,MST_task,2024.2.0,60.11522887332214,2026-01-17 16h36.01.321084 +0530,
,Scenes\146a.jpg,141,0,142,,,,,,,j,0.9697855999984313,0.19297839999489952,None,,,,,,142,0,141,966.9915021999914,,,,,,,,,,,,,,,,,,,,,,,,,,,,,,966.9792584999959,966.9915021999914,967.4935775999911,967.4758625999966,,,,,,,,,,,,,,,,,,,,,,,,,,967.4905317999946,967.4935775999911,967.4935775999911,967.4935775999911,970.4919279000023,j,0.9697855999984313,0.19297839999489952,970.4920939000003,970.492152699997,None,,,,,,,,,,,,,,,,,00044,001,2026-01-17_16h35.46.136,MST_task,2024.2.0,60.11522887332214,2026-01-17 16h36.01.321084 +0530,
,Scenes\089a.jpg,142,0,143,,,,,,,j,1.631806700010202,0.2561093999975128,None,,,,,,143,0,142,970.5082568999933,,,,,,,,,,,,,,,,,,,,,,,,,,,,,,970.4925876999914,970.5082568999933,,970.9928585000016,,,,,,,,,,,,,,,,,,,,,,,,,,971.0125776999921,971.015871399999,971.015871399999,971.015871399999,974.0087196999957,j,1.631806700010202,0.2561093999975128,974.0088880999974,974.008949199997,None,,,,,,,,,,,,,,,,,00044,001,2026-01-17_16h35.46.136,MST_task,2024.2.0,60.11522887332214,2026-01-17 16h36.01.321084 +0530,
,Scenes\167a.jpg,143,0,144,,,,,,,f,1.5126520000048913,0.14432599999418017,None,,,,,,144,0,143,974.0257569999958,,,,,,,,,,,,,,,,,,,,,,,,,,,,,,974.0092632000014,974.0257569999958,,974.5250123000005,,,,,,,,,,,,,,,,,,,,,,,,,,974.5376699000044,974.5423311999912,974.5423311999912,974.5423311999912,977.525331900004,f,1.5126520000048913,0.14432599999418017,977.5254539000016,977.5254917999991,None,,,,,,,,,,,,,,,,,00044,001,2026-01-17_16h35.46.136,MST_task,2024.2.0,60.11522887332214,2026-01-17 16h36.01.321084 +0530,
,Scenes\005a.jpg,144,0,145,,,,,,,None,,,f,0.07728100000531413,None,,,,145,0,144,977.5415237999987,,,,,,,,,,,,,,,,,,,,,,,,,,,,,,977.5257867000037,977.5415237999987,978.0471268999972,978.0260219000047,,,,,,,,,,,,,,,,,,,,,,,,,,978.0437964000012,978.0471268999972,978.0471268999972,978.0471268999972,981.0420463000046,None,,,981.0421575999935,981.143386900003,f,,,,981.0581770999997,981.0581770999997,0.07728100000531413,None,,,,,,,,,,00044,001,2026-01-17_16h35.46.136,MST_task,2024.2.0,60.11522887332214,2026-01-17 16h36.01.321084 +0530,
,Scenes\054a.jpg,145,0,146,,,,,,,j,1.6341184000048088,0.1996223000023747,None,,,,,,146,0,145,981.1581138000038,,,,,,,,,,,,,,,,,,,,,,,,,,,,,,981.1437560000049,981.1581138000038,981.6616459999932,981.6429497999925,,,,,,,,,,,,,,,,,,,,,,,,,,981.6584780999983,981.6616459999932,981.6616459999932,981.6616459999932,984.6584939000022,j,1.6341184000048088,0.1996223000023747,984.658643799994,984.6587068999943,None,,,,,,,,,,,,,,,,,00044,001,2026-01-17_16h35.46.136,MST_task,2024.2.0,60.11522887332214,2026-01-17 16h36.01.321084 +0530,
,Scenes\046a.jpg,146,0,147,,,,,,,j,1.457557200003066,0.16694080000161193,None,,,,,,147,0,146,984.6751880999946,,,,,,,,,,,,,,,,,,,,,,,,,,,,,,984.6591685000021,984.6751880999946,985.1822075999953,985.1593119000026,,,,,,,,,,,,,,,,,,,,,,,,,,985.1786235000036,985.1822075999953,985.1822075999953,985.1822075999953,988.1591170000029,j,1.457557200003066,0.16694080000161193,988.1592935999943,988.1593545999931,None,,,,,,,,,,,,,,,,,00044,001,2026-01-17_16h35.46.136,MST_task,2024.2.0,60.11522887332214,2026-01-17 16h36.01.321084 +0530,
,Objects\128a.jpg,147,0,148,,,,,,,f,1.1962736999994377,0.15076419999240898,None,,,,,,148,0,147,988.1750140999939,,,,,,,,,,,,,,,,,,,,,,,,,,,,,,988.1596291000023,988.1750140999939,988.6757369999978,988.6598763999937,,,,,,,,,,,,,,,,,,,,,,,,,,988.6682433999958,988.6757369999978,988.6757369999978,988.6757369999978,991.6598518999963,f,1.1962736999994377,0.15076419999240898,991.6629579,991.6629796999914,None,991.6751925999997,991.6751925999997,991.6751925999997,,,,,,,,,,,,,,00044,001,2026-01-17_16h35.46.136,MST_task,2024.2.0,60.11522887332214,2026-01-17 16h36.01.321084 +0530,
,Objects\052a.jpg,148,0,149,,,,,,,f,1.3282055000017863,0.23271010001190007,None,,,,,,149,0,148,991.6751925999997,,,,,,,,,,,,,,,,,,,,,,,,,,,,,,991.6630784000008,991.6751925999997,992.1753585999977,992.1593553999992,,,,,,,,,,,,,,,,,,,,,,,,,,992.1682218999922,992.1753585999977,992.1753585999977,992.1753585999977,995.1596390999912,f,1.3282055000017863,0.23271010001190007,995.1597712999937,995.1598124000011,None,995.1747826999926,995.1747826999926,995.1747826999926,,,,,,,,,,,,,,00044,001,2026-01-17_16h35.46.136,MST_task,2024.2.0,60.11522887332214,2026-01-17 16h36.01.321084 +0530,
,Objects\075a.jpg,149,0,150,,,,,,,f,1.269132500005071,0.18430439999792725,None,,,,,,150,0,149,995.1747826999926,,,,,,,,,,,,,,,,,,,,,,,,,,,,,,995.160115199993,995.1747826999926,995.7144727999985,995.6594944999961,,,,,,,,,,,,,,,,,,,,,,,,,,995.7112735999981,995.7144727999985,995.7144727999985,995.7144727999985,998.6751799000049,f,1.269132500005071,0.18430439999792725,998.6753639999952,998.6754205000034,None,,,,,,,,,,,,,,,,,00044,001,2026-01-17_16h35.46.136,MST_task,2024.2.0,60.11522887332214,2026-01-17 16h36.01.321084 +0530,
,Objects\058a.jpg,150,0,151,,,,,,,f,1.0803746999881696,0.15924560000712518,None,,,,,,151,0,150,998.6918004000036,,,,,,,,,,,,,,,,,,,,,,,,,,,,,,998.6758215000009,998.6918004000036,,999.1757493000041,,,,,,,,,,,,,,,,,,,,,,,,,,999.1830587000004,999.1918482000037,999.1918482000037,999.1918482000037,1002.1766151000047,f,1.0803746999881696,0.15924560000712518,1002.1767910999915,1002.1768501000042,None,1002.1915009999939,1002.1915009999939,1002.1915009999939,,,,,,,,,,,,,,00044,001,2026-01-17_16h35.46.136,MST_task,2024.2.0,60.11522887332214,2026-01-17 16h36.01.321084 +0530,
,Objects\146a.jpg,151,0,152,,,,,,,f,1.0032518999942113,0.3926086999999825,None,,,,,,152,0,151,1002.1915009999939,,,,,,,,,,,,,,,,,,,,,,,,,,,,,,1002.177151099997,1002.1915009999939,1002.6917868000019,1002.6760332999984,,,,,,,,,,,,,,,,,,,,,,,,,,1002.685175199993,1002.6917868000019,1002.6917868000019,1002.6917868000019,1005.676985500002,f,1.0032518999942113,0.3926086999999825,1005.6771623999957,1005.6772217999969,None,1005.6916568000015,1005.6916568000015,1005.6916568000015,,,,,,,,,,,,,,00044,001,2026-01-17_16h35.46.136,MST_task,2024.2.0,60.11522887332214,2026-01-17 16h36.01.321084 +0530,
,Objects\157a.jpg,152,0,153,,,,,,,f,1.13579000000027,0.2072187000012491,None,,,,,,153,0,152,1005.6916568000015,,,,,,,,,,,,,,,,,,,,,,,,,,,,,,1005.6775686000037,1005.6916568000015,1006.1917433999915,1006.1759408999933,,,,,,,,,,,,,,,,,,,,,,,,,,1006.184597600004,1006.1917433999915,1006.1917433999915,1006.1917433999915,1009.1767254000006,f,1.13579000000027,0.2072187000012491,1009.1768948999961,1009.1769503999967,None,1009.1915829999925,1009.1915829999925,1009.1915829999925,,,,,,,,,,,,,,00044,001,2026-01-17_16h35.46.136,MST_task,2024.2.0,60.11522887332214,2026-01-17 16h36.01.321084 +0530,
,Objects\068a.jpg,153,0,154,,,,,,,f,1.156024800002342,0.19957109999086242,None,,,,,,154,0,153,1009.1915829999925,,,,,,,,,,,,,,,,,,,,,,,,,,,,,,1009.1773561000009,1009.1915829999925,1009.691766399992,1009.6758450999914,,,,,,,,,,,,,,,,,,,,,,,,,,1009.6821606000012,1009.691766399992,1009.691766399992,1009.691766399992,1012.6769800000038,f,1.156024800002342,0.19957109999086242,1012.677185499997,1012.6772574999923,None,1012.6918557000026,1012.6918557000026,1012.6918557000026,,,,,,,,,,,,,,00044,001,2026-01-17_16h35.46.136,MST_task,2024.2.0,60.11522887332214,2026-01-17 16h36.01.321084 +0530,
,Scenes\007a.jpg,154,0,155,,,,,,,f,1.710755700012669,0.1752825000003213,None,,,,,,155,0,154,1012.6918557000026,,,,,,,,,,,,,,,,,,,,,,,,,,,,,,1012.6774853999959,1012.6918557000026,1013.1925234999944,1013.176069299996,,,,,,,,,,,,,,,,,,,,,,,,,,1013.1879637999955,1013.1925234999944,1013.1925234999944,1013.1925234999944,1016.1769782000047,f,1.710755700012669,0.1752825000003213,1016.1814402000018,1016.181482999993,None,1016.1916781000036,1016.1916781000036,1016.1916781000036,,,,,,,,,,,,,,00044,001,2026-01-17_16h35.46.136,MST_task,2024.2.0,60.11522887332214,2026-01-17 16h36.01.321084 +0530,
,Scenes\144a.jpg,155,0,156,,,,,,,j,0.8016191999922739,0.19272890000138432,None,,,,,,156,0,155,1016.1916781000036,,,,,,,,,,,,,,,,,,,,,,,,,,,,,,1016.1817016999994,1016.1916781000036,1016.6935032000038,1016.6764163000043,,,,,,,,,,,,,,,,,,,,,,,,,,1016.6905560000014,1016.6935032000038,1016.6935032000038,1016.6935032000038,1019.6919087999995,j,0.8016191999922739,0.19272890000138432,1019.6920258000027,1019.6920658000017,None,,,,,,,,,,,,,,,,,00044,001,2026-01-17_16h35.46.136,MST_task,2024.2.0,60.11522887332214,2026-01-17 16h36.01.321084 +0530,
,Scenes\176a.jpg,156,0,157,,,,,,,j,1.0729827000031946,0.17700079998758156,None,,,,,,157,0,156,1019.7082455999916,,,,,,,,,,,,,,,,,,,,,,,,,,,,,,1019.6923534999951,1019.7082455999916,1020.2137487,1020.1927487999928,,,,,,,,,,,,,,,,,,,,,,,,,,1020.2101544000034,1020.2137487,1020.2137487,1020.2137487,1023.1927615000022,j,1.0729827000031946,0.17700079998758156,1023.1928584999987,1023.1928975999908,None,,,,,,,,,,,,,,,,,00044,001,2026-01-17_16h35.46.136,MST_task,2024.2.0,60.11522887332214,2026-01-17 16h36.01.321084 +0530,
,Scenes\039a.jpg,157,0,158,,,,,,,j,1.1584509999956936,0.14429920000839047,None,,,,,,158,0,157,1023.2082017999928,,,,,,,,,,,,,,,,,,,,,,,,,,,,,,1023.1930758999952,1023.2082017999928,1023.7762292999978,1023.6926876999933,,,,,,,,,,,,,,,,,,,,,,,,,,1023.7730349999911,1023.7762292999978,1023.7762292999978,1023.7762292999978,1026.7090804000036,j,1.1584509999956936,0.14429920000839047,1026.7091771999985,1026.7092091999948,None,,,,,,,,,,,,,,,,,00044,001,2026-01-17_16h35.46.136,MST_task,2024.2.0,60.11522887332214,2026-01-17 16h36.01.321084 +0530,
,Scenes\069a.jpg,158,0,159,,,,,,,j,0.7426916999975219,0.14301650000561494,None,,,,,,159,0,158,1026.7248436999944,,,,,,,,,,,,,,,,,,,,,,,,,,,,,,1026.7094443999958,1026.7248436999944,1027.2253360000032,1027.2093823000032,,,,,,,,,,,,,,,,,,,,,,,,,,1027.2222172000038,1027.2253360000032,1027.2253360000032,1027.2253360000032,1030.2100650999928,j,0.7426916999975219,0.14301650000561494,1030.2101696000027,1030.2102030999959,None,1030.2247752999974,1030.2247752999974,1030.2247752999974,,,,,,,,,,,,,,00044,001,2026-01-17_16h35.46.136,MST_task,2024.2.0,60.11522887332214,2026-01-17 16h36.01.321084 +0530,
,Scenes\008a.jpg,159,0,160,,,,,,,None,,,f,0.9306598999974085,None,,,,160,0,159,1030.2247752999974,,,,,,,,,,,,,,,,,,,,,,,,,,,,,,1030.210585199995,1030.2247752999974,1030.7254031000048,1030.7093812999956,,,,,,,,,,,,,,,,,,,,,,,,,,1030.7213476000034,1030.7254031000048,1030.7254031000048,1030.7254031000048,1033.7098968999926,None,,,1033.7099978000042,1034.6599140000035,f,1033.7248637000012,1033.7248637000012,1033.7248637000012,1033.7248637000012,1033.7248637000012,0.9306598999974085,None,,,,,,,,,,00044,001,2026-01-17_16h35.46.136,MST_task,2024.2.0,60.11522887332214,2026-01-17 16h36.01.321084 +0530,
,Scenes\025a.jpg,160,0,161,,,,,,,j,1.4509246999950847,0.1273161999997683,None,,,,,,161,0,160,1034.6749427000032,,,,,,,,,,,,,,,,,,,,,,,,,,,,,,1034.660325299992,1034.6749427000032,1035.180435999995,1035.1592163000023,,,,,,,,,,,,,,,,,,,,,,,,,,1035.1771265999996,1035.180435999995,1035.180435999995,1035.180435999995,1038.175122200002,j,1.4509246999950847,0.1273161999997683,1038.1752722999954,1038.175314299995,None,,,,,,,,,,,,,,,,,00044,001,2026-01-17_16h35.46.136,MST_task,2024.2.0,60.11522887332214,2026-01-17 16h36.01.321084 +0530,
,Objects\177a.jpg,161,0,162,,,,,,,f,1.7622810000029858,0.20754459999443498,None,,,,,,162,0,161,1038.1915444000042,,,,,,,,,,,,,,,,,,,,,,,,,,,,,,1038.1755309,1038.1915444000042,1038.692827299994,1038.6759956000024,,,,,,,,,,,,,,,,,,,,,,,,,,1038.6863575000025,1038.692827299994,1038.692827299994,1038.692827299994,1041.6922624,f,1.7622810000029858,0.20754459999443498,1041.6963740999927,1041.6964010999945,None,,,,,,,,,,,,,,,,,00044,001,2026-01-17_16h35.46.136,MST_task,2024.2.0,60.11522887332214,2026-01-17 16h36.01.321084 +0530,
,Objects\008a.jpg,162,0,163,,,,,,,f,2.8709457000077236,None,None,,,,,,163,0,162,1041.7085084999999,,,,,,,,,,,,,,,,,,,,,,,,,,,,,,1041.6965735999984,1041.7085084999999,1042.208554500001,1042.1927791999915,,,,,,,,,,,,,,,,,,,,,,,,,,1042.2013051999966,1042.208554500001,1042.208554500001,1042.208554500001,1045.1936527999933,f,2.8709457000077236,None,1045.193821599998,1045.1938768999971,None,1045.2081991000014,1045.2081991000014,1045.2081991000014,,,,,,,,,,,,,,00044,001,2026-01-17_16h35.46.136,MST_task,2024.2.0,60.11522887332214,2026-01-17 16h36.01.321084 +0530,
