Sl_no,image_path,thisN,thisTrialN,thisRepN,key_resp_5.keys,key_resp_7.keys,key_resp_7.rt,key_resp_7.duration,key_resp_5.rt,key_resp_5.duration,key_resp_9.keys,key_resp_9.rt,key_resp_9.duration,key_resp_8.keys,key_resp_8.rt,key_resp_8.duration,practice.thisRepN,practice.thisTrialN,practice.thisN,trials.thisRepN,trials.thisTrialN,trials.thisN,thisRow.t,notes,welcome_page.started,text.started,key_resp.started,welcome_page.stopped,key_resp.keys,key_resp.rt,key_resp.duration,instructions.started,ins.started,key_resp_2.started,instructions.stopped,key_resp_2.keys,key_resp_2.rt,key_resp_2.duration,instructions_2.started,text_10.started,key_resp_10.started,instructions_2.stopped,key_resp_10.keys,key_resp_10.rt,key_resp_10.duration,objects_only_instruction.started,text_3.started,key_resp_3.started,objects_only_instruction.stopped,key_resp_3.keys,key_resp_3.rt,key_resp_3.duration,ISI.started,text_4.started,ISI.stopped,practice_block.started,image.started,text_5.started,key_resp_5.started,practice_block.stopped,practice.key_resp_5.keys,indoor_outdoor.started,text_7.started,key_resp_7.started,indoor_outdoor.stopped,practice.key_resp_7.keys,practice.key_resp_7.rt,practice.key_resp_7.duration,text_4.stopped,practice.key_resp_5.rt,practice.key_resp_5.duration,practice_to_main.started,text_2.started,key_resp_4.started,practice_to_main.stopped,key_resp_4.keys,key_resp_4.rt,key_resp_4.duration,objects.started,image_2.started,text_9.started,key_resp_9.started,objects.stopped,trials.key_resp_9.keys,trials.key_resp_9.rt,trials.key_resp_9.duration,encoding_task.started,encoding_task.stopped,trials.key_resp_8.keys,text_8.started,key_resp_8.started,trials.key_resp_8.rt,trials.key_resp_8.duration,end_experiment.started,text_6.started,key_resp_6.started,end_experiment.stopped,key_resp_6.keys,key_resp_6.rt,key_resp_6.duration,list_of_stimuli,encoding_task_accuracy,participant,session,date,expName,psychopyVersion,frameRate,expStart,
,,,,,,,,,,,,,,,,,,,,,,,,,0.0014418999999179505,0.0038181999989319593,0.0038181999989319593,3.9766884999989998,space,3.9671978999977,None,,,,,,,,,,,,,,,,,,,,,,,,,,,,,,,,,,,,,,,,,,,,,,,,,,,,,,,,,,,,,,,,,,,,,,,,00041,001,2026-01-17_12h11.08.959,MST_task,2024.2.0,59.750041675634485,2026-01-17 12h11.25.244376 +0530,
,,,,,,,,,,,,,,,,,,,,,,,,,,,,,,,,3.976769000000786,3.9918813000040245,3.9918813000040245,41.93926880000072,space,37.93025469999702,None,,,,,,,,,,,,,,,,,,,,,,,,,,,,,,,,,,,,,,,,,,,,,,,,,,,,,,,,,,,,,,,,,00041,001,2026-01-17_12h11.08.959,MST_task,2024.2.0,59.750041675634485,2026-01-17 12h11.25.244376 +0530,
,,,,,,,,,,,,,,,,,,,,,,,,,,,,,,,,,,,,,,,41.93935000000056,41.95398859999841,41.95398859999841,58.38959150000301,space,16.431640900002094,None,,,,,,,,,,,,,,,,,,,,,,,,,,,,,,,,,,,,,,,,,,,,,,,,,,,,,,,,,,00041,001,2026-01-17_12h11.08.959,MST_task,2024.2.0,59.750041675634485,2026-01-17 12h11.25.244376 +0530,
,,,,,,,,,,,,,,,,,,,,,,,,,,,,,,,,,,,,,,,,,,,,,,58.38969570000336,58.40495419999934,58.40495419999934,142.03992660000222,space,83.62084390000382,None,,,,,,,,,,,,,,,,,,,,,,,,,,,,,,,,,,,,,,,,,,,,,,,,,,,00041,001,2026-01-17_12h11.08.959,MST_task,2024.2.0,59.750041675634485,2026-01-17 12h11.25.244376 +0530,
10,practice_images/182a.jpg,0,0,1,None,f,0.6078457999974489,None,,,,,,,,,1,0,0,,,,142.09976969999843,,,,,,,,,,,,,,,,,,,,,,,,,,,,,,142.0973204000038,142.09976969999843,142.55415480000374,142.59441279999737,142.62882949999766,142.62882949999766,142.62882949999766,145.5544555000015,None,145.55881899999804,145.57050809999782,145.57050809999782,146.18952089999948,f,0.6078457999974489,None,,,,,,,,,,,,,,,,,,,,,,,,,,,,,,,,,,,00041,001,2026-01-17_12h11.08.959,MST_task,2024.2.0,59.750041675634485,2026-01-17 12h11.25.244376 +0530,
7,practice_images/166a.jpg,1,1,1,None,f,1.0974501999953645,None,,,,,,,,,1,1,1,,,,146.20415360000334,,,,,,,,,,,,,,,,,,,,,,,,,,,,,,146.18980400000146,146.20415360000334,146.68835290000425,146.70881660000305,146.71189980000054,146.71189980000054,146.71189980000054,149.7043640999982,None,149.70444210000278,149.72067270000116,149.72067270000116,150.8224754000039,f,1.0974501999953645,None,146.71189980000054,,,,,,,,,,,,,,,,,,,,,,,,,,,,,,,,,,00041,001,2026-01-17_12h11.08.959,MST_task,2024.2.0,59.750041675634485,2026-01-17 12h11.25.244376 +0530,
5,practice_images/139a.jpg,2,2,1,None,j,0.3832193000052939,None,,,,,,,,,1,2,2,,,,150.83733519999805,,,,,,,,,,,,,,,,,,,,,,,,,,,,,,150.82281299999886,150.83733519999805,151.32189479999943,151.39068190000398,151.39400600000226,151.39400600000226,151.39400600000226,154.33779589999904,None,154.33790130000125,154.35406820000208,154.35406820000208,154.73959750000358,j,0.3832193000052939,None,151.39400600000226,,,,,,,,,,,,,,,,,,,,,,,,,,,,,,,,,,00041,001,2026-01-17_12h11.08.959,MST_task,2024.2.0,59.750041675634485,2026-01-17 12h11.25.244376 +0530,
9,practice_images/180a.jpg,3,3,1,j,None,,,2.3942867999940063,0.11998719999974128,,,,,,,1,3,3,,,,154.7539891999986,,,,,,,,,,,,,,,,,,,,,,,,,,,,,,154.73982940000133,154.7539891999986,155.23843450000277,155.32400159999816,155.3275336000006,155.3275336000006,155.3275336000006,158.25424799999746,j,158.25437210000382,,,158.254419900004,None,,,155.3275336000006,2.3942867999940063,0.11998719999974128,,,,,,,,,,,,,,,,,,,,,,,,,,,,,,,,00041,001,2026-01-17_12h11.08.959,MST_task,2024.2.0,59.750041675634485,2026-01-17 12h11.25.244376 +0530,
1,practice_images/013a.jpg,4,4,1,j,None,,,1.8305504000018118,0.07126699999935227,,,,,,,1,4,4,,,,158.2707792000001,,,,,,,,,,,,,,,,,,,,,,,,,,,,,,158.2546519000025,158.2707792000001,158.7553068999987,158.7926340999984,158.79537659999914,158.79537659999914,158.79537659999914,161.75458269999945,j,161.7547354999988,,,161.75480020000396,None,,,158.79537659999914,1.8305504000018118,0.07126699999935227,,,,,,,,,,,,,,,,,,,,,,,,,,,,,,,,00041,001,2026-01-17_12h11.08.959,MST_task,2024.2.0,59.750041675634485,2026-01-17 12h11.25.244376 +0530,
4,practice_images/002b.jpg,5,5,1,f,None,,,2.6346550000016578,0.10310759999993024,,,,,,,1,5,5,,,,161.7710978000032,,,,,,,,,,,,,,,,,,,,,,,,,,,,,,161.75507469999866,161.7710978000032,162.2547543000037,162.30844190000062,162.31194259999756,162.31194259999756,162.31194259999756,165.2711419000043,f,165.27667759999895,,,165.27671849999751,None,,,162.31194259999756,2.6346550000016578,0.10310759999993024,,,,,,,,,,,,,,,,,,,,,,,,,,,,,,,,00041,001,2026-01-17_12h11.08.959,MST_task,2024.2.0,59.750041675634485,2026-01-17 12h11.25.244376 +0530,
3,practice_images/037a.jpg,6,6,1,f,None,,,1.8714650999972946,0.11291840000194497,,,,,,,1,6,6,,,,165.28746980000142,,,,,,,,,,,,,,,,,,,,,,,,,,,,,,165.27687629999855,165.28746980000142,165.7719619999989,165.81564539999817,165.8183416000029,165.8183416000029,165.8183416000029,168.78764070000034,f,168.7878017999974,,,168.7878669999991,None,,,165.8183416000029,1.8714650999972946,0.11291840000194497,,,,,,,,,,,,,,,,,,,,,,,,,,,,,,,,00041,001,2026-01-17_12h11.08.959,MST_task,2024.2.0,59.750041675634485,2026-01-17 12h11.25.244376 +0530,
6,practice_images/158a.jpg,7,7,1,j,None,,,1.5880704000010155,0.09657609999703709,,,,,,,1,7,7,,,,168.80411430000095,,,,,,,,,,,,,,,,,,,,,,,,,,,,,,168.78819520000252,168.80411430000095,169.28835740000068,169.30595690000337,169.30921579999995,169.30921579999995,169.30921579999995,172.3045157000015,j,172.30466420000448,,,172.30472849999933,None,,,169.30921579999995,1.5880704000010155,0.09657609999703709,,,,,,,,,,,,,,,,,,,,,,,,,,,,,,,,00041,001,2026-01-17_12h11.08.959,MST_task,2024.2.0,59.750041675634485,2026-01-17 12h11.25.244376 +0530,
2,practice_images/031a.jpg,8,8,1,None,f,0.093065300003218,None,,,,,,,,,1,8,8,,,,172.3206629999986,,,,,,,,,,,,,,,,,,,,,,,,,,,,,,172.3050366000025,172.3206629999986,172.80540399999882,172.82015769999998,172.8235119000019,172.8235119000019,172.8235119000019,175.82102490000398,None,175.82116849999875,175.83731010000338,175.83731010000338,175.93920700000308,f,0.093065300003218,None,172.8235119000019,,,,,,,,,,,,,,,,,,,,,,,,,,,,,,,,,,00041,001,2026-01-17_12h11.08.959,MST_task,2024.2.0,59.750041675634485,2026-01-17 12h11.25.244376 +0530,
8,practice_images/178a.jpg,9,9,1,f,None,,,1.0082907999967574,0.11162080000212882,,,,,,,1,9,9,,,,175.95384780000313,,,,,,,,,,,,,,,,,,,,,,,,,,,,,,175.93957360000059,175.95384780000313,176.43870320000133,176.45522070000152,176.4581244000001,176.4581244000001,176.4581244000001,179.45425819999946,f,179.45436580000387,,,179.45441079999728,None,,,176.4581244000001,1.0082907999967574,0.11162080000212882,,,,,,,,,,,,,,,,,,,,,,,,,,,,,,,,00041,001,2026-01-17_12h11.08.959,MST_task,2024.2.0,59.750041675634485,2026-01-17 12h11.25.244376 +0530,
,,,,,,,,,,,,,,,,,,,,,,,,,,,,,,,,,,,,,,,,,,,,,,,,,,,,,,,,,,,,,,,,,,,,,,,,179.45456879999983,179.47045259999868,179.47045259999868,224.13899830000446,space,44.65111810000235,None,,,,,,,,,,,,,,,,,,,,,,,,,00041,001,2026-01-17_12h11.08.959,MST_task,2024.2.0,59.750041675634485,2026-01-17 12h11.25.244376 +0530,
,Objects\169a.jpg,0,0,1,,,,,,,j,2.2375207000004593,0.07259150000027148,None,,,,,,1,0,0,224.15422869999747,,,,,,,,,,,,,,,,,,,,,,,,,,,,,,224.1411392000009,224.15422869999747,224.63854240000364,,,,,,,,,,,,,,224.787865899998,,,,,,,,,,224.78367889999936,224.787865899998,224.787865899998,224.787865899998,227.65487869999924,j,2.2375207000004593,0.07259150000027148,227.6608597000013,227.66089549999742,None,,,,,,,,,,,,,,00041,001,2026-01-17_12h11.08.959,MST_task,2024.2.0,59.750041675634485,2026-01-17 12h11.25.244376 +0530,
,Objects\171a.jpg,1,0,2,,,,,,,j,1.9040773999950034,0.08782200000132434,None,,,,,,2,0,1,227.6704791000011,,,,,,,,,,,,,,,,,,,,,,,,,,,,,,227.66102590000082,227.6704791000011,228.15534240000125,,,,,,,,,,,,,,228.17888120000134,,,,,,,,,,228.17629180000222,228.17888120000134,228.17888120000134,228.17888120000134,231.1710641000027,j,1.9040773999950034,0.08782200000132434,231.17120380000415,231.17125079999823,None,,,,,,,,,,,,,,00041,001,2026-01-17_12h11.08.959,MST_task,2024.2.0,59.750041675634485,2026-01-17 12h11.25.244376 +0530,
,Objects\157a.jpg,2,0,3,,,,,,,f,1.8956895000010263,0.09540419999393634,None,,,,,,3,0,2,231.18738290000329,,,,,,,,,,,,,,,,,,,,,,,,,,,,,,231.17156930000056,231.18738290000329,231.6715977999993,,,,,,,,,,,,,,231.7071300000025,,,,,,,,,,231.70393129999866,231.7071300000025,231.7071300000025,231.7071300000025,234.68775979999918,f,1.8956895000010263,0.09540419999393634,234.68792670000403,234.6879900999993,None,,,,,,,,,,,,,,00041,001,2026-01-17_12h11.08.959,MST_task,2024.2.0,59.750041675634485,2026-01-17 12h11.25.244376 +0530,
,Objects\130a.jpg,3,0,4,,,,,,,j,1.9465993000048911,0.07084779999422608,None,,,,,,4,0,3,234.7043735000043,,,,,,,,,,,,,,,,,,,,,,,,,,,,,,234.68832100000145,234.7043735000043,235.1884734999985,,,,,,,,,,,,,,235.22388689999934,,,,,,,,,,235.22060110000166,235.22388689999934,235.22388689999934,235.22388689999934,238.2052679000044,j,1.9465993000048911,0.07084779999422608,238.2053995000024,238.20544479999808,None,,,,,,,,,,,,,,00041,001,2026-01-17_12h11.08.959,MST_task,2024.2.0,59.750041675634485,2026-01-17 12h11.25.244376 +0530,
,Objects\030a.jpg,4,0,5,,,,,,,f,1.3668075000023236,0.07959269999992102,None,,,,,,5,0,4,238.22076550000202,,,,,,,,,,,,,,,,,,,,,,,,,,,,,,238.20567740000115,238.22076550000202,238.70489570000063,,,,,,,,,,,,,,238.7477252000026,,,,,,,,,,238.74475560000428,238.7477252000026,238.7477252000026,238.7477252000026,241.7214404000042,f,1.3668075000023236,0.07959269999992102,241.7215503000043,241.7215875999973,None,,,,,,,,,,,,,,00041,001,2026-01-17_12h11.08.959,MST_task,2024.2.0,59.750041675634485,2026-01-17 12h11.25.244376 +0530,
,Objects\027a.jpg,5,0,6,,,,,,,f,1.118639299995266,0.06350780000502709,None,,,,,,6,0,5,241.73725990000094,,,,,,,,,,,,,,,,,,,,,,,,,,,,,,241.72186370000418,241.73725990000094,242.22167880000052,,,,,,,,,,,,,,242.2757055999973,,,,,,,,,,242.2723205000002,242.2757055999973,242.2757055999973,242.2757055999973,245.2380766999995,f,1.118639299995266,0.06350780000502709,245.23824530000275,245.2383078999992,None,,,,,,,,,,,,,,00041,001,2026-01-17_12h11.08.959,MST_task,2024.2.0,59.750041675634485,2026-01-17 12h11.25.244376 +0530,
,Objects\109a.jpg,6,0,7,,,,,,,j,1.3556357999987085,0.09633270000631455,None,,,,,,7,0,6,245.2538382999992,,,,,,,,,,,,,,,,,,,,,,,,,,,,,,245.23862530000042,245.2538382999992,245.73838889999752,,,,,,,,,,,,,,245.78182100000413,,,,,,,,,,245.7784520999994,245.78182100000413,245.78182100000413,245.78182100000413,248.75436230000196,j,1.3556357999987085,0.09633270000631455,248.7545431000035,248.75460629999725,None,,,,,,,,,,,,,,00041,001,2026-01-17_12h11.08.959,MST_task,2024.2.0,59.750041675634485,2026-01-17 12h11.25.244376 +0530,
,Scenes\050a.jpg,7,0,8,,,,,,,j,1.3910071999998763,0.08008690000133356,None,,,,,,8,0,7,248.77079719999892,,,,,,,,,,,,,,,,,,,,,,,,,,,,,,248.75487840000278,248.77079719999892,249.2550956999985,,,,,,,,,,,,,,249.33948419999797,,,,,,,,,,249.33606500000315,249.33948419999797,249.33948419999797,249.33948419999797,252.27129930000228,j,1.3910071999998763,0.08008690000133356,252.27527900000132,252.27530590000242,None,,,,,,,,,,,,,,00041,001,2026-01-17_12h11.08.959,MST_task,2024.2.0,59.750041675634485,2026-01-17 12h11.25.244376 +0530,
,Scenes\017a.jpg,8,0,9,,,,,,,j,2.8532943000027444,0.07148610000149347,None,,,,,,9,0,8,252.2874410000004,,,,,,,,,,,,,,,,,,,,,,,,,,,,,,252.27547030000278,252.2874410000004,252.77170879999903,,,,,,,,,,,,,,252.84516710000025,,,,,,,,,,252.84207320000132,252.84516710000025,252.84516710000025,252.84516710000025,255.7878112000035,j,2.8532943000027444,0.07148610000149347,255.78797170000325,255.78801799999928,None,,,,,,,,,,,,,,00041,001,2026-01-17_12h11.08.959,MST_task,2024.2.0,59.750041675634485,2026-01-17 12h11.25.244376 +0530,
,Scenes\060a.jpg,9,0,10,,,,,,,j,1.2487523000017973,0.06351240000367397,None,,,,,,10,0,9,255.8040164999984,,,,,,,,,,,,,,,,,,,,,,,,,,,,,,255.7883445000043,255.8040164999984,256.2875701000012,,,,,,,,,,,,,,256.4011007000008,,,,,,,,,,256.39681640000344,256.4011007000008,256.4011007000008,256.4011007000008,259.3044867999997,j,1.2487523000017973,0.06351240000367397,259.3046159000005,259.3046553000022,None,,,,,,,,,,,,,,00041,001,2026-01-17_12h11.08.959,MST_task,2024.2.0,59.750041675634485,2026-01-17 12h11.25.244376 +0530,
,Scenes\140a.jpg,10,0,11,,,,,,,j,1.1262758999946527,0.07288660000631353,None,,,,,,11,0,10,259.32061950000207,,,,,,,,,,,,,,,,,,,,,,,,,,,,,,259.30495679999876,259.32061950000207,259.8050011000014,,,,,,,,,,,,,,259.915439299999,,,,,,,,,,259.9119408999977,259.915439299999,259.915439299999,259.915439299999,262.8209169999973,j,1.1262758999946527,0.07288660000631353,262.8210201999973,262.8210534000027,None,,,,,,,,,,,,,,00041,001,2026-01-17_12h11.08.959,MST_task,2024.2.0,59.750041675634485,2026-01-17 12h11.25.244376 +0530,
,Scenes\080a.jpg,11,0,12,,,,,,,j,1.1656355000013718,0.08048879999842029,None,,,,,,12,0,11,262.83729360000143,,,,,,,,,,,,,,,,,,,,,,,,,,,,,,262.8212998000017,262.83729360000143,263.32153980000294,,,,,,,,,,,,,,,,,,,,,,,,263.3921277000045,263.3960017999998,263.3960017999998,263.3960017999998,266.33783160000166,j,1.1656355000013718,0.08048879999842029,266.3379456000039,266.3379853000006,None,,,,,,,,,,,,,,00041,001,2026-01-17_12h11.08.959,MST_task,2024.2.0,59.750041675634485,2026-01-17 12h11.25.244376 +0530,
,Scenes\021a.jpg,12,0,13,,,,,,,j,2.332759700002498,0.09711070000048494,None,,,,,,13,0,12,266.3538938999991,,,,,,,,,,,,,,,,,,,,,,,,,,,,,,266.3382744999981,266.3538938999991,266.8385692000011,,,,,,,,,,,,,,266.9883991000024,,,,,,,,,,266.98469260000275,266.9883991000024,266.9883991000024,266.9883991000024,269.8546305999989,j,2.332759700002498,0.09711070000048494,269.8547269999981,269.85475959999894,None,,,,,,,,,,,,,,00041,001,2026-01-17_12h11.08.959,MST_task,2024.2.0,59.750041675634485,2026-01-17 12h11.25.244376 +0530,
,Scenes\074a.jpg,13,0,14,,,,,,,j,2.208551300005638,0.09535939999477705,None,,,,,,14,0,13,269.87064049999753,,,,,,,,,,,,,,,,,,,,,,,,,,,,,,269.85493210000277,269.87064049999753,270.3549774999992,,,,,,,,,,,,,,270.4261998000002,,,,,,,,,,270.4232439000043,270.4261998000002,270.4261998000002,270.4261998000002,273.3712614000033,j,2.208551300005638,0.09535939999477705,273.37143130000186,273.37149540000246,None,,,,,,,,,,,,,,00041,001,2026-01-17_12h11.08.959,MST_task,2024.2.0,59.750041675634485,2026-01-17 12h11.25.244376 +0530,
,Objects\049a.jpg,14,0,15,,,,,,,f,2.7613612999994075,0.09628910000174074,None,,,,,,15,0,14,273.387318699999,,,,,,,,,,,,,,,,,,,,,,,,,,,,,,273.37181899999996,273.387318699999,273.87154900000314,,,,,,,,,,,,,,273.9521404000043,,,,,,,,,,273.9490405000033,273.9521404000043,273.9521404000043,273.9521404000043,276.88776620000135,f,2.7613612999994075,0.09628910000174074,276.892998299998,276.89303830000426,None,,,,,,,,,,,,,,00041,001,2026-01-17_12h11.08.959,MST_task,2024.2.0,59.750041675634485,2026-01-17 12h11.25.244376 +0530,
,Objects\042a.jpg,15,0,16,,,,,,,j,2.7697447999962606,0.08782069999870146,None,,,,,,16,0,15,276.90401399999973,,,,,,,,,,,,,,,,,,,,,,,,,,,,,,276.8932521000024,276.90401399999973,277.38841700000194,,,,,,,,,,,,,,277.4246004000015,,,,,,,,,,277.4211656000043,277.4246004000015,277.4246004000015,277.4246004000015,280.4045707000041,j,2.7697447999962606,0.08782069999870146,280.40474299999914,280.40480570000364,None,,,,,,,,,,,,,,00041,001,2026-01-17_12h11.08.959,MST_task,2024.2.0,59.750041675634485,2026-01-17 12h11.25.244376 +0530,
,Objects\003a.jpg,16,0,17,,,,,,,f,2.686342799999693,0.11154549999628216,None,,,,,,17,0,16,280.4206116999994,,,,,,,,,,,,,,,,,,,,,,,,,,,,,,280.4051411000037,280.4206116999994,280.90513620000274,,,,,,,,,,,,,,281.0113141000038,,,,,,,,,,281.0081657999981,281.0113141000038,281.0113141000038,281.0113141000038,283.92116140000144,f,2.686342799999693,0.11154549999628216,283.9213357000044,283.9213989999989,None,,,,,,,,,,,,,,00041,001,2026-01-17_12h11.08.959,MST_task,2024.2.0,59.750041675634485,2026-01-17 12h11.25.244376 +0530,
,Objects\122a.jpg,17,0,18,,,,,,,f,2.4898431000037817,0.11189390000072308,None,,,,,,18,0,17,283.93733449999854,,,,,,,,,,,,,,,,,,,,,,,,,,,,,,283.92171830000007,283.93733449999854,284.42207490000146,,,,,,,,,,,,,,284.47159049999755,,,,,,,,,,284.468455000002,284.47159049999755,284.47159049999755,284.47159049999755,287.43776130000333,f,2.4898431000037817,0.11189390000072308,287.4379334000041,287.43799550000404,None,,,,,,,,,,,,,,00041,001,2026-01-17_12h11.08.959,MST_task,2024.2.0,59.750041675634485,2026-01-17 12h11.25.244376 +0530,
,Objects\084a.jpg,18,0,19,,,,,,,None,,,f,0.2874948000026052,None,,,,19,0,18,287.4549984999976,,,,,,,,,,,,,,,,,,,,,,,,,,,,,,287.4382493000012,287.4549984999976,287.9543174999999,,,,,,,,,,,,,,,,,,,,,,,,287.98984960000234,287.9925054999985,287.9925054999985,287.9925054999985,290.95449160000135,None,,,290.9546083000023,291.2726544000034,f,290.970599500004,290.970599500004,0.2874948000026052,None,,,,,,,,,,00041,001,2026-01-17_12h11.08.959,MST_task,2024.2.0,59.750041675634485,2026-01-17 12h11.25.244376 +0530,
,Objects\170a.jpg,19,0,20,,,,,,,j,2.855970399999933,None,None,,,,,,20,0,19,291.28727909999725,,,,,,,,,,,,,,,,,,,,,,,,,,,,,,291.27299420000054,291.28727909999725,291.7716950000031,,,,,,,,,,,,,,291.81722830000217,,,,,,,,,,291.8142483999982,291.81722830000217,291.81722830000217,291.81722830000217,294.78782270000374,j,2.855970399999933,None,294.7879457000017,294.7879879000029,None,,,,,,,,,,,,,,00041,001,2026-01-17_12h11.08.959,MST_task,2024.2.0,59.750041675634485,2026-01-17 12h11.25.244376 +0530,
,Objects\188a.jpg,20,0,21,,,,,,,f,0.9857554999980493,0.09755820000282256,None,,,,,,21,0,20,294.8039400999987,,,,,,,,,,,,,,,,,,,,,,,,,,,,,,294.78820899999846,294.8039400999987,295.2883396000034,,,,,,,,,,,,,,295.3357096000036,,,,,,,,,,295.33254039999883,295.3357096000036,295.3357096000036,295.3357096000036,298.3044313999999,f,0.9857554999980493,0.09755820000282256,298.3045945999984,298.30463459999737,None,,,,,,,,,,,,,,00041,001,2026-01-17_12h11.08.959,MST_task,2024.2.0,59.750041675634485,2026-01-17 12h11.25.244376 +0530,
,Scenes\121a.jpg,21,0,22,,,,,,,j,1.0271033999961219,0.0716794000036316,None,,,,,,22,0,21,298.32053160000214,,,,,,,,,,,,,,,,,,,,,,,,,,,,,,298.30492049999884,298.32053160000214,298.8050388999982,,,,,,,,,,,,,,298.9196582000004,,,,,,,,,,298.9155215999999,298.9196582000004,298.9196582000004,298.9196582000004,301.82086680000066,j,1.0271033999961219,0.0716794000036316,301.8240847999987,301.82411819999834,None,,,,,,,,,,,,,,00041,001,2026-01-17_12h11.08.959,MST_task,2024.2.0,59.750041675634485,2026-01-17 12h11.25.244376 +0530,
,Scenes\067a.jpg,22,0,23,,,,,,,f,2.1977123000033316,0.12146609999763314,None,,,,,,23,0,22,301.8374046000026,,,,,,,,,,,,,,,,,,,,,,,,,,,,,,301.8243053000042,301.8374046000026,302.3216315000027,,,,,,,,,,,,,,302.38787469999806,,,,,,,,,,302.3845250000013,302.38787469999806,302.38787469999806,302.38787469999806,305.33767870000156,f,2.1977123000033316,0.12146609999763314,305.33787740000116,305.33793980000337,None,,,,,,,,,,,,,,00041,001,2026-01-17_12h11.08.959,MST_task,2024.2.0,59.750041675634485,2026-01-17 12h11.25.244376 +0530,
,Scenes\138a.jpg,23,0,24,,,,,,,j,1.5172295000011218,0.10510789999534609,None,,,,,,24,0,23,305.35401190000266,,,,,,,,,,,,,,,,,,,,,,,,,,,,,,305.3382935000045,305.35401190000266,305.83885040000314,,,,,,,,,,,,,,305.92436610000004,,,,,,,,,,305.92135430000053,305.92436610000004,305.92436610000004,305.92436610000004,308.8545757000029,j,1.5172295000011218,0.10510789999534609,308.8547221999979,308.8547746999975,None,,,,,,,,,,,,,,00041,001,2026-01-17_12h11.08.959,MST_task,2024.2.0,59.750041675634485,2026-01-17 12h11.25.244376 +0530,
,Scenes\175a.jpg,24,0,25,,,,,,,j,1.030289599999378,0.09581690000050003,None,,,,,,25,0,24,308.8709744000007,,,,,,,,,,,,,,,,,,,,,,,,,,,,,,308.8551630000002,308.8709744000007,309.35509260000254,,,,,,,,,,,,,,309.4357001000026,,,,,,,,,,309.4324063000022,309.4357001000026,309.4357001000026,309.4357001000026,312.37107310000283,j,1.030289599999378,0.09581690000050003,312.37118460000056,312.3712247000003,None,,,,,,,,,,,,,,00041,001,2026-01-17_12h11.08.959,MST_task,2024.2.0,59.750041675634485,2026-01-17 12h11.25.244376 +0530,
,Scenes\158a.jpg,25,0,26,,,,,,,j,1.459738199999265,0.10347279999405146,None,,,,,,26,0,25,312.3879842000024,,,,,,,,,,,,,,,,,,,,,,,,,,,,,,312.3714351000017,312.3879842000024,312.8716407000029,,,,,,,,,,,,,,312.9424255999984,,,,,,,,,,312.93896289999975,312.9424255999984,312.9424255999984,312.9424255999984,315.88785389999975,j,1.459738199999265,0.10347279999405146,315.88801319999766,315.8880366000012,None,,,,,,,,,,,,,,00041,001,2026-01-17_12h11.08.959,MST_task,2024.2.0,59.750041675634485,2026-01-17 12h11.25.244376 +0530,
,Scenes\182a.jpg,26,0,27,,,,,,,f,1.8944704000023194,0.09570849999727216,None,,,,,,27,0,26,315.90408720000414,,,,,,,,,,,,,,,,,,,,,,,,,,,,,,315.88816170000064,315.90408720000414,316.38849460000347,,,,,,,,,,,,,,316.4519599999985,,,,,,,,,,316.448283800004,316.4519599999985,316.4519599999985,316.4519599999985,319.40427120000095,f,1.8944704000023194,0.09570849999727216,319.40444209999987,319.4045038999975,None,,,,,,,,,,,,,,00041,001,2026-01-17_12h11.08.959,MST_task,2024.2.0,59.750041675634485,2026-01-17 12h11.25.244376 +0530,
,Scenes\128a.jpg,27,0,28,,,,,,,j,1.348680900002364,0.12813489999825833,None,,,,,,28,0,27,319.4205588000041,,,,,,,,,,,,,,,,,,,,,,,,,,,,,,319.404798100004,319.4205588000041,319.90496890000213,,,,,,,,,,,,,,,,,,,,,,,,320.0414935000008,320.04489679999824,320.04489679999824,320.04489679999824,322.9213910000035,j,1.348680900002364,0.12813489999825833,322.9215647000019,322.92162559999997,None,,,,,,,,,,,,,,00041,001,2026-01-17_12h11.08.959,MST_task,2024.2.0,59.750041675634485,2026-01-17 12h11.25.244376 +0530,
,Objects\007a.jpg,28,0,29,,,,,,,f,2.305281199995079,0.09545420000358718,None,,,,,,29,0,28,322.9374824000042,,,,,,,,,,,,,,,,,,,,,,,,,,,,,,322.92194870000094,322.9374824000042,323.421548899998,,,,,,,,,,,,,,323.46582959999796,,,,,,,,,,323.4622707000017,323.46582959999796,323.46582959999796,323.46582959999796,326.4379534000036,f,2.305281199995079,0.09545420000358718,326.44219980000344,326.4422304000036,None,,,,,,,,,,,,,,00041,001,2026-01-17_12h11.08.959,MST_task,2024.2.0,59.750041675634485,2026-01-17 12h11.25.244376 +0530,
,Objects\077a.jpg,29,0,30,,,,,,,j,1.6642342999984976,0.1270065999997314,None,,,,,,30,0,29,326.45398879999993,,,,,,,,,,,,,,,,,,,,,,,,,,,,,,326.44236040000396,326.45398879999993,326.93864320000284,,,,,,,,,,,,,,326.9779576000001,,,,,,,,,,326.9750073000032,326.9779576000001,326.9779576000001,326.9779576000001,329.95467920000374,j,1.6642342999984976,0.1270065999997314,329.9548388999974,329.9548730000024,None,,,,,,,,,,,,,,00041,001,2026-01-17_12h11.08.959,MST_task,2024.2.0,59.750041675634485,2026-01-17 12h11.25.244376 +0530,
,Objects\067a.jpg,30,0,31,,,,,,,None,,,f,0.15386900000157766,None,,,,31,0,30,329.9707101000022,,,,,,,,,,,,,,,,,,,,,,,,,,,,,,329.9551114999995,329.9707101000022,330.45514679999906,,,,,,,,,,,,,,330.5350016000011,,,,,,,,,,330.5317409999989,330.5350016000011,330.5350016000011,330.5350016000011,333.4711294000008,None,,,333.4712875000041,333.656160999999,f,333.4872936000029,333.4872936000029,0.15386900000157766,None,,,,,,,,,,00041,001,2026-01-17_12h11.08.959,MST_task,2024.2.0,59.750041675634485,2026-01-17 12h11.25.244376 +0530,
,Objects\155a.jpg,31,0,32,,,,,,,f,1.286485900003754,0.08824779999849852,None,,,,,,32,0,31,333.6708546000009,,,,,,,,,,,,,,,,,,,,,,,,,,,,,,333.6564842000007,333.6708546000009,334.15499080000154,,,,,,,,,,,,,,334.18694099999993,,,,,,,,,,334.1833162999974,334.18694099999993,334.18694099999993,334.18694099999993,337.1711260000011,f,1.286485900003754,0.08824779999849852,337.1712525999974,337.171293899999,None,,,,,,,,,,,,,,00041,001,2026-01-17_12h11.08.959,MST_task,2024.2.0,59.750041675634485,2026-01-17 12h11.25.244376 +0530,
,Objects\099a.jpg,32,0,33,,,,,,,f,2.450901399999566,0.09434859999601031,None,,,,,,33,0,32,337.18786869999894,,,,,,,,,,,,,,,,,,,,,,,,,,,,,,337.1715899999981,337.18786869999894,337.67165670000395,,,,,,,,,,,,,,337.72781950000353,,,,,,,,,,337.72396370000206,337.72781950000353,337.72781950000353,337.72781950000353,340.687886300002,f,2.450901399999566,0.09434859999601031,340.6880960999988,340.6881444000028,None,,,,,,,,,,,,,,00041,001,2026-01-17_12h11.08.959,MST_task,2024.2.0,59.750041675634485,2026-01-17 12h11.25.244376 +0530,
,Objects\071a.jpg,33,0,34,,,,,,,j,2.215799600002356,0.12919179999880726,None,,,,,,34,0,33,340.70416470000055,,,,,,,,,,,,,,,,,,,,,,,,,,,,,,340.68840679999994,340.70416470000055,341.18819749999966,,,,,,,,,,,,,,341.24982869999803,,,,,,,,,,341.24650180000026,341.24982869999803,341.24982869999803,341.24982869999803,344.2053304000001,j,2.215799600002356,0.12919179999880726,344.2054532999973,344.2054924999975,None,,,,,,,,,,,,,,00041,001,2026-01-17_12h11.08.959,MST_task,2024.2.0,59.750041675634485,2026-01-17 12h11.25.244376 +0530,
,Objects\152a.jpg,34,0,35,,,,,,,f,1.467324599994754,0.10365290000481764,None,,,,,,35,0,34,344.2207423,,,,,,,,,,,,,,,,,,,,,,,,,,,,,,344.2057636000027,344.2207423,344.7052070999998,,,,,,,,,,,,,,344.80643869999767,,,,,,,,,,344.80266819999815,344.80643869999767,344.80643869999767,344.80643869999767,347.7212242000023,f,1.467324599994754,0.10365290000481764,347.72139400000015,347.7214555000028,None,,,,,,,,,,,,,,00041,001,2026-01-17_12h11.08.959,MST_task,2024.2.0,59.750041675634485,2026-01-17 12h11.25.244376 +0530,
,Scenes\109a.jpg,35,0,36,,,,,,,j,2.129154300004302,0.12785719999374123,None,,,,,,36,0,35,347.73723540000356,,,,,,,,,,,,,,,,,,,,,,,,,,,,,,347.7218900000007,347.73723540000356,348.2215207000045,,,,,,,,,,,,,,348.3041169999997,,,,,,,,,,348.3009328000044,348.3041169999997,348.3041169999997,348.3041169999997,351.23773880000226,j,2.129154300004302,0.12785719999374123,351.24382470000273,351.2438828000013,None,,,,,,,,,,,,,,00041,001,2026-01-17_12h11.08.959,MST_task,2024.2.0,59.750041675634485,2026-01-17 12h11.25.244376 +0530,
,Scenes\058a.jpg,36,0,37,,,,,,,f,2.5468226999946637,0.09620279999944614,None,,,,,,37,0,36,351.25400439999794,,,,,,,,,,,,,,,,,,,,,,,,,,,,,,351.2441206000003,351.25400439999794,351.7386809000018,,,,,,,,,,,,,,351.8070998000039,,,,,,,,,,351.80335809999815,351.8070998000039,351.8070998000039,351.8070998000039,354.7546116000012,f,2.5468226999946637,0.09620279999944614,354.7547293000025,354.7547649000044,None,,,,,,,,,,,,,,00041,001,2026-01-17_12h11.08.959,MST_task,2024.2.0,59.750041675634485,2026-01-17 12h11.25.244376 +0530,
,Scenes\136a.jpg,37,0,38,,,,,,,None,,,f,1.4176329000038095,None,,,,38,0,37,354.7706427000012,,,,,,,,,,,,,,,,,,,,,,,,,,,,,,354.75510690000374,354.7706427000012,355.2551394999973,,,,,,,,,,,,,,,,,,,,,,,,355.3300507000022,355.33309949999966,355.33309949999966,355.33309949999966,358.27090750000207,None,,,358.27105989999836,359.72214350000286,f,358.2877041000029,358.2877041000029,1.4176329000038095,None,,,,,,,,,,00041,001,2026-01-17_12h11.08.959,MST_task,2024.2.0,59.750041675634485,2026-01-17 12h11.25.244376 +0530,
,Scenes\111a.jpg,38,0,39,,,,,,,j,1.398262100003194,0.12009389999730047,None,,,,,,39,0,38,359.73767059999955,,,,,,,,,,,,,,,,,,,,,,,,,,,,,,359.72250409999833,359.73767059999955,360.2216905000023,,,,,,,,,,,,,,360.28364970000257,,,,,,,,,,360.27940910000325,360.28364970000257,360.28364970000257,360.28364970000257,363.23771449999913,j,1.398262100003194,0.12009389999730047,363.2378650000028,363.2379077000005,None,,,,,,,,,,,,,,00041,001,2026-01-17_12h11.08.959,MST_task,2024.2.0,59.750041675634485,2026-01-17 12h11.25.244376 +0530,
,Scenes\006a.jpg,39,0,40,,,,,,,f,2.531740999998874,0.11154460000398103,None,,,,,,40,0,39,363.25431129999924,,,,,,,,,,,,,,,,,,,,,,,,,,,,,,363.2381411000024,363.25431129999924,363.7383504000027,,,,,,,,,,,,,,363.8386346999978,,,,,,,,,,363.83548639999935,363.8386346999978,363.8386346999978,363.8386346999978,366.75443220000307,f,2.531740999998874,0.11154460000398103,366.7545497000028,366.75458960000105,None,,,,,,,,,,,,,,00041,001,2026-01-17_12h11.08.959,MST_task,2024.2.0,59.750041675634485,2026-01-17 12h11.25.244376 +0530,
,Scenes\137a.jpg,40,0,41,,,,,,,j,1.1012880999987829,0.1201266000061878,None,,,,,,41,0,40,366.7707984000008,,,,,,,,,,,,,,,,,,,,,,,,,,,,,,366.7548017000008,366.7707984000008,367.2551717000024,,,,,,,,,,,,,,367.3162592000008,,,,,,,,,,367.3130039000025,367.3162592000008,367.3162592000008,367.3162592000008,370.27115790000244,j,1.1012880999987829,0.1201266000061878,370.27128939999966,370.2713339999973,None,,,,,,,,,,,,,,00041,001,2026-01-17_12h11.08.959,MST_task,2024.2.0,59.750041675634485,2026-01-17 12h11.25.244376 +0530,
,Scenes\160a.jpg,41,0,42,,,,,,,j,1.20765279999614,0.12036829999851761,None,,,,,,42,0,41,370.2873172000036,,,,,,,,,,,,,,,,,,,,,,,,,,,,,,370.2716730000029,370.2873172000036,370.77168289999827,,,,,,,,,,,,,,370.84946440000203,,,,,,,,,,370.84607459999825,370.84946440000203,370.84946440000203,370.84946440000203,373.7876378000001,j,1.20765279999614,0.12036829999851761,373.78774720000365,373.7877836999978,None,,,,,,,,,,,,,,00041,001,2026-01-17_12h11.08.959,MST_task,2024.2.0,59.750041675634485,2026-01-17 12h11.25.244376 +0530,
,Objects\055a.jpg,42,0,43,,,,,,,f,2.6178194000021904,0.12089530000230297,None,,,,,,43,0,42,373.8039732000034,,,,,,,,,,,,,,,,,,,,,,,,,,,,,,373.7880523999993,373.8039732000034,374.28828890000295,,,,,,,,,,,,,,374.34339159999945,,,,,,,,,,374.34005120000074,374.34339159999945,374.34339159999945,374.34339159999945,377.28811739999946,f,2.6178194000021904,0.12089530000230297,377.2925264000005,377.29254950000177,None,,,,,,,,,,,,,,00041,001,2026-01-17_12h11.08.959,MST_task,2024.2.0,59.750041675634485,2026-01-17 12h11.25.244376 +0530,
,Objects\178a.jpg,43,0,44,,,,,,,f,1.6005489000017405,0.11974159999954281,None,,,,,,44,0,43,377.30451780000294,,,,,,,,,,,,,,,,,,,,,,,,,,,,,,377.2926349000045,377.30451780000294,377.78840630000195,,,,,,,,,,,,,,377.841416700001,,,,,,,,,,377.8386713,377.841416700001,377.841416700001,377.841416700001,380.8043254000004,f,1.6005489000017405,0.11974159999954281,380.80449390000285,380.8045562000043,None,,,,,,,,,,,,,,00041,001,2026-01-17_12h11.08.959,MST_task,2024.2.0,59.750041675634485,2026-01-17 12h11.25.244376 +0530,
,Objects\005a.jpg,44,0,45,,,,,,,f,2.319879000002402,0.09553690000029746,None,,,,,,45,0,44,380.82098869999754,,,,,,,,,,,,,,,,,,,,,,,,,,,,,,380.8048734999975,380.82098869999754,381.3045348000014,,,,,,,,,,,,,,381.39385340000445,,,,,,,,,,381.39092789999995,381.39385340000445,381.39385340000445,381.39385340000445,384.3211330999984,f,2.319879000002402,0.09553690000029746,384.3212552999976,384.3212984999991,None,,,,,,,,,,,,,,00041,001,2026-01-17_12h11.08.959,MST_task,2024.2.0,59.750041675634485,2026-01-17 12h11.25.244376 +0530,
,Objects\081a.jpg,45,0,46,,,,,,,j,2.419135999996797,0.1275683999992907,None,,,,,,46,0,45,384.3372096000021,,,,,,,,,,,,,,,,,,,,,,,,,,,,,,384.32160529999965,384.3372096000021,384.82167830000253,,,,,,,,,,,,,,384.85431889999745,,,,,,,,,,384.85135669999727,384.85431889999745,384.85431889999745,384.85431889999745,387.83786130000226,j,2.419135999996797,0.1275683999992907,387.8380244,387.8380687000026,None,,,,,,,,,,,,,,00041,001,2026-01-17_12h11.08.959,MST_task,2024.2.0,59.750041675634485,2026-01-17 12h11.25.244376 +0530,
,Objects\141a.jpg,46,0,47,,,,,,,None,,,f,1.6151667000012822,None,,,,47,0,46,387.8543045999977,,,,,,,,,,,,,,,,,,,,,,,,,,,,,,387.83830450000096,387.8543045999977,388.33844580000004,,,,,,,,,,,,,,388.3911864999973,,,,,,,,,,388.3877476999987,388.3911864999973,388.3911864999973,388.3911864999973,391.35459439999977,None,,,391.354754400003,392.98915449999913,f,391.3708320000005,391.3708320000005,1.6151667000012822,None,,,,,,,,,,00041,001,2026-01-17_12h11.08.959,MST_task,2024.2.0,59.750041675634485,2026-01-17 12h11.25.244376 +0530,
,Objects\111a.jpg,47,0,48,,,,,,,j,2.009774300000572,0.11989539999922272,None,,,,,,48,0,47,393.0038482000018,,,,,,,,,,,,,,,,,,,,,,,,,,,,,,392.98939039999823,393.0038482000018,393.48866070000076,,,,,,,,,,,,,,393.5519830999983,,,,,,,,,,393.5483364000029,393.5519830999983,393.5519830999983,393.5519830999983,396.5044507999992,j,2.009774300000572,0.11989539999922272,396.5045898000026,396.5046327000018,None,,,,,,,,,,,,,,00041,001,2026-01-17_12h11.08.959,MST_task,2024.2.0,59.750041675634485,2026-01-17 12h11.25.244376 +0530,
,Objects\089a.jpg,48,0,49,,,,,,,None,,,j,0.5880544999963604,None,,,,49,0,48,396.5206521,,,,,,,,,,,,,,,,,,,,,,,,,,,,,,396.5049577000027,396.5206521,397.00510329999815,,,,,,,,,,,,,,397.0384342000034,,,,,,,,,,397.03513550000207,397.0384342000034,397.0384342000034,397.0384342000034,400.0211275000038,None,,,400.0212229000026,400.63911850000295,j,400.0373516000036,400.0373516000036,0.5880544999963604,None,,,,,,,,,,00041,001,2026-01-17_12h11.08.959,MST_task,2024.2.0,59.750041675634485,2026-01-17 12h11.25.244376 +0530,
,Scenes\104a.jpg,49,0,50,,,,,,,None,,,f,0.4470558000029996,None,,,,50,0,49,400.6540088000038,,,,,,,,,,,,,,,,,,,,,,,,,,,,,,400.63951950000046,400.6540088000038,401.1383917999992,,,,,,,,,,,,,,401.2021531999999,,,,,,,,,,401.1988194000005,401.2021531999999,401.2021531999999,401.2021531999999,404.1546682000044,None,,,404.15946930000064,404.6221646999984,f,404.1707286000019,404.1707286000019,0.4470558000029996,None,,,,,,,,,,00041,001,2026-01-17_12h11.08.959,MST_task,2024.2.0,59.750041675634485,2026-01-17 12h11.25.244376 +0530,
,Scenes\010a.jpg,50,0,51,,,,,,,j,2.3901766999988467,0.11277770000015153,None,,,,,,51,0,50,404.6372517999989,,,,,,,,,,,,,,,,,,,,,,,,,,,,,,404.6224053000042,404.6372517999989,405.12186369999836,,,,,,,,,,,,,,405.25069449999864,,,,,,,,,,405.24733990000095,405.25069449999864,405.25069449999864,405.25069449999864,408.1377341000043,j,2.3901766999988467,0.11277770000015153,408.1379003999973,408.1379459000018,None,,,,,,,,,,,,,,00041,001,2026-01-17_12h11.08.959,MST_task,2024.2.0,59.750041675634485,2026-01-17 12h11.25.244376 +0530,
,Scenes\045a.jpg,51,0,52,,,,,,,f,2.542877600004431,0.12006259999907343,None,,,,,,52,0,51,408.15390409999964,,,,,,,,,,,,,,,,,,,,,,,,,,,,,,408.1382759000044,408.15390409999964,408.6384135000044,,,,,,,,,,,,,,408.71494209999946,,,,,,,,,,408.71114050000324,408.71494209999946,408.71494209999946,408.71494209999946,411.6543912999987,f,2.542877600004431,0.12006259999907343,411.6545053000009,411.65454509999836,None,,,,,,,,,,,,,,00041,001,2026-01-17_12h11.08.959,MST_task,2024.2.0,59.750041675634485,2026-01-17 12h11.25.244376 +0530,
,Scenes\072a.jpg,52,0,53,,,,,,,j,1.851874299994961,0.09529810000094585,None,,,,,,53,0,52,411.6706849999973,,,,,,,,,,,,,,,,,,,,,,,,,,,,,,411.654752800001,411.6706849999973,412.1551158000002,,,,,,,,,,,,,,412.2380822999985,,,,,,,,,,412.23444649999874,412.2380822999985,412.2380822999985,412.2380822999985,415.1712323000029,j,1.851874299994961,0.09529810000094585,415.17139920000045,415.1714595000012,None,,,,,,,,,,,,,,00041,001,2026-01-17_12h11.08.959,MST_task,2024.2.0,59.750041675634485,2026-01-17 12h11.25.244376 +0530,
,Scenes\035a.jpg,53,0,54,,,,,,,j,1.8190584000039962,0.09574109999812208,None,,,,,,54,0,53,415.1873737999995,,,,,,,,,,,,,,,,,,,,,,,,,,,,,,415.17179240000405,415.1873737999995,415.6718256000022,,,,,,,,,,,,,,415.8227651999987,,,,,,,,,,415.81949030000396,415.8227651999987,415.8227651999987,415.8227651999987,418.6880014999988,j,1.8190584000039962,0.09574109999812208,418.6881732999973,418.68823630000406,None,,,,,,,,,,,,,,00041,001,2026-01-17_12h11.08.959,MST_task,2024.2.0,59.750041675634485,2026-01-17 12h11.25.244376 +0530,
,Scenes\002a.jpg,54,0,55,,,,,,,j,1.1965692000012496,0.0965959000022849,None,,,,,,55,0,54,418.704035499999,,,,,,,,,,,,,,,,,,,,,,,,,,,,,,418.688502099998,418.704035499999,419.1885617000007,,,,,,,,,,,,,,419.3091010999997,,,,,,,,,,419.3058070000043,419.3091010999997,419.3091010999997,419.3091010999997,422.20442750000075,j,1.1965692000012496,0.0965959000022849,422.20453709999856,422.2045733999985,None,,,,,,,,,,,,,,00041,001,2026-01-17_12h11.08.959,MST_task,2024.2.0,59.750041675634485,2026-01-17 12h11.25.244376 +0530,
,Scenes\162a.jpg,55,0,56,,,,,,,None,,,j,2.11214490000566,None,,,,56,0,55,422.2206800999993,,,,,,,,,,,,,,,,,,,,,,,,,,,,,,422.20486879999953,422.2206800999993,422.7049482000002,,,,,,,,,,,,,,422.790848800003,,,,,,,,,,422.78735540000343,422.790848800003,422.790848800003,422.790848800003,425.7215290000022,None,,,425.7216783999975,427.8559763000012,j,425.73740969999926,425.73740969999926,2.11214490000566,None,,,,,,,,,,00041,001,2026-01-17_12h11.08.959,MST_task,2024.2.0,59.750041675634485,2026-01-17 12h11.25.244376 +0530,
,Objects\151a.jpg,56,0,57,,,,,,,f,1.7948985999973956,0.08755190000374569,None,,,,,,57,0,56,427.8705517999988,,,,,,,,,,,,,,,,,,,,,,,,,,,,,,427.85625750000327,427.8705517999988,428.35511419999966,,,,,,,,,,,,,,428.39906509999855,,,,,,,,,,428.39521439999953,428.39906509999855,428.39906509999855,428.39906509999855,431.37105259999953,f,1.7948985999973956,0.08755190000374569,431.37649590000365,431.37655339999765,None,,,,,,,,,,,,,,00041,001,2026-01-17_12h11.08.959,MST_task,2024.2.0,59.750041675634485,2026-01-17 12h11.25.244376 +0530,
,Objects\046a.jpg,57,0,58,,,,,,,None,,,f,0.5611735999991652,None,,,,58,0,57,431.38728500000434,,,,,,,,,,,,,,,,,,,,,,,,,,,,,,431.3767910000024,431.38728500000434,431.87176990000444,,,,,,,,,,,,,,431.9232626000012,,,,,,,,,,431.92016400000284,431.9232626000012,431.9232626000012,431.9232626000012,434.88776340000186,None,,,434.8879117000033,435.4726720000035,f,434.90402110000286,434.90402110000286,0.5611735999991652,None,,,,,,,,,,00041,001,2026-01-17_12h11.08.959,MST_task,2024.2.0,59.750041675634485,2026-01-17 12h11.25.244376 +0530,
,Objects\065a.jpg,58,0,59,,,,,,,j,1.0627018000013777,0.1365564000006998,None,,,,,,59,0,58,435.48739059999934,,,,,,,,,,,,,,,,,,,,,,,,,,,,,,435.47294250000414,435.48739059999934,435.9715145000009,,,,,,,,,,,,,,436.01897160000226,,,,,,,,,,436.0158444999979,436.01897160000226,436.01897160000226,436.01897160000226,438.98777829999744,j,1.0627018000013777,0.1365564000006998,438.9879457999996,438.98800850000407,None,,,,,,,,,,,,,,00041,001,2026-01-17_12h11.08.959,MST_task,2024.2.0,59.750041675634485,2026-01-17 12h11.25.244376 +0530,
,Objects\004a.jpg,59,0,60,,,,,,,None,,,j,0.8010802999997395,None,,,,60,0,59,439.0040805000026,,,,,,,,,,,,,,,,,,,,,,,,,,,,,,438.9884278000027,439.0040805000026,439.48844069999905,,,,,,,,,,,,,,439.59838820000004,,,,,,,,,,439.5952221999978,439.59838820000004,439.59838820000004,439.59838820000004,442.5043713999985,None,,,442.504528999998,443.33884290000424,j,442.5208849999981,442.5208849999981,0.8010802999997395,None,,,,,,,,,,00041,001,2026-01-17_12h11.08.959,MST_task,2024.2.0,59.750041675634485,2026-01-17 12h11.25.244376 +0530,
,Objects\168a.jpg,60,0,61,,,,,,,f,1.430003300003591,0.11248229999910109,None,,,,,,61,0,60,443.35405000000173,,,,,,,,,,,,,,,,,,,,,,,,,,,,,,443.33914480000385,443.35405000000173,443.8383871000042,,,,,,,,,,,,,,443.9398046999995,,,,,,,,,,443.93683630000305,443.9398046999995,443.9398046999995,443.9398046999995,446.85433059999923,f,1.430003300003591,0.11248229999910109,446.8545127000034,446.8545563000007,None,,,,,,,,,,,,,,00041,001,2026-01-17_12h11.08.959,MST_task,2024.2.0,59.750041675634485,2026-01-17 12h11.25.244376 +0530,
,Objects\117a.jpg,61,0,62,,,,,,,f,2.955422600003658,None,None,,,,,,62,0,61,446.8706665999998,,,,,,,,,,,,,,,,,,,,,,,,,,,,,,446.854875099998,446.8706665999998,447.35497939999914,,,,,,,,,,,,,,447.39836350000405,,,,,,,,,,447.39526959999785,447.39836350000405,447.39836350000405,447.39836350000405,450.3710398000039,f,2.955422600003658,None,450.37120270000014,450.37126400000125,None,,,,,,,,,,,,,,00041,001,2026-01-17_12h11.08.959,MST_task,2024.2.0,59.750041675634485,2026-01-17 12h11.25.244376 +0530,
,Objects\166a.jpg,62,0,63,,,,,,,f,1.2796626000053948,0.09700039999734145,None,,,,,,63,0,62,450.38785640000424,,,,,,,,,,,,,,,,,,,,,,,,,,,,,,450.3715467000002,450.38785640000424,450.87178990000393,,,,,,,,,,,,,,450.92284450000443,,,,,,,,,,450.91972579999856,450.92284450000443,450.92284450000443,450.92284450000443,453.8876880000025,f,1.2796626000053948,0.09700039999734145,453.8878246000022,453.88787199999933,None,,,,,,,,,,,,,,00041,001,2026-01-17_12h11.08.959,MST_task,2024.2.0,59.750041675634485,2026-01-17 12h11.25.244376 +0530,
,Scenes\132a.jpg,63,0,64,,,,,,,j,1.680862299996079,0.1115434000021196,None,,,,,,64,0,63,453.90395459999854,,,,,,,,,,,,,,,,,,,,,,,,,,,,,,453.88820970000234,453.90395459999854,454.38865980000264,,,,,,,,,,,,,,454.5130388000034,,,,,,,,,,454.5100451000035,454.5130388000034,454.5130388000034,454.5130388000034,457.38847830000304,j,1.680862299996079,0.1115434000021196,457.3941094000038,457.3941705000034,None,,,,,,,,,,,,,,00041,001,2026-01-17_12h11.08.959,MST_task,2024.2.0,59.750041675634485,2026-01-17 12h11.25.244376 +0530,
,Scenes\157a.jpg,64,0,65,,,,,,,j,2.2264559000032023,0.11885509999410715,None,,,,,,65,0,64,457.4045342000027,,,,,,,,,,,,,,,,,,,,,,,,,,,,,,457.3944201999984,457.4045342000027,457.8884210000033,,,,,,,,,,,,,,457.9758296,,,,,,,,,,457.97250730000087,457.9758296,457.9758296,457.9758296,460.90473880000354,j,2.2264559000032023,0.11885509999410715,460.9049236999999,460.9049793000013,None,,,,,,,,,,,,,,00041,001,2026-01-17_12h11.08.959,MST_task,2024.2.0,59.750041675634485,2026-01-17 12h11.25.244376 +0530,
,Scenes\163a.jpg,65,0,66,,,,,,,j,1.6239275000043563,0.10298979999788571,None,,,,,,66,0,65,460.9206488999989,,,,,,,,,,,,,,,,,,,,,,,,,,,,,,460.9053907999987,460.9206488999989,461.40473740000016,,,,,,,,,,,,,,461.48216479999974,,,,,,,,,,461.4781118000028,461.48216479999974,461.48216479999974,461.48216479999974,464.4215831000038,j,1.6239275000043563,0.10298979999788571,464.4217088000005,464.42175000000134,None,,,,,,,,,,,,,,00041,001,2026-01-17_12h11.08.959,MST_task,2024.2.0,59.750041675634485,2026-01-17 12h11.25.244376 +0530,
,Scenes\062a.jpg,66,0,67,,,,,,,j,2.5813292999955593,0.09545990000333404,None,,,,,,67,0,66,464.4373411999986,,,,,,,,,,,,,,,,,,,,,,,,,,,,,,464.42205939999985,464.4373411999986,464.92152290000377,,,,,,,,,,,,,,465.06868889999896,,,,,,,,,,465.064830299998,465.06868889999896,465.06868889999896,465.06868889999896,467.9376607000013,j,2.5813292999955593,0.09545990000333404,467.9378225000037,467.9378846000036,None,,,,,,,,,,,,,,00041,001,2026-01-17_12h11.08.959,MST_task,2024.2.0,59.750041675634485,2026-01-17 12h11.25.244376 +0530,
,Scenes\082a.jpg,67,0,68,,,,,,,f,2.0178449000013643,0.09633619999658549,None,,,,,,68,0,67,467.95415640000283,,,,,,,,,,,,,,,,,,,,,,,,,,,,,,467.9383121999999,467.95415640000283,468.43833570000425,,,,,,,,,,,,,,468.5199961000035,,,,,,,,,,468.517136800001,468.5199961000035,468.5199961000035,468.5199961000035,471.4547265000001,f,2.0178449000013643,0.09633619999658549,471.4548594000007,471.4549219000037,None,,,,,,,,,,,,,,00041,001,2026-01-17_12h11.08.959,MST_task,2024.2.0,59.750041675634485,2026-01-17 12h11.25.244376 +0530,
,Scenes\005a.jpg,68,0,69,,,,,,,None,,,f,0.7254952000002959,None,,,,69,0,68,471.4708479000037,,,,,,,,,,,,,,,,,,,,,,,,,,,,,,471.45534249999764,471.4708479000037,471.9554760000028,,,,,,,,,,,,,,472.05953330000193,,,,,,,,,,472.0558084000004,472.05953330000193,472.05953330000193,472.05953330000193,474.97106630000053,None,,,474.9711492999995,475.7229673000038,f,474.9875461999982,474.9875461999982,0.7254952000002959,None,,,,,,,,,,00041,001,2026-01-17_12h11.08.959,MST_task,2024.2.0,59.750041675634485,2026-01-17 12h11.25.244376 +0530,
,Scenes\154a.jpg,69,0,70,,,,,,,j,0.9776779000021634,0.14340249999804655,None,,,,,,70,0,69,475.73754039999767,,,,,,,,,,,,,,,,,,,,,,,,,,,,,,475.72328220000054,475.73754039999767,476.22188650000317,,,,,,,,,,,,,,476.3046442999985,,,,,,,,,,476.3012968000039,476.3046442999985,476.3046442999985,476.3046442999985,479.2380978000001,j,0.9776779000021634,0.14340249999804655,479.2382480000015,479.23828309999953,None,,,,,,,,,,,,,,00041,001,2026-01-17_12h11.08.959,MST_task,2024.2.0,59.750041675634485,2026-01-17 12h11.25.244376 +0530,
,Objects\047a.jpg,70,0,71,,,,,,,f,1.748811299999943,0.1202218999969773,None,,,,,,71,0,70,479.2542753000016,,,,,,,,,,,,,,,,,,,,,,,,,,,,,,479.2385370999982,479.2542753000016,479.73867679999967,,,,,,,,,,,,,,,,,,,,,,,,479.77745739999955,479.78104950000125,479.78104950000125,479.78104950000125,482.754428799999,f,1.748811299999943,0.1202218999969773,482.75989449999906,482.75994419999915,None,,,,,,,,,,,,,,00041,001,2026-01-17_12h11.08.959,MST_task,2024.2.0,59.750041675634485,2026-01-17 12h11.25.244376 +0530,
,Objects\080a.jpg,71,0,72,,,,,,,None,,,f,0.24152079999475973,None,,,,72,0,71,482.77078679999977,,,,,,,,,,,,,,,,,,,,,,,,,,,,,,482.7602493000013,482.77078679999977,483.25501870000153,,,,,,,,,,,,,,483.28496160000213,,,,,,,,,,483.2823184000008,483.28496160000213,483.28496160000213,483.28496160000213,486.2712328999987,None,,,486.2713169999988,486.53919300000416,f,486.28767700000026,486.28767700000026,0.24152079999475973,None,,,,,,,,,,00041,001,2026-01-17_12h11.08.959,MST_task,2024.2.0,59.750041675634485,2026-01-17 12h11.25.244376 +0530,
,Objects\165a.jpg,72,0,73,,,,,,,f,0.9551130999971065,0.14317139999911888,None,,,,,,73,0,72,486.5540142000027,,,,,,,,,,,,,,,,,,,,,,,,,,,,,,486.5394132000001,486.5540142000027,487.0387211999987,,,,,,,,,,,,,,487.1108347000045,,,,,,,,,,487.10774970000057,487.1108347000045,487.1108347000045,487.1108347000045,490.0544108000031,f,0.9551130999971065,0.14317139999911888,490.0545188000033,490.0545557000005,None,,,,,,,,,,,,,,00041,001,2026-01-17_12h11.08.959,MST_task,2024.2.0,59.750041675634485,2026-01-17 12h11.25.244376 +0530,
,Objects\010a.jpg,73,0,74,,,,,,,f,1.1889859000002616,0.11957719999918481,None,,,,,,74,0,73,490.0707919999986,,,,,,,,,,,,,,,,,,,,,,,,,,,,,,490.0548237999974,490.0707919999986,490.55523130000074,,,,,,,,,,,,,,490.6290293999991,,,,,,,,,,490.6257237000027,490.6290293999991,490.6290293999991,490.6290293999991,493.57098340000084,f,1.1889859000002616,0.11957719999918481,493.57114300000103,493.57117960000323,None,,,,,,,,,,,,,,00041,001,2026-01-17_12h11.08.959,MST_task,2024.2.0,59.750041675634485,2026-01-17 12h11.25.244376 +0530,
,Objects\094a.jpg,74,0,75,,,,,,,f,0.8997359999993932,0.10527369999908842,None,,,,,,75,0,74,493.58741569999984,,,,,,,,,,,,,,,,,,,,,,,,,,,,,,493.571374799998,493.58741569999984,494.07146289999946,,,,,,,,,,,,,,494.12512340000103,,,,,,,,,,494.12216459999763,494.12512340000103,494.12512340000103,494.12512340000103,497.087695000002,f,0.8997359999993932,0.10527369999908842,497.08783309999853,497.08787770000345,None,,,,,,,,,,,,,,00041,001,2026-01-17_12h11.08.959,MST_task,2024.2.0,59.750041675634485,2026-01-17 12h11.25.244376 +0530,
,Objects\090a.jpg,75,0,76,,,,,,,f,2.0176030000002356,0.09585079999669688,None,,,,,,76,0,75,497.1039796999976,,,,,,,,,,,,,,,,,,,,,,,,,,,,,,497.08820879999985,497.1039796999976,497.588863099998,,,,,,,,,,,,,,497.6238999999987,,,,,,,,,,497.6207091000033,497.6238999999987,497.6238999999987,497.6238999999987,500.6046883000017,f,2.0176030000002356,0.09585079999669688,500.60480090000055,500.60483979999844,None,,,,,,,,,,,,,,00041,001,2026-01-17_12h11.08.959,MST_task,2024.2.0,59.750041675634485,2026-01-17 12h11.25.244376 +0530,
,Objects\006a.jpg,76,0,77,,,,,,,f,1.3053737000009278,0.09678580000036163,None,,,,,,77,0,76,500.6206478000022,,,,,,,,,,,,,,,,,,,,,,,,,,,,,,500.6050432999982,500.6206478000022,501.10487300000386,,,,,,,,,,,,,,501.19157760000235,,,,,,,,,,501.18834570000035,501.19157760000235,501.19157760000235,501.19157760000235,504.1210760000031,f,1.3053737000009278,0.09678580000036163,504.1212414000038,504.121301500003,None,,,,,,,,,,,,,,00041,001,2026-01-17_12h11.08.959,MST_task,2024.2.0,59.750041675634485,2026-01-17 12h11.25.244376 +0530,
,Scenes\134a.jpg,77,0,78,,,,,,,j,1.0900936000034562,0.10315699999773642,None,,,,,,78,0,77,504.1372549000007,,,,,,,,,,,,,,,,,,,,,,,,,,,,,,504.12154590000137,504.1372549000007,504.6219562000042,,,,,,,,,,,,,,504.69577749999735,,,,,,,,,,504.6922420999981,504.69577749999735,504.69577749999735,504.69577749999735,507.6380946999998,j,1.0900936000034562,0.10315699999773642,507.6432657000041,507.64332560000184,None,,,,,,,,,,,,,,00041,001,2026-01-17_12h11.08.959,MST_task,2024.2.0,59.750041675634485,2026-01-17 12h11.25.244376 +0530,
,Scenes\120a.jpg,78,0,79,,,,,,,j,0.8020952000006218,0.12146039999788627,None,,,,,,79,0,78,507.6539569000015,,,,,,,,,,,,,,,,,,,,,,,,,,,,,,507.64360119999765,507.6539569000015,508.1387201000034,,,,,,,,,,,,,,508.2228108999989,,,,,,,,,,508.218391800001,508.2228108999989,508.2228108999989,508.2228108999989,511.1544886999982,j,0.8020952000006218,0.12146039999788627,511.1546021000031,511.1546363000016,None,,,,,,,,,,,,,,00041,001,2026-01-17_12h11.08.959,MST_task,2024.2.0,59.750041675634485,2026-01-17 12h11.25.244376 +0530,
,Scenes\004a.jpg,79,0,80,,,,,,,j,1.3351353000034578,0.09610029999748804,None,,,,,,80,0,79,511.1705456999989,,,,,,,,,,,,,,,,,,,,,,,,,,,,,,511.15506180000375,511.1705456999989,511.65514070000063,,,,,,,,,,,,,,511.7148793000015,,,,,,,,,,511.7103511000023,511.7148793000015,511.7148793000015,511.7148793000015,514.6711832000001,j,1.3351353000034578,0.09610029999748804,514.6713444999987,514.6713810000001,None,,,,,,,,,,,,,,00041,001,2026-01-17_12h11.08.959,MST_task,2024.2.0,59.750041675634485,2026-01-17 12h11.25.244376 +0530,
,Scenes\144a.jpg,80,0,81,,,,,,,j,0.8566288000001805,0.08882020000601187,None,,,,,,81,0,80,514.6872873000029,,,,,,,,,,,,,,,,,,,,,,,,,,,,,,514.6716465999998,514.6872873000029,515.1717413000006,,,,,,,,,,,,,,515.2647432000012,,,,,,,,,,515.2609018000003,515.2647432000012,515.2647432000012,515.2647432000012,518.1874466000008,j,0.8566288000001805,0.08882020000601187,518.1876095999978,518.1876715000035,None,,,,,,,,,,,,,,00041,001,2026-01-17_12h11.08.959,MST_task,2024.2.0,59.750041675634485,2026-01-17 12h11.25.244376 +0530,
,Scenes\063a.jpg,81,0,82,,,,,,,j,1.9624652999991667,0.127963600003568,None,,,,,,82,0,81,518.2040562000038,,,,,,,,,,,,,,,,,,,,,,,,,,,,,,518.1880726000018,518.2040562000038,518.6883992000003,,,,,,,,,,,,,,518.854843400004,,,,,,,,,,518.8514934999985,518.854843400004,518.854843400004,518.854843400004,521.7043666000027,j,1.9624652999991667,0.127963600003568,521.7045331000045,521.7045943999983,None,,,,,,,,,,,,,,00041,001,2026-01-17_12h11.08.959,MST_task,2024.2.0,59.750041675634485,2026-01-17 12h11.25.244376 +0530,
,Scenes\095a.jpg,82,0,83,,,,,,,None,,,f,0.332772699999623,None,,,,83,0,82,521.7205260999981,,,,,,,,,,,,,,,,,,,,,,,,,,,,,,521.7050214999981,521.7205260999981,522.205000599999,,,,,,,,,,,,,,,,,,,,,,,,522.3130954000007,522.3165083999993,522.3165083999993,522.3165083999993,525.2049045000022,None,,,525.2050052999984,525.5562189999982,f,525.2210421999989,525.2210421999989,0.332772699999623,None,,,,,,,,,,00041,001,2026-01-17_12h11.08.959,MST_task,2024.2.0,59.750041675634485,2026-01-17 12h11.25.244376 +0530,
,Scenes\077a.jpg,83,0,84,,,,,,,f,2.4578010000041104,0.11978480000107083,None,,,,,,84,0,83,525.5706481000016,,,,,,,,,,,,,,,,,,,,,,,,,,,,,,525.5566953000016,525.5706481000016,526.054297900002,,,,,,,,,,,,,,526.1203472999987,,,,,,,,,,526.1161934999982,526.1203472999987,526.1203472999987,526.1203472999987,529.0710298999984,f,2.4578010000041104,0.11978480000107083,529.0711568000042,529.0712023000015,None,,,,,,,,,,,,,,00041,001,2026-01-17_12h11.08.959,MST_task,2024.2.0,59.750041675634485,2026-01-17 12h11.25.244376 +0530,
,Objects\105a.jpg,84,0,85,,,,,,,None,,,f,1.5982650000005378,None,,,,85,0,84,529.0874499999991,,,,,,,,,,,,,,,,,,,,,,,,,,,,,,529.0714356000026,529.0874499999991,529.5718047999981,,,,,,,,,,,,,,529.6188029000041,,,,,,,,,,529.6155064999984,529.6188029000041,529.6188029000041,529.6188029000041,532.588508300003,None,,,532.5932087000037,534.2063402999993,f,532.604204299998,532.604204299998,1.5982650000005378,None,,,,,,,,,,00041,001,2026-01-17_12h11.08.959,MST_task,2024.2.0,59.750041675634485,2026-01-17 12h11.25.244376 +0530,
,Objects\085a.jpg,85,0,86,,,,,,,j,1.403430300000764,0.11126999999396503,None,,,,,,86,0,85,534.2205582000024,,,,,,,,,,,,,,,,,,,,,,,,,,,,,,534.2065895999986,534.2205582000024,534.7052476000026,,,,,,,,,,,,,,534.7427373000028,,,,,,,,,,534.7397323999976,534.7427373000028,534.7427373000028,534.7427373000028,537.7212431000007,j,1.403430300000764,0.11126999999396503,537.7214084000007,537.7214703999998,None,,,,,,,,,,,,,,00041,001,2026-01-17_12h11.08.959,MST_task,2024.2.0,59.750041675634485,2026-01-17 12h11.25.244376 +0530,
,Objects\086a.jpg,86,0,87,,,,,,,None,,,j,0.387044800001604,None,,,,87,0,86,537.7372660000037,,,,,,,,,,,,,,,,,,,,,,,,,,,,,,537.7218398999976,537.7372660000037,538.2218208999984,,,,,,,,,,,,,,538.2476135000034,,,,,,,,,,538.2445411000008,538.2476135000034,538.2476135000034,538.2476135000034,541.2377833999999,None,,,541.2378867000007,541.6557641000036,j,541.2539749999996,541.2539749999996,0.387044800001604,None,,,,,,,,,,00041,001,2026-01-17_12h11.08.959,MST_task,2024.2.0,59.750041675634485,2026-01-17 12h11.25.244376 +0530,
,Objects\125a.jpg,87,0,88,,,,,,,j,1.967085500000394,0.13674899999750778,None,,,,,,88,0,87,541.6705871000013,,,,,,,,,,,,,,,,,,,,,,,,,,,,,,541.6562870999987,541.6705871000013,542.1549096000017,,,,,,,,,,,,,,542.2500963999992,,,,,,,,,,542.2457624000017,542.2500963999992,542.2500963999992,542.2500963999992,545.1710338999983,j,1.967085500000394,0.13674899999750778,545.1711689000003,545.1712179000024,None,,,,,,,,,,,,,,00041,001,2026-01-17_12h11.08.959,MST_task,2024.2.0,59.750041675634485,2026-01-17 12h11.25.244376 +0530,
,Objects\063a.jpg,88,0,89,,,,,,,f,1.2204689999998664,0.09576489999744808,None,,,,,,89,0,88,545.1874557999981,,,,,,,,,,,,,,,,,,,,,,,,,,,,,,545.1715874000001,545.1874557999981,545.6716824000032,,,,,,,,,,,,,,545.7089730000007,,,,,,,,,,545.7058660000039,545.7089730000007,545.7089730000007,545.7089730000007,548.6877440000026,f,1.2204689999998664,0.09576489999744808,548.6878710000019,548.6879152000038,None,,,,,,,,,,,,,,00041,001,2026-01-17_12h11.08.959,MST_task,2024.2.0,59.750041675634485,2026-01-17 12h11.25.244376 +0530,
,Objects\035a.jpg,89,0,90,,,,,,,None,,,f,0.06127790000027744,None,,,,90,0,89,548.703966000001,,,,,,,,,,,,,,,,,,,,,,,,,,,,,,548.6882374999986,548.703966000001,549.1885725000029,,,,,,,,,,,,,,549.2208476000014,,,,,,,,,,549.2176311000003,549.2208476000014,549.2208476000014,549.2208476000014,552.2044597999993,None,,,552.2045474000042,552.2892288000003,f,552.2207667000039,552.2207667000039,0.06127790000027744,None,,,,,,,,,,00041,001,2026-01-17_12h11.08.959,MST_task,2024.2.0,59.750041675634485,2026-01-17 12h11.25.244376 +0530,
,Objects\148a.jpg,90,0,91,,,,,,,None,,,f,0.7412836000003153,None,,,,91,0,90,552.3040596999999,,,,,,,,,,,,,,,,,,,,,,,,,,,,,,552.2894525000011,552.3040596999999,552.7885150000002,,,,,,,,,,,,,,552.8553972000009,,,,,,,,,,552.8520503000036,552.8553972000009,552.8553972000009,552.8553972000009,555.8044188999993,None,,,555.8045715999979,556.5725332000002,f,555.8207141000021,555.8207141000021,0.7412836000003153,None,,,,,,,,,,00041,001,2026-01-17_12h11.08.959,MST_task,2024.2.0,59.750041675634485,2026-01-17 12h11.25.244376 +0530,
,Scenes\055a.jpg,91,0,92,,,,,,,j,1.6846527000016067,0.11989729999913834,None,,,,,,92,0,91,556.5874089999998,,,,,,,,,,,,,,,,,,,,,,,,,,,,,,556.5729120000033,556.5874089999998,557.071611899999,,,,,,,,,,,,,,557.1566593000025,,,,,,,,,,557.1524658999988,557.1566593000025,557.1566593000025,557.1566593000025,560.0878509000031,j,1.6846527000016067,0.11989729999913834,560.0917722000013,560.0918022000042,None,,,,,,,,,,,,,,00041,001,2026-01-17_12h11.08.959,MST_task,2024.2.0,59.750041675634485,2026-01-17 12h11.25.244376 +0530,
,Scenes\161a.jpg,92,0,93,,,,,,,j,0.8991169000000809,0.09534350000467384,None,,,,,,93,0,92,560.1039290999979,,,,,,,,,,,,,,,,,,,,,,,,,,,,,,560.0919276999994,560.1039290999979,560.588433900004,,,,,,,,,,,,,,560.6785023999983,,,,,,,,,,560.6755689999991,560.6785023999983,560.6785023999983,560.6785023999983,563.6045047000007,j,0.8991169000000809,0.09534350000467384,563.6046399000043,563.6046848999977,None,,,,,,,,,,,,,,00041,001,2026-01-17_12h11.08.959,MST_task,2024.2.0,59.750041675634485,2026-01-17 12h11.25.244376 +0530,
,Scenes\183a.jpg,93,0,94,,,,,,,f,1.9759378999951878,0.11913750000530854,None,,,,,,94,0,93,563.6207205000028,,,,,,,,,,,,,,,,,,,,,,,,,,,,,,563.6050324000025,563.6207205000028,564.1051147000035,,,,,,,,,,,,,,564.186423500003,,,,,,,,,,564.1829374000008,564.186423500003,564.186423500003,564.186423500003,567.1212279000029,f,1.9759378999951878,0.11913750000530854,567.1213869999992,567.1214276000028,None,,,,,,,,,,,,,,00041,001,2026-01-17_12h11.08.959,MST_task,2024.2.0,59.750041675634485,2026-01-17 12h11.25.244376 +0530,
,Scenes\018a.jpg,94,0,95,,,,,,,f,2.5291089999955148,0.1278669000021182,None,,,,,,95,0,94,567.1372974999977,,,,,,,,,,,,,,,,,,,,,,,,,,,,,,567.1217155999984,567.1372974999977,567.6220651999975,,,,,,,,,,,,,,567.6889577999973,,,,,,,,,,567.6857381000009,567.6889577999973,567.6889577999973,567.6889577999973,570.6376598999996,f,2.5291089999955148,0.1278669000021182,570.6378234000003,570.6378861999983,None,,,,,,,,,,,,,,00041,001,2026-01-17_12h11.08.959,MST_task,2024.2.0,59.750041675634485,2026-01-17 12h11.25.244376 +0530,
,Scenes\124a.jpg,95,0,96,,,,,,,f,2.278162599999632,0.11327210000308696,None,,,,,,96,0,95,570.6542025000017,,,,,,,,,,,,,,,,,,,,,,,,,,,,,,570.6382067000013,570.6542025000017,571.1386058999997,,,,,,,,,,,,,,571.2107394999985,,,,,,,,,,571.2071981000045,571.2107394999985,571.2107394999985,571.2107394999985,574.1381144000043,f,2.278162599999632,0.11327210000308696,574.1382804000023,574.1383160000041,None,,,,,,,,,,,,,,00041,001,2026-01-17_12h11.08.959,MST_task,2024.2.0,59.750041675634485,2026-01-17 12h11.25.244376 +0530,
,Scenes\189a.jpg,96,0,97,,,,,,,j,1.275791300002311,0.13620449999871198,None,,,,,,97,0,96,574.1541749000025,,,,,,,,,,,,,,,,,,,,,,,,,,,,,,574.1385903999981,574.1541749000025,574.638707099999,,,,,,,,,,,,,,574.7660257000025,,,,,,,,,,574.7625325000045,574.7660257000025,574.7660257000025,574.7660257000025,577.6546044999996,j,1.275791300002311,0.13620449999871198,577.6547781000045,577.6548402999979,None,,,,,,,,,,,,,,00041,001,2026-01-17_12h11.08.959,MST_task,2024.2.0,59.750041675634485,2026-01-17 12h11.25.244376 +0530,
,Scenes\125a.jpg,97,0,98,,,,,,,j,1.1179865000012796,0.14384559999598423,None,,,,,,98,0,97,577.6710063999999,,,,,,,,,,,,,,,,,,,,,,,,,,,,,,577.655150999999,577.6710063999999,578.1555962999992,,,,,,,,,,,,,,578.2115735999978,,,,,,,,,,578.2080554999993,578.2115735999978,578.2115735999978,578.2115735999978,581.1712494000021,j,1.1179865000012796,0.14384559999598423,581.1714312999975,581.171491699999,None,,,,,,,,,,,,,,00041,001,2026-01-17_12h11.08.959,MST_task,2024.2.0,59.750041675634485,2026-01-17 12h11.25.244376 +0530,
,Objects\066a.jpg,98,0,99,,,,,,,f,2.069844400000875,0.1121867999972892,None,,,,,,99,0,98,581.1873735000045,,,,,,,,,,,,,,,,,,,,,,,,,,,,,,581.1719194000034,581.1873735000045,581.6716835000043,,,,,,,,,,,,,,581.707553500004,,,,,,,,,,581.7038613999975,581.707553500004,581.707553500004,581.707553500004,584.6877727000028,f,2.069844400000875,0.1121867999972892,584.6938375000027,584.6938971999989,None,,,,,,,,,,,,,,00041,001,2026-01-17_12h11.08.959,MST_task,2024.2.0,59.750041675634485,2026-01-17 12h11.25.244376 +0530,
,Objects\177a.jpg,99,0,100,,,,,,,j,1.6169081999978516,0.11921190000430215,None,,,,,,100,0,99,584.7039869,,,,,,,,,,,,,,,,,,,,,,,,,,,,,,584.6941568999973,584.7039869,585.1885420000035,,,,,,,,,,,,,,585.2248325000037,,,,,,,,,,585.2219590000022,585.2248325000037,585.2248325000037,585.2248325000037,588.2044693999997,j,1.6169081999978516,0.11921190000430215,588.2046365999995,588.2047050000037,None,,,,,,,,,,,,,,00041,001,2026-01-17_12h11.08.959,MST_task,2024.2.0,59.750041675634485,2026-01-17 12h11.25.244376 +0530,
,Objects\079a.jpg,100,0,101,,,,,,,None,,,j,0.10330269999394659,None,,,,101,0,100,588.2205642999979,,,,,,,,,,,,,,,,,,,,,,,,,,,,,,588.205051500001,588.2205642999979,588.705566800003,,,,,,,,,,,,,,588.7351851999993,,,,,,,,,,588.7319704999973,588.7351851999993,588.7351851999993,588.7351851999993,591.7211873999986,None,,,591.7213286000042,591.8559028000018,j,591.7380355999994,591.7380355999994,0.10330269999394659,None,,,,,,,,,,00041,001,2026-01-17_12h11.08.959,MST_task,2024.2.0,59.750041675634485,2026-01-17 12h11.25.244376 +0530,
,Objects\038a.jpg,101,0,102,,,,,,,f,1.1423301000031643,0.14408499999990454,None,,,,,,102,0,101,591.8706065000006,,,,,,,,,,,,,,,,,,,,,,,,,,,,,,591.8564246000024,591.8706065000006,592.355289799998,,,,,,,,,,,,,,592.412049300001,,,,,,,,,,592.4084673000034,592.412049300001,592.412049300001,592.412049300001,595.3710159000038,f,1.1423301000031643,0.14408499999990454,595.3711853999994,595.371246900002,None,,,,,,,,,,,,,,00041,001,2026-01-17_12h11.08.959,MST_task,2024.2.0,59.750041675634485,2026-01-17 12h11.25.244376 +0530,
,Objects\143a.jpg,102,0,103,,,,,,,f,1.7983344999956898,0.09532410000247182,None,,,,,,103,0,102,595.387249899999,,,,,,,,,,,,,,,,,,,,,,,,,,,,,,595.3716609000039,595.387249899999,595.8716986,,,,,,,,,,,,,,595.9244885000007,,,,,,,,,,595.921385900001,595.9244885000007,595.9244885000007,595.9244885000007,598.8877009999997,f,1.7983344999956898,0.09532410000247182,598.8877709000008,598.8877938000005,None,,,,,,,,,,,,,,00041,001,2026-01-17_12h11.08.959,MST_task,2024.2.0,59.750041675634485,2026-01-17 12h11.25.244376 +0530,
,Objects\083a.jpg,103,0,104,,,,,,,f,0.8783066999967559,0.12836139999853913,None,,,,,,104,0,103,598.9039591000037,,,,,,,,,,,,,,,,,,,,,,,,,,,,,,598.8879188999999,598.9039591000037,599.3887371000019,,,,,,,,,,,,,,,,,,,,,,,,599.4309809999977,599.4345269000041,599.4345269000041,599.4345269000041,602.4042590000026,f,0.8783066999967559,0.12836139999853913,602.404417400001,602.4044629999989,None,,,,,,,,,,,,,,00041,001,2026-01-17_12h11.08.959,MST_task,2024.2.0,59.750041675634485,2026-01-17 12h11.25.244376 +0530,
,Objects\172a.jpg,104,0,105,,,,,,,j,0.9375737000009394,0.12026429999968968,None,,,,,,105,0,104,602.4209706999973,,,,,,,,,,,,,,,,,,,,,,,,,,,,,,602.4047006000037,602.4209706999973,602.9050877000045,,,,,,,,,,,,,,602.9598188000018,,,,,,,,,,602.9567794000031,602.9598188000018,602.9598188000018,602.9598188000018,605.9210062999991,j,0.9375737000009394,0.12026429999968968,605.9211274000045,605.9211681000015,None,,,,,,,,,,,,,,00041,001,2026-01-17_12h11.08.959,MST_task,2024.2.0,59.750041675634485,2026-01-17 12h11.25.244376 +0530,
,Scenes\113a.jpg,105,0,106,,,,,,,j,1.7224888000055216,0.11898010000004433,None,,,,,,106,0,105,605.9372464000044,,,,,,,,,,,,,,,,,,,,,,,,,,,,,,605.9214155000009,605.9372464000044,606.4213411000019,,,,,,,,,,,,,,606.4796405000016,,,,,,,,,,606.475626600004,606.4796405000016,606.4796405000016,606.4796405000016,609.4378550999973,j,1.7224888000055216,0.11898010000004433,609.4426340999999,609.4426746000026,None,,,,,,,,,,,,,,00041,001,2026-01-17_12h11.08.959,MST_task,2024.2.0,59.750041675634485,2026-01-17 12h11.25.244376 +0530,
,Scenes\009a.jpg,106,0,107,,,,,,,j,2.416635200002929,0.12138159999449272,None,,,,,,107,0,106,609.4540744000042,,,,,,,,,,,,,,,,,,,,,,,,,,,,,,609.4429070999977,609.4540744000042,609.9383929000032,,,,,,,,,,,,,,610.0562987000012,,,,,,,,,,610.0526269000038,610.0562987000012,610.0562987000012,610.0562987000012,612.9546002999996,j,2.416635200002929,0.12138159999449272,612.9547130999999,612.9547471000042,None,,,,,,,,,,,,,,00041,001,2026-01-17_12h11.08.959,MST_task,2024.2.0,59.750041675634485,2026-01-17 12h11.25.244376 +0530,
,Scenes\152a.jpg,107,0,108,,,,,,,j,2.6836042999930214,0.11923570000362815,None,,,,,,108,0,107,612.9711765000029,,,,,,,,,,,,,,,,,,,,,,,,,,,,,,612.9549390000029,612.9711765000029,613.4549946999978,,,,,,,,,,,,,,,,,,,,,,,,613.5460992000008,613.5500845999995,613.5500845999995,613.5500845999995,616.4713346999997,j,2.6836042999930214,0.11923570000362815,616.4714559999993,616.471497999999,None,,,,,,,,,,,,,,00041,001,2026-01-17_12h11.08.959,MST_task,2024.2.0,59.750041675634485,2026-01-17 12h11.25.244376 +0530,
,Scenes\026a.jpg,108,0,109,,,,,,,j,1.5672749999939697,0.11310950000188313,None,,,,,,109,0,108,616.487343300003,,,,,,,,,,,,,,,,,,,,,,,,,,,,,,616.4718015000035,616.487343300003,616.9718447999985,,,,,,,,,,,,,,617.0895898000017,,,,,,,,,,617.0861960999973,617.0895898000017,617.0895898000017,617.0895898000017,619.9878757000042,j,1.5672749999939697,0.11310950000188313,619.9879885999981,619.9880285000036,None,,,,,,,,,,,,,,00041,001,2026-01-17_12h11.08.959,MST_task,2024.2.0,59.750041675634485,2026-01-17 12h11.25.244376 +0530,
,Scenes\090a.jpg,109,0,110,,,,,,,j,2.103847999998834,0.12826090000453405,None,,,,,,110,0,109,620.0039905000012,,,,,,,,,,,,,,,,,,,,,,,,,,,,,,619.988240300001,620.0039905000012,620.488540899998,,,,,,,,,,,,,,620.5621078999975,,,,,,,,,,620.5587282999986,620.5621078999975,620.5621078999975,620.5621078999975,623.5044666000031,j,2.103847999998834,0.12826090000453405,623.5045817999999,623.5046205000035,None,,,,,,,,,,,,,,00041,001,2026-01-17_12h11.08.959,MST_task,2024.2.0,59.750041675634485,2026-01-17 12h11.25.244376 +0530,
,Scenes\007a.jpg,110,0,111,,,,,,,f,1.4502209999991464,0.12716309999814257,None,,,,,,111,0,110,623.5208483000024,,,,,,,,,,,,,,,,,,,,,,,,,,,,,,623.5049078000011,623.5208483000024,624.0050812000045,,,,,,,,,,,,,,624.0957388000024,,,,,,,,,,624.0921137999976,624.0957388000024,624.0957388000024,624.0957388000024,627.0210519000029,f,1.4502209999991464,0.12716309999814257,627.0211640999987,627.0212046000015,None,,,,,,,,,,,,,,00041,001,2026-01-17_12h11.08.959,MST_task,2024.2.0,59.750041675634485,2026-01-17 12h11.25.244376 +0530,
,Scenes\131a.jpg,111,0,112,,,,,,,j,1.4021177999966312,0.12825200000224868,None,,,,,,112,0,111,627.0372895000037,,,,,,,,,,,,,,,,,,,,,,,,,,,,,,627.021413100003,627.0372895000037,627.521616500002,,,,,,,,,,,,,,627.5997607000027,,,,,,,,,,627.595937099999,627.5997607000027,627.5997607000027,627.5997607000027,630.5377423000027,j,1.4021177999966312,0.12825200000224868,630.5379243999996,630.5379863999988,None,,,,,,,,,,,,,,00041,001,2026-01-17_12h11.08.959,MST_task,2024.2.0,59.750041675634485,2026-01-17 12h11.25.244376 +0530,
,Objects\145a.jpg,112,0,113,,,,,,,f,2.12016169999697,0.11976590000267606,None,,,,,,113,0,112,630.5539653000014,,,,,,,,,,,,,,,,,,,,,,,,,,,,,,630.5383029000004,630.5539653000014,631.0385864999989,,,,,,,,,,,,,,631.0812866999986,,,,,,,,,,631.0771591000012,631.0812866999986,631.0812866999986,631.0812866999986,634.0544012000028,f,2.12016169999697,0.11976590000267606,634.0601539999989,634.0601937000029,None,,,,,,,,,,,,,,00041,001,2026-01-17_12h11.08.959,MST_task,2024.2.0,59.750041675634485,2026-01-17 12h11.25.244376 +0530,
,Objects\032a.jpg,113,0,114,,,,,,,None,,,j,0.11798260000068694,None,,,,114,0,113,634.0709387000024,,,,,,,,,,,,,,,,,,,,,,,,,,,,,,634.0604212000035,634.0709387000024,634.5554981000023,,,,,,,,,,,,,,634.6118657000043,,,,,,,,,,634.6084056000036,634.6118657000043,634.6118657000043,634.6118657000043,637.5710220000037,None,,,637.5711730000039,637.722365499998,j,637.5875016999998,637.5875016999998,0.11798260000068694,None,,,,,,,,,,00041,001,2026-01-17_12h11.08.959,MST_task,2024.2.0,59.750041675634485,2026-01-17 12h11.25.244376 +0530,
,Objects\060a.jpg,114,0,115,,,,,,,j,2.2564734000043245,0.0953631999946083,None,,,,,,115,0,114,637.7373435000045,,,,,,,,,,,,,,,,,,,,,,,,,,,,,,637.7228840000025,637.7373435000045,638.2216282000009,,,,,,,,,,,,,,638.2979143999983,,,,,,,,,,638.2937670000028,638.2979143999983,638.2979143999983,638.2979143999983,641.2384399000002,j,2.2564734000043245,0.0953631999946083,641.2385524999991,641.2385939000014,None,,,,,,,,,,,,,,00041,001,2026-01-17_12h11.08.959,MST_task,2024.2.0,59.750041675634485,2026-01-17 12h11.25.244376 +0530,
,Objects\045a.jpg,115,0,116,,,,,,,j,2.174668500003463,0.1126670000012382,None,,,,,,116,0,115,641.2547319000005,,,,,,,,,,,,,,,,,,,,,,,,,,,,,,641.2388030000002,641.2547319000005,641.738365600002,,,,,,,,,,,,,,641.818110799999,,,,,,,,,,641.8143619999973,641.818110799999,641.818110799999,641.818110799999,644.7542924000008,j,2.174668500003463,0.1126670000012382,644.7544568000012,644.7545183000038,None,,,,,,,,,,,,,,00041,001,2026-01-17_12h11.08.959,MST_task,2024.2.0,59.750041675634485,2026-01-17 12h11.25.244376 +0530,
,Objects\057a.jpg,116,0,117,,,,,,,f,2.0728897000008146,0.11211650000041118,None,,,,,,117,0,116,644.770804300002,,,,,,,,,,,,,,,,,,,,,,,,,,,,,,644.7549568000031,644.770804300002,645.2551865999994,,,,,,,,,,,,,,645.2888493999999,,,,,,,,,,645.2859525000022,645.2888493999999,645.2888493999999,645.2888493999999,648.2716933999982,f,2.0728897000008146,0.11211650000041118,648.2718575000035,648.2719208999988,None,,,,,,,,,,,,,,00041,001,2026-01-17_12h11.08.959,MST_task,2024.2.0,59.750041675634485,2026-01-17 12h11.25.244376 +0530,
,Objects\186a.jpg,117,0,118,,,,,,,f,1.356226299998525,0.1187112999978126,None,,,,,,118,0,117,648.2873980000004,,,,,,,,,,,,,,,,,,,,,,,,,,,,,,648.2721416999993,648.2873980000004,648.7716569999975,,,,,,,,,,,,,,648.8300174000033,,,,,,,,,,648.8264944000039,648.8300174000033,648.8300174000033,648.8300174000033,651.7887967999995,f,1.356226299998525,0.1187112999978126,651.7889637999979,651.7890256000028,None,,,,,,,,,,,,,,00041,001,2026-01-17_12h11.08.959,MST_task,2024.2.0,59.750041675634485,2026-01-17 12h11.25.244376 +0530,
,Objects\044a.jpg,118,0,119,,,,,,,f,1.7727866999994149,0.11121010000351816,None,,,,,,119,0,118,651.8040451999987,,,,,,,,,,,,,,,,,,,,,,,,,,,,,,651.7893427000017,651.8040451999987,652.2885319999987,,,,,,,,,,,,,,652.3095355999976,,,,,,,,,,652.3065958000007,652.3095355999976,652.3095355999976,652.3095355999976,655.3050520000033,f,1.7727866999994149,0.11121010000351816,655.3051841999986,655.3052221000034,None,,,,,,,,,,,,,,00041,001,2026-01-17_12h11.08.959,MST_task,2024.2.0,59.750041675634485,2026-01-17 12h11.25.244376 +0530,
,Scenes\042a.jpg,119,0,120,,,,,,,j,1.8991194000045653,0.13666109999758191,None,,,,,,120,0,119,655.3207675000012,,,,,,,,,,,,,,,,,,,,,,,,,,,,,,655.3054238999975,655.3207675000012,655.8050597999973,,,,,,,,,,,,,,655.8776338000025,,,,,,,,,,655.8738959999973,655.8776338000025,655.8776338000025,655.8776338000025,658.820899600003,j,1.8991194000045653,0.13666109999758191,658.8229529000018,658.822980500001,None,,,,,,,,,,,,,,00041,001,2026-01-17_12h11.08.959,MST_task,2024.2.0,59.750041675634485,2026-01-17 12h11.25.244376 +0530,
,Scenes\070a.jpg,120,0,121,,,,,,,j,1.679211700000451,0.12839030000031926,None,,,,,,121,0,120,658.8374508999987,,,,,,,,,,,,,,,,,,,,,,,,,,,,,,658.8230758999998,658.8374508999987,659.3220918000006,,,,,,,,,,,,,,659.426183399999,,,,,,,,,,659.4225701000032,659.426183399999,659.426183399999,659.426183399999,662.3378005999984,j,1.679211700000451,0.12839030000031926,662.3378930000035,662.3379252000013,None,,,,,,,,,,,,,,00041,001,2026-01-17_12h11.08.959,MST_task,2024.2.0,59.750041675634485,2026-01-17 12h11.25.244376 +0530,
,Scenes\081a.jpg,121,0,122,,,,,,,j,1.7791027999992366,0.12774830000125803,None,,,,,,122,0,121,662.3539593000023,,,,,,,,,,,,,,,,,,,,,,,,,,,,,,662.3381783000004,662.3539593000023,662.8390027999994,,,,,,,,,,,,,,662.9822399999975,,,,,,,,,,662.9793369000035,662.9822399999975,662.9822399999975,662.9822399999975,665.8545865999986,j,1.7791027999992366,0.12774830000125803,665.8547496000028,665.8548100000044,None,,,,,,,,,,,,,,00041,001,2026-01-17_12h11.08.959,MST_task,2024.2.0,59.750041675634485,2026-01-17 12h11.25.244376 +0530,
,Scenes\097a.jpg,122,0,123,,,,,,,None,,,f,0.7814289999951143,None,,,,123,0,122,665.8709611000013,,,,,,,,,,,,,,,,,,,,,,,,,,,,,,665.8552294000037,665.8709611000013,666.3551865000045,,,,,,,,,,,,,,666.4058475999991,,,,,,,,,,666.4020563000013,666.4058475999991,666.4058475999991,666.4058475999991,669.3710581999985,None,,,669.3711460999984,670.1723561000035,f,669.387384900001,669.387384900001,0.7814289999951143,None,,,,,,,,,,00041,001,2026-01-17_12h11.08.959,MST_task,2024.2.0,59.750041675634485,2026-01-17 12h11.25.244376 +0530,
,Scenes\123a.jpg,123,0,124,,,,,,,j,1.8636588999943342,0.13669530000333907,None,,,,,,124,0,123,670.187359399999,,,,,,,,,,,,,,,,,,,,,,,,,,,,,,670.1726597000015,670.187359399999,670.6720926999988,,,,,,,,,,,,,,670.7294900999987,,,,,,,,,,670.7262112000026,670.7294900999987,670.7294900999987,670.7294900999987,673.6879741000012,j,1.8636588999943342,0.13669530000333907,673.6880874999988,673.6881260000009,None,,,,,,,,,,,,,,00041,001,2026-01-17_12h11.08.959,MST_task,2024.2.0,59.750041675634485,2026-01-17 12h11.25.244376 +0530,
,Scenes\143a.jpg,124,0,125,,,,,,,j,1.5407465000025695,0.11854680000396911,None,,,,,,125,0,124,673.7042279000016,,,,,,,,,,,,,,,,,,,,,,,,,,,,,,673.6884255999976,673.7042279000016,674.1884145000004,,,,,,,,,,,,,,674.2534598999991,,,,,,,,,,674.2490966000041,674.2534598999991,674.2534598999991,674.2534598999991,677.2048194000017,j,1.5407465000025695,0.11854680000396911,677.2049914000017,677.2050529999979,None,,,,,,,,,,,,,,00041,001,2026-01-17_12h11.08.959,MST_task,2024.2.0,59.750041675634485,2026-01-17 12h11.25.244376 +0530,
,Scenes\145a.jpg,125,0,126,,,,,,,j,0.8244825000001583,0.12044639999658102,None,,,,,,126,0,125,677.2206699000017,,,,,,,,,,,,,,,,,,,,,,,,,,,,,,677.2054826000021,677.2206699000017,677.7059550999984,,,,,,,,,,,,,,677.7769946999979,,,,,,,,,,677.7742130999977,677.7769946999979,677.7769946999979,677.7769946999979,680.720986100001,j,0.8244825000001583,0.12044639999658102,680.7210859000043,680.7211212999973,None,,,,,,,,,,,,,,00041,001,2026-01-17_12h11.08.959,MST_task,2024.2.0,59.750041675634485,2026-01-17 12h11.25.244376 +0530,
,Objects\043a.jpg,126,0,127,,,,,,,f,1.2102057000010973,0.10381489999417681,None,,,,,,127,0,126,680.7373807999975,,,,,,,,,,,,,,,,,,,,,,,,,,,,,,680.7213652999999,680.7373807999975,681.2217219000013,,,,,,,,,,,,,,681.247383599999,,,,,,,,,,681.2443114999987,681.247383599999,681.247383599999,681.247383599999,684.2378304000013,f,1.2102057000010973,0.10381489999417681,684.2422074999995,684.2422379999989,None,,,,,,,,,,,,,,00041,001,2026-01-17_12h11.08.959,MST_task,2024.2.0,59.750041675634485,2026-01-17 12h11.25.244376 +0530,
,Objects\014a.jpg,127,0,128,,,,,,,f,0.900249199999962,0.11909350000496488,None,,,,,,128,0,127,684.2539478000035,,,,,,,,,,,,,,,,,,,,,,,,,,,,,,684.2423698999992,684.2539478000035,684.738554800002,,,,,,,,,,,,,,684.797708500002,,,,,,,,,,684.7938447999986,684.797708500002,684.797708500002,684.797708500002,687.7545643999983,f,0.900249199999962,0.11909350000496488,687.754671900002,687.7547084000034,None,,,,,,,,,,,,,,00041,001,2026-01-17_12h11.08.959,MST_task,2024.2.0,59.750041675634485,2026-01-17 12h11.25.244376 +0530,
,Objects\102a.jpg,128,0,129,,,,,,,f,0.9807786000019405,0.11940469999535708,None,,,,,,129,0,128,687.7708360000033,,,,,,,,,,,,,,,,,,,,,,,,,,,,,,687.7549781999987,687.7708360000033,688.2551908000023,,,,,,,,,,,,,,688.2929600999996,,,,,,,,,,688.2895599999974,688.2929600999996,688.2929600999996,688.2929600999996,691.271837500004,f,0.9807786000019405,0.11940469999535708,691.2719233000025,691.2719520000028,None,,,,,,,,,,,,,,00041,001,2026-01-17_12h11.08.959,MST_task,2024.2.0,59.750041675634485,2026-01-17 12h11.25.244376 +0530,
,Objects\104a.jpg,129,0,130,,,,,,,f,1.1138384000005317,0.10590279999451013,None,,,,,,130,0,129,691.2873554000034,,,,,,,,,,,,,,,,,,,,,,,,,,,,,,691.272106700002,691.2873554000034,691.7722255999979,,,,,,,,,,,,,,691.8067842000019,,,,,,,,,,691.8026843999978,691.8067842000019,691.8067842000019,691.8067842000019,694.7879785000041,f,1.1138384000005317,0.10590279999451013,694.7881258999987,694.7881774999987,None,,,,,,,,,,,,,,00041,001,2026-01-17_12h11.08.959,MST_task,2024.2.0,59.750041675634485,2026-01-17 12h11.25.244376 +0530,
,Objects\001a.jpg,130,0,131,,,,,,,f,0.8387619999994058,0.1042096999954083,None,,,,,,131,0,130,694.8043515000027,,,,,,,,,,,,,,,,,,,,,,,,,,,,,,694.7885453999988,694.8043515000027,695.2886459000001,,,,,,,,,,,,,,695.4031144000037,,,,,,,,,,695.3999718999985,695.4031144000037,695.4031144000037,695.4031144000037,698.3043973000022,f,0.8387619999994058,0.1042096999954083,698.3045629999979,698.3046245000005,None,,,,,,,,,,,,,,00041,001,2026-01-17_12h11.08.959,MST_task,2024.2.0,59.750041675634485,2026-01-17 12h11.25.244376 +0530,
,Objects\127a.jpg,131,0,132,,,,,,,f,1.760167000000365,0.10420039999735309,None,,,,,,132,0,131,698.3208616999982,,,,,,,,,,,,,,,,,,,,,,,,,,,,,,698.3048752000032,698.3208616999982,698.8053069000016,,,,,,,,,,,,,,698.8497583999997,,,,,,,,,,698.8470555000022,698.8497583999997,698.8497583999997,698.8497583999997,701.8209777000011,f,1.760167000000365,0.10420039999735309,701.821180400002,701.8212166000012,None,,,,,,,,,,,,,,00041,001,2026-01-17_12h11.08.959,MST_task,2024.2.0,59.750041675634485,2026-01-17 12h11.25.244376 +0530,
,Objects\095a.jpg,132,0,133,,,,,,,f,0.9488837999961106,0.11933420000423212,None,,,,,,133,0,132,701.8373350000038,,,,,,,,,,,,,,,,,,,,,,,,,,,,,,701.8214050000024,701.8373350000038,702.3217857999989,,,,,,,,,,,,,,702.3565413000033,,,,,,,,,,702.353793000002,702.3565413000033,702.3565413000033,702.3565413000033,705.3381235999987,f,0.9488837999961106,0.11933420000423212,705.3382964999983,705.3383592000027,None,,,,,,,,,,,,,,00041,001,2026-01-17_12h11.08.959,MST_task,2024.2.0,59.750041675634485,2026-01-17 12h11.25.244376 +0530,
,Scenes\114a.jpg,133,0,134,,,,,,,f,2.868558200003463,None,None,,,,,,134,0,133,705.3542001000023,,,,,,,,,,,,,,,,,,,,,,,,,,,,,,705.3386661999975,705.3542001000023,705.8384946000006,,,,,,,,,,,,,,705.9653330000001,,,,,,,,,,705.9621396000002,705.9653330000001,705.9653330000001,705.9653330000001,708.8546887999983,f,2.868558200003463,None,708.8590631999978,708.8591087000023,None,,,,,,,,,,,,,,00041,001,2026-01-17_12h11.08.959,MST_task,2024.2.0,59.750041675634485,2026-01-17 12h11.25.244376 +0530,
,Scenes\139a.jpg,134,0,135,,,,,,,j,1.0325672999970266,0.12127120000513969,None,,,,,,135,0,134,708.8709458000012,,,,,,,,,,,,,,,,,,,,,,,,,,,,,,708.8593630000032,708.8709458000012,709.3550928999975,,,,,,,,,,,,,,709.4081628999993,,,,,,,,,,709.4049415000045,709.4081628999993,709.4081628999993,709.4081628999993,712.3709535000016,j,1.0325672999970266,0.12127120000513969,712.3710640999998,712.3711027000027,None,,,,,,,,,,,,,,00041,001,2026-01-17_12h11.08.959,MST_task,2024.2.0,59.750041675634485,2026-01-17 12h11.25.244376 +0530,
,Scenes\071a.jpg,135,0,136,,,,,,,j,1.3734175999998115,0.12648230000195326,None,,,,,,136,0,135,712.387453000003,,,,,,,,,,,,,,,,,,,,,,,,,,,,,,712.3713879999996,712.387453000003,712.8716352999982,,,,,,,,,,,,,,712.9734701999987,,,,,,,,,,712.9700109999976,712.9734701999987,712.9734701999987,712.9734701999987,715.8714283000008,j,1.3734175999998115,0.12648230000195326,715.8715946000011,715.8716321000029,None,,,,,,,,,,,,,,00041,001,2026-01-17_12h11.08.959,MST_task,2024.2.0,59.750041675634485,2026-01-17 12h11.25.244376 +0530,
,Scenes\028a.jpg,136,0,137,,,,,,,j,0.8217678000000888,0.1279173000002629,None,,,,,,137,0,136,715.8875402999984,,,,,,,,,,,,,,,,,,,,,,,,,,,,,,715.8718292999984,715.8875402999984,716.3718358999977,,,,,,,,,,,,,,716.451604599999,,,,,,,,,,716.4478488000022,716.451604599999,716.451604599999,716.451604599999,719.3876831000016,j,0.8217678000000888,0.1279173000002629,719.3878478000042,719.3879086000015,None,,,,,,,,,,,,,,00041,001,2026-01-17_12h11.08.959,MST_task,2024.2.0,59.750041675634485,2026-01-17 12h11.25.244376 +0530,
,Scenes\141a.jpg,137,0,138,,,,,,,j,0.8725787000003038,0.09523130000161473,None,,,,,,138,0,137,719.4040449000022,,,,,,,,,,,,,,,,,,,,,,,,,,,,,,719.3883322000038,719.4040449000022,719.8885200000004,,,,,,,,,,,,,,719.9532876000012,,,,,,,,,,719.9495754000018,719.9532876000012,719.9532876000012,719.9532876000012,722.9043721999988,j,0.8725787000003038,0.09523130000161473,722.9045314000032,722.9045829000024,None,,,,,,,,,,,,,,00041,001,2026-01-17_12h11.08.959,MST_task,2024.2.0,59.750041675634485,2026-01-17 12h11.25.244376 +0530,
,Scenes\102a.jpg,138,0,139,,,,,,,f,1.2122803000020212,0.09566929999709828,None,,,,,,139,0,138,722.9207719999977,,,,,,,,,,,,,,,,,,,,,,,,,,,,,,722.904853,722.9207719999977,723.4055415000039,,,,,,,,,,,,,,723.4849971000003,,,,,,,,,,723.4815588999991,723.4849971000003,723.4849971000003,723.4849971000003,726.4211116000006,f,1.2122803000020212,0.09566929999709828,726.4212726999976,726.4213355000029,None,,,,,,,,,,,,,,00041,001,2026-01-17_12h11.08.959,MST_task,2024.2.0,59.750041675634485,2026-01-17 12h11.25.244376 +0530,
,Scenes\023a.jpg,139,0,140,,,,,,,f,1.1078549000012572,0.09677280000323663,None,,,,,,140,0,139,726.4372203000021,,,,,,,,,,,,,,,,,,,,,,,,,,,,,,726.4217523999978,726.4372203000021,726.9221641999975,,,,,,,,,,,,,,727.0135788999978,,,,,,,,,,727.0102372000038,727.0135788999978,727.0135788999978,727.0135788999978,729.9377265000003,f,1.1078549000012572,0.09677280000323663,729.9378905999984,729.937952100001,None,,,,,,,,,,,,,,00041,001,2026-01-17_12h11.08.959,MST_task,2024.2.0,59.750041675634485,2026-01-17 12h11.25.244376 +0530,
,Objects\120a.jpg,140,0,141,,,,,,,f,2.0468645000000834,0.09525170000415528,None,,,,,,141,0,140,729.9540653000004,,,,,,,,,,,,,,,,,,,,,,,,,,,,,,729.9383140999998,729.9540653000004,730.4388327999986,,,,,,,,,,,,,,730.4907362000013,,,,,,,,,,730.4871531000026,730.4907362000013,730.4907362000013,730.4907362000013,733.4543128000005,f,2.0468645000000834,0.09525170000415528,733.4594948000013,733.4595269999991,None,,,,,,,,,,,,,,00041,001,2026-01-17_12h11.08.959,MST_task,2024.2.0,59.750041675634485,2026-01-17 12h11.25.244376 +0530,
,Objects\121a.jpg,141,0,142,,,,,,,f,1.3205548000041745,0.11981930000183638,None,,,,,,142,0,141,733.4707860999988,,,,,,,,,,,,,,,,,,,,,,,,,,,,,,733.4596674999993,733.4707860999988,733.9550309000042,,,,,,,,,,,,,,733.9777198000011,,,,,,,,,,733.9742326999985,733.9777198000011,733.9777198000011,733.9777198000011,736.9713061000002,f,1.3205548000041745,0.11981930000183638,736.971415,736.9714521999995,None,,,,,,,,,,,,,,00041,001,2026-01-17_12h11.08.959,MST_task,2024.2.0,59.750041675634485,2026-01-17 12h11.25.244376 +0530,
,Objects\140a.jpg,142,0,143,,,,,,,f,1.3398210999948788,0.13557030000083614,None,,,,,,143,0,142,736.9873669000008,,,,,,,,,,,,,,,,,,,,,,,,,,,,,,736.9716470999992,736.9873669000008,737.4717524000007,,,,,,,,,,,,,,737.5903657000017,,,,,,,,,,737.5862632999997,737.5903657000017,737.5903657000017,737.5903657000017,740.4878374000036,f,1.3398210999948788,0.13557030000083614,740.4879922000036,740.4880272000009,None,,,,,,,,,,,,,,00041,001,2026-01-17_12h11.08.959,MST_task,2024.2.0,59.750041675634485,2026-01-17 12h11.25.244376 +0530,
,Objects\026a.jpg,143,0,144,,,,,,,f,1.4739614999998594,0.13585719999537105,None,,,,,,144,0,143,740.5043464999981,,,,,,,,,,,,,,,,,,,,,,,,,,,,,,740.4882104999997,740.5043464999981,740.9887690000032,,,,,,,,,,,,,,741.0311724999992,,,,,,,,,,741.0281257000024,741.0311724999992,741.0311724999992,741.0311724999992,744.0046342999995,f,1.4739614999998594,0.13585719999537105,744.0047962000026,744.0048363000024,None,,,,,,,,,,,,,,00041,001,2026-01-17_12h11.08.959,MST_task,2024.2.0,59.750041675634485,2026-01-17 12h11.25.244376 +0530,
,Objects\023a.jpg,144,0,145,,,,,,,f,1.7140173000007053,0.11222350000025472,None,,,,,,145,0,144,744.0206935000024,,,,,,,,,,,,,,,,,,,,,,,,,,,,,,744.0051222999973,744.0206935000024,744.5054509000038,,,,,,,,,,,,,,744.5437651000029,,,,,,,,,,744.540643100001,744.5437651000029,744.5437651000029,744.5437651000029,747.5210394000023,f,1.7140173000007053,0.11222350000025472,747.5212210000027,747.5212835999992,None,,,,,,,,,,,,,,00041,001,2026-01-17_12h11.08.959,MST_task,2024.2.0,59.750041675634485,2026-01-17 12h11.25.244376 +0530,
,Objects\135a.jpg,145,0,146,,,,,,,f,2.530354599999555,0.1345443999962299,None,,,,,,146,0,145,747.5374147000039,,,,,,,,,,,,,,,,,,,,,,,,,,,,,,747.5215910999977,747.5374147000039,748.0217332000029,,,,,,,,,,,,,,748.0723876999982,,,,,,,,,,748.0692587000012,748.0723876999982,748.0723876999982,748.0723876999982,751.037768000002,f,2.530354599999555,0.1345443999962299,751.0379315000027,751.0379920999985,None,,,,,,,,,,,,,,00041,001,2026-01-17_12h11.08.959,MST_task,2024.2.0,59.750041675634485,2026-01-17 12h11.25.244376 +0530,
,Objects\132a.jpg,146,0,147,,,,,,,f,0.825697799999034,0.0875951999987592,None,,,,,,147,0,146,751.0540894000005,,,,,,,,,,,,,,,,,,,,,,,,,,,,,,751.0384291000009,751.0540894000005,751.5382205999995,,,,,,,,,,,,,,751.575679900001,,,,,,,,,,751.5725012000039,751.575679900001,751.575679900001,751.575679900001,754.5544796000031,f,0.825697799999034,0.0875951999987592,754.5546001999974,754.5546364000038,None,,,,,,,,,,,,,,00041,001,2026-01-17_12h11.08.959,MST_task,2024.2.0,59.750041675634485,2026-01-17 12h11.25.244376 +0530,
,Scenes\093a.jpg,147,0,148,,,,,,,f,1.8558032000000821,0.12045170000055805,None,,,,,,148,0,147,754.5709057999993,,,,,,,,,,,,,,,,,,,,,,,,,,,,,,754.5549477000022,754.5709057999993,755.0556493999975,,,,,,,,,,,,,,755.1294657000035,,,,,,,,,,755.1258856999993,755.1294657000035,755.1294657000035,755.1294657000035,758.070985600003,f,1.8558032000000821,0.12045170000055805,758.0747755999982,758.0748017000005,None,,,,,,,,,,,,,,00041,001,2026-01-17_12h11.08.959,MST_task,2024.2.0,59.750041675634485,2026-01-17 12h11.25.244376 +0530,
,Scenes\112a.jpg,148,0,149,,,,,,,j,1.065094699995825,0.13570030000119004,None,,,,,,149,0,148,758.087300500003,,,,,,,,,,,,,,,,,,,,,,,,,,,,,,758.0749547000014,758.087300500003,758.5717179999992,,,,,,,,,,,,,,758.688794200003,,,,,,,,,,758.6854095000017,758.688794200003,758.688794200003,758.688794200003,761.5880527000045,j,1.065094699995825,0.13570030000119004,761.5882114999986,761.5882478999993,None,,,,,,,,,,,,,,00041,001,2026-01-17_12h11.08.959,MST_task,2024.2.0,59.750041675634485,2026-01-17 12h11.25.244376 +0530,
,Scenes\177a.jpg,149,0,150,,,,,,,j,2.6547004000021843,0.09588780000194674,None,,,,,,150,0,149,761.6040904999973,,,,,,,,,,,,,,,,,,,,,,,,,,,,,,761.5884431000013,761.6040904999973,762.0885924000031,,,,,,,,,,,,,,762.1706890999994,,,,,,,,,,762.1671133999989,762.1706890999994,762.1706890999994,762.1706890999994,765.1045445999989,j,2.6547004000021843,0.09588780000194674,765.1046462000013,765.1046815000009,None,,,,,,,,,,,,,,00041,001,2026-01-17_12h11.08.959,MST_task,2024.2.0,59.750041675634485,2026-01-17 12h11.25.244376 +0530,
,Scenes\008a.jpg,150,0,151,,,,,,,f,1.4079592000052799,0.12095259999478003,None,,,,,,151,0,150,765.1209499000033,,,,,,,,,,,,,,,,,,,,,,,,,,,,,,765.1048673999976,765.1209499000033,765.6048978000035,,,,,,,,,,,,,,765.6651128000012,,,,,,,,,,765.6618290999977,765.6651128000012,765.6651128000012,765.6651128000012,768.6209915,f,1.4079592000052799,0.12095259999478003,768.6210933999973,768.6211288999984,None,,,,,,,,,,,,,,00041,001,2026-01-17_12h11.08.959,MST_task,2024.2.0,59.750041675634485,2026-01-17 12h11.25.244376 +0530,
,Scenes\130a.jpg,151,0,152,,,,,,,j,1.4180779000016628,0.12061299999913899,None,,,,,,152,0,151,768.6375211999984,,,,,,,,,,,,,,,,,,,,,,,,,,,,,,768.6213108000011,768.6375211999984,769.1217392000035,,,,,,,,,,,,,,769.1987135000018,,,,,,,,,,769.1951138000004,769.1987135000018,769.1987135000018,769.1987135000018,772.138092000001,j,1.4180779000016628,0.12061299999913899,772.1382574000017,772.1383186000021,None,,,,,,,,,,,,,,00041,001,2026-01-17_12h11.08.959,MST_task,2024.2.0,59.750041675634485,2026-01-17 12h11.25.244376 +0530,
,Scenes\012a.jpg,152,0,153,,,,,,,j,0.9938878000029945,0.10529530000349041,None,,,,,,153,0,152,772.1540209000013,,,,,,,,,,,,,,,,,,,,,,,,,,,,,,772.1386373999994,772.1540209000013,772.6384216000006,,,,,,,,,,,,,,772.7594630000021,,,,,,,,,,772.7561847000034,772.7594630000021,772.7594630000021,772.7594630000021,775.6546402000022,j,0.9938878000029945,0.10529530000349041,775.6548025000011,775.6548657000021,None,,,,,,,,,,,,,,00041,001,2026-01-17_12h11.08.959,MST_task,2024.2.0,59.750041675634485,2026-01-17 12h11.25.244376 +0530,
,Scenes\107a.jpg,153,0,154,,,,,,,j,0.9405275999961304,0.12021110000205226,None,,,,,,154,0,153,775.6707700000043,,,,,,,,,,,,,,,,,,,,,,,,,,,,,,775.6553017999977,775.6707700000043,776.1550704000038,,,,,,,,,,,,,,776.2530745999975,,,,,,,,,,776.2493914000006,776.2530745999975,776.2530745999975,776.2530745999975,779.1710714000001,j,0.9405275999961304,0.12021110000205226,779.1712363000042,779.171299499998,None,,,,,,,,,,,,,,00041,001,2026-01-17_12h11.08.959,MST_task,2024.2.0,59.750041675634485,2026-01-17 12h11.25.244376 +0530,
,Objects\190a.jpg,154,0,155,,,,,,,f,2.698328800004674,0.10511229999974603,None,,,,,,155,0,154,779.1873446000027,,,,,,,,,,,,,,,,,,,,,,,,,,,,,,779.1715107999989,779.1873446000027,779.6715264000013,,,,,,,,,,,,,,779.7266230000023,,,,,,,,,,779.7234347999984,779.7266230000023,779.7266230000023,779.7266230000023,782.687677599999,f,2.698328800004674,0.10511229999974603,782.6938523999997,782.6939131000036,None,,,,,,,,,,,,,,00041,001,2026-01-17_12h11.08.959,MST_task,2024.2.0,59.750041675634485,2026-01-17 12h11.25.244376 +0530,
,Objects\039a.jpg,155,0,156,,,,,,,j,2.7081295999960275,0.09636970000428846,None,,,,,,156,0,155,782.7039569000044,,,,,,,,,,,,,,,,,,,,,,,,,,,,,,782.6940959999993,782.7039569000044,783.1882467000032,,,,,,,,,,,,,,783.2290893000027,,,,,,,,,,783.226342300004,783.2290893000027,783.2290893000027,783.2290893000027,786.2044629000011,j,2.7081295999960275,0.09636970000428846,786.2046555999987,786.2047183000032,None,,,,,,,,,,,,,,00041,001,2026-01-17_12h11.08.959,MST_task,2024.2.0,59.750041675634485,2026-01-17 12h11.25.244376 +0530,
,Objects\058a.jpg,156,0,157,,,,,,,f,1.6555386999971233,0.11934010000550188,None,,,,,,157,0,156,786.2206527000017,,,,,,,,,,,,,,,,,,,,,,,,,,,,,,786.2050641000023,786.2206527000017,786.7051769000027,,,,,,,,,,,,,,786.7383963000029,,,,,,,,,,786.735385,786.7383963000029,786.7383963000029,786.7383963000029,789.720928200004,f,1.6555386999971233,0.11934010000550188,789.7210415000009,789.7211069000041,None,,,,,,,,,,,,,,00041,001,2026-01-17_12h11.08.959,MST_task,2024.2.0,59.750041675634485,2026-01-17 12h11.25.244376 +0530,
,Objects\179a.jpg,157,0,158,,,,,,,f,2.3984410999983083,0.09688070000265725,None,,,,,,158,0,157,789.7374482000014,,,,,,,,,,,,,,,,,,,,,,,,,,,,,,789.7213972000027,789.7374482000014,790.2216063000014,,,,,,,,,,,,,,790.2748046999986,,,,,,,,,,790.2716801999995,790.2748046999986,790.2748046999986,790.2748046999986,793.2218515999994,f,2.3984410999983083,0.09688070000265725,793.2220166000043,793.2222917000036,None,,,,,,,,,,,,,,00041,001,2026-01-17_12h11.08.959,MST_task,2024.2.0,59.750041675634485,2026-01-17 12h11.25.244376 +0530,
,Objects\119a.jpg,158,0,159,,,,,,,f,0.9295326999999816,0.1199246000032872,None,,,,,,159,0,158,793.2373280000029,,,,,,,,,,,,,,,,,,,,,,,,,,,,,,793.2226501999976,793.2373280000029,793.7219857000018,,,,,,,,,,,,,,793.7592255999989,,,,,,,,,,793.7562113000022,793.7592255999989,793.7592255999989,793.7592255999989,796.7390538000036,f,0.9295326999999816,0.1199246000032872,796.7392172000036,796.7392732000008,None,,,,,,,,,,,,,,00041,001,2026-01-17_12h11.08.959,MST_task,2024.2.0,59.750041675634485,2026-01-17 12h11.25.244376 +0530,
,Objects\050a.jpg,159,0,160,,,,,,,f,2.853960599997663,0.09681990000535734,None,,,,,,160,0,159,796.7540896999999,,,,,,,,,,,,,,,,,,,,,,,,,,,,,,796.7396157000039,796.7540896999999,797.238637399998,,,,,,,,,,,,,,797.2833871000039,,,,,,,,,,797.279724400003,797.2833871000039,797.2833871000039,797.2833871000039,800.2545372000022,f,2.853960599997663,0.09681990000535734,800.254712300004,800.2547745999982,None,,,,,,,,,,,,,,00041,001,2026-01-17_12h11.08.959,MST_task,2024.2.0,59.750041675634485,2026-01-17 12h11.25.244376 +0530,
,Objects\149a.jpg,160,0,161,,,,,,,j,0.8757485000023735,0.1125564999965718,None,,,,,,161,0,160,800.2710206999982,,,,,,,,,,,,,,,,,,,,,,,,,,,,,,800.2550551000022,800.2710206999982,800.7543437999993,,,,,,,,,,,,,,800.8531306000004,,,,,,,,,,800.8502890000018,800.8531306000004,800.8531306000004,800.8531306000004,803.7710856999984,j,0.8757485000023735,0.1125564999965718,803.7712348999994,803.7712718000039,None,,,,,,,,,,,,,,00041,001,2026-01-17_12h11.08.959,MST_task,2024.2.0,59.750041675634485,2026-01-17 12h11.25.244376 +0530,
,Scenes\065a.jpg,161,0,162,,,,,,,j,1.5260813999993843,0.08013769999524811,None,,,,,,162,0,161,803.7874704999995,,,,,,,,,,,,,,,,,,,,,,,,,,,,,,803.7715441000037,803.7874704999995,804.2719522999978,,,,,,,,,,,,,,804.3468673000025,,,,,,,,,,804.3432826999997,804.3468673000025,804.3468673000025,804.3468673000025,807.2877099000034,j,1.5260813999993843,0.08013769999524811,807.292781600001,807.2928436000002,None,,,,,,,,,,,,,,00041,001,2026-01-17_12h11.08.959,MST_task,2024.2.0,59.750041675634485,2026-01-17 12h11.25.244376 +0530,
,Scenes\031a.jpg,162,0,163,,,,,,,f,2.3512192999987747,0.1441216999955941,None,,,,,,163,0,162,807.3039522000036,,,,,,,,,,,,,,,,,,,,,,,,,,,,,,807.2932000000001,807.3039522000036,807.7883879000001,,,,,,,,,,,,,,807.8739437999975,,,,,,,,,,807.8704784000001,807.8739437999975,807.8739437999975,807.8739437999975,810.8041453000042,f,2.3512192999987747,0.1441216999955941,810.8042481000011,810.8042853000006,None,,,,,,,,,,,,,,00041,001,2026-01-17_12h11.08.959,MST_task,2024.2.0,59.750041675634485,2026-01-17 12h11.25.244376 +0530,
,Scenes\185a.jpg,163,0,164,,,,,,,j,0.9895476999954553,0.11209270000108518,None,,,,,,164,0,163,810.8210642999984,,,,,,,,,,,,,,,,,,,,,,,,,,,,,,810.8045521000022,810.8210642999984,811.3050766000015,,,,,,,,,,,,,,811.4038213000022,,,,,,,,,,811.4004430999994,811.4038213000022,811.4038213000022,811.4038213000022,814.3050766000015,j,0.9895476999954553,0.11209270000108518,814.305249099998,814.3053244000039,None,,,,,,,,,,,,,,00041,001,2026-01-17_12h11.08.959,MST_task,2024.2.0,59.750041675634485,2026-01-17 12h11.25.244376 +0530,
,Scenes\192a.jpg,164,0,165,,,,,,,None,,,j,0.07710240000596968,None,,,,165,0,164,814.3211503999992,,,,,,,,,,,,,,,,,,,,,,,,,,,,,,814.3056436999977,814.3211503999992,814.805113800001,,,,,,,,,,,,,,814.9008871000042,,,,,,,,,,814.8978107000003,814.9008871000042,814.9008871000042,814.9008871000042,817.8210720999996,None,,,817.8212172999993,817.9224319999994,j,817.837322899999,817.837322899999,0.07710240000596968,None,,,,,,,,,,00041,001,2026-01-17_12h11.08.959,MST_task,2024.2.0,59.750041675634485,2026-01-17 12h11.25.244376 +0530,
,Scenes\033a.jpg,165,0,166,,,,,,,j,0.98802440000145,0.09720869999728166,None,,,,,,166,0,165,817.9375596000027,,,,,,,,,,,,,,,,,,,,,,,,,,,,,,817.9227527999974,817.9375596000027,818.4217968000012,,,,,,,,,,,,,,818.4687520000007,,,,,,,,,,818.4653513000012,818.4687520000007,818.4687520000007,818.4687520000007,821.4377786000041,j,0.98802440000145,0.09720869999728166,821.437909500004,821.4379577,None,,,,,,,,,,,,,,00041,001,2026-01-17_12h11.08.959,MST_task,2024.2.0,59.750041675634485,2026-01-17 12h11.25.244376 +0530,
,Scenes\146a.jpg,166,0,167,,,,,,,j,0.7930521999951452,0.11148040000261972,None,,,,,,167,0,166,821.4538917000027,,,,,,,,,,,,,,,,,,,,,,,,,,,,,,821.4381933999975,821.4538917000027,821.9384843000007,,,,,,,,,,,,,,822.000022799999,,,,,,,,,,821.9967078000045,822.000022799999,822.000022799999,822.000022799999,824.9551395000017,j,0.7930521999951452,0.11148040000261972,824.9553499000031,824.9554150999975,None,,,,,,,,,,,,,,00041,001,2026-01-17_12h11.08.959,MST_task,2024.2.0,59.750041675634485,2026-01-17 12h11.25.244376 +0530,
,Scenes\086a.jpg,167,0,168,,,,,,,j,1.1999314000058803,0.1442691999982344,None,,,,,,168,0,167,824.9707842999997,,,,,,,,,,,,,,,,,,,,,,,,,,,,,,824.9557628000039,824.9707842999997,825.4557000999994,,,,,,,,,,,,,,825.5533792999995,,,,,,,,,,825.5495408999996,825.5533792999995,825.5533792999995,825.5533792999995,828.4712970000037,j,1.1999314000058803,0.1442691999982344,828.4714690000037,828.4715304999991,None,,,,,,,,,,,,,,00041,001,2026-01-17_12h11.08.959,MST_task,2024.2.0,59.750041675634485,2026-01-17 12h11.25.244376 +0530,
,Objects\100a.jpg,168,0,169,,,,,,,f,1.4990967999983695,0.10407390000182204,None,,,,,,169,0,168,828.4873654000039,,,,,,,,,,,,,,,,,,,,,,,,,,,,,,828.4717941999988,828.4873654000039,828.9721907999992,,,,,,,,,,,,,,829.0385280999981,,,,,,,,,,829.0348453999977,829.0385280999981,829.0385280999981,829.0385280999981,831.9878169000003,f,1.4990967999983695,0.10407390000182204,831.9922204000031,831.992259300001,None,,,,,,,,,,,,,,00041,001,2026-01-17_12h11.08.959,MST_task,2024.2.0,59.750041675634485,2026-01-17 12h11.25.244376 +0530,
,Objects\183a.jpg,169,0,170,,,,,,,j,1.96148600000015,0.11193959999945946,None,,,,,,170,0,169,832.0041442000002,,,,,,,,,,,,,,,,,,,,,,,,,,,,,,831.992433899999,832.0041442000002,832.4883840999973,,,,,,,,,,,,,,832.5280218999978,,,,,,,,,,832.5239137000026,832.5280218999978,832.5280218999978,832.5280218999978,835.5046004000033,j,1.96148600000015,0.11193959999945946,835.5047706000041,835.5048330999998,None,,,,,,,,,,,,,,00041,001,2026-01-17_12h11.08.959,MST_task,2024.2.0,59.750041675634485,2026-01-17 12h11.25.244376 +0530,
,Objects\051a.jpg,170,0,171,,,,,,,j,2.630342099997506,0.11997719999635592,None,,,,,,171,0,170,835.5207071000041,,,,,,,,,,,,,,,,,,,,,,,,,,,,,,835.5052598000038,835.5207071000041,836.0050784999985,,,,,,,,,,,,,,836.0515400000004,,,,,,,,,,836.048441400002,836.0515400000004,836.0515400000004,836.0515400000004,839.0211051000006,j,2.630342099997506,0.11997719999635592,839.0212248000025,839.0212675000002,None,,,,,,,,,,,,,,00041,001,2026-01-17_12h11.08.959,MST_task,2024.2.0,59.750041675634485,2026-01-17 12h11.25.244376 +0530,
,Objects\175a.jpg,171,0,172,,,,,,,f,1.1422930999979144,0.11108819999935804,None,,,,,,172,0,171,839.0372863000011,,,,,,,,,,,,,,,,,,,,,,,,,,,,,,839.0214865000016,839.0372863000011,839.522048400002,,,,,,,,,,,,,,839.5877229000034,,,,,,,,,,839.584769699999,839.5877229000034,839.5877229000034,839.5877229000034,842.5378379000031,f,1.1422930999979144,0.11108819999935804,842.5380025999984,842.5380641000011,None,,,,,,,,,,,,,,00041,001,2026-01-17_12h11.08.959,MST_task,2024.2.0,59.750041675634485,2026-01-17 12h11.25.244376 +0530,
,Objects\034a.jpg,172,0,173,,,,,,,None,,,f,0.45154570000158856,None,,,,173,0,172,842.5542714999974,,,,,,,,,,,,,,,,,,,,,,,,,,,,,,842.5383965000001,842.5542714999974,843.0385737000033,,,,,,,,,,,,,,843.1135129000031,,,,,,,,,,843.1104014000011,843.1135129000031,843.1135129000031,843.1135129000031,846.0385066000017,None,,,846.0386588000038,846.5225210999997,f,846.0540419000026,846.0540419000026,0.45154570000158856,None,,,,,,,,,,00041,001,2026-01-17_12h11.08.959,MST_task,2024.2.0,59.750041675634485,2026-01-17 12h11.25.244376 +0530,
,Objects\123a.jpg,173,0,174,,,,,,,f,1.5459207999956561,0.09614010000223061,None,,,,,,174,0,173,846.5376652999985,,,,,,,,,,,,,,,,,,,,,,,,,,,,,,846.5228763999985,846.5376652999985,847.0217204,,,,,,,,,,,,,,847.0556170999989,,,,,,,,,,847.0526272999996,847.0556170999989,847.0556170999989,847.0556170999989,850.0378118000008,f,1.5459207999956561,0.09614010000223061,850.0379787999991,850.0380357000031,None,,,,,,,,,,,,,,00041,001,2026-01-17_12h11.08.959,MST_task,2024.2.0,59.750041675634485,2026-01-17 12h11.25.244376 +0530,
