thisN,thisTrialN,thisRepN,key_resp_3.keys,key_resp_3.rt,key_resp_3.duration,trials.thisRepN,trials.thisTrialN,trials.thisN,thisRow.t,notes,intro_page.started,text.started,key_resp.started,intro_page.stopped,key_resp.keys,key_resp.rt,key_resp.duration,instructions.started,text_2.started,key_resp_2.started,instructions.stopped,key_resp_2.keys,key_resp_2.rt,key_resp_2.duration,demo1.started,image_1.started,image_2.started,text_7.started,key_resp_6.started,text_9.started,demo1.stopped,key_resp_6.keys,key_resp_6.rt,key_resp_6.duration,demo2.started,image_5.started,image_6.started,text_11.started,text_12.started,key_resp_8.started,demo2.stopped,key_resp_8.keys,key_resp_8.rt,key_resp_8.duration,demo_conclusion.started,text_13.started,key_resp_9.started,demo_conclusion.stopped,key_resp_9.keys,key_resp_9.rt,key_resp_9.duration,start_test.started,text_6.started,key_resp_5.started,start_test.stopped,key_resp_5.keys,key_resp_5.rt,key_resp_5.duration,ISI.started,text_4.started,text_4.stopped,ISI.stopped,routine_1.started,image.started,text_3.started,key_resp_3.started,routine_1.stopped,image_path,position_of_stimuli,trials.key_resp_3.keys,trials.key_resp_3.rt,trials.key_resp_3.duration,End_page.started,text_5.started,key_resp_4.started,End_page.stopped,key_resp_4.keys,key_resp_4.rt,key_resp_4.duration,participant,session,date,expName,psychopyVersion,frameRate,expStart,
,,,,,,,,,,,0.001271100016310811,0.0027559000009205192,0.0027559000009205192,2.889781600009883,space,2.8450885000056587,None,,,,,,,,,,,,,,,,,,,,,,,,,,,,,,,,,,,,,,,,,,,,,,,,,,,,,,,,,,,,,,,00045,001,2026-01-17_18h03.54.425,MST_test,2024.2.0,60.009421474065036,2026-01-17 18h04.03.495305 +0530,
,,,,,,,,,,,,,,,,,,2.8898230000049807,2.9009016000200063,2.9009016000200063,19.24935580001329,space,16.345756700000493,None,,,,,,,,,,,,,,,,,,,,,,,,,,,,,,,,,,,,,,,,,,,,,,,,,,,,,,,,00045,001,2026-01-17_18h03.54.425,MST_test,2024.2.0,60.009421474065036,2026-01-17 18h04.03.495305 +0530,
,,,,,,,,,,,,,,,,,,,,,,,,,19.249383400019724,19.266112900018925,19.266112900018925,19.266112900018925,19.266112900018925,19.266112900018925,24.949794800020754,space,5.67637649999233,None,,,,,,,,,,,,,,,,,,,,,,,,,,,,,,,,,,,,,,,,,,,,,,00045,001,2026-01-17_18h03.54.425,MST_test,2024.2.0,60.009421474065036,2026-01-17 18h04.03.495305 +0530,
,,,,,,,,,,,,,,,,,,,,,,,,,,,,,,,,,,,24.949822400027188,24.966091000009328,24.966091000009328,24.966091000009328,24.966091000009328,24.966091000009328,27.949549000011757,space,2.9698887999984436,None,,,,,,,,,,,,,,,,,,,,,,,,,,,,,,,,,,,,00045,001,2026-01-17_18h03.54.425,MST_test,2024.2.0,60.009421474065036,2026-01-17 18h04.03.495305 +0530,
,,,,,,,,,,,,,,,,,,,,,,,,,,,,,,,,,,,,,,,,,,,,,27.94957720002276,27.965708500007167,27.965708500007167,44.86606060000486,space,16.897766299982322,None,,,,,,,,,,,,,,,,,,,,,,,,,,,,,00045,001,2026-01-17_18h03.54.425,MST_test,2024.2.0,60.009421474065036,2026-01-17 18h04.03.495305 +0530,
,,,,,,,,,,,,,,,,,,,,,,,,,,,,,,,,,,,,,,,,,,,,,,,,,,,,44.86608890001662,44.88256320002256,44.88256320002256,112.0663941000239,space,67.17219010001281,None,,,,,,,,,,,,,,,,,,,,,,00045,001,2026-01-17_18h03.54.425,MST_test,2024.2.0,60.009421474065036,2026-01-17 18h04.03.495305 +0530,
0,0,1,n,4.5951000999775715,None,1,0,0,112.08224139999948,,,,,,,,,,,,,,,,,,,,,,,,,,,,,,,,,,,,,,,,,,,,,,,,,,112.07037380000111,112.08224139999948,112.58753330001491,112.5658438000246,112.58518730002106,112.58753330001491,112.58753330001491,112.58753330001491,117.19922390001011,Objects\141a.jpg,mid,n,4.5951000999775715,None,,,,,,,,00045,001,2026-01-17_18h03.54.425,MST_test,2024.2.0,60.009421474065036,2026-01-17 18h04.03.495305 +0530,
1,0,2,n,2.2338174000033177,None,2,0,1,117.21558270000969,,,,,,,,,,,,,,,,,,,,,,,,,,,,,,,,,,,,,,,,,,,,,,,,,,117.19931720002205,117.21558270000969,117.71695000000182,117.69913780002389,117.71473180002067,117.71695000000182,117.71695000000182,117.71695000000182,119.9661304000183,Scenes\186b.jpg,mid,n,2.2338174000033177,None,,,,,,,,00045,001,2026-01-17_18h03.54.425,MST_test,2024.2.0,60.009421474065036,2026-01-17 18h04.03.495305 +0530,
2,0,3,o,4.6522468000184745,None,3,0,2,119.98222880001413,,,,,,,,,,,,,,,,,,,,,,,,,,,,,,,,,,,,,,,,,,,,,,,,,,119.96622060000664,119.98222880001413,120.48255450002034,120.46583290002309,120.47682470001746,120.48255450002034,120.48255450002034,120.48255450002034,125.15045900002588,Objects\124a.jpg,mid,o,4.6522468000184745,None,,,,,,,,00045,001,2026-01-17_18h03.54.425,MST_test,2024.2.0,60.009421474065036,2026-01-17 18h04.03.495305 +0530,
3,0,4,n,3.163509799982421,None,4,0,3,125.16612490001717,,,,,,,,,,,,,,,,,,,,,,,,,,,,,,,,,,,,,,,,,,,,,,,,,,125.15060230001109,125.16612490001717,125.66758090001531,125.64910040001268,125.66549460001988,125.66758090001531,125.66758090001531,125.66758090001531,128.83274420001544,Scenes\110b.jpg,post,n,3.163509799982421,None,,,,,,,,00045,001,2026-01-17_18h03.54.425,MST_test,2024.2.0,60.009421474065036,2026-01-17 18h04.03.495305 +0530,
4,0,5,n,3.1135654999816325,None,5,0,4,128.8487998000055,,,,,,,,,,,,,,,,,,,,,,,,,,,,,,,,,,,,,,,,,,,,,,,,,,128.83283580001444,128.8487998000055,129.34931900000083,129.33273660001578,129.34275720000733,129.34931900000083,129.34931900000083,129.34931900000083,132.46627620002255,Foils\113a.jpg,none,n,3.1135654999816325,None,,,,,,,,00045,001,2026-01-17_18h03.54.425,MST_test,2024.2.0,60.009421474065036,2026-01-17 18h04.03.495305 +0530,
5,0,6,n,3.1374196000106167,None,6,0,5,132.48233190001338,,,,,,,,,,,,,,,,,,,,,,,,,,,,,,,,,,,,,,,,,,,,,,,,,,132.4663656000048,132.48233190001338,132.98265790002188,132.96589530000347,132.9750580000109,132.98265790002188,132.98265790002188,132.98265790002188,136.1331809000112,Foils\018a.jpg,none,n,3.1374196000106167,None,,,,,,,,00045,001,2026-01-17_18h03.54.425,MST_test,2024.2.0,60.009421474065036,2026-01-17 18h04.03.495305 +0530,
6,0,7,o,6.453362400003243,None,7,0,6,136.14894550002646,,,,,,,,,,,,,,,,,,,,,,,,,,,,,,,,,,,,,,,,,,,,,,,,,,136.1332741000224,136.14894550002646,136.64927150000585,136.63254400002188,136.6426291000098,136.64927150000585,136.64927150000585,136.64927150000585,143.11625810002442,Objects\189b.jpg,mid,o,6.453362400003243,None,,,,,,,,00045,001,2026-01-17_18h03.54.425,MST_test,2024.2.0,60.009421474065036,2026-01-17 18h04.03.495305 +0530,
7,0,8,s,2.5952393999905325,None,8,0,7,143.13238410002668,,,,,,,,,,,,,,,,,,,,,,,,,,,,,,,,,,,,,,,,,,,,,,,,,,143.11634800001048,143.13238410002668,143.63621920000878,143.61587850001524,143.63389650001773,143.63621920000878,143.63621920000878,143.63621920000878,146.23318080001627,Scenes\145b.jpg,post,s,2.5952393999905325,None,,,,,,,,00045,001,2026-01-17_18h03.54.425,MST_test,2024.2.0,60.009421474065036,2026-01-17 18h04.03.495305 +0530,
8,0,9,n,2.683749000017997,None,9,0,8,146.2490422000119,,,,,,,,,,,,,,,,,,,,,,,,,,,,,,,,,,,,,,,,,,,,,,,,,,146.23328000001493,146.2490422000119,146.75473930002772,146.7326102000079,146.75273080001352,146.75473930002772,146.75473930002772,146.75473930002772,149.44980080000823,Scenes\189b.jpg,post,n,2.683749000017997,None,,,,,,,,00045,001,2026-01-17_18h03.54.425,MST_test,2024.2.0,60.009421474065036,2026-01-17 18h04.03.495305 +0530,
9,0,10,n,2.4405558000144083,None,10,0,9,149.4656047000026,,,,,,,,,,,,,,,,,,,,,,,,,,,,,,,,,,,,,,,,,,,,,,,,,,149.44990270002745,149.4656047000026,149.96622850000858,149.94925100001274,149.9582990000199,149.96622850000858,149.96622850000858,149.96622850000858,152.41628580001998,Foils\scenes2.jpg,none,n,2.4405558000144083,None,,,,,,,,00045,001,2026-01-17_18h03.54.425,MST_test,2024.2.0,60.009421474065036,2026-01-17 18h04.03.495305 +0530,
10,0,11,o,2.9329641000076663,None,11,0,10,152.43239520001225,,,,,,,,,,,,,,,,,,,,,,,,,,,,,,,,,,,,,,,,,,,,,,,,,,152.41638880001847,152.43239520001225,152.93767240000307,152.9159856000042,152.93554780000704,152.93767240000307,152.93767240000307,152.93767240000307,155.88300480000908,Scenes\017b.jpg,pre,o,2.9329641000076663,None,,,,,,,,00045,001,2026-01-17_18h03.54.425,MST_test,2024.2.0,60.009421474065036,2026-01-17 18h04.03.495305 +0530,
11,0,12,o,1.4897294999973383,None,12,0,11,155.8989405000175,,,,,,,,,,,,,,,,,,,,,,,,,,,,,,,,,,,,,,,,,,,,,,,,,,155.88309540000046,155.8989405000175,156.40495720002218,156.38270450002165,156.4027290000231,156.40495720002218,156.40495720002218,156.40495720002218,157.89952980002272,Scenes\114a.jpg,post,o,1.4897294999973383,None,,,,,,,,00045,001,2026-01-17_18h03.54.425,MST_test,2024.2.0,60.009421474065036,2026-01-17 18h04.03.495305 +0530,
12,0,13,o,3.2549988999962807,None,13,0,12,157.9156594000233,,,,,,,,,,,,,,,,,,,,,,,,,,,,,,,,,,,,,,,,,,,,,,,,,,157.89962910002214,157.9156594000233,158.41626280001947,158.39933330001077,158.40888370000175,158.41626280001947,158.41626280001947,158.41626280001947,161.68282470002305,Objects\169a.jpg,mid,o,3.2549988999962807,None,,,,,,,,00045,001,2026-01-17_18h03.54.425,MST_test,2024.2.0,60.009421474065036,2026-01-17 18h04.03.495305 +0530,
13,0,14,o,3.719980800000485,None,14,0,13,161.69902480000746,,,,,,,,,,,,,,,,,,,,,,,,,,,,,,,,,,,,,,,,,,,,,,,,,,161.68291470000986,161.69902480000746,162.19908880000003,162.18287350001629,162.19176830002107,162.19908880000003,162.19908880000003,162.19908880000003,165.93307880000793,Objects\171a.jpg,pre,o,3.719980800000485,None,,,,,,,,00045,001,2026-01-17_18h03.54.425,MST_test,2024.2.0,60.009421474065036,2026-01-17 18h04.03.495305 +0530,
14,0,15,s,2.4218815000203904,None,15,0,14,165.94896780001,,,,,,,,,,,,,,,,,,,,,,,,,,,,,,,,,,,,,,,,,,,,,,,,,,165.93318120000185,165.94896780001,166.4494286000263,166.4325935000088,166.44235920000938,166.4494286000263,166.4494286000263,166.4494286000263,168.8830353000085,Objects\153b.jpg,pre,s,2.4218815000203904,None,,,,,,,,00045,001,2026-01-17_18h03.54.425,MST_test,2024.2.0,60.009421474065036,2026-01-17 18h04.03.495305 +0530,
15,0,16,o,1.3602102999866474,None,16,0,15,168.89905470001395,,,,,,,,,,,,,,,,,,,,,,,,,,,,,,,,,,,,,,,,,,,,,,,,,,168.8831284000189,168.89905470001395,169.39916340002674,169.38258240002324,169.3915549000085,169.39916340002674,169.39916340002674,169.39916340002674,170.76628800001345,Objects\057a.jpg,mid,o,1.3602102999866474,None,,,,,,,,00045,001,2026-01-17_18h03.54.425,MST_test,2024.2.0,60.009421474065036,2026-01-17 18h04.03.495305 +0530,
16,0,17,o,1.3375290000112727,None,17,0,16,170.7822497000161,,,,,,,,,,,,,,,,,,,,,,,,,,,,,,,,,,,,,,,,,,,,,,,,,,170.76638730001287,170.7822497000161,171.28579690001789,171.26593010002398,171.28355960000772,171.28579690001789,171.28579690001789,171.28579690001789,172.63288050002302,Scenes\134a.jpg,pre,o,1.3375290000112727,None,,,,,,,,00045,001,2026-01-17_18h03.54.425,MST_test,2024.2.0,60.009421474065036,2026-01-17 18h04.03.495305 +0530,
17,0,18,n,2.157081000012113,None,18,0,17,172.64904090002528,,,,,,,,,,,,,,,,,,,,,,,,,,,,,,,,,,,,,,,,,,,,,,,,,,172.63297170001897,172.64904090002528,173.1534056000237,173.1325551000191,173.15126160002546,173.1534056000237,173.1534056000237,173.1534056000237,175.316350100009,Scenes\174b.jpg,mid,n,2.157081000012113,None,,,,,,,,00045,001,2026-01-17_18h03.54.425,MST_test,2024.2.0,60.009421474065036,2026-01-17 18h04.03.495305 +0530,
18,0,19,o,6.3398432999965735,None,19,0,18,175.33229770002072,,,,,,,,,,,,,,,,,,,,,,,,,,,,,,,,,,,,,,,,,,,,,,,,,,175.31644370002323,175.33229770002072,175.83472520002397,175.81590530002723,175.8327135000145,175.83472520002397,175.83472520002397,175.83472520002397,182.18299750000006,Scenes\011b.jpg,mid,o,6.3398432999965735,None,,,,,,,,00045,001,2026-01-17_18h03.54.425,MST_test,2024.2.0,60.009421474065036,2026-01-17 18h04.03.495305 +0530,
19,0,20,n,1.3070186999975704,None,20,0,19,182.19913410002482,,,,,,,,,,,,,,,,,,,,,,,,,,,,,,,,,,,,,,,,,,,,,,,,,,182.18309040000895,182.19913410002482,182.69954830000643,182.6826010000077,182.69236000001547,182.69954830000643,182.69954830000643,182.69954830000643,184.01622440002393,Foils\058a.jpg,none,n,1.3070186999975704,None,,,,,,,,00045,001,2026-01-17_18h03.54.425,MST_test,2024.2.0,60.009421474065036,2026-01-17 18h04.03.495305 +0530,
20,0,21,o,1.242860300000757,None,21,0,20,184.0323985000141,,,,,,,,,,,,,,,,,,,,,,,,,,,,,,,,,,,,,,,,,,,,,,,,,,184.01631300000008,184.0323985000141,184.53261880000355,184.5159918999998,184.52484900000854,184.53261880000355,184.53261880000355,184.53261880000355,185.78304860001663,Objects\109a.jpg,post,o,1.242860300000757,None,,,,,,,,00045,001,2026-01-17_18h03.54.425,MST_test,2024.2.0,60.009421474065036,2026-01-17 18h04.03.495305 +0530,
21,0,22,n,1.228226800012635,None,22,0,21,185.7990615000017,,,,,,,,,,,,,,,,,,,,,,,,,,,,,,,,,,,,,,,,,,,,,,,,,,185.7831527000235,185.7990615000017,186.29912960002548,186.28263620001962,186.29143410001416,186.29912960002548,186.29912960002548,186.29912960002548,187.53291010000976,Foils\057a.jpg,none,n,1.228226800012635,None,,,,,,,,00045,001,2026-01-17_18h03.54.425,MST_test,2024.2.0,60.009421474065036,2026-01-17 18h04.03.495305 +0530,
22,0,23,o,1.342415200022515,None,23,0,22,187.54905600001803,,,,,,,,,,,,,,,,,,,,,,,,,,,,,,,,,,,,,,,,,,,,,,,,,,187.53300190001028,187.54905600001803,188.049199400004,188.03261730002123,188.0422029000183,188.049199400004,188.049199400004,188.049199400004,189.39931730000535,Objects\085b.jpg,post,o,1.342415200022515,None,,,,,,,,00045,001,2026-01-17_18h03.54.425,MST_test,2024.2.0,60.009421474065036,2026-01-17 18h04.03.495305 +0530,
23,0,24,o,1.3633646999951452,None,24,0,23,189.41563110001152,,,,,,,,,,,,,,,,,,,,,,,,,,,,,,,,,,,,,,,,,,,,,,,,,,189.39940890000435,189.41563110001152,189.915805800003,189.8992098000017,189.9089648000081,189.915805800003,189.915805800003,189.915805800003,191.2828236000205,Objects\073b.jpg,post,o,1.3633646999951452,None,,,,,,,,00045,001,2026-01-17_18h03.54.425,MST_test,2024.2.0,60.009421474065036,2026-01-17 18h04.03.495305 +0530,
24,0,25,o,1.2559807999932673,None,25,0,24,191.29888280000887,,,,,,,,,,,,,,,,,,,,,,,,,,,,,,,,,,,,,,,,,,,,,,,,,,191.28292070000316,191.29888280000887,191.79933200002415,191.78263250002055,191.79674270001124,191.79933200002415,191.79933200002415,191.79933200002415,193.06616180000128,Scenes\160a.jpg,post,o,1.2559807999932673,None,,,,,,,,00045,001,2026-01-17_18h03.54.425,MST_test,2024.2.0,60.009421474065036,2026-01-17 18h04.03.495305 +0530,
25,0,26,s,5.1608307999849785,None,26,0,25,193.0823178999999,,,,,,,,,,,,,,,,,,,,,,,,,,,,,,,,,,,,,,,,,,,,,,,,,,193.0662629000144,193.0823178999999,193.58269400001154,193.56582530000014,193.57565690000774,193.58269400001154,193.58269400001154,193.58269400001154,198.7494414000248,Objects\069b.jpg,post,s,5.1608307999849785,None,,,,,,,,00045,001,2026-01-17_18h03.54.425,MST_test,2024.2.0,60.009421474065036,2026-01-17 18h04.03.495305 +0530,
26,0,27,o,1.0616683999833185,None,27,0,26,198.76557900002808,,,,,,,,,,,,,,,,,,,,,,,,,,,,,,,,,,,,,,,,,,,,,,,,,,198.74953340002685,198.76557900002808,199.26577060000272,199.24911220002105,199.2581851000141,199.26577060000272,199.26577060000272,199.26577060000272,200.33295120002003,Objects\149a.jpg,pre,o,1.0616683999833185,None,,,,,,,,00045,001,2026-01-17_18h03.54.425,MST_test,2024.2.0,60.009421474065036,2026-01-17 18h04.03.495305 +0530,
27,0,28,n,1.1717339000024367,None,28,0,27,200.3488875000039,,,,,,,,,,,,,,,,,,,,,,,,,,,,,,,,,,,,,,,,,,,,,,,,,,200.3330416000099,200.3488875000039,200.85086380000575,200.832523900026,200.84885660000145,200.85086380000575,200.85086380000575,200.85086380000575,202.0328422000166,Scenes\084b.jpg,pre,n,1.1717339000024367,None,,,,,,,,00045,001,2026-01-17_18h03.54.425,MST_test,2024.2.0,60.009421474065036,2026-01-17 18h04.03.495305 +0530,
28,0,29,o,1.2334668000112288,None,29,0,28,202.04880550000235,,,,,,,,,,,,,,,,,,,,,,,,,,,,,,,,,,,,,,,,,,,,,,,,,,202.03293210000265,202.04880550000235,202.54930120002246,202.53257280000253,202.54182690000744,202.54930120002246,202.54930120002246,202.54930120002246,203.79945150000276,Objects\158a.jpg,pre,o,1.2334668000112288,None,,,,,,,,00045,001,2026-01-17_18h03.54.425,MST_test,2024.2.0,60.009421474065036,2026-01-17 18h04.03.495305 +0530,
29,0,30,s,1.8475424999778625,None,30,0,29,203.815643000009,,,,,,,,,,,,,,,,,,,,,,,,,,,,,,,,,,,,,,,,,,,,,,,,,,203.7995826000115,203.815643000009,204.3201433000213,204.2990915000264,204.31798479999998,204.3201433000213,204.3201433000213,204.3201433000213,206.1828810000152,Scenes\102b.jpg,mid,s,1.8475424999778625,None,,,,,,,,00045,001,2026-01-17_18h03.54.425,MST_test,2024.2.0,60.009421474065036,2026-01-17 18h04.03.495305 +0530,
30,0,31,n,2.0426660000230186,None,31,0,30,206.19901390001178,,,,,,,,,,,,,,,,,,,,,,,,,,,,,,,,,,,,,,,,,,,,,,,,,,206.18297790002543,206.19901390001178,206.7001447000075,206.6828921000124,206.69790510000894,206.7001447000075,206.7001447000075,206.7001447000075,208.74936190000153,Scenes\037b.jpg,post,n,2.0426660000230186,None,,,,,,,,00045,001,2026-01-17_18h03.54.425,MST_test,2024.2.0,60.009421474065036,2026-01-17 18h04.03.495305 +0530,
31,0,32,n,2.3731951999943703,None,32,0,31,208.76564370002598,,,,,,,,,,,,,,,,,,,,,,,,,,,,,,,,,,,,,,,,,,,,,,,,,,208.7494523000205,208.76564370002598,209.26611850000336,209.24905430001672,209.2586567000253,209.26611850000336,209.26611850000336,209.26611850000336,211.6495658000058,Objects\121a.jpg,mid,n,2.3731951999943703,None,,,,,,,,00045,001,2026-01-17_18h03.54.425,MST_test,2024.2.0,60.009421474065036,2026-01-17 18h04.03.495305 +0530,
32,0,33,n,2.9054192999901716,None,33,0,32,211.66554200000246,,,,,,,,,,,,,,,,,,,,,,,,,,,,,,,,,,,,,,,,,,,,,,,,,,211.6496571000025,211.66554200000246,212.1659520000103,212.1490515000187,212.15694190000067,212.1659520000103,212.1659520000103,212.1659520000103,215.08285130001605,Foils\scenes1.jpg,none,n,2.9054192999901716,None,,,,,,,,00045,001,2026-01-17_18h03.54.425,MST_test,2024.2.0,60.009421474065036,2026-01-17 18h04.03.495305 +0530,
33,0,34,n,2.620098199986387,None,34,0,33,215.0987794000248,,,,,,,,,,,,,,,,,,,,,,,,,,,,,,,,,,,,,,,,,,,,,,,,,,215.08294420002494,215.0987794000248,215.60303480000584,215.58258430002024,215.60076370000024,215.60303480000584,215.60303480000584,215.60303480000584,218.2327999000263,Scenes\023b.jpg,pre,n,2.620098199986387,None,,,,,,,,00045,001,2026-01-17_18h03.54.425,MST_test,2024.2.0,60.009421474065036,2026-01-17 18h04.03.495305 +0530,
34,0,35,s,1.6815931999881286,None,35,0,34,218.2498155000212,,,,,,,,,,,,,,,,,,,,,,,,,,,,,,,,,,,,,,,,,,,,,,,,,,218.23289310000837,218.2498155000212,218.74957010001526,218.7324646000052,218.742469800025,218.74957010001526,218.74957010001526,218.74957010001526,220.43272190002608,Objects\066b.jpg,mid,s,1.6815931999881286,None,,,,,,,,00045,001,2026-01-17_18h03.54.425,MST_test,2024.2.0,60.009421474065036,2026-01-17 18h04.03.495305 +0530,
35,0,36,n,1.2497310000180732,None,36,0,35,220.4488855000236,,,,,,,,,,,,,,,,,,,,,,,,,,,,,,,,,,,,,,,,,,,,,,,,,,220.4328155000112,220.4488855000236,220.94921240000986,220.9325643000193,220.94467430000077,220.94921240000986,220.94921240000986,220.94921240000986,222.19956550002098,Scenes\118a.jpg,post,n,1.2497310000180732,None,,,,,,,,00045,001,2026-01-17_18h03.54.425,MST_test,2024.2.0,60.009421474065036,2026-01-17 18h04.03.495305 +0530,
36,0,37,s,2.0984479000035208,None,37,0,36,222.21562730000005,,,,,,,,,,,,,,,,,,,,,,,,,,,,,,,,,,,,,,,,,,,,,,,,,,222.19965700001922,222.21562730000005,222.71610290001263,222.69919740001205,222.7086092000245,222.71610290001263,222.71610290001263,222.71610290001263,224.81621590000577,Objects\159b.jpg,pre,s,2.0984479000035208,None,,,,,,,,00045,001,2026-01-17_18h03.54.425,MST_test,2024.2.0,60.009421474065036,2026-01-17 18h04.03.495305 +0530,
37,0,38,n,2.0502677999902517,None,38,0,37,224.83238890001667,,,,,,,,,,,,,,,,,,,,,,,,,,,,,,,,,,,,,,,,,,,,,,,,,,224.81630930001847,224.83238890001667,225.33263010001974,225.31585780001478,225.32458360001328,225.33263010001974,225.33263010001974,225.33263010001974,227.39971570001217,Foils\scenes6.jpg,none,n,2.0502677999902517,None,,,,,,,,00045,001,2026-01-17_18h03.54.425,MST_test,2024.2.0,60.009421474065036,2026-01-17 18h04.03.495305 +0530,
38,0,39,n,1.0348142000148073,None,39,0,38,227.4157349000161,,,,,,,,,,,,,,,,,,,,,,,,,,,,,,,,,,,,,,,,,,,,,,,,,,227.39981040000566,227.4157349000161,227.9159297000151,227.8991599000001,227.90956490000826,227.9159297000151,227.9159297000151,227.9159297000151,228.96626020001713,Objects\113a.jpg,pre,n,1.0348142000148073,None,,,,,,,,00045,001,2026-01-17_18h03.54.425,MST_test,2024.2.0,60.009421474065036,2026-01-17 18h04.03.495305 +0530,
39,0,40,n,0.8930273999867495,None,40,0,39,228.98231290001422,,,,,,,,,,,,,,,,,,,,,,,,,,,,,,,,,,,,,,,,,,,,,,,,,,228.96635170001537,228.98231290001422,229.48267810000107,229.46592570000212,229.47490260002087,229.48267810000107,229.48267810000107,229.48267810000107,230.38301570000476,Foils\scenes8.jpg,none,n,0.8930273999867495,None,,,,,,,,00045,001,2026-01-17_18h03.54.425,MST_test,2024.2.0,60.009421474065036,2026-01-17 18h04.03.495305 +0530,
40,0,41,o,2.1719275999930687,None,41,0,40,230.39886970000225,,,,,,,,,,,,,,,,,,,,,,,,,,,,,,,,,,,,,,,,,,,,,,,,,,230.38311040002736,230.39886970000225,230.8992595000018,230.88248280002153,230.8919098000042,230.8992595000018,230.8992595000018,230.8992595000018,233.08308190002572,Objects\002b.jpg,mid,o,2.1719275999930687,None,,,,,,,,00045,001,2026-01-17_18h03.54.425,MST_test,2024.2.0,60.009421474065036,2026-01-17 18h04.03.495305 +0530,
41,0,42,o,1.3198365999851376,None,42,0,41,233.09893200002261,,,,,,,,,,,,,,,,,,,,,,,,,,,,,,,,,,,,,,,,,,,,,,,,,,233.0831892999995,233.09893200002261,233.59897830002592,233.5825704000017,233.59147820001817,233.59897830002592,233.59897830002592,233.59897830002592,234.9330098000064,Objects\008a.jpg,pre,o,1.3198365999851376,None,,,,,,,,00045,001,2026-01-17_18h03.54.425,MST_test,2024.2.0,60.009421474065036,2026-01-17 18h04.03.495305 +0530,
42,0,43,n,0.9897837000025902,None,43,0,42,234.94878740000422,,,,,,,,,,,,,,,,,,,,,,,,,,,,,,,,,,,,,,,,,,,,,,,,,,234.93310030002613,234.94878740000422,235.4490586000029,235.43250200001057,235.44131410002592,235.4490586000029,235.4490586000029,235.4490586000029,236.44937770001707,Foils\066a.jpg,none,n,0.9897837000025902,None,,,,,,,,00045,001,2026-01-17_18h03.54.425,MST_test,2024.2.0,60.009421474065036,2026-01-17 18h04.03.495305 +0530,
43,0,44,o,1.1133694000018295,None,44,0,43,236.4656184000196,,,,,,,,,,,,,,,,,,,,,,,,,,,,,,,,,,,,,,,,,,,,,,,,,,236.44947120000143,236.4656184000196,236.9658595000219,236.94905560000916,236.95766650000587,236.9658595000219,236.9658595000219,236.9658595000219,238.08315520000178,Objects\105a.jpg,mid,o,1.1133694000018295,None,,,,,,,,00045,001,2026-01-17_18h03.54.425,MST_test,2024.2.0,60.009421474065036,2026-01-17 18h04.03.495305 +0530,
44,0,45,n,1.6083400000061374,None,45,0,44,238.09908490002272,,,,,,,,,,,,,,,,,,,,,,,,,,,,,,,,,,,,,,,,,,,,,,,,,,238.08326480002142,238.09908490002272,238.59912820000318,238.58269170002313,238.59206580001046,238.59912820000318,238.59912820000318,238.59912820000318,240.21750690002227,Foils\090a.jpg,none,n,1.6083400000061374,None,,,,,,,,00045,001,2026-01-17_18h03.54.425,MST_test,2024.2.0,60.009421474065036,2026-01-17 18h04.03.495305 +0530,
45,0,46,s,1.9023059000028297,None,46,0,45,240.23268050001934,,,,,,,,,,,,,,,,,,,,,,,,,,,,,,,,,,,,,,,,,,,,,,,,,,240.21762540002237,240.23268050001934,240.73669670001254,240.71582140002283,240.73424650001107,240.73669670001254,240.73669670001254,240.73669670001254,242.64959160002763,Scenes\062a.jpg,pre,s,1.9023059000028297,None,,,,,,,,00045,001,2026-01-17_18h03.54.425,MST_test,2024.2.0,60.009421474065036,2026-01-17 18h04.03.495305 +0530,
46,0,47,n,1.9139051999954972,None,47,0,46,242.6657127000217,,,,,,,,,,,,,,,,,,,,,,,,,,,,,,,,,,,,,,,,,,,,,,,,,,242.64968710002722,242.6657127000217,243.1660689000273,243.14937060000375,243.15799750000588,243.1660689000273,243.1660689000273,243.1660689000273,245.0830105000059,Foils\scenes16.jpg,none,n,1.9139051999954972,None,,,,,,,,00045,001,2026-01-17_18h03.54.425,MST_test,2024.2.0,60.009421474065036,2026-01-17 18h04.03.495305 +0530,
47,0,48,s,1.9194533999834675,None,48,0,47,245.09879650000948,,,,,,,,,,,,,,,,,,,,,,,,,,,,,,,,,,,,,,,,,,,,,,,,,,245.08310430002166,245.09879650000948,245.59922910001478,245.58260580000933,245.59365000002435,245.59922910001478,245.59922910001478,245.59922910001478,247.53281520001474,Objects\111b.jpg,pre,s,1.9194533999834675,None,,,,,,,,00045,001,2026-01-17_18h03.54.425,MST_test,2024.2.0,60.009421474065036,2026-01-17 18h04.03.495305 +0530,
48,0,49,n,0.9742920999997295,None,49,0,48,247.5489011000027,,,,,,,,,,,,,,,,,,,,,,,,,,,,,,,,,,,,,,,,,,,,,,,,,,247.53290680001373,247.5489011000027,248.04913540001144,248.03255960001843,248.0416306000261,248.04913540001144,248.04913540001144,248.04913540001144,249.03294250002364,Foils\009a.jpg,none,n,0.9742920999997295,None,,,,,,,,00045,001,2026-01-17_18h03.54.425,MST_test,2024.2.0,60.009421474065036,2026-01-17 18h04.03.495305 +0530,
49,0,50,n,0.9211240999866277,None,50,0,49,249.04890490000253,,,,,,,,,,,,,,,,,,,,,,,,,,,,,,,,,,,,,,,,,,,,,,,,,,249.0330368000141,249.04890490000253,249.5494206000003,249.53280610000365,249.5419716000033,249.5494206000003,249.5494206000003,249.5494206000003,250.48294570000144,Foils\scenes30.jpg,none,n,0.9211240999866277,None,,,,,,,,00045,001,2026-01-17_18h03.54.425,MST_test,2024.2.0,60.009421474065036,2026-01-17 18h04.03.495305 +0530,
50,0,51,o,1.438234899978852,None,51,0,50,250.49907240000903,,,,,,,,,,,,,,,,,,,,,,,,,,,,,,,,,,,,,,,,,,,,,,,,,,250.48303570001735,250.49907240000903,251.0006851000071,250.98257340001874,250.9985954000149,251.0006851000071,251.0006851000071,251.0006851000071,252.44956370000727,Scenes\146a.jpg,pre,o,1.438234899978852,None,,,,,,,,00045,001,2026-01-17_18h03.54.425,MST_test,2024.2.0,60.009421474065036,2026-01-17 18h04.03.495305 +0530,
51,0,52,n,0.8799039000004996,None,52,0,51,252.4657475000131,,,,,,,,,,,,,,,,,,,,,,,,,,,,,,,,,,,,,,,,,,,,,,,,,,252.44966030001524,252.4657475000131,252.96773510001367,252.94926640001358,252.96534900000552,252.96773510001367,252.96773510001367,252.96773510001367,253.84960169999977,Scenes\093a.jpg,post,n,0.8799039000004996,None,,,,,,,,00045,001,2026-01-17_18h03.54.425,MST_test,2024.2.0,60.009421474065036,2026-01-17 18h04.03.495305 +0530,
52,0,53,o,2.6537359000067227,None,53,0,52,253.86569720000261,,,,,,,,,,,,,,,,,,,,,,,,,,,,,,,,,,,,,,,,,,,,,,,,,,253.84970180000528,253.86569720000261,254.36946100002388,254.34924140002113,254.36721580001176,254.36946100002388,254.36946100002388,254.36946100002388,257.032890100003,Scenes\066b.jpg,post,o,2.6537359000067227,None,,,,,,,,00045,001,2026-01-17_18h03.54.425,MST_test,2024.2.0,60.009421474065036,2026-01-17 18h04.03.495305 +0530,
53,0,54,n,3.233348299982026,None,54,0,53,257.0490354000067,,,,,,,,,,,,,,,,,,,,,,,,,,,,,,,,,,,,,,,,,,,,,,,,,,257.0329861000064,257.0490354000067,257.5497549000138,257.53266850000364,257.54248640002334,257.5497549000138,257.5497549000138,257.5497549000138,260.79957130001276,Objects\165b.jpg,mid,n,3.233348299982026,None,,,,,,,,00045,001,2026-01-17_18h03.54.425,MST_test,2024.2.0,60.009421474065036,2026-01-17 18h04.03.495305 +0530,
54,0,55,o,1.1232292000204325,None,55,0,54,260.8157421000069,,,,,,,,,,,,,,,,,,,,,,,,,,,,,,,,,,,,,,,,,,,,,,,,,,260.79966390001937,260.8157421000069,261.3159993000154,261.2993084000191,261.308775100013,261.3159993000154,261.3159993000154,261.3159993000154,262.44955570000457,Objects\095a.jpg,pre,o,1.1232292000204325,None,,,,,,,,00045,001,2026-01-17_18h03.54.425,MST_test,2024.2.0,60.009421474065036,2026-01-17 18h04.03.495305 +0530,
55,0,56,n,1.1369512000237592,None,56,0,55,262.46564180002315,,,,,,,,,,,,,,,,,,,,,,,,,,,,,,,,,,,,,,,,,,,,,,,,,,262.4496539000247,262.46564180002315,262.9660864000034,262.9493293000269,262.9623083000188,262.9660864000034,262.9660864000034,262.9660864000034,264.1163643000182,Scenes\050a.jpg,mid,n,1.1369512000237592,None,,,,,,,,00045,001,2026-01-17_18h03.54.425,MST_test,2024.2.0,60.009421474065036,2026-01-17 18h04.03.495305 +0530,
56,0,57,o,2.5102323000028264,None,57,0,56,264.132256300014,,,,,,,,,,,,,,,,,,,,,,,,,,,,,,,,,,,,,,,,,,,,,,,,,,264.1164548000088,264.132256300014,264.6327608000138,264.61594160000095,264.62600370001746,264.6327608000138,264.6327608000138,264.6327608000138,267.1494634000119,Objects\118b.jpg,pre,o,2.5102323000028264,None,,,,,,,,00045,001,2026-01-17_18h03.54.425,MST_test,2024.2.0,60.009421474065036,2026-01-17 18h04.03.495305 +0530,
57,0,58,n,1.1421075999969617,None,58,0,57,267.1656888000143,,,,,,,,,,,,,,,,,,,,,,,,,,,,,,,,,,,,,,,,,,,,,,,,,,267.1495604000229,267.1656888000143,267.67335430000094,267.6493107000133,267.6709418000246,267.67335430000094,267.67335430000094,267.67335430000094,268.8168145000236,Foils\scenes28.jpg,none,n,1.1421075999969617,None,,,,,,,,00045,001,2026-01-17_18h03.54.425,MST_test,2024.2.0,60.009421474065036,2026-01-17 18h04.03.495305 +0530,
58,0,59,n,1.0978605000127573,None,59,0,58,268.83242650001193,,,,,,,,,,,,,,,,,,,,,,,,,,,,,,,,,,,,,,,,,,,,,,,,,,268.81690810000873,268.83242650001193,269.33331420001923,269.31592950000777,269.3258986000146,269.33331420001923,269.33331420001923,269.33331420001923,270.4329040000157,Foils\082a.jpg,none,n,1.0978605000127573,None,,,,,,,,00045,001,2026-01-17_18h03.54.425,MST_test,2024.2.0,60.009421474065036,2026-01-17 18h04.03.495305 +0530,
59,0,60,o,1.075241399987135,None,60,0,59,270.44901680000476,,,,,,,,,,,,,,,,,,,,,,,,,,,,,,,,,,,,,,,,,,,,,,,,,,270.4330026000098,270.44901680000476,270.9493227000057,270.9326126000087,270.94179190002615,270.9493227000057,270.9493227000057,270.9493227000057,272.03294660002575,Objects\172b.jpg,post,o,1.075241399987135,None,,,,,,,,00045,001,2026-01-17_18h03.54.425,MST_test,2024.2.0,60.009421474065036,2026-01-17 18h04.03.495305 +0530,
60,0,61,o,1.2497084999922663,None,61,0,60,272.0488287000044,,,,,,,,,,,,,,,,,,,,,,,,,,,,,,,,,,,,,,,,,,,,,,,,,,272.03303970000707,272.0488287000044,272.5493953000114,272.53259580000304,272.5463280000258,272.5493953000114,272.5493953000114,272.5493953000114,273.799802500027,Scenes\083a.jpg,mid,o,1.2497084999922663,None,,,,,,,,00045,001,2026-01-17_18h03.54.425,MST_test,2024.2.0,60.009421474065036,2026-01-17 18h04.03.495305 +0530,
61,0,62,o,1.3303682999976445,None,62,0,61,273.81576450000284,,,,,,,,,,,,,,,,,,,,,,,,,,,,,,,,,,,,,,,,,,,,,,,,,,273.79990400001407,273.81576450000284,274.31618750002235,274.29921760002617,274.31366620000335,274.31618750002235,274.31618750002235,274.31618750002235,275.64968060000683,Scenes\078b.jpg,pre,o,1.3303682999976445,None,,,,,,,,00045,001,2026-01-17_18h03.54.425,MST_test,2024.2.0,60.009421474065036,2026-01-17 18h04.03.495305 +0530,
62,0,63,o,1.0167676999990363,None,63,0,62,275.66565120001906,,,,,,,,,,,,,,,,,,,,,,,,,,,,,,,,,,,,,,,,,,,,,,,,,,275.6497707000235,275.66565120001906,276.16611230000854,276.1492730000173,276.1594605999999,276.16611230000854,276.16611230000854,276.16611230000854,277.1995768000197,Objects\175b.jpg,post,o,1.0167676999990363,None,,,,,,,,00045,001,2026-01-17_18h03.54.425,MST_test,2024.2.0,60.009421474065036,2026-01-17 18h04.03.495305 +0530,
63,0,64,n,1.5553996000089683,None,64,0,63,277.2156445000146,,,,,,,,,,,,,,,,,,,,,,,,,,,,,,,,,,,,,,,,,,,,,,,,,,277.1996725000208,277.2156445000146,277.7162476000085,277.69918680001865,277.7113155000261,277.7162476000085,277.7162476000085,277.7162476000085,279.28310960001545,Scenes\069a.jpg,mid,n,1.5553996000089683,None,,,,,,,,00045,001,2026-01-17_18h03.54.425,MST_test,2024.2.0,60.009421474065036,2026-01-17 18h04.03.495305 +0530,
64,0,65,n,1.03654010000173,None,65,0,64,279.29882670001825,,,,,,,,,,,,,,,,,,,,,,,,,,,,,,,,,,,,,,,,,,,,,,,,,,279.283208000008,279.29882670001825,279.80207680002786,279.7825646000274,279.79999490000773,279.80207680002786,279.80207680002786,279.80207680002786,280.8495406000002,Scenes\122b.jpg,post,n,1.03654010000173,None,,,,,,,,00045,001,2026-01-17_18h03.54.425,MST_test,2024.2.0,60.009421474065036,2026-01-17 18h04.03.495305 +0530,
65,0,66,o,1.0858454999979585,None,66,0,65,280.86559410000336,,,,,,,,,,,,,,,,,,,,,,,,,,,,,,,,,,,,,,,,,,,,,,,,,,280.84963050001534,280.86559410000336,281.36899540000013,281.34924730000785,281.36667230000603,281.36899540000013,281.36899540000013,281.36899540000013,282.46625080000376,Scenes\043b.jpg,mid,o,1.0858454999979585,None,,,,,,,,00045,001,2026-01-17_18h03.54.425,MST_test,2024.2.0,60.009421474065036,2026-01-17 18h04.03.495305 +0530,
66,0,67,s,2.8238192000135314,None,67,0,66,282.48230460000923,,,,,,,,,,,,,,,,,,,,,,,,,,,,,,,,,,,,,,,,,,,,,,,,,,282.46634190002806,282.48230460000923,282.98309080000035,282.9658854000154,282.980836600007,282.98309080000035,282.98309080000035,282.98309080000035,285.81621780002024,Scenes\109b.jpg,mid,s,2.8238192000135314,None,,,,,,,,00045,001,2026-01-17_18h03.54.425,MST_test,2024.2.0,60.009421474065036,2026-01-17 18h04.03.495305 +0530,
67,0,68,s,1.9555403999984264,None,68,0,67,285.83225830001174,,,,,,,,,,,,,,,,,,,,,,,,,,,,,,,,,,,,,,,,,,,,,,,,,,285.8163077000063,285.83225830001174,286.3327839000267,286.31596110001556,286.324866800016,286.3327839000267,286.3327839000267,286.3327839000267,288.2995073000202,Objects\011b.jpg,mid,s,1.9555403999984264,None,,,,,,,,00045,001,2026-01-17_18h03.54.425,MST_test,2024.2.0,60.009421474065036,2026-01-17 18h04.03.495305 +0530,
68,0,69,s,1.3510469000029843,None,69,0,68,288.3157066999993,,,,,,,,,,,,,,,,,,,,,,,,,,,,,,,,,,,,,,,,,,,,,,,,,,288.2995968000032,288.3157066999993,288.8160234000243,288.7991156000062,288.80747330002487,288.8160234000243,288.8160234000243,288.8160234000243,290.18282550000004,Scenes\053a.jpg,mid,s,1.3510469000029843,None,,,,,,,,00045,001,2026-01-17_18h03.54.425,MST_test,2024.2.0,60.009421474065036,2026-01-17 18h04.03.495305 +0530,
69,0,70,n,1.8438318999833427,None,70,0,69,290.1988245000248,,,,,,,,,,,,,,,,,,,,,,,,,,,,,,,,,,,,,,,,,,,,,,,,,,290.18291580001824,290.1988245000248,290.6994609000103,290.68255820000195,290.69629970000824,290.6994609000103,290.6994609000103,290.6994609000103,292.5495634000108,Scenes\155a.jpg,mid,n,1.8438318999833427,None,,,,,,,,00045,001,2026-01-17_18h03.54.425,MST_test,2024.2.0,60.009421474065036,2026-01-17 18h04.03.495305 +0530,
70,0,71,s,1.4931952999904752,None,71,0,70,292.56558580001,,,,,,,,,,,,,,,,,,,,,,,,,,,,,,,,,,,,,,,,,,,,,,,,,,292.54965720002656,292.56558580001,293.06623460000264,293.0491657000093,293.05982310001855,293.06623460000264,293.06623460000264,293.06623460000264,294.56617820000974,Objects\148b.jpg,post,s,1.4931952999904752,None,,,,,,,,00045,001,2026-01-17_18h03.54.425,MST_test,2024.2.0,60.009421474065036,2026-01-17 18h04.03.495305 +0530,
71,0,72,o,2.4034698999894317,None,72,0,71,294.58232920002774,,,,,,,,,,,,,,,,,,,,,,,,,,,,,,,,,,,,,,,,,,,,,,,,,,294.56627290000324,294.58232920002774,295.08388340001693,295.06588560002274,295.08186299999943,295.08388340001693,295.08388340001693,295.08388340001693,297.49950309999986,Scenes\041a.jpg,post,o,2.4034698999894317,None,,,,,,,,00045,001,2026-01-17_18h03.54.425,MST_test,2024.2.0,60.009421474065036,2026-01-17 18h04.03.495305 +0530,
72,0,73,s,1.191287599998759,None,73,0,72,297.51558320000186,,,,,,,,,,,,,,,,,,,,,,,,,,,,,,,,,,,,,,,,,,,,,,,,,,297.4995905000251,297.51558320000186,298.0161808000121,297.999098100001,298.0090836000163,298.0161808000121,298.0161808000121,298.0161808000121,299.21612820000155,Objects\027b.jpg,post,s,1.191287599998759,None,,,,,,,,00045,001,2026-01-17_18h03.54.425,MST_test,2024.2.0,60.009421474065036,2026-01-17 18h04.03.495305 +0530,
73,0,74,o,1.2667462000099476,None,74,0,73,299.2323173000186,,,,,,,,,,,,,,,,,,,,,,,,,,,,,,,,,,,,,,,,,,,,,,,,,,299.216218400019,299.2323173000186,299.73264140001265,299.71593670002767,299.7248531000223,299.73264140001265,299.73264140001265,299.73264140001265,301.01617130002705,Objects\114a.jpg,post,o,1.2667462000099476,None,,,,,,,,00045,001,2026-01-17_18h03.54.425,MST_test,2024.2.0,60.009421474065036,2026-01-17 18h04.03.495305 +0530,
74,0,75,n,1.2559427000232972,None,75,0,74,301.03231740000774,,,,,,,,,,,,,,,,,,,,,,,,,,,,,,,,,,,,,,,,,,,,,,,,,,301.0162610000116,301.03231740000774,301.5352225000097,301.51598060000106,301.53316420002375,301.5352225000097,301.5352225000097,301.5352225000097,302.799399600015,Scenes\045a.jpg,pre,n,1.2559427000232972,None,,,,,,,,00045,001,2026-01-17_18h03.54.425,MST_test,2024.2.0,60.009421474065036,2026-01-17 18h04.03.495305 +0530,
75,0,76,n,5.898697399999946,None,76,0,75,302.81562140001915,,,,,,,,,,,,,,,,,,,,,,,,,,,,,,,,,,,,,,,,,,,,,,,,,,302.7994904000079,302.81562140001915,303.31631970001035,303.2991627000156,303.31181270000525,303.31631970001035,303.31631970001035,303.31631970001035,309.2164487000264,Scenes\173a.jpg,mid,n,5.898697399999946,None,,,,,,,,00045,001,2026-01-17_18h03.54.425,MST_test,2024.2.0,60.009421474065036,2026-01-17 18h04.03.495305 +0530,
76,0,77,s,1.8514255000045523,None,77,0,76,309.2322695000039,,,,,,,,,,,,,,,,,,,,,,,,,,,,,,,,,,,,,,,,,,,,,,,,,,309.21654270001454,309.2322695000039,309.73284350000904,309.7159412000037,309.72558340002433,309.73284350000904,309.73284350000904,309.73284350000904,311.599463200022,Objects\178b.jpg,post,s,1.8514255000045523,None,,,,,,,,00045,001,2026-01-17_18h03.54.425,MST_test,2024.2.0,60.009421474065036,2026-01-17 18h04.03.495305 +0530,
77,0,78,n,1.3474239000061061,None,78,0,77,311.61564040000667,,,,,,,,,,,,,,,,,,,,,,,,,,,,,,,,,,,,,,,,,,,,,,,,,,311.59955410001567,311.61564040000667,312.1160687000083,312.0991683000175,312.10734520002734,312.1160687000083,312.1160687000083,312.1160687000083,313.4662081999995,Foils\scenes5.jpg,none,n,1.3474239000061061,None,,,,,,,,00045,001,2026-01-17_18h03.54.425,MST_test,2024.2.0,60.009421474065036,2026-01-17 18h04.03.495305 +0530,
78,0,79,n,4.560306799976388,None,79,0,78,313.4823044000077,,,,,,,,,,,,,,,,,,,,,,,,,,,,,,,,,,,,,,,,,,,,,,,,,,313.46629720000783,313.4823044000077,313.9830390000134,313.9658981000248,313.9811854000145,313.9830390000134,313.9830390000134,313.9830390000134,318.54954830001225,Scenes\063a.jpg,pre,n,4.560306799976388,None,,,,,,,,00045,001,2026-01-17_18h03.54.425,MST_test,2024.2.0,60.009421474065036,2026-01-17 18h04.03.495305 +0530,
79,0,80,n,3.6765225999988616,None,80,0,79,318.5655936000112,,,,,,,,,,,,,,,,,,,,,,,,,,,,,,,,,,,,,,,,,,,,,,,,,,318.5496393000067,318.5655936000112,319.06608690001303,319.04913920001127,319.0637007000041,319.06608690001303,319.06608690001303,319.06608690001303,322.7495283000171,Scenes\101b.jpg,post,n,3.6765225999988616,None,,,,,,,,00045,001,2026-01-17_18h03.54.425,MST_test,2024.2.0,60.009421474065036,2026-01-17 18h04.03.495305 +0530,
80,0,81,n,1.100778399995761,None,81,0,80,322.7656718000071,,,,,,,,,,,,,,,,,,,,,,,,,,,,,,,,,,,,,,,,,,,,,,,,,,322.74966460000724,322.7656718000071,323.26612190000014,323.2492363000056,323.2585626000073,323.26612190000014,323.26612190000014,323.26612190000014,324.38289590002387,Foils\074a.jpg,none,n,1.100778399995761,None,,,,,,,,00045,001,2026-01-17_18h03.54.425,MST_test,2024.2.0,60.009421474065036,2026-01-17 18h04.03.495305 +0530,
81,0,82,n,0.9959926000155974,None,82,0,81,324.39883380001993,,,,,,,,,,,,,,,,,,,,,,,,,,,,,,,,,,,,,,,,,,,,,,,,,,324.38298810002743,324.39883380001993,324.89949560002424,324.8826035000093,324.8957956000231,324.89949560002424,324.89949560002424,324.89949560002424,325.8996150000021,Scenes\044a.jpg,pre,n,0.9959926000155974,None,,,,,,,,00045,001,2026-01-17_18h03.54.425,MST_test,2024.2.0,60.009421474065036,2026-01-17 18h04.03.495305 +0530,
82,0,83,o,1.1510143000050448,None,83,0,82,325.91562790001626,,,,,,,,,,,,,,,,,,,,,,,,,,,,,,,,,,,,,,,,,,,,,,,,,,325.89970880001783,325.91562790001626,326.41604090001783,326.3991391000163,326.40825470001437,326.41604090001783,326.41604090001783,326.41604090001783,327.58289010002045,Objects\102a.jpg,post,o,1.1510143000050448,None,,,,,,,,00045,001,2026-01-17_18h03.54.425,MST_test,2024.2.0,60.009421474065036,2026-01-17 18h04.03.495305 +0530,
83,0,84,n,0.9171389999974053,None,84,0,83,327.59880980002345,,,,,,,,,,,,,,,,,,,,,,,,,,,,,,,,,,,,,,,,,,,,,,,,,,327.5829908000014,327.59880980002345,328.1057965000218,328.08270070000435,328.10365390000516,328.1057965000218,328.1057965000218,328.1057965000218,329.03290370001923,Scenes\046b.jpg,post,n,0.9171389999974053,None,,,,,,,,00045,001,2026-01-17_18h03.54.425,MST_test,2024.2.0,60.009421474065036,2026-01-17 18h04.03.495305 +0530,
84,0,85,n,0.9052071000041906,None,85,0,84,329.04881170002045,,,,,,,,,,,,,,,,,,,,,,,,,,,,,,,,,,,,,,,,,,,,,,,,,,329.0329926000268,329.04881170002045,329.5494069000124,329.53258540001116,329.54650570001104,329.5494069000124,329.5494069000124,329.5494069000124,330.4662028000166,Scenes\091a.jpg,mid,n,0.9052071000041906,None,,,,,,,,00045,001,2026-01-17_18h03.54.425,MST_test,2024.2.0,60.009421474065036,2026-01-17 18h04.03.495305 +0530,
85,0,86,s,1.494059799995739,None,86,0,85,330.48250870002084,,,,,,,,,,,,,,,,,,,,,,,,,,,,,,,,,,,,,,,,,,,,,,,,,,330.4662921000272,330.48250870002084,330.9849672000273,330.965946900018,330.98289570002817,330.9849672000273,330.9849672000273,330.9849672000273,332.4829843000043,Scenes\192b.jpg,mid,s,1.494059799995739,None,,,,,,,,00045,001,2026-01-17_18h03.54.425,MST_test,2024.2.0,60.009421474065036,2026-01-17 18h04.03.495305 +0530,
86,0,87,o,2.695076300005894,None,87,0,86,332.498834500002,,,,,,,,,,,,,,,,,,,,,,,,,,,,,,,,,,,,,,,,,,,,,,,,,,332.48307370001567,332.498834500002,332.9995299000002,332.9825029000058,332.99646590001066,332.9995299000002,332.9995299000002,332.9995299000002,335.69953920002445,Scenes\138a.jpg,pre,o,2.695076300005894,None,,,,,,,,00045,001,2026-01-17_18h03.54.425,MST_test,2024.2.0,60.009421474065036,2026-01-17 18h04.03.495305 +0530,
87,0,88,o,0.9838761999853887,None,88,0,87,335.71564780001063,,,,,,,,,,,,,,,,,,,,,,,,,,,,,,,,,,,,,,,,,,,,,,,,,,335.69963100002497,335.71564780001063,336.21616490001907,336.19914000001154,336.2089658000041,336.21616490001907,336.21616490001907,336.21616490001907,337.2162210000097,Objects\157b.jpg,pre,o,0.9838761999853887,None,,,,,,,,00045,001,2026-01-17_18h03.54.425,MST_test,2024.2.0,60.009421474065036,2026-01-17 18h04.03.495305 +0530,
88,0,89,o,0.7469058000133373,None,89,0,88,337.2322455000249,,,,,,,,,,,,,,,,,,,,,,,,,,,,,,,,,,,,,,,,,,,,,,,,,,337.21631210000487,337.2322455000249,337.73247510002693,337.7158927000128,337.7253682000155,337.73247510002693,337.73247510002693,337.73247510002693,338.48282820000895,Objects\013b.jpg,pre,o,0.7469058000133373,None,,,,,,,,00045,001,2026-01-17_18h03.54.425,MST_test,2024.2.0,60.009421474065036,2026-01-17 18h04.03.495305 +0530,
89,0,90,s,1.6556076999986544,None,90,0,89,338.4989022000227,,,,,,,,,,,,,,,,,,,,,,,,,,,,,,,,,,,,,,,,,,,,,,,,,,338.48291820002487,338.4989022000227,338.99908990002587,338.9825717000058,338.99162410001736,338.99908990002587,338.99908990002587,338.99908990002587,340.6662356000161,Objects\184a.jpg,post,s,1.6556076999986544,None,,,,,,,,00045,001,2026-01-17_18h03.54.425,MST_test,2024.2.0,60.009421474065036,2026-01-17 18h04.03.495305 +0530,
90,0,91,n,4.353372799989302,None,91,0,90,340.6823118000175,,,,,,,,,,,,,,,,,,,,,,,,,,,,,,,,,,,,,,,,,,,,,,,,,,340.6663230000122,340.6823118000175,341.1824880000204,341.1659424000245,341.17567090000375,341.1824880000204,341.1824880000204,341.1824880000204,345.5493155000149,Foils\073a.jpg,none,n,4.353372799989302,None,,,,,,,,00045,001,2026-01-17_18h03.54.425,MST_test,2024.2.0,60.009421474065036,2026-01-17 18h04.03.495305 +0530,
91,0,92,o,1.3802366000018083,None,92,0,91,345.5656454000273,,,,,,,,,,,,,,,,,,,,,,,,,,,,,,,,,,,,,,,,,,,,,,,,,,345.5494036000164,345.5656454000273,346.06718490002095,346.04913790000137,346.0652937000268,346.06718490002095,346.06718490002095,346.06718490002095,347.4496818000043,Scenes\106b.jpg,mid,o,1.3802366000018083,None,,,,,,,,00045,001,2026-01-17_18h03.54.425,MST_test,2024.2.0,60.009421474065036,2026-01-17 18h04.03.495305 +0530,
92,0,93,s,1.4175382999819703,None,93,0,92,347.4657884000044,,,,,,,,,,,,,,,,,,,,,,,,,,,,,,,,,,,,,,,,,,,,,,,,,,347.44977490001475,347.4657884000044,347.96615800002473,347.94912190001924,347.9588612000225,347.96615800002473,347.96615800002473,347.96615800002473,349.39941120002186,Objects\065a.jpg,mid,s,1.4175382999819703,None,,,,,,,,00045,001,2026-01-17_18h03.54.425,MST_test,2024.2.0,60.009421474065036,2026-01-17 18h04.03.495305 +0530,
93,0,94,s,1.9154589000099804,None,94,0,93,349.41569910000544,,,,,,,,,,,,,,,,,,,,,,,,,,,,,,,,,,,,,,,,,,,,,,,,,,349.39950490000774,349.41569910000544,349.916202500026,349.8992784000002,349.9136734000058,349.916202500026,349.916202500026,349.916202500026,351.832954100013,Scenes\176b.jpg,pre,s,1.9154589000099804,None,,,,,,,,00045,001,2026-01-17_18h03.54.425,MST_test,2024.2.0,60.009421474065036,2026-01-17 18h04.03.495305 +0530,
94,0,95,o,1.225760800007265,None,95,0,94,351.84892129999935,,,,,,,,,,,,,,,,,,,,,,,,,,,,,,,,,,,,,,,,,,,,,,,,,,351.83304430000135,351.84892129999935,352.34938030000194,352.33257060000324,352.345490000007,352.34938030000194,352.34938030000194,352.34938030000194,353.5830525000056,Scenes\191a.jpg,post,o,1.225760800007265,None,,,,,,,,00045,001,2026-01-17_18h03.54.425,MST_test,2024.2.0,60.009421474065036,2026-01-17 18h04.03.495305 +0530,
95,0,96,n,3.740071199979866,None,96,0,95,353.598959200026,,,,,,,,,,,,,,,,,,,,,,,,,,,,,,,,,,,,,,,,,,,,,,,,,,353.58315740001854,353.598959200026,354.09933190001175,354.0825443000067,354.0925466000044,354.09933190001175,354.09933190001175,354.09933190001175,357.84942430001684,Objects\139b.jpg,pre,n,3.740071199979866,None,,,,,,,,00045,001,2026-01-17_18h03.54.425,MST_test,2024.2.0,60.009421474065036,2026-01-17 18h04.03.495305 +0530,
96,0,97,n,0.8504564000177197,None,97,0,96,357.8656571000174,,,,,,,,,,,,,,,,,,,,,,,,,,,,,,,,,,,,,,,,,,,,,,,,,,357.84951330002514,357.8656571000174,358.36606710002525,358.34917720002704,358.3580620000139,358.36606710002525,358.36606710002525,358.36606710002525,359.2329481000197,Foils\scenes12.jpg,none,n,0.8504564000177197,None,,,,,,,,00045,001,2026-01-17_18h03.54.425,MST_test,2024.2.0,60.009421474065036,2026-01-17 18h04.03.495305 +0530,
97,0,98,n,6.628342300013173,None,98,0,97,359.24882140001864,,,,,,,,,,,,,,,,,,,,,,,,,,,,,,,,,,,,,,,,,,,,,,,,,,359.2330397000187,359.24882140001864,359.7866387000249,359.7326092000003,359.78404570001294,359.7866387000249,359.7866387000249,359.7866387000249,366.4161559000204,Foils\scenes15.jpg,none,n,6.628342300013173,None,,,,,,,,00045,001,2026-01-17_18h03.54.425,MST_test,2024.2.0,60.009421474065036,2026-01-17 18h04.03.495305 +0530,
98,0,99,o,1.457803800003603,None,99,0,98,366.4322882000124,,,,,,,,,,,,,,,,,,,,,,,,,,,,,,,,,,,,,,,,,,,,,,,,,,366.41625150002073,366.4322882000124,366.9333562000247,366.9158342000155,366.931292400026,366.9333562000247,366.9333562000247,366.9333562000247,368.3998098000011,Objects\063a.jpg,mid,o,1.457803800003603,None,,,,,,,,00045,001,2026-01-17_18h03.54.425,MST_test,2024.2.0,60.009421474065036,2026-01-17 18h04.03.495305 +0530,
99,0,100,n,1.15191880002385,None,100,0,99,368.41566210001474,,,,,,,,,,,,,,,,,,,,,,,,,,,,,,,,,,,,,,,,,,,,,,,,,,368.3999068000121,368.41566210001474,368.9194653000159,368.8992302000115,368.917503100005,368.9194653000159,368.9194653000159,368.9194653000159,370.0829177000269,Scenes\032b.jpg,pre,n,1.15191880002385,None,,,,,,,,00045,001,2026-01-17_18h03.54.425,MST_test,2024.2.0,60.009421474065036,2026-01-17 18h04.03.495305 +0530,
100,0,101,o,1.1414583000005223,None,101,0,100,370.09911350000766,,,,,,,,,,,,,,,,,,,,,,,,,,,,,,,,,,,,,,,,,,,,,,,,,,370.0830159000179,370.09911350000766,370.60129120000056,370.5827753000194,370.5988063000259,370.60129120000056,370.60129120000056,370.60129120000056,371.74969250001595,Scenes\006a.jpg,post,o,1.1414583000005223,None,,,,,,,,00045,001,2026-01-17_18h03.54.425,MST_test,2024.2.0,60.009421474065036,2026-01-17 18h04.03.495305 +0530,
101,0,102,n,1.8771520000009332,None,102,0,101,371.765650300018,,,,,,,,,,,,,,,,,,,,,,,,,,,,,,,,,,,,,,,,,,,,,,,,,,371.74978280000505,371.765650300018,372.26605770000606,372.24937610002235,372.25928380002733,372.26605770000606,372.26605770000606,372.26605770000606,374.1496471000137,Foils\050a.jpg,none,n,1.8771520000009332,None,,,,,,,,00045,001,2026-01-17_18h03.54.425,MST_test,2024.2.0,60.009421474065036,2026-01-17 18h04.03.495305 +0530,
102,0,103,s,1.2606296000012662,None,103,0,102,374.16576970001915,,,,,,,,,,,,,,,,,,,,,,,,,,,,,,,,,,,,,,,,,,,,,,,,,,374.14974190000794,374.16576970001915,374.6659947000153,374.6493550000014,374.6590187000111,374.6659947000153,374.6659947000153,374.6659947000153,375.93304510001326,Objects\163b.jpg,pre,s,1.2606296000012662,None,,,,,,,,00045,001,2026-01-17_18h03.54.425,MST_test,2024.2.0,60.009421474065036,2026-01-17 18h04.03.495305 +0530,
103,0,104,s,1.4374425999994855,None,104,0,103,375.9491246000107,,,,,,,,,,,,,,,,,,,,,,,,,,,,,,,,,,,,,,,,,,,,,,,,,,375.9331384000252,375.9491246000107,376.44932520002476,376.43258230001084,376.44191270001465,376.44932520002476,376.44932520002476,376.44932520002476,377.8997301000054,Objects\131a.jpg,post,s,1.4374425999994855,None,,,,,,,,00045,001,2026-01-17_18h03.54.425,MST_test,2024.2.0,60.009421474065036,2026-01-17 18h04.03.495305 +0530,
104,0,105,o,1.2126464000029955,None,105,0,104,377.9156423000095,,,,,,,,,,,,,,,,,,,,,,,,,,,,,,,,,,,,,,,,,,,,,,,,,,377.89983480001683,377.9156423000095,378.41919730001246,378.3994227000221,378.41694480000297,378.41919730001246,378.41919730001246,378.41919730001246,379.6330725000007,Scenes\094a.jpg,mid,o,1.2126464000029955,None,,,,,,,,00045,001,2026-01-17_18h03.54.425,MST_test,2024.2.0,60.009421474065036,2026-01-17 18h04.03.495305 +0530,
105,0,106,n,2.273717800009763,None,106,0,105,379.64905860001454,,,,,,,,,,,,,,,,,,,,,,,,,,,,,,,,,,,,,,,,,,,,,,,,,,379.63316400002805,379.64905860001454,380.1496189000027,380.1326133000257,380.14216820002184,380.1496189000027,380.1496189000027,380.1496189000027,382.43289640001603,Scenes\096b.jpg,pre,n,2.273717800009763,None,,,,,,,,00045,001,2026-01-17_18h03.54.425,MST_test,2024.2.0,60.009421474065036,2026-01-17 18h04.03.495305 +0530,
106,0,107,n,1.3450596999900881,None,107,0,106,382.4493290000246,,,,,,,,,,,,,,,,,,,,,,,,,,,,,,,,,,,,,,,,,,,,,,,,,,382.43299260002095,382.4493290000246,382.949548900011,382.93270930001745,382.9413473000168,382.949548900011,382.949548900011,382.949548900011,384.29973170001176,Foils\scenes14.jpg,none,n,1.3450596999900881,None,,,,,,,,00045,001,2026-01-17_18h03.54.425,MST_test,2024.2.0,60.009421474065036,2026-01-17 18h04.03.495305 +0530,
107,0,108,o,2.2466377999808174,None,108,0,107,384.3156440000166,,,,,,,,,,,,,,,,,,,,,,,,,,,,,,,,,,,,,,,,,,,,,,,,,,384.29982100002235,384.3156440000166,384.8161269000266,384.79935500002466,384.8089733000088,384.8161269000266,384.8161269000266,384.8161269000266,387.0663214000233,Objects\080a.jpg,pre,o,2.2466377999808174,None,,,,,,,,00045,001,2026-01-17_18h03.54.425,MST_test,2024.2.0,60.009421474065036,2026-01-17 18h04.03.495305 +0530,
108,0,109,s,1.543634600006044,None,109,0,108,387.08242620000965,,,,,,,,,,,,,,,,,,,,,,,,,,,,,,,,,,,,,,,,,,,,,,,,,,387.0664140000008,387.08242620000965,387.5831935000024,387.5658798000077,387.5792751000263,387.5831935000024,387.5831935000024,387.5831935000024,389.13302660000045,Scenes\124a.jpg,pre,s,1.543634600006044,None,,,,,,,,00045,001,2026-01-17_18h03.54.425,MST_test,2024.2.0,60.009421474065036,2026-01-17 18h04.03.495305 +0530,
109,0,110,o,0.9813144999789074,None,110,0,109,389.14905750000617,,,,,,,,,,,,,,,,,,,,,,,,,,,,,,,,,,,,,,,,,,,,,,,,,,389.1331157000095,389.14905750000617,389.64947020000545,389.63272050002706,389.6446839000273,389.64947020000545,389.64947020000545,389.64947020000545,390.63328710000496,Objects\160a.jpg,post,o,0.9813144999789074,None,,,,,,,,00045,001,2026-01-17_18h03.54.425,MST_test,2024.2.0,60.009421474065036,2026-01-17 18h04.03.495305 +0530,
110,0,111,o,0.9605578999908175,None,111,0,110,390.64902340000845,,,,,,,,,,,,,,,,,,,,,,,,,,,,,,,,,,,,,,,,,,,,,,,,,,390.6333815000253,390.64902340000845,391.1506556000095,391.1327111000137,391.14833000002545,391.1506556000095,391.1506556000095,391.1506556000095,392.1163360000064,Scenes\021a.jpg,post,o,0.9605578999908175,None,,,,,,,,00045,001,2026-01-17_18h03.54.425,MST_test,2024.2.0,60.009421474065036,2026-01-17 18h04.03.495305 +0530,
111,0,112,o,1.3015861999883782,None,112,0,111,392.1324262000271,,,,,,,,,,,,,,,,,,,,,,,,,,,,,,,,,,,,,,,,,,,,,,,,,,392.1164313000045,392.1324262000271,392.6329678000184,392.6160180000006,392.62511990001076,392.6329678000184,392.6329678000184,392.6329678000184,393.9498508000106,Objects\164a.jpg,mid,o,1.3015861999883782,None,,,,,,,,00045,001,2026-01-17_18h03.54.425,MST_test,2024.2.0,60.009421474065036,2026-01-17 18h04.03.495305 +0530,
112,0,113,s,1.876985800015973,None,113,0,112,393.9656805000268,,,,,,,,,,,,,,,,,,,,,,,,,,,,,,,,,,,,,,,,,,,,,,,,,,393.9499417000043,393.9656805000268,394.4659350000147,394.44952880000346,394.45975140001974,394.4659350000147,394.4659350000147,394.4659350000147,396.34956160001457,Objects\067b.jpg,post,s,1.876985800015973,None,,,,,,,,00045,001,2026-01-17_18h03.54.425,MST_test,2024.2.0,60.009421474065036,2026-01-17 18h04.03.495305 +0530,
113,0,114,s,1.148519699985627,None,114,0,113,396.3658687999996,,,,,,,,,,,,,,,,,,,,,,,,,,,,,,,,,,,,,,,,,,,,,,,,,,396.3496549000265,396.3658687999996,396.86614290002035,396.8493669000163,396.8585432000109,396.86614290002035,396.86614290002035,396.86614290002035,398.01632530000643,Foils\086a.jpg,none,s,1.148519699985627,None,,,,,,,,00045,001,2026-01-17_18h03.54.425,MST_test,2024.2.0,60.009421474065036,2026-01-17 18h04.03.495305 +0530,
114,0,115,s,1.2963598000060301,None,115,0,114,398.0324318000057,,,,,,,,,,,,,,,,,,,,,,,,,,,,,,,,,,,,,,,,,,,,,,,,,,398.0164149000193,398.0324318000057,398.53548109999974,398.51595790000283,398.5332657000108,398.53548109999974,398.53548109999974,398.53548109999974,399.8331179000088,Scenes\010b.jpg,post,s,1.2963598000060301,None,,,,,,,,00045,001,2026-01-17_18h03.54.425,MST_test,2024.2.0,60.009421474065036,2026-01-17 18h04.03.495305 +0530,
115,0,116,s,1.8722847999888472,None,116,0,115,399.8490586000262,,,,,,,,,,,,,,,,,,,,,,,,,,,,,,,,,,,,,,,,,,,,,,,,,,399.8332067000156,399.8490586000262,400.35092560001067,400.33259050000925,400.3485044000263,400.35092560001067,400.35092560001067,400.35092560001067,402.23301550000906,Scenes\038a.jpg,pre,s,1.8722847999888472,None,,,,,,,,00045,001,2026-01-17_18h03.54.425,MST_test,2024.2.0,60.009421474065036,2026-01-17 18h04.03.495305 +0530,
116,0,117,s,1.2339149999897927,None,117,0,116,402.24898510001367,,,,,,,,,,,,,,,,,,,,,,,,,,,,,,,,,,,,,,,,,,,,,,,,,,402.2331083000172,402.24898510001367,402.74961360002635,402.7326803000178,402.7429471000214,402.74961360002635,402.74961360002635,402.74961360002635,403.9996905000007,Objects\122a.jpg,pre,s,1.2339149999897927,None,,,,,,,,00045,001,2026-01-17_18h03.54.425,MST_test,2024.2.0,60.009421474065036,2026-01-17 18h04.03.495305 +0530,
117,0,118,n,2.1393324000237044,None,118,0,117,404.0155580000137,,,,,,,,,,,,,,,,,,,,,,,,,,,,,,,,,,,,,,,,,,,,,,,,,,403.999784500018,404.0155580000137,404.5159484000178,404.49922600001446,404.51197060002596,404.5159484000178,404.5159484000178,404.5159484000178,406.6664156000188,Scenes\079b.jpg,mid,n,2.1393324000237044,None,,,,,,,,00045,001,2026-01-17_18h03.54.425,MST_test,2024.2.0,60.009421474065036,2026-01-17 18h04.03.495305 +0530,
118,0,119,n,1.6240786999987904,None,119,0,118,406.6824023000081,,,,,,,,,,,,,,,,,,,,,,,,,,,,,,,,,,,,,,,,,,,,,,,,,,406.66650710001704,406.6824023000081,407.1829485000053,407.1660068000201,407.1755670000275,407.1829485000053,407.1829485000053,407.1829485000053,408.816178100009,Foils\033a.jpg,none,n,1.6240786999987904,None,,,,,,,,00045,001,2026-01-17_18h03.54.425,MST_test,2024.2.0,60.009421474065036,2026-01-17 18h04.03.495305 +0530,
119,0,120,n,0.9697372000082396,None,120,0,119,408.83248260000255,,,,,,,,,,,,,,,,,,,,,,,,,,,,,,,,,,,,,,,,,,,,,,,,,,408.8162673000188,408.83248260000255,409.33289530000184,409.3159090000263,409.3300310000195,409.33289530000184,409.33289530000184,409.33289530000184,410.316235300008,Scenes\121b.jpg,mid,n,0.9697372000082396,None,,,,,,,,00045,001,2026-01-17_18h03.54.425,MST_test,2024.2.0,60.009421474065036,2026-01-17 18h04.03.495305 +0530,
120,0,121,n,0.9031422999978531,None,121,0,120,410.332466700027,,,,,,,,,,,,,,,,,,,,,,,,,,,,,,,,,,,,,,,,,,,,,,,,,,410.31632589999936,410.332466700027,410.83284920000006,410.8161022000131,410.8257268000161,410.83284920000006,410.83284920000006,410.83284920000006,411.7495886000106,Foils\017a.jpg,none,n,0.9031422999978531,None,,,,,,,,00045,001,2026-01-17_18h03.54.425,MST_test,2024.2.0,60.009421474065036,2026-01-17 18h04.03.495305 +0530,
121,0,122,n,0.8446479999984149,None,122,0,121,411.7657583000255,,,,,,,,,,,,,,,,,,,,,,,,,,,,,,,,,,,,,,,,,,,,,,,,,,411.749676300009,411.7657583000255,412.2659681000223,412.24935280001955,412.25886620001984,412.2659681000223,412.2659681000223,412.2659681000223,413.11618640000233,Objects\064b.jpg,mid,n,0.8446479999984149,None,,,,,,,,00045,001,2026-01-17_18h03.54.425,MST_test,2024.2.0,60.009421474065036,2026-01-17 18h04.03.495305 +0530,
122,0,123,o,1.2300161000166554,None,123,0,122,413.1323163000052,,,,,,,,,,,,,,,,,,,,,,,,,,,,,,,,,,,,,,,,,,,,,,,,,,413.11628000001656,413.1323163000052,413.63265010001487,413.61602750001475,413.62475050002104,413.63265010001487,413.63265010001487,413.63265010001487,414.86624980001943,Objects\110a.jpg,post,o,1.2300161000166554,None,,,,,,,,00045,001,2026-01-17_18h03.54.425,MST_test,2024.2.0,60.009421474065036,2026-01-17 18h04.03.495305 +0530,
123,0,124,n,2.3189902000012808,None,124,0,123,414.88245660002576,,,,,,,,,,,,,,,,,,,,,,,,,,,,,,,,,,,,,,,,,,,,,,,,,,414.86633950000396,414.88245660002576,415.38412620002055,415.366019100009,415.3820394000213,415.38412620002055,415.38412620002055,415.38412620002055,417.71635850000894,Scenes\104b.jpg,mid,n,2.3189902000012808,None,,,,,,,,00045,001,2026-01-17_18h03.54.425,MST_test,2024.2.0,60.009421474065036,2026-01-17 18h04.03.495305 +0530,
124,0,125,n,1.4108943000028376,None,125,0,124,417.73241580001195,,,,,,,,,,,,,,,,,,,,,,,,,,,,,,,,,,,,,,,,,,,,,,,,,,417.7164486000256,417.73241580001195,418.2357478000049,418.21601820000797,418.23399460001383,418.2357478000049,418.2357478000049,418.2357478000049,419.6498162000207,Scenes\047b.jpg,post,n,1.4108943000028376,None,,,,,,,,00045,001,2026-01-17_18h03.54.425,MST_test,2024.2.0,60.009421474065036,2026-01-17 18h04.03.495305 +0530,
125,0,126,o,1.180349500005832,None,126,0,125,419.6657916000113,,,,,,,,,,,,,,,,,,,,,,,,,,,,,,,,,,,,,,,,,,,,,,,,,,419.6499047000252,419.6657916000113,420.17075100002694,420.149353100016,420.1684238000016,420.17075100002694,420.17075100002694,420.17075100002694,421.3661262000096,Scenes\088b.jpg,pre,o,1.180349500005832,None,,,,,,,,00045,001,2026-01-17_18h03.54.425,MST_test,2024.2.0,60.009421474065036,2026-01-17 18h04.03.495305 +0530,
126,0,127,o,1.1246910000045318,None,127,0,126,421.38231380001525,,,,,,,,,,,,,,,,,,,,,,,,,,,,,,,,,,,,,,,,,,,,,,,,,,421.36621920001926,421.38231380001525,421.88287090000813,421.86603140001534,421.8756573999999,421.88287090000813,421.88287090000813,421.88287090000813,423.0159988000232,Objects\134a.jpg,pre,o,1.1246910000045318,None,,,,,,,,00045,001,2026-01-17_18h03.54.425,MST_test,2024.2.0,60.009421474065036,2026-01-17 18h04.03.495305 +0530,
127,0,128,s,3.714894999982789,None,128,0,127,423.03235800002585,,,,,,,,,,,,,,,,,,,,,,,,,,,,,,,,,,,,,,,,,,,,,,,,,,423.01608830000623,423.03235800002585,423.53253650001716,423.5159528000222,423.5260729000147,423.53253650001716,423.53253650001716,423.53253650001716,427.24982730002375,Foils\scenes11.jpg,none,s,3.714894999982789,None,,,,,,,,00045,001,2026-01-17_18h03.54.425,MST_test,2024.2.0,60.009421474065036,2026-01-17 18h04.03.495305 +0530,
128,0,129,s,0.969794800010277,None,129,0,128,427.2655070000037,,,,,,,,,,,,,,,,,,,,,,,,,,,,,,,,,,,,,,,,,,,,,,,,,,427.2499216000142,427.2655070000037,427.7659336000215,427.74937090001185,427.76297630000045,427.7659336000215,427.7659336000215,427.7659336000215,428.7497222000093,Scenes\074b.jpg,pre,s,0.969794800010277,None,,,,,,,,00045,001,2026-01-17_18h03.54.425,MST_test,2024.2.0,60.009421474065036,2026-01-17 18h04.03.495305 +0530,
129,0,130,o,1.0132850000227336,None,130,0,129,428.76569320002454,,,,,,,,,,,,,,,,,,,,,,,,,,,,,,,,,,,,,,,,,,,,,,,,,,428.7498205000011,428.76569320002454,429.2660271000059,429.24919780000346,429.2592055000132,429.2660271000059,429.2660271000059,429.2660271000059,430.28285400001914,Objects\061a.jpg,mid,o,1.0132850000227336,None,,,,,,,,00045,001,2026-01-17_18h03.54.425,MST_test,2024.2.0,60.009421474065036,2026-01-17 18h04.03.495305 +0530,
130,0,131,o,1.103585100005148,None,131,0,130,430.2990198000043,,,,,,,,,,,,,,,,,,,,,,,,,,,,,,,,,,,,,,,,,,,,,,,,,,430.2829428000259,430.2990198000043,430.7992074000067,430.7825912000262,430.7915770000254,430.7992074000067,430.7992074000067,430.7992074000067,431.9163364000269,Objects\186a.jpg,post,o,1.103585100005148,None,,,,,,,,00045,001,2026-01-17_18h03.54.425,MST_test,2024.2.0,60.009421474065036,2026-01-17 18h04.03.495305 +0530,
131,0,132,o,0.8240574999945238,None,132,0,131,431.93233100001817,,,,,,,,,,,,,,,,,,,,,,,,,,,,,,,,,,,,,,,,,,,,,,,,,,431.9164335000096,431.93233100001817,432.43259160002344,432.4157866000023,432.4248895000201,432.43259160002344,432.43259160002344,432.43259160002344,433.26607770001283,Objects\034a.jpg,post,o,0.8240574999945238,None,,,,,,,,00045,001,2026-01-17_18h03.54.425,MST_test,2024.2.0,60.009421474065036,2026-01-17 18h04.03.495305 +0530,
132,0,133,n,1.136141499999212,None,133,0,132,433.28239910001867,,,,,,,,,,,,,,,,,,,,,,,,,,,,,,,,,,,,,,,,,,,,,,,,,,433.2661706000217,433.28239910001867,433.7825785000168,433.7658724000212,433.77539360002265,433.7825785000168,433.7825785000168,433.7825785000168,434.9329288000008,Objects\048b.jpg,mid,n,1.136141499999212,None,,,,,,,,00045,001,2026-01-17_18h03.54.425,MST_test,2024.2.0,60.009421474065036,2026-01-17 18h04.03.495305 +0530,
133,0,134,n,2.621805500006303,None,134,0,133,434.9489478000032,,,,,,,,,,,,,,,,,,,,,,,,,,,,,,,,,,,,,,,,,,,,,,,,,,434.9330171000038,434.9489478000032,435.44927660000394,435.43259960002615,435.4413188000035,435.44927660000394,435.44927660000394,435.44927660000394,438.08280630002264,Foils\098a.jpg,none,n,2.621805500006303,None,,,,,,,,00045,001,2026-01-17_18h03.54.425,MST_test,2024.2.0,60.009421474065036,2026-01-17 18h04.03.495305 +0530,
134,0,135,n,0.919998500001384,None,135,0,134,438.09900200000266,,,,,,,,,,,,,,,,,,,,,,,,,,,,,,,,,,,,,,,,,,,,,,,,,,438.08289499999955,438.09900200000266,438.5993975000165,438.5825606000144,438.5913967000088,438.5993975000165,438.5993975000165,438.5993975000165,439.532969300024,Foils\scenes13.jpg,none,n,0.919998500001384,None,,,,,,,,00045,001,2026-01-17_18h03.54.425,MST_test,2024.2.0,60.009421474065036,2026-01-17 18h04.03.495305 +0530,
135,0,136,s,1.4543821999977808,None,136,0,135,439.5490253000171,,,,,,,,,,,,,,,,,,,,,,,,,,,,,,,,,,,,,,,,,,,,,,,,,,439.5330686000234,439.5490253000171,440.04932240000926,440.0328332000063,440.04301680001663,440.04932240000926,440.04932240000926,440.04932240000926,441.5163810000231,Objects\155b.jpg,mid,s,1.4543821999977808,None,,,,,,,,00045,001,2026-01-17_18h03.54.425,MST_test,2024.2.0,60.009421474065036,2026-01-17 18h04.03.495305 +0530,
136,0,137,s,1.2461616999935359,None,137,0,136,441.5323462000233,,,,,,,,,,,,,,,,,,,,,,,,,,,,,,,,,,,,,,,,,,,,,,,,,,441.5164791000134,441.5323462000233,442.0325803000014,442.0158123000001,442.0254362000269,442.0325803000014,442.0325803000014,442.0325803000014,443.2831196000043,Objects\020b.jpg,pre,s,1.2461616999935359,None,,,,,,,,00045,001,2026-01-17_18h03.54.425,MST_test,2024.2.0,60.009421474065036,2026-01-17 18h04.03.495305 +0530,
137,0,138,o,1.1836165999993682,None,138,0,137,443.29894130001776,,,,,,,,,,,,,,,,,,,,,,,,,,,,,,,,,,,,,,,,,,,,,,,,,,443.28320890001487,443.29894130001776,443.79923370000324,443.78271530001075,443.79232310000225,443.79923370000324,443.79923370000324,443.79923370000324,444.99955590002355,Objects\145b.jpg,mid,o,1.1836165999993682,None,,,,,,,,00045,001,2026-01-17_18h03.54.425,MST_test,2024.2.0,60.009421474065036,2026-01-17 18h04.03.495305 +0530,
138,0,139,n,1.3844591999950353,None,139,0,138,445.01564610001515,,,,,,,,,,,,,,,,,,,,,,,,,,,,,,,,,,,,,,,,,,,,,,,,,,444.9996463000134,445.01564610001515,445.5192120000138,445.4992368000094,445.5171554000117,445.5192120000138,445.5192120000138,445.5192120000138,446.91613760002656,Scenes\159a.jpg,pre,n,1.3844591999950353,None,,,,,,,,00045,001,2026-01-17_18h03.54.425,MST_test,2024.2.0,60.009421474065036,2026-01-17 18h04.03.495305 +0530,
139,0,140,n,2.250442699994892,None,140,0,139,446.93232120000175,,,,,,,,,,,,,,,,,,,,,,,,,,,,,,,,,,,,,,,,,,,,,,,,,,446.91623150001396,446.93232120000175,447.4365749999997,447.4166814000055,447.4342496000172,447.4365749999997,447.4365749999997,447.4365749999997,449.69953970002825,Scenes\085b.jpg,post,n,2.250442699994892,None,,,,,,,,00045,001,2026-01-17_18h03.54.425,MST_test,2024.2.0,60.009421474065036,2026-01-17 18h04.03.495305 +0530,
140,0,141,o,0.9749148999981117,None,141,0,140,449.71560790002695,,,,,,,,,,,,,,,,,,,,,,,,,,,,,,,,,,,,,,,,,,,,,,,,,,449.69963050002116,449.71560790002695,450.21613490002346,450.1992700000119,450.2105021000025,450.21613490002346,450.21613490002346,450.21613490002346,451.19955860002665,Objects\128a.jpg,post,o,0.9749148999981117,None,,,,,,,,00045,001,2026-01-17_18h03.54.425,MST_test,2024.2.0,60.009421474065036,2026-01-17 18h04.03.495305 +0530,
141,0,142,o,1.2993352999910712,None,142,0,141,451.2156083000009,,,,,,,,,,,,,,,,,,,,,,,,,,,,,,,,,,,,,,,,,,,,,,,,,,451.19964990002336,451.2156083000009,451.7157237000065,451.6992291000206,451.7095391000039,451.7157237000065,451.7157237000065,451.7157237000065,453.0167719000019,Objects\062a.jpg,pre,o,1.2993352999910712,None,,,,,,,,00045,001,2026-01-17_18h03.54.425,MST_test,2024.2.0,60.009421474065036,2026-01-17 18h04.03.495305 +0530,
142,0,143,s,1.4190317000029609,None,143,0,142,453.03244410001207,,,,,,,,,,,,,,,,,,,,,,,,,,,,,,,,,,,,,,,,,,,,,,,,,,453.01687380002113,453.03244410001207,453.532571800024,453.51589600002626,453.5245488000219,453.532571800024,453.532571800024,453.532571800024,454.9660083000199,Foils\101b.jpg,none,s,1.4190317000029609,None,,,,,,,,00045,001,2026-01-17_18h03.54.425,MST_test,2024.2.0,60.009421474065036,2026-01-17 18h04.03.495305 +0530,
143,0,144,n,1.508212300017476,None,144,0,143,454.982352800027,,,,,,,,,,,,,,,,,,,,,,,,,,,,,,,,,,,,,,,,,,,,,,,,,,454.96610030002194,454.982352800027,455.4827556000091,455.4658774000127,455.4743498000025,455.4827556000091,455.4827556000091,455.4827556000091,456.99966510001104,Foils\scenes4.jpg,none,n,1.508212300017476,None,,,,,,,,00045,001,2026-01-17_18h03.54.425,MST_test,2024.2.0,60.009421474065036,2026-01-17 18h04.03.495305 +0530,
144,0,145,o,1.0515323000145145,None,145,0,144,457.0156186000095,,,,,,,,,,,,,,,,,,,,,,,,,,,,,,,,,,,,,,,,,,,,,,,,,,456.9997579000192,457.0156186000095,457.5160472000134,457.4995382000052,457.5088841000106,457.5160472000134,457.5160472000134,457.5160472000134,458.58309370002826,Objects\096b.jpg,pre,o,1.0515323000145145,None,,,,,,,,00045,001,2026-01-17_18h03.54.425,MST_test,2024.2.0,60.009421474065036,2026-01-17 18h04.03.495305 +0530,
145,0,146,n,2.5766436999838334,None,146,0,145,458.5990053000278,,,,,,,,,,,,,,,,,,,,,,,,,,,,,,,,,,,,,,,,,,,,,,,,,,458.58319230002235,458.5990053000278,459.1031335000007,459.08253770001465,459.1011079000018,459.1031335000007,459.1031335000007,459.1031335000007,461.68301230002544,Scenes\015b.jpg,pre,n,2.5766436999838334,None,,,,,,,,00045,001,2026-01-17_18h03.54.425,MST_test,2024.2.0,60.009421474065036,2026-01-17 18h04.03.495305 +0530,
146,0,147,n,1.1524859000055585,None,147,0,146,461.69925900001545,,,,,,,,,,,,,,,,,,,,,,,,,,,,,,,,,,,,,,,,,,,,,,,,,,461.6831066000159,461.69925900001545,462.2000087000197,462.18262000000686,462.19760060001863,462.2000087000197,462.2000087000197,462.2000087000197,463.36604350002017,Scenes\127a.jpg,mid,n,1.1524859000055585,None,,,,,,,,00045,001,2026-01-17_18h03.54.425,MST_test,2024.2.0,60.009421474065036,2026-01-17 18h04.03.495305 +0530,
147,0,148,o,0.9957946999929845,None,148,0,147,463.38234430001467,,,,,,,,,,,,,,,,,,,,,,,,,,,,,,,,,,,,,,,,,,,,,,,,,,463.36614010002813,463.38234430001467,463.8828607000178,463.8658590000123,463.87527390001924,463.8828607000178,463.8828607000178,463.8828607000178,464.88301390002016,Objects\041a.jpg,mid,o,0.9957946999929845,None,,,,,,,,00045,001,2026-01-17_18h03.54.425,MST_test,2024.2.0,60.009421474065036,2026-01-17 18h04.03.495305 +0530,
148,0,149,o,4.568291900010081,None,149,0,148,464.8989853000094,,,,,,,,,,,,,,,,,,,,,,,,,,,,,,,,,,,,,,,,,,,,,,,,,,464.8831082000106,464.8989853000094,465.3992968000239,465.3825690000085,465.3914687000215,465.3992968000239,465.3992968000239,465.3992968000239,469.982962900016,Objects\007a.jpg,post,o,4.568291900010081,None,,,,,,,,00045,001,2026-01-17_18h03.54.425,MST_test,2024.2.0,60.009421474065036,2026-01-17 18h04.03.495305 +0530,
149,0,150,n,1.2680991000088397,None,150,0,149,469.9990187000076,,,,,,,,,,,,,,,,,,,,,,,,,,,,,,,,,,,,,,,,,,,,,,,,,,469.98305900002015,469.9990187000076,470.49957189999986,470.48259720002534,470.4949771000247,470.49957189999986,470.49957189999986,470.49957189999986,471.782905,Scenes\039a.jpg,post,n,1.2680991000088397,None,,,,,,,,00045,001,2026-01-17_18h03.54.425,MST_test,2024.2.0,60.009421474065036,2026-01-17 18h04.03.495305 +0530,
,,,,,,,,,,,,,,,,,,,,,,,,,,,,,,,,,,,,,,,,,,,,,,,,,,,,,,,,,,,,,,,,,,,,,,,,,471.78296700000647,471.7990452000231,471.7990452000231,473.63276030001,space,1.824484399985522,None,00045,001,2026-01-17_18h03.54.425,MST_test,2024.2.0,60.009421474065036,2026-01-17 18h04.03.495305 +0530,
