Sl_no,image_path,thisN,thisTrialN,thisRepN,key_resp_5.keys,key_resp_7.keys,key_resp_7.rt,key_resp_7.duration,key_resp_5.rt,key_resp_5.duration,key_resp_9.keys,key_resp_9.rt,key_resp_9.duration,key_resp_8.keys,key_resp_8.rt,key_resp_8.duration,practice.thisRepN,practice.thisTrialN,practice.thisN,trials.thisRepN,trials.thisTrialN,trials.thisN,thisRow.t,notes,welcome_page.started,text.started,key_resp.started,welcome_page.stopped,key_resp.keys,key_resp.rt,key_resp.duration,instructions.started,ins.started,key_resp_2.started,instructions.stopped,key_resp_2.keys,key_resp_2.rt,key_resp_2.duration,instructions_2.started,text_10.started,key_resp_10.started,instructions_2.stopped,key_resp_10.keys,key_resp_10.rt,key_resp_10.duration,objects_only_instruction.started,text_3.started,key_resp_3.started,objects_only_instruction.stopped,key_resp_3.keys,key_resp_3.rt,key_resp_3.duration,ISI.started,text_4.started,ISI.stopped,practice_block.started,image.started,text_5.started,key_resp_5.started,practice_block.stopped,practice.key_resp_5.keys,indoor_outdoor.started,text_7.started,key_resp_7.started,indoor_outdoor.stopped,practice.key_resp_7.keys,practice.key_resp_7.rt,practice.key_resp_7.duration,text_4.stopped,image.stopped,text_5.stopped,key_resp_5.stopped,practice.key_resp_5.rt,practice.key_resp_5.duration,practice_to_main.started,text_2.started,key_resp_4.started,practice_to_main.stopped,key_resp_4.keys,key_resp_4.rt,key_resp_4.duration,objects.started,image_2.started,text_9.started,key_resp_9.started,objects.stopped,trials.key_resp_9.keys,trials.key_resp_9.rt,trials.key_resp_9.duration,encoding_task.started,encoding_task.stopped,trials.key_resp_8.keys,image_2.stopped,text_9.stopped,key_resp_9.stopped,text_8.started,key_resp_8.started,trials.key_resp_8.rt,trials.key_resp_8.duration,end_experiment.started,text_6.started,key_resp_6.started,end_experiment.stopped,key_resp_6.keys,key_resp_6.rt,key_resp_6.duration,list_of_stimuli,encoding_task_accuracy,participant,session,date,expName,psychopyVersion,frameRate,expStart,
,,,,,,,,,,,,,,,,,,,,,,,,,0.001114800019422546,0.002567800023825839,0.002567800023825839,14.989932800002862,space,14.978970099997241,None,,,,,,,,,,,,,,,,,,,,,,,,,,,,,,,,,,,,,,,,,,,,,,,,,,,,,,,,,,,,,,,,,,,,,,,,,,,,,,00046,001,2026-01-17_18h21.17.024,MST_task,2024.2.0,59.91256360497875,2026-01-17 18h21.27.258308 +0530,
,,,,,,,,,,,,,,,,,,,,,,,,,,,,,,,,14.989967700006673,15.004502499999944,15.004502499999944,36.17163900000742,space,21.161163899989333,None,,,,,,,,,,,,,,,,,,,,,,,,,,,,,,,,,,,,,,,,,,,,,,,,,,,,,,,,,,,,,,,,,,,,,,,00046,001,2026-01-17_18h21.17.024,MST_task,2024.2.0,59.91256360497875,2026-01-17 18h21.27.258308 +0530,
,,,,,,,,,,,,,,,,,,,,,,,,,,,,,,,,,,,,,,,36.17166829999769,36.18788610000047,36.18788610000047,64.92177840002114,space,28.729578700003913,None,,,,,,,,,,,,,,,,,,,,,,,,,,,,,,,,,,,,,,,,,,,,,,,,,,,,,,,,,,,,,,,,00046,001,2026-01-17_18h21.17.024,MST_task,2024.2.0,59.91256360497875,2026-01-17 18h21.27.258308 +0530,
,,,,,,,,,,,,,,,,,,,,,,,,,,,,,,,,,,,,,,,,,,,,,,64.92180870001903,64.93811830002232,64.93811830002232,87.25516920001246,space,22.3071942999959,None,,,,,,,,,,,,,,,,,,,,,,,,,,,,,,,,,,,,,,,,,,,,,,,,,,,,,,,,,00046,001,2026-01-17_18h21.17.024,MST_task,2024.2.0,59.91256360497875,2026-01-17 18h21.27.258308 +0530,
2,practice_images/031a.jpg,0,0,1,None,f,0.4664866999955848,None,,,,,,,,,1,0,0,,,,87.27368740001111,,,,,,,,,,,,,,,,,,,,,,,,,,,,,,87.27117550000548,87.27368740001111,87.7712523000082,87.78330810001353,87.7942140000232,87.7942140000232,87.7942140000232,90.77156710001873,None,90.77334960000007,90.78796390001662,90.78796390001662,91.25509750001947,f,0.4664866999955848,None,,,,,,,,,,,,,,,,,,,,,,,,,,,,,,,,,,,,,,,,,00046,001,2026-01-17_18h21.17.024,MST_task,2024.2.0,59.91256360497875,2026-01-17 18h21.27.258308 +0530,
8,practice_images/178a.jpg,1,1,1,j,None,,,2.305766900011804,0.11193949999869801,,,,,,,1,1,1,,,,91.27129270002479,,,,,,,,,,,,,,,,,,,,,,,,,,,,,,91.25518390000798,91.27129270002479,91.75495270002284,91.76256410000497,91.77150590001838,91.77150590001838,91.77150590001838,94.75509940000484,j,94.75514910000493,,,94.7551647000073,None,,,91.77150590001838,94.77116730000125,94.77116730000125,94.77116730000125,2.305766900011804,0.11193949999869801,,,,,,,,,,,,,,,,,,,,,,,,,,,,,,,,,,,00046,001,2026-01-17_18h21.17.024,MST_task,2024.2.0,59.91256360497875,2026-01-17 18h21.27.258308 +0530,
5,practice_images/139a.jpg,2,2,1,j,None,,,1.9265284999855794,0.13611500000115484,,,,,,,1,2,2,,,,94.77116730000125,,,,,,,,,,,,,,,,,,,,,,,,,,,,,,94.75523239999893,94.77116730000125,95.25497370000812,95.26266240002587,95.27143390002311,95.27143390002311,95.27143390002311,98.25513590002083,j,98.25517310001305,,,98.25518560002092,None,,,95.27143390002311,98.27118070001598,98.27118070001598,98.27118070001598,1.9265284999855794,0.13611500000115484,,,,,,,,,,,,,,,,,,,,,,,,,,,,,,,,,,,00046,001,2026-01-17_18h21.17.024,MST_task,2024.2.0,59.91256360497875,2026-01-17 18h21.27.258308 +0530,
10,practice_images/182a.jpg,3,3,1,f,None,,,1.0657514000195079,0.1599959999730345,,,,,,,1,3,3,,,,98.27118070001598,,,,,,,,,,,,,,,,,,,,,,,,,,,,,,98.2552488000074,98.27118070001598,98.7549347000022,98.76292550002108,98.77153520000866,98.77153520000866,98.77153520000866,101.75514110000222,f,101.75518150001881,,,101.75519440000062,None,,,98.77153520000866,101.77119830000447,101.77119830000447,101.77119830000447,1.0657514000195079,0.1599959999730345,,,,,,,,,,,,,,,,,,,,,,,,,,,,,,,,,,,00046,001,2026-01-17_18h21.17.024,MST_task,2024.2.0,59.91256360497875,2026-01-17 18h21.27.258308 +0530,
9,practice_images/180a.jpg,4,4,1,f,None,,,1.38983850000659,0.1599704000109341,,,,,,,1,4,4,,,,101.77119830000447,,,,,,,,,,,,,,,,,,,,,,,,,,,,,,101.7552576000162,101.77119830000447,102.25501600001007,102.2628423999995,102.27140580001287,102.27140580001287,102.27140580001287,105.25504770001862,f,105.25508650002303,,,105.25509900000179,None,,,102.27140580001287,105.27135330002056,105.27135330002056,105.27135330002056,1.38983850000659,0.1599704000109341,,,,,,,,,,,,,,,,,,,,,,,,,,,,,,,,,,,00046,001,2026-01-17_18h21.17.024,MST_task,2024.2.0,59.91256360497875,2026-01-17 18h21.27.258308 +0530,
3,practice_images/037a.jpg,5,5,1,f,None,,,2.7949026999995112,0.1436694999865722,,,,,,,1,5,5,,,,105.27135330002056,,,,,,,,,,,,,,,,,,,,,,,,,,,,,,105.25516250001965,105.27135330002056,105.75481820001733,105.76663510000799,105.77136930002598,105.77136930002598,105.77136930002598,108.75527250001323,f,108.75805190001847,,,108.75807170002372,None,,,105.77136930002598,108.77109460000065,108.77109460000065,108.77109460000065,2.7949026999995112,0.1436694999865722,,,,,,,,,,,,,,,,,,,,,,,,,,,,,,,,,,,00046,001,2026-01-17_18h21.17.024,MST_task,2024.2.0,59.91256360497875,2026-01-17 18h21.27.258308 +0530,
1,practice_images/013a.jpg,6,6,1,j,None,,,0.9751186999783386,0.15089079999597743,,,,,,,1,6,6,,,,108.77109460000065,,,,,,,,,,,,,,,,,,,,,,,,,,,,,,108.7581410999992,108.77109460000065,109.25484380000853,109.26273600000422,109.27148190001026,109.27148190001026,109.27148190001026,112.25519150000764,j,112.25523370000883,,,112.25524790000054,None,,,109.27148190001026,112.27125160000287,112.27125160000287,112.27125160000287,0.9751186999783386,0.15089079999597743,,,,,,,,,,,,,,,,,,,,,,,,,,,,,,,,,,,00046,001,2026-01-17_18h21.17.024,MST_task,2024.2.0,59.91256360497875,2026-01-17 18h21.27.258308 +0530,
6,practice_images/158a.jpg,7,7,1,j,None,,,2.4353078000131063,0.2228789999790024,,,,,,,1,7,7,,,,112.27125160000287,,,,,,,,,,,,,,,,,,,,,,,,,,,,,,112.25531380000757,112.27125160000287,112.75481770001352,112.76228280001669,112.77136630000314,112.77136630000314,112.77136630000314,115.75499250000576,j,115.75503080000635,,,115.75504340001498,None,,,112.77136630000314,115.77100230002543,115.77100230002543,115.77100230002543,2.4353078000131063,0.2228789999790024,,,,,,,,,,,,,,,,,,,,,,,,,,,,,,,,,,,00046,001,2026-01-17_18h21.17.024,MST_task,2024.2.0,59.91256360497875,2026-01-17 18h21.27.258308 +0530,
4,practice_images/002b.jpg,8,8,1,j,None,,,2.574038999999175,0.2565744000021368,,,,,,,1,8,8,,,,115.77100230002543,,,,,,,,,,,,,,,,,,,,,,,,,,,,,,115.75510619999841,115.77100230002543,116.25480990001233,116.26250969999819,116.27131370001007,116.27131370001007,116.27131370001007,119.25501470000017,j,119.25505170001998,,,119.25506470000255,None,,,116.27131370001007,119.27109790002578,119.27109790002578,119.27109790002578,2.574038999999175,0.2565744000021368,,,,,,,,,,,,,,,,,,,,,,,,,,,,,,,,,,,00046,001,2026-01-17_18h21.17.024,MST_task,2024.2.0,59.91256360497875,2026-01-17 18h21.27.258308 +0530,
7,practice_images/166a.jpg,9,9,1,f,None,,,1.6261530000192579,0.22424889999092557,,,,,,,1,9,9,,,,119.27109790002578,,,,,,,,,,,,,,,,,,,,,,,,,,,,,,119.25512730001356,119.27109790002578,119.75481480002054,119.76250360000995,119.7713783000072,119.7713783000072,119.7713783000072,122.75507150002522,f,122.75510840001516,,,122.75512030001846,None,,,119.7713783000072,122.77104710001731,122.77104710001731,122.77104710001731,1.6261530000192579,0.22424889999092557,,,,,,,,,,,,,,,,,,,,,,,,,,,,,,,,,,,00046,001,2026-01-17_18h21.17.024,MST_task,2024.2.0,59.91256360497875,2026-01-17 18h21.27.258308 +0530,
,,,,,,,,,,,,,,,,,,,,,,,,,,,,,,,,,,,,,,,,,,,,,,,,,,,,,,,,,,,,,,,,,,,,,,,,,,,122.75516170001356,122.77104710001731,122.77104710001731,158.3388479000132,space,35.56357700002263,None,,,,,,,,,,,,,,,,,,,,,,,,,,,,00046,001,2026-01-17_18h21.17.024,MST_task,2024.2.0,59.91256360497875,2026-01-17 18h21.27.258308 +0530,
,Scenes\003a.jpg,0,0,1,,,,,,,j,1.2821989000076428,0.1279981000116095,None,,,,,,1,0,0,158.3547006000008,,,,,,,,,,,,,,,,,,,,,,,,,,,,,,158.3396999000106,158.3547006000008,158.83817329999874,,,,,,,,,,,,,,158.86781530000735,,,,,,,,,,,,,158.86480219999794,158.86781530000735,158.86781530000735,158.86781530000735,161.8548230000015,j,1.2821989000076428,0.1279981000116095,161.85654850001447,161.85656710001058,None,,,,,,,,,,,,,,,,,00046,001,2026-01-17_18h21.17.024,MST_task,2024.2.0,59.91256360497875,2026-01-17 18h21.27.258308 +0530,
,Scenes\182a.jpg,1,0,2,,,,,,,j,1.7299139999959152,0.15311559999827296,None,,,,,,2,0,1,161.87110700001358,,,,,,,,,,,,,,,,,,,,,,,,,,,,,,161.8566625000094,161.87110700001358,162.35481170000276,,,,,,,,,,,,,,162.3716182000062,,,,,,,,,,,,,162.3689404000179,162.3716182000062,162.3716182000062,162.3716182000062,165.35519960001693,j,1.7299139999959152,0.15311559999827296,165.35524309999892,165.35525420002523,None,165.37134360001073,165.37134360001073,165.37134360001073,,,,,,,,,,,,,,00046,001,2026-01-17_18h21.17.024,MST_task,2024.2.0,59.91256360497875,2026-01-17 18h21.27.258308 +0530,
,Scenes\077a.jpg,2,0,3,,,,,,,j,1.766400699998485,0.15179190001799725,None,,,,,,3,0,2,165.37134360001073,,,,,,,,,,,,,,,,,,,,,,,,,,,,,,165.35531939999782,165.37134360001073,165.85506630002055,,,,,,,,,,,,,,165.87185940000927,,,,,,,,,,,,,165.86830100000952,165.87185940000927,165.87185940000927,165.87185940000927,168.85527140001068,j,1.766400699998485,0.15179190001799725,168.85531280000578,168.8553244000068,None,168.871269700001,168.871269700001,168.871269700001,,,,,,,,,,,,,,00046,001,2026-01-17_18h21.17.024,MST_task,2024.2.0,59.91256360497875,2026-01-17 18h21.27.258308 +0530,
,Scenes\101a.jpg,3,0,4,,,,,,,j,0.9694944999937434,0.11999659999855794,None,,,,,,4,0,3,168.871269700001,,,,,,,,,,,,,,,,,,,,,,,,,,,,,,168.85538839999936,168.871269700001,169.3549394000147,,,,,,,,,,,,,,169.37225169999874,,,,,,,,,,,,,169.36969930000487,169.37225169999874,169.37225169999874,169.37225169999874,172.3553306000249,j,0.9694944999937434,0.11999659999855794,172.35538110000198,172.35539290000452,None,172.37131200000294,172.37131200000294,172.37131200000294,,,,,,,,,,,,,,00046,001,2026-01-17_18h21.17.024,MST_task,2024.2.0,59.91256360497875,2026-01-17 18h21.27.258308 +0530,
,Scenes\117a.jpg,4,0,5,,,,,,,j,0.8377831000252627,0.1520128999836743,None,,,,,,5,0,4,172.37131200000294,,,,,,,,,,,,,,,,,,,,,,,,,,,,,,172.35546010002145,172.37131200000294,172.8549534000049,,,,,,,,,,,,,,172.87195930001326,,,,,,,,,,,,,172.86700920001022,172.87195930001326,172.87195930001326,172.87195930001326,175.85515380001743,j,0.8377831000252627,0.1520128999836743,175.85519550001482,175.85520620000898,None,175.87134400001378,175.87134400001378,175.87134400001378,,,,,,,,,,,,,,00046,001,2026-01-17_18h21.17.024,MST_task,2024.2.0,59.91256360497875,2026-01-17 18h21.27.258308 +0530,
,Scenes\144a.jpg,5,0,6,,,,,,,j,0.9295266999979503,0.13698000001022592,None,,,,,,6,0,5,175.87134400001378,,,,,,,,,,,,,,,,,,,,,,,,,,,,,,175.8552993000194,175.87134400001378,176.35508390000905,,,,,,,,,,,,,,176.37194090001867,,,,,,,,,,,,,176.36852190000354,176.37194090001867,176.37194090001867,176.37194090001867,179.35527980001643,j,0.9295266999979503,0.13698000001022592,179.35532520001289,179.3553363000101,None,179.3713608000253,179.3713608000253,179.3713608000253,,,,,,,,,,,,,,00046,001,2026-01-17_18h21.17.024,MST_task,2024.2.0,59.91256360497875,2026-01-17 18h21.27.258308 +0530,
,Scenes\150a.jpg,6,0,7,,,,,,,j,1.229585799999768,0.128010299988091,None,,,,,,7,0,6,179.3713608000253,,,,,,,,,,,,,,,,,,,,,,,,,,,,,,179.3554382000002,179.3713608000253,179.85492730000988,,,,,,,,,,,,,,179.8718725000217,,,,,,,,,,,,,179.86928280000575,179.8718725000217,179.8718725000217,179.8718725000217,182.85515380001743,j,1.229585799999768,0.128010299988091,182.85519540001405,182.8552069000143,None,182.87125140000717,182.87125140000717,182.87125140000717,,,,,,,,,,,,,,00046,001,2026-01-17_18h21.17.024,MST_task,2024.2.0,59.91256360497875,2026-01-17 18h21.27.258308 +0530,
,Objects\110a.jpg,7,0,8,,,,,,,f,1.6827695000101812,0.1509989000041969,None,,,,,,8,0,7,182.87125140000717,,,,,,,,,,,,,,,,,,,,,,,,,,,,,,182.85531520002405,182.87125140000717,183.3551686000137,,,,,,,,,,,,,,183.37159160000738,,,,,,,,,,,,,183.36885880000773,183.37159160000738,183.37159160000738,183.37159160000738,186.35543010002584,f,1.6827695000101812,0.1509989000041969,186.35839560002205,186.35841370001435,None,186.37135860000853,186.37135860000853,186.37135860000853,,,,,,,,,,,,,,00046,001,2026-01-17_18h21.17.024,MST_task,2024.2.0,59.91256360497875,2026-01-17 18h21.27.258308 +0530,
,Objects\170a.jpg,8,0,9,,,,,,,f,1.1032464999880176,0.15057749999687076,None,,,,,,9,0,8,186.37135860000853,,,,,,,,,,,,,,,,,,,,,,,,,,,,,,186.35848350002198,186.37135860000853,186.8549971000175,,,,,,,,,,,,,,186.8715595000249,,,,,,,,,,,,,186.86451220000163,186.8715595000249,186.8715595000249,186.8715595000249,189.85516490001464,f,1.1032464999880176,0.15057749999687076,189.85520680001355,189.85521760000847,None,189.8711908000114,189.8711908000114,189.8711908000114,,,,,,,,,,,,,,00046,001,2026-01-17_18h21.17.024,MST_task,2024.2.0,59.91256360497875,2026-01-17 18h21.27.258308 +0530,
,Objects\112a.jpg,9,0,10,,,,,,,f,0.938165100000333,0.11989440000616014,None,,,,,,10,0,9,189.8711908000114,,,,,,,,,,,,,,,,,,,,,,,,,,,,,,189.85528340001474,189.8711908000114,190.3549340000027,,,,,,,,,,,,,,190.37157770001795,,,,,,,,,,,,,190.36434480000753,190.37157770001795,190.37157770001795,190.37157770001795,193.35540990001755,f,0.938165100000333,0.11989440000616014,193.3554602000222,193.35547150002094,None,193.37127110001165,193.37127110001165,193.37127110001165,,,,,,,,,,,,,,00046,001,2026-01-17_18h21.17.024,MST_task,2024.2.0,59.91256360497875,2026-01-17 18h21.27.258308 +0530,
,Objects\068a.jpg,10,0,11,,,,,,,f,2.8703954000084195,None,None,,,,,,11,0,10,193.37127110001165,,,,,,,,,,,,,,,,,,,,,,,,,,,,,,193.35554190000403,193.37127110001165,193.8553585000045,,,,,,,,,,,,,,193.87154440002632,,,,,,,,,,,,,193.86443380001583,193.87154440002632,193.87154440002632,193.87154440002632,196.8552871000138,f,2.8703954000084195,None,196.85532950001652,196.85534030001145,None,196.87143070000457,196.87143070000457,196.87143070000457,,,,,,,,,,,,,,00046,001,2026-01-17_18h21.17.024,MST_task,2024.2.0,59.91256360497875,2026-01-17 18h21.27.258308 +0530,
,Objects\090a.jpg,11,0,12,,,,,,,j,1.4583888000051957,0.16018170001916587,None,,,,,,12,0,11,196.87143070000457,,,,,,,,,,,,,,,,,,,,,,,,,,,,,,196.85540570001467,196.87143070000457,197.3549852000142,,,,,,,,,,,,,,197.37160690000746,,,,,,,,,,,,,197.3656214000075,197.37160690000746,197.37160690000746,197.37160690000746,200.35516440001084,j,1.4583888000051957,0.16018170001916587,200.35521350000636,200.35522440000204,None,200.37120910000522,200.37120910000522,200.37120910000522,,,,,,,,,,,,,,00046,001,2026-01-17_18h21.17.024,MST_task,2024.2.0,59.91256360497875,2026-01-17 18h21.27.258308 +0530,
,Objects\029a.jpg,12,0,13,,,,,,,f,1.054009000014048,0.17560359998606145,None,,,,,,13,0,12,200.37120910000522,,,,,,,,,,,,,,,,,,,,,,,,,,,,,,200.35528950000298,200.37120910000522,200.85494050002308,,,,,,,,,,,,,,200.87166000000434,,,,,,,,,,,,,200.8638336000149,200.87166000000434,200.87166000000434,200.87166000000434,203.85508649999974,f,1.054009000014048,0.17560359998606145,203.85513130002073,203.85514240001794,None,203.8713758000231,203.8713758000231,203.8713758000231,,,,,,,,,,,,,,00046,001,2026-01-17_18h21.17.024,MST_task,2024.2.0,59.91256360497875,2026-01-17 18h21.27.258308 +0530,
,Objects\073a.jpg,13,0,14,,,,,,,f,1.5060662000032607,0.1356140999996569,None,,,,,,14,0,13,203.8713758000231,,,,,,,,,,,,,,,,,,,,,,,,,,,,,,203.85524770000484,203.8713758000231,204.3549743000185,,,,,,,,,,,,,,204.3716239000205,,,,,,,,,,,,,204.36378169999807,204.3716239000205,204.3716239000205,204.3716239000205,207.35514990001684,f,1.5060662000032607,0.1356140999996569,207.35519800000475,207.3552090000012,None,207.37134700000752,207.37134700000752,207.37134700000752,,,,,,,,,,,,,,00046,001,2026-01-17_18h21.17.024,MST_task,2024.2.0,59.91256360497875,2026-01-17 18h21.27.258308 +0530,
,Scenes\119a.jpg,14,0,15,,,,,,,j,1.6022482000116725,0.303950800007442,None,,,,,,15,0,14,207.37134700000752,,,,,,,,,,,,,,,,,,,,,,,,,,,,,,207.35530620001373,207.37134700000752,207.85494109999854,,,,,,,,,,,,,,207.87559130002046,,,,,,,,,,,,,207.8731198000023,207.87559130002046,207.87559130002046,207.87559130002046,210.8719558000157,j,1.6022482000116725,0.303950800007442,210.87359160001506,210.8736101000104,None,,,,,,,,,,,,,,,,,00046,001,2026-01-17_18h21.17.024,MST_task,2024.2.0,59.91256360497875,2026-01-17 18h21.27.258308 +0530,
,Scenes\073a.jpg,15,0,16,,,,,,,j,0.7526101999974344,0.15251419998821802,None,,,,,,16,0,15,210.88796510000248,,,,,,,,,,,,,,,,,,,,,,,,,,,,,,210.87371350001195,210.88796510000248,211.3716301000095,,,,,,,,,,,,,,211.3886822000204,,,,,,,,,,,,,211.3856595000252,211.3886822000204,211.3886822000204,211.3886822000204,214.37204500002554,j,0.7526101999974344,0.15251419998821802,214.37208900001133,214.37209950000397,None,214.3880724000046,214.3880724000046,214.3880724000046,,,,,,,,,,,,,,00046,001,2026-01-17_18h21.17.024,MST_task,2024.2.0,59.91256360497875,2026-01-17 18h21.27.258308 +0530,
,Scenes\010a.jpg,16,0,17,,,,,,,j,0.7463030999933835,0.1432550000026822,None,,,,,,17,0,16,214.3880724000046,,,,,,,,,,,,,,,,,,,,,,,,,,,,,,214.37220610000077,214.3880724000046,214.8719786000147,,,,,,,,,,,,,,214.8917598000262,,,,,,,,,,,,,214.889422200009,214.8917598000262,214.8917598000262,214.8917598000262,217.8882897000003,j,0.7463030999933835,0.1432550000026822,217.8883322000038,217.88834470001166,None,,,,,,,,,,,,,,,,,00046,001,2026-01-17_18h21.17.024,MST_task,2024.2.0,59.91256360497875,2026-01-17 18h21.27.258308 +0530,
,Scenes\061a.jpg,17,0,18,,,,,,,j,1.1999841000069864,0.12804109998978674,None,,,,,,18,0,17,217.90467710001394,,,,,,,,,,,,,,,,,,,,,,,,,,,,,,217.88844480001717,217.90467710001394,218.38832460000413,,,,,,,,,,,,,,218.40527040002053,,,,,,,,,,,,,218.40035510002053,218.40527040002053,218.40527040002053,218.40527040002053,221.38852120001684,j,1.1999841000069864,0.12804109998978674,221.38856210000813,221.38857320000534,None,221.40468260002672,221.40468260002672,221.40468260002672,,,,,,,,,,,,,,00046,001,2026-01-17_18h21.17.024,MST_task,2024.2.0,59.91256360497875,2026-01-17 18h21.27.258308 +0530,
,Scenes\141a.jpg,18,0,19,,,,,,,j,0.8929300000017975,0.13599479998811148,None,,,,,,19,0,18,221.40468260002672,,,,,,,,,,,,,,,,,,,,,,,,,,,,,,221.3886698000133,221.40468260002672,221.88821970002027,,,,,,,,,,,,,,221.9050759000238,,,,,,,,,,,,,221.89957810001215,221.9050759000238,221.9050759000238,221.9050759000238,224.88861770002404,j,0.8929300000017975,0.13599479998811148,224.8886595000222,224.88867040001787,None,224.9046640000015,224.9046640000015,224.9046640000015,,,,,,,,,,,,,,00046,001,2026-01-17_18h21.17.024,MST_task,2024.2.0,59.91256360497875,2026-01-17 18h21.27.258308 +0530,
,Scenes\062a.jpg,19,0,20,,,,,,,j,1.2882097999972757,0.11192809999920428,None,,,,,,20,0,19,224.9046640000015,,,,,,,,,,,,,,,,,,,,,,,,,,,,,,224.88876700002584,224.9046640000015,225.38812090002466,,,,,,,,,,,,,,225.40522090002196,,,,,,,,,,,,,225.39890540001215,225.40522090002196,225.40522090002196,225.40522090002196,228.38844040001277,j,1.2882097999972757,0.11192809999920428,228.38848360002157,228.3884944000165,None,228.4046143000014,228.4046143000014,228.4046143000014,,,,,,,,,,,,,,00046,001,2026-01-17_18h21.17.024,MST_task,2024.2.0,59.91256360497875,2026-01-17 18h21.27.258308 +0530,
,Scenes\177a.jpg,20,0,21,,,,,,,j,0.7726862000126857,0.0955316000035964,None,,,,,,21,0,20,228.4046143000014,,,,,,,,,,,,,,,,,,,,,,,,,,,,,,228.38859080002294,228.4046143000014,228.88816570001654,,,,,,,,,,,,,,228.90515080001205,,,,,,,,,,,,,228.9015567000024,228.90515080001205,228.90515080001205,228.90515080001205,231.8885195000039,j,0.7726862000126857,0.0955316000035964,231.8885606000258,231.88857170002302,None,231.90458080000826,231.90458080000826,231.90458080000826,,,,,,,,,,,,,,00046,001,2026-01-17_18h21.17.024,MST_task,2024.2.0,59.91256360497875,2026-01-17 18h21.27.258308 +0530,
,Objects\093a.jpg,21,0,22,,,,,,,f,0.8726927999814507,0.17671420000260696,None,,,,,,22,0,21,231.90458080000826,,,,,,,,,,,,,,,,,,,,,,,,,,,,,,231.8886364000209,231.90458080000826,232.3881909000047,,,,,,,,,,,,,,232.4050724999979,,,,,,,,,,,,,232.40018990001408,232.4050724999979,232.4050724999979,232.4050724999979,235.38841100002173,f,0.8726927999814507,0.17671420000260696,235.39046439999947,235.3904822000186,None,235.40460150002036,235.40460150002036,235.40460150002036,,,,,,,,,,,,,,00046,001,2026-01-17_18h21.17.024,MST_task,2024.2.0,59.91256360497875,2026-01-17 18h21.27.258308 +0530,
,Objects\159a.jpg,22,0,23,,,,,,,f,0.7889103000052273,0.11209179999423213,None,,,,,,23,0,22,235.40460150002036,,,,,,,,,,,,,,,,,,,,,,,,,,,,,,235.3905522999994,235.40460150002036,235.88827690001926,,,,,,,,,,,,,,235.90486210002564,,,,,,,,,,,,,235.89791530001094,235.90486210002564,235.90486210002564,235.90486210002564,238.88848860000144,f,0.7889103000052273,0.11209179999423213,238.88853120000567,238.88854140002513,None,238.90460610002629,238.90460610002629,238.90460610002629,,,,,,,,,,,,,,00046,001,2026-01-17_18h21.17.024,MST_task,2024.2.0,59.91256360497875,2026-01-17 18h21.27.258308 +0530,
,Objects\124a.jpg,23,0,24,,,,,,,j,1.689205700007733,0.15991099999519065,None,,,,,,24,0,23,238.90460610002629,,,,,,,,,,,,,,,,,,,,,,,,,,,,,,238.88863780000247,238.90460610002629,239.3901495000173,,,,,,,,,,,,,,239.40484940001625,,,,,,,,,,,,,239.39261470001657,239.40484940001625,239.40484940001625,239.40484940001625,242.3885917000007,j,1.689205700007733,0.15991099999519065,242.38863860000856,242.38865010000882,None,242.40461050000158,242.40461050000158,242.40461050000158,,,,,,,,,,,,,,00046,001,2026-01-17_18h21.17.024,MST_task,2024.2.0,59.91256360497875,2026-01-17 18h21.27.258308 +0530,
,Objects\190a.jpg,24,0,25,,,,,,,f,1.3253713000158314,0.11999629999627359,None,,,,,,25,0,24,242.40461050000158,,,,,,,,,,,,,,,,,,,,,,,,,,,,,,242.3887588000216,242.40461050000158,242.88817550000385,,,,,,,,,,,,,,242.9049367000116,,,,,,,,,,,,,242.8970802000258,242.9049367000116,242.9049367000116,242.9049367000116,245.88847510001506,f,1.3253713000158314,0.11999629999627359,245.88851650001016,245.8885278000089,None,245.9045934000169,245.9045934000169,245.9045934000169,,,,,,,,,,,,,,00046,001,2026-01-17_18h21.17.024,MST_task,2024.2.0,59.91256360497875,2026-01-17 18h21.27.258308 +0530,
,Objects\148a.jpg,25,0,26,,,,,,,f,2.345438699994702,0.12763730000006035,None,,,,,,26,0,25,245.9045934000169,,,,,,,,,,,,,,,,,,,,,,,,,,,,,,245.8885940000182,245.9045934000169,246.3881595999992,,,,,,,,,,,,,,246.40485610000906,,,,,,,,,,,,,246.39733420000994,246.40485610000906,246.40485610000906,246.40485610000906,249.38841220000177,f,2.345438699994702,0.12763730000006035,249.38845520000905,249.3884662000055,None,249.40462040001876,249.40462040001876,249.40462040001876,,,,,,,,,,,,,,00046,001,2026-01-17_18h21.17.024,MST_task,2024.2.0,59.91256360497875,2026-01-17 18h21.27.258308 +0530,
,Objects\018a.jpg,26,0,27,,,,,,,f,1.3565114999946672,0.11999550001928583,None,,,,,,27,0,26,249.40462040001876,,,,,,,,,,,,,,,,,,,,,,,,,,,,,,249.38853029999882,249.40462040001876,249.88830620000954,,,,,,,,,,,,,,249.90485590000753,,,,,,,,,,,,,249.89744420000352,249.90485590000753,249.90485590000753,249.90485590000753,252.88871130000916,f,1.3565114999946672,0.11999550001928583,252.88878920002026,252.88880110002356,None,252.9046252000262,252.9046252000262,252.9046252000262,,,,,,,,,,,,,,00046,001,2026-01-17_18h21.17.024,MST_task,2024.2.0,59.91256360497875,2026-01-17 18h21.27.258308 +0530,
,Objects\109a.jpg,27,0,28,,,,,,,j,1.1044575999840163,0.16867810001713224,None,,,,,,28,0,27,252.9046252000262,,,,,,,,,,,,,,,,,,,,,,,,,,,,,,252.88886710000224,252.9046252000262,253.38820790001773,,,,,,,,,,,,,,253.4047768000164,,,,,,,,,,,,,253.39085740002338,253.4047768000164,253.4047768000164,253.4047768000164,256.38844720000634,j,1.1044575999840163,0.16867810001713224,256.3884889000037,256.38850000000093,None,256.40459250001004,256.40459250001004,256.40459250001004,,,,,,,,,,,,,,00046,001,2026-01-17_18h21.17.024,MST_task,2024.2.0,59.91256360497875,2026-01-17 18h21.27.258308 +0530,
,Scenes\074a.jpg,28,0,29,,,,,,,j,1.489067700022133,0.16929189997608773,None,,,,,,29,0,28,256.40459250001004,,,,,,,,,,,,,,,,,,,,,,,,,,,,,,256.38860470001237,256.40459250001004,256.88852120001684,,,,,,,,,,,,,,256.91631200001575,,,,,,,,,,,,,256.9135376000195,256.91631200001575,256.91631200001575,256.91631200001575,259.90488020001794,j,1.489067700022133,0.16929189997608773,259.9065210999979,259.90653990002465,None,,,,,,,,,,,,,,,,,00046,001,2026-01-17_18h21.17.024,MST_task,2024.2.0,59.91256360497875,2026-01-17 18h21.27.258308 +0530,
,Scenes\170a.jpg,29,0,30,,,,,,,j,1.5195919999969192,0.17502550000790507,None,,,,,,30,0,29,259.92111110000405,,,,,,,,,,,,,,,,,,,,,,,,,,,,,,259.9066409000079,259.92111110000405,260.4049116000242,,,,,,,,,,,,,,260.4236501000123,,,,,,,,,,,,,260.4215469000046,260.4236501000123,260.4236501000123,260.4236501000123,263.4214342000196,j,1.5195919999969192,0.17502550000790507,263.4214765000215,263.4214885000256,None,,,,,,,,,,,,,,,,,00046,001,2026-01-17_18h21.17.024,MST_task,2024.2.0,59.91256360497875,2026-01-17 18h21.27.258308 +0530,
,Scenes\146a.jpg,30,0,31,,,,,,,j,1.211325800017221,0.1279307999939192,None,,,,,,31,0,30,263.4379675000091,,,,,,,,,,,,,,,,,,,,,,,,,,,,,,263.4215550000081,263.4379675000091,263.92138150002575,,,,,,,,,,,,,,263.9385179000092,,,,,,,,,,,,,263.93272330000764,263.9385179000092,263.9385179000092,263.9385179000092,266.92170260002604,j,1.211325800017221,0.1279307999939192,266.9217462000088,266.92175690000295,None,266.93794980001985,266.93794980001985,266.93794980001985,,,,,,,,,,,,,,00046,001,2026-01-17_18h21.17.024,MST_task,2024.2.0,59.91256360497875,2026-01-17 18h21.27.258308 +0530,
,Scenes\066a.jpg,31,0,32,,,,,,,j,1.2073701999906916,0.1282818000181578,None,,,,,,32,0,31,266.93794980001985,,,,,,,,,,,,,,,,,,,,,,,,,,,,,,266.92185569999856,266.93794980001985,267.4214038000209,,,,,,,,,,,,,,267.4385142000101,,,,,,,,,,,,,267.4325307000254,267.4385142000101,267.4385142000101,267.4385142000101,270.4217067999998,j,1.2073701999906916,0.1282818000181578,270.42174910000176,270.42176029999973,None,270.4379540000227,270.4379540000227,270.4379540000227,,,,,,,,,,,,,,00046,001,2026-01-17_18h21.17.024,MST_task,2024.2.0,59.91256360497875,2026-01-17 18h21.27.258308 +0530,
,Scenes\166a.jpg,32,0,33,,,,,,,j,0.8917568000033498,0.12733590000425465,None,,,,,,33,0,32,270.4379540000227,,,,,,,,,,,,,,,,,,,,,,,,,,,,,,270.4218566000054,270.4379540000227,270.9213902000047,,,,,,,,,,,,,,270.93840050001745,,,,,,,,,,,,,270.93318870000076,270.93840050001745,270.93840050001745,270.93840050001745,273.92163550000987,j,0.8917568000033498,0.12733590000425465,273.92167800001334,273.92168860000675,None,273.93796010001097,273.93796010001097,273.93796010001097,,,,,,,,,,,,,,00046,001,2026-01-17_18h21.17.024,MST_task,2024.2.0,59.91256360497875,2026-01-17 18h21.27.258308 +0530,
,Scenes\035a.jpg,33,0,34,,,,,,,j,1.3722783999983221,0.15247949998592958,None,,,,,,34,0,33,273.93796010001097,,,,,,,,,,,,,,,,,,,,,,,,,,,,,,273.9217542000115,273.93796010001097,274.4214517000073,,,,,,,,,,,,,,274.44117610002286,,,,,,,,,,,,,274.4386834000179,274.44117610002286,274.44117610002286,274.44117610002286,277.4381654000026,j,1.3722783999983221,0.15247949998592958,277.43820830000914,277.43822020001244,None,,,,,,,,,,,,,,,,,00046,001,2026-01-17_18h21.17.024,MST_task,2024.2.0,59.91256360497875,2026-01-17 18h21.27.258308 +0530,
,Scenes\163a.jpg,34,0,35,,,,,,,j,1.4197194000007585,0.09499050001613796,None,,,,,,35,0,34,277.45462030000635,,,,,,,,,,,,,,,,,,,,,,,,,,,,,,277.43828770000255,277.45462030000635,277.93819710001117,,,,,,,,,,,,,,277.9551604000153,,,,,,,,,,,,,277.95004140000674,277.9551604000153,277.9551604000153,277.9551604000153,280.938420600025,j,1.4197194000007585,0.09499050001613796,280.938466600026,280.93847790002474,None,280.95463040002505,280.95463040002505,280.95463040002505,,,,,,,,,,,,,,00046,001,2026-01-17_18h21.17.024,MST_task,2024.2.0,59.91256360497875,2026-01-17 18h21.27.258308 +0530,
,Objects\043a.jpg,35,0,36,,,,,,,f,1.591186600009678,0.16836179999518208,None,,,,,,36,0,35,280.95463040002505,,,,,,,,,,,,,,,,,,,,,,,,,,,,,,280.93857720002416,280.95463040002505,281.4381171000132,,,,,,,,,,,,,,281.45511580002494,,,,,,,,,,,,,281.44938080001157,281.45511580002494,281.45511580002494,281.45511580002494,284.43854640002246,f,1.591186600009678,0.16836179999518208,284.4405956999981,284.44061650001095,None,284.4546344000264,284.4546344000264,284.4546344000264,,,,,,,,,,,,,,00046,001,2026-01-17_18h21.17.024,MST_task,2024.2.0,59.91256360497875,2026-01-17 18h21.27.258308 +0530,
,Objects\076a.jpg,36,0,37,,,,,,,f,0.9231458000140265,0.11999939999077469,None,,,,,,37,0,36,284.4546344000264,,,,,,,,,,,,,,,,,,,,,,,,,,,,,,284.4406956000021,284.4546344000264,284.9381386000023,,,,,,,,,,,,,,284.9548015000182,,,,,,,,,,,,,284.9470657000202,284.9548015000182,284.9548015000182,284.9548015000182,287.9384793000063,f,0.9231458000140265,0.11999939999077469,287.9385222000128,287.9385331000085,None,287.9547273000062,287.9547273000062,287.9547273000062,,,,,,,,,,,,,,00046,001,2026-01-17_18h21.17.024,MST_task,2024.2.0,59.91256360497875,2026-01-17 18h21.27.258308 +0530,
,Objects\113a.jpg,37,0,38,,,,,,,f,1.5428119999996852,0.1439861999824643,None,,,,,,38,0,37,287.9547273000062,,,,,,,,,,,,,,,,,,,,,,,,,,,,,,287.938629900018,287.9547273000062,288.4382123000105,,,,,,,,,,,,,,288.45490020001307,,,,,,,,,,,,,288.44097300001886,288.45490020001307,288.45490020001307,288.45490020001307,291.4385285000026,f,1.5428119999996852,0.1439861999824643,291.43857180001214,291.4385830000101,None,291.45473080000374,291.45473080000374,291.45473080000374,,,,,,,,,,,,,,00046,001,2026-01-17_18h21.17.024,MST_task,2024.2.0,59.91256360497875,2026-01-17 18h21.27.258308 +0530,
,Objects\020a.jpg,38,0,39,,,,,,,f,1.2267634000163525,0.1043368999962695,None,,,,,,39,0,38,291.45473080000374,,,,,,,,,,,,,,,,,,,,,,,,,,,,,,291.43864860001486,291.45473080000374,291.938135400007,,,,,,,,,,,,,,291.95486610001535,,,,,,,,,,,,,291.9469081000134,291.95486610001535,291.95486610001535,291.95486610001535,294.9384896999982,f,1.2267634000163525,0.1043368999962695,294.9385320000001,294.9385431999981,None,294.9547363000165,294.9547363000165,294.9547363000165,,,,,,,,,,,,,,00046,001,2026-01-17_18h21.17.024,MST_task,2024.2.0,59.91256360497875,2026-01-17 18h21.27.258308 +0530,
,Objects\102a.jpg,39,0,40,,,,,,,j,1.6391293999913614,0.15241469998727553,None,,,,,,40,0,39,294.9547363000165,,,,,,,,,,,,,,,,,,,,,,,,,,,,,,294.9386392000015,294.9547363000165,295.43826540000737,,,,,,,,,,,,,,295.4548963000125,,,,,,,,,,,,,295.4410901000083,295.4548963000125,295.4548963000125,295.4548963000125,298.4385779000004,j,1.6391293999913614,0.15241469998727553,298.43861940002535,298.4386304000218,None,298.4547428000078,298.4547428000078,298.4547428000078,,,,,,,,,,,,,,00046,001,2026-01-17_18h21.17.024,MST_task,2024.2.0,59.91256360497875,2026-01-17 18h21.27.258308 +0530,
,Objects\034a.jpg,40,0,41,,,,,,,f,0.930581099994015,0.13701659999787807,None,,,,,,41,0,40,298.4547428000078,,,,,,,,,,,,,,,,,,,,,,,,,,,,,,298.43869600002654,298.4547428000078,298.9383455000061,,,,,,,,,,,,,,298.95496699999785,,,,,,,,,,,,,298.94108190000406,298.95496699999785,298.95496699999785,298.95496699999785,301.9388154000044,f,0.930581099994015,0.13701659999787807,301.93886080000084,301.9388718000264,None,301.95460890000686,301.95460890000686,301.95460890000686,,,,,,,,,,,,,,00046,001,2026-01-17_18h21.17.024,MST_task,2024.2.0,59.91256360497875,2026-01-17 18h21.27.258308 +0530,
,Objects\064a.jpg,41,0,42,,,,,,,f,0.9263098000083119,0.1279367000097409,None,,,,,,42,0,41,301.95460890000686,,,,,,,,,,,,,,,,,,,,,,,,,,,,,,301.9389751999988,301.95460890000686,302.4383835000044,,,,,,,,,,,,,,302.45501380000496,,,,,,,,,,,,,302.4471632000059,302.45501380000496,302.45501380000496,302.45501380000496,305.4387740000093,f,0.9263098000083119,0.1279367000097409,305.4388250000193,305.43883590001496,None,305.4546406000154,305.4546406000154,305.4546406000154,,,,,,,,,,,,,,00046,001,2026-01-17_18h21.17.024,MST_task,2024.2.0,59.91256360497875,2026-01-17 18h21.27.258308 +0530,
,Scenes\134a.jpg,42,0,43,,,,,,,j,2.107013700006064,0.11208399999304675,None,,,,,,43,0,42,305.4546406000154,,,,,,,,,,,,,,,,,,,,,,,,,,,,,,305.4389396000188,305.4546406000154,305.9384055999981,,,,,,,,,,,,,,305.9550613000174,,,,,,,,,,,,,305.95011170001817,305.9550613000174,305.9550613000174,305.9550613000174,308.9387628000113,j,2.107013700006064,0.11208399999304675,308.9405100000149,308.9405264000234,None,308.954656100017,308.954656100017,308.954656100017,,,,,,,,,,,,,,00046,001,2026-01-17_18h21.17.024,MST_task,2024.2.0,59.91256360497875,2026-01-17 18h21.27.258308 +0530,
,Scenes\038a.jpg,43,0,44,,,,,,,j,1.238382699986687,0.0883425000065472,None,,,,,,44,0,43,308.954656100017,,,,,,,,,,,,,,,,,,,,,,,,,,,,,,308.9406321000133,308.954656100017,309.43829109999933,,,,,,,,,,,,,,309.45545310000307,,,,,,,,,,,,,309.4482454000099,309.45545310000307,309.45545310000307,309.45545310000307,312.4386115000234,j,1.238382699986687,0.0883425000065472,312.4386537000246,312.43866440001875,None,312.4547522000212,312.4547522000212,312.4547522000212,,,,,,,,,,,,,,00046,001,2026-01-17_18h21.17.024,MST_task,2024.2.0,59.91256360497875,2026-01-17 18h21.27.258308 +0530,
,Scenes\123a.jpg,44,0,45,,,,,,,j,1.1860783000010997,0.15248049999354407,None,,,,,,45,0,44,312.4547522000212,,,,,,,,,,,,,,,,,,,,,,,,,,,,,,312.43876190000447,312.4547522000212,312.9383443000261,,,,,,,,,,,,,,312.9554587000166,,,,,,,,,,,,,312.9502682000166,312.9554587000166,312.9554587000166,312.9554587000166,315.9389476000215,j,1.1860783000010997,0.15248049999354407,315.9389936000225,315.9390047000197,None,315.9547744000156,315.9547744000156,315.9547744000156,,,,,,,,,,,,,,00046,001,2026-01-17_18h21.17.024,MST_task,2024.2.0,59.91256360497875,2026-01-17 18h21.27.258308 +0530,
,Scenes\161a.jpg,45,0,46,,,,,,,j,0.8211676000209991,0.11892829998396337,None,,,,,,46,0,45,315.9547744000156,,,,,,,,,,,,,,,,,,,,,,,,,,,,,,315.93911250002566,315.9547744000156,316.43816690001404,,,,,,,,,,,,,,316.4572146999999,,,,,,,,,,,,,316.4548141999985,316.4572146999999,316.4572146999999,316.4572146999999,319.45481390002533,j,0.8211676000209991,0.11892829998396337,319.4548561000265,319.45486769999843,None,,,,,,,,,,,,,,,,,00046,001,2026-01-17_18h21.17.024,MST_task,2024.2.0,59.91256360497875,2026-01-17 18h21.27.258308 +0530,
,Scenes\175a.jpg,46,0,47,,,,,,,j,1.3059853999875486,0.12901679999777116,None,,,,,,47,0,46,319.47114700000384,,,,,,,,,,,,,,,,,,,,,,,,,,,,,,319.454970700026,319.47114700000384,319.95487720001256,,,,,,,,,,,,,,319.97186030002194,,,,,,,,,,,,,319.9684843000141,319.97186030002194,319.97186030002194,319.97186030002194,322.9550395999977,j,1.3059853999875486,0.12901679999777116,322.9550890000246,322.9551016000041,None,,,,,,,,,,,,,,,,,00046,001,2026-01-17_18h21.17.024,MST_task,2024.2.0,59.91256360497875,2026-01-17 18h21.27.258308 +0530,
,Scenes\171a.jpg,47,0,48,,,,,,,f,1.306194200005848,0.1839793999970425,None,,,,,,48,0,47,322.97128430000157,,,,,,,,,,,,,,,,,,,,,,,,,,,,,,322.9551765000215,322.97128430000157,323.4549263000081,,,,,,,,,,,,,,323.4751636000001,,,,,,,,,,,,,323.47252050001407,323.4751636000001,323.4751636000001,323.4751636000001,326.4713634000218,f,1.306194200005848,0.1839793999970425,326.471405600023,326.471417200024,None,,,,,,,,,,,,,,,,,00046,001,2026-01-17_18h21.17.024,MST_task,2024.2.0,59.91256360497875,2026-01-17 18h21.27.258308 +0530,
,Scenes\040a.jpg,48,0,49,,,,,,,j,1.8073811999929603,0.26318219999666326,None,,,,,,49,0,48,326.4879790999985,,,,,,,,,,,,,,,,,,,,,,,,,,,,,,326.47151670002495,326.4879790999985,326.9714864999987,,,,,,,,,,,,,,326.9906685000169,,,,,,,,,,,,,326.9880893000227,326.9906685000169,326.9906685000169,326.9906685000169,329.98821330000646,j,1.8073811999929603,0.26318219999666326,329.98827080000774,329.9882828000118,None,,,,,,,,,,,,,,,,,00046,001,2026-01-17_18h21.17.024,MST_task,2024.2.0,59.91256360497875,2026-01-17 18h21.27.258308 +0530,
,Objects\127a.jpg,49,0,50,,,,,,,f,2.1160438999941107,0.16085680000833236,None,,,,,,50,0,49,330.0047156000219,,,,,,,,,,,,,,,,,,,,,,,,,,,,,,329.98839030001545,330.0047156000219,330.48828160000267,,,,,,,,,,,,,,330.505233200005,,,,,,,,,,,,,330.49981150001986,330.505233200005,330.505233200005,330.505233200005,333.4884740000125,f,2.1160438999941107,0.16085680000833236,333.4904968000192,333.4905146000092,None,333.50464710002416,333.50464710002416,333.50464710002416,,,,,,,,,,,,,,00046,001,2026-01-17_18h21.17.024,MST_task,2024.2.0,59.91256360497875,2026-01-17 18h21.27.258308 +0530,
,Objects\075a.jpg,50,0,51,,,,,,,f,0.7290305999922566,0.13537060000817291,None,,,,,,51,0,50,333.50464710002416,,,,,,,,,,,,,,,,,,,,,,,,,,,,,,333.4905836000107,333.50464710002416,333.9882905000122,,,,,,,,,,,,,,334.00488620001124,,,,,,,,,,,,,333.9970197000075,334.00488620001124,334.00488620001124,334.00488620001124,336.9887325000018,f,0.7290305999922566,0.13537060000817291,336.9887803000165,336.9887920000183,None,337.00461680002627,337.00461680002627,337.00461680002627,,,,,,,,,,,,,,00046,001,2026-01-17_18h21.17.024,MST_task,2024.2.0,59.91256360497875,2026-01-17 18h21.27.258308 +0530,
,Objects\108a.jpg,51,0,52,,,,,,,j,1.1492070999811403,0.14314540001214482,None,,,,,,52,0,51,337.00461680002627,,,,,,,,,,,,,,,,,,,,,,,,,,,,,,336.9889006000012,337.00461680002627,337.4884973000153,,,,,,,,,,,,,,337.5049217000196,,,,,,,,,,,,,337.49717590000364,337.5049217000196,337.5049217000196,337.5049217000196,340.4886036000098,j,1.1492070999811403,0.14314540001214482,340.48864750002394,340.4886585000204,None,340.50458240002627,340.50458240002627,340.50458240002627,,,,,,,,,,,,,,00046,001,2026-01-17_18h21.17.024,MST_task,2024.2.0,59.91256360497875,2026-01-17 18h21.27.258308 +0530,
,Objects\063a.jpg,52,0,53,,,,,,,f,0.8973422000126448,0.14387910001096316,None,,,,,,53,0,52,340.50458240002627,,,,,,,,,,,,,,,,,,,,,,,,,,,,,,340.48875489999773,340.50458240002627,340.98820970000816,,,,,,,,,,,,,,341.0048627000069,,,,,,,,,,,,,340.99084589999984,341.0048627000069,341.0048627000069,341.0048627000069,343.98884070001077,f,0.8973422000126448,0.14387910001096316,343.9888898000063,343.988901100005,None,344.00466289999895,344.00466289999895,344.00466289999895,,,,,,,,,,,,,,00046,001,2026-01-17_18h21.17.024,MST_task,2024.2.0,59.91256360497875,2026-01-17 18h21.27.258308 +0530,
,Objects\010a.jpg,53,0,54,,,,,,,f,1.3253989999939222,0.15200020000338554,None,,,,,,54,0,53,344.00466289999895,,,,,,,,,,,,,,,,,,,,,,,,,,,,,,343.9890277000086,344.00466289999895,344.4882104000135,,,,,,,,,,,,,,344.50483210000675,,,,,,,,,,,,,344.4970736000105,344.50483210000675,344.50483210000675,344.50483210000675,347.48863350000465,f,1.3253989999939222,0.15200020000338554,347.4886746999982,347.4886859000253,None,347.50465720001375,347.50465720001375,347.50465720001375,,,,,,,,,,,,,,00046,001,2026-01-17_18h21.17.024,MST_task,2024.2.0,59.91256360497875,2026-01-17 18h21.27.258308 +0530,
,Objects\183a.jpg,54,0,55,,,,,,,j,0.9367058000061661,0.14380700001493096,None,,,,,,55,0,54,347.50465720001375,,,,,,,,,,,,,,,,,,,,,,,,,,,,,,347.48875050002243,347.50465720001375,347.988285200001,,,,,,,,,,,,,,348.0048178000143,,,,,,,,,,,,,347.997453900025,348.0048178000143,348.0048178000143,348.0048178000143,350.98858670002664,j,0.9367058000061661,0.14380700001493096,350.9886285000248,350.98863890001667,None,351.00458480001544,351.00458480001544,351.00458480001544,,,,,,,,,,,,,,00046,001,2026-01-17_18h21.17.024,MST_task,2024.2.0,59.91256360497875,2026-01-17 18h21.27.258308 +0530,
,Objects\118a.jpg,55,0,56,,,,,,,f,1.5811412999755703,0.16017470002407208,None,,,,,,56,0,55,351.00458480001544,,,,,,,,,,,,,,,,,,,,,,,,,,,,,,350.9887350000208,351.00458480001544,351.4882698000001,,,,,,,,,,,,,,351.50492630002555,,,,,,,,,,,,,351.4975768000004,351.50492630002555,351.50492630002555,351.50492630002555,354.4885703000182,f,1.5811412999755703,0.16017470002407208,354.4886111000087,354.4886217000021,None,354.5046566000092,354.5046566000092,354.5046566000092,,,,,,,,,,,,,,00046,001,2026-01-17_18h21.17.024,MST_task,2024.2.0,59.91256360497875,2026-01-17 18h21.27.258308 +0530,
,Scenes\025a.jpg,56,0,57,,,,,,,j,1.530522999993991,0.13532650002161972,None,,,,,,57,0,56,354.5046566000092,,,,,,,,,,,,,,,,,,,,,,,,,,,,,,354.48868780001067,354.5046566000092,354.98837740000454,,,,,,,,,,,,,,355.01178870000876,,,,,,,,,,,,,355.0093423000071,355.01178870000876,355.01178870000876,355.01178870000876,358.00491050002165,j,1.530522999993991,0.13532650002161972,358.0066935000068,358.00671250000596,None,,,,,,,,,,,,,,,,,00046,001,2026-01-17_18h21.17.024,MST_task,2024.2.0,59.91256360497875,2026-01-17 18h21.27.258308 +0530,
,Scenes\172a.jpg,57,0,58,,,,,,,j,0.8678257999999914,0.15192910001496784,None,,,,,,58,0,57,358.0211732000171,,,,,,,,,,,,,,,,,,,,,,,,,,,,,,358.00678190001054,358.0211732000171,358.50491150000016,,,,,,,,,,,,,,358.52189930001623,,,,,,,,,,,,,358.5183791000163,358.52189930001623,358.52189930001623,358.52189930001623,361.5051949000044,j,0.8678257999999914,0.15192910001496784,361.50523780001095,361.5052490000089,None,361.5211519000004,361.5211519000004,361.5211519000004,,,,,,,,,,,,,,00046,001,2026-01-17_18h21.17.024,MST_task,2024.2.0,59.91256360497875,2026-01-17 18h21.27.258308 +0530,
,Scenes\109a.jpg,58,0,59,,,,,,,j,1.4874308000144083,0.1371279000013601,None,,,,,,59,0,58,361.5211519000004,,,,,,,,,,,,,,,,,,,,,,,,,,,,,,361.50532580001163,361.5211519000004,362.0048534000234,,,,,,,,,,,,,,362.0219963999989,,,,,,,,,,,,,362.01958210000885,362.0219963999989,362.0219963999989,362.0219963999989,365.0052786000015,j,1.4874308000144083,0.1371279000013601,365.0053262000147,365.00533690000884,None,365.02117660001386,365.02117660001386,365.02117660001386,,,,,,,,,,,,,,00046,001,2026-01-17_18h21.17.024,MST_task,2024.2.0,59.91256360497875,2026-01-17 18h21.27.258308 +0530,
,Scenes\121a.jpg,59,0,60,,,,,,,j,0.7463187999965157,0.1440026000200305,None,,,,,,60,0,59,365.02117660001386,,,,,,,,,,,,,,,,,,,,,,,,,,,,,,365.0054020000098,365.02117660001386,365.5050548000145,,,,,,,,,,,,,,365.52323040002375,,,,,,,,,,,,,365.52091070002643,365.52323040002375,365.52323040002375,365.52323040002375,368.52150240002084,j,0.7463187999965157,0.1440026000200305,368.52154560000054,368.52155669999775,None,,,,,,,,,,,,,,,,,00046,001,2026-01-17_18h21.17.024,MST_task,2024.2.0,59.91256360497875,2026-01-17 18h21.27.258308 +0530,
,Scenes\120a.jpg,60,0,61,,,,,,,j,0.6559218999755103,0.08799890000955202,None,,,,,,61,0,60,368.5379243000061,,,,,,,,,,,,,,,,,,,,,,,,,,,,,,368.52165810001316,368.5379243000061,369.02151220000815,,,,,,,,,,,,,,369.03863860000274,,,,,,,,,,,,,369.03623840000364,369.03863860000274,369.03863860000274,369.03863860000274,372.0217113000108,j,0.6559218999755103,0.08799890000955202,372.02175590000115,372.02176760000293,None,,,,,,,,,,,,,,,,,00046,001,2026-01-17_18h21.17.024,MST_task,2024.2.0,59.91256360497875,2026-01-17 18h21.27.258308 +0530,
,Scenes\090a.jpg,61,0,62,,,,,,,j,1.4092547000036575,0.1278114999877289,None,,,,,,62,0,61,372.0380398000125,,,,,,,,,,,,,,,,,,,,,,,,,,,,,,372.02187520000734,372.0380398000125,372.52143660001457,,,,,,,,,,,,,,372.54109000001336,,,,,,,,,,,,,372.53859490001923,372.54109000001336,372.54109000001336,372.54109000001336,375.53827220000676,j,1.4092547000036575,0.1278114999877289,375.53831360000186,375.5383252000029,None,,,,,,,,,,,,,,,,,00046,001,2026-01-17_18h21.17.024,MST_task,2024.2.0,59.91256360497875,2026-01-17 18h21.27.258308 +0530,
,Scenes\039a.jpg,62,0,63,,,,,,,j,0.9911752000043634,0.1352820000029169,None,,,,,,63,0,62,375.55457639999804,,,,,,,,,,,,,,,,,,,,,,,,,,,,,,375.5384361000033,375.55457639999804,376.0381907999981,,,,,,,,,,,,,,376.0551306999987,,,,,,,,,,,,,376.0440750000125,376.0551306999987,376.0551306999987,376.0551306999987,379.038437900017,j,0.9911752000043634,0.1352820000029169,379.0384788000083,379.0384899000055,None,379.05464050002047,379.05464050002047,379.05464050002047,,,,,,,,,,,,,,00046,001,2026-01-17_18h21.17.024,MST_task,2024.2.0,59.91256360497875,2026-01-17 18h21.27.258308 +0530,
,Objects\062a.jpg,63,0,64,,,,,,,f,1.507182900008047,0.14435729998513125,None,,,,,,64,0,63,379.05464050002047,,,,,,,,,,,,,,,,,,,,,,,,,,,,,,379.03858660001424,379.05464050002047,379.5383675000048,,,,,,,,,,,,,,379.55512699999963,,,,,,,,,,,,,379.5430888000119,379.55512699999963,379.55512699999963,379.55512699999963,382.5385806999984,f,1.507182900008047,0.14435729998513125,382.5406522999983,382.5406705000205,None,382.55463620001683,382.55463620001683,382.55463620001683,,,,,,,,,,,,,,00046,001,2026-01-17_18h21.17.024,MST_task,2024.2.0,59.91256360497875,2026-01-17 18h21.27.258308 +0530,
,Objects\134a.jpg,64,0,65,,,,,,,j,1.3431484999891836,0.16792249999707565,None,,,,,,65,0,64,382.55463620001683,,,,,,,,,,,,,,,,,,,,,,,,,,,,,,382.5407380000106,382.55463620001683,383.038263000024,,,,,,,,,,,,,,383.0548708999995,,,,,,,,,,,,,383.04080330001307,383.0548708999995,383.0548708999995,383.0548708999995,386.0385151000228,j,1.3431484999891836,0.16792249999707565,386.03855779999867,386.03856870002346,None,386.0546518000192,386.0546518000192,386.0546518000192,,,,,,,,,,,,,,00046,001,2026-01-17_18h21.17.024,MST_task,2024.2.0,59.91256360497875,2026-01-17 18h21.27.258308 +0530,
,Objects\150a.jpg,65,0,66,,,,,,,j,1.7070376999909058,0.20744500000728294,None,,,,,,66,0,65,386.0546518000192,,,,,,,,,,,,,,,,,,,,,,,,,,,,,,386.03866700001527,386.0546518000192,386.53834540001117,,,,,,,,,,,,,,386.55495410002186,,,,,,,,,,,,,386.5489639000152,386.55495410002186,386.55495410002186,386.55495410002186,389.5385285000084,j,1.7070376999909058,0.20744500000728294,389.53857030000654,389.538581300003,None,389.5546497000032,389.5546497000032,389.5546497000032,,,,,,,,,,,,,,00046,001,2026-01-17_18h21.17.024,MST_task,2024.2.0,59.91256360497875,2026-01-17 18h21.27.258308 +0530,
,Objects\087a.jpg,66,0,67,,,,,,,j,0.7589261000102852,0.17600720000336878,None,,,,,,67,0,66,389.5546497000032,,,,,,,,,,,,,,,,,,,,,,,,,,,,,,389.5386475000123,389.5546497000032,390.03825310000684,,,,,,,,,,,,,,390.0549014999997,,,,,,,,,,,,,390.04754010000033,390.0549014999997,390.0549014999997,390.0549014999997,393.03854520001914,j,0.7589261000102852,0.17600720000336878,393.0385887000011,393.0385996000259,None,393.0546489000262,393.0546489000262,393.0546489000262,,,,,,,,,,,,,,00046,001,2026-01-17_18h21.17.024,MST_task,2024.2.0,59.91256360497875,2026-01-17 18h21.27.258308 +0530,
,Objects\049a.jpg,67,0,68,,,,,,,f,2.6666708000120707,0.14398520000395365,None,,,,,,68,0,67,393.0546489000262,,,,,,,,,,,,,,,,,,,,,,,,,,,,,,393.0386967000086,393.0546489000262,393.5382948000042,,,,,,,,,,,,,,393.5549284000008,,,,,,,,,,,,,393.5474996000121,393.5549284000008,393.5549284000008,393.5549284000008,396.5385132000083,f,2.6666708000120707,0.14398520000395365,396.5385540999996,396.5385645000206,None,396.5546854000131,396.5546854000131,396.5546854000131,,,,,,,,,,,,,,00046,001,2026-01-17_18h21.17.024,MST_task,2024.2.0,59.91256360497875,2026-01-17 18h21.27.258308 +0530,
,Objects\080a.jpg,68,0,69,,,,,,,f,0.9669283000112046,0.16850010000052862,None,,,,,,69,0,68,396.5546854000131,,,,,,,,,,,,,,,,,,,,,,,,,,,,,,396.5386395000096,396.5546854000131,397.03818790000514,,,,,,,,,,,,,,397.0548031000071,,,,,,,,,,,,,397.04111330001615,397.0548031000071,397.0548031000071,397.0548031000071,400.0384697000263,f,0.9669283000112046,0.16850010000052862,400.038511700026,400.0385225000209,None,400.05465970002115,400.05465970002115,400.05465970002115,,,,,,,,,,,,,,00046,001,2026-01-17_18h21.17.024,MST_task,2024.2.0,59.91256360497875,2026-01-17 18h21.27.258308 +0530,
,Objects\175a.jpg,69,0,70,,,,,,,j,1.4670829999959096,0.14350189999095164,None,,,,,,70,0,69,400.05465970002115,,,,,,,,,,,,,,,,,,,,,,,,,,,,,,400.03858660001424,400.05465970002115,400.5382631000248,,,,,,,,,,,,,,400.5549798000138,,,,,,,,,,,,,400.54744300001767,400.5549798000138,400.5549798000138,400.5549798000138,403.53853460002574,j,1.4670829999959096,0.14350189999095164,403.5385764000239,403.5385870000173,None,403.5546370000229,403.5546370000229,403.5546370000229,,,,,,,,,,,,,,00046,001,2026-01-17_18h21.17.024,MST_task,2024.2.0,59.91256360497875,2026-01-17 18h21.27.258308 +0530,
,Scenes\026a.jpg,70,0,71,,,,,,,j,0.7855937000131235,0.1919900999928359,None,,,,,,71,0,70,403.5546370000229,,,,,,,,,,,,,,,,,,,,,,,,,,,,,,403.5386517000152,403.5546370000229,404.03826630002004,,,,,,,,,,,,,,404.06074030001764,,,,,,,,,,,,,404.0581545000023,404.06074030001764,404.06074030001764,404.06074030001764,407.05507370000123,j,0.7855937000131235,0.1919900999928359,407.05682210001396,407.05683950000093,None,,,,,,,,,,,,,,,,,00046,001,2026-01-17_18h21.17.024,MST_task,2024.2.0,59.91256360497875,2026-01-17 18h21.27.258308 +0530,
,Scenes\093a.jpg,71,0,72,,,,,,,f,0.9774491999996826,0.16800330000114627,None,,,,,,72,0,71,407.07134049999877,,,,,,,,,,,,,,,,,,,,,,,,,,,,,,407.05690880000475,407.07134049999877,407.55526740002097,,,,,,,,,,,,,,407.57203470001696,,,,,,,,,,,,,407.5654459000216,407.57203470001696,407.57203470001696,407.57203470001696,410.5554259000055,f,0.9774491999996826,0.16800330000114627,410.55546690002666,410.55547830002615,None,410.57138249999844,410.57138249999844,410.57138249999844,,,,,,,,,,,,,,00046,001,2026-01-17_18h21.17.024,MST_task,2024.2.0,59.91256360497875,2026-01-17 18h21.27.258308 +0530,
,Scenes\063a.jpg,72,0,73,,,,,,,j,1.0937149000237696,0.14417549999780022,None,,,,,,73,0,72,410.57138249999844,,,,,,,,,,,,,,,,,,,,,,,,,,,,,,410.5555772000225,410.57138249999844,411.0550570000196,,,,,,,,,,,,,,411.0720938000013,,,,,,,,,,,,,411.0638286000176,411.0720938000013,411.0720938000013,411.0720938000013,414.05541280002217,j,1.0937149000237696,0.14417549999780022,414.0554569000087,414.0554681000067,None,414.0713590000232,414.0713590000232,414.0713590000232,,,,,,,,,,,,,,00046,001,2026-01-17_18h21.17.024,MST_task,2024.2.0,59.91256360497875,2026-01-17 18h21.27.258308 +0530,
,Scenes\002a.jpg,73,0,74,,,,,,,j,1.3025501999945845,0.1520040000032168,None,,,,,,74,0,73,414.0713590000232,,,,,,,,,,,,,,,,,,,,,,,,,,,,,,414.05557510000654,414.0713590000232,414.554930000013,,,,,,,,,,,,,,414.57523960000253,,,,,,,,,,,,,414.57284530001925,414.57523960000253,414.57523960000253,414.57523960000253,417.5716765000252,j,1.3025501999945845,0.1520040000032168,417.571717600018,417.5717291000183,None,,,,,,,,,,,,,,,,,00046,001,2026-01-17_18h21.17.024,MST_task,2024.2.0,59.91256360497875,2026-01-17 18h21.27.258308 +0530,
,Scenes\189a.jpg,74,0,75,,,,,,,j,1.0589120000076946,0.15967559997807257,None,,,,,,75,0,74,417.5881553000072,,,,,,,,,,,,,,,,,,,,,,,,,,,,,,417.57183110000915,417.5881553000072,418.0716454000212,,,,,,,,,,,,,,418.09090540002217,,,,,,,,,,,,,418.0884135000233,418.09090540002217,418.09090540002217,418.09090540002217,421.08834720001323,j,1.0589120000076946,0.15967559997807257,421.0883873999992,421.08839910000097,None,,,,,,,,,,,,,,,,,00046,001,2026-01-17_18h21.17.024,MST_task,2024.2.0,59.91256360497875,2026-01-17 18h21.27.258308 +0530,
,Scenes\027a.jpg,75,0,76,,,,,,,f,1.880294300004607,0.15212730001076125,None,,,,,,76,0,75,421.1047777000058,,,,,,,,,,,,,,,,,,,,,,,,,,,,,,421.08846850000555,421.1047777000058,421.58845920002204,,,,,,,,,,,,,,421.60526270000264,,,,,,,,,,,,,421.602504200011,421.60526270000264,421.60526270000264,421.60526270000264,424.58848500001477,f,1.880294300004607,0.15212730001076125,424.5885258000053,424.588536700001,None,,,,,,,,,,,,,,,,,00046,001,2026-01-17_18h21.17.024,MST_task,2024.2.0,59.91256360497875,2026-01-17 18h21.27.258308 +0530,
,Scenes\106a.jpg,76,0,77,,,,,,,j,0.6826226999983191,0.17503660000511445,None,,,,,,77,0,76,424.6046988000162,,,,,,,,,,,,,,,,,,,,,,,,,,,,,,424.58860410001944,424.6046988000162,425.0883636000217,,,,,,,,,,,,,,425.10765740001807,,,,,,,,,,,,,425.1051252000034,425.10765740001807,425.10765740001807,425.10765740001807,428.10503600002266,j,0.6826226999983191,0.17503660000511445,428.105077300017,428.1050895000226,None,,,,,,,,,,,,,,,,,00046,001,2026-01-17_18h21.17.024,MST_task,2024.2.0,59.91256360497875,2026-01-17 18h21.27.258308 +0530,
,Objects\100a.jpg,77,0,78,,,,,,,f,0.7761342000158038,0.15999939999892376,None,,,,,,78,0,77,428.1212798000197,,,,,,,,,,,,,,,,,,,,,,,,,,,,,,428.10519020000356,428.1212798000197,428.60509740002453,,,,,,,,,,,,,,428.62201050002477,,,,,,,,,,,,,428.6164375000226,428.62201050002477,428.62201050002477,428.62201050002477,431.60532840000815,f,0.7761342000158038,0.15999939999892376,431.6074384000094,431.60745820001466,None,431.6214050000126,431.6214050000126,431.6214050000126,,,,,,,,,,,,,,00046,001,2026-01-17_18h21.17.024,MST_task,2024.2.0,59.91256360497875,2026-01-17 18h21.27.258308 +0530,
,Objects\173a.jpg,78,0,79,,,,,,,f,1.6360395999799948,0.1359960000263527,None,,,,,,79,0,78,431.6214050000126,,,,,,,,,,,,,,,,,,,,,,,,,,,,,,431.60752890000003,431.6214050000126,432.1049391000124,,,,,,,,,,,,,,432.1218891000026,,,,,,,,,,,,,432.11417530002655,432.1218891000026,432.1218891000026,432.1218891000026,435.10538530000485,f,1.6360395999799948,0.1359960000263527,435.1054255000199,435.1054362000141,None,435.1213768000016,435.1213768000016,435.1213768000016,,,,,,,,,,,,,,00046,001,2026-01-17_18h21.17.024,MST_task,2024.2.0,59.91256360497875,2026-01-17 18h21.27.258308 +0530,
,Objects\038a.jpg,79,0,80,,,,,,,f,0.7121451999992132,0.11204079998424277,None,,,,,,80,0,79,435.1213768000016,,,,,,,,,,,,,,,,,,,,,,,,,,,,,,435.10553200001596,435.1213768000016,435.60492579999845,,,,,,,,,,,,,,435.62165710001136,,,,,,,,,,,,,435.61362910000025,435.62165710001136,435.62165710001136,435.62165710001136,438.6052367000084,f,0.7121451999992132,0.11204079998424277,438.60527790000197,438.60528930000146,None,438.6214317000122,438.6214317000122,438.6214317000122,,,,,,,,,,,,,,00046,001,2026-01-17_18h21.17.024,MST_task,2024.2.0,59.91256360497875,2026-01-17 18h21.27.258308 +0530,
,Objects\149a.jpg,80,0,81,,,,,,,j,0.7163606000249274,0.19301809999160469,None,,,,,,81,0,80,438.6214317000122,,,,,,,,,,,,,,,,,,,,,,,,,,,,,,438.60538770002313,438.6214317000122,439.10501530001056,,,,,,,,,,,,,,439.12168330000713,,,,,,,,,,,,,439.1075103000039,439.12168330000713,439.12168330000713,439.12168330000713,442.1054137000174,j,0.7163606000249274,0.19301809999160469,442.10545719999936,442.10546810002415,None,442.1213414000231,442.1213414000231,442.1213414000231,,,,,,,,,,,,,,00046,001,2026-01-17_18h21.17.024,MST_task,2024.2.0,59.91256360497875,2026-01-17 18h21.27.258308 +0530,
,Objects\122a.jpg,81,0,82,,,,,,,f,1.6965953999897465,0.11913820001063868,None,,,,,,82,0,81,442.1213414000231,,,,,,,,,,,,,,,,,,,,,,,,,,,,,,442.1055670000205,442.1213414000231,442.6050343000097,,,,,,,,,,,,,,442.62164650001796,,,,,,,,,,,,,442.6074654000113,442.62164650001796,442.62164650001796,442.62164650001796,445.6052794000134,f,1.6965953999897465,0.11913820001063868,445.60532270002295,445.6053335000179,None,445.6213445000176,445.6213445000176,445.6213445000176,,,,,,,,,,,,,,00046,001,2026-01-17_18h21.17.024,MST_task,2024.2.0,59.91256360497875,2026-01-17 18h21.27.258308 +0530,
,Objects\008a.jpg,82,0,83,,,,,,,f,0.9088484999956563,0.11891280001145788,None,,,,,,83,0,82,445.6213445000176,,,,,,,,,,,,,,,,,,,,,,,,,,,,,,445.6054007000057,445.6213445000176,446.105037500005,,,,,,,,,,,,,,446.1215910000028,,,,,,,,,,,,,446.10768800001824,446.1215910000028,446.1215910000028,446.1215910000028,449.1052980000095,f,0.9088484999956563,0.11891280001145788,449.10534470001585,449.10535580001306,None,449.12145690000034,449.12145690000034,449.12145690000034,,,,,,,,,,,,,,00046,001,2026-01-17_18h21.17.024,MST_task,2024.2.0,59.91256360497875,2026-01-17 18h21.27.258308 +0530,
,Objects\061a.jpg,83,0,84,,,,,,,j,2.167719000019133,0.1530872999865096,None,,,,,,84,0,83,449.12145690000034,,,,,,,,,,,,,,,,,,,,,,,,,,,,,,449.105452000018,449.12145690000034,449.6049493000028,,,,,,,,,,,,,,449.6216699000215,,,,,,,,,,,,,449.6074439000222,449.6216699000215,449.6216699000215,449.6216699000215,452.60525650001364,j,2.167719000019133,0.1530872999865096,452.60529730000417,452.6053097000113,None,452.6213648999983,452.6213648999983,452.6213648999983,,,,,,,,,,,,,,00046,001,2026-01-17_18h21.17.024,MST_task,2024.2.0,59.91256360497875,2026-01-17 18h21.27.258308 +0530,
,Scenes\097a.jpg,84,0,85,,,,,,,j,0.739294200000586,0.1772591999906581,None,,,,,,85,0,84,452.6213648999983,,,,,,,,,,,,,,,,,,,,,,,,,,,,,,452.605415900005,452.6213648999983,453.1049497000058,,,,,,,,,,,,,,453.12211170000955,,,,,,,,,,,,,453.11618480001925,453.12211170000955,453.12211170000955,453.12211170000955,456.1053259000182,j,0.739294200000586,0.1772591999906581,456.1070861000044,456.107104100025,None,456.12143070000457,456.12143070000457,456.12143070000457,,,,,,,,,,,,,,00046,001,2026-01-17_18h21.17.024,MST_task,2024.2.0,59.91256360497875,2026-01-17 18h21.27.258308 +0530,
,Scenes\072a.jpg,85,0,86,,,,,,,j,1.0049627000116743,0.18462469999212772,None,,,,,,86,0,85,456.12143070000457,,,,,,,,,,,,,,,,,,,,,,,,,,,,,,456.1072072000243,456.12143070000457,456.6049438000191,,,,,,,,,,,,,,456.6245077000058,,,,,,,,,,,,,456.6221463000111,456.6245077000058,456.6245077000058,456.6245077000058,459.6217111000151,j,1.0049627000116743,0.18462469999212772,459.6217528000125,459.62176500001806,None,,,,,,,,,,,,,,,,,00046,001,2026-01-17_18h21.17.024,MST_task,2024.2.0,59.91256360497875,2026-01-17 18h21.27.258308 +0530,
,Scenes\001a.jpg,86,0,87,,,,,,,f,2.0801376000163145,0.17534879999584518,None,,,,,,87,0,86,459.63803660002304,,,,,,,,,,,,,,,,,,,,,,,,,,,,,,459.62187450000783,459.63803660002304,460.12157620000653,,,,,,,,,,,,,,460.1418718000059,,,,,,,,,,,,,460.1393925000157,460.1418718000059,460.1418718000059,460.1418718000059,463.1383104000124,f,2.0801376000163145,0.17534879999584518,463.1383518000075,463.13836340000853,None,,,,,,,,,,,,,,,,,00046,001,2026-01-17_18h21.17.024,MST_task,2024.2.0,59.91256360497875,2026-01-17 18h21.27.258308 +0530,
,Scenes\130a.jpg,87,0,88,,,,,,,f,2.738796099991305,0.16737300000386313,None,,,,,,88,0,87,463.15476890001446,,,,,,,,,,,,,,,,,,,,,,,,,,,,,,463.1384608000226,463.15476890001446,463.63830560000497,,,,,,,,,,,,,,463.65945240002475,,,,,,,,,,,,,463.65685970001505,463.65945240002475,463.65945240002475,463.65945240002475,466.6549401000084,f,2.738796099991305,0.16737300000386313,466.65498210000806,466.6549937000091,None,,,,,,,,,,,,,,,,,00046,001,2026-01-17_18h21.17.024,MST_task,2024.2.0,59.91256360497875,2026-01-17 18h21.27.258308 +0530,
,Scenes\037a.jpg,88,0,89,,,,,,,j,1.2500450999941677,0.2159416000067722,None,,,,,,89,0,88,466.67116650001844,,,,,,,,,,,,,,,,,,,,,,,,,,,,,,466.6550619000045,466.67116650001844,467.1549387999985,,,,,,,,,,,,,,467.17185110002174,,,,,,,,,,,,,467.16491750002024,467.17185110002174,467.17185110002174,467.17185110002174,470.15526749999844,j,1.2500450999941677,0.2159416000067722,470.15531040000496,470.1553210999991,None,470.1711174000229,470.1711174000229,470.1711174000229,,,,,,,,,,,,,,00046,001,2026-01-17_18h21.17.024,MST_task,2024.2.0,59.91256360497875,2026-01-17 18h21.27.258308 +0530,
,Scenes\068a.jpg,89,0,90,,,,,,,j,1.053349200024968,0.17519719997653738,None,,,,,,90,0,89,470.1711174000229,,,,,,,,,,,,,,,,,,,,,,,,,,,,,,470.15538780001225,470.1711174000229,470.6549404000107,,,,,,,,,,,,,,470.6730069000041,,,,,,,,,,,,,470.67069660002016,470.6730069000041,470.6730069000041,470.6730069000041,473.6715987000207,j,1.053349200024968,0.17519719997653738,473.6716460000025,473.6716580000066,None,,,,,,,,,,,,,,,,,00046,001,2026-01-17_18h21.17.024,MST_task,2024.2.0,59.91256360497875,2026-01-17 18h21.27.258308 +0530,
,Scenes\188a.jpg,90,0,91,,,,,,,j,1.409749999991618,0.13512260001152754,None,,,,,,91,0,90,473.68803520000074,,,,,,,,,,,,,,,,,,,,,,,,,,,,,,473.6717593000212,473.68803520000074,474.17143710001255,,,,,,,,,,,,,,474.18859689999954,,,,,,,,,,,,,474.1843863000104,474.18859689999954,474.18859689999954,474.18859689999954,477.1718336000049,j,1.409749999991618,0.13512260001152754,477.17187590000685,477.1718869000033,None,477.187968800019,477.187968800019,477.187968800019,,,,,,,,,,,,,,00046,001,2026-01-17_18h21.17.024,MST_task,2024.2.0,59.91256360497875,2026-01-17 18h21.27.258308 +0530,
,Objects\096a.jpg,91,0,92,,,,,,,f,1.261107099999208,0.19214900000952184,None,,,,,,92,0,91,477.187968800019,,,,,,,,,,,,,,,,,,,,,,,,,,,,,,477.17195150000043,477.187968800019,477.6717678999994,,,,,,,,,,,,,,477.68850660001044,,,,,,,,,,,,,477.6841146000079,477.68850660001044,477.68850660001044,477.68850660001044,480.67170130001614,f,1.261107099999208,0.19214900000952184,480.6737893000245,480.6738066000107,None,480.6880307000247,480.6880307000247,480.6880307000247,,,,,,,,,,,,,,00046,001,2026-01-17_18h21.17.024,MST_task,2024.2.0,59.91256360497875,2026-01-17 18h21.27.258308 +0530,
,Objects\077a.jpg,92,0,93,,,,,,,j,2.3380253999785054,0.14396830002078786,None,,,,,,93,0,92,480.6880307000247,,,,,,,,,,,,,,,,,,,,,,,,,,,,,,480.6738770000229,480.6880307000247,481.1714729000232,,,,,,,,,,,,,,481.1881822000141,,,,,,,,,,,,,481.1801286000118,481.1881822000141,481.1881822000141,481.1881822000141,484.1719474999991,j,2.3380253999785054,0.14396830002078786,484.17199440000695,484.17200600000797,None,484.1880174000107,484.1880174000107,484.1880174000107,,,,,,,,,,,,,,00046,001,2026-01-17_18h21.17.024,MST_task,2024.2.0,59.91256360497875,2026-01-17 18h21.27.258308 +0530,
,Objects\121a.jpg,93,0,94,,,,,,,f,1.9253904999932274,0.1359981000132393,None,,,,,,94,0,93,484.1880174000107,,,,,,,,,,,,,,,,,,,,,,,,,,,,,,484.17212400000426,484.1880174000107,484.67144560001907,,,,,,,,,,,,,,484.68823520001024,,,,,,,,,,,,,484.67400320002344,484.68823520001024,484.68823520001024,484.68823520001024,487.6718551000231,f,1.9253904999932274,0.1359981000132393,487.6719027000072,487.671914800012,None,487.68801400001394,487.68801400001394,487.68801400001394,,,,,,,,,,,,,,00046,001,2026-01-17_18h21.17.024,MST_task,2024.2.0,59.91256360497875,2026-01-17 18h21.27.258308 +0530,
,Objects\152a.jpg,94,0,95,,,,,,,f,1.361703500006115,0.1519999000011012,None,,,,,,95,0,94,487.68801400001394,,,,,,,,,,,,,,,,,,,,,,,,,,,,,,487.6719831000082,487.68801400001394,488.17145960000926,,,,,,,,,,,,,,488.188309500023,,,,,,,,,,,,,488.18026560000726,488.188309500023,488.188309500023,488.188309500023,491.17208830002346,f,1.361703500006115,0.1519999000011012,491.17213410002296,491.17214520002017,None,491.1880472000048,491.1880472000048,491.1880472000048,,,,,,,,,,,,,,00046,001,2026-01-17_18h21.17.024,MST_task,2024.2.0,59.91256360497875,2026-01-17 18h21.27.258308 +0530,
,Objects\005a.jpg,95,0,96,,,,,,,f,2.1095762999902945,0.16002539999317378,None,,,,,,96,0,95,491.1880472000048,,,,,,,,,,,,,,,,,,,,,,,,,,,,,,491.17225370000233,491.1880472000048,491.6714600000123,,,,,,,,,,,,,,491.68827370001236,,,,,,,,,,,,,491.6794650000229,491.68827370001236,491.68827370001236,491.68827370001236,494.6718911000062,f,2.1095762999902945,0.16002539999317378,494.67194080000627,494.6719519000035,None,494.6880262000195,494.6880262000195,494.6880262000195,,,,,,,,,,,,,,00046,001,2026-01-17_18h21.17.024,MST_task,2024.2.0,59.91256360497875,2026-01-17 18h21.27.258308 +0530,
,Objects\007a.jpg,96,0,97,,,,,,,j,1.2344133000005968,0.19091669999761507,None,,,,,,97,0,96,494.6880262000195,,,,,,,,,,,,,,,,,,,,,,,,,,,,,,494.67206060001627,494.6880262000195,495.17151470002136,,,,,,,,,,,,,,495.1881756000221,,,,,,,,,,,,,495.17400389999966,495.1881756000221,495.1881756000221,495.1881756000221,498.17172790001496,j,1.2344133000005968,0.19091669999761507,498.17176910000853,498.17178020000574,None,498.1880174000107,498.1880174000107,498.1880174000107,,,,,,,,,,,,,,00046,001,2026-01-17_18h21.17.024,MST_task,2024.2.0,59.91256360497875,2026-01-17 18h21.27.258308 +0530,
,Objects\181a.jpg,97,0,98,,,,,,,j,1.0298738999990746,0.20828600000822917,None,,,,,,98,0,97,498.1880174000107,,,,,,,,,,,,,,,,,,,,,,,,,,,,,,498.17184490000363,498.1880174000107,498.67152250002255,,,,,,,,,,,,,,498.68825220002327,,,,,,,,,,,,,498.6828897000232,498.68825220002327,498.68825220002327,498.68825220002327,501.67190380001557,j,1.0298738999990746,0.20828600000822917,501.6719565000094,501.6719676000066,None,501.6880301000201,501.6880301000201,501.6880301000201,,,,,,,,,,,,,,00046,001,2026-01-17_18h21.17.024,MST_task,2024.2.0,59.91256360497875,2026-01-17 18h21.27.258308 +0530,
,Scenes\088a.jpg,98,0,99,,,,,,,j,0.930020500003593,0.16799499999615364,None,,,,,,99,0,98,501.6880301000201,,,,,,,,,,,,,,,,,,,,,,,,,,,,,,501.67204430000857,501.6880301000201,502.1714571000193,,,,,,,,,,,,,,502.1962088000146,,,,,,,,,,,,,502.19359490001807,502.1962088000146,502.1962088000146,502.1962088000146,505.18826570000965,j,0.930020500003593,0.16799499999615364,505.1900177000207,505.1900371000229,None,,,,,,,,,,,,,,,,,00046,001,2026-01-17_18h21.17.024,MST_task,2024.2.0,59.91256360497875,2026-01-17 18h21.27.258308 +0530,
,Scenes\136a.jpg,99,0,100,,,,,,,j,1.518073999992339,0.16661939999903552,None,,,,,,100,0,99,505.20469020001474,,,,,,,,,,,,,,,,,,,,,,,,,,,,,,505.1901401000214,505.20469020001474,505.6882808000082,,,,,,,,,,,,,,505.7053195000044,,,,,,,,,,,,,505.7007196000195,505.7053195000044,505.7053195000044,505.7053195000044,508.68864320000284,j,1.518073999992339,0.16661939999903552,508.68868980000843,508.6887012000079,None,508.70466950000264,508.70466950000264,508.70466950000264,,,,,,,,,,,,,,00046,001,2026-01-17_18h21.17.024,MST_task,2024.2.0,59.91256360497875,2026-01-17 18h21.27.258308 +0530,
,Scenes\087a.jpg,100,0,101,,,,,,,j,1.9052038000081666,0.17511050001485273,None,,,,,,101,0,100,508.70466950000264,,,,,,,,,,,,,,,,,,,,,,,,,,,,,,508.6888004000066,508.70466950000264,509.1882837000012,,,,,,,,,,,,,,509.2053619000071,,,,,,,,,,,,,509.199866800016,509.2053619000071,509.2053619000071,509.2053619000071,512.1886155000248,j,1.9052038000081666,0.17511050001485273,512.1886573000229,512.1886686000216,None,512.204695100023,512.204695100023,512.204695100023,,,,,,,,,,,,,,00046,001,2026-01-17_18h21.17.024,MST_task,2024.2.0,59.91256360497875,2026-01-17 18h21.27.258308 +0530,
,Scenes\174a.jpg,101,0,102,,,,,,,j,0.9867230999807362,0.14309359999606386,None,,,,,,102,0,101,512.204695100023,,,,,,,,,,,,,,,,,,,,,,,,,,,,,,512.1887334000203,512.204695100023,512.6881772000052,,,,,,,,,,,,,,512.7076003000257,,,,,,,,,,,,,512.7051729000232,512.7076003000257,512.7076003000257,512.7076003000257,515.7049082000158,j,0.9867230999807362,0.14309359999606386,515.704954100016,515.7049663000216,None,,,,,,,,,,,,,,,,,00046,001,2026-01-17_18h21.17.024,MST_task,2024.2.0,59.91256360497875,2026-01-17 18h21.27.258308 +0530,
,Scenes\187a.jpg,102,0,103,,,,,,,j,2.0156553000269923,0.15139009998529218,None,,,,,,103,0,102,515.7211585000041,,,,,,,,,,,,,,,,,,,,,,,,,,,,,,515.7050373000093,515.7211585000041,516.2051778000023,,,,,,,,,,,,,,516.2228444000066,,,,,,,,,,,,,516.2205736000033,516.2228444000066,516.2228444000066,516.2228444000066,519.2214871000033,j,2.0156553000269923,0.15139009998529218,519.2215347000165,519.2215472000244,None,,,,,,,,,,,,,,,,,00046,001,2026-01-17_18h21.17.024,MST_task,2024.2.0,59.91256360497875,2026-01-17 18h21.27.258308 +0530,
,Scenes\043a.jpg,103,0,104,,,,,,,j,1.1042881999746896,0.14403500000480562,None,,,,,,104,0,103,519.2380942000018,,,,,,,,,,,,,,,,,,,,,,,,,,,,,,519.2216212000058,519.2380942000018,519.7217835000192,,,,,,,,,,,,,,519.7415740000142,,,,,,,,,,,,,519.7392709999986,519.7415740000142,519.7415740000142,519.7415740000142,522.7400652000215,j,1.1042881999746896,0.14403500000480562,522.7401142000163,522.7401269000256,None,,,,,,,,,,,,,,,,,00046,001,2026-01-17_18h21.17.024,MST_task,2024.2.0,59.91256360497875,2026-01-17 18h21.27.258308 +0530,
,Scenes\111a.jpg,104,0,105,,,,,,,f,2.6784805999777745,0.1286314000026323,None,,,,,,105,0,104,522.7546563000069,,,,,,,,,,,,,,,,,,,,,,,,,,,,,,522.7402365000162,522.7546563000069,523.2382567000168,,,,,,,,,,,,,,523.2552096,,,,,,,,,,,,,523.2508105000015,523.2552096,523.2552096,523.2552096,526.2387288000027,f,2.6784805999777745,0.1286314000026323,526.2387696000224,526.238780100015,None,526.254737500014,526.254737500014,526.254737500014,,,,,,,,,,,,,,00046,001,2026-01-17_18h21.17.024,MST_task,2024.2.0,59.91256360497875,2026-01-17 18h21.27.258308 +0530,
,Objects\016a.jpg,105,0,106,,,,,,,f,1.7628927000041585,0.15922510001109913,None,,,,,,106,0,105,526.254737500014,,,,,,,,,,,,,,,,,,,,,,,,,,,,,,526.2388428999984,526.254737500014,526.7396830000216,,,,,,,,,,,,,,,,,,,,,,,,,,,526.7521382000123,526.7552397000254,526.7552397000254,526.7552397000254,529.7399508000235,f,1.7628927000041585,0.15922510001109913,529.7423345000134,529.7423560000025,None,,,,,,,,,,,,,,,,,00046,001,2026-01-17_18h21.17.024,MST_task,2024.2.0,59.91256360497875,2026-01-17 18h21.27.258308 +0530,
,Objects\046a.jpg,106,0,107,,,,,,,f,2.094479699997464,0.11248549999436364,None,,,,,,107,0,106,529.7547138000082,,,,,,,,,,,,,,,,,,,,,,,,,,,,,,529.7424801000161,529.7547138000082,530.2384360000142,,,,,,,,,,,,,,530.2550408000243,,,,,,,,,,,,,530.2470638000232,530.2550408000243,530.2550408000243,530.2550408000243,533.2388171000057,f,2.094479699997464,0.11248549999436364,533.2388646000181,533.238883700018,None,533.2548328000121,533.2548328000121,533.2548328000121,,,,,,,,,,,,,,00046,001,2026-01-17_18h21.17.024,MST_task,2024.2.0,59.91256360497875,2026-01-17 18h21.27.258308 +0530,
,Objects\116a.jpg,107,0,108,,,,,,,f,1.139018899993971,0.19199700001627207,None,,,,,,108,0,107,533.2548328000121,,,,,,,,,,,,,,,,,,,,,,,,,,,,,,533.2389544000034,533.2548328000121,533.7384955000016,,,,,,,,,,,,,,533.7549868000206,,,,,,,,,,,,,533.7479167999991,533.7549868000206,533.7549868000206,533.7549868000206,536.7388942000107,f,1.139018899993971,0.19199700001627207,536.7389392000041,536.7389505000028,None,536.7547070000146,536.7547070000146,536.7547070000146,,,,,,,,,,,,,,00046,001,2026-01-17_18h21.17.024,MST_task,2024.2.0,59.91256360497875,2026-01-17 18h21.27.258308 +0530,
,Objects\030a.jpg,108,0,109,,,,,,,f,1.3350517000071704,0.23183800000697374,None,,,,,,109,0,108,536.7547070000146,,,,,,,,,,,,,,,,,,,,,,,,,,,,,,536.7390572000004,536.7547070000146,537.2384984000237,,,,,,,,,,,,,,537.2550780000165,,,,,,,,,,,,,537.2471408999991,537.2550780000165,537.2550780000165,537.2550780000165,540.2386378000083,f,1.3350517000071704,0.23183800000697374,540.2386808000156,540.2386959000141,None,540.2547991000174,540.2547991000174,540.2547991000174,,,,,,,,,,,,,,00046,001,2026-01-17_18h21.17.024,MST_task,2024.2.0,59.91256360497875,2026-01-17 18h21.27.258308 +0530,
,Objects\130a.jpg,109,0,110,,,,,,,j,2.658463400002802,0.1846376000030432,None,,,,,,110,0,109,540.2547991000174,,,,,,,,,,,,,,,,,,,,,,,,,,,,,,540.2387977000035,540.2547991000174,540.7396068000235,,,,,,,,,,,,,,,,,,,,,,,,,,,540.7485273000202,540.7550920000067,540.7550920000067,540.7550920000067,543.7389138000144,j,2.658463400002802,0.1846376000030432,543.7389595000132,543.7389708000119,None,543.7547876000172,543.7547876000172,543.7547876000172,,,,,,,,,,,,,,00046,001,2026-01-17_18h21.17.024,MST_task,2024.2.0,59.91256360497875,2026-01-17 18h21.27.258308 +0530,
,Objects\083a.jpg,110,0,111,,,,,,,f,0.9348607999854721,0.168575099989539,None,,,,,,111,0,110,543.7547876000172,,,,,,,,,,,,,,,,,,,,,,,,,,,,,,543.7390382000012,543.7547876000172,544.2383962000022,,,,,,,,,,,,,,544.2550717000267,,,,,,,,,,,,,544.2469596000155,544.2550717000267,544.2550717000267,544.2550717000267,547.2387336000102,f,0.9348607999854721,0.168575099989539,547.2387755000091,547.2387862000032,None,547.2547822000051,547.2547822000051,547.2547822000051,,,,,,,,,,,,,,00046,001,2026-01-17_18h21.17.024,MST_task,2024.2.0,59.91256360497875,2026-01-17 18h21.27.258308 +0530,
,Objects\050a.jpg,111,0,112,,,,,,,f,2.4908486000203993,0.16796140000224113,None,,,,,,112,0,111,547.2547822000051,,,,,,,,,,,,,,,,,,,,,,,,,,,,,,547.2388523000118,547.2547822000051,547.739713100018,,,,,,,,,,,,,,,,,,,,,,,,,,,547.7486963000265,547.7550520000223,547.7550520000223,547.7550520000223,550.7399244999979,f,2.4908486000203993,0.16796140000224113,550.7399675000052,550.7399793000077,None,,,,,,,,,,,,,,,,,00046,001,2026-01-17_18h21.17.024,MST_task,2024.2.0,59.91256360497875,2026-01-17 18h21.27.258308 +0530,
,Scenes\142a.jpg,112,0,113,,,,,,,j,1.6034264999907464,0.17598689999431372,None,,,,,,113,0,112,550.7548111000215,,,,,,,,,,,,,,,,,,,,,,,,,,,,,,550.7400469999993,550.7548111000215,551.2384105000237,,,,,,,,,,,,,,551.2586443000182,,,,,,,,,,,,,551.2561975000135,551.2586443000182,551.2586443000182,551.2586443000182,554.2550882000069,j,1.6034264999907464,0.17598689999431372,554.2570034000091,554.2570235000167,None,,,,,,,,,,,,,,,,,00046,001,2026-01-17_18h21.17.024,MST_task,2024.2.0,59.91256360497875,2026-01-17 18h21.27.258308 +0530,
,Scenes\158a.jpg,113,0,114,,,,,,,j,1.959071799996309,0.17569750000257045,None,,,,,,114,0,113,554.2714836000232,,,,,,,,,,,,,,,,,,,,,,,,,,,,,,554.2571323000011,554.2714836000232,554.7550832999987,,,,,,,,,,,,,,554.7745706000132,,,,,,,,,,,,,554.7721447000222,554.7745706000132,554.7745706000132,554.7745706000132,557.7716616000107,j,1.959071799996309,0.17569750000257045,557.7717019000265,557.7717135999992,None,,,,,,,,,,,,,,,,,00046,001,2026-01-17_18h21.17.024,MST_task,2024.2.0,59.91256360497875,2026-01-17 18h21.27.258308 +0530,
,Scenes\034a.jpg,114,0,115,,,,,,,j,1.814937799994368,0.1835133999993559,None,,,,,,115,0,114,557.7881060000218,,,,,,,,,,,,,,,,,,,,,,,,,,,,,,557.7717821999977,557.7881060000218,558.2717894000234,,,,,,,,,,,,,,558.2952656999987,,,,,,,,,,,,,558.2925999000145,558.2952656999987,558.2952656999987,558.2952656999987,561.2883186000108,j,1.814937799994368,0.1835133999993559,561.2883597000036,561.2883711000031,None,,,,,,,,,,,,,,,,,00046,001,2026-01-17_18h21.17.024,MST_task,2024.2.0,59.91256360497875,2026-01-17 18h21.27.258308 +0530,
,Scenes\053a.jpg,115,0,116,,,,,,,j,0.8161231999984011,0.16092110000317916,None,,,,,,116,0,115,561.3047774000152,,,,,,,,,,,,,,,,,,,,,,,,,,,,,,561.288469799998,561.3047774000152,561.788386500004,,,,,,,,,,,,,,561.8053796000022,,,,,,,,,,,,,561.7912726000068,561.8053796000022,561.8053796000022,561.8053796000022,564.7886132000131,j,0.8161231999984011,0.16092110000317916,564.788658000005,564.7886685999983,None,564.8048091000237,564.8048091000237,564.8048091000237,,,,,,,,,,,,,,00046,001,2026-01-17_18h21.17.024,MST_task,2024.2.0,59.91256360497875,2026-01-17 18h21.27.258308 +0530,
,Scenes\007a.jpg,116,0,117,,,,,,,f,2.1088062999770045,0.1518291000102181,None,,,,,,117,0,116,564.8048091000237,,,,,,,,,,,,,,,,,,,,,,,,,,,,,,564.7887646000017,564.8048091000237,565.2883742000267,,,,,,,,,,,,,,565.3052547000116,,,,,,,,,,,,,565.3023070000054,565.3052547000116,565.3052547000116,565.3052547000116,568.2887119000079,f,2.1088062999770045,0.1518291000102181,568.2887507000123,568.2887615000072,None,568.3047880000086,568.3047880000086,568.3047880000086,,,,,,,,,,,,,,00046,001,2026-01-17_18h21.17.024,MST_task,2024.2.0,59.91256360497875,2026-01-17 18h21.27.258308 +0530,
,Scenes\116a.jpg,117,0,118,,,,,,,j,0.9683599999989383,0.17623640000238083,None,,,,,,118,0,117,568.3047880000086,,,,,,,,,,,,,,,,,,,,,,,,,,,,,,568.288825399999,568.3047880000086,568.7883920000168,,,,,,,,,,,,,,568.8053508000157,,,,,,,,,,,,,568.8013386000239,568.8053508000157,568.8053508000157,568.8053508000157,571.7886760000256,j,0.9683599999989383,0.17623640000238083,571.7887175000214,571.7887281000149,None,571.804821800004,571.804821800004,571.804821800004,,,,,,,,,,,,,,00046,001,2026-01-17_18h21.17.024,MST_task,2024.2.0,59.91256360497875,2026-01-17 18h21.27.258308 +0530,
,Scenes\157a.jpg,118,0,119,,,,,,,j,1.9966302000102587,0.17565610000747256,None,,,,,,119,0,118,571.804821800004,,,,,,,,,,,,,,,,,,,,,,,,,,,,,,571.7888240000175,571.804821800004,572.2883017999993,,,,,,,,,,,,,,572.3056363000069,,,,,,,,,,,,,572.3033118000021,572.3056363000069,572.3056363000069,572.3056363000069,575.2887395000143,j,1.9966302000102587,0.17565610000747256,575.2887793000264,575.2887903000228,None,575.3047231000091,575.3047231000091,575.3047231000091,,,,,,,,,,,,,,00046,001,2026-01-17_18h21.17.024,MST_task,2024.2.0,59.91256360497875,2026-01-17 18h21.27.258308 +0530,
,Objects\027a.jpg,119,0,120,,,,,,,j,2.3846283000020776,0.13686100000631995,None,,,,,,120,0,119,575.3047231000091,,,,,,,,,,,,,,,,,,,,,,,,,,,,,,575.2888863000262,575.3047231000091,575.7883164000232,,,,,,,,,,,,,,575.8052760999999,,,,,,,,,,,,,575.800063600007,575.8052760999999,575.8052760999999,575.8052760999999,578.7887231000059,j,2.3846283000020776,0.13686100000631995,578.7907852000208,578.790802500007,None,578.8047801000066,578.8047801000066,578.8047801000066,,,,,,,,,,,,,,00046,001,2026-01-17_18h21.17.024,MST_task,2024.2.0,59.91256360497875,2026-01-17 18h21.27.258308 +0530,
,Objects\098a.jpg,120,0,121,,,,,,,f,1.1324815999832936,0.19199580000713468,None,,,,,,121,0,120,578.8047801000066,,,,,,,,,,,,,,,,,,,,,,,,,,,,,,578.790873400023,578.8047801000066,579.2882968000195,,,,,,,,,,,,,,579.3049150000152,,,,,,,,,,,,,579.2973890000139,579.3049150000152,579.3049150000152,579.3049150000152,582.2886363000143,f,1.1324815999832936,0.19199580000713468,582.2886806000024,582.2886923000042,None,582.3048037000117,582.3048037000117,582.3048037000117,,,,,,,,,,,,,,00046,001,2026-01-17_18h21.17.024,MST_task,2024.2.0,59.91256360497875,2026-01-17 18h21.27.258308 +0530,
,Objects\086a.jpg,121,0,122,,,,,,,j,2.401156700012507,0.15308329998515546,None,,,,,,122,0,121,582.3048037000117,,,,,,,,,,,,,,,,,,,,,,,,,,,,,,582.2887957000057,582.3048037000117,582.7881937000202,,,,,,,,,,,,,,582.8049842000182,,,,,,,,,,,,,582.7970428999979,582.8049842000182,582.8049842000182,582.8049842000182,585.788555600011,j,2.401156700012507,0.15308329998515546,585.7885955000238,585.788606600021,None,585.8047438000212,585.8047438000212,585.8047438000212,,,,,,,,,,,,,,00046,001,2026-01-17_18h21.17.024,MST_task,2024.2.0,59.91256360497875,2026-01-17 18h21.27.258308 +0530,
,Objects\172a.jpg,122,0,123,,,,,,,j,1.0610125999955926,0.17601429999922402,None,,,,,,123,0,122,585.8047438000212,,,,,,,,,,,,,,,,,,,,,,,,,,,,,,585.788706500025,585.8047438000212,586.2885093000077,,,,,,,,,,,,,,586.3049264000147,,,,,,,,,,,,,586.2967877000046,586.3049264000147,586.3049264000147,586.3049264000147,589.2885380000225,j,1.0610125999955926,0.17601429999922402,589.2885768999986,589.2885882999981,None,589.3046824000194,589.3046824000194,589.3046824000194,,,,,,,,,,,,,,00046,001,2026-01-17_18h21.17.024,MST_task,2024.2.0,59.91256360497875,2026-01-17 18h21.27.258308 +0530,
,Objects\059a.jpg,123,0,124,,,,,,,j,2.3614633999823127,0.14399939999566413,None,,,,,,124,0,123,589.3046824000194,,,,,,,,,,,,,,,,,,,,,,,,,,,,,,589.2886854000099,589.3046824000194,589.7883462000173,,,,,,,,,,,,,,589.8048916000116,,,,,,,,,,,,,589.7974887000164,589.8048916000116,589.8048916000116,589.8048916000116,592.7886184000236,j,2.3614633999823127,0.14399939999566413,592.7886593000148,592.7886707000143,None,592.8046577000059,592.8046577000059,592.8046577000059,,,,,,,,,,,,,,00046,001,2026-01-17_18h21.17.024,MST_task,2024.2.0,59.91256360497875,2026-01-17 18h21.27.258308 +0530,
,Objects\106a.jpg,124,0,125,,,,,,,f,2.3485982000129297,0.14513219997752458,None,,,,,,125,0,124,592.8046577000059,,,,,,,,,,,,,,,,,,,,,,,,,,,,,,592.7887687000039,592.8046577000059,593.2882919000112,,,,,,,,,,,,,,593.3049096000032,,,,,,,,,,,,,593.2971727000258,593.3049096000032,593.3049096000032,593.3049096000032,596.2885455000214,f,2.3485982000129297,0.14513219997752458,596.2885857000074,596.2885970000061,None,596.3046583000105,596.3046583000105,596.3046583000105,,,,,,,,,,,,,,00046,001,2026-01-17_18h21.17.024,MST_task,2024.2.0,59.91256360497875,2026-01-17 18h21.27.258308 +0530,
,Objects\017a.jpg,125,0,126,,,,,,,f,1.6982636000029743,0.15901199998916127,None,,,,,,126,0,125,596.3046583000105,,,,,,,,,,,,,,,,,,,,,,,,,,,,,,596.2886944000202,596.3046583000105,596.7883219000068,,,,,,,,,,,,,,596.8049172000028,,,,,,,,,,,,,596.7972502000048,596.8049172000028,596.8049172000028,596.8049172000028,599.7885479000106,f,1.6982636000029743,0.15901199998916127,599.7885873000196,599.7885982000153,None,599.8046609000012,599.8046609000012,599.8046609000012,,,,,,,,,,,,,,00046,001,2026-01-17_18h21.17.024,MST_task,2024.2.0,59.91256360497875,2026-01-17 18h21.27.258308 +0530,
,Scenes\173a.jpg,126,0,127,,,,,,,j,1.2212254999903962,0.16799919999903068,None,,,,,,127,0,126,599.8046609000012,,,,,,,,,,,,,,,,,,,,,,,,,,,,,,599.7886622000078,599.8046609000012,600.2883237000206,,,,,,,,,,,,,,600.3051699000061,,,,,,,,,,,,,600.2967224000022,600.3051699000061,600.3051699000061,600.3051699000061,603.2887120000087,j,1.2212254999903962,0.16799919999903068,603.2903133000073,603.2903318000026,None,603.3047400000214,603.3047400000214,603.3047400000214,,,,,,,,,,,,,,00046,001,2026-01-17_18h21.17.024,MST_task,2024.2.0,59.91256360497875,2026-01-17 18h21.27.258308 +0530,
,Scenes\162a.jpg,127,0,128,,,,,,,j,1.2801689999760129,0.16861930000595748,None,,,,,,128,0,127,603.3047400000214,,,,,,,,,,,,,,,,,,,,,,,,,,,,,,603.2904008000041,603.3047400000214,603.7882275000156,,,,,,,,,,,,,,603.8052398000145,,,,,,,,,,,,,603.8004708000226,603.8052398000145,603.8052398000145,603.8052398000145,606.7885550000065,j,1.2801689999760129,0.16861930000595748,606.7885965000023,606.7886069000233,None,606.8047289000242,606.8047289000242,606.8047289000242,,,,,,,,,,,,,,00046,001,2026-01-17_18h21.17.024,MST_task,2024.2.0,59.91256360497875,2026-01-17 18h21.27.258308 +0530,
,Scenes\145a.jpg,128,0,129,,,,,,,j,1.8973037999821827,0.14398230001097545,None,,,,,,129,0,128,606.8047289000242,,,,,,,,,,,,,,,,,,,,,,,,,,,,,,606.7887093000172,606.8047289000242,607.2884982000105,,,,,,,,,,,,,,607.3086183000123,,,,,,,,,,,,,607.3060032000067,607.3086183000123,607.3086183000123,607.3086183000123,610.3049651000183,j,1.8973037999821827,0.14398230001097545,610.3050049000012,610.3050165000022,None,,,,,,,,,,,,,,,,,00046,001,2026-01-17_18h21.17.024,MST_task,2024.2.0,59.91256360497875,2026-01-17 18h21.27.258308 +0530,
,Scenes\190a.jpg,129,0,130,,,,,,,j,0.9497945999901276,0.1759338999981992,None,,,,,,130,0,129,610.3212406000239,,,,,,,,,,,,,,,,,,,,,,,,,,,,,,610.3051158000017,610.3212406000239,610.8049820000015,,,,,,,,,,,,,,610.8243876000051,,,,,,,,,,,,,610.8219723000075,610.8243876000051,610.8243876000051,610.8243876000051,613.8214405000035,j,0.9497945999901276,0.1759338999981992,613.8214818999986,613.8214936000004,None,,,,,,,,,,,,,,,,,00046,001,2026-01-17_18h21.17.024,MST_task,2024.2.0,59.91256360497875,2026-01-17 18h21.27.258308 +0530,
,Scenes\125a.jpg,130,0,131,,,,,,,j,1.6734447999915574,0.14400619998923503,None,,,,,,131,0,130,613.8380452000129,,,,,,,,,,,,,,,,,,,,,,,,,,,,,,613.8215611000196,613.8380452000129,614.3215337000147,,,,,,,,,,,,,,614.340815500007,,,,,,,,,,,,,614.3384212000237,614.340815500007,614.340815500007,614.340815500007,617.3383165000123,j,1.6734447999915574,0.14400619998923503,617.3383599000226,617.3383717000252,None,,,,,,,,,,,,,,,,,00046,001,2026-01-17_18h21.17.024,MST_task,2024.2.0,59.91256360497875,2026-01-17 18h21.27.258308 +0530,
,Scenes\089a.jpg,131,0,132,,,,,,,j,1.6906878000008874,0.15178330001072027,None,,,,,,132,0,131,617.3547104000172,,,,,,,,,,,,,,,,,,,,,,,,,,,,,,617.3384727000084,617.3547104000172,617.838322399999,,,,,,,,,,,,,,617.8597136000171,,,,,,,,,,,,,617.8572397000098,617.8597136000171,617.8597136000171,617.8597136000171,620.8549742000178,j,1.6906878000008874,0.15178330001072027,620.8550148000068,620.8550265000085,None,,,,,,,,,,,,,,,,,00046,001,2026-01-17_18h21.17.024,MST_task,2024.2.0,59.91256360497875,2026-01-17 18h21.27.258308 +0530,
,Scenes\139a.jpg,132,0,133,,,,,,,j,1.8257122999930289,0.13600070000393316,None,,,,,,133,0,132,620.871212099999,,,,,,,,,,,,,,,,,,,,,,,,,,,,,,620.8550957000116,620.871212099999,621.3549477000197,,,,,,,,,,,,,,621.3718504999997,,,,,,,,,,,,,621.367484700022,621.3718504999997,621.3718504999997,621.3718504999997,624.3554006000049,j,1.8257122999930289,0.13600070000393316,624.3554461000022,624.3554570999986,None,624.3712265000213,624.3712265000213,624.3712265000213,,,,,,,,,,,,,,00046,001,2026-01-17_18h21.17.024,MST_task,2024.2.0,59.91256360497875,2026-01-17 18h21.27.258308 +0530,
,Objects\035a.jpg,133,0,134,,,,,,,j,2.886317800002871,None,None,,,,,,134,0,133,624.3712265000213,,,,,,,,,,,,,,,,,,,,,,,,,,,,,,624.3555621000123,624.3712265000213,624.854962900019,,,,,,,,,,,,,,624.8718905000133,,,,,,,,,,,,,624.8670564000204,624.8718905000133,624.8718905000133,624.8718905000133,627.855222800019,j,2.886317800002871,None,627.8572992000263,627.8573157000064,None,627.8712750000122,627.8712750000122,627.8712750000122,,,,,,,,,,,,,,00046,001,2026-01-17_18h21.17.024,MST_task,2024.2.0,59.91256360497875,2026-01-17 18h21.27.258308 +0530,
,Objects\160a.jpg,134,0,135,,,,,,,f,1.1548238999966998,0.168008100008592,None,,,,,,135,0,134,627.8712750000122,,,,,,,,,,,,,,,,,,,,,,,,,,,,,,627.8573869000247,627.8712750000122,628.35492350001,,,,,,,,,,,,,,628.3715595000249,,,,,,,,,,,,,628.3580051000172,628.3715595000249,628.3715595000249,628.3715595000249,631.3553282000066,f,1.1548238999966998,0.168008100008592,631.3553728999977,631.3553839000233,None,631.371407700004,631.371407700004,631.371407700004,,,,,,,,,,,,,,00046,001,2026-01-17_18h21.17.024,MST_task,2024.2.0,59.91256360497875,2026-01-17 18h21.27.258308 +0530,
,Objects\023a.jpg,135,0,136,,,,,,,f,2.302388099982636,0.15193940000608563,None,,,,,,136,0,135,631.371407700004,,,,,,,,,,,,,,,,,,,,,,,,,,,,,,631.3554490000242,631.371407700004,631.8549903000239,,,,,,,,,,,,,,631.8715642000025,,,,,,,,,,,,,631.8641032000014,631.8715642000025,631.8715642000025,631.8715642000025,634.8552582999982,f,2.302388099982636,0.15193940000608563,634.8553000000247,634.8553119999997,None,634.8712348000263,634.8712348000263,634.8712348000263,,,,,,,,,,,,,,00046,001,2026-01-17_18h21.17.024,MST_task,2024.2.0,59.91256360497875,2026-01-17 18h21.27.258308 +0530,
,Objects\105a.jpg,136,0,137,,,,,,,f,0.9860907999973278,0.16111169999931008,None,,,,,,137,0,136,634.8712348000263,,,,,,,,,,,,,,,,,,,,,,,,,,,,,,634.8553779000067,634.8712348000263,635.3549111000029,,,,,,,,,,,,,,635.3715783000225,,,,,,,,,,,,,635.3576148000138,635.3715783000225,635.3715783000225,635.3715783000225,638.3552592000051,f,0.9860907999973278,0.16111169999931008,638.3553114000242,638.3553225000214,None,638.3712165000034,638.3712165000034,638.3712165000034,,,,,,,,,,,,,,00046,001,2026-01-17_18h21.17.024,MST_task,2024.2.0,59.91256360497875,2026-01-17 18h21.27.258308 +0530,
,Objects\009a.jpg,137,0,138,,,,,,,None,,,f,0.518375300016487,None,,,,138,0,137,638.3712165000034,,,,,,,,,,,,,,,,,,,,,,,,,,,,,,638.355389400007,638.3712165000034,638.8549065999978,,,,,,,,,,,,,,638.8716341000109,,,,,,,,,,,,,638.863801200001,638.8716341000109,638.8716341000109,638.8716341000109,641.8553006000002,None,,,641.8553398000076,642.4051740000141,f,641.8713560000178,641.8713560000178,641.8713560000178,641.8713560000178,641.8713560000178,0.518375300016487,None,,,,,,,,,,00046,001,2026-01-17_18h21.17.024,MST_task,2024.2.0,59.91256360497875,2026-01-17 18h21.27.258308 +0530,
,Objects\138a.jpg,138,0,139,,,,,,,f,2.8125379999983124,0.12003399999230169,None,,,,,,139,0,138,642.4213215000054,,,,,,,,,,,,,,,,,,,,,,,,,,,,,,642.4052610000072,642.4213215000054,642.9050627000106,,,,,,,,,,,,,,642.9215826000145,,,,,,,,,,,,,642.9138846000133,642.9215826000145,642.9215826000145,642.9215826000145,645.9054046000238,f,2.8125379999983124,0.12003399999230169,645.9054461000196,645.9054582000244,None,645.9214765000215,645.9214765000215,645.9214765000215,,,,,,,,,,,,,,00046,001,2026-01-17_18h21.17.024,MST_task,2024.2.0,59.91256360497875,2026-01-17 18h21.27.258308 +0530,
,Objects\021a.jpg,139,0,140,,,,,,,j,2.416302599973278,0.153353400004562,None,,,,,,140,0,139,645.9214765000215,,,,,,,,,,,,,,,,,,,,,,,,,,,,,,645.9055561000132,645.9214765000215,646.4051123000099,,,,,,,,,,,,,,646.4217370999977,,,,,,,,,,,,,646.4142004000023,646.4217370999977,646.4217370999977,646.4217370999977,649.4055949000176,j,2.416302599973278,0.153353400004562,649.4056383999996,649.4056496999983,None,649.4214327000082,649.4214327000082,649.4214327000082,,,,,,,,,,,,,,00046,001,2026-01-17_18h21.17.024,MST_task,2024.2.0,59.91256360497875,2026-01-17 18h21.27.258308 +0530,
,Scenes\020a.jpg,140,0,141,,,,,,,j,2.364668199996231,0.13596129999496043,None,,,,,,141,0,140,649.4214327000082,,,,,,,,,,,,,,,,,,,,,,,,,,,,,,649.4057162000099,649.4214327000082,649.905139200011,,,,,,,,,,,,,,649.9295131000108,,,,,,,,,,,,,649.9268686000141,649.9295131000108,649.9295131000108,649.9295131000108,652.921796700015,j,2.364668199996231,0.13596129999496043,652.9235373000265,652.9235565999988,None,,,,,,,,,,,,,,,,,00046,001,2026-01-17_18h21.17.024,MST_task,2024.2.0,59.91256360497875,2026-01-17 18h21.27.258308 +0530,
,Scenes\127a.jpg,141,0,142,,,,,,,j,1.1434789999912027,0.14331480002147146,None,,,,,,142,0,141,652.938081500004,,,,,,,,,,,,,,,,,,,,,,,,,,,,,,652.9236593000242,652.938081500004,653.4217306000064,,,,,,,,,,,,,,653.4387861000141,,,,,,,,,,,,,653.4304795000062,653.4387861000141,653.4387861000141,653.4387861000141,656.4221062000142,j,1.1434789999912027,0.14331480002147146,656.4221466000017,656.4221575999982,None,656.4380928000028,656.4380928000028,656.4380928000028,,,,,,,,,,,,,,00046,001,2026-01-17_18h21.17.024,MST_task,2024.2.0,59.91256360497875,2026-01-17 18h21.27.258308 +0530,
,Scenes\140a.jpg,142,0,143,,,,,,,j,1.6432075999910012,0.12000100000295788,None,,,,,,143,0,142,656.4380928000028,,,,,,,,,,,,,,,,,,,,,,,,,,,,,,656.422255100013,656.4380928000028,656.9216665000131,,,,,,,,,,,,,,656.9386840000225,,,,,,,,,,,,,656.9337463000265,656.9386840000225,656.9386840000225,656.9386840000225,659.9220387000241,j,1.6432075999910012,0.12000100000295788,659.9220849000267,659.9220965999993,None,659.938232000015,659.938232000015,659.938232000015,,,,,,,,,,,,,,00046,001,2026-01-17_18h21.17.024,MST_task,2024.2.0,59.91256360497875,2026-01-17 18h21.27.258308 +0530,
,Scenes\115a.jpg,143,0,144,,,,,,,j,1.886443200026406,0.17622209998080507,None,,,,,,144,0,143,659.938232000015,,,,,,,,,,,,,,,,,,,,,,,,,,,,,,659.9221927000035,659.938232000015,660.4216426000057,,,,,,,,,,,,,,660.4389488000015,,,,,,,,,,,,,660.436494900001,660.4389488000015,660.4389488000015,660.4389488000015,663.4219457000145,j,1.886443200026406,0.17622209998080507,663.4219854000257,663.4219965000229,None,663.4381881000008,663.4381881000008,663.4381881000008,,,,,,,,,,,,,,00046,001,2026-01-17_18h21.17.024,MST_task,2024.2.0,59.91256360497875,2026-01-17 18h21.27.258308 +0530,
,Scenes\131a.jpg,144,0,145,,,,,,,j,2.4439202999928966,0.11891409999225289,None,,,,,,145,0,144,663.4381881000008,,,,,,,,,,,,,,,,,,,,,,,,,,,,,,663.4220627000032,663.4381881000008,663.921591100021,,,,,,,,,,,,,,663.9385884000221,,,,,,,,,,,,,663.9363170000142,663.9385884000221,663.9385884000221,663.9385884000221,666.9220422000217,j,2.4439202999928966,0.11891409999225289,666.9220902000088,666.9221022000129,None,666.9381052000099,666.9381052000099,666.9381052000099,,,,,,,,,,,,,,00046,001,2026-01-17_18h21.17.024,MST_task,2024.2.0,59.91256360497875,2026-01-17 18h21.27.258308 +0530,
,Scenes\017a.jpg,145,0,146,,,,,,,f,1.02990769999451,0.15194219999830239,None,,,,,,146,0,145,666.9381052000099,,,,,,,,,,,,,,,,,,,,,,,,,,,,,,666.9221707000106,666.9381052000099,667.4216077000019,,,,,,,,,,,,,,667.4402673000004,,,,,,,,,,,,,667.437653800007,667.4402673000004,667.4402673000004,667.4402673000004,670.4384313000191,f,1.02990769999451,0.15194219999830239,670.4384729000158,670.4384849000198,None,,,,,,,,,,,,,,,,,00046,001,2026-01-17_18h21.17.024,MST_task,2024.2.0,59.91256360497875,2026-01-17 18h21.27.258308 +0530,
,Scenes\122a.jpg,146,0,147,,,,,,,f,1.3438434000127017,0.16909189999569207,None,,,,,,147,0,146,670.4548590000195,,,,,,,,,,,,,,,,,,,,,,,,,,,,,,670.4385862000054,670.4548590000195,670.9384497000137,,,,,,,,,,,,,,670.9577089000086,,,,,,,,,,,,,670.9552751000156,670.9577089000086,670.9577089000086,670.9577089000086,673.9550745000015,f,1.3438434000127017,0.16909189999569207,673.9551161999989,673.9551284000045,None,,,,,,,,,,,,,,,,,00046,001,2026-01-17_18h21.17.024,MST_task,2024.2.0,59.91256360497875,2026-01-17 18h21.27.258308 +0530,
,Objects\058a.jpg,147,0,148,,,,,,,f,2.18164200001047,0.1360110999958124,None,,,,,,148,0,147,673.9714154000103,,,,,,,,,,,,,,,,,,,,,,,,,,,,,,673.9552274000016,673.9714154000103,674.4550925000221,,,,,,,,,,,,,,674.4719433000137,,,,,,,,,,,,,674.4663794000226,674.4719433000137,674.4719433000137,674.4719433000137,677.455469700013,f,2.18164200001047,0.1360110999958124,677.4575549000001,677.4575734000246,None,677.4713190000039,677.4713190000039,677.4713190000039,,,,,,,,,,,,,,00046,001,2026-01-17_18h21.17.024,MST_task,2024.2.0,59.91256360497875,2026-01-17 18h21.27.258308 +0530,
,Objects\053a.jpg,148,0,149,,,,,,,f,0.7143649999925401,0.14361639998969622,None,,,,,,149,0,148,677.4713190000039,,,,,,,,,,,,,,,,,,,,,,,,,,,,,,677.457644500013,677.4713190000039,677.955237200018,,,,,,,,,,,,,,677.9714886000147,,,,,,,,,,,,,677.964663300023,677.9714886000147,677.9714886000147,677.9714886000147,680.9551896000048,f,0.7143649999925401,0.14361639998969622,680.9552317000052,680.9552421999979,None,680.9712892000098,680.9712892000098,680.9712892000098,,,,,,,,,,,,,,00046,001,2026-01-17_18h21.17.024,MST_task,2024.2.0,59.91256360497875,2026-01-17 18h21.27.258308 +0530,
,Objects\071a.jpg,149,0,150,,,,,,,j,1.9019317000056617,0.1679864999896381,None,,,,,,150,0,149,680.9712892000098,,,,,,,,,,,,,,,,,,,,,,,,,,,,,,680.9553445000201,680.9712892000098,681.4549858000246,,,,,,,,,,,,,,681.4715061000024,,,,,,,,,,,,,681.4653034000075,681.4715061000024,681.4715061000024,681.4715061000024,684.4552682000212,j,1.9019317000056617,0.1679864999896381,684.4553170000145,684.4553297000239,None,684.4712483000185,684.4712483000185,684.4712483000185,,,,,,,,,,,,,,00046,001,2026-01-17_18h21.17.024,MST_task,2024.2.0,59.91256360497875,2026-01-17 18h21.27.258308 +0530,
,Objects\044a.jpg,150,0,151,,,,,,,f,2.3942265000077896,0.09633749999920838,None,,,,,,151,0,150,684.4712483000185,,,,,,,,,,,,,,,,,,,,,,,,,,,,,,684.4554273000103,684.4712483000185,684.9554899000213,,,,,,,,,,,,,,684.9716082000232,,,,,,,,,,,,,684.9646273000108,684.9716082000232,684.9716082000232,684.9716082000232,687.9552738000057,f,2.3942265000077896,0.09633749999920838,687.9553145000245,687.9553253000195,None,687.9712425000034,687.9712425000034,687.9712425000034,,,,,,,,,,,,,,00046,001,2026-01-17_18h21.17.024,MST_task,2024.2.0,59.91256360497875,2026-01-17 18h21.27.258308 +0530,
,Objects\166a.jpg,151,0,152,,,,,,,f,1.5822457000031136,0.14429230001405813,None,,,,,,152,0,151,687.9712425000034,,,,,,,,,,,,,,,,,,,,,,,,,,,,,,687.9554008000123,687.9712425000034,688.4549811000179,,,,,,,,,,,,,,688.4715361999988,,,,,,,,,,,,,688.4637987000169,688.4715361999988,688.4715361999988,688.4715361999988,691.455274100008,f,1.5822457000031136,0.14429230001405813,691.4553157000046,691.4553269000025,None,691.4713630000188,691.4713630000188,691.4713630000188,,,,,,,,,,,,,,00046,001,2026-01-17_18h21.17.024,MST_task,2024.2.0,59.91256360497875,2026-01-17 18h21.27.258308 +0530,
,Objects\182a.jpg,152,0,153,,,,,,,f,1.8988079999980982,0.16777129998081364,None,,,,,,153,0,152,691.4713630000188,,,,,,,,,,,,,,,,,,,,,,,,,,,,,,691.4554250000219,691.4713630000188,691.9549540000153,,,,,,,,,,,,,,691.9714258000022,,,,,,,,,,,,,691.9636769000208,691.9714258000022,691.9714258000022,691.9714258000022,694.9554593000212,f,1.8988079999980982,0.16777129998081364,694.9555077000114,694.955520700023,None,694.9714072000061,694.9714072000061,694.9714072000061,,,,,,,,,,,,,,00046,001,2026-01-17_18h21.17.024,MST_task,2024.2.0,59.91256360497875,2026-01-17 18h21.27.258308 +0530,
,Objects\015a.jpg,153,0,154,,,,,,,f,2.029879199981224,0.13698440001462586,None,,,,,,154,0,153,694.9714072000061,,,,,,,,,,,,,,,,,,,,,,,,,,,,,,694.9556256000069,694.9714072000061,695.4549169000238,,,,,,,,,,,,,,695.4717457000224,,,,,,,,,,,,,695.4641615000146,695.4717457000224,695.4717457000224,695.4717457000224,698.4553967000102,f,2.029879199981224,0.13698440001462586,698.4554422000074,698.455454400013,None,698.4714148000057,698.4714148000057,698.4714148000057,,,,,,,,,,,,,,00046,001,2026-01-17_18h21.17.024,MST_task,2024.2.0,59.91256360497875,2026-01-17 18h21.27.258308 +0530,
,Scenes\050a.jpg,154,0,155,,,,,,,j,1.2656875999819022,0.18506660001003183,None,,,,,,155,0,154,698.4714148000057,,,,,,,,,,,,,,,,,,,,,,,,,,,,,,698.4555840000103,698.4714148000057,698.9549963000172,,,,,,,,,,,,,,698.9719325000187,,,,,,,,,,,,,698.9670470000128,698.9719325000187,698.9719325000187,698.9719325000187,701.9553793000232,j,1.2656875999819022,0.18506660001003183,701.9569579000236,701.956974700006,None,701.9712646999978,701.9712646999978,701.9712646999978,,,,,,,,,,,,,,00046,001,2026-01-17_18h21.17.024,MST_task,2024.2.0,59.91256360497875,2026-01-17 18h21.27.258308 +0530,
,Scenes\060a.jpg,155,0,156,,,,,,,j,1.0455969999893568,0.2235639999853447,None,,,,,,156,0,155,701.9712646999978,,,,,,,,,,,,,,,,,,,,,,,,,,,,,,701.9570907000161,701.9712646999978,702.4550164000248,,,,,,,,,,,,,,702.4964841000037,,,,,,,,,,,,,702.4938603000192,702.4964841000037,702.4964841000037,702.4964841000037,705.471607000014,j,1.0455969999893568,0.2235639999853447,705.4716469999985,705.4716589000018,None,,,,,,,,,,,,,,,,,00046,001,2026-01-17_18h21.17.024,MST_task,2024.2.0,59.91256360497875,2026-01-17 18h21.27.258308 +0530,
,Scenes\176a.jpg,156,0,157,,,,,,,j,0.8445246999908704,0.20001390000106767,None,,,,,,157,0,156,705.4880655000161,,,,,,,,,,,,,,,,,,,,,,,,,,,,,,705.471758300002,705.4880655000161,705.9715056999994,,,,,,,,,,,,,,705.9934933000186,,,,,,,,,,,,,705.9909247000178,705.9934933000186,705.9934933000186,705.9934933000186,708.9884032000264,j,0.8445246999908704,0.20001390000106767,708.9884487000236,708.9884612000023,None,,,,,,,,,,,,,,,,,00046,001,2026-01-17_18h21.17.024,MST_task,2024.2.0,59.91256360497875,2026-01-17 18h21.27.258308 +0530,
,Scenes\153a.jpg,157,0,158,,,,,,,j,1.1000815000152215,0.16899959999136627,None,,,,,,158,0,157,709.0047586000001,,,,,,,,,,,,,,,,,,,,,,,,,,,,,,708.9885323000199,709.0047586000001,709.4884752000216,,,,,,,,,,,,,,709.5054222000181,,,,,,,,,,,,,709.5006889000069,709.5054222000181,709.5054222000181,709.5054222000181,712.4886087000195,j,1.1000815000152215,0.16899959999136627,712.4886495000101,712.488660700008,None,712.5047498000204,712.5047498000204,712.5047498000204,,,,,,,,,,,,,,00046,001,2026-01-17_18h21.17.024,MST_task,2024.2.0,59.91256360497875,2026-01-17 18h21.27.258308 +0530,
,Scenes\080a.jpg,158,0,159,,,,,,,j,0.8407358999829739,0.16801310001756065,None,,,,,,159,0,158,712.5047498000204,,,,,,,,,,,,,,,,,,,,,,,,,,,,,,712.4887562000076,712.5047498000204,712.9883580000023,,,,,,,,,,,,,,713.0052885000187,,,,,,,,,,,,,713.000901100022,713.0052885000187,713.0052885000187,713.0052885000187,715.9888501000241,j,0.8407358999829739,0.16801310001756065,715.98889160002,715.9889029000187,None,716.0047045000247,716.0047045000247,716.0047045000247,,,,,,,,,,,,,,00046,001,2026-01-17_18h21.17.024,MST_task,2024.2.0,59.91256360497875,2026-01-17 18h21.27.258308 +0530,
