thisN,thisTrialN,thisRepN,key_resp_3.keys,key_resp_3.rt,key_resp_3.duration,trials.thisRepN,trials.thisTrialN,trials.thisN,thisRow.t,notes,intro_page.started,text.started,key_resp.started,intro_page.stopped,key_resp.keys,key_resp.rt,key_resp.duration,instructions.started,text_2.started,key_resp_2.started,instructions.stopped,key_resp_2.keys,key_resp_2.rt,key_resp_2.duration,demo1.started,image_1.started,image_2.started,text_7.started,key_resp_6.started,text_9.started,demo1.stopped,key_resp_6.keys,key_resp_6.rt,key_resp_6.duration,demo2.started,image_5.started,image_6.started,text_11.started,text_12.started,key_resp_8.started,demo2.stopped,key_resp_8.keys,key_resp_8.rt,key_resp_8.duration,demo_conclusion.started,text_13.started,key_resp_9.started,demo_conclusion.stopped,key_resp_9.keys,key_resp_9.rt,key_resp_9.duration,start_test.started,text_6.started,key_resp_5.started,start_test.stopped,key_resp_5.keys,key_resp_5.rt,key_resp_5.duration,ISI.started,text_4.started,text_4.stopped,ISI.stopped,routine_1.started,image.started,text_3.started,key_resp_3.started,routine_1.stopped,image_path,position_of_stimuli,trials.key_resp_3.keys,trials.key_resp_3.rt,trials.key_resp_3.duration,End_page.started,text_5.started,key_resp_4.started,End_page.stopped,key_resp_4.keys,key_resp_4.rt,key_resp_4.duration,participant,session,date,expName,psychopyVersion,frameRate,expStart,
,,,,,,,,,,,0.0014498000018647872,0.0034320000049774535,0.0034320000049774535,2.3937835000033374,space,2.3812486000024364,None,,,,,,,,,,,,,,,,,,,,,,,,,,,,,,,,,,,,,,,,,,,,,,,,,,,,,,,,,,,,,,,00042,001,2026-01-17_15h54.18.926,MST_test,2024.2.0,59.921466925630554,2026-01-17 15h54.34.530488 +0530,
,,,,,,,,,,,,,,,,,,2.3938249000057112,2.4107552000059513,2.4107552000059513,11.10674910000671,space,8.678325600005337,None,,,,,,,,,,,,,,,,,,,,,,,,,,,,,,,,,,,,,,,,,,,,,,,,,,,,,,,,00042,001,2026-01-17_15h54.18.926,MST_test,2024.2.0,59.921466925630554,2026-01-17 15h54.34.530488 +0530,
,,,,,,,,,,,,,,,,,,,,,,,,,11.106832200006465,11.1438574000058,11.1438574000058,11.1438574000058,11.1438574000058,11.1438574000058,14.506549200006702,space,3.352649599997676,None,,,,,,,,,,,,,,,,,,,,,,,,,,,,,,,,,,,,,,,,,,,,,,00042,001,2026-01-17_15h54.18.926,MST_test,2024.2.0,59.921466925630554,2026-01-17 15h54.34.530488 +0530,
,,,,,,,,,,,,,,,,,,,,,,,,,,,,,,,,,,,14.506629000003159,14.521355600001698,14.521355600001698,14.521355600001698,14.521355600001698,14.521355600001698,15.923462000006111,space,1.392394599999534,None,,,,,,,,,,,,,,,,,,,,,,,,,,,,,,,,,,,,00042,001,2026-01-17_15h54.18.926,MST_test,2024.2.0,59.921466925630554,2026-01-17 15h54.34.530488 +0530,
,,,,,,,,,,,,,,,,,,,,,,,,,,,,,,,,,,,,,,,,,,,,,15.923581000002741,15.93785530000605,15.93785530000605,28.55627070000628,space,12.60686110000097,None,,,,,,,,,,,,,,,,,,,,,,,,,,,,,00042,001,2026-01-17_15h54.18.926,MST_test,2024.2.0,59.921466925630554,2026-01-17 15h54.34.530488 +0530,
,,,,,,,,,,,,,,,,,,,,,,,,,,,,,,,,,,,,,,,,,,,,,,,,,,,,28.55639979999978,28.5708861000021,28.5708861000021,93.22365970000101,space,64.64666100000613,None,,,,,,,,,,,,,,,,,,,,,,00042,001,2026-01-17_15h54.18.926,MST_test,2024.2.0,59.921466925630554,2026-01-17 15h54.34.530488 +0530,
0,0,1,n,3.107690199998615,None,1,0,0,93.23747010000079,,,,,,,,,,,,,,,,,,,,,,,,,,,,,,,,,,,,,,,,,,,,,,,,,,93.2306538000048,93.23747010000079,93.7417240000068,93.72182650000468,93.73918400000548,93.7417240000068,93.7417240000068,93.7417240000068,96.8563909000004,Scenes\162a.jpg,mid,n,3.107690199998615,None,,,,,,,,00042,001,2026-01-17_15h54.18.926,MST_test,2024.2.0,59.921466925630554,2026-01-17 15h54.34.530488 +0530,
1,0,2,n,2.4450187999973423,None,2,0,1,96.870943300004,,,,,,,,,,,,,,,,,,,,,,,,,,,,,,,,,,,,,,,,,,,,,,,,,,96.85671990000264,96.870943300004,97.37141940000583,97.35522930000297,97.36398570000165,97.37141940000583,97.37141940000583,97.37141940000583,99.82282990000385,Objects\164a.jpg,post,n,2.4450187999973423,None,,,,,,,,00042,001,2026-01-17_15h54.18.926,MST_test,2024.2.0,59.921466925630554,2026-01-17 15h54.34.530488 +0530,
2,0,3,s,2.0472014999977546,None,3,0,2,99.83776120000402,,,,,,,,,,,,,,,,,,,,,,,,,,,,,,,,,,,,,,,,,,,,,,,,,,99.82325320000382,99.83776120000402,100.33781590000581,100.32203660000232,100.33036150000407,100.33781590000581,100.33781590000581,100.33781590000581,102.38967210000555,Objects\148b.jpg,pre,s,2.0472014999977546,None,,,,,,,,00042,001,2026-01-17_15h54.18.926,MST_test,2024.2.0,59.921466925630554,2026-01-17 15h54.34.530488 +0530,
3,0,4,n,1.233348300003854,None,4,0,3,102.40435200000502,,,,,,,,,,,,,,,,,,,,,,,,,,,,,,,,,,,,,,,,,,,,,,,,,,102.39006450000306,102.40435200000502,102.90449590000208,102.88862000000518,102.8963201000006,102.90449590000208,102.90449590000208,102.90449590000208,104.1403838000042,Foils\101b.jpg,none,n,1.233348300003854,None,,,,,,,,00042,001,2026-01-17_15h54.18.926,MST_test,2024.2.0,59.921466925630554,2026-01-17 15h54.34.530488 +0530,
4,0,5,o,1.6750004999994417,None,5,0,4,104.15435900000011,,,,,,,,,,,,,,,,,,,,,,,,,,,,,,,,,,,,,,,,,,,,,,,,,,104.14073780000035,104.15435900000011,104.65453390000039,104.63855360000161,104.64679010000691,104.65453390000039,104.65453390000039,104.65453390000039,106.33976540000003,Objects\053a.jpg,post,o,1.6750004999994417,None,,,,,,,,00042,001,2026-01-17_15h54.18.926,MST_test,2024.2.0,59.921466925630554,2026-01-17 15h54.34.530488 +0530,
5,0,6,s,5.282092500005092,None,6,0,5,106.3543325999999,,,,,,,,,,,,,,,,,,,,,,,,,,,,,,,,,,,,,,,,,,,,,,,,,,106.34017550000135,106.3543325999999,106.8549370000037,106.83906770000613,106.84756400000333,106.8549370000037,106.8549370000037,106.8549370000037,112.13963060000242,Scenes\061a.jpg,post,s,5.282092500005092,None,,,,,,,,00042,001,2026-01-17_15h54.18.926,MST_test,2024.2.0,59.921466925630554,2026-01-17 15h54.34.530488 +0530,
6,0,7,s,3.9161816999985604,None,7,0,6,112.15431520000129,,,,,,,,,,,,,,,,,,,,,,,,,,,,,,,,,,,,,,,,,,,,,,,,,,112.13993250000203,112.15431520000129,112.6772345000063,112.63862540000264,112.67407270000695,112.6772345000063,112.6772345000063,112.6772345000063,116.60626650000631,Objects\127b.jpg,post,s,3.9161816999985604,None,,,,,,,,00042,001,2026-01-17_15h54.18.926,MST_test,2024.2.0,59.921466925630554,2026-01-17 15h54.34.530488 +0530,
7,0,8,o,3.0969790000017383,None,8,0,7,116.62096569999994,,,,,,,,,,,,,,,,,,,,,,,,,,,,,,,,,,,,,,,,,,,,,,,,,,116.6066798000029,116.62096569999994,117.12771560000692,117.105799200006,117.1246084000013,117.12771560000692,117.12771560000692,117.12771560000692,120.23976519999997,Scenes\165a.jpg,mid,o,3.0969790000017383,None,,,,,,,,00042,001,2026-01-17_15h54.18.926,MST_test,2024.2.0,59.921466925630554,2026-01-17 15h54.34.530488 +0530,
8,0,9,n,2.7425461999955587,None,9,0,8,120.25466610000149,,,,,,,,,,,,,,,,,,,,,,,,,,,,,,,,,,,,,,,,,,,,,,,,,,120.2401788000061,120.25466610000149,120.75483010000607,120.73860250000143,120.74953140000434,120.75483010000607,120.75483010000607,120.75483010000607,123.50772720000532,Foils\074a.jpg,none,n,2.7425461999955587,None,,,,,,,,00042,001,2026-01-17_15h54.18.926,MST_test,2024.2.0,59.921466925630554,2026-01-17 15h54.34.530488 +0530,
9,0,10,s,2.7321808000051533,None,10,0,9,123.52083360000688,,,,,,,,,,,,,,,,,,,,,,,,,,,,,,,,,,,,,,,,,,,,,,,,,,123.50808289999986,123.52083360000688,124.02111850000074,124.00533060000453,124.01366330000019,124.02111850000074,124.02111850000074,124.02111850000074,126.75686340000539,Foils\086a.jpg,none,s,2.7321808000051533,None,,,,,,,,00042,001,2026-01-17_15h54.18.926,MST_test,2024.2.0,59.921466925630554,2026-01-17 15h54.34.530488 +0530,
10,0,11,n,2.007452400001057,None,11,0,10,126.77093170000444,,,,,,,,,,,,,,,,,,,,,,,,,,,,,,,,,,,,,,,,,,,,,,,,,,126.75712290000229,126.77093170000444,127.31316810000135,127.25531450000562,127.31044939999992,127.31316810000135,127.31316810000135,127.31316810000135,129.32355250000546,Scenes\116b.jpg,mid,n,2.007452400001057,None,,,,,,,,00042,001,2026-01-17_15h54.18.926,MST_test,2024.2.0,59.921466925630554,2026-01-17 15h54.34.530488 +0530,
11,0,12,o,1.2419491000036942,None,12,0,11,129.33753600000637,,,,,,,,,,,,,,,,,,,,,,,,,,,,,,,,,,,,,,,,,,,,,,,,,,129.32378600000084,129.33753600000637,129.8382028000051,129.82199620000029,129.82759220000298,129.8382028000051,129.8382028000051,129.8382028000051,131.08968820000155,Objects\041a.jpg,pre,o,1.2419491000036942,None,,,,,,,,00042,001,2026-01-17_15h54.18.926,MST_test,2024.2.0,59.921466925630554,2026-01-17 15h54.34.530488 +0530,
12,0,13,s,1.549159199996211,None,13,0,12,131.1043318000011,,,,,,,,,,,,,,,,,,,,,,,,,,,,,,,,,,,,,,,,,,,,,,,,,,131.0899470000004,131.1043318000011,131.70739020000474,131.58899500000553,131.70320830000128,131.70739020000474,131.70739020000474,131.70739020000474,133.27297080000426,Scenes\040b.jpg,mid,s,1.549159199996211,None,,,,,,,,00042,001,2026-01-17_15h54.18.926,MST_test,2024.2.0,59.921466925630554,2026-01-17 15h54.34.530488 +0530,
13,0,14,n,3.1139883999931044,None,14,0,13,133.28784150000138,,,,,,,,,,,,,,,,,,,,,,,,,,,,,,,,,,,,,,,,,,,,,,,,,,133.27332500000193,133.28784150000138,133.8466974000039,133.77220290000696,133.84340900000097,133.8466974000039,133.8466974000039,133.8466974000039,136.972797800001,Scenes\180b.jpg,mid,n,3.1139883999931044,None,,,,,,,,00042,001,2026-01-17_15h54.18.926,MST_test,2024.2.0,59.921466925630554,2026-01-17 15h54.34.530488 +0530,
14,0,15,s,2.751561600001878,None,15,0,14,136.9876901000025,,,,,,,,,,,,,,,,,,,,,,,,,,,,,,,,,,,,,,,,,,,,,,,,,,136.9730533000038,136.9876901000025,137.5206754000028,137.47222320000583,137.5178814000028,137.5206754000028,137.5206754000028,137.5206754000028,140.28931540000485,Foils\scenes13.jpg,none,s,2.751561600001878,None,,,,,,,,00042,001,2026-01-17_15h54.18.926,MST_test,2024.2.0,59.921466925630554,2026-01-17 15h54.34.530488 +0530,
15,0,16,o,3.1952149999997346,None,16,0,15,140.3043248000031,,,,,,,,,,,,,,,,,,,,,,,,,,,,,,,,,,,,,,,,,,,,,,,,,,140.2896849000026,140.3043248000031,140.804965000003,140.78916910000407,140.79520810000395,140.804965000003,140.804965000003,140.804965000003,144.00635100000363,Objects\031b.jpg,mid,o,3.1952149999997346,None,,,,,,,,00042,001,2026-01-17_15h54.18.926,MST_test,2024.2.0,59.921466925630554,2026-01-17 15h54.34.530488 +0530,
16,0,17,o,1.0404907999982242,None,17,0,16,144.0208544000052,,,,,,,,,,,,,,,,,,,,,,,,,,,,,,,,,,,,,,,,,,,,,,,,,,144.00672020000638,144.0208544000052,144.52116790000582,144.5053379000019,144.5127627000038,144.52116790000582,144.52116790000582,144.52116790000582,145.57247280000593,Objects\129a.jpg,post,o,1.0404907999982242,None,,,,,,,,00042,001,2026-01-17_15h54.18.926,MST_test,2024.2.0,59.921466925630554,2026-01-17 15h54.34.530488 +0530,
17,0,18,o,1.1511013000053936,None,18,0,17,145.58763480000198,,,,,,,,,,,,,,,,,,,,,,,,,,,,,,,,,,,,,,,,,,,,,,,,,,145.5727496000036,145.58763480000198,146.10571770000388,146.07202540000435,146.10297840000567,146.10571770000388,146.10571770000388,146.10571770000388,147.2730531000052,Objects\085b.jpg,mid,o,1.1511013000053936,None,,,,,,,,00042,001,2026-01-17_15h54.18.926,MST_test,2024.2.0,59.921466925630554,2026-01-17 15h54.34.530488 +0530,
18,0,19,o,1.7802605999968364,None,19,0,18,147.28762370000186,,,,,,,,,,,,,,,,,,,,,,,,,,,,,,,,,,,,,,,,,,,,,,,,,,147.2733623000022,147.28762370000186,147.78790610000578,147.7719511000032,147.7776498000021,147.78790610000578,147.78790610000578,147.78790610000578,149.57278080000106,Objects\175b.jpg,post,o,1.7802605999968364,None,,,,,,,,00042,001,2026-01-17_15h54.18.926,MST_test,2024.2.0,59.921466925630554,2026-01-17 15h54.34.530488 +0530,
19,0,20,s,2.281215399998473,None,20,0,19,149.58760540000367,,,,,,,,,,,,,,,,,,,,,,,,,,,,,,,,,,,,,,,,,,,,,,,,,,149.5730893,149.58760540000367,150.08782110000175,150.07231810000667,150.07793030000175,150.08782110000175,150.08782110000175,150.08782110000175,152.37273810000625,Objects\120b.jpg,post,s,2.281215399998473,None,,,,,,,,00042,001,2026-01-17_15h54.18.926,MST_test,2024.2.0,59.921466925630554,2026-01-17 15h54.34.530488 +0530,
20,0,21,s,2.8245448999950895,None,21,0,20,152.38760640000692,,,,,,,,,,,,,,,,,,,,,,,,,,,,,,,,,,,,,,,,,,,,,,,,,,152.37298170000577,152.38760640000692,152.8880108000012,152.87198970000463,152.8782699000003,152.8880108000012,152.8880108000012,152.8880108000012,155.72300640000321,Objects\088a.jpg,pre,s,2.8245448999950895,None,,,,,,,,00042,001,2026-01-17_15h54.18.926,MST_test,2024.2.0,59.921466925630554,2026-01-17 15h54.34.530488 +0530,
21,0,22,s,2.2025479000003543,None,22,0,21,155.73758780000207,,,,,,,,,,,,,,,,,,,,,,,,,,,,,,,,,,,,,,,,,,,,,,,,,,155.72343320000073,155.73758780000207,156.23776830000133,156.22220040000684,156.22746030000417,156.23776830000133,156.23776830000133,156.23776830000133,158.4558801000021,Objects\112a.jpg,mid,s,2.2025479000003543,None,,,,,,,,00042,001,2026-01-17_15h54.18.926,MST_test,2024.2.0,59.921466925630554,2026-01-17 15h54.34.530488 +0530,
22,0,23,o,3.9262737999961246,None,23,0,22,158.47111150000273,,,,,,,,,,,,,,,,,,,,,,,,,,,,,,,,,,,,,,,,,,,,,,,,,,158.4562331000052,158.47111150000273,159.01056200000312,158.95556670000224,159.0076326000053,159.01056200000312,159.01056200000312,159.01056200000312,162.93805130000692,Foils\scenes11.jpg,none,o,3.9262737999961246,None,,,,,,,,00042,001,2026-01-17_15h54.18.926,MST_test,2024.2.0,59.921466925630554,2026-01-17 15h54.34.530488 +0530,
23,0,24,o,1.4180109000008088,None,24,0,23,162.95420740000554,,,,,,,,,,,,,,,,,,,,,,,,,,,,,,,,,,,,,,,,,,,,,,,,,,162.9381618000043,162.95420740000554,163.4547692000051,163.43873620000522,163.44698500000231,163.4547692000051,163.4547692000051,163.4547692000051,164.88913800000591,Objects\185a.jpg,mid,o,1.4180109000008088,None,,,,,,,,00042,001,2026-01-17_15h54.18.926,MST_test,2024.2.0,59.921466925630554,2026-01-17 15h54.34.530488 +0530,
24,0,25,o,1.1966912999996566,None,25,0,24,164.9042125000051,,,,,,,,,,,,,,,,,,,,,,,,,,,,,,,,,,,,,,,,,,,,,,,,,,164.88934040000458,164.9042125000051,165.40465600000607,165.38875860000553,165.3963639000067,165.40465600000607,165.40465600000607,165.40465600000607,166.60615460000554,Objects\149a.jpg,mid,o,1.1966912999996566,None,,,,,,,,00042,001,2026-01-17_15h54.18.926,MST_test,2024.2.0,59.921466925630554,2026-01-17 15h54.34.530488 +0530,
25,0,26,s,2.9483875000005355,None,26,0,25,166.62113769999996,,,,,,,,,,,,,,,,,,,,,,,,,,,,,,,,,,,,,,,,,,,,,,,,,,166.6064217000021,166.62113769999996,167.19645090000267,167.10556040000665,167.1932783000011,167.19645090000267,167.19645090000267,167.19645090000267,170.15640130000247,Scenes\010b.jpg,mid,s,2.9483875000005355,None,,,,,,,,00042,001,2026-01-17_15h54.18.926,MST_test,2024.2.0,59.921466925630554,2026-01-17 15h54.34.530488 +0530,
26,0,27,o,1.8806199000027846,None,27,0,26,170.1710294000004,,,,,,,,,,,,,,,,,,,,,,,,,,,,,,,,,,,,,,,,,,,,,,,,,,170.15676180000446,170.1710294000004,170.7278895000054,170.6554585000049,170.72494720000395,170.7278895000054,170.7278895000054,170.7278895000054,172.62285830000474,Scenes\052b.jpg,pre,o,1.8806199000027846,None,,,,,,,,00042,001,2026-01-17_15h54.18.926,MST_test,2024.2.0,59.921466925630554,2026-01-17 15h54.34.530488 +0530,
27,0,28,o,0.9338384000002407,None,28,0,27,172.6377208000049,,,,,,,,,,,,,,,,,,,,,,,,,,,,,,,,,,,,,,,,,,,,,,,,,,172.62314100000367,172.6377208000049,173.13849870000558,173.12193350000598,173.12943180000002,173.13849870000558,173.13849870000558,173.13849870000558,174.08965660000104,Objects\066a.jpg,pre,o,0.9338384000002407,None,,,,,,,,00042,001,2026-01-17_15h54.18.926,MST_test,2024.2.0,59.921466925630554,2026-01-17 15h54.34.530488 +0530,
28,0,29,o,3.110087699998985,None,29,0,28,174.10512140000355,,,,,,,,,,,,,,,,,,,,,,,,,,,,,,,,,,,,,,,,,,,,,,,,,,174.08992880000005,174.10512140000355,174.61137680000684,174.58882510000694,174.60859830000118,174.61137680000684,174.61137680000684,174.61137680000684,177.7236566000065,Scenes\171a.jpg,mid,o,3.110087699998985,None,,,,,,,,00042,001,2026-01-17_15h54.18.926,MST_test,2024.2.0,59.921466925630554,2026-01-17 15h54.34.530488 +0530,
29,0,30,o,1.1950114999999641,None,30,0,29,177.73763480000343,,,,,,,,,,,,,,,,,,,,,,,,,,,,,,,,,,,,,,,,,,,,,,,,,,177.72401390000596,177.73763480000343,178.23844070000632,178.22197880000022,178.23084540000127,178.23844070000632,178.23844070000632,178.23844070000632,179.4397203000044,Objects\065a.jpg,mid,o,1.1950114999999641,None,,,,,,,,00042,001,2026-01-17_15h54.18.926,MST_test,2024.2.0,59.921466925630554,2026-01-17 15h54.34.530488 +0530,
30,0,31,n,1.2179056000022683,None,31,0,30,179.4542228000064,,,,,,,,,,,,,,,,,,,,,,,,,,,,,,,,,,,,,,,,,,,,,,,,,,179.4401155000014,179.4542228000064,180.054340900002,179.93962490000558,180.0500095000025,180.054340900002,180.054340900002,180.054340900002,181.28944220000267,Foils\scenes25.jpg,none,n,1.2179056000022683,None,,,,,,,,00042,001,2026-01-17_15h54.18.926,MST_test,2024.2.0,59.921466925630554,2026-01-17 15h54.34.530488 +0530,
31,0,32,n,2.2697638000026927,None,32,0,31,181.30424170000333,,,,,,,,,,,,,,,,,,,,,,,,,,,,,,,,,,,,,,,,,,,,,,,,,,181.28981110000313,181.30424170000333,181.83526780000102,181.78872630000114,181.83302670000558,181.83526780000102,181.83526780000102,181.83526780000102,184.1065946000017,Scenes\094b.jpg,post,n,2.2697638000026927,None,,,,,,,,00042,001,2026-01-17_15h54.18.926,MST_test,2024.2.0,59.921466925630554,2026-01-17 15h54.34.530488 +0530,
32,0,33,o,1.4153217000057339,None,33,0,32,184.12127200000396,,,,,,,,,,,,,,,,,,,,,,,,,,,,,,,,,,,,,,,,,,,,,,,,,,184.10696330000064,184.12127200000396,184.64101640000445,184.6053172000029,184.63784700000542,184.64101640000445,184.64101640000445,184.64101640000445,186.07305690000067,Objects\040b.jpg,pre,o,1.4153217000057339,None,,,,,,,,00042,001,2026-01-17_15h54.18.926,MST_test,2024.2.0,59.921466925630554,2026-01-17 15h54.34.530488 +0530,
33,0,34,n,1.1504026999973576,None,34,0,33,186.08788630000345,,,,,,,,,,,,,,,,,,,,,,,,,,,,,,,,,,,,,,,,,,,,,,,,,,186.07347080000181,186.08788630000345,186.6106002000015,186.57220550000056,186.60801130000618,186.6106002000015,186.6106002000015,186.6106002000015,187.773337300001,Foils\scenes6.jpg,none,n,1.1504026999973576,None,,,,,,,,00042,001,2026-01-17_15h54.18.926,MST_test,2024.2.0,59.921466925630554,2026-01-17 15h54.34.530488 +0530,
34,0,35,o,1.6570802999995067,None,35,0,34,187.7878978000008,,,,,,,,,,,,,,,,,,,,,,,,,,,,,,,,,,,,,,,,,,,,,,,,,,187.77374090000376,187.7878978000008,188.28806550000445,188.27207060000364,188.28114080000523,188.28806550000445,188.28806550000445,188.28806550000445,189.95675190000475,Objects\070a.jpg,mid,o,1.6570802999995067,None,,,,,,,,00042,001,2026-01-17_15h54.18.926,MST_test,2024.2.0,59.921466925630554,2026-01-17 15h54.34.530488 +0530,
35,0,36,o,1.351815499998338,None,36,0,35,189.97192900000664,,,,,,,,,,,,,,,,,,,,,,,,,,,,,,,,,,,,,,,,,,,,,,,,,,189.9571677000058,189.97192900000664,,190.47155360000033,190.485680100006,190.48847530000057,190.48847530000057,190.48847530000057,191.85653350000212,Scenes\058a.jpg,mid,o,1.351815499998338,None,,,,,,,,00042,001,2026-01-17_15h54.18.926,MST_test,2024.2.0,59.921466925630554,2026-01-17 15h54.34.530488 +0530,
36,0,37,o,1.8594076999943354,None,37,0,36,191.87096490000113,,,,,,,,,,,,,,,,,,,,,,,,,,,,,,,,,,,,,,,,,,,,,,,,,,191.85687360000156,191.87096490000113,192.37360200000694,192.35487770000327,192.37087380000594,192.37360200000694,192.37360200000694,192.37360200000694,194.2399796000027,Scenes\034a.jpg,pre,o,1.8594076999943354,None,,,,,,,,00042,001,2026-01-17_15h54.18.926,MST_test,2024.2.0,59.921466925630554,2026-01-17 15h54.34.530488 +0530,
37,0,38,o,2.3741116000019247,None,38,0,37,194.25423570000567,,,,,,,,,,,,,,,,,,,,,,,,,,,,,,,,,,,,,,,,,,,,,,,,,,194.24024110000028,194.25423570000567,194.7549919000012,194.73876920000475,194.7454687999998,194.7549919000012,194.7549919000012,194.7549919000012,197.13960480000242,Objects\119a.jpg,mid,o,2.3741116000019247,None,,,,,,,,00042,001,2026-01-17_15h54.18.926,MST_test,2024.2.0,59.921466925630554,2026-01-17 15h54.34.530488 +0530,
38,0,39,n,1.0589918000041507,None,39,0,38,197.1541717,,,,,,,,,,,,,,,,,,,,,,,,,,,,,,,,,,,,,,,,,,,,,,,,,,197.13990030000423,197.1541717,197.6544914000042,197.63866250000137,197.64603860000352,197.6544914000042,197.6544914000042,197.6544914000042,198.72277350000513,Foils\121a.jpg,none,n,1.0589918000041507,None,,,,,,,,00042,001,2026-01-17_15h54.18.926,MST_test,2024.2.0,59.921466925630554,2026-01-17 15h54.34.530488 +0530,
39,0,40,o,1.2025884999966365,None,40,0,39,198.73812210000324,,,,,,,,,,,,,,,,,,,,,,,,,,,,,,,,,,,,,,,,,,,,,,,,,,198.72310670000297,198.73812210000324,199.2378311000066,199.2223382000011,199.23089050000272,199.2378311000066,199.2378311000066,199.2378311000066,200.4562470000019,Objects\108a.jpg,mid,o,1.2025884999966365,None,,,,,,,,00042,001,2026-01-17_15h54.18.926,MST_test,2024.2.0,59.921466925630554,2026-01-17 15h54.34.530488 +0530,
40,0,41,o,0.8369993000014802,None,41,0,40,200.47095290000289,,,,,,,,,,,,,,,,,,,,,,,,,,,,,,,,,,,,,,,,,,,,,,,,,,200.45652910000354,200.47095290000289,200.97120690000156,200.95629430000554,200.96409530000528,200.97120690000156,200.97120690000156,200.97120690000156,201.82284390000132,Objects\007a.jpg,pre,o,0.8369993000014802,None,,,,,,,,00042,001,2026-01-17_15h54.18.926,MST_test,2024.2.0,59.921466925630554,2026-01-17 15h54.34.530488 +0530,
41,0,42,n,2.557330199997523,None,42,0,41,201.83803040000203,,,,,,,,,,,,,,,,,,,,,,,,,,,,,,,,,,,,,,,,,,,,,,,,,,201.82308090000151,201.83803040000203,202.3878959000067,202.32210290000512,202.3845264000047,202.3878959000067,202.3878959000067,202.3878959000067,204.95602960000542,Scenes\103b.jpg,post,n,2.557330199997523,None,,,,,,,,00042,001,2026-01-17_15h54.18.926,MST_test,2024.2.0,59.921466925630554,2026-01-17 15h54.34.530488 +0530,
42,0,43,s,3.221511499999906,None,43,0,42,204.97105930000544,,,,,,,,,,,,,,,,,,,,,,,,,,,,,,,,,,,,,,,,,,,,,,,,,,204.9562761000052,204.97105930000544,205.52237560000503,205.45558610000444,205.51887200000056,205.52237560000503,205.52237560000503,205.52237560000503,208.75484540000616,Scenes\087b.jpg,mid,s,3.221511499999906,None,,,,,,,,00042,001,2026-01-17_15h54.18.926,MST_test,2024.2.0,59.921466925630554,2026-01-17 15h54.34.530488 +0530,
43,0,44,s,2.7182582000023103,None,44,0,43,208.77047070000117,,,,,,,,,,,,,,,,,,,,,,,,,,,,,,,,,,,,,,,,,,,,,,,,,,208.75496990000102,208.77047070000117,209.33843330000673,209.25447590000113,209.3356774000058,209.33843330000673,209.33843330000673,209.33843330000673,212.07323640000686,Scenes\062b.jpg,mid,s,2.7182582000023103,None,,,,,,,,00042,001,2026-01-17_15h54.18.926,MST_test,2024.2.0,59.921466925630554,2026-01-17 15h54.34.530488 +0530,
44,0,45,o,1.4224595999985468,None,45,0,44,212.08757060000062,,,,,,,,,,,,,,,,,,,,,,,,,,,,,,,,,,,,,,,,,,,,,,,,,,212.07366670000192,212.08757060000062,212.59437700000126,212.57212290000462,212.59111410000332,212.59437700000126,212.59437700000126,212.59437700000126,214.02282090000517,Scenes\109a.jpg,mid,o,1.4224595999985468,None,,,,,,,,00042,001,2026-01-17_15h54.18.926,MST_test,2024.2.0,59.921466925630554,2026-01-17 15h54.34.530488 +0530,
45,0,46,s,2.765857700003835,None,46,0,45,214.03767670000525,,,,,,,,,,,,,,,,,,,,,,,,,,,,,,,,,,,,,,,,,,,,,,,,,,214.0230589000057,214.03767670000525,214.53827280000405,214.5220299000066,214.533691800003,214.53827280000405,214.53827280000405,214.53827280000405,217.30617620000703,Objects\172a.jpg,post,s,2.765857700003835,None,,,,,,,,00042,001,2026-01-17_15h54.18.926,MST_test,2024.2.0,59.921466925630554,2026-01-17 15h54.34.530488 +0530,
46,0,47,s,2.104221800000232,None,47,0,46,217.32116180000594,,,,,,,,,,,,,,,,,,,,,,,,,,,,,,,,,,,,,,,,,,,,,,,,,,217.30668580000201,217.32116180000594,217.92078830000537,217.80524640000658,217.91805860000022,217.92078830000537,217.92078830000537,217.92078830000537,220.03966950000176,Objects\150b.jpg,post,s,2.104221800000232,None,,,,,,,,00042,001,2026-01-17_15h54.18.926,MST_test,2024.2.0,59.921466925630554,2026-01-17 15h54.34.530488 +0530,
47,0,48,n,1.7102546999958577,None,48,0,47,220.0542196000024,,,,,,,,,,,,,,,,,,,,,,,,,,,,,,,,,,,,,,,,,,,,,,,,,,220.04007060000004,220.0542196000024,220.5618345000039,220.53968200000236,220.55918720000045,220.5618345000039,220.5618345000039,220.5618345000039,222.28951900000538,Scenes\041a.jpg,mid,n,1.7102546999958577,None,,,,,,,,00042,001,2026-01-17_15h54.18.926,MST_test,2024.2.0,59.921466925630554,2026-01-17 15h54.34.530488 +0530,
48,0,49,s,2.222936699996353,None,49,0,48,222.30425520000426,,,,,,,,,,,,,,,,,,,,,,,,,,,,,,,,,,,,,,,,,,,,,,,,,,222.28978420000203,222.30425520000426,222.81028060000244,222.78882830000657,222.8072536000036,222.81028060000244,222.81028060000244,222.81028060000244,225.0401353000052,Scenes\093a.jpg,mid,s,2.222936699996353,None,,,,,,,,00042,001,2026-01-17_15h54.18.926,MST_test,2024.2.0,59.921466925630554,2026-01-17 15h54.34.530488 +0530,
49,0,50,n,2.05148989999725,None,50,0,49,225.05422910000198,,,,,,,,,,,,,,,,,,,,,,,,,,,,,,,,,,,,,,,,,,,,,,,,,,225.04042000000481,225.05422910000198,225.58176520000416,225.5386620000063,225.57887160000246,225.58176520000416,225.58176520000416,225.58176520000416,227.63968350000505,Foils\010a.jpg,none,n,2.05148989999725,None,,,,,,,,00042,001,2026-01-17_15h54.18.926,MST_test,2024.2.0,59.921466925630554,2026-01-17 15h54.34.530488 +0530,
50,0,51,s,1.6715739999999641,None,51,0,50,227.65419730000576,,,,,,,,,,,,,,,,,,,,,,,,,,,,,,,,,,,,,,,,,,,,,,,,,,227.63996240000415,227.65419730000576,228.21676320000552,228.13900660000218,228.21384260000195,228.21676320000552,228.21676320000552,228.21676320000552,229.89043220000167,Scenes\136b.jpg,pre,s,1.6715739999999641,None,,,,,,,,00042,001,2026-01-17_15h54.18.926,MST_test,2024.2.0,59.921466925630554,2026-01-17 15h54.34.530488 +0530,
51,0,52,o,1.1724249000035343,None,52,0,51,229.90457230000175,,,,,,,,,,,,,,,,,,,,,,,,,,,,,,,,,,,,,,,,,,,,,,,,,,229.89082240000425,229.90457230000175,230.40490280000085,230.38868420000654,230.39795890000096,230.40490280000085,230.40490280000085,230.40490280000085,231.58936340000218,Objects\094a.jpg,mid,o,1.1724249000035343,None,,,,,,,,00042,001,2026-01-17_15h54.18.926,MST_test,2024.2.0,59.921466925630554,2026-01-17 15h54.34.530488 +0530,
52,0,53,o,1.79967530000431,None,53,0,52,231.60429600000498,,,,,,,,,,,,,,,,,,,,,,,,,,,,,,,,,,,,,,,,,,,,,,,,,,231.58960830000433,231.60429600000498,232.10473840000486,232.0886759000059,232.0938998000056,232.10473840000486,232.10473840000486,232.10473840000486,233.90662840000005,Foils\073a.jpg,none,o,1.79967530000431,None,,,,,,,,00042,001,2026-01-17_15h54.18.926,MST_test,2024.2.0,59.921466925630554,2026-01-17 15h54.34.530488 +0530,
53,0,54,s,1.7653704999975162,None,54,0,53,233.9210949000044,,,,,,,,,,,,,,,,,,,,,,,,,,,,,,,,,,,,,,,,,,,,,,,,,,233.9069043000054,233.9210949000044,234.5630805000037,234.40574950000155,234.56004390000453,234.5630805000037,234.5630805000037,234.5630805000037,236.33931690000463,Scenes\132b.jpg,mid,s,1.7653704999975162,None,,,,,,,,00042,001,2026-01-17_15h54.18.926,MST_test,2024.2.0,59.921466925630554,2026-01-17 15h54.34.530488 +0530,
54,0,55,o,4.793124000003445,None,55,0,54,236.3546331000034,,,,,,,,,,,,,,,,,,,,,,,,,,,,,,,,,,,,,,,,,,,,,,,,,,236.3396228000056,236.3546331000034,236.85613290000038,236.83887530000356,236.85334440000588,236.85613290000038,236.85613290000038,236.85613290000038,241.65667500000563,Scenes\104a.jpg,post,o,4.793124000003445,None,,,,,,,,00042,001,2026-01-17_15h54.18.926,MST_test,2024.2.0,59.921466925630554,2026-01-17 15h54.34.530488 +0530,
55,0,56,s,1.5409859999999753,None,56,0,55,241.67140010000003,,,,,,,,,,,,,,,,,,,,,,,,,,,,,,,,,,,,,,,,,,,,,,,,,,241.6569376000043,241.67140010000003,242.1961100000044,242.15535310000269,242.1928567000068,242.1961100000044,242.1961100000044,242.1961100000044,243.74018980000255,Objects\110b.jpg,pre,s,1.5409859999999753,None,,,,,,,,00042,001,2026-01-17_15h54.18.926,MST_test,2024.2.0,59.921466925630554,2026-01-17 15h54.34.530488 +0530,
56,0,57,o,1.7452877999967313,None,57,0,56,243.7542401000028,,,,,,,,,,,,,,,,,,,,,,,,,,,,,,,,,,,,,,,,,,,,,,,,,,243.7404480000041,243.7542401000028,244.35223190000397,244.23866550000093,244.3491742000042,244.35223190000397,244.35223190000397,244.35223190000397,246.1059385000044,Objects\086b.jpg,post,o,1.7452877999967313,None,,,,,,,,00042,001,2026-01-17_15h54.18.926,MST_test,2024.2.0,59.921466925630554,2026-01-17 15h54.34.530488 +0530,
57,0,58,n,1.459925299997849,None,58,0,57,246.12103070000012,,,,,,,,,,,,,,,,,,,,,,,,,,,,,,,,,,,,,,,,,,,,,,,,,,246.10633300000336,246.12103070000012,246.62115990000166,246.60523939999985,246.61163330000272,246.62115990000166,246.62115990000166,246.62115990000166,248.08983170000283,Foils\049a.jpg,none,n,1.459925299997849,None,,,,,,,,00042,001,2026-01-17_15h54.18.926,MST_test,2024.2.0,59.921466925630554,2026-01-17 15h54.34.530488 +0530,
58,0,59,n,6.0721879999982775,None,59,0,58,248.10463780000282,,,,,,,,,,,,,,,,,,,,,,,,,,,,,,,,,,,,,,,,,,,,,,,,,,248.09021770000254,248.10463780000282,248.63240020000376,248.58864130000438,248.62950220000494,248.63240020000376,248.63240020000376,248.63240020000376,254.7070218000008,Objects\189b.jpg,pre,n,6.0721879999982775,None,,,,,,,,00042,001,2026-01-17_15h54.18.926,MST_test,2024.2.0,59.921466925630554,2026-01-17 15h54.34.530488 +0530,
59,0,60,s,2.374639199995727,None,60,0,59,254.72097740000027,,,,,,,,,,,,,,,,,,,,,,,,,,,,,,,,,,,,,,,,,,,,,,,,,,254.7074397000033,254.72097740000027,255.26608200000192,255.2054813000068,255.26317360000394,255.26608200000192,255.26608200000192,255.26608200000192,257.6564298000012,Scenes\120b.jpg,post,s,2.374639199995727,None,,,,,,,,00042,001,2026-01-17_15h54.18.926,MST_test,2024.2.0,59.921466925630554,2026-01-17 15h54.34.530488 +0530,
60,0,61,o,3.3322304999965127,None,61,0,60,257.67094770000404,,,,,,,,,,,,,,,,,,,,,,,,,,,,,,,,,,,,,,,,,,,,,,,,,,257.65682210000523,257.67094770000404,258.1719208000068,258.155416900001,258.1646689000045,258.1719208000068,258.1719208000068,258.1719208000068,261.50619610000285,Objects\026b.jpg,post,o,3.3322304999965127,None,,,,,,,,00042,001,2026-01-17_15h54.18.926,MST_test,2024.2.0,59.921466925630554,2026-01-17 15h54.34.530488 +0530,
61,0,62,o,2.1790032999997493,None,62,0,61,261.5210456000059,,,,,,,,,,,,,,,,,,,,,,,,,,,,,,,,,,,,,,,,,,,,,,,,,,261.5065653000056,261.5210456000059,262.0221665000063,262.00565250000363,262.0194235000017,262.0221665000063,262.0221665000063,262.0221665000063,264.20646240000497,Scenes\077a.jpg,post,o,2.1790032999997493,None,,,,,,,,00042,001,2026-01-17_15h54.18.926,MST_test,2024.2.0,59.921466925630554,2026-01-17 15h54.34.530488 +0530,
62,0,63,n,2.351730000002135,None,63,0,62,264.22090800000296,,,,,,,,,,,,,,,,,,,,,,,,,,,,,,,,,,,,,,,,,,,,,,,,,,264.20679080000264,264.22090800000296,264.80081050000445,264.70532330000424,264.79791470000055,264.80081050000445,264.80081050000445,264.80081050000445,267.1562997000001,Scenes\183b.jpg,pre,n,2.351730000002135,None,,,,,,,,00042,001,2026-01-17_15h54.18.926,MST_test,2024.2.0,59.921466925630554,2026-01-17 15h54.34.530488 +0530,
63,0,64,o,2.5287801000013133,None,64,0,63,267.1708706999998,,,,,,,,,,,,,,,,,,,,,,,,,,,,,,,,,,,,,,,,,,,,,,,,,,267.1565666000024,267.1708706999998,267.6715433000063,267.65521640000225,267.66417300000467,267.6715433000063,267.6715433000063,267.6715433000063,270.2067292000065,Objects\121a.jpg,pre,o,2.5287801000013133,None,,,,,,,,00042,001,2026-01-17_15h54.18.926,MST_test,2024.2.0,59.921466925630554,2026-01-17 15h54.34.530488 +0530,
64,0,65,s,2.085498099993856,None,65,0,64,270.22110310000426,,,,,,,,,,,,,,,,,,,,,,,,,,,,,,,,,,,,,,,,,,,,,,,,,,270.2070346000037,270.22110310000426,270.723290300004,270.7063452000002,270.71935620000295,270.723290300004,270.723290300004,270.723290300004,272.8226910000012,Scenes\095a.jpg,post,s,2.085498099993856,None,,,,,,,,00042,001,2026-01-17_15h54.18.926,MST_test,2024.2.0,59.921466925630554,2026-01-17 15h54.34.530488 +0530,
65,0,66,n,1.4864337999970303,None,66,0,65,272.8379095000055,,,,,,,,,,,,,,,,,,,,,,,,,,,,,,,,,,,,,,,,,,,,,,,,,,272.8229705000049,272.8379095000055,273.3384895000054,273.32252080000035,273.3287730000011,273.3384895000054,273.3384895000054,273.3384895000054,274.83969960000104,Foils\042a.jpg,none,n,1.4864337999970303,None,,,,,,,,00042,001,2026-01-17_15h54.18.926,MST_test,2024.2.0,59.921466925630554,2026-01-17 15h54.34.530488 +0530,
66,0,67,n,1.6136738999994122,None,67,0,66,274.8542973000003,,,,,,,,,,,,,,,,,,,,,,,,,,,,,,,,,,,,,,,,,,,,,,,,,,274.840031300002,274.8542973000003,275.3545765000017,275.338685600007,275.34631710000394,275.3545765000017,275.3545765000017,275.3545765000017,276.9735693000039,Objects\010b.jpg,pre,n,1.6136738999994122,None,,,,,,,,00042,001,2026-01-17_15h54.18.926,MST_test,2024.2.0,59.921466925630554,2026-01-17 15h54.34.530488 +0530,
67,0,68,o,1.0802674000005936,None,68,0,67,276.9875536000036,,,,,,,,,,,,,,,,,,,,,,,,,,,,,,,,,,,,,,,,,,,,,,,,,,276.9738606000028,276.9875536000036,277.4884061000048,277.4720707000015,277.48192550000385,277.4884061000048,277.4884061000048,277.4884061000048,278.5731150000065,Scenes\140a.jpg,pre,o,1.0802674000005936,None,,,,,,,,00042,001,2026-01-17_15h54.18.926,MST_test,2024.2.0,59.921466925630554,2026-01-17 15h54.34.530488 +0530,
68,0,69,n,1.7096281000049203,None,69,0,68,278.58754050000425,,,,,,,,,,,,,,,,,,,,,,,,,,,,,,,,,,,,,,,,,,,,,,,,,,278.57339240000147,278.58754050000425,279.09111710000434,279.07209290000173,279.0878090000042,279.09111710000434,279.09111710000434,279.09111710000434,280.80636180000147,Scenes\188a.jpg,pre,n,1.7096281000049203,None,,,,,,,,00042,001,2026-01-17_15h54.18.926,MST_test,2024.2.0,59.921466925630554,2026-01-17 15h54.34.530488 +0530,
69,0,70,o,2.185651299994788,None,70,0,69,280.82105580000643,,,,,,,,,,,,,,,,,,,,,,,,,,,,,,,,,,,,,,,,,,,,,,,,,,280.80682690000685,280.82105580000643,281.33507150000514,281.3057162000041,281.332275700006,281.33507150000514,281.33507150000514,281.33507150000514,283.5235582000023,Objects\033b.jpg,pre,o,2.185651299994788,None,,,,,,,,00042,001,2026-01-17_15h54.18.926,MST_test,2024.2.0,59.921466925630554,2026-01-17 15h54.34.530488 +0530,
70,0,71,s,1.6320064999963506,None,71,0,70,283.5374929000027,,,,,,,,,,,,,,,,,,,,,,,,,,,,,,,,,,,,,,,,,,,,,,,,,,283.52393020000454,283.5374929000027,284.0400498000017,284.02195660000143,284.03745660000277,284.0400498000017,284.0400498000017,284.0400498000017,285.6893959000008,Scenes\186a.jpg,mid,s,1.6320064999963506,None,,,,,,,,00042,001,2026-01-17_15h54.18.926,MST_test,2024.2.0,59.921466925630554,2026-01-17 15h54.34.530488 +0530,
71,0,72,o,1.147184900000866,None,72,0,71,285.7044034999999,,,,,,,,,,,,,,,,,,,,,,,,,,,,,,,,,,,,,,,,,,,,,,,,,,285.6897240000035,285.7044034999999,286.20584110000345,286.18898640000407,286.2030709000028,286.20584110000345,286.20584110000345,286.20584110000345,287.35607820000587,Scenes\107a.jpg,post,o,1.147184900000866,None,,,,,,,,00042,001,2026-01-17_15h54.18.926,MST_test,2024.2.0,59.921466925630554,2026-01-17 15h54.34.530488 +0530,
72,0,73,n,1.281984499997634,None,73,0,72,287.3712986000028,,,,,,,,,,,,,,,,,,,,,,,,,,,,,,,,,,,,,,,,,,,,,,,,,,287.3562840000013,287.3712986000028,287.8712308000031,287.8557171000066,287.8679362000039,287.8712308000031,287.8712308000031,287.8712308000031,289.1562849000038,Scenes\050a.jpg,pre,n,1.281984499997634,None,,,,,,,,00042,001,2026-01-17_15h54.18.926,MST_test,2024.2.0,59.921466925630554,2026-01-17 15h54.34.530488 +0530,
73,0,74,n,1.1720854000013787,None,74,0,73,289.1709700000065,,,,,,,,,,,,,,,,,,,,,,,,,,,,,,,,,,,,,,,,,,,,,,,,,,289.15654200000426,289.1709700000065,289.97342250000656,289.655511200006,289.9657301000043,289.97342250000656,289.97342250000656,289.97342250000656,291.15702350000356,Foils\scenes26.jpg,none,n,1.1720854000013787,None,,,,,,,,00042,001,2026-01-17_15h54.18.926,MST_test,2024.2.0,59.921466925630554,2026-01-17 15h54.34.530488 +0530,
74,0,75,o,1.0654825000019628,None,75,0,74,291.17068819999986,,,,,,,,,,,,,,,,,,,,,,,,,,,,,,,,,,,,,,,,,,,,,,,,,,291.1573975000065,291.17068819999986,291.74303460000374,291.65547450000304,291.7408166000023,291.74303460000374,291.74303460000374,291.74303460000374,292.8227987000064,Objects\001b.jpg,post,o,1.0654825000019628,None,,,,,,,,00042,001,2026-01-17_15h54.18.926,MST_test,2024.2.0,59.921466925630554,2026-01-17 15h54.34.530488 +0530,
75,0,76,n,1.042554999999993,None,76,0,75,292.8374937000044,,,,,,,,,,,,,,,,,,,,,,,,,,,,,,,,,,,,,,,,,,,,,,,,,,292.82317490000423,292.8374937000044,293.39084020000155,293.32214420000673,293.388108500003,293.39084020000155,293.39084020000155,293.39084020000155,294.44010710000293,Scenes\028b.jpg,pre,n,1.042554999999993,None,,,,,,,,00042,001,2026-01-17_15h54.18.926,MST_test,2024.2.0,59.921466925630554,2026-01-17 15h54.34.530488 +0530,
76,0,77,n,0.9095101999992039,None,77,0,76,294.4543652000066,,,,,,,,,,,,,,,,,,,,,,,,,,,,,,,,,,,,,,,,,,,,,,,,,,294.44036070000584,294.4543652000066,294.97850180000387,294.93858800000453,294.97499330000574,294.97850180000387,294.97850180000387,294.97850180000387,295.89102050000656,Foils\scenes14.jpg,none,n,0.9095101999992039,None,,,,,,,,00042,001,2026-01-17_15h54.18.926,MST_test,2024.2.0,59.921466925630554,2026-01-17 15h54.34.530488 +0530,
77,0,78,s,1.4126113000020268,None,78,0,77,295.90438940000604,,,,,,,,,,,,,,,,,,,,,,,,,,,,,,,,,,,,,,,,,,,,,,,,,,295.8912584999998,295.90438940000604,296.4596238000013,296.38907960000506,296.45682050000323,296.4596238000013,296.4596238000013,296.4596238000013,297.88960800000496,Foils\scenes27.jpg,none,s,1.4126113000020268,None,,,,,,,,00042,001,2026-01-17_15h54.18.926,MST_test,2024.2.0,59.921466925630554,2026-01-17 15h54.34.530488 +0530,
78,0,79,n,2.667478499999561,None,79,0,78,297.9043587000051,,,,,,,,,,,,,,,,,,,,,,,,,,,,,,,,,,,,,,,,,,,,,,,,,,297.8900070000018,297.9043587000051,298.40515140000207,298.3886614000003,298.3982541000005,298.40515140000207,298.40515140000207,298.40515140000207,301.08996100000513,Objects\116a.jpg,pre,n,2.667478499999561,None,,,,,,,,00042,001,2026-01-17_15h54.18.926,MST_test,2024.2.0,59.921466925630554,2026-01-17 15h54.34.530488 +0530,
79,0,80,n,0.883959999999206,None,80,0,79,301.10432050000236,,,,,,,,,,,,,,,,,,,,,,,,,,,,,,,,,,,,,,,,,,,,,,,,,,301.090357400004,301.10432050000236,301.6046065000046,301.5888672000001,301.5976962000059,301.6046065000046,301.6046065000046,301.6046065000046,302.5064016000033,Foils\034a.jpg,none,n,0.883959999999206,None,,,,,,,,00042,001,2026-01-17_15h54.18.926,MST_test,2024.2.0,59.921466925630554,2026-01-17 15h54.34.530488 +0530,
80,0,81,n,1.0096688000048744,None,81,0,80,302.5213419000065,,,,,,,,,,,,,,,,,,,,,,,,,,,,,,,,,,,,,,,,,,,,,,,,,,302.50672340000165,302.5213419000065,303.07820390000416,303.00599050000164,303.0750956000047,303.07820390000416,303.07820390000416,303.07820390000416,304.08994370000437,Scenes\191b.jpg,mid,n,1.0096688000048744,None,,,,,,,,00042,001,2026-01-17_15h54.18.926,MST_test,2024.2.0,59.921466925630554,2026-01-17 15h54.34.530488 +0530,
81,0,82,o,1.0469640999945113,None,82,0,81,304.10433800000465,,,,,,,,,,,,,,,,,,,,,,,,,,,,,,,,,,,,,,,,,,,,,,,,,,304.0902497000061,304.10433800000465,304.6344339000061,304.5888494000028,304.63129350000236,304.6344339000061,304.6344339000061,304.6344339000061,305.6897451000041,Objects\126b.jpg,pre,o,1.0469640999945113,None,,,,,,,,00042,001,2026-01-17_15h54.18.926,MST_test,2024.2.0,59.921466925630554,2026-01-17 15h54.34.530488 +0530,
82,0,83,o,2.1127358000012464,None,83,0,82,305.7042944000059,,,,,,,,,,,,,,,,,,,,,,,,,,,,,,,,,,,,,,,,,,,,,,,,,,305.69008650000615,305.7042944000059,306.2086657000036,306.189011100003,306.20596990000195,306.2086657000036,306.2086657000036,306.2086657000036,308.32381680000253,Scenes\145a.jpg,mid,o,2.1127358000012464,None,,,,,,,,00042,001,2026-01-17_15h54.18.926,MST_test,2024.2.0,59.921466925630554,2026-01-17 15h54.34.530488 +0530,
83,0,84,n,3.4618024000010337,None,84,0,83,308.3376430000062,,,,,,,,,,,,,,,,,,,,,,,,,,,,,,,,,,,,,,,,,,,,,,,,,,308.32416920000105,308.3376430000062,308.9151120000024,308.82191910000256,308.9117747000055,308.9151120000024,308.9151120000024,308.9151120000024,312.38976150000235,Scenes\049b.jpg,post,n,3.4618024000010337,None,,,,,,,,00042,001,2026-01-17_15h54.18.926,MST_test,2024.2.0,59.921466925630554,2026-01-17 15h54.34.530488 +0530,
84,0,85,o,1.5831000999969547,None,85,0,84,312.4046104000008,,,,,,,,,,,,,,,,,,,,,,,,,,,,,,,,,,,,,,,,,,,,,,,,,,312.39002680000704,312.4046104000008,312.9049457000001,312.8887431000039,312.89714740000636,312.9049457000001,312.9049457000001,312.9049457000001,314.4903570000024,Objects\135a.jpg,pre,o,1.5831000999969547,None,,,,,,,,00042,001,2026-01-17_15h54.18.926,MST_test,2024.2.0,59.921466925630554,2026-01-17 15h54.34.530488 +0530,
85,0,86,n,1.1492345000006026,None,86,0,85,314.50432570000703,,,,,,,,,,,,,,,,,,,,,,,,,,,,,,,,,,,,,,,,,,,,,,,,,,314.49068620000617,314.50432570000703,315.00460180000664,314.9888538000014,314.9960449000064,315.00460180000664,315.00460180000664,315.00460180000664,316.156507700005,Foils\113a.jpg,none,n,1.1492345000006026,None,,,,,,,,00042,001,2026-01-17_15h54.18.926,MST_test,2024.2.0,59.921466925630554,2026-01-17 15h54.34.530488 +0530,
86,0,87,o,2.7375162999960594,None,87,0,86,316.1709394999998,,,,,,,,,,,,,,,,,,,,,,,,,,,,,,,,,,,,,,,,,,,,,,,,,,316.1567516000068,316.1709394999998,316.67141080000147,316.6558428000062,316.6612152000016,316.67141080000147,316.67141080000147,316.67141080000147,319.4229553000041,Objects\147a.jpg,pre,o,2.7375162999960594,None,,,,,,,,00042,001,2026-01-17_15h54.18.926,MST_test,2024.2.0,59.921466925630554,2026-01-17 15h54.34.530488 +0530,
87,0,88,o,1.463479099998949,None,88,0,87,319.4376138000007,,,,,,,,,,,,,,,,,,,,,,,,,,,,,,,,,,,,,,,,,,,,,,,,,,319.4233033000055,319.4376138000007,319.93794880000496,319.9223237000042,319.92787490000046,319.93794880000496,319.93794880000496,319.93794880000496,321.40619730000617,Objects\032a.jpg,pre,o,1.463479099998949,None,,,,,,,,00042,001,2026-01-17_15h54.18.926,MST_test,2024.2.0,59.921466925630554,2026-01-17 15h54.34.530488 +0530,
88,0,89,n,1.7315789999993285,None,89,0,88,321.42092520000006,,,,,,,,,,,,,,,,,,,,,,,,,,,,,,,,,,,,,,,,,,,,,,,,,,321.4064373000001,321.42092520000006,321.92444490000344,321.905462600007,321.9214964000057,321.92444490000344,321.92444490000344,321.92444490000344,323.673025600001,Scenes\054a.jpg,post,n,1.7315789999993285,None,,,,,,,,00042,001,2026-01-17_15h54.18.926,MST_test,2024.2.0,59.921466925630554,2026-01-17 15h54.34.530488 +0530,
89,0,90,n,1.4457449999972596,None,90,0,89,323.6874831000023,,,,,,,,,,,,,,,,,,,,,,,,,,,,,,,,,,,,,,,,,,,,,,,,,,323.6733084000007,323.6874831000023,324.2110051000054,324.1721103000018,324.20775150000554,324.2110051000054,324.2110051000054,324.2110051000054,325.67272270000103,Objects\102b.jpg,mid,n,1.4457449999972596,None,,,,,,,,00042,001,2026-01-17_15h54.18.926,MST_test,2024.2.0,59.921466925630554,2026-01-17 15h54.34.530488 +0530,
90,0,91,o,1.0750461999996332,None,91,0,90,325.6877650000024,,,,,,,,,,,,,,,,,,,,,,,,,,,,,,,,,,,,,,,,,,,,,,,,,,325.67303070000344,325.6877650000024,326.1896152000045,326.1720742000034,326.18687960000534,326.1896152000045,326.1896152000045,326.1896152000045,327.2726105000038,Scenes\155a.jpg,post,o,1.0750461999996332,None,,,,,,,,00042,001,2026-01-17_15h54.18.926,MST_test,2024.2.0,59.921466925630554,2026-01-17 15h54.34.530488 +0530,
91,0,92,s,1.7091538999957265,None,92,0,91,327.28771940000297,,,,,,,,,,,,,,,,,,,,,,,,,,,,,,,,,,,,,,,,,,,,,,,,,,327.2728669000062,327.28771940000297,327.78821060000337,327.77179060000344,327.7817251000015,327.78821060000337,327.78821060000337,327.78821060000337,329.50632070000574,Scenes\168a.jpg,pre,s,1.7091538999957265,None,,,,,,,,00042,001,2026-01-17_15h54.18.926,MST_test,2024.2.0,59.921466925630554,2026-01-17 15h54.34.530488 +0530,
92,0,93,s,7.642994399997406,None,93,0,92,329.5210240000015,,,,,,,,,,,,,,,,,,,,,,,,,,,,,,,,,,,,,,,,,,,,,,,,,,329.5065787000058,329.5210240000015,330.02144290000433,330.0052403000009,330.01355180000246,330.02144290000433,330.02144290000433,330.02144290000433,337.67304870000225,Objects\141a.jpg,mid,s,7.642994399997406,None,,,,,,,,00042,001,2026-01-17_15h54.18.926,MST_test,2024.2.0,59.921466925630554,2026-01-17 15h54.34.530488 +0530,
93,0,94,n,1.1320380000033765,None,94,0,93,337.68797130000166,,,,,,,,,,,,,,,,,,,,,,,,,,,,,,,,,,,,,,,,,,,,,,,,,,337.6733220000024,337.68797130000166,338.1883086000016,338.17192450000584,338.1784745000041,338.1883086000016,338.1883086000016,338.1883086000016,339.32296780000615,Foils\scenes8.jpg,none,n,1.1320380000033765,None,,,,,,,,00042,001,2026-01-17_15h54.18.926,MST_test,2024.2.0,59.921466925630554,2026-01-17 15h54.34.530488 +0530,
94,0,95,n,0.9376555000053486,None,95,0,94,339.3376036000045,,,,,,,,,,,,,,,,,,,,,,,,,,,,,,,,,,,,,,,,,,,,,,,,,,339.3232926000055,339.3376036000045,339.8384368000043,339.82188750000205,339.83482540000114,339.8384368000043,339.8384368000043,339.8384368000043,340.7897937000016,Scenes\051b.jpg,pre,n,0.9376555000053486,None,,,,,,,,00042,001,2026-01-17_15h54.18.926,MST_test,2024.2.0,59.921466925630554,2026-01-17 15h54.34.530488 +0530,
95,0,96,n,0.8030998000031104,None,96,0,95,340.80458100000396,,,,,,,,,,,,,,,,,,,,,,,,,,,,,,,,,,,,,,,,,,,,,,,,,,340.7901243000015,340.80458100000396,341.32494620000216,341.28889080000226,341.3216113000017,341.32494620000216,341.32494620000216,341.32494620000216,342.13955010000063,Objects\154b.jpg,mid,n,0.8030998000031104,None,,,,,,,,00042,001,2026-01-17_15h54.18.926,MST_test,2024.2.0,59.921466925630554,2026-01-17 15h54.34.530488 +0530,
96,0,97,n,0.6470613999990746,None,97,0,96,342.1543637000068,,,,,,,,,,,,,,,,,,,,,,,,,,,,,,,,,,,,,,,,,,,,,,,,,,342.1399582000013,342.1543637000068,342.6739641000022,342.639181700004,342.67128320000484,342.6739641000022,342.6739641000022,342.6739641000022,343.32370930000616,Foils\018a.jpg,none,n,0.6470613999990746,None,,,,,,,,00042,001,2026-01-17_15h54.18.926,MST_test,2024.2.0,59.921466925630554,2026-01-17 15h54.34.530488 +0530,
97,0,98,n,0.8750694999980624,None,98,0,97,343.337855400001,,,,,,,,,,,,,,,,,,,,,,,,,,,,,,,,,,,,,,,,,,,,,,,,,,343.3241068000061,343.337855400001,343.83806090000144,343.82190300000366,343.8304077000066,343.83806090000144,343.83806090000144,343.83806090000144,344.72311120000086,Foils\002a.jpg,none,n,0.8750694999980624,None,,,,,,,,00042,001,2026-01-17_15h54.18.926,MST_test,2024.2.0,59.921466925630554,2026-01-17 15h54.34.530488 +0530,
98,0,99,n,1.1772825000007288,None,99,0,98,344.73793220000516,,,,,,,,,,,,,,,,,,,,,,,,,,,,,,,,,,,,,,,,,,,,,,,,,,344.7235149000044,344.73793220000516,345.2391826000021,345.2219081000003,345.23484350000217,345.2391826000021,345.2391826000021,345.2391826000021,346.423257500006,Scenes\142a.jpg,post,n,1.1772825000007288,None,,,,,,,,00042,001,2026-01-17_15h54.18.926,MST_test,2024.2.0,59.921466925630554,2026-01-17 15h54.34.530488 +0530,
99,0,100,n,3.757814899996447,None,100,0,99,346.4383455000061,,,,,,,,,,,,,,,,,,,,,,,,,,,,,,,,,,,,,,,,,,,,,,,,,,346.4235140000019,346.4383455000061,347.01898270000675,346.92248370000016,347.0160537000047,347.01898270000675,347.01898270000675,347.01898270000675,350.7895819000041,Scenes\027b.jpg,pre,n,3.757814899996447,None,,,,,,,,00042,001,2026-01-17_15h54.18.926,MST_test,2024.2.0,59.921466925630554,2026-01-17 15h54.34.530488 +0530,
100,0,101,n,0.7600055000002612,None,101,0,100,350.80483280000044,,,,,,,,,,,,,,,,,,,,,,,,,,,,,,,,,,,,,,,,,,,,,,,,,,350.78989770000044,350.80483280000044,351.30489540000417,351.28898290000507,351.2951794000037,351.30489540000417,351.30489540000417,351.30489540000417,352.0732022000011,Objects\021a.jpg,mid,n,0.7600055000002612,None,,,,,,,,00042,001,2026-01-17_15h54.18.926,MST_test,2024.2.0,59.921466925630554,2026-01-17 15h54.34.530488 +0530,
101,0,102,n,1.2802461000028416,None,102,0,101,352.0877740000069,,,,,,,,,,,,,,,,,,,,,,,,,,,,,,,,,,,,,,,,,,,,,,,,,,352.07350710000173,352.0877740000069,352.60764210000343,352.5720908000003,352.6042516000016,352.60764210000343,352.60764210000343,352.60764210000343,353.8901690000057,Foils\scenes3.jpg,none,n,1.2802461000028416,None,,,,,,,,00042,001,2026-01-17_15h54.18.926,MST_test,2024.2.0,59.921466925630554,2026-01-17 15h54.34.530488 +0530,
102,0,103,n,1.4162836000032257,None,103,0,102,353.9044903000031,,,,,,,,,,,,,,,,,,,,,,,,,,,,,,,,,,,,,,,,,,,,,,,,,,353.8904271000065,353.9044903000031,354.4717899000025,354.3887312000006,354.4684228000042,354.4717899000025,354.4717899000025,354.4717899000025,355.89012420000654,Scenes\158b.jpg,pre,n,1.4162836000032257,None,,,,,,,,00042,001,2026-01-17_15h54.18.926,MST_test,2024.2.0,59.921466925630554,2026-01-17 15h54.34.530488 +0530,
103,0,104,o,1.1606552000012016,None,104,0,103,355.9046285000004,,,,,,,,,,,,,,,,,,,,,,,,,,,,,,,,,,,,,,,,,,,,,,,,,,355.89037060000555,355.9046285000004,356.4072155000031,356.38884020000114,356.4029918000015,356.4072155000031,356.4072155000031,356.4072155000031,357.57235870000295,Scenes\006a.jpg,pre,o,1.1606552000012016,None,,,,,,,,00042,001,2026-01-17_15h54.18.926,MST_test,2024.2.0,59.921466925630554,2026-01-17 15h54.34.530488 +0530,
104,0,105,o,1.6261673999979394,None,105,0,104,357.58759940000164,,,,,,,,,,,,,,,,,,,,,,,,,,,,,,,,,,,,,,,,,,,,,,,,,,357.5724859000038,357.58759940000164,358.126462900007,358.07199980000587,358.1221813000011,358.126462900007,358.126462900007,358.126462900007,359.75626240000565,Objects\143b.jpg,mid,o,1.6261673999979394,None,,,,,,,,00042,001,2026-01-17_15h54.18.926,MST_test,2024.2.0,59.921466925630554,2026-01-17 15h54.34.530488 +0530,
105,0,106,n,3.4175083999944036,None,106,0,105,359.77105380000285,,,,,,,,,,,,,,,,,,,,,,,,,,,,,,,,,,,,,,,,,,,,,,,,,,359.7566458000001,359.77105380000285,360.3274473000056,360.25562190000346,360.32436510000116,360.3274473000056,360.3274473000056,360.3274473000056,363.75655130000087,Scenes\126b.jpg,mid,n,3.4175083999944036,None,,,,,,,,00042,001,2026-01-17_15h54.18.926,MST_test,2024.2.0,59.921466925630554,2026-01-17 15h54.34.530488 +0530,
106,0,107,n,1.4581690999984858,None,107,0,106,363.7708864000015,,,,,,,,,,,,,,,,,,,,,,,,,,,,,,,,,,,,,,,,,,,,,,,,,,363.75681380000606,363.7708864000015,364.2712568000061,364.256043100002,364.26332390000607,364.2712568000061,364.2712568000061,364.2712568000061,365.73960150000494,Objects\058a.jpg,post,n,1.4581690999984858,None,,,,,,,,00042,001,2026-01-17_15h54.18.926,MST_test,2024.2.0,59.921466925630554,2026-01-17 15h54.34.530488 +0530,
107,0,108,n,1.2605137000064133,None,108,0,107,365.7543075000067,,,,,,,,,,,,,,,,,,,,,,,,,,,,,,,,,,,,,,,,,,,,,,,,,,365.7400267000048,365.7543075000067,366.2763765000054,366.2390943000064,366.2734102000031,366.2763765000054,366.2763765000054,366.2763765000054,367.53960070000176,Objects\028b.jpg,post,n,1.2605137000064133,None,,,,,,,,00042,001,2026-01-17_15h54.18.926,MST_test,2024.2.0,59.921466925630554,2026-01-17 15h54.34.530488 +0530,
108,0,109,o,1.0135166999971261,None,109,0,108,367.5543003000057,,,,,,,,,,,,,,,,,,,,,,,,,,,,,,,,,,,,,,,,,,,,,,,,,,367.5398551000035,367.5543003000057,368.0839502000017,368.0388060000041,368.0814406000063,368.0839502000017,368.0839502000017,368.0839502000017,369.1063584000003,Objects\131b.jpg,mid,o,1.0135166999971261,None,,,,,,,,00042,001,2026-01-17_15h54.18.926,MST_test,2024.2.0,59.921466925630554,2026-01-17 15h54.34.530488 +0530,
109,0,110,n,1.755196900005103,None,110,0,109,369.1208964000034,,,,,,,,,,,,,,,,,,,,,,,,,,,,,,,,,,,,,,,,,,,,,,,,,,369.10667130000365,369.1208964000034,369.6212289000032,369.60578660000465,369.612784200006,369.6212289000032,369.6212289000032,369.6212289000032,371.3891142000066,Foils\106a.jpg,none,n,1.755196900005103,None,,,,,,,,00042,001,2026-01-17_15h54.18.926,MST_test,2024.2.0,59.921466925630554,2026-01-17 15h54.34.530488 +0530,
110,0,111,s,2.7825207999994745,None,111,0,110,371.40475460000016,,,,,,,,,,,,,,,,,,,,,,,,,,,,,,,,,,,,,,,,,,,,,,,,,,371.3893543000013,371.40475460000016,371.9055223000032,371.8890718000039,371.9024184000009,371.9055223000032,371.9055223000032,371.9055223000032,374.69057460000477,Scenes\178a.jpg,pre,s,2.7825207999994745,None,,,,,,,,00042,001,2026-01-17_15h54.18.926,MST_test,2024.2.0,59.921466925630554,2026-01-17 15h54.34.530488 +0530,
111,0,112,n,4.05803630000446,None,112,0,111,374.70439110000007,,,,,,,,,,,,,,,,,,,,,,,,,,,,,,,,,,,,,,,,,,,,,,,,,,374.6908207000015,374.70439110000007,375.27828690000024,375.188696300007,375.2753945000004,375.27828690000024,375.27828690000024,375.27828690000024,379.33981470000435,Scenes\084b.jpg,post,n,4.05803630000446,None,,,,,,,,00042,001,2026-01-17_15h54.18.926,MST_test,2024.2.0,59.921466925630554,2026-01-17 15h54.34.530488 +0530,
112,0,113,n,1.0352663000012399,None,113,0,112,379.3542971000061,,,,,,,,,,,,,,,,,,,,,,,,,,,,,,,,,,,,,,,,,,,,,,,,,,379.34025020000263,379.3542971000061,379.8619528000054,379.8389294000008,379.8588458000013,379.8619528000054,379.8619528000054,379.8619528000054,380.90669250000064,Scenes\032b.jpg,pre,n,1.0352663000012399,None,,,,,,,,00042,001,2026-01-17_15h54.18.926,MST_test,2024.2.0,59.921466925630554,2026-01-17 15h54.34.530488 +0530,
113,0,114,n,2.789658400004555,None,114,0,113,380.9208851000003,,,,,,,,,,,,,,,,,,,,,,,,,,,,,,,,,,,,,,,,,,,,,,,,,,380.90710620000027,380.9208851000003,381.4754699000041,381.40569280000636,381.47249210000155,381.4754699000041,381.4754699000041,381.4754699000041,384.27336240000295,Scenes\096b.jpg,mid,n,2.789658400004555,None,,,,,,,,00042,001,2026-01-17_15h54.18.926,MST_test,2024.2.0,59.921466925630554,2026-01-17 15h54.34.530488 +0530,
114,0,115,n,0.8670557000004919,None,115,0,114,384.28778080000484,,,,,,,,,,,,,,,,,,,,,,,,,,,,,,,,,,,,,,,,,,,,,,,,,,384.2736678000001,384.28778080000484,384.8536174000037,384.7722322000045,384.8507547000045,384.8536174000037,384.8536174000037,384.8536174000037,385.7231697000025,Scenes\065b.jpg,post,n,0.8670557000004919,None,,,,,,,,00042,001,2026-01-17_15h54.18.926,MST_test,2024.2.0,59.921466925630554,2026-01-17 15h54.34.530488 +0530,
115,0,116,s,1.066184000002977,None,116,0,115,385.7376712000041,,,,,,,,,,,,,,,,,,,,,,,,,,,,,,,,,,,,,,,,,,,,,,,,,,385.72345889999997,385.7376712000041,386.2382807000031,386.2222297000044,386.22716120000405,386.2382807000031,386.2382807000031,386.2382807000031,387.3066872000054,Foils\scenes1.jpg,none,s,1.066184000002977,None,,,,,,,,00042,001,2026-01-17_15h54.18.926,MST_test,2024.2.0,59.921466925630554,2026-01-17 15h54.34.530488 +0530,
116,0,117,s,2.7128516000011587,None,117,0,116,387.32098780000524,,,,,,,,,,,,,,,,,,,,,,,,,,,,,,,,,,,,,,,,,,,,,,,,,,387.3069811000023,387.32098780000524,387.8394225000011,387.80536610000127,387.8363634000052,387.8394225000011,387.8394225000011,387.8394225000011,390.55636680000316,Objects\133b.jpg,post,s,2.7128516000011587,None,,,,,,,,00042,001,2026-01-17_15h54.18.926,MST_test,2024.2.0,59.921466925630554,2026-01-17 15h54.34.530488 +0530,
117,0,118,s,1.212695000001986,None,118,0,117,390.57107240000187,,,,,,,,,,,,,,,,,,,,,,,,,,,,,,,,,,,,,,,,,,,,,,,,,,390.55668040000455,390.57107240000187,391.1317516000054,391.0555256000007,391.1288730000015,391.1317516000054,391.1317516000054,391.1317516000054,392.3563626000032,Scenes\055b.jpg,post,s,1.212695000001986,None,,,,,,,,00042,001,2026-01-17_15h54.18.926,MST_test,2024.2.0,59.921466925630554,2026-01-17 15h54.34.530488 +0530,
118,0,119,s,1.777877399996214,None,119,0,118,392.37096060000476,,,,,,,,,,,,,,,,,,,,,,,,,,,,,,,,,,,,,,,,,,,,,,,,,,392.35679780000646,392.37096060000476,392.87150870000187,392.85548689999996,392.8642778000067,392.87150870000187,392.87150870000187,392.87150870000187,394.6572920000035,Objects\073a.jpg,post,s,1.777877399996214,None,,,,,,,,00042,001,2026-01-17_15h54.18.926,MST_test,2024.2.0,59.921466925630554,2026-01-17 15h54.34.530488 +0530,
119,0,120,n,1.8423225000005914,None,120,0,119,394.67097150000336,,,,,,,,,,,,,,,,,,,,,,,,,,,,,,,,,,,,,,,,,,,,,,,,,,394.65769180000643,394.67097150000336,395.2134626000043,395.1554333000022,395.21069140000327,395.2134626000043,395.2134626000043,395.2134626000043,397.07300360000227,Objects\174b.jpg,mid,n,1.8423225000005914,None,,,,,,,,00042,001,2026-01-17_15h54.18.926,MST_test,2024.2.0,59.921466925630554,2026-01-17 15h54.34.530488 +0530,
120,0,121,n,1.4653646999940975,None,121,0,120,397.0886432000043,,,,,,,,,,,,,,,,,,,,,,,,,,,,,,,,,,,,,,,,,,,,,,,,,,397.07341989999986,397.0886432000043,397.6316056000069,397.5720666000052,397.62883440000587,397.6316056000069,397.6316056000069,397.6316056000069,399.105664600007,Scenes\149b.jpg,pre,n,1.4653646999940975,None,,,,,,,,00042,001,2026-01-17_15h54.18.926,MST_test,2024.2.0,59.921466925630554,2026-01-17 15h54.34.530488 +0530,
121,0,122,n,0.7647353000065777,None,122,0,121,399.1208915000025,,,,,,,,,,,,,,,,,,,,,,,,,,,,,,,,,,,,,,,,,,,,,,,,,,399.10591790000035,399.1208915000025,399.6688098000013,399.60545470000216,399.6658643000046,399.6688098000013,399.6688098000013,399.6688098000013,400.4394933000003,Scenes\074b.jpg,pre,n,0.7647353000065777,None,,,,,,,,00042,001,2026-01-17_15h54.18.926,MST_test,2024.2.0,59.921466925630554,2026-01-17 15h54.34.530488 +0530,
122,0,123,n,2.0442525999969803,None,123,0,122,400.45523010000034,,,,,,,,,,,,,,,,,,,,,,,,,,,,,,,,,,,,,,,,,,,,,,,,,,400.43991720000486,400.45523010000034,400.9564395000052,400.93889210000634,400.95209720000275,400.9564395000052,400.9564395000052,400.9564395000052,403.0067057000051,Scenes\125a.jpg,post,n,2.0442525999969803,None,,,,,,,,00042,001,2026-01-17_15h54.18.926,MST_test,2024.2.0,59.921466925630554,2026-01-17 15h54.34.530488 +0530,
123,0,124,n,0.7992397999987588,None,124,0,123,403.0209099000058,,,,,,,,,,,,,,,,,,,,,,,,,,,,,,,,,,,,,,,,,,,,,,,,,,403.00701340000523,403.0209099000058,403.5216553999999,403.50561060000473,403.51847880000423,403.5216553999999,403.5216553999999,403.5216553999999,404.32347630000004,Scenes\118a.jpg,pre,n,0.7992397999987588,None,,,,,,,,00042,001,2026-01-17_15h54.18.926,MST_test,2024.2.0,59.921466925630554,2026-01-17 15h54.34.530488 +0530,
124,0,125,o,1.2661348000037833,None,125,0,124,404.3377808000005,,,,,,,,,,,,,,,,,,,,,,,,,,,,,,,,,,,,,,,,,,,,,,,,,,404.3238535000055,404.3377808000005,404.8380247000023,404.82214300000487,404.8311976000041,404.8380247000023,404.8380247000023,404.8380247000023,406.1065871000028,Objects\038a.jpg,pre,o,1.2661348000037833,None,,,,,,,,00042,001,2026-01-17_15h54.18.926,MST_test,2024.2.0,59.921466925630554,2026-01-17 15h54.34.530488 +0530,
125,0,126,n,3.5785691999990377,None,126,0,125,406.1209599000067,,,,,,,,,,,,,,,,,,,,,,,,,,,,,,,,,,,,,,,,,,,,,,,,,,406.10691300000326,406.1209599000067,406.6214625000066,406.6055201000054,406.61788580000575,406.6214625000066,406.6214625000066,406.6214625000066,410.20640610000555,Scenes\008a.jpg,post,n,3.5785691999990377,None,,,,,,,,00042,001,2026-01-17_15h54.18.926,MST_test,2024.2.0,59.921466925630554,2026-01-17 15h54.34.530488 +0530,
126,0,127,n,1.1122002999982215,None,127,0,126,410.22109760000603,,,,,,,,,,,,,,,,,,,,,,,,,,,,,,,,,,,,,,,,,,,,,,,,,,410.20679139999993,410.22109760000603,410.7214821000016,410.7054919000002,410.71226940000633,410.7214821000016,410.7214821000016,410.7214821000016,411.8396545000069,Objects\156b.jpg,mid,n,1.1122002999982215,None,,,,,,,,00042,001,2026-01-17_15h54.18.926,MST_test,2024.2.0,59.921466925630554,2026-01-17 15h54.34.530488 +0530,
127,0,128,n,0.9905134000000544,None,128,0,127,411.8542759000047,,,,,,,,,,,,,,,,,,,,,,,,,,,,,,,,,,,,,,,,,,,,,,,,,,411.84000200000446,411.8542759000047,412.37930040000356,412.33908680000604,412.376519700003,412.37930040000356,412.37930040000356,412.37930040000356,413.37360000000626,Objects\068b.jpg,post,n,0.9905134000000544,None,,,,,,,,00042,001,2026-01-17_15h54.18.926,MST_test,2024.2.0,59.921466925630554,2026-01-17 15h54.34.530488 +0530,
128,0,129,n,2.141370500001358,None,129,0,128,413.3879977000033,,,,,,,,,,,,,,,,,,,,,,,,,,,,,,,,,,,,,,,,,,,,,,,,,,413.3739773000052,413.3879977000033,413.94648400000005,413.87212840000575,413.9433280000012,413.94648400000005,413.94648400000005,413.94648400000005,416.09070780000184,Foils\097a.jpg,none,n,2.141370500001358,None,,,,,,,,00042,001,2026-01-17_15h54.18.926,MST_test,2024.2.0,59.921466925630554,2026-01-17 15h54.34.530488 +0530,
129,0,130,s,3.587493099999847,None,130,0,129,416.10428800000227,,,,,,,,,,,,,,,,,,,,,,,,,,,,,,,,,,,,,,,,,,,,,,,,,,416.0909892000054,416.10428800000227,416.60539950000384,416.5890873000026,416.6026251000003,416.60539950000384,416.60539950000384,416.60539950000384,420.20625160000054,Scenes\172a.jpg,post,s,3.587493099999847,None,,,,,,,,00042,001,2026-01-17_15h54.18.926,MST_test,2024.2.0,59.921466925630554,2026-01-17 15h54.34.530488 +0530,
130,0,131,n,0.8941733000028762,None,131,0,130,420.2210559000014,,,,,,,,,,,,,,,,,,,,,,,,,,,,,,,,,,,,,,,,,,,,,,,,,,420.20666610000626,420.2210559000014,420.7383109000002,420.7052352000028,420.73515650000627,420.7383109000002,420.7383109000002,420.7383109000002,421.63931050000247,Foils\scenes17.jpg,none,n,0.8941733000028762,None,,,,,,,,00042,001,2026-01-17_15h54.18.926,MST_test,2024.2.0,59.921466925630554,2026-01-17 15h54.34.530488 +0530,
131,0,132,o,1.2280166999989888,None,132,0,131,421.65446050000173,,,,,,,,,,,,,,,,,,,,,,,,,,,,,,,,,,,,,,,,,,,,,,,,,,421.6396048000024,421.65446050000173,422.1887526999999,422.13870890000544,422.1858363000065,422.1887526999999,422.1887526999999,422.1887526999999,423.42295820000436,Objects\063b.jpg,pre,o,1.2280166999989888,None,,,,,,,,00042,001,2026-01-17_15h54.18.926,MST_test,2024.2.0,59.921466925630554,2026-01-17 15h54.34.530488 +0530,
132,0,133,n,0.8038500999973621,None,133,0,132,423.43756640000356,,,,,,,,,,,,,,,,,,,,,,,,,,,,,,,,,,,,,,,,,,,,,,,,,,423.4232164000059,423.43756640000356,423.9732374000014,423.9222810000065,423.9702094000022,423.9732374000014,423.9732374000014,423.9732374000014,424.78957850000006,Foils\033a.jpg,none,n,0.8038500999973621,None,,,,,,,,00042,001,2026-01-17_15h54.18.926,MST_test,2024.2.0,59.921466925630554,2026-01-17 15h54.34.530488 +0530,
133,0,134,n,1.0108748999991803,None,134,0,133,424.8042879000059,,,,,,,,,,,,,,,,,,,,,,,,,,,,,,,,,,,,,,,,,,,,,,,,,,424.78991510000196,424.8042879000059,425.33295190000354,425.28940780000266,425.33031270000356,425.33295190000354,425.33295190000354,425.33295190000354,426.3559355000034,Foils\scenes2.jpg,none,n,1.0108748999991803,None,,,,,,,,00042,001,2026-01-17_15h54.18.926,MST_test,2024.2.0,59.921466925630554,2026-01-17 15h54.34.530488 +0530,
134,0,135,n,0.7405046999992919,None,135,0,134,426.37097030000587,,,,,,,,,,,,,,,,,,,,,,,,,,,,,,,,,,,,,,,,,,,,,,,,,,426.35611910000443,426.37097030000587,426.9477890000053,426.8559186000057,426.90661230000114,426.9477890000053,426.9477890000053,426.9477890000053,427.6905418000024,Objects\111b.jpg,post,n,0.7405046999992919,None,,,,,,,,00042,001,2026-01-17_15h54.18.926,MST_test,2024.2.0,59.921466925630554,2026-01-17 15h54.34.530488 +0530,
135,0,136,o,2.076442199999292,None,136,0,135,427.70435840000573,,,,,,,,,,,,,,,,,,,,,,,,,,,,,,,,,,,,,,,,,,,,,,,,,,427.6908221000049,427.70435840000573,428.2043881999998,428.1887831000058,428.1972958000042,428.2043881999998,428.2043881999998,428.2043881999998,430.28989630000433,Objects\037a.jpg,pre,o,2.076442199999292,None,,,,,,,,00042,001,2026-01-17_15h54.18.926,MST_test,2024.2.0,59.921466925630554,2026-01-17 15h54.34.530488 +0530,
136,0,137,o,1.4286817999964114,None,137,0,136,430.3043780000007,,,,,,,,,,,,,,,,,,,,,,,,,,,,,,,,,,,,,,,,,,,,,,,,,,430.2902368000068,430.3043780000007,430.80447450000065,430.7888957000032,430.7969294000068,430.80447450000065,430.80447450000065,430.80447450000065,432.2394721000019,Objects\167a.jpg,mid,o,1.4286817999964114,None,,,,,,,,00042,001,2026-01-17_15h54.18.926,MST_test,2024.2.0,59.921466925630554,2026-01-17 15h54.34.530488 +0530,
137,0,138,n,1.565509899999597,None,138,0,137,432.2544734000039,,,,,,,,,,,,,,,,,,,,,,,,,,,,,,,,,,,,,,,,,,,,,,,,,,432.23967800000537,432.2544734000039,432.7548947000032,432.7388282000029,432.74684510000225,432.7548947000032,432.7548947000032,432.7548947000032,434.32336300000316,Objects\122b.jpg,post,n,1.565509899999597,None,,,,,,,,00042,001,2026-01-17_15h54.18.926,MST_test,2024.2.0,59.921466925630554,2026-01-17 15h54.34.530488 +0530,
138,0,139,s,1.1008841000002576,None,139,0,138,434.3375975000017,,,,,,,,,,,,,,,,,,,,,,,,,,,,,,,,,,,,,,,,,,,,,,,,,,434.32375490000413,434.3375975000017,434.89113660000294,434.822035600002,434.88795160000154,434.89113660000294,434.89113660000294,434.89113660000294,436.00646860000415,Scenes\105b.jpg,mid,s,1.1008841000002576,None,,,,,,,,00042,001,2026-01-17_15h54.18.926,MST_test,2024.2.0,59.921466925630554,2026-01-17 15h54.34.530488 +0530,
139,0,140,s,1.926389799999015,None,140,0,139,436.02110960000573,,,,,,,,,,,,,,,,,,,,,,,,,,,,,,,,,,,,,,,,,,,,,,,,,,436.00672500000655,436.02110960000573,436.52165020000393,436.50544320000336,436.51341390000016,436.52165020000393,436.52165020000393,436.52165020000393,438.4559347000031,Objects\151a.jpg,post,s,1.926389799999015,None,,,,,,,,00042,001,2026-01-17_15h54.18.926,MST_test,2024.2.0,59.921466925630554,2026-01-17 15h54.34.530488 +0530,
140,0,141,o,1.1013584000029368,None,141,0,140,438.4709148000038,,,,,,,,,,,,,,,,,,,,,,,,,,,,,,,,,,,,,,,,,,,,,,,,,,438.45615050000197,438.4709148000038,439.00268640000286,438.95543760000146,439.00001260000136,439.00268640000286,439.00268640000286,439.00268640000286,440.10630500000116,Objects\177b.jpg,mid,o,1.1013584000029368,None,,,,,,,,00042,001,2026-01-17_15h54.18.926,MST_test,2024.2.0,59.921466925630554,2026-01-17 15h54.34.530488 +0530,
141,0,142,n,4.292050399999425,None,142,0,141,440.1209528000036,,,,,,,,,,,,,,,,,,,,,,,,,,,,,,,,,,,,,,,,,,,,,,,,,,440.1065649000011,440.1209528000036,440.62121630000183,440.60523690000264,440.61209440000675,440.62121630000183,440.62121630000183,440.62121630000183,444.92275090000476,Foils\scenes30.jpg,none,n,4.292050399999425,None,,,,,,,,00042,001,2026-01-17_15h54.18.926,MST_test,2024.2.0,59.921466925630554,2026-01-17 15h54.34.530488 +0530,
142,0,143,o,1.4368171999958577,None,143,0,142,444.93759890000365,,,,,,,,,,,,,,,,,,,,,,,,,,,,,,,,,,,,,,,,,,,,,,,,,,444.9230103000009,444.93759890000365,445.5163215000066,445.4220768000014,445.51303730000654,445.5163215000066,445.5163215000066,445.5163215000066,446.95663310000236,Scenes\101b.jpg,pre,o,1.4368171999958577,None,,,,,,,,00042,001,2026-01-17_15h54.18.926,MST_test,2024.2.0,59.921466925630554,2026-01-17 15h54.34.530488 +0530,
143,0,144,n,2.2737453000008827,None,144,0,143,446.97179910000705,,,,,,,,,,,,,,,,,,,,,,,,,,,,,,,,,,,,,,,,,,,,,,,,,,446.9569987000068,446.97179910000705,447.5026391000065,447.4554935000051,447.4997785000014,447.5026391000065,447.5026391000065,447.5026391000065,449.78952350000327,Foils\058a.jpg,none,n,2.2737453000008827,None,,,,,,,,00042,001,2026-01-17_15h54.18.926,MST_test,2024.2.0,59.921466925630554,2026-01-17 15h54.34.530488 +0530,
144,0,145,s,1.5670669999963138,None,145,0,144,449.8049054000003,,,,,,,,,,,,,,,,,,,,,,,,,,,,,,,,,,,,,,,,,,,,,,,,,,449.7897555000018,449.8049054000003,450.3050377000036,450.2886664000034,450.30243480000354,450.3050377000036,450.3050377000036,450.3050377000036,451.8894258,Scenes\042a.jpg,post,s,1.5670669999963138,None,,,,,,,,00042,001,2026-01-17_15h54.18.926,MST_test,2024.2.0,59.921466925630554,2026-01-17 15h54.34.530488 +0530,
145,0,146,o,1.7796148000052199,None,146,0,145,451.90458330000547,,,,,,,,,,,,,,,,,,,,,,,,,,,,,,,,,,,,,,,,,,,,,,,,,,451.8897062000033,451.90458330000547,452.4049238000007,452.38873420000164,452.3951837000059,452.4049238000007,452.4049238000007,452.4049238000007,454.190786500003,Objects\140a.jpg,pre,o,1.7796148000052199,None,,,,,,,,00042,001,2026-01-17_15h54.18.926,MST_test,2024.2.0,59.921466925630554,2026-01-17 15h54.34.530488 +0530,
146,0,147,n,3.3350505999987945,None,147,0,146,454.2043258000049,,,,,,,,,,,,,,,,,,,,,,,,,,,,,,,,,,,,,,,,,,,,,,,,,,454.19106780000584,454.2043258000049,454.7049576000063,454.68893230000685,454.6947527000011,454.7049576000063,454.7049576000063,454.7049576000063,458.05638490000274,Foils\009a.jpg,none,n,3.3350505999987945,None,,,,,,,,00042,001,2026-01-17_15h54.18.926,MST_test,2024.2.0,59.921466925630554,2026-01-17 15h54.34.530488 +0530,
147,0,148,n,0.8477861999999732,None,148,0,147,458.07094040000084,,,,,,,,,,,,,,,,,,,,,,,,,,,,,,,,,,,,,,,,,,,,,,,,,,458.05669310000667,458.07094040000084,458.6086102000045,458.5555272000056,458.60587180000584,458.6086102000045,458.6086102000045,458.6086102000045,459.4728583000033,Objects\059b.jpg,post,n,0.8477861999999732,None,,,,,,,,00042,001,2026-01-17_15h54.18.926,MST_test,2024.2.0,59.921466925630554,2026-01-17 15h54.34.530488 +0530,
148,0,149,n,1.4179499999954714,None,149,0,148,459.48769030000403,,,,,,,,,,,,,,,,,,,,,,,,,,,,,,,,,,,,,,,,,,,,,,,,,,459.473224500005,459.48769030000403,460.03019000000495,459.97205970000505,460.0273539000045,460.03019000000495,460.03019000000495,460.03019000000495,461.4563788000014,Scenes\175b.jpg,pre,n,1.4179499999954714,None,,,,,,,,00042,001,2026-01-17_15h54.18.926,MST_test,2024.2.0,59.921466925630554,2026-01-17 15h54.34.530488 +0530,
149,0,150,s,2.421241199997894,None,150,0,149,461.4710150000028,,,,,,,,,,,,,,,,,,,,,,,,,,,,,,,,,,,,,,,,,,,,,,,,,,461.4567265000005,461.4710150000028,461.97161120000237,461.95542130000103,461.9677475000062,461.97161120000237,461.97161120000237,461.97161120000237,464.40633690000686,Scenes\100a.jpg,post,s,2.421241199997894,None,,,,,,,,00042,001,2026-01-17_15h54.18.926,MST_test,2024.2.0,59.921466925630554,2026-01-17 15h54.34.530488 +0530,
,,,,,,,,,,,,,,,,,,,,,,,,,,,,,,,,,,,,,,,,,,,,,,,,,,,,,,,,,,,,,,,,,,,,,,,,,464.4065819000025,464.42083940000157,464.42083940000157,467.5393492000003,space,3.1082711999988533,None,00042,001,2026-01-17_15h54.18.926,MST_test,2024.2.0,59.921466925630554,2026-01-17 15h54.34.530488 +0530,
