thisN,thisTrialN,thisRepN,key_resp_3.keys,key_resp_3.rt,key_resp_3.duration,trials.thisRepN,trials.thisTrialN,trials.thisN,thisRow.t,notes,intro_page.started,text.started,key_resp.started,intro_page.stopped,key_resp.keys,key_resp.rt,key_resp.duration,instructions.started,text_2.started,key_resp_2.started,instructions.stopped,key_resp_2.keys,key_resp_2.rt,key_resp_2.duration,demo1.started,image_1.started,image_2.started,text_7.started,key_resp_6.started,text_9.started,demo1.stopped,key_resp_6.keys,key_resp_6.rt,key_resp_6.duration,demo2.started,image_5.started,image_6.started,text_11.started,text_12.started,key_resp_8.started,demo2.stopped,key_resp_8.keys,key_resp_8.rt,key_resp_8.duration,demo_conclusion.started,text_13.started,key_resp_9.started,demo_conclusion.stopped,key_resp_9.keys,key_resp_9.rt,key_resp_9.duration,start_test.started,text_6.started,key_resp_5.started,start_test.stopped,key_resp_5.keys,key_resp_5.rt,key_resp_5.duration,ISI.started,text_4.started,text_4.stopped,ISI.stopped,routine_1.started,image.started,text_3.started,key_resp_3.started,routine_1.stopped,image_path,position_of_stimuli,trials.key_resp_3.keys,trials.key_resp_3.rt,trials.key_resp_3.duration,End_page.started,text_5.started,key_resp_4.started,End_page.stopped,key_resp_4.keys,key_resp_4.rt,key_resp_4.duration,participant,session,date,expName,psychopyVersion,frameRate,expStart,
,,,,,,,,,,,0.0013350000081118196,0.003213299991330132,0.003213299991330132,3.9988002000027336,space,3.989222599979257,None,,,,,,,,,,,,,,,,,,,,,,,,,,,,,,,,,,,,,,,,,,,,,,,,,,,,,,,,,,,,,,,00046,001,2026-01-17_18h47.41.863,MST_test,2024.2.0,59.94765371495749,2026-01-17 18h47.51.211093 +0530,
,,,,,,,,,,,,,,,,,,3.998830700002145,4.013559599989094,4.013559599989094,19.94740219999221,space,15.93068210000638,None,,,,,,,,,,,,,,,,,,,,,,,,,,,,,,,,,,,,,,,,,,,,,,,,,,,,,,,,00046,001,2026-01-17_18h47.41.863,MST_test,2024.2.0,59.94765371495749,2026-01-17 18h47.51.211093 +0530,
,,,,,,,,,,,,,,,,,,,,,,,,,19.94742710000719,19.963971899996977,19.963971899996977,19.963971899996977,19.963971899996977,19.963971899996977,27.231388199987123,space,7.252708200016059,None,,,,,,,,,,,,,,,,,,,,,,,,,,,,,,,,,,,,,,,,,,,,,,00046,001,2026-01-17_18h47.41.863,MST_test,2024.2.0,59.94765371495749,2026-01-17 18h47.51.211093 +0530,
,,,,,,,,,,,,,,,,,,,,,,,,,,,,,,,,,,,27.231421300006332,27.247517999989213,27.247517999989213,27.247517999989213,27.247517999989213,27.247517999989213,31.897627500002272,space,4.640409299987368,None,,,,,,,,,,,,,,,,,,,,,,,,,,,,,,,,,,,,00046,001,2026-01-17_18h47.41.863,MST_test,2024.2.0,59.94765371495749,2026-01-17 18h47.51.211093 +0530,
,,,,,,,,,,,,,,,,,,,,,,,,,,,,,,,,,,,,,,,,,,,,,31.897656199987978,31.913702799996827,31.913702799996827,58.997492199996486,space,27.07159340000362,None,,,,,,,,,,,,,,,,,,,,,,,,,,,,,00046,001,2026-01-17_18h47.41.863,MST_test,2024.2.0,59.94765371495749,2026-01-17 18h47.51.211093 +0530,
,,,,,,,,,,,,,,,,,,,,,,,,,,,,,,,,,,,,,,,,,,,,,,,,,,,,58.99752440000884,59.01370040001348,59.01370040001348,128.68070050000097,space,69.65891749999719,None,,,,,,,,,,,,,,,,,,,,,,00046,001,2026-01-17_18h47.41.863,MST_test,2024.2.0,59.94765371495749,2026-01-17 18h47.51.211093 +0530,
0,0,1,s,10.147262499987846,None,1,0,0,128.6968448999978,,,,,,,,,,,,,,,,,,,,,,,,,,,,,,,,,,,,,,,,,,,,,,,,,,128.68484070000704,128.6968448999978,129.1970188000123,129.18065659998683,129.19211900001392,129.1970188000123,129.1970188000123,129.1970188000123,139.34760899998946,Scenes\061a.jpg,mid,s,10.147262499987846,None,,,,,,,,00046,001,2026-01-17_18h47.41.863,MST_test,2024.2.0,59.94765371495749,2026-01-17 18h47.51.211093 +0530,
1,0,2,n,3.9048488999833353,None,2,0,1,139.36351679998916,,,,,,,,,,,,,,,,,,,,,,,,,,,,,,,,,,,,,,,,,,,,,,,,,,139.34771040000487,139.36351679998916,139.86391700000968,139.84708539998974,139.84991369998897,139.86391700000968,139.86391700000968,139.86391700000968,143.78106539999135,Foils\scenes30.jpg,none,n,3.9048488999833353,None,,,,,,,,00046,001,2026-01-17_18h47.41.863,MST_test,2024.2.0,59.94765371495749,2026-01-17 18h47.51.211093 +0530,
2,0,3,o,1.254657599987695,None,3,0,2,143.79694880000898,,,,,,,,,,,,,,,,,,,,,,,,,,,,,,,,,,,,,,,,,,,,,,,,,,143.7811578999972,143.79694880000898,144.29737340001157,144.2805878999934,144.28417510000872,144.29737340001157,144.29737340001157,144.29737340001157,145.5643238000048,Objects\020a.jpg,mid,o,1.254657599987695,None,,,,,,,,00046,001,2026-01-17_18h47.41.863,MST_test,2024.2.0,59.94765371495749,2026-01-17 18h47.51.211093 +0530,
3,0,4,o,3.232482899999013,None,4,0,3,145.58024079998722,,,,,,,,,,,,,,,,,,,,,,,,,,,,,,,,,,,,,,,,,,,,,,,,,,145.56442149999202,145.58024079998722,146.0804618000111,146.06411480001407,146.07421419999446,146.0804618000111,146.0804618000111,146.0804618000111,149.3143659000052,Objects\127b.jpg,post,o,3.232482899999013,None,,,,,,,,00046,001,2026-01-17_18h47.41.863,MST_test,2024.2.0,59.94765371495749,2026-01-17 18h47.51.211093 +0530,
4,0,5,o,1.6896318000217434,None,5,0,4,149.3303745999874,,,,,,,,,,,,,,,,,,,,,,,,,,,,,,,,,,,,,,,,,,,,,,,,,,149.31445969999186,149.3303745999874,149.83057890000055,149.8140049999929,149.8164631999971,149.83057890000055,149.83057890000055,149.83057890000055,151.53077250000206,Objects\030a.jpg,mid,o,1.6896318000217434,None,,,,,,,,00046,001,2026-01-17_18h47.41.863,MST_test,2024.2.0,59.94765371495749,2026-01-17 18h47.51.211093 +0530,
5,0,6,n,2.2252461000171024,None,6,0,5,151.54704400000628,,,,,,,,,,,,,,,,,,,,,,,,,,,,,,,,,,,,,,,,,,,,,,,,,,151.530869899987,151.54704400000628,152.04726520000258,152.0305604999885,152.0330100999854,152.04726520000258,152.04726520000258,152.04726520000258,154.28089620001265,Foils\082a.jpg,none,n,2.2252461000171024,None,,,,,,,,00046,001,2026-01-17_18h47.41.863,MST_test,2024.2.0,59.94765371495749,2026-01-17 18h47.51.211093 +0530,
6,0,7,n,1.2984134000143968,None,7,0,6,154.2970445000101,,,,,,,,,,,,,,,,,,,,,,,,,,,,,,,,,,,,,,,,,,,,,,,,,,154.28099020000082,154.2970445000101,154.79755369998747,154.7806239000056,154.78734989999793,154.79755369998747,154.79755369998747,154.79755369998747,156.09756970001035,Scenes\163a.jpg,pre,n,1.2984134000143968,None,,,,,,,,00046,001,2026-01-17_18h47.41.863,MST_test,2024.2.0,59.94765371495749,2026-01-17 18h47.51.211093 +0530,
7,0,8,o,2.26722979999613,None,8,0,7,156.11379110001144,,,,,,,,,,,,,,,,,,,,,,,,,,,,,,,,,,,,,,,,,,,,,,,,,,156.09766619998845,156.11379110001144,156.61393130000215,156.59737860001042,156.60173699998995,156.61393130000215,156.61393130000215,156.61393130000215,158.89785239999765,Objects\065a.jpg,mid,o,2.26722979999613,None,,,,,,,,00046,001,2026-01-17_18h47.41.863,MST_test,2024.2.0,59.94765371495749,2026-01-17 18h47.51.211093 +0530,
8,0,9,o,1.9302159000071697,None,9,0,8,158.91363910000655,,,,,,,,,,,,,,,,,,,,,,,,,,,,,,,,,,,,,,,,,,,,,,,,,,158.8979546999908,158.91363910000655,159.41410110000288,159.39728959999047,159.4072363000014,159.41410110000288,159.41410110000288,159.41410110000288,161.34764260001248,Scenes\161a.jpg,mid,o,1.9302159000071697,None,,,,,,,,00046,001,2026-01-17_18h47.41.863,MST_test,2024.2.0,59.94765371495749,2026-01-17 18h47.51.211093 +0530,
9,0,10,s,7.44057890001568,None,10,0,9,161.3636734999891,,,,,,,,,,,,,,,,,,,,,,,,,,,,,,,,,,,,,,,,,,,,,,,,,,161.34773549999227,161.3636734999891,161.86421689999406,161.84731429998646,161.85043049999513,161.86421689999406,161.86421689999406,161.86421689999406,169.3143301999953,Objects\101a.jpg,pre,s,7.44057890001568,None,,,,,,,,00046,001,2026-01-17_18h47.41.863,MST_test,2024.2.0,59.94765371495749,2026-01-17 18h47.51.211093 +0530,
10,0,11,n,1.1615636000060476,None,11,0,10,169.3302127000061,,,,,,,,,,,,,,,,,,,,,,,,,,,,,,,,,,,,,,,,,,,,,,,,,,169.3144280000124,169.3302127000061,169.83053109998582,169.81403340000543,169.8169818999886,169.83053109998582,169.83053109998582,169.83053109998582,170.99755410000216,Foils\009a.jpg,none,n,1.1615636000060476,None,,,,,,,,00046,001,2026-01-17_18h47.41.863,MST_test,2024.2.0,59.94765371495749,2026-01-17 18h47.51.211093 +0530,
11,0,12,n,2.4950164000038058,None,12,0,11,171.01373609999428,,,,,,,,,,,,,,,,,,,,,,,,,,,,,,,,,,,,,,,,,,,,,,,,,,170.99764730001334,171.01373609999428,171.51396040001418,171.49713370000245,171.49963060001028,171.51396040001418,171.51396040001418,171.51396040001418,174.01426860000356,Objects\035a.jpg,post,n,2.4950164000038058,None,,,,,,,,00046,001,2026-01-17_18h47.41.863,MST_test,2024.2.0,59.94765371495749,2026-01-17 18h47.51.211093 +0530,
12,0,13,s,6.181992000027094,None,13,0,12,174.03023440000834,,,,,,,,,,,,,,,,,,,,,,,,,,,,,,,,,,,,,,,,,,,,,,,,,,174.0143640000024,174.03023440000834,174.53042759999516,174.51390019999235,174.51892100000987,174.53042759999516,174.53042759999516,174.53042759999516,180.7141963999893,Objects\014a.jpg,post,s,6.181992000027094,None,,,,,,,,00046,001,2026-01-17_18h47.41.863,MST_test,2024.2.0,59.94765371495749,2026-01-17 18h47.51.211093 +0530,
13,0,14,o,6.369961599993985,None,14,0,13,180.73013020001235,,,,,,,,,,,,,,,,,,,,,,,,,,,,,,,,,,,,,,,,,,,,,,,,,,180.7142973000009,180.73013020001235,181.23071470001014,181.21408430000884,181.22382220000145,181.23071470001014,181.23071470001014,181.23071470001014,187.61472660000436,Scenes\174b.jpg,mid,o,6.369961599993985,None,,,,,,,,00046,001,2026-01-17_18h47.41.863,MST_test,2024.2.0,59.94765371495749,2026-01-17 18h47.51.211093 +0530,
14,0,15,o,2.422632000001613,None,15,0,14,187.630193399993,,,,,,,,,,,,,,,,,,,,,,,,,,,,,,,,,,,,,,,,,,,,,,,,,,187.61481930001173,187.630193399993,188.13068169998587,188.11391029998777,188.12418650000473,188.13068169998587,188.13068169998587,188.13068169998587,190.5642605999892,Scenes\130a.jpg,mid,o,2.422632000001613,None,,,,,,,,00046,001,2026-01-17_18h47.41.863,MST_test,2024.2.0,59.94765371495749,2026-01-17 18h47.51.211093 +0530,
15,0,16,o,1.6396127000043634,None,16,0,15,190.58017299999483,,,,,,,,,,,,,,,,,,,,,,,,,,,,,,,,,,,,,,,,,,,,,,,,,,190.56435810000403,190.58017299999483,191.08084079998662,191.0639583999873,191.07195730000967,191.08084079998662,191.08084079998662,191.08084079998662,192.7309041999979,Scenes\157a.jpg,pre,o,1.6396127000043634,None,,,,,,,,00046,001,2026-01-17_18h47.41.863,MST_test,2024.2.0,59.94765371495749,2026-01-17 18h47.51.211093 +0530,
16,0,17,n,1.3931309999898076,None,17,0,16,192.74695160001284,,,,,,,,,,,,,,,,,,,,,,,,,,,,,,,,,,,,,,,,,,,,,,,,,,192.73100279999198,192.74695160001284,193.2474108999886,193.23073430001386,193.2339307999937,193.2474108999886,193.2474108999886,193.2474108999886,194.64750689998618,Foils\017a.jpg,none,n,1.3931309999898076,None,,,,,,,,00046,001,2026-01-17_18h47.41.863,MST_test,2024.2.0,59.94765371495749,2026-01-17 18h47.51.211093 +0530,
17,0,18,o,1.2840220000070985,None,18,0,17,194.6635862000112,,,,,,,,,,,,,,,,,,,,,,,,,,,,,,,,,,,,,,,,,,,,,,,,,,194.64759670000058,194.6635862000112,195.16388070001267,195.14738020001096,195.15846559999045,195.16388070001267,195.16388070001267,195.16388070001267,196.46417069999734,Objects\044b.jpg,mid,o,1.2840220000070985,None,,,,,,,,00046,001,2026-01-17_18h47.41.863,MST_test,2024.2.0,59.94765371495749,2026-01-17 18h47.51.211093 +0530,
18,0,19,s,2.6361725999740884,None,19,0,18,196.48015950000263,,,,,,,,,,,,,,,,,,,,,,,,,,,,,,,,,,,,,,,,,,,,,,,,,,196.46426139998948,196.48015950000263,196.98084410000592,196.96388060000027,196.97361859999364,196.98084410000592,196.98084410000592,196.98084410000592,199.63070070001413,Scenes\084b.jpg,pre,s,2.6361725999740884,None,,,,,,,,00046,001,2026-01-17_18h47.41.863,MST_test,2024.2.0,59.94765371495749,2026-01-17 18h47.51.211093 +0530,
19,0,20,n,1.253028400009498,None,20,0,19,199.64698789999238,,,,,,,,,,,,,,,,,,,,,,,,,,,,,,,,,,,,,,,,,,,,,,,,,,199.63079190001008,199.64698789999238,200.14743499999167,200.1304472000047,200.13328999999794,200.14743499999167,200.14743499999167,200.14743499999167,201.41410190000897,Objects\027b.jpg,post,n,1.253028400009498,None,,,,,,,,00046,001,2026-01-17_18h47.41.863,MST_test,2024.2.0,59.94765371495749,2026-01-17 18h47.51.211093 +0530,
20,0,21,o,4.461406699992949,None,21,0,20,201.43008300001384,,,,,,,,,,,,,,,,,,,,,,,,,,,,,,,,,,,,,,,,,,,,,,,,,,201.41419310000492,201.43008300001384,201.9307661000057,201.9138485000003,201.92228009999963,201.9307661000057,201.9307661000057,201.9307661000057,206.3975148999889,Scenes\101a.jpg,mid,o,4.461406699992949,None,,,,,,,,00046,001,2026-01-17_18h47.41.863,MST_test,2024.2.0,59.94765371495749,2026-01-17 18h47.51.211093 +0530,
21,0,22,o,1.99051309999777,None,22,0,21,206.413601200009,,,,,,,,,,,,,,,,,,,,,,,,,,,,,,,,,,,,,,,,,,,,,,,,,,206.39760689999093,206.413601200009,206.91408610000508,206.89734950001002,206.90062130001024,206.91408610000508,206.91408610000508,206.91408610000508,208.9141316000023,Objects\050a.jpg,pre,o,1.99051309999777,None,,,,,,,,00046,001,2026-01-17_18h47.41.863,MST_test,2024.2.0,59.94765371495749,2026-01-17 18h47.51.211093 +0530,
22,0,23,s,3.8813126999884844,None,23,0,22,208.93022839998594,,,,,,,,,,,,,,,,,,,,,,,,,,,,,,,,,,,,,,,,,,,,,,,,,,208.91422139998758,208.93022839998594,209.43066489999183,209.4140180000104,209.4202884999977,209.43066489999183,209.43066489999183,209.43066489999183,213.31429690000368,Scenes\075a.jpg,pre,s,3.8813126999884844,None,,,,,,,,00046,001,2026-01-17_18h47.41.863,MST_test,2024.2.0,59.94765371495749,2026-01-17 18h47.51.211093 +0530,
23,0,24,s,5.545205200003693,None,24,0,23,213.33014370000456,,,,,,,,,,,,,,,,,,,,,,,,,,,,,,,,,,,,,,,,,,,,,,,,,,213.3143900000141,213.33014370000456,213.8307691999944,213.81393999999273,213.8246766999946,213.8307691999944,213.8307691999944,213.8307691999944,219.3807850999874,Objects\110b.jpg,post,s,5.545205200003693,None,,,,,,,,00046,001,2026-01-17_18h47.41.863,MST_test,2024.2.0,59.94765371495749,2026-01-17 18h47.51.211093 +0530,
24,0,25,n,2.267010699986713,None,25,0,24,219.39697060000617,,,,,,,,,,,,,,,,,,,,,,,,,,,,,,,,,,,,,,,,,,,,,,,,,,219.38088899999275,219.39697060000617,219.901698200003,219.8804255000141,219.89953610001248,219.901698200003,219.901698200003,219.901698200003,222.18079929999658,Scenes\026b.jpg,post,n,2.267010699986713,None,,,,,,,,00046,001,2026-01-17_18h47.41.863,MST_test,2024.2.0,59.94765371495749,2026-01-17 18h47.51.211093 +0530,
25,0,26,n,1.0709349999960978,None,26,0,25,222.19688020000467,,,,,,,,,,,,,,,,,,,,,,,,,,,,,,,,,,,,,,,,,,,,,,,,,,222.180892400007,222.19688020000467,222.6975636999996,222.6804117000138,222.68882660000236,222.6975636999996,222.6975636999996,222.6975636999996,223.78079290001187,Scenes\121b.jpg,mid,n,1.0709349999960978,None,,,,,,,,00046,001,2026-01-17_18h47.41.863,MST_test,2024.2.0,59.94765371495749,2026-01-17 18h47.51.211093 +0530,
26,0,27,n,0.9364393000141717,None,27,0,26,223.79694030000246,,,,,,,,,,,,,,,,,,,,,,,,,,,,,,,,,,,,,,,,,,,,,,,,,,223.7808883000107,223.79694030000246,224.29740559999482,224.28045560000464,224.28268289999687,224.29740559999482,224.29740559999482,224.29740559999482,225.2475204000075,Foils\scenes8.jpg,none,n,0.9364393000141717,None,,,,,,,,00046,001,2026-01-17_18h47.41.863,MST_test,2024.2.0,59.94765371495749,2026-01-17 18h47.51.211093 +0530,
27,0,28,o,1.5406696999853011,None,28,0,27,225.26362099999096,,,,,,,,,,,,,,,,,,,,,,,,,,,,,,,,,,,,,,,,,,,,,,,,,,225.24761489999946,225.26362099999096,225.76393700001063,225.7472623999929,225.7556889000116,225.76393700001063,225.76393700001063,225.76393700001063,227.31411189999199,Scenes\150a.jpg,pre,o,1.5406696999853011,None,,,,,,,,00046,001,2026-01-17_18h47.41.863,MST_test,2024.2.0,59.94765371495749,2026-01-17 18h47.51.211093 +0530,
28,0,29,o,1.7618828999984544,None,29,0,28,227.330223500001,,,,,,,,,,,,,,,,,,,,,,,,,,,,,,,,,,,,,,,,,,,,,,,,,,227.31420359999174,227.330223500001,227.83098609998706,227.8138895999873,227.82079980001436,227.83098609998706,227.83098609998706,227.83098609998706,229.59746940000332,Scenes\039a.jpg,pre,o,1.7618828999984544,None,,,,,,,,00046,001,2026-01-17_18h47.41.863,MST_test,2024.2.0,59.94765371495749,2026-01-17 18h47.51.211093 +0530,
29,0,30,o,3.190525800018804,None,30,0,29,229.613588600012,,,,,,,,,,,,,,,,,,,,,,,,,,,,,,,,,,,,,,,,,,,,,,,,,,229.5975594999909,229.613588600012,230.11401960000512,230.09712140000192,230.10049770001206,230.11401960000512,230.11401960000512,230.11401960000512,233.3143449999916,Objects\181a.jpg,pre,o,3.190525800018804,None,,,,,,,,00046,001,2026-01-17_18h47.41.863,MST_test,2024.2.0,59.94765371495749,2026-01-17 18h47.51.211093 +0530,
30,0,31,o,3.3939047000021674,None,31,0,30,233.3302449999901,,,,,,,,,,,,,,,,,,,,,,,,,,,,,,,,,,,,,,,,,,,,,,,,,,233.31444650000776,233.3302449999901,233.83081720001064,233.81390079998528,233.82375919999322,233.83081720001064,233.83081720001064,233.83081720001064,237.23099819998606,Scenes\134a.jpg,post,o,3.3939047000021674,None,,,,,,,,00046,001,2026-01-17_18h47.41.863,MST_test,2024.2.0,59.94765371495749,2026-01-17 18h47.51.211093 +0530,
31,0,32,s,1.8861182999971788,None,32,0,31,237.24692639999557,,,,,,,,,,,,,,,,,,,,,,,,,,,,,,,,,,,,,,,,,,,,,,,,,,237.23109350001323,237.24692639999557,237.74740540000494,237.73050529998727,237.7402132000134,237.74740540000494,237.74740540000494,237.74740540000494,239.64755640001385,Objects\152b.jpg,mid,s,1.8861182999971788,None,,,,,,,,00046,001,2026-01-17_18h47.41.863,MST_test,2024.2.0,59.94765371495749,2026-01-17 18h47.51.211093 +0530,
32,0,33,o,5.4687486000184435,None,33,0,32,239.6635993999953,,,,,,,,,,,,,,,,,,,,,,,,,,,,,,,,,,,,,,,,,,,,,,,,,,239.64764740000828,239.6635993999953,240.1640955999901,240.14716829999816,240.15609159998712,240.1640955999901,240.1640955999901,240.1640955999901,245.64742620001198,Scenes\040a.jpg,pre,o,5.4687486000184435,None,,,,,,,,00046,001,2026-01-17_18h47.41.863,MST_test,2024.2.0,59.94765371495749,2026-01-17 18h47.51.211093 +0530,
33,0,34,n,5.308847600012086,None,34,0,33,245.66361089999555,,,,,,,,,,,,,,,,,,,,,,,,,,,,,,,,,,,,,,,,,,,,,,,,,,245.64751730000717,245.66361089999555,246.16404559998773,246.14717869999004,246.15042339998763,246.16404559998773,246.16404559998773,246.16404559998773,251.4806540000136,Objects\175b.jpg,pre,n,5.308847600012086,None,,,,,,,,00046,001,2026-01-17_18h47.41.863,MST_test,2024.2.0,59.94765371495749,2026-01-17 18h47.51.211093 +0530,
34,0,35,o,2.1312533000018448,None,35,0,34,251.49693520000437,,,,,,,,,,,,,,,,,,,,,,,,,,,,,,,,,,,,,,,,,,,,,,,,,,251.48074679999263,251.49693520000437,251.9971927999868,251.9804041000025,251.99083890000475,251.9971927999868,251.9971927999868,251.9971927999868,254.1309051999997,Objects\062b.jpg,post,o,2.1312533000018448,None,,,,,,,,00046,001,2026-01-17_18h47.41.863,MST_test,2024.2.0,59.94765371495749,2026-01-17 18h47.51.211093 +0530,
35,0,36,s,1.5529649000091013,None,36,0,35,254.1469475000049,,,,,,,,,,,,,,,,,,,,,,,,,,,,,,,,,,,,,,,,,,,,,,,,,,254.13100470000063,254.1469475000049,254.64713060000213,254.6304642999894,254.6327847999928,254.64713060000213,254.64713060000213,254.64713060000213,256.2142295000085,Foils\066a.jpg,none,s,1.5529649000091013,None,,,,,,,,00046,001,2026-01-17_18h47.41.863,MST_test,2024.2.0,59.94765371495749,2026-01-17 18h47.51.211093 +0530,
36,0,37,o,2.1900063999928534,None,37,0,36,256.2301898000005,,,,,,,,,,,,,,,,,,,,,,,,,,,,,,,,,,,,,,,,,,,,,,,,,,256.21432249998907,256.2301898000005,256.7302966999996,256.71393580001313,256.71620250001433,256.7302966999996,256.7302966999996,256.7302966999996,258.93089330001385,Objects\157a.jpg,post,o,2.1900063999928534,None,,,,,,,,00046,001,2026-01-17_18h47.41.863,MST_test,2024.2.0,59.94765371495749,2026-01-17 18h47.51.211093 +0530,
37,0,38,n,1.437473099998897,None,38,0,37,258.94704460000503,,,,,,,,,,,,,,,,,,,,,,,,,,,,,,,,,,,,,,,,,,,,,,,,,,258.9310085999896,258.94704460000503,259.6667773000081,259.4304895999958,259.6626361999952,259.6667773000081,259.6667773000081,259.6667773000081,261.1143383999879,Foils\scenes26.jpg,none,n,1.437473099998897,None,,,,,,,,00046,001,2026-01-17_18h47.41.863,MST_test,2024.2.0,59.94765371495749,2026-01-17 18h47.51.211093 +0530,
38,0,39,o,2.655675899994094,None,39,0,38,261.1301441999967,,,,,,,,,,,,,,,,,,,,,,,,,,,,,,,,,,,,,,,,,,,,,,,,,,261.1144365000073,261.1301441999967,261.66531509999186,261.6140532999998,261.6631415000011,261.66531509999186,261.66531509999186,261.66531509999186,264.33101480000187,Scenes\111b.jpg,pre,o,2.655675899994094,None,,,,,,,,00046,001,2026-01-17_18h47.41.863,MST_test,2024.2.0,59.94765371495749,2026-01-17 18h47.51.211093 +0530,
39,0,40,s,1.7770633000181988,None,40,0,39,264.3469860999903,,,,,,,,,,,,,,,,,,,,,,,,,,,,,,,,,,,,,,,,,,,,,,,,,,264.3311096999969,264.3469860999903,264.8476190000074,264.83078300001216,264.8438146999979,264.8476190000074,264.8476190000074,264.8476190000074,266.6309567000135,Scenes\177b.jpg,pre,s,1.7770633000181988,None,,,,,,,,00046,001,2026-01-17_18h47.41.863,MST_test,2024.2.0,59.94765371495749,2026-01-17 18h47.51.211093 +0530,
40,0,41,s,5.29328159999568,None,41,0,40,266.64705219998723,,,,,,,,,,,,,,,,,,,,,,,,,,,,,,,,,,,,,,,,,,,,,,,,,,266.63104760000715,266.64705219998723,267.14751010001055,267.13071180001134,267.13417219999246,267.14751010001055,267.14751010001055,267.14751010001055,272.447582599998,Foils\098a.jpg,none,s,5.29328159999568,None,,,,,,,,00046,001,2026-01-17_18h47.41.863,MST_test,2024.2.0,59.94765371495749,2026-01-17 18h47.51.211093 +0530,
41,0,42,n,1.1562223000219092,None,42,0,41,272.4637406000111,,,,,,,,,,,,,,,,,,,,,,,,,,,,,,,,,,,,,,,,,,,,,,,,,,272.44768959999783,272.4637406000111,272.9640444999968,272.94729469998856,272.95568260000437,272.9640444999968,272.9640444999968,272.9640444999968,274.13098469999386,Foils\scenes18.jpg,none,n,1.1562223000219092,None,,,,,,,,00046,001,2026-01-17_18h47.41.863,MST_test,2024.2.0,59.94765371495749,2026-01-17 18h47.51.211093 +0530,
42,0,43,o,3.089518599997973,None,43,0,42,274.14707549999,,,,,,,,,,,,,,,,,,,,,,,,,,,,,,,,,,,,,,,,,,,,,,,,,,274.13107579998905,274.14707549999,274.64753680001013,274.6306200000108,274.6380979999958,274.64753680001013,274.64753680001013,274.64753680001013,277.7478422000131,Scenes\188a.jpg,pre,o,3.089518599997973,None,,,,,,,,00046,001,2026-01-17_18h47.41.863,MST_test,2024.2.0,59.94765371495749,2026-01-17 18h47.51.211093 +0530,
43,0,44,o,1.487849199998891,None,44,0,43,277.7637573000102,,,,,,,,,,,,,,,,,,,,,,,,,,,,,,,,,,,,,,,,,,,,,,,,,,277.7479396999988,277.7637573000102,278.2644452000095,278.2472426999884,278.25727140001254,278.2644452000095,278.2644452000095,278.2644452000095,279.76459820001037,Scenes\004a.jpg,pre,o,1.487849199998891,None,,,,,,,,00046,001,2026-01-17_18h47.41.863,MST_test,2024.2.0,59.94765371495749,2026-01-17 18h47.51.211093 +0530,
44,0,45,s,1.2870932999940123,None,45,0,44,279.78050759999314,,,,,,,,,,,,,,,,,,,,,,,,,,,,,,,,,,,,,,,,,,,,,,,,,,279.764691999997,279.78050759999314,280.28094409999903,280.26401119999355,280.2740066999977,280.28094409999903,280.28094409999903,280.28094409999903,281.5810801000043,Objects\180b.jpg,pre,s,1.2870932999940123,None,,,,,,,,00046,001,2026-01-17_18h47.41.863,MST_test,2024.2.0,59.94765371495749,2026-01-17 18h47.51.211093 +0530,
45,0,46,s,2.822976800001925,None,46,0,45,281.5970178999996,,,,,,,,,,,,,,,,,,,,,,,,,,,,,,,,,,,,,,,,,,,,,,,,,,281.58117650001077,281.5970178999996,282.0972650999902,282.0807041999942,282.0896361999912,282.0972650999902,282.0972650999902,282.0972650999902,284.93099580000853,Objects\039b.jpg,pre,s,2.822976800001925,None,,,,,,,,00046,001,2026-01-17_18h47.41.863,MST_test,2024.2.0,59.94765371495749,2026-01-17 18h47.51.211093 +0530,
46,0,47,o,1.6248618999961764,None,47,0,46,284.9470530000108,,,,,,,,,,,,,,,,,,,,,,,,,,,,,,,,,,,,,,,,,,,,,,,,,,284.93109070000355,284.9470530000108,285.4472962,285.43059840000933,285.433080399991,285.4472962,285.4472962,285.4472962,287.08100440001,Objects\043a.jpg,post,o,1.6248618999961764,None,,,,,,,,00046,001,2026-01-17_18h47.41.863,MST_test,2024.2.0,59.94765371495749,2026-01-17 18h47.51.211093 +0530,
47,0,48,s,2.179469699971378,None,48,0,47,287.09698370000115,,,,,,,,,,,,,,,,,,,,,,,,,,,,,,,,,,,,,,,,,,,,,,,,,,287.0811078000115,287.09698370000115,287.59706390000065,287.580793000001,287.58999909998965,287.59706390000065,287.59706390000065,287.59706390000065,289.7809374000062,Foils\042a.jpg,none,s,2.179469699971378,None,,,,,,,,00046,001,2026-01-17_18h47.41.863,MST_test,2024.2.0,59.94765371495749,2026-01-17 18h47.51.211093 +0530,
48,0,49,o,1.0307248000171967,None,49,0,48,289.79706839998835,,,,,,,,,,,,,,,,,,,,,,,,,,,,,,,,,,,,,,,,,,,,,,,,,,289.7810282999999,289.79706839998835,290.2973020999925,290.2806559999881,290.2902364000038,290.2973020999925,290.2973020999925,290.2973020999925,291.33096910000313,Objects\093b.jpg,post,o,1.0307248000171967,None,,,,,,,,00046,001,2026-01-17_18h47.41.863,MST_test,2024.2.0,59.94765371495749,2026-01-17 18h47.51.211093 +0530,
49,0,50,n,1.4729774000006728,None,50,0,49,291.34702429999015,,,,,,,,,,,,,,,,,,,,,,,,,,,,,,,,,,,,,,,,,,,,,,,,,,291.3310735000123,291.34702429999015,291.8470046999864,291.8306866000057,291.8333868999907,291.8470046999864,291.8470046999864,291.8470046999864,293.3310335999995,Foils\057a.jpg,none,n,1.4729774000006728,None,,,,,,,,00046,001,2026-01-17_18h47.41.863,MST_test,2024.2.0,59.94765371495749,2026-01-17 18h47.51.211093 +0530,
50,0,51,n,2.4575847999949474,None,51,0,50,293.3469511999865,,,,,,,,,,,,,,,,,,,,,,,,,,,,,,,,,,,,,,,,,,,,,,,,,,293.331124999997,293.3469511999865,293.8472805999918,293.8306706000003,293.84018880000804,293.8472805999918,293.8472805999918,293.8472805999918,296.31426360001205,Objects\103b.jpg,post,n,2.4575847999949474,None,,,,,,,,00046,001,2026-01-17_18h47.41.863,MST_test,2024.2.0,59.94765371495749,2026-01-17 18h47.51.211093 +0530,
51,0,52,o,1.8579566000262275,None,52,0,51,296.3303117000032,,,,,,,,,,,,,,,,,,,,,,,,,,,,,,,,,,,,,,,,,,,,,,,,,,296.31435679999413,296.3303117000032,296.830609800003,296.8140013999946,296.8162941999908,296.830609800003,296.830609800003,296.830609800003,298.69752710001194,Objects\123a.jpg,pre,o,1.8579566000262275,None,,,,,,,,00046,001,2026-01-17_18h47.41.863,MST_test,2024.2.0,59.94765371495749,2026-01-17 18h47.51.211093 +0530,
52,0,53,s,2.082469499990111,None,53,0,52,298.71366489998763,,,,,,,,,,,,,,,,,,,,,,,,,,,,,,,,,,,,,,,,,,,,,,,,,,298.6976280999952,298.71366489998763,299.2138915999967,299.19734129999415,299.2064160000009,299.2138915999967,299.2138915999967,299.2138915999967,301.2977140999865,Objects\033b.jpg,post,s,2.082469499990111,None,,,,,,,,00046,001,2026-01-17_18h47.41.863,MST_test,2024.2.0,59.94765371495749,2026-01-17 18h47.51.211093 +0530,
53,0,54,s,3.2266468000016175,None,54,0,53,301.31368429999566,,,,,,,,,,,,,,,,,,,,,,,,,,,,,,,,,,,,,,,,,,,,,,,,,,301.2978077000007,301.31368429999566,301.81385529998806,301.79735479998635,301.7997030999977,301.81385529998806,301.81385529998806,301.81385529998806,305.0476837999886,Objects\064b.jpg,pre,s,3.2266468000016175,None,,,,,,,,00046,001,2026-01-17_18h47.41.863,MST_test,2024.2.0,59.94765371495749,2026-01-17 18h47.51.211093 +0530,
54,0,55,n,1.8123002999927849,None,55,0,54,305.0636707000085,,,,,,,,,,,,,,,,,,,,,,,,,,,,,,,,,,,,,,,,,,,,,,,,,,305.0477749000129,305.0636707000085,305.5642332000134,305.5473173999926,305.55678049998824,305.5642332000134,305.5642332000134,305.5642332000134,307.3810051000037,Scenes\074a.jpg,post,n,1.8123002999927849,None,,,,,,,,00046,001,2026-01-17_18h47.41.863,MST_test,2024.2.0,59.94765371495749,2026-01-17 18h47.51.211093 +0530,
55,0,56,n,0.9510755999945104,None,56,0,55,307.39707410000847,,,,,,,,,,,,,,,,,,,,,,,,,,,,,,,,,,,,,,,,,,,,,,,,,,307.3810947999882,307.39707410000847,307.89727340001264,307.8807528000034,307.8841631000105,307.89727340001264,307.89727340001264,307.89727340001264,308.86473639999167,Foils\scenes11.jpg,none,n,0.9510755999945104,None,,,,,,,,00046,001,2026-01-17_18h47.41.863,MST_test,2024.2.0,59.94765371495749,2026-01-17 18h47.51.211093 +0530,
56,0,57,n,0.9805066999979317,None,57,0,56,308.8805516999855,,,,,,,,,,,,,,,,,,,,,,,,,,,,,,,,,,,,,,,,,,,,,,,,,,308.8648426999862,308.8805516999855,309.3806263000006,309.3640058999881,309.36615200000233,309.3806263000006,309.3806263000006,309.3806263000006,310.364207000006,Foils\scenes14.jpg,none,n,0.9805066999979317,None,,,,,,,,00046,001,2026-01-17_18h47.41.863,MST_test,2024.2.0,59.94765371495749,2026-01-17 18h47.51.211093 +0530,
57,0,58,o,1.4229384000063874,None,58,0,57,310.38032259998727,,,,,,,,,,,,,,,,,,,,,,,,,,,,,,,,,,,,,,,,,,,,,,,,,,310.36430200000177,310.38032259998727,,310.8644033999881,310.8760151999886,310.88098109999555,310.88098109999555,310.88098109999555,312.31425739999395,Objects\149b.jpg,mid,o,1.4229384000063874,None,,,,,,,,00046,001,2026-01-17_18h47.41.863,MST_test,2024.2.0,59.94765371495749,2026-01-17 18h47.51.211093 +0530,
58,0,59,o,2.8097383999847807,None,59,0,58,312.33042340000975,,,,,,,,,,,,,,,,,,,,,,,,,,,,,,,,,,,,,,,,,,,,,,,,,,312.31434720000834,312.33042340000975,312.8307698999997,312.81392670000787,312.82412420000765,312.8307698999997,312.8307698999997,312.8307698999997,315.6474605000112,Scenes\003a.jpg,post,o,2.8097383999847807,None,,,,,,,,00046,001,2026-01-17_18h47.41.863,MST_test,2024.2.0,59.94765371495749,2026-01-17 18h47.51.211093 +0530,
59,0,60,o,1.1885547999991104,None,60,0,59,315.663610299991,,,,,,,,,,,,,,,,,,,,,,,,,,,,,,,,,,,,,,,,,,,,,,,,,,315.64755739999237,315.663610299991,316.1641304999939,316.1472436999902,316.1571161999891,316.1641304999939,316.1641304999939,316.1641304999939,317.364207000006,Objects\120b.jpg,mid,o,1.1885547999991104,None,,,,,,,,00046,001,2026-01-17_18h47.41.863,MST_test,2024.2.0,59.94765371495749,2026-01-17 18h47.51.211093 +0530,
60,0,61,s,2.056310099986149,None,61,0,60,317.38043960000505,,,,,,,,,,,,,,,,,,,,,,,,,,,,,,,,,,,,,,,,,,,,,,,,,,317.36429769999813,317.38043960000505,317.8809479000047,317.86403289999,317.8765413000074,317.8809479000047,317.8809479000047,317.8809479000047,319.94793840000057,Scenes\139b.jpg,pre,s,2.056310099986149,None,,,,,,,,00046,001,2026-01-17_18h47.41.863,MST_test,2024.2.0,59.94765371495749,2026-01-17 18h47.51.211093 +0530,
61,0,62,o,4.856695700000273,None,62,0,61,319.9640737999871,,,,,,,,,,,,,,,,,,,,,,,,,,,,,,,,,,,,,,,,,,,,,,,,,,319.9480441999913,319.9640737999871,320.46422170000733,320.44770150000113,320.45086280000396,320.46422170000733,320.46422170000733,320.46422170000733,325.33089300000574,Objects\172a.jpg,mid,o,4.856695700000273,None,,,,,,,,00046,001,2026-01-17_18h47.41.863,MST_test,2024.2.0,59.94765371495749,2026-01-17 18h47.51.211093 +0530,
62,0,63,s,1.361854199989466,None,63,0,62,325.3468109999958,,,,,,,,,,,,,,,,,,,,,,,,,,,,,,,,,,,,,,,,,,,,,,,,,,325.3309867999924,325.3468109999958,325.8471133999992,325.83056699999725,325.83339670000714,325.8471133999992,325.8471133999992,325.8471133999992,327.2144120000012,Objects\143a.jpg,mid,s,1.361854199989466,None,,,,,,,,00046,001,2026-01-17_18h47.41.863,MST_test,2024.2.0,59.94765371495749,2026-01-17 18h47.51.211093 +0530,
63,0,64,o,5.54993090001517,None,64,0,63,327.2302985000133,,,,,,,,,,,,,,,,,,,,,,,,,,,,,,,,,,,,,,,,,,,,,,,,,,327.2145068999962,327.2302985000133,327.7305388000095,327.71389620000264,327.72266639999,327.7305388000095,327.7305388000095,327.7305388000095,333.28123429999687,Objects\056b.jpg,post,o,5.54993090001517,None,,,,,,,,00046,001,2026-01-17_18h47.41.863,MST_test,2024.2.0,59.94765371495749,2026-01-17 18h47.51.211093 +0530,
64,0,65,s,1.8907346000196412,None,65,0,64,333.2970742000034,,,,,,,,,,,,,,,,,,,,,,,,,,,,,,,,,,,,,,,,,,,,,,,,,,333.2813318000117,333.2970742000034,333.7973476999905,333.78056009998545,333.7863013999886,333.7973476999905,333.7973476999905,333.7973476999905,335.6973890000081,Scenes\179a.jpg,pre,s,1.8907346000196412,None,,,,,,,,00046,001,2026-01-17_18h47.41.863,MST_test,2024.2.0,59.94765371495749,2026-01-17 18h47.51.211093 +0530,
65,0,66,s,3.5063235000125133,None,66,0,65,335.71364609999,,,,,,,,,,,,,,,,,,,,,,,,,,,,,,,,,,,,,,,,,,,,,,,,,,335.6974818999879,335.71364609999,336.21422289998736,336.1976098000014,336.2100963999983,336.21422289998736,336.21422289998736,336.21422289998736,339.73089760000585,Scenes\088a.jpg,post,s,3.5063235000125133,None,,,,,,,,00046,001,2026-01-17_18h47.41.863,MST_test,2024.2.0,59.94765371495749,2026-01-17 18h47.51.211093 +0530,
66,0,67,o,1.0326273000100628,None,67,0,66,339.74691839999286,,,,,,,,,,,,,,,,,,,,,,,,,,,,,,,,,,,,,,,,,,,,,,,,,,339.7309881999972,339.74691839999286,340.24746720000985,340.2307343999855,340.2337600000028,340.24746720000985,340.24746720000985,340.24746720000985,341.2811372000142,Objects\109a.jpg,pre,o,1.0326273000100628,None,,,,,,,,00046,001,2026-01-17_18h47.41.863,MST_test,2024.2.0,59.94765371495749,2026-01-17 18h47.51.211093 +0530,
67,0,68,n,1.334848400001647,None,68,0,67,341.29675410001073,,,,,,,,,,,,,,,,,,,,,,,,,,,,,,,,,,,,,,,,,,,,,,,,,,341.28123329998925,341.29675410001073,341.80130809999537,341.7805709000095,341.7993029000063,341.80130809999537,341.80130809999537,341.80130809999537,343.1475772999984,Scenes\114b.jpg,pre,n,1.334848400001647,None,,,,,,,,00046,001,2026-01-17_18h47.41.863,MST_test,2024.2.0,59.94765371495749,2026-01-17 18h47.51.211093 +0530,
68,0,69,n,1.8085346999869216,None,69,0,68,343.16389580001123,,,,,,,,,,,,,,,,,,,,,,,,,,,,,,,,,,,,,,,,,,,,,,,,,,343.1476711999858,343.16389580001123,343.6642617000034,343.64715440000873,343.6600402999902,343.6642617000034,343.6642617000034,343.6642617000034,345.48089810000965,Scenes\173b.jpg,post,n,1.8085346999869216,None,,,,,,,,00046,001,2026-01-17_18h47.41.863,MST_test,2024.2.0,59.94765371495749,2026-01-17 18h47.51.211093 +0530,
69,0,70,o,2.5157222999841906,None,70,0,69,345.4968491999898,,,,,,,,,,,,,,,,,,,,,,,,,,,,,,,,,,,,,,,,,,,,,,,,,,345.4809891000041,345.4968491999898,345.99728839998716,345.9805898999912,345.9902296999935,345.99728839998716,345.99728839998716,345.99728839998716,348.5143059999973,Scenes\022b.jpg,pre,o,2.5157222999841906,None,,,,,,,,00046,001,2026-01-17_18h47.41.863,MST_test,2024.2.0,59.94765371495749,2026-01-17 18h47.51.211093 +0530,
70,0,71,s,2.8178100000077393,None,71,0,70,348.5303280999942,,,,,,,,,,,,,,,,,,,,,,,,,,,,,,,,,,,,,,,,,,,,,,,,,,348.51439799999935,348.5303280999942,349.03112589998636,349.01381120001315,349.0289394999854,349.03112589998636,349.03112589998636,349.03112589998636,351.8641944999981,Scenes\119b.jpg,post,s,2.8178100000077393,None,,,,,,,,00046,001,2026-01-17_18h47.41.863,MST_test,2024.2.0,59.94765371495749,2026-01-17 18h47.51.211093 +0530,
71,0,72,n,1.0117406999925151,None,72,0,71,351.88031149999006,,,,,,,,,,,,,,,,,,,,,,,,,,,,,,,,,,,,,,,,,,,,,,,,,,351.86428909999086,351.88031149999006,352.38072369998554,352.3638486000127,352.36707279999973,352.38072369998554,352.38072369998554,352.38072369998554,353.3976033999934,Objects\118b.jpg,pre,n,1.0117406999925151,None,,,,,,,,00046,001,2026-01-17_18h47.41.863,MST_test,2024.2.0,59.94765371495749,2026-01-17 18h47.51.211093 +0530,
72,0,73,n,0.9778050000022631,None,73,0,72,353.413587499992,,,,,,,,,,,,,,,,,,,,,,,,,,,,,,,,,,,,,,,,,,,,,,,,,,353.39769330000854,353.413587499992,353.9188368000032,353.8973614000133,353.9166087000049,353.9188368000032,353.9188368000032,353.9188368000032,354.8974076999875,Scenes\002b.jpg,mid,n,0.9778050000022631,None,,,,,,,,00046,001,2026-01-17_18h47.41.863,MST_test,2024.2.0,59.94765371495749,2026-01-17 18h47.51.211093 +0530,
73,0,74,o,1.42588799999794,None,74,0,73,354.9136775000079,,,,,,,,,,,,,,,,,,,,,,,,,,,,,,,,,,,,,,,,,,,,,,,,,,354.8974992999865,354.9136775000079,355.4141518000106,355.39719290001085,355.4000330000126,355.4141518000106,355.4141518000106,355.4141518000106,356.8473662000033,Foils\073a.jpg,none,o,1.42588799999794,None,,,,,,,,00046,001,2026-01-17_18h47.41.863,MST_test,2024.2.0,59.94765371495749,2026-01-17 18h47.51.211093 +0530,
74,0,75,n,2.5882149999961257,None,75,0,74,356.8636411000043,,,,,,,,,,,,,,,,,,,,,,,,,,,,,,,,,,,,,,,,,,,,,,,,,,356.84745820000535,356.8636411000043,357.36390279998886,357.3470927999879,357.34967450000113,357.36390279998886,357.36390279998886,357.36390279998886,359.96429299999727,Foils\101b.jpg,none,n,2.5882149999961257,None,,,,,,,,00046,001,2026-01-17_18h47.41.863,MST_test,2024.2.0,59.94765371495749,2026-01-17 18h47.51.211093 +0530,
75,0,76,o,1.6555151999928057,None,76,0,75,359.9803441000113,,,,,,,,,,,,,,,,,,,,,,,,,,,,,,,,,,,,,,,,,,,,,,,,,,359.9643883999961,359.9803441000113,360.48057189999963,360.4638212999853,360.4665333000012,360.48057189999963,360.48057189999963,360.48057189999963,362.14771839999594,Objects\099a.jpg,post,o,1.6555151999928057,None,,,,,,,,00046,001,2026-01-17_18h47.41.863,MST_test,2024.2.0,59.94765371495749,2026-01-17 18h47.51.211093 +0530,
76,0,77,o,1.3839791999780573,None,77,0,76,362.1636998000031,,,,,,,,,,,,,,,,,,,,,,,,,,,,,,,,,,,,,,,,,,,,,,,,,,362.1478602999996,362.1636998000031,362.6640490000136,362.6471195000049,362.65395159999025,362.6640490000136,362.6640490000136,362.6640490000136,364.0642702000041,Scenes\024a.jpg,mid,o,1.3839791999780573,None,,,,,,,,00046,001,2026-01-17_18h47.41.863,MST_test,2024.2.0,59.94765371495749,2026-01-17 18h47.51.211093 +0530,
77,0,78,o,6.955351700016763,None,78,0,77,364.08025729999645,,,,,,,,,,,,,,,,,,,,,,,,,,,,,,,,,,,,,,,,,,,,,,,,,,364.06436170000234,364.08025729999645,364.5807119999954,364.56402560000424,364.56695670000045,364.5807119999954,364.5807119999954,364.5807119999954,371.5475756000087,Objects\017a.jpg,pre,o,6.955351700016763,None,,,,,,,,00046,001,2026-01-17_18h47.41.863,MST_test,2024.2.0,59.94765371495749,2026-01-17 18h47.51.211093 +0530,
78,0,79,n,0.9764964999922086,None,79,0,78,371.5636355000024,,,,,,,,,,,,,,,,,,,,,,,,,,,,,,,,,,,,,,,,,,,,,,,,,,371.5476939000073,371.5636355000024,372.0638665999868,372.04714810001315,372.0500994999893,372.0638665999868,372.0638665999868,372.0638665999868,373.04756080001243,Foils\090a.jpg,none,n,0.9764964999922086,None,,,,,,,,00046,001,2026-01-17_18h47.41.863,MST_test,2024.2.0,59.94765371495749,2026-01-17 18h47.51.211093 +0530,
79,0,80,n,2.9166228999965824,None,80,0,79,373.063593400002,,,,,,,,,,,,,,,,,,,,,,,,,,,,,,,,,,,,,,,,,,,,,,,,,,373.047659200005,373.063593400002,373.5641814999981,373.5470968000009,373.5577110000013,373.5641814999981,373.5641814999981,373.5641814999981,376.49733600000036,Objects\087b.jpg,mid,n,2.9166228999965824,None,,,,,,,,00046,001,2026-01-17_18h47.41.863,MST_test,2024.2.0,59.94765371495749,2026-01-17 18h47.51.211093 +0530,
80,0,81,s,1.978917000000365,None,81,0,80,376.5136584000138,,,,,,,,,,,,,,,,,,,,,,,,,,,,,,,,,,,,,,,,,,,,,,,,,,376.4974274999986,376.5136584000138,377.014142,376.9971191000077,377.01156730001094,377.014142,377.014142,377.014142,378.9975919999997,Scenes\153b.jpg,mid,s,1.978917000000365,None,,,,,,,,00046,001,2026-01-17_18h47.41.863,MST_test,2024.2.0,59.94765371495749,2026-01-17 18h47.51.211093 +0530,
81,0,82,s,3.598010100016836,None,82,0,81,379.0136872000003,,,,,,,,,,,,,,,,,,,,,,,,,,,,,,,,,,,,,,,,,,,,,,,,,,378.99768430000404,379.0136872000003,379.51499359999434,379.4971000000078,379.51272140000947,379.51499359999434,379.51499359999434,379.51499359999434,383.114381899999,Scenes\115b.jpg,mid,s,3.598010100016836,None,,,,,,,,00046,001,2026-01-17_18h47.41.863,MST_test,2024.2.0,59.94765371495749,2026-01-17 18h47.51.211093 +0530,
82,0,83,s,1.143273699999554,None,83,0,82,383.13043700001435,,,,,,,,,,,,,,,,,,,,,,,,,,,,,,,,,,,,,,,,,,,,,,,,,,383.1144718999858,383.13043700001435,383.6333303999854,383.614153100003,383.6311809000035,383.6333303999854,383.6333303999854,383.6333303999854,384.78108740001335,Scenes\041b.jpg,mid,s,1.143273699999554,None,,,,,,,,00046,001,2026-01-17_18h47.41.863,MST_test,2024.2.0,59.94765371495749,2026-01-17 18h47.51.211093 +0530,
83,0,84,o,1.358299799991073,None,84,0,83,384.79709450001246,,,,,,,,,,,,,,,,,,,,,,,,,,,,,,,,,,,,,,,,,,,,,,,,,,384.7811805999954,384.79709450001246,385.29778270001407,385.28069280000636,385.29000929999165,385.29778270001407,385.29778270001407,385.29778270001407,386.66437959999894,Scenes\142a.jpg,post,o,1.358299799991073,None,,,,,,,,00046,001,2026-01-17_18h47.41.863,MST_test,2024.2.0,59.94765371495749,2026-01-17 18h47.51.211093 +0530,
84,0,85,o,1.4116519000090193,None,85,0,84,386.6803559999971,,,,,,,,,,,,,,,,,,,,,,,,,,,,,,,,,,,,,,,,,,,,,,,,,,386.6644706999941,386.6803559999971,387.18090340000344,387.16397279998637,387.17249689999153,387.18090340000344,387.18090340000344,387.18090340000344,388.5977472999948,Foils\scenes19.jpg,none,o,1.4116519000090193,None,,,,,,,,00046,001,2026-01-17_18h47.41.863,MST_test,2024.2.0,59.94765371495749,2026-01-17 18h47.51.211093 +0530,
85,0,86,o,1.5027897999971174,None,86,0,85,388.6138093000045,,,,,,,,,,,,,,,,,,,,,,,,,,,,,,,,,,,,,,,,,,,,,,,,,,388.59783849999076,388.6138093000045,389.11423840001225,389.09734770000796,389.10913349999464,389.11423840001225,389.11423840001225,389.11423840001225,390.6310794999881,Scenes\046a.jpg,post,o,1.5027897999971174,None,,,,,,,,00046,001,2026-01-17_18h47.41.863,MST_test,2024.2.0,59.94765371495749,2026-01-17 18h47.51.211093 +0530,
86,0,87,n,1.98264420000487,None,87,0,86,390.6471145999967,,,,,,,,,,,,,,,,,,,,,,,,,,,,,,,,,,,,,,,,,,,,,,,,,,390.63117179999244,390.6471145999967,391.1533965000126,391.1308291000023,391.151143199997,391.1533965000126,391.1533965000126,391.1533965000126,393.1479560000007,Scenes\020b.jpg,post,n,1.98264420000487,None,,,,,,,,00046,001,2026-01-17_18h47.41.863,MST_test,2024.2.0,59.94765371495749,2026-01-17 18h47.51.211093 +0530,
87,0,88,o,1.4883661999774631,None,88,0,87,393.16378549998626,,,,,,,,,,,,,,,,,,,,,,,,,,,,,,,,,,,,,,,,,,,,,,,,,,393.1480518000026,393.16378549998626,393.6643002000055,393.64739450000343,393.6546612000093,393.6643002000055,393.6643002000055,393.6643002000055,395.16439560000435,Scenes\008a.jpg,post,o,1.4883661999774631,None,,,,,,,,00046,001,2026-01-17_18h47.41.863,MST_test,2024.2.0,59.94765371495749,2026-01-17 18h47.51.211093 +0530,
88,0,89,o,8.792246199998772,None,89,0,88,395.1804220000049,,,,,,,,,,,,,,,,,,,,,,,,,,,,,,,,,,,,,,,,,,,,,,,,,,395.16448999999557,395.1804220000049,395.6810196999868,395.66401269999915,395.6784228000033,395.6810196999868,395.6810196999868,395.6810196999868,404.4812260000035,Scenes\028b.jpg,post,o,8.792246199998772,None,,,,,,,,00046,001,2026-01-17_18h47.41.863,MST_test,2024.2.0,59.94765371495749,2026-01-17 18h47.51.211093 +0530,
89,0,90,s,3.3785083000257146,None,90,0,89,404.49700430000667,,,,,,,,,,,,,,,,,,,,,,,,,,,,,,,,,,,,,,,,,,,,,,,,,,404.481320699997,404.49700430000667,404.997503999999,404.98070019998704,404.9901969000057,404.997503999999,404.997503999999,404.997503999999,408.381094100012,Objects\164b.jpg,pre,s,3.3785083000257146,None,,,,,,,,00046,001,2026-01-17_18h47.41.863,MST_test,2024.2.0,59.94765371495749,2026-01-17 18h47.51.211093 +0530,
90,0,91,n,3.8546376999875065,None,91,0,90,408.3969984999858,,,,,,,,,,,,,,,,,,,,,,,,,,,,,,,,,,,,,,,,,,,,,,,,,,408.3812795999984,408.3969984999858,408.89744669999345,408.88094929998624,408.8891134999867,408.89744669999345,408.89744669999345,408.89744669999345,412.7643548999913,Scenes\186b.jpg,mid,n,3.8546376999875065,None,,,,,,,,00046,001,2026-01-17_18h47.41.863,MST_test,2024.2.0,59.94765371495749,2026-01-17 18h47.51.211093 +0530,
91,0,92,o,1.838937699998496,None,92,0,91,412.780400299991,,,,,,,,,,,,,,,,,,,,,,,,,,,,,,,,,,,,,,,,,,,,,,,,,,412.7644458000141,412.780400299991,413.2810451000114,413.2640180999879,413.2758405999921,413.2810451000114,413.2810451000114,413.2810451000114,415.13108900000225,Scenes\023b.jpg,mid,o,1.838937699998496,None,,,,,,,,00046,001,2026-01-17_18h47.41.863,MST_test,2024.2.0,59.94765371495749,2026-01-17 18h47.51.211093 +0530,
92,0,93,o,1.1208715999964625,None,93,0,92,415.14703580000787,,,,,,,,,,,,,,,,,,,,,,,,,,,,,,,,,,,,,,,,,,,,,,,,,,415.1311827999889,415.14703580000787,415.647724999988,415.6307375000033,415.6334508,415.647724999988,415.647724999988,415.647724999988,416.7809731999878,Foils\scenes2.jpg,none,o,1.1208715999964625,None,,,,,,,,00046,001,2026-01-17_18h47.41.863,MST_test,2024.2.0,59.94765371495749,2026-01-17 18h47.51.211093 +0530,
93,0,94,s,1.7907812999910675,None,94,0,93,416.7971329000138,,,,,,,,,,,,,,,,,,,,,,,,,,,,,,,,,,,,,,,,,,,,,,,,,,416.78106360000675,416.7971329000138,417.297333399998,417.2808001000085,417.29089159998694,417.297333399998,417.297333399998,417.297333399998,419.0976217999996,Objects\058b.jpg,post,s,1.7907812999910675,None,,,,,,,,00046,001,2026-01-17_18h47.41.863,MST_test,2024.2.0,59.94765371495749,2026-01-17 18h47.51.211093 +0530,
94,0,95,o,1.09866809999221,None,95,0,94,419.113783400011,,,,,,,,,,,,,,,,,,,,,,,,,,,,,,,,,,,,,,,,,,,,,,,,,,419.0977144000062,419.113783400011,419.6138248000061,419.5971995999862,419.60641820001183,419.6138248000061,419.6138248000061,419.6138248000061,420.71430809999583,Objects\100b.jpg,post,o,1.09866809999221,None,,,,,,,,00046,001,2026-01-17_18h47.41.863,MST_test,2024.2.0,59.94765371495749,2026-01-17 18h47.51.211093 +0530,
95,0,96,n,3.129930300026899,None,96,0,95,420.73043709999183,,,,,,,,,,,,,,,,,,,,,,,,,,,,,,,,,,,,,,,,,,,,,,,,,,420.71440999998595,420.73043709999183,421.2305867999967,421.21399449999444,421.2226275000139,421.2305867999967,421.2305867999967,421.2305867999967,424.364365299989,Objects\016b.jpg,post,n,3.129930300026899,None,,,,,,,,00046,001,2026-01-17_18h47.41.863,MST_test,2024.2.0,59.94765371495749,2026-01-17 18h47.51.211093 +0530,
96,0,97,n,1.7076779000053648,None,97,0,96,424.38045719999354,,,,,,,,,,,,,,,,,,,,,,,,,,,,,,,,,,,,,,,,,,,,,,,,,,424.3644670000067,424.38045719999354,424.9402839000104,424.86408810000285,424.9372718000086,424.9402839000104,424.9402839000104,424.9402839000104,426.66426419999334,Foils\scenes25.jpg,none,n,1.7076779000053648,None,,,,,,,,00046,001,2026-01-17_18h47.41.863,MST_test,2024.2.0,59.94765371495749,2026-01-17 18h47.51.211093 +0530,
97,0,98,o,1.7474514000059571,None,98,0,97,426.68043559999205,,,,,,,,,,,,,,,,,,,,,,,,,,,,,,,,,,,,,,,,,,,,,,,,,,426.66435499998624,426.68043559999205,427.18189840001287,427.16398159999517,427.17500129999826,427.18189840001287,427.18189840001287,427.18189840001287,428.93144519999623,Objects\015b.jpg,pre,o,1.7474514000059571,None,,,,,,,,00046,001,2026-01-17_18h47.41.863,MST_test,2024.2.0,59.94765371495749,2026-01-17 18h47.51.211093 +0530,
98,0,99,o,2.6807131999812555,None,99,0,98,428.94710839999607,,,,,,,,,,,,,,,,,,,,,,,,,,,,,,,,,,,,,,,,,,,,,,,,,,428.9315490000008,428.94710839999607,429.4475155000109,429.43057090000366,429.43992830000934,429.4475155000109,429.4475155000109,429.4475155000109,432.1309517000045,Scenes\085a.jpg,post,o,2.6807131999812555,None,,,,,,,,00046,001,2026-01-17_18h47.41.863,MST_test,2024.2.0,59.94765371495749,2026-01-17 18h47.51.211093 +0530,
99,0,100,n,3.1848596000054386,None,100,0,99,432.1470801999967,,,,,,,,,,,,,,,,,,,,,,,,,,,,,,,,,,,,,,,,,,,,,,,,,,432.131048500014,432.1470801999967,432.6474375000107,432.6305747999868,432.6419285000011,432.6474375000107,432.6474375000107,432.6474375000107,435.847695000004,Foils\002a.jpg,none,n,3.1848596000054386,None,,,,,,,,00046,001,2026-01-17_18h47.41.863,MST_test,2024.2.0,59.94765371495749,2026-01-17 18h47.51.211093 +0530,
100,0,101,n,19.972791699983645,None,101,0,100,435.86375200000475,,,,,,,,,,,,,,,,,,,,,,,,,,,,,,,,,,,,,,,,,,,,,,,,,,435.84778879999067,435.86375200000475,436.36411240001325,436.34742969999206,436.3561050000135,436.36411240001325,436.36411240001325,436.36411240001325,456.34753609998734,Foils\scenes7.jpg,none,n,19.972791699983645,None,,,,,,,,00046,001,2026-01-17_18h47.41.863,MST_test,2024.2.0,59.94765371495749,2026-01-17 18h47.51.211093 +0530,
101,0,102,n,1.532986099977279,None,102,0,101,456.36367880000034,,,,,,,,,,,,,,,,,,,,,,,,,,,,,,,,,,,,,,,,,,,,,,,,,,456.3476275000139,456.36367880000034,456.86711049999576,456.8472835000139,456.8652437000128,456.86711049999576,456.86711049999576,456.86711049999576,458.41458189999685,Scenes\059b.jpg,post,n,1.532986099977279,None,,,,,,,,00046,001,2026-01-17_18h47.41.863,MST_test,2024.2.0,59.94765371495749,2026-01-17 18h47.51.211093 +0530,
102,0,103,o,2.5900827000150457,None,103,0,102,458.43023430000176,,,,,,,,,,,,,,,,,,,,,,,,,,,,,,,,,,,,,,,,,,,,,,,,,,458.414678000001,458.43023430000176,458.93071580000105,458.9139217000047,458.9175094999955,458.93071580000105,458.93071580000105,458.93071580000105,461.5308859999932,Objects\022a.jpg,post,o,2.5900827000150457,None,,,,,,,,00046,001,2026-01-17_18h47.41.863,MST_test,2024.2.0,59.94765371495749,2026-01-17 18h47.51.211093 +0530,
103,0,104,o,1.024896400020225,None,104,0,103,461.54694910001126,,,,,,,,,,,,,,,,,,,,,,,,,,,,,,,,,,,,,,,,,,,,,,,,,,461.53097819999675,461.54694910001126,462.0472340999986,462.03047080000397,462.0394847000134,462.0472340999986,462.0472340999986,462.0472340999986,463.0806838000135,Objects\057b.jpg,pre,o,1.024896400020225,None,,,,,,,,00046,001,2026-01-17_18h47.41.863,MST_test,2024.2.0,59.94765371495749,2026-01-17 18h47.51.211093 +0530,
104,0,105,n,4.995655599981546,None,105,0,104,463.09694819999277,,,,,,,,,,,,,,,,,,,,,,,,,,,,,,,,,,,,,,,,,,,,,,,,,,463.0807760999887,463.09694819999277,463.597156600008,463.5804933999898,463.58297940000193,463.597156600008,463.597156600008,463.597156600008,468.59750850001,Foils\018a.jpg,none,n,4.995655599981546,None,,,,,,,,00046,001,2026-01-17_18h47.41.863,MST_test,2024.2.0,59.94765371495749,2026-01-17 18h47.51.211093 +0530,
105,0,106,o,1.1907969000167213,None,106,0,105,468.6136830000032,,,,,,,,,,,,,,,,,,,,,,,,,,,,,,,,,,,,,,,,,,,,,,,,,,468.5975996000052,468.6136830000032,469.113886600011,469.0974501000019,469.10031040001195,469.113886600011,469.113886600011,469.113886600011,470.3144198000082,Objects\151a.jpg,mid,o,1.1907969000167213,None,,,,,,,,00046,001,2026-01-17_18h47.41.863,MST_test,2024.2.0,59.94765371495749,2026-01-17 18h47.51.211093 +0530,
106,0,107,s,1.9537596000009216,None,107,0,106,470.3303076000011,,,,,,,,,,,,,,,,,,,,,,,,,,,,,,,,,,,,,,,,,,,,,,,,,,470.3145183000015,470.3303076000011,470.8306738999963,470.8139722000051,470.8164162999892,470.8306738999963,470.8306738999963,470.8306738999963,472.7976431999996,Foils\scenes16.jpg,none,s,1.9537596000009216,None,,,,,,,,00046,001,2026-01-17_18h47.41.863,MST_test,2024.2.0,59.94765371495749,2026-01-17 18h47.51.211093 +0530,
107,0,108,n,1.7830988999921829,None,108,0,107,472.8136893000046,,,,,,,,,,,,,,,,,,,,,,,,,,,,,,,,,,,,,,,,,,,,,,,,,,472.797737099987,472.8136893000046,473.3141537999909,473.29721039999276,473.3080633000063,473.3141537999909,473.3141537999909,473.3141537999909,475.097801099997,Scenes\025a.jpg,post,n,1.7830988999921829,None,,,,,,,,00046,001,2026-01-17_18h47.41.863,MST_test,2024.2.0,59.94765371495749,2026-01-17 18h47.51.211093 +0530,
108,0,109,o,1.0105821999895852,None,109,0,108,475.11366689999704,,,,,,,,,,,,,,,,,,,,,,,,,,,,,,,,,,,,,,,,,,,,,,,,,,475.0979007999995,475.11366689999704,475.6142408000014,475.5972799999872,475.6006520999945,475.6142408000014,475.6142408000014,475.6142408000014,476.63086810000823,Objects\105a.jpg,mid,o,1.0105821999895852,None,,,,,,,,00046,001,2026-01-17_18h47.41.863,MST_test,2024.2.0,59.94765371495749,2026-01-17 18h47.51.211093 +0530,
109,0,110,s,3.605104099988239,None,110,0,109,476.6469522000116,,,,,,,,,,,,,,,,,,,,,,,,,,,,,,,,,,,,,,,,,,,,,,,,,,476.6309579999943,476.6469522000116,477.1474571999861,477.1304434000049,477.1328094000055,477.1474571999861,477.1474571999861,477.1474571999861,480.7642455000023,Foils\scenes13.jpg,none,s,3.605104099988239,None,,,,,,,,00046,001,2026-01-17_18h47.41.863,MST_test,2024.2.0,59.94765371495749,2026-01-17 18h47.51.211093 +0530,
110,0,111,o,3.5439785000053234,None,111,0,110,480.78020380000817,,,,,,,,,,,,,,,,,,,,,,,,,,,,,,,,,,,,,,,,,,,,,,,,,,480.764339699992,480.78020380000817,481.28069959999993,481.26397,481.2740458000044,481.28069959999993,481.28069959999993,481.28069959999993,484.8308958999987,Scenes\053b.jpg,mid,o,3.5439785000053234,None,,,,,,,,00046,001,2026-01-17_18h47.41.863,MST_test,2024.2.0,59.94765371495749,2026-01-17 18h47.51.211093 +0530,
111,0,112,o,1.1974307000054978,None,112,0,111,484.84699300001375,,,,,,,,,,,,,,,,,,,,,,,,,,,,,,,,,,,,,,,,,,,,,,,,,,484.83098999998765,484.84699300001375,485.34733220000635,485.3306062000047,485.33387559998664,485.34733220000635,485.34733220000635,485.34733220000635,486.54753390001133,Objects\073a.jpg,pre,o,1.1974307000054978,None,,,,,,,,00046,001,2026-01-17_18h47.41.863,MST_test,2024.2.0,59.94765371495749,2026-01-17 18h47.51.211093 +0530,
112,0,113,o,1.9205139999976382,None,113,0,112,486.56371119999676,,,,,,,,,,,,,,,,,,,,,,,,,,,,,,,,,,,,,,,,,,,,,,,,,,486.54762409999967,486.56371119999676,487.0639136999962,487.04727119999006,487.04956559999846,487.0639136999962,487.0639136999962,487.0639136999962,488.99799529998563,Objects\190a.jpg,mid,o,1.9205139999976382,None,,,,,,,,00046,001,2026-01-17_18h47.41.863,MST_test,2024.2.0,59.94765371495749,2026-01-17 18h47.51.211093 +0530,
113,0,114,o,3.7893009000108577,None,114,0,113,489.0141810000059,,,,,,,,,,,,,,,,,,,,,,,,,,,,,,,,,,,,,,,,,,,,,,,,,,488.9981034999946,489.0141810000059,489.5152444000123,489.4974458999932,489.5130915000045,489.5152444000123,489.5152444000123,489.5152444000123,493.3142431000015,Scenes\180b.jpg,pre,o,3.7893009000108577,None,,,,,,,,00046,001,2026-01-17_18h47.41.863,MST_test,2024.2.0,59.94765371495749,2026-01-17 18h47.51.211093 +0530,
114,0,115,n,1.9692497000214644,None,115,0,114,493.3302976000123,,,,,,,,,,,,,,,,,,,,,,,,,,,,,,,,,,,,,,,,,,,,,,,,,,493.31433550000656,493.3302976000123,493.8307666000037,493.8140187000099,493.82419559999835,493.8307666000037,493.8307666000037,493.8307666000037,495.81432730000233,Scenes\128a.jpg,post,n,1.9692497000214644,None,,,,,,,,00046,001,2026-01-17_18h47.41.863,MST_test,2024.2.0,59.94765371495749,2026-01-17 18h47.51.211093 +0530,
115,0,116,o,1.2301809999917168,None,116,0,115,495.830283599993,,,,,,,,,,,,,,,,,,,,,,,,,,,,,,,,,,,,,,,,,,,,,,,,,,495.81442249999964,495.830283599993,496.3307596000086,496.3139751999988,496.3185255000135,496.3307596000086,496.3307596000086,496.3307596000086,497.56431789998896,Scenes\113a.jpg,pre,o,1.2301809999917168,None,,,,,,,,00046,001,2026-01-17_18h47.41.863,MST_test,2024.2.0,59.94765371495749,2026-01-17 18h47.51.211093 +0530,
116,0,117,s,3.2247013000014704,None,117,0,116,497.5802240000048,,,,,,,,,,,,,,,,,,,,,,,,,,,,,,,,,,,,,,,,,,,,,,,,,,497.5644104999956,497.5802240000048,498.08070819999557,498.06397200000356,498.07431249998626,498.08070819999557,498.08070819999557,498.08070819999557,501.31426829998964,Objects\021b.jpg,pre,s,3.2247013000014704,None,,,,,,,,00046,001,2026-01-17_18h47.41.863,MST_test,2024.2.0,59.94765371495749,2026-01-17 18h47.51.211093 +0530,
117,0,118,o,1.4257485000125598,None,118,0,117,501.3301888999995,,,,,,,,,,,,,,,,,,,,,,,,,,,,,,,,,,,,,,,,,,,,,,,,,,501.31474199998775,501.3301888999995,501.83059800000046,501.8141181000101,501.8233944000094,501.83059800000046,501.83059800000046,501.83059800000046,503.2645313999965,Objects\068b.jpg,mid,o,1.4257485000125598,None,,,,,,,,00046,001,2026-01-17_18h47.41.863,MST_test,2024.2.0,59.94765371495749,2026-01-17 18h47.51.211093 +0530,
118,0,119,o,2.243257200025255,None,119,0,118,503.28037279998534,,,,,,,,,,,,,,,,,,,,,,,,,,,,,,,,,,,,,,,,,,,,,,,,,,503.2646318000043,503.28037279998534,503.78075780000654,503.7640315000026,503.7664332000131,503.78075780000654,503.78075780000654,503.78075780000654,506.0310720000125,Objects\115a.jpg,pre,o,2.243257200025255,None,,,,,,,,00046,001,2026-01-17_18h47.41.863,MST_test,2024.2.0,59.94765371495749,2026-01-17 18h47.51.211093 +0530,
119,0,120,o,1.1491986999753863,None,120,0,119,506.04706119999173,,,,,,,,,,,,,,,,,,,,,,,,,,,,,,,,,,,,,,,,,,,,,,,,,,506.03116240000236,506.04706119999173,506.54718920000596,506.53048149999813,506.5330515000096,506.54718920000596,506.54718920000596,506.54718920000596,507.6979324000131,Objects\192a.jpg,post,o,1.1491986999753863,None,,,,,,,,00046,001,2026-01-17_18h47.41.863,MST_test,2024.2.0,59.94765371495749,2026-01-17 18h47.51.211093 +0530,
120,0,121,s,1.362407799984794,None,121,0,120,507.71382139998605,,,,,,,,,,,,,,,,,,,,,,,,,,,,,,,,,,,,,,,,,,,,,,,,,,507.69802539999364,507.71382139998605,508.2141992000106,508.197391099995,508.1998551999859,508.2141992000106,508.2141992000106,508.2141992000106,509.58107379998546,Foils\scenes6.jpg,none,s,1.362407799984794,None,,,,,,,,00046,001,2026-01-17_18h47.41.863,MST_test,2024.2.0,59.94765371495749,2026-01-17 18h47.51.211093 +0530,
121,0,122,o,1.6392698000126984,None,122,0,121,509.59718030001386,,,,,,,,,,,,,,,,,,,,,,,,,,,,,,,,,,,,,,,,,,,,,,,,,,509.5811781999946,509.59718030001386,510.09751490000053,510.0807227999903,510.09060140000656,510.09751490000053,510.09751490000053,510.09751490000053,511.74774769999203,Objects\045b.jpg,pre,o,1.6392698000126984,None,,,,,,,,00046,001,2026-01-17_18h47.41.863,MST_test,2024.2.0,59.94765371495749,2026-01-17 18h47.51.211093 +0530,
122,0,123,s,3.8242470999830402,None,123,0,122,511.7637718000042,,,,,,,,,,,,,,,,,,,,,,,,,,,,,,,,,,,,,,,,,,,,,,,,,,511.7478376000072,511.7637718000042,512.264407300012,512.2473851999966,512.2581406999961,512.264407300012,512.264407300012,512.264407300012,516.0977956000133,Scenes\066b.jpg,mid,s,3.8242470999830402,None,,,,,,,,00046,001,2026-01-17_18h47.41.863,MST_test,2024.2.0,59.94765371495749,2026-01-17 18h47.51.211093 +0530,
123,0,124,o,1.755078499991214,None,124,0,123,516.1137883999909,,,,,,,,,,,,,,,,,,,,,,,,,,,,,,,,,,,,,,,,,,,,,,,,,,516.0978901000053,516.1137883999909,516.6144808999961,516.5974472000089,516.6012721000006,516.6144808999961,516.6144808999961,516.6144808999961,518.3810274999996,Objects\037a.jpg,mid,o,1.755078499991214,None,,,,,,,,00046,001,2026-01-17_18h47.41.863,MST_test,2024.2.0,59.94765371495749,2026-01-17 18h47.51.211093 +0530,
124,0,125,o,4.126646499993512,None,125,0,124,518.397148899996,,,,,,,,,,,,,,,,,,,,,,,,,,,,,,,,,,,,,,,,,,,,,,,,,,518.3811182999925,518.397148899996,518.897345800011,518.8805782000127,518.8831277000136,518.897345800011,518.897345800011,518.897345800011,523.0310366000049,Objects\025a.jpg,post,o,4.126646499993512,None,,,,,,,,00046,001,2026-01-17_18h47.41.863,MST_test,2024.2.0,59.94765371495749,2026-01-17 18h47.51.211093 +0530,
125,0,126,n,1.516468400019221,None,126,0,125,523.047058600001,,,,,,,,,,,,,,,,,,,,,,,,,,,,,,,,,,,,,,,,,,,,,,,,,,523.0311298999877,523.047058600001,523.5476304999902,523.5307249999896,523.537730400014,523.5476304999902,523.5476304999902,523.5476304999902,525.0647090999992,Scenes\169a.jpg,mid,n,1.516468400019221,None,,,,,,,,00046,001,2026-01-17_18h47.41.863,MST_test,2024.2.0,59.94765371495749,2026-01-17 18h47.51.211093 +0530,
126,0,127,s,1.316200300003402,None,127,0,126,525.0803260999965,,,,,,,,,,,,,,,,,,,,,,,,,,,,,,,,,,,,,,,,,,,,,,,,,,525.0648010000004,525.0803260999965,525.5807068999857,525.5642439000076,525.5747963000031,525.5807068999857,525.5807068999857,525.5807068999857,526.8978758000012,Foils\097a.jpg,none,s,1.316200300003402,None,,,,,,,,00046,001,2026-01-17_18h47.41.863,MST_test,2024.2.0,59.94765371495749,2026-01-17 18h47.51.211093 +0530,
127,0,128,o,1.1777456999989226,None,128,0,127,526.913784400007,,,,,,,,,,,,,,,,,,,,,,,,,,,,,,,,,,,,,,,,,,,,,,,,,,526.897981999995,526.913784400007,527.4143269000051,527.3974133000011,527.4071483000007,527.4143269000051,527.4143269000051,527.4143269000051,528.5976206999912,Scenes\167a.jpg,mid,o,1.1777456999989226,None,,,,,,,,00046,001,2026-01-17_18h47.41.863,MST_test,2024.2.0,59.94765371495749,2026-01-17 18h47.51.211093 +0530,
128,0,129,o,1.9258748999855015,None,129,0,128,528.613823599997,,,,,,,,,,,,,,,,,,,,,,,,,,,,,,,,,,,,,,,,,,,,,,,,,,528.5977126999933,528.613823599997,529.1141898999922,529.0973257999867,529.1042536000023,529.1141898999922,529.1141898999922,529.1141898999922,531.0476195999945,Scenes\132a.jpg,pre,o,1.9258748999855015,None,,,,,,,,00046,001,2026-01-17_18h47.41.863,MST_test,2024.2.0,59.94765371495749,2026-01-17 18h47.51.211093 +0530,
129,0,130,n,6.004480300005525,None,130,0,129,531.0638538000057,,,,,,,,,,,,,,,,,,,,,,,,,,,,,,,,,,,,,,,,,,,,,,,,,,531.0477175000124,531.0638538000057,531.5641504999949,531.5472882000031,531.5577880000055,531.5641504999949,531.5641504999949,531.5641504999949,537.5808949999919,Scenes\112b.jpg,post,n,6.004480300005525,None,,,,,,,,00046,001,2026-01-17_18h47.41.863,MST_test,2024.2.0,59.94765371495749,2026-01-17 18h47.51.211093 +0530,
130,0,131,o,0.8876474999997299,None,131,0,130,537.5970409000001,,,,,,,,,,,,,,,,,,,,,,,,,,,,,,,,,,,,,,,,,,,,,,,,,,537.5809870999947,537.5970409000001,538.0974855000095,538.0804724000045,538.0841247999924,538.0974855000095,538.0974855000095,538.0974855000095,538.9976065999945,Scenes\016a.jpg,mid,o,0.8876474999997299,None,,,,,,,,00046,001,2026-01-17_18h47.41.863,MST_test,2024.2.0,59.94765371495749,2026-01-17 18h47.51.211093 +0530,
131,0,132,s,3.1021879999898374,None,132,0,131,539.0137453000061,,,,,,,,,,,,,,,,,,,,,,,,,,,,,,,,,,,,,,,,,,,,,,,,,,538.9977008000133,539.0137453000061,539.5150650999858,539.4972916000115,539.5130680000002,539.5150650999858,539.5150650999858,539.5150650999858,542.6307726000086,Scenes\126b.jpg,mid,s,3.1021879999898374,None,,,,,,,,00046,001,2026-01-17_18h47.41.863,MST_test,2024.2.0,59.94765371495749,2026-01-17 18h47.51.211093 +0530,
132,0,133,o,1.2611489999981131,None,133,0,132,542.647011699999,,,,,,,,,,,,,,,,,,,,,,,,,,,,,,,,,,,,,,,,,,,,,,,,,,542.630868600012,542.647011699999,543.1476158000005,543.1304848,543.1405685000063,543.1476158000005,543.1476158000005,543.1476158000005,544.4142736000067,Objects\024b.jpg,pre,o,1.2611489999981131,None,,,,,,,,00046,001,2026-01-17_18h47.41.863,MST_test,2024.2.0,59.94765371495749,2026-01-17 18h47.51.211093 +0530,
133,0,134,n,1.7578642999869771,None,134,0,133,544.430485799996,,,,,,,,,,,,,,,,,,,,,,,,,,,,,,,,,,,,,,,,,,,,,,,,,,544.4143707999901,544.430485799996,544.9306975000072,544.9139178000041,544.9270808000001,544.9306975000072,544.9306975000072,544.9306975000072,546.6977652999922,Scenes\050b.jpg,post,n,1.7578642999869771,None,,,,,,,,00046,001,2026-01-17_18h47.41.863,MST_test,2024.2.0,59.94765371495749,2026-01-17 18h47.51.211093 +0530,
134,0,135,n,2.537951999984216,None,135,0,134,546.7136918999895,,,,,,,,,,,,,,,,,,,,,,,,,,,,,,,,,,,,,,,,,,,,,,,,,,546.6978657,546.7136918999895,547.2141278999916,547.1973057999858,547.2005984999996,547.2141278999916,547.2141278999916,547.2141278999916,549.7643230000103,Objects\096a.jpg,post,n,2.537951999984216,None,,,,,,,,00046,001,2026-01-17_18h47.41.863,MST_test,2024.2.0,59.94765371495749,2026-01-17 18h47.51.211093 +0530,
135,0,136,o,0.7679704999900423,None,136,0,135,549.7802161999862,,,,,,,,,,,,,,,,,,,,,,,,,,,,,,,,,,,,,,,,,,,,,,,,,,549.7644214000029,549.7802161999862,550.2804524000094,550.264024700009,550.266666200012,550.2804524000094,550.2804524000094,550.2804524000094,551.0644545000105,Objects\063a.jpg,mid,o,0.7679704999900423,None,,,,,,,,00046,001,2026-01-17_18h47.41.863,MST_test,2024.2.0,59.94765371495749,2026-01-17 18h47.51.211093 +0530,
136,0,137,o,1.0516746000212152,None,137,0,136,551.0803379999998,,,,,,,,,,,,,,,,,,,,,,,,,,,,,,,,,,,,,,,,,,,,,,,,,,551.0645569000044,551.0803379999998,551.5807938000071,551.5639916000073,551.5724764000042,551.5807938000071,551.5807938000071,551.5807938000071,552.6476370999881,Scenes\005a.jpg,post,o,1.0516746000212152,None,,,,,,,,00046,001,2026-01-17_18h47.41.863,MST_test,2024.2.0,59.94765371495749,2026-01-17 18h47.51.211093 +0530,
137,0,138,n,0.9889844999997877,None,138,0,137,552.6636835999961,,,,,,,,,,,,,,,,,,,,,,,,,,,,,,,,,,,,,,,,,,,,,,,,,,552.6477424000041,552.6636835999961,553.1642901999876,553.1473721000075,553.1581282000116,553.1642901999876,553.1642901999876,553.1642901999876,554.1646569999866,Foils\034a.jpg,none,n,0.9889844999997877,None,,,,,,,,00046,001,2026-01-17_18h47.41.863,MST_test,2024.2.0,59.94765371495749,2026-01-17 18h47.51.211093 +0530,
138,0,139,n,2.2073659999878146,None,139,0,138,554.1803320999898,,,,,,,,,,,,,,,,,,,,,,,,,,,,,,,,,,,,,,,,,,,,,,,,,,554.1647606999904,554.1803320999898,554.6807106999913,554.6639500999881,554.6732734999969,554.6807106999913,554.6807106999913,554.6807106999913,556.8976049000048,Objects\079b.jpg,mid,n,2.2073659999878146,None,,,,,,,,00046,001,2026-01-17_18h47.41.863,MST_test,2024.2.0,59.94765371495749,2026-01-17 18h47.51.211093 +0530,
139,0,140,o,2.2024559999990743,None,140,0,139,556.9136396000104,,,,,,,,,,,,,,,,,,,,,,,,,,,,,,,,,,,,,,,,,,,,,,,,,,556.8976939000131,556.9136396000104,557.4138983000012,557.3973680000054,557.4001648999983,557.4138983000012,557.4138983000012,557.4138983000012,559.6309498999908,Objects\041a.jpg,mid,o,2.2024559999990743,None,,,,,,,,00046,001,2026-01-17_18h47.41.863,MST_test,2024.2.0,59.94765371495749,2026-01-17 18h47.51.211093 +0530,
140,0,141,n,1.2765139999974053,None,141,0,140,559.6470481999859,,,,,,,,,,,,,,,,,,,,,,,,,,,,,,,,,,,,,,,,,,,,,,,,,,559.6310515000077,559.6470481999859,560.1475614999945,560.1305266999989,560.1405688000086,560.1475614999945,560.1475614999945,560.1475614999945,561.4308631999884,Scenes\106a.jpg,pre,n,1.2765139999974053,None,,,,,,,,00046,001,2026-01-17_18h47.41.863,MST_test,2024.2.0,59.94765371495749,2026-01-17 18h47.51.211093 +0530,
141,0,142,o,2.261047799984226,None,142,0,141,561.4471377999871,,,,,,,,,,,,,,,,,,,,,,,,,,,,,,,,,,,,,,,,,,,,,,,,,,561.4309547999874,561.4471377999871,561.9474842000054,561.9303971999907,561.9399171000114,561.9474842000054,561.9474842000054,561.9474842000054,564.2143649999925,Objects\082b.jpg,mid,o,2.261047799984226,None,,,,,,,,00046,001,2026-01-17_18h47.41.863,MST_test,2024.2.0,59.94765371495749,2026-01-17 18h47.51.211093 +0530,
142,0,143,n,1.9546966000052635,None,143,0,142,564.2302683999878,,,,,,,,,,,,,,,,,,,,,,,,,,,,,,,,,,,,,,,,,,,,,,,,,,564.2144651999988,564.2302683999878,564.7337951000081,564.7138967000064,564.7316732000036,564.7337951000081,564.7337951000081,564.7337951000081,566.6976870000071,Scenes\190b.jpg,mid,n,1.9546966000052635,None,,,,,,,,00046,001,2026-01-17_18h47.41.863,MST_test,2024.2.0,59.94765371495749,2026-01-17 18h47.51.211093 +0530,
143,0,144,n,2.962561699998332,None,144,0,143,566.7136815999984,,,,,,,,,,,,,,,,,,,,,,,,,,,,,,,,,,,,,,,,,,,,,,,,,,566.6977837999875,566.7136815999984,567.2141305000114,567.1972283000068,567.206794400001,567.2141305000114,567.2141305000114,567.2141305000114,570.1812212000077,Objects\061b.jpg,pre,n,2.962561699998332,None,,,,,,,,00046,001,2026-01-17_18h47.41.863,MST_test,2024.2.0,59.94765371495749,2026-01-17 18h47.51.211093 +0530,
144,0,145,s,1.1432525999844074,None,145,0,144,570.196972500009,,,,,,,,,,,,,,,,,,,,,,,,,,,,,,,,,,,,,,,,,,,,,,,,,,570.1813129000075,570.196972500009,570.6975544999877,570.6805244999996,570.6903911000118,570.6975544999877,570.6975544999877,570.6975544999877,571.8476500000106,Scenes\122b.jpg,pre,s,1.1432525999844074,None,,,,,,,,00046,001,2026-01-17_18h47.41.863,MST_test,2024.2.0,59.94765371495749,2026-01-17 18h47.51.211093 +0530,
145,0,146,s,2.644731000007596,None,146,0,145,571.8637916999869,,,,,,,,,,,,,,,,,,,,,,,,,,,,,,,,,,,,,,,,,,,,,,,,,,571.8477529000083,571.8637916999869,572.3641711999953,572.3472626000002,572.3559570999932,572.3641711999953,572.3641711999953,572.3641711999953,575.0142972999893,Foils\scenes20.jpg,none,s,2.644731000007596,None,,,,,,,,00046,001,2026-01-17_18h47.41.863,MST_test,2024.2.0,59.94765371495749,2026-01-17 18h47.51.211093 +0530,
146,0,147,s,1.9906214000075124,None,147,0,146,575.0302543000143,,,,,,,,,,,,,,,,,,,,,,,,,,,,,,,,,,,,,,,,,,,,,,,,,,575.0143883000128,575.0302543000143,575.5306850000052,575.5139165,575.5253393999883,575.5306850000052,575.5306850000052,575.5306850000052,577.5308391999861,Scenes\097b.jpg,post,s,1.9906214000075124,None,,,,,,,,00046,001,2026-01-17_18h47.41.863,MST_test,2024.2.0,59.94765371495749,2026-01-17 18h47.51.211093 +0530,
147,0,148,n,1.634354899986647,None,148,0,147,577.5470447000116,,,,,,,,,,,,,,,,,,,,,,,,,,,,,,,,,,,,,,,,,,,,,,,,,,577.5309297000058,577.5470447000116,578.0473631999921,578.0305085,578.0334746000008,578.0473631999921,578.0473631999921,578.0473631999921,579.697620299994,Foils\113a.jpg,none,n,1.634354899986647,None,,,,,,,,00046,001,2026-01-17_18h47.41.863,MST_test,2024.2.0,59.94765371495749,2026-01-17 18h47.51.211093 +0530,
148,0,149,n,1.1542303999885917,None,149,0,148,579.7137298999878,,,,,,,,,,,,,,,,,,,,,,,,,,,,,,,,,,,,,,,,,,,,,,,,,,579.69771149999,579.7137298999878,580.2138717999915,580.1972279000038,580.1999376000022,580.2138717999915,580.2138717999915,580.2138717999915,581.3809164999984,Foils\033a.jpg,none,n,1.1542303999885917,None,,,,,,,,00046,001,2026-01-17_18h47.41.863,MST_test,2024.2.0,59.94765371495749,2026-01-17 18h47.51.211093 +0530,
149,0,150,n,2.8717909999832045,None,150,0,149,581.3970503000019,,,,,,,,,,,,,,,,,,,,,,,,,,,,,,,,,,,,,,,,,,,,,,,,,,581.3810099000111,581.3970503000019,581.8971928000101,581.880570600013,581.8834070999874,581.8971928000101,581.8971928000101,581.8971928000101,584.7809848999896,Objects\066a.jpg,mid,n,2.8717909999832045,None,,,,,,,,00046,001,2026-01-17_18h47.41.863,MST_test,2024.2.0,59.94765371495749,2026-01-17 18h47.51.211093 +0530,
,,,,,,,,,,,,,,,,,,,,,,,,,,,,,,,,,,,,,,,,,,,,,,,,,,,,,,,,,,,,,,,,,,,,,,,,,584.7810530000133,584.79709800001,584.79709800001,587.7806348000013,space,2.9792395000113174,None,00046,001,2026-01-17_18h47.41.863,MST_test,2024.2.0,59.94765371495749,2026-01-17 18h47.51.211093 +0530,
