thisN,thisTrialN,thisRepN,key_resp_3.keys,key_resp_3.rt,key_resp_3.duration,trials.thisRepN,trials.thisTrialN,trials.thisN,thisRow.t,notes,intro_page.started,text.started,key_resp.started,intro_page.stopped,key_resp.keys,key_resp.rt,key_resp.duration,instructions.started,text_2.started,key_resp_2.started,instructions.stopped,key_resp_2.keys,key_resp_2.rt,key_resp_2.duration,demo1.started,image_1.started,image_2.started,text_7.started,key_resp_6.started,text_9.started,demo1.stopped,key_resp_6.keys,key_resp_6.rt,key_resp_6.duration,demo2.started,image_5.started,image_6.started,text_11.started,text_12.started,key_resp_8.started,demo2.stopped,key_resp_8.keys,key_resp_8.rt,key_resp_8.duration,demo_conclusion.started,text_13.started,key_resp_9.started,demo_conclusion.stopped,key_resp_9.keys,key_resp_9.rt,key_resp_9.duration,start_test.started,text_6.started,key_resp_5.started,start_test.stopped,key_resp_5.keys,key_resp_5.rt,key_resp_5.duration,ISI.started,text_4.started,text_4.stopped,ISI.stopped,routine_1.started,image.started,text_3.started,key_resp_3.started,routine_1.stopped,image_path,position_of_stimuli,trials.key_resp_3.keys,trials.key_resp_3.rt,trials.key_resp_3.duration,End_page.started,text_5.started,key_resp_4.started,End_page.stopped,key_resp_4.keys,key_resp_4.rt,key_resp_4.duration,participant,session,date,expName,psychopyVersion,frameRate,expStart,
,,,,,,,,,,,0.001385299998219125,0.0034540000051492825,0.0034540000051492825,10.048531399996136,space,10.033658099986496,None,,,,,,,,,,,,,,,,,,,,,,,,,,,,,,,,,,,,,,,,,,,,,,,,,,,,,,,,,,,,,,,00044,001,2026-01-17_17h07.24.402,MST_test,2024.2.0,59.82872233196665,2026-01-17 17h07.43.082421 +0530,
,,,,,,,,,,,,,,,,,,10.048673700002837,10.071122499997728,10.071122499997728,27.127691699992283,space,17.05435620000935,None,,,,,,,,,,,,,,,,,,,,,,,,,,,,,,,,,,,,,,,,,,,,,,,,,,,,,,,,00044,001,2026-01-17_17h07.24.402,MST_test,2024.2.0,59.82872233196665,2026-01-17 17h07.43.082421 +0530,
,,,,,,,,,,,,,,,,,,,,,,,,,27.127799800000503,27.164505299995653,27.164505299995653,27.164505299995653,27.164505299995653,27.164505299995653,37.34431030000269,space,10.168784900000901,None,,,,,,,,,,,,,,,,,,,,,,,,,,,,,,,,,,,,,,,,,,,,,,00044,001,2026-01-17_17h07.24.402,MST_test,2024.2.0,59.82872233196665,2026-01-17 17h07.43.082421 +0530,
,,,,,,,,,,,,,,,,,,,,,,,,,,,,,,,,,,,37.344407099997625,37.35962010000367,37.35962010000367,37.35962010000367,37.35962010000367,37.35962010000367,41.661372999995365,space,4.2941297000070335,None,,,,,,,,,,,,,,,,,,,,,,,,,,,,,,,,,,,,00044,001,2026-01-17_17h07.24.402,MST_test,2024.2.0,59.82872233196665,2026-01-17 17h07.43.082421 +0530,
,,,,,,,,,,,,,,,,,,,,,,,,,,,,,,,,,,,,,,,,,,,,,41.661471600004006,41.67600859999948,41.67600859999948,79.7611229000031,space,38.081801000007545,None,,,,,,,,,,,,,,,,,,,,,,,,,,,,,00044,001,2026-01-17_17h07.24.402,MST_test,2024.2.0,59.82872233196665,2026-01-17 17h07.43.082421 +0530,
,,,,,,,,,,,,,,,,,,,,,,,,,,,,,,,,,,,,,,,,,,,,,,,,,,,,79.76125019999745,79.77576269999554,79.77576269999554,178.51198270000168,space,98.73391130000527,None,,,,,,,,,,,,,,,,,,,,,,00044,001,2026-01-17_17h07.24.402,MST_test,2024.2.0,59.82872233196665,2026-01-17 17h07.43.082421 +0530,
0,0,1,o,3.9136760999972466,None,1,0,0,178.5259417000052,,,,,,,,,,,,,,,,,,,,,,,,,,,,,,,,,,,,,,,,,,,,,,,,,,178.51895100000547,178.5259417000052,179.0361808000016,179.01029229999403,179.03286439999647,179.0361808000016,179.0361808000016,179.0361808000016,182.96169640000153,Scenes\095a.jpg,post,o,3.9136760999972466,None,,,,,,,,00044,001,2026-01-17_17h07.24.402,MST_test,2024.2.0,59.82872233196665,2026-01-17 17h07.43.082421 +0530,
1,0,2,o,2.816747300006682,None,2,0,1,182.9757532999938,,,,,,,,,,,,,,,,,,,,,,,,,,,,,,,,,,,,,,,,,,,,,,,,,,182.96203870000318,182.9757532999938,183.47578039999644,183.46047239999461,183.4720016999927,183.47578039999644,183.47578039999644,183.47578039999644,186.29590199999802,Objects\056a.jpg,mid,o,2.816747300006682,None,,,,,,,,00044,001,2026-01-17_17h07.24.402,MST_test,2024.2.0,59.82872233196665,2026-01-17 17h07.43.082421 +0530,
2,0,3,s,6.212967300001765,None,3,0,2,186.309345200003,,,,,,,,,,,,,,,,,,,,,,,,,,,,,,,,,,,,,,,,,,,,,,,,,,186.29617200000212,186.309345200003,186.80935789999785,186.79386740000336,186.80254649999551,186.80935789999785,186.80935789999785,186.80935789999785,193.028327299995,Objects\110b.jpg,pre,s,6.212967300001765,None,,,,,,,,00044,001,2026-01-17_17h07.24.402,MST_test,2024.2.0,59.82872233196665,2026-01-17 17h07.43.082421 +0530,
3,0,4,o,2.9018075999920256,None,4,0,3,193.04246329999296,,,,,,,,,,,,,,,,,,,,,,,,,,,,,,,,,,,,,,,,,,,,,,,,,,193.0286572000041,193.04246329999296,193.54282590000366,193.5268888999999,193.53550309999264,193.54282590000366,193.54282590000366,193.54282590000366,196.46131759999844,Objects\166b.jpg,pre,o,2.9018075999920256,None,,,,,,,,00044,001,2026-01-17_17h07.24.402,MST_test,2024.2.0,59.82872233196665,2026-01-17 17h07.43.082421 +0530,
4,0,5,o,2.3153441000031307,None,5,0,4,196.4757513999939,,,,,,,,,,,,,,,,,,,,,,,,,,,,,,,,,,,,,,,,,,,,,,,,,,196.46173690000433,196.4757513999939,197.03467779999482,196.96014209999703,197.03094529999362,197.03467779999482,197.03467779999482,197.03467779999482,199.36102729999402,Scenes\079b.jpg,post,o,2.3153441000031307,None,,,,,,,,00044,001,2026-01-17_17h07.24.402,MST_test,2024.2.0,59.82872233196665,2026-01-17 17h07.43.082421 +0530,
5,0,6,o,2.0088354999898,None,6,0,5,199.37612929999887,,,,,,,,,,,,,,,,,,,,,,,,,,,,,,,,,,,,,,,,,,,,,,,,,,199.36135029999423,199.37612929999887,199.90087879999192,199.86052770000242,199.89732760000334,199.90087879999192,199.90087879999192,199.90087879999192,201.9115918000025,Objects\064b.jpg,post,o,2.0088354999898,None,,,,,,,,00044,001,2026-01-17_17h07.24.402,MST_test,2024.2.0,59.82872233196665,2026-01-17 17h07.43.082421 +0530,
6,0,7,o,1.667034900005092,None,7,0,6,201.92628529999638,,,,,,,,,,,,,,,,,,,,,,,,,,,,,,,,,,,,,,,,,,,,,,,,,,201.91192169999704,201.92628529999638,202.42632779999985,202.41029079999134,202.42260350000288,202.42632779999985,202.42632779999985,202.42632779999985,204.09503270000278,Scenes\007a.jpg,post,o,1.667034900005092,None,,,,,,,,00044,001,2026-01-17_17h07.24.402,MST_test,2024.2.0,59.82872233196665,2026-01-17 17h07.43.082421 +0530,
7,0,8,o,1.4197571000113385,None,8,0,7,204.1091255999927,,,,,,,,,,,,,,,,,,,,,,,,,,,,,,,,,,,,,,,,,,,,,,,,,,204.0952885000006,204.1091255999927,204.6096256000019,204.5935890999972,204.60052389999328,204.6096256000019,204.6096256000019,204.6096256000019,206.04477930000576,Objects\128a.jpg,post,o,1.4197571000113385,None,,,,,,,,00044,001,2026-01-17_17h07.24.402,MST_test,2024.2.0,59.82872233196665,2026-01-17 17h07.43.082421 +0530,
8,0,9,s,10.543971100007184,None,9,0,8,206.05960710000363,,,,,,,,,,,,,,,,,,,,,,,,,,,,,,,,,,,,,,,,,,,,,,,,,,206.0451030999975,206.05960710000363,206.56440429999202,206.5439766000054,206.56133179999597,206.56440429999202,206.56440429999202,206.56440429999202,217.11161769999308,Scenes\035a.jpg,post,s,10.543971100007184,None,,,,,,,,00044,001,2026-01-17_17h07.24.402,MST_test,2024.2.0,59.82872233196665,2026-01-17 17h07.43.082421 +0530,
9,0,10,s,15.931039800008875,None,10,0,9,217.12604800000554,,,,,,,,,,,,,,,,,,,,,,,,,,,,,,,,,,,,,,,,,,,,,,,,,,217.11187520000385,217.12604800000554,217.62642079999205,217.61026040000434,217.61679569999978,217.62642079999205,217.62642079999205,217.62642079999205,233.56256360000407,Objects\163a.jpg,post,s,15.931039800008875,None,,,,,,,,00044,001,2026-01-17_17h07.24.402,MST_test,2024.2.0,59.82872233196665,2026-01-17 17h07.43.082421 +0530,
10,0,11,s,2.4167064000066603,None,11,0,10,233.57581270000082,,,,,,,,,,,,,,,,,,,,,,,,,,,,,,,,,,,,,,,,,,,,,,,,,,233.56298390000302,233.57581270000082,234.0762407000002,234.06014269999287,234.06906199999503,234.0762407000002,234.0762407000002,234.0762407000002,236.49497420000262,Objects\045b.jpg,post,s,2.4167064000066603,None,,,,,,,,00044,001,2026-01-17_17h07.24.402,MST_test,2024.2.0,59.82872233196665,2026-01-17 17h07.43.082421 +0530,
11,0,12,n,8.500060399994254,None,12,0,11,236.5090843999933,,,,,,,,,,,,,,,,,,,,,,,,,,,,,,,,,,,,,,,,,,,,,,,,,,236.4952379000024,236.5090843999933,237.00946479999402,236.99364640000567,236.99975529999938,237.00946479999402,237.00946479999402,237.00946479999402,245.51168080000207,Foils\106a.jpg,none,n,8.500060399994254,None,,,,,,,,00044,001,2026-01-17_17h07.24.402,MST_test,2024.2.0,59.82872233196665,2026-01-17 17h07.43.082421 +0530,
12,0,13,n,2.8905633999966085,None,13,0,12,245.52604709999287,,,,,,,,,,,,,,,,,,,,,,,,,,,,,,,,,,,,,,,,,,,,,,,,,,245.51195489999373,245.52604709999287,246.08259199999156,246.01028550000046,246.07922759999929,246.08259199999156,246.08259199999156,246.08259199999156,248.97779710000032,Foils\scenes22.jpg,none,n,2.8905633999966085,None,,,,,,,,00044,001,2026-01-17_17h07.24.402,MST_test,2024.2.0,59.82872233196665,2026-01-17 17h07.43.082421 +0530,
13,0,14,s,3.5773695999960182,None,14,0,13,248.99231089999375,,,,,,,,,,,,,,,,,,,,,,,,,,,,,,,,,,,,,,,,,,,,,,,,,,248.97805309999967,248.99231089999375,249.49936020000314,249.47711340000387,249.49641540000448,249.49936020000314,249.49936020000314,249.49936020000314,253.0785581999953,Scenes\187a.jpg,pre,s,3.5773695999960182,None,,,,,,,,00044,001,2026-01-17_17h07.24.402,MST_test,2024.2.0,59.82872233196665,2026-01-17 17h07.43.082421 +0530,
14,0,15,s,3.468035800004145,None,15,0,14,253.0925525000057,,,,,,,,,,,,,,,,,,,,,,,,,,,,,,,,,,,,,,,,,,,,,,,,,,253.07895929999358,253.0925525000057,253.59319959999993,253.57702519999293,253.58379059999424,253.59319959999993,253.59319959999993,253.59319959999993,257.07854429999134,Foils\scenes8.jpg,none,s,3.468035800004145,None,,,,,,,,00044,001,2026-01-17_17h07.24.402,MST_test,2024.2.0,59.82872233196665,2026-01-17 17h07.43.082421 +0530,
15,0,16,n,13.827652400010265,None,16,0,15,257.0923761000013,,,,,,,,,,,,,,,,,,,,,,,,,,,,,,,,,,,,,,,,,,,,,,,,,,257.0787464000023,257.0923761000013,257.63272219999635,257.5770507999987,257.6298962000001,257.63272219999635,257.63272219999635,257.63272219999635,271.4778667999926,Foils\scenes20.jpg,none,n,13.827652400010265,None,,,,,,,,00044,001,2026-01-17_17h07.24.402,MST_test,2024.2.0,59.82872233196665,2026-01-17 17h07.43.082421 +0530,
16,0,17,n,11.763636100004078,None,17,0,16,271.4931268999935,,,,,,,,,,,,,,,,,,,,,,,,,,,,,,,,,,,,,,,,,,,,,,,,,,271.47817750000104,271.4931268999935,271.9930250000034,271.9770212000003,271.98411289999785,271.9930250000034,271.9930250000034,271.9930250000034,283.76086639999994,Foils\033a.jpg,none,n,11.763636100004078,None,,,,,,,,00044,001,2026-01-17_17h07.24.402,MST_test,2024.2.0,59.82872233196665,2026-01-17 17h07.43.082421 +0530,
17,0,18,o,2.1577985000039916,None,18,0,17,283.7758246000012,,,,,,,,,,,,,,,,,,,,,,,,,,,,,,,,,,,,,,,,,,,,,,,,,,283.76111369999126,283.7758246000012,284.32818500000576,284.2604496999993,284.3251192000025,284.32818500000576,284.32818500000576,284.32818500000576,286.4951540000038,Objects\050b.jpg,mid,o,2.1577985000039916,None,,,,,,,,00044,001,2026-01-17_17h07.24.402,MST_test,2024.2.0,59.82872233196665,2026-01-17 17h07.43.082421 +0530,
18,0,19,n,9.990717199994833,None,19,0,18,286.509206799994,,,,,,,,,,,,,,,,,,,,,,,,,,,,,,,,,,,,,,,,,,,,,,,,,,286.4954091999971,286.509206799994,287.30210459999216,286.9936396999983,287.2948835999996,287.30210459999216,287.30210459999216,287.30210459999216,297.29528449999634,Foils\scenes26.jpg,none,n,9.990717199994833,None,,,,,,,,00044,001,2026-01-17_17h07.24.402,MST_test,2024.2.0,59.82872233196665,2026-01-17 17h07.43.082421 +0530,
19,0,20,o,1.7690941000037128,None,20,0,19,297.3091640000057,,,,,,,,,,,,,,,,,,,,,,,,,,,,,,,,,,,,,,,,,,,,,,,,,,297.29565050000383,297.3091640000057,297.85206520000065,297.7937940999982,297.8492038999975,297.85206520000065,297.85206520000065,297.85206520000065,299.62810020000325,Scenes\123a.jpg,mid,o,1.7690941000037128,None,,,,,,,,00044,001,2026-01-17_17h07.24.402,MST_test,2024.2.0,59.82872233196665,2026-01-17 17h07.43.082421 +0530,
20,0,21,o,3.1464510999940103,None,21,0,20,299.642408899992,,,,,,,,,,,,,,,,,,,,,,,,,,,,,,,,,,,,,,,,,,,,,,,,,,299.62836309999693,299.642408899992,300.146974999996,300.1268950999947,300.14370440000494,300.146974999996,300.146974999996,300.146974999996,303.2953206999955,Scenes\189a.jpg,mid,o,3.1464510999940103,None,,,,,,,,00044,001,2026-01-17_17h07.24.402,MST_test,2024.2.0,59.82872233196665,2026-01-17 17h07.43.082421 +0530,
21,0,22,o,1.5238078000111273,None,22,0,21,303.30950329999905,,,,,,,,,,,,,,,,,,,,,,,,,,,,,,,,,,,,,,,,,,,,,,,,,,303.2957066999952,303.30950329999905,303.80981079999765,303.79359939999995,303.80218280000554,303.80981079999765,303.80981079999765,303.80981079999765,305.34472979999555,Objects\028b.jpg,mid,o,1.5238078000111273,None,,,,,,,,00044,001,2026-01-17_17h07.24.402,MST_test,2024.2.0,59.82872233196665,2026-01-17 17h07.43.082421 +0530,
22,0,23,s,8.448450700001558,None,23,0,22,305.3593896999955,,,,,,,,,,,,,,,,,,,,,,,,,,,,,,,,,,,,,,,,,,,,,,,,,,305.3450101000053,305.3593896999955,305.91742529999465,305.84368389999145,305.9143305000034,305.91742529999465,305.91742529999465,305.91742529999465,314.37771050000447,Scenes\157b.jpg,pre,s,8.448450700001558,None,,,,,,,,00044,001,2026-01-17_17h07.24.402,MST_test,2024.2.0,59.82872233196665,2026-01-17 17h07.43.082421 +0530,
23,0,24,o,2.55237199999101,None,24,0,23,314.392517100001,,,,,,,,,,,,,,,,,,,,,,,,,,,,,,,,,,,,,,,,,,,,,,,,,,314.3779582999996,314.392517100001,314.8930446000013,314.87731599999825,314.88682210000115,314.8930446000013,314.8930446000013,314.8930446000013,317.4613054999936,Objects\148b.jpg,post,o,2.55237199999101,None,,,,,,,,00044,001,2026-01-17_17h07.24.402,MST_test,2024.2.0,59.82872233196665,2026-01-17 17h07.43.082421 +0530,
24,0,25,o,1.3653942000091774,None,25,0,24,317.4758361999993,,,,,,,,,,,,,,,,,,,,,,,,,,,,,,,,,,,,,,,,,,,,,,,,,,317.46163859999797,317.4758361999993,317.97615750000114,317.9601515999966,317.9659798999928,317.97615750000114,317.97615750000114,317.97615750000114,319.3444567999977,Objects\002a.jpg,pre,o,1.3653942000091774,None,,,,,,,,00044,001,2026-01-17_17h07.24.402,MST_test,2024.2.0,59.82872233196665,2026-01-17 17h07.43.082421 +0530,
25,0,26,n,9.657462999995914,None,26,0,25,319.3591119000048,,,,,,,,,,,,,,,,,,,,,,,,,,,,,,,,,,,,,,,,,,,,,,,,,,319.34470780000265,319.3591119000048,319.8592614999943,319.8436243000033,319.8520481000014,319.8592614999943,319.8592614999943,319.8592614999943,329.52738970000064,Foils\scenes17.jpg,none,n,9.657462999995914,None,,,,,,,,00044,001,2026-01-17_17h07.24.402,MST_test,2024.2.0,59.82872233196665,2026-01-17 17h07.43.082421 +0530,
26,0,27,o,2.066554899996845,None,27,0,26,329.5425341999944,,,,,,,,,,,,,,,,,,,,,,,,,,,,,,,,,,,,,,,,,,,,,,,,,,329.52761000000464,329.5425341999944,330.0429312999913,330.0269352000032,330.0350780000008,330.0429312999913,330.0429312999913,330.0429312999913,332.1117004999978,Objects\182b.jpg,post,o,2.066554899996845,None,,,,,,,,00044,001,2026-01-17_17h07.24.402,MST_test,2024.2.0,59.82872233196665,2026-01-17 17h07.43.082421 +0530,
27,0,28,o,2.0190459999867016,None,28,0,27,332.12591420000535,,,,,,,,,,,,,,,,,,,,,,,,,,,,,,,,,,,,,,,,,,,,,,,,,,332.1120273999986,332.12591420000535,332.70576820000133,332.609935600005,332.70296229999803,332.70576820000133,332.70576820000133,332.70576820000133,334.7276297999924,Scenes\025b.jpg,pre,o,2.0190459999867016,None,,,,,,,,00044,001,2026-01-17_17h07.24.402,MST_test,2024.2.0,59.82872233196665,2026-01-17 17h07.43.082421 +0530,
28,0,29,n,8.578573099992354,None,29,0,28,334.74262039999303,,,,,,,,,,,,,,,,,,,,,,,,,,,,,,,,,,,,,,,,,,,,,,,,,,334.72805839999637,334.74262039999303,335.24313220000477,335.2269534999941,335.237194500005,335.24313220000477,335.24313220000477,335.24313220000477,343.82788650000293,Foils\010a.jpg,none,n,8.578573099992354,None,,,,,,,,00044,001,2026-01-17_17h07.24.402,MST_test,2024.2.0,59.82872233196665,2026-01-17 17h07.43.082421 +0530,
29,0,30,o,1.3494726000062656,None,30,0,29,343.84243479999714,,,,,,,,,,,,,,,,,,,,,,,,,,,,,,,,,,,,,,,,,,,,,,,,,,343.82822280000255,343.84243479999714,344.3431103000039,344.3270668000041,344.3330052999954,344.3431103000039,344.3431103000039,344.3431103000039,345.6951939999999,Objects\152a.jpg,mid,o,1.3494726000062656,None,,,,,,,,00044,001,2026-01-17_17h07.24.402,MST_test,2024.2.0,59.82872233196665,2026-01-17 17h07.43.082421 +0530,
30,0,31,o,0.7079392000014195,None,31,0,30,345.7095616000006,,,,,,,,,,,,,,,,,,,,,,,,,,,,,,,,,,,,,,,,,,,,,,,,,,345.6955888999946,345.7095616000006,346.20941130000574,346.19404750000103,346.20219189999625,346.20941130000574,346.20941130000574,346.20941130000574,346.92762639999273,Objects\192a.jpg,pre,o,0.7079392000014195,None,,,,,,,,00044,001,2026-01-17_17h07.24.402,MST_test,2024.2.0,59.82872233196665,2026-01-17 17h07.43.082421 +0530,
31,0,32,o,1.2713765000080457,None,32,0,31,346.94274980000046,,,,,,,,,,,,,,,,,,,,,,,,,,,,,,,,,,,,,,,,,,,,,,,,,,346.9278764000046,346.94274980000046,347.44553579999774,347.4270191999967,347.4412114000006,347.44553579999774,347.44553579999774,347.44553579999774,348.7275546000019,Scenes\165a.jpg,pre,o,1.2713765000080457,None,,,,,,,,00044,001,2026-01-17_17h07.24.402,MST_test,2024.2.0,59.82872233196665,2026-01-17 17h07.43.082421 +0530,
32,0,33,o,1.9675144999928307,None,33,0,32,348.7425801999925,,,,,,,,,,,,,,,,,,,,,,,,,,,,,,,,,,,,,,,,,,,,,,,,,,348.72787839999364,348.7425801999925,349.2448083999916,349.2270722999965,349.24167069999385,349.2448083999916,349.2448083999916,349.2448083999916,351.2290765999933,Scenes\128b.jpg,post,o,1.9675144999928307,None,,,,,,,,00044,001,2026-01-17_17h07.24.402,MST_test,2024.2.0,59.82872233196665,2026-01-17 17h07.43.082421 +0530,
33,0,34,o,1.894167300008121,None,34,0,33,351.2425560999982,,,,,,,,,,,,,,,,,,,,,,,,,,,,,,,,,,,,,,,,,,,,,,,,,,351.2294430000038,351.2425560999982,351.74317000000156,351.727140899995,351.7336071000027,351.74317000000156,351.74317000000156,351.74317000000156,353.64442840000265,Objects\035a.jpg,mid,o,1.894167300008121,None,,,,,,,,00044,001,2026-01-17_17h07.24.402,MST_test,2024.2.0,59.82872233196665,2026-01-17 17h07.43.082421 +0530,
34,0,35,o,1.1099334000027739,None,35,0,34,353.65925539999444,,,,,,,,,,,,,,,,,,,,,,,,,,,,,,,,,,,,,,,,,,,,,,,,,,353.6448614999972,353.65925539999444,354.1591688000044,354.14382430000114,354.1515639999998,354.1591688000044,354.1591688000044,354.1591688000044,355.27781489999325,Objects\077a.jpg,post,o,1.1099334000027739,None,,,,,,,,00044,001,2026-01-17_17h07.24.402,MST_test,2024.2.0,59.82872233196665,2026-01-17 17h07.43.082421 +0530,
35,0,36,o,1.3793095000000903,None,36,0,35,355.2924481999944,,,,,,,,,,,,,,,,,,,,,,,,,,,,,,,,,,,,,,,,,,,,,,,,,,355.27823699999135,355.2924481999944,355.7942677999963,355.7772224999935,355.7910333000036,355.7942677999963,355.7942677999963,355.7942677999963,357.17817279999144,Scenes\026b.jpg,post,o,1.3793095000000903,None,,,,,,,,00044,001,2026-01-17_17h07.24.402,MST_test,2024.2.0,59.82872233196665,2026-01-17 17h07.43.082421 +0530,
36,0,37,o,1.2265632999915397,None,37,0,36,357.19257919999654,,,,,,,,,,,,,,,,,,,,,,,,,,,,,,,,,,,,,,,,,,,,,,,,,,357.1784236999956,357.19257919999654,357.76312750000216,357.67717039999843,357.7596512000018,357.76312750000216,357.76312750000216,357.76312750000216,358.99457890000485,Scenes\102b.jpg,pre,o,1.2265632999915397,None,,,,,,,,00044,001,2026-01-17_17h07.24.402,MST_test,2024.2.0,59.82872233196665,2026-01-17 17h07.43.082421 +0530,
37,0,38,o,0.5554049000056693,None,38,0,37,359.0090777000005,,,,,,,,,,,,,,,,,,,,,,,,,,,,,,,,,,,,,,,,,,,,,,,,,,358.9949743000034,359.0090777000005,359.53699730000517,359.49370839999756,359.533689200005,359.53699730000517,359.53699730000517,359.53699730000517,360.0948067999998,Objects\135b.jpg,mid,o,0.5554049000056693,None,,,,,,,,00044,001,2026-01-17_17h07.24.402,MST_test,2024.2.0,59.82872233196665,2026-01-17 17h07.43.082421 +0530,
38,0,39,o,2.7789305999904172,None,39,0,38,360.1090685999952,,,,,,,,,,,,,,,,,,,,,,,,,,,,,,,,,,,,,,,,,,,,,,,,,,360.09505720000016,360.1090685999952,360.60943209999823,360.59380259999307,360.59909750000224,360.60943209999823,360.60943209999823,360.60943209999823,363.39474429999245,Objects\005a.jpg,mid,o,2.7789305999904172,None,,,,,,,,00044,001,2026-01-17_17h07.24.402,MST_test,2024.2.0,59.82872233196665,2026-01-17 17h07.43.082421 +0530,
39,0,40,s,3.5382633000117494,None,40,0,39,363.4091511000006,,,,,,,,,,,,,,,,,,,,,,,,,,,,,,,,,,,,,,,,,,,,,,,,,,363.3950215999939,363.4091511000006,363.95429159999185,363.89357849999215,363.94965989999764,363.95429159999185,363.95429159999185,363.95429159999185,367.4951624999958,Scenes\179b.jpg,post,s,3.5382633000117494,None,,,,,,,,00044,001,2026-01-17_17h07.24.402,MST_test,2024.2.0,59.82872233196665,2026-01-17 17h07.43.082421 +0530,
40,0,41,o,1.0319450999959372,None,41,0,40,367.5093230999919,,,,,,,,,,,,,,,,,,,,,,,,,,,,,,,,,,,,,,,,,,,,,,,,,,367.4953849000012,367.5093230999919,368.0130619999982,367.99385159999656,368.0099609000026,368.0130619999982,368.0130619999982,368.0130619999982,369.0617196999956,Scenes\119a.jpg,mid,o,1.0319450999959372,None,,,,,,,,00044,001,2026-01-17_17h07.24.402,MST_test,2024.2.0,59.82872233196665,2026-01-17 17h07.43.082421 +0530,
41,0,42,s,3.0273955000011483,None,42,0,41,369.07578840000497,,,,,,,,,,,,,,,,,,,,,,,,,,,,,,,,,,,,,,,,,,,,,,,,,,369.0620301000017,369.07578840000497,369.5772166999959,369.5605471000017,369.5702178999927,369.5772166999959,369.5772166999959,369.5772166999959,372.6113106999983,Foils\074a.jpg,none,s,3.0273955000011483,None,,,,,,,,00044,001,2026-01-17_17h07.24.402,MST_test,2024.2.0,59.82872233196665,2026-01-17 17h07.43.082421 +0530,
42,0,43,o,1.095149799992214,None,43,0,42,372.6257833999989,,,,,,,,,,,,,,,,,,,,,,,,,,,,,,,,,,,,,,,,,,,,,,,,,,372.611631199994,372.6257833999989,373.13328219999676,373.11023409999325,373.1301409000007,373.13328219999676,373.13328219999676,373.13328219999676,374.2443970000022,Scenes\072a.jpg,mid,o,1.095149799992214,None,,,,,,,,00044,001,2026-01-17_17h07.24.402,MST_test,2024.2.0,59.82872233196665,2026-01-17 17h07.43.082421 +0530,
43,0,44,o,1.1410403000045335,None,44,0,43,374.2593205000012,,,,,,,,,,,,,,,,,,,,,,,,,,,,,,,,,,,,,,,,,,,,,,,,,,374.2447894999932,374.2593205000012,374.7927626000019,374.7436794999958,374.78986829999485,374.7927626000019,374.7927626000019,374.7927626000019,375.94507069999236,Objects\170b.jpg,mid,o,1.1410403000045335,None,,,,,,,,00044,001,2026-01-17_17h07.24.402,MST_test,2024.2.0,59.82872233196665,2026-01-17 17h07.43.082421 +0530,
44,0,45,s,5.97762910000165,None,45,0,44,375.9591195999965,,,,,,,,,,,,,,,,,,,,,,,,,,,,,,,,,,,,,,,,,,,,,,,,,,375.9455109999981,375.9591195999965,376.45939960000396,376.44382299999415,376.4493521999975,376.45939960000396,376.45939960000396,376.45939960000396,382.44467309999163,Foils\049a.jpg,none,s,5.97762910000165,None,,,,,,,,00044,001,2026-01-17_17h07.24.402,MST_test,2024.2.0,59.82872233196665,2026-01-17 17h07.43.082421 +0530,
45,0,46,o,3.821207000000868,None,46,0,45,382.45921790000284,,,,,,,,,,,,,,,,,,,,,,,,,,,,,,,,,,,,,,,,,,,,,,,,,,382.44501480000326,382.45921790000284,382.96021809999365,382.94390980000026,382.9485108999943,382.96021809999365,382.96021809999365,382.96021809999365,386.794445099993,Foils\scenes7.jpg,none,o,3.821207000000868,None,,,,,,,,00044,001,2026-01-17_17h07.24.402,MST_test,2024.2.0,59.82872233196665,2026-01-17 17h07.43.082421 +0530,
46,0,47,s,1.4143732999946224,None,47,0,46,386.8092440000037,,,,,,,,,,,,,,,,,,,,,,,,,,,,,,,,,,,,,,,,,,,,,,,,,,386.79489540000213,386.8092440000037,387.31058330000087,387.2939902999933,387.3008756999916,387.31058330000087,387.31058330000087,387.31058330000087,388.7279517999996,Objects\089b.jpg,pre,s,1.4143732999946224,None,,,,,,,,00044,001,2026-01-17_17h07.24.402,MST_test,2024.2.0,59.82872233196665,2026-01-17 17h07.43.082421 +0530,
47,0,48,o,1.698477099998854,None,48,0,47,388.7426589999959,,,,,,,,,,,,,,,,,,,,,,,,,,,,,,,,,,,,,,,,,,,,,,,,,,388.72821859999385,388.7426589999959,389.2430730000051,389.2268858000025,389.2317108999996,389.2430730000051,389.2430730000051,389.2430730000051,390.9444583000004,Objects\177a.jpg,post,o,1.698477099998854,None,,,,,,,,00044,001,2026-01-17_17h07.24.402,MST_test,2024.2.0,59.82872233196665,2026-01-17 17h07.43.082421 +0530,
48,0,49,s,3.3411410999979125,None,49,0,48,390.9592160000029,,,,,,,,,,,,,,,,,,,,,,,,,,,,,,,,,,,,,,,,,,,,,,,,,,390.9447783999931,390.9592160000029,391.4795701999974,391.443500399997,391.47701390000293,391.4795701999974,391.4795701999974,391.4795701999974,394.8285262999998,Foils\017a.jpg,none,s,3.3411410999979125,None,,,,,,,,00044,001,2026-01-17_17h07.24.402,MST_test,2024.2.0,59.82872233196665,2026-01-17 17h07.43.082421 +0530,
49,0,50,s,2.85566009998729,None,50,0,49,394.84242139999697,,,,,,,,,,,,,,,,,,,,,,,,,,,,,,,,,,,,,,,,,,,,,,,,,,394.82884699999704,394.84242139999697,395.42181719999644,395.3269889999938,395.41851339999994,395.42181719999644,395.42181719999644,395.42181719999644,398.2944237000047,Scenes\182b.jpg,pre,s,2.85566009998729,None,,,,,,,,00044,001,2026-01-17_17h07.24.402,MST_test,2024.2.0,59.82872233196665,2026-01-17 17h07.43.082421 +0530,
50,0,51,n,4.533147599999211,None,51,0,50,398.3092414999992,,,,,,,,,,,,,,,,,,,,,,,,,,,,,,,,,,,,,,,,,,,,,,,,,,398.29477629999747,398.3092414999992,398.8154085999995,398.7935257999925,398.8124988000054,398.8154085999995,398.8154085999995,398.8154085999995,403.3616891999991,Scenes\130a.jpg,post,n,4.533147599999211,None,,,,,,,,00044,001,2026-01-17_17h07.24.402,MST_test,2024.2.0,59.82872233196665,2026-01-17 17h07.43.082421 +0530,
51,0,52,o,1.240863500002888,None,52,0,51,403.3759091999964,,,,,,,,,,,,,,,,,,,,,,,,,,,,,,,,,,,,,,,,,,,,,,,,,,403.3619710000057,403.3759091999964,403.87654470000416,403.8601920999936,403.8681699000008,403.87654470000416,403.87654470000416,403.87654470000416,405.12782490000245,Objects\129a.jpg,post,o,1.240863500002888,None,,,,,,,,00044,001,2026-01-17_17h07.24.402,MST_test,2024.2.0,59.82872233196665,2026-01-17 17h07.43.082421 +0530,
52,0,53,n,2.601235199996154,None,53,0,52,405.1430549999932,,,,,,,,,,,,,,,,,,,,,,,,,,,,,,,,,,,,,,,,,,,,,,,,,,405.12808049999876,405.1430549999932,405.6430471000058,405.6269673999923,405.6339541999914,405.6430471000058,405.6430471000058,405.6430471000058,408.26127079999424,Foils\scenes18.jpg,none,n,2.601235199996154,None,,,,,,,,00044,001,2026-01-17_17h07.24.402,MST_test,2024.2.0,59.82872233196665,2026-01-17 17h07.43.082421 +0530,
53,0,54,o,1.149034699992626,None,54,0,53,408.2758613000042,,,,,,,,,,,,,,,,,,,,,,,,,,,,,,,,,,,,,,,,,,,,,,,,,,408.2616044000024,408.2758613000042,408.776136600005,408.7610410000052,408.7691246000031,408.776136600005,408.776136600005,408.776136600005,409.9279483999999,Objects\078a.jpg,pre,o,1.149034699992626,None,,,,,,,,00044,001,2026-01-17_17h07.24.402,MST_test,2024.2.0,59.82872233196665,2026-01-17 17h07.43.082421 +0530,
54,0,55,o,1.1785517999960575,None,55,0,54,409.942595799992,,,,,,,,,,,,,,,,,,,,,,,,,,,,,,,,,,,,,,,,,,,,,,,,,,409.9282119999989,409.942595799992,410.4429795000033,410.4269387999957,410.43519239999296,410.4429795000033,410.4429795000033,410.4429795000033,411.6281525999948,Objects\040b.jpg,pre,o,1.1785517999960575,None,,,,,,,,00044,001,2026-01-17_17h07.24.402,MST_test,2024.2.0,59.82872233196665,2026-01-17 17h07.43.082421 +0530,
55,0,56,n,1.9828203000070062,None,56,0,55,411.6426298000006,,,,,,,,,,,,,,,,,,,,,,,,,,,,,,,,,,,,,,,,,,,,,,,,,,411.62837219999346,411.6426298000006,412.14290079999773,412.1268221999926,412.1387085000024,412.14290079999773,412.14290079999773,412.14290079999773,414.12867740000365,Scenes\077b.jpg,post,n,1.9828203000070062,None,,,,,,,,00044,001,2026-01-17_17h07.24.402,MST_test,2024.2.0,59.82872233196665,2026-01-17 17h07.43.082421 +0530,
56,0,57,o,1.2459844999975758,None,57,0,56,414.1424122000026,,,,,,,,,,,,,,,,,,,,,,,,,,,,,,,,,,,,,,,,,,,,,,,,,,414.1289684999938,414.1424122000026,414.6464604999928,414.6275550999999,414.6428933999996,414.6464604999928,414.6464604999928,414.6464604999928,415.89485850000347,Scenes\001a.jpg,post,o,1.2459844999975758,None,,,,,,,,00044,001,2026-01-17_17h07.24.402,MST_test,2024.2.0,59.82872233196665,2026-01-17 17h07.43.082421 +0530,
57,0,58,o,4.933884600002784,None,58,0,57,415.909176000001,,,,,,,,,,,,,,,,,,,,,,,,,,,,,,,,,,,,,,,,,,,,,,,,,,415.8951410000009,415.909176000001,416.4394074000011,416.3935782000044,416.43603719999373,416.4394074000011,416.4394074000011,416.4394074000011,421.37831800000276,Objects\119b.jpg,mid,o,4.933884600002784,None,,,,,,,,00044,001,2026-01-17_17h07.24.402,MST_test,2024.2.0,59.82872233196665,2026-01-17 17h07.43.082421 +0530,
58,0,59,s,3.4247738999983994,None,59,0,58,421.39233299999614,,,,,,,,,,,,,,,,,,,,,,,,,,,,,,,,,,,,,,,,,,,,,,,,,,421.3786250999983,421.39233299999614,421.9163272000005,421.8771231999999,421.9134931000008,421.9163272000005,421.9163272000005,421.9163272000005,425.34398779999174,Objects\168b.jpg,post,s,3.4247738999983994,None,,,,,,,,00044,001,2026-01-17_17h07.24.402,MST_test,2024.2.0,59.82872233196665,2026-01-17 17h07.43.082421 +0530,
59,0,60,o,2.4160800999961793,None,60,0,59,425.36015100000077,,,,,,,,,,,,,,,,,,,,,,,,,,,,,,,,,,,,,,,,,,,,,,,,,,425.344205699992,425.36015100000077,,425.85974830000487,425.8661349000031,425.8765965000057,425.8765965000057,425.8765965000057,428.2955750999972,Objects\009a.jpg,mid,o,2.4160800999961793,None,,,,,,,,00044,001,2026-01-17_17h07.24.402,MST_test,2024.2.0,59.82872233196665,2026-01-17 17h07.43.082421 +0530,
60,0,61,o,10.498358899989398,None,61,0,60,428.3092294999951,,,,,,,,,,,,,,,,,,,,,,,,,,,,,,,,,,,,,,,,,,,,,,,,,,428.29589919999125,428.3092294999951,428.8582824000041,428.7934788999992,428.8548271000036,428.8582824000041,428.8582824000041,428.8582824000041,439.36148839999805,Scenes\127b.jpg,post,o,10.498358899989398,None,,,,,,,,00044,001,2026-01-17_17h07.24.402,MST_test,2024.2.0,59.82872233196665,2026-01-17 17h07.43.082421 +0530,
61,0,62,o,0.9395460999949137,None,62,0,61,439.3765274000034,,,,,,,,,,,,,,,,,,,,,,,,,,,,,,,,,,,,,,,,,,,,,,,,,,439.36178360000486,439.3765274000034,439.8819042999967,439.8604023999942,439.87859310000204,439.8819042999967,439.8819042999967,439.8819042999967,440.8280858999933,Scenes\034a.jpg,mid,o,0.9395460999949137,None,,,,,,,,00044,001,2026-01-17_17h07.24.402,MST_test,2024.2.0,59.82872233196665,2026-01-17 17h07.43.082421 +0530,
62,0,63,s,4.377615599994897,None,63,0,62,440.8424348999979,,,,,,,,,,,,,,,,,,,,,,,,,,,,,,,,,,,,,,,,,,,,,,,,,,440.82833960000426,440.8424348999979,441.4119059999939,441.3273909999989,441.40731629999937,441.4119059999939,441.4119059999939,441.4119059999939,445.79448329999286,Foils\scenes25.jpg,none,s,4.377615599994897,None,,,,,,,,00044,001,2026-01-17_17h07.24.402,MST_test,2024.2.0,59.82872233196665,2026-01-17 17h07.43.082421 +0530,
63,0,64,n,4.6449807999888435,None,64,0,63,445.809794300003,,,,,,,,,,,,,,,,,,,,,,,,,,,,,,,,,,,,,,,,,,,,,,,,,,445.79475519999687,445.809794300003,446.3119269000017,446.29376069999125,446.3043911999994,446.3119269000017,446.3119269000017,446.3119269000017,450.9612311999954,Foils\081a.jpg,none,n,4.6449807999888435,None,,,,,,,,00044,001,2026-01-17_17h07.24.402,MST_test,2024.2.0,59.82872233196665,2026-01-17 17h07.43.082421 +0530,
64,0,65,n,2.9600880999932997,None,65,0,64,450.9759345000057,,,,,,,,,,,,,,,,,,,,,,,,,,,,,,,,,,,,,,,,,,,,,,,,,,450.9616434999916,450.9759345000057,451.4764126999944,451.46044260000053,451.46950910000305,451.4764126999944,451.4764126999944,451.4764126999944,454.44415100000333,Foils\018a.jpg,none,n,2.9600880999932997,None,,,,,,,,00044,001,2026-01-17_17h07.24.402,MST_test,2024.2.0,59.82872233196665,2026-01-17 17h07.43.082421 +0530,
65,0,66,o,1.3728624999930616,None,66,0,65,454.4590911999985,,,,,,,,,,,,,,,,,,,,,,,,,,,,,,,,,,,,,,,,,,,,,,,,,,454.4444893000036,454.4590911999985,454.96036569999706,454.94370220000565,454.9576137999975,454.96036569999706,454.96036569999706,454.96036569999706,456.3447137000039,Scenes\028b.jpg,pre,o,1.3728624999930616,None,,,,,,,,00044,001,2026-01-17_17h07.24.402,MST_test,2024.2.0,59.82872233196665,2026-01-17 17h07.43.082421 +0530,
66,0,67,o,1.1923223000048893,None,67,0,66,456.3594626999984,,,,,,,,,,,,,,,,,,,,,,,,,,,,,,,,,,,,,,,,,,,,,,,,,,456.3450173000019,456.3594626999984,456.8605826999992,456.8430580999993,456.8497239999997,456.8605826999992,456.8605826999992,456.8605826999992,458.0613627999992,Objects\184a.jpg,mid,o,1.1923223000048893,None,,,,,,,,00044,001,2026-01-17_17h07.24.402,MST_test,2024.2.0,59.82872233196665,2026-01-17 17h07.43.082421 +0530,
67,0,68,o,0.9730513999966206,None,68,0,67,458.075966599994,,,,,,,,,,,,,,,,,,,,,,,,,,,,,,,,,,,,,,,,,,,,,,,,,,458.0617702000018,458.075966599994,458.6161088999943,458.5601916000014,458.61309569999867,458.6161088999943,458.6161088999943,458.6161088999943,459.5944473999989,Objects\144b.jpg,post,o,0.9730513999966206,None,,,,,,,,00044,001,2026-01-17_17h07.24.402,MST_test,2024.2.0,59.82872233196665,2026-01-17 17h07.43.082421 +0530,
68,0,69,n,5.819043800001964,None,69,0,68,459.6092028999992,,,,,,,,,,,,,,,,,,,,,,,,,,,,,,,,,,,,,,,,,,,,,,,,,,459.5947404000035,459.6092028999992,460.13857270000153,460.0939992000058,460.13557030000084,460.13857270000153,460.13857270000153,460.13857270000153,465.96238179999636,Foils\057a.jpg,none,n,5.819043800001964,None,,,,,,,,00044,001,2026-01-17_17h07.24.402,MST_test,2024.2.0,59.82872233196665,2026-01-17 17h07.43.082421 +0530,
69,0,70,s,4.441257099999348,None,70,0,69,465.9758406000037,,,,,,,,,,,,,,,,,,,,,,,,,,,,,,,,,,,,,,,,,,,,,,,,,,465.9626367000019,465.9758406000037,466.4763144000026,466.4612619999971,466.46883869999147,466.4763144000026,466.4763144000026,466.4763144000026,470.92781969999487,Foils\scenes2.jpg,none,s,4.441257099999348,None,,,,,,,,00044,001,2026-01-17_17h07.24.402,MST_test,2024.2.0,59.82872233196665,2026-01-17 17h07.43.082421 +0530,
70,0,71,o,1.5005615999980364,None,71,0,70,470.9423459999962,,,,,,,,,,,,,,,,,,,,,,,,,,,,,,,,,,,,,,,,,,,,,,,,,,470.92817240000295,470.9423459999962,471.46364780000295,471.4269770999963,471.46099150000373,471.46364780000295,471.46364780000295,471.46364780000295,472.97769620000327,Objects\057b.jpg,post,o,1.5005615999980364,None,,,,,,,,00044,001,2026-01-17_17h07.24.402,MST_test,2024.2.0,59.82872233196665,2026-01-17 17h07.43.082421 +0530,
71,0,72,s,7.722328300005756,None,72,0,71,472.9924442000047,,,,,,,,,,,,,,,,,,,,,,,,,,,,,,,,,,,,,,,,,,,,,,,,,,472.9779602000053,472.9924442000047,473.4979820000008,473.4771910999989,473.4951796999958,473.4979820000008,473.4979820000008,473.4979820000008,481.2283494000003,Scenes\150b.jpg,post,s,7.722328300005756,None,,,,,,,,00044,001,2026-01-17_17h07.24.402,MST_test,2024.2.0,59.82872233196665,2026-01-17 17h07.43.082421 +0530,
72,0,73,o,1.4433608999970602,None,73,0,72,481.2423986999929,,,,,,,,,,,,,,,,,,,,,,,,,,,,,,,,,,,,,,,,,,,,,,,,,,481.22856239999237,481.2423986999929,481.74578119999205,481.7267632000003,481.74262190000445,481.74578119999205,481.74578119999205,481.74578119999205,483.1943479000038,Scenes\192a.jpg,mid,o,1.4433608999970602,None,,,,,,,,00044,001,2026-01-17_17h07.24.402,MST_test,2024.2.0,59.82872233196665,2026-01-17 17h07.43.082421 +0530,
73,0,74,o,0.846742900001118,None,74,0,73,483.20916739999666,,,,,,,,,,,,,,,,,,,,,,,,,,,,,,,,,,,,,,,,,,,,,,,,,,483.1947889000003,483.20916739999666,483.71044480000273,483.69389870000305,483.70612289999553,483.71044480000273,483.71044480000273,483.71044480000273,484.56140679999953,Scenes\162a.jpg,post,o,0.846742900001118,None,,,,,,,,00044,001,2026-01-17_17h07.24.402,MST_test,2024.2.0,59.82872233196665,2026-01-17 17h07.43.082421 +0530,
74,0,75,o,0.6841968999942765,None,75,0,74,484.5758929000003,,,,,,,,,,,,,,,,,,,,,,,,,,,,,,,,,,,,,,,,,,,,,,,,,,484.56190210000204,484.5758929000003,485.08145119999244,485.06095189999905,485.07805909999297,485.08145119999244,485.08145119999244,485.08145119999244,485.7784143000026,Scenes\041a.jpg,pre,o,0.6841968999942765,None,,,,,,,,00044,001,2026-01-17_17h07.24.402,MST_test,2024.2.0,59.82872233196665,2026-01-17 17h07.43.082421 +0530,
75,0,76,o,1.3672874000039883,None,76,0,75,485.7925266999955,,,,,,,,,,,,,,,,,,,,,,,,,,,,,,,,,,,,,,,,,,,,,,,,,,485.7788050999952,485.7925266999955,486.2930505999975,486.2775674000004,486.2865610000008,486.2930505999975,486.2930505999975,486.2930505999975,487.6775459999917,Objects\137a.jpg,mid,o,1.3672874000039883,None,,,,,,,,00044,001,2026-01-17_17h07.24.402,MST_test,2024.2.0,59.82872233196665,2026-01-17 17h07.43.082421 +0530,
76,0,77,o,1.115775099999155,None,77,0,76,487.69250399999146,,,,,,,,,,,,,,,,,,,,,,,,,,,,,,,,,,,,,,,,,,,,,,,,,,487.67791299999226,487.69250399999146,488.19269909999275,488.1773680000042,488.183635399997,488.19269909999275,488.19269909999275,488.19269909999275,489.31216249999125,Objects\180a.jpg,post,o,1.115775099999155,None,,,,,,,,00044,001,2026-01-17_17h07.24.402,MST_test,2024.2.0,59.82872233196665,2026-01-17 17h07.43.082421 +0530,
77,0,78,o,1.626876700000139,None,78,0,77,489.3258676999976,,,,,,,,,,,,,,,,,,,,,,,,,,,,,,,,,,,,,,,,,,,,,,,,,,489.3125049999944,489.3258676999976,489.82644509999955,489.8104595000041,489.819133099998,489.82644509999955,489.82644509999955,489.82644509999955,491.46146350000345,Scenes\163a.jpg,mid,o,1.626876700000139,None,,,,,,,,00044,001,2026-01-17_17h07.24.402,MST_test,2024.2.0,59.82872233196665,2026-01-17 17h07.43.082421 +0530,
78,0,79,s,3.1440163999941433,None,79,0,78,491.47649659999297,,,,,,,,,,,,,,,,,,,,,,,,,,,,,,,,,,,,,,,,,,,,,,,,,,491.4617825000023,491.47649659999297,492.0058902000019,491.9607595999987,492.00222719999147,492.0058902000019,492.0058902000019,492.0058902000019,495.16071470000315,Objects\185b.jpg,mid,s,3.1440163999941433,None,,,,,,,,00044,001,2026-01-17_17h07.24.402,MST_test,2024.2.0,59.82872233196665,2026-01-17 17h07.43.082421 +0530,
79,0,80,o,1.1489227999991272,None,80,0,79,495.1761719999922,,,,,,,,,,,,,,,,,,,,,,,,,,,,,,,,,,,,,,,,,,,,,,,,,,495.1611458999978,495.1761719999922,495.6796112000011,495.6607814000017,495.6763803999929,495.6796112000011,495.6796112000011,495.6796112000011,496.84354839999287,Scenes\049a.jpg,post,o,1.1489227999991272,None,,,,,,,,00044,001,2026-01-17_17h07.24.402,MST_test,2024.2.0,59.82872233196665,2026-01-17 17h07.43.082421 +0530,
80,0,81,s,3.539633100008359,None,81,0,80,496.8592878000054,,,,,,,,,,,,,,,,,,,,,,,,,,,,,,,,,,,,,,,,,,,,,,,,,,496.84367940000084,496.8592878000054,497.3618221999932,497.343723900005,497.35796140000457,497.3618221999932,497.3618221999932,497.3618221999932,500.911408400003,Scenes\027b.jpg,mid,s,3.539633100008359,None,,,,,,,,00044,001,2026-01-17_17h07.24.402,MST_test,2024.2.0,59.82872233196665,2026-01-17 17h07.43.082421 +0530,
81,0,82,o,1.7849619000044186,None,82,0,81,500.92581309999514,,,,,,,,,,,,,,,,,,,,,,,,,,,,,,,,,,,,,,,,,,,,,,,,,,500.91172899999947,500.92581309999514,501.4685713999934,501.41031579999253,501.4653674000001,501.4685713999934,501.4685713999934,501.4685713999934,503.26126400000066,Scenes\186b.jpg,mid,o,1.7849619000044186,None,,,,,,,,00044,001,2026-01-17_17h07.24.402,MST_test,2024.2.0,59.82872233196665,2026-01-17 17h07.43.082421 +0530,
82,0,83,n,1.7411788000026718,None,83,0,82,503.27600129999337,,,,,,,,,,,,,,,,,,,,,,,,,,,,,,,,,,,,,,,,,,,,,,,,,,503.2617164999974,503.27600129999337,503.776446200005,503.760443399995,503.7660390999954,503.776446200005,503.776446200005,503.776446200005,505.5275168999942,Objects\132a.jpg,post,n,1.7411788000026718,None,,,,,,,,00044,001,2026-01-17_17h07.24.402,MST_test,2024.2.0,59.82872233196665,2026-01-17 17h07.43.082421 +0530,
83,0,84,o,1.4100990000006277,None,84,0,83,505.5425532999943,,,,,,,,,,,,,,,,,,,,,,,,,,,,,,,,,,,,,,,,,,,,,,,,,,505.52771769999526,505.5425532999943,506.0430885999958,506.0271247000055,506.03299429999606,506.0430885999958,506.0430885999958,506.0430885999958,507.4608392999944,Objects\068a.jpg,pre,o,1.4100990000006277,None,,,,,,,,00044,001,2026-01-17_17h07.24.402,MST_test,2024.2.0,59.82872233196665,2026-01-17 17h07.43.082421 +0530,
84,0,85,o,0.9725039999902947,None,85,0,84,507.47626939999464,,,,,,,,,,,,,,,,,,,,,,,,,,,,,,,,,,,,,,,,,,,,,,,,,,507.46117490000324,507.47626939999464,507.97635119999177,507.9604149999941,507.96675479999976,507.97635119999177,507.97635119999177,507.97635119999177,508.9615763000038,Objects\034a.jpg,pre,o,0.9725039999902947,None,,,,,,,,00044,001,2026-01-17_17h07.24.402,MST_test,2024.2.0,59.82872233196665,2026-01-17 17h07.43.082421 +0530,
85,0,86,s,1.86061809999228,None,86,0,85,508.9758385000023,,,,,,,,,,,,,,,,,,,,,,,,,,,,,,,,,,,,,,,,,,,,,,,,,,508.96196839999175,508.9758385000023,509.5122338999936,509.46034659999714,509.5090549000015,509.5122338999936,509.5122338999936,509.5122338999936,511.37830009999743,Scenes\152b.jpg,mid,s,1.86061809999228,None,,,,,,,,00044,001,2026-01-17_17h07.24.402,MST_test,2024.2.0,59.82872233196665,2026-01-17 17h07.43.082421 +0530,
86,0,87,n,3.184790300001623,None,87,0,86,511.3927936999971,,,,,,,,,,,,,,,,,,,,,,,,,,,,,,,,,,,,,,,,,,,,,,,,,,511.3786090999929,511.3927936999971,511.94843079999555,511.87673730000097,511.94554659999267,511.94843079999555,511.94843079999555,511.94843079999555,515.144676099997,Scenes\092b.jpg,mid,n,3.184790300001623,None,,,,,,,,00044,001,2026-01-17_17h07.24.402,MST_test,2024.2.0,59.82872233196665,2026-01-17 17h07.43.082421 +0530,
87,0,88,s,2.2892155000008643,None,88,0,87,515.1595996999968,,,,,,,,,,,,,,,,,,,,,,,,,,,,,,,,,,,,,,,,,,,,,,,,,,515.1451035999926,515.1595996999968,515.6599029999925,515.6435480999935,515.6526554000011,515.6599029999925,515.6599029999925,515.6599029999925,517.9610899999971,Foils\020b.jpg,none,s,2.2892155000008643,None,,,,,,,,00044,001,2026-01-17_17h07.24.402,MST_test,2024.2.0,59.82872233196665,2026-01-17 17h07.43.082421 +0530,
88,0,89,s,1.7053045999928145,None,89,0,88,517.9762011999992,,,,,,,,,,,,,,,,,,,,,,,,,,,,,,,,,,,,,,,,,,,,,,,,,,517.9613854000054,517.9762011999992,518.476224900005,518.4603324999916,518.4660469999944,518.476224900005,518.476224900005,518.476224900005,520.1949930999981,Objects\085b.jpg,post,s,1.7053045999928145,None,,,,,,,,00044,001,2026-01-17_17h07.24.402,MST_test,2024.2.0,59.82872233196665,2026-01-17 17h07.43.082421 +0530,
89,0,90,o,1.7105379999993602,None,90,0,89,520.209108199997,,,,,,,,,,,,,,,,,,,,,,,,,,,,,,,,,,,,,,,,,,,,,,,,,,520.1953997999954,520.209108199997,520.709706099995,520.6942305999983,520.7004047999944,520.709706099995,520.709706099995,520.709706099995,522.4273108999914,Objects\004a.jpg,pre,o,1.7105379999993602,None,,,,,,,,00044,001,2026-01-17_17h07.24.402,MST_test,2024.2.0,59.82872233196665,2026-01-17 17h07.43.082421 +0530,
90,0,91,n,1.663296700004139,None,91,0,90,522.4424508999946,,,,,,,,,,,,,,,,,,,,,,,,,,,,,,,,,,,,,,,,,,,,,,,,,,522.427565799997,522.4424508999946,522.9434368999937,522.9271267000004,522.9334416999918,522.9434368999937,522.9434368999937,522.9434368999937,524.6117118999973,Foils\009a.jpg,none,n,1.663296700004139,None,,,,,,,,00044,001,2026-01-17_17h07.24.402,MST_test,2024.2.0,59.82872233196665,2026-01-17 17h07.43.082421 +0530,
91,0,92,s,1.5346064000041224,None,92,0,91,524.6261410000006,,,,,,,,,,,,,,,,,,,,,,,,,,,,,,,,,,,,,,,,,,,,,,,,,,524.6120051000034,524.6261410000006,525.126093999992,525.1107890999992,525.1183990999998,525.126093999992,525.126093999992,525.126093999992,526.6774764000002,Objects\138b.jpg,pre,s,1.5346064000041224,None,,,,,,,,00044,001,2026-01-17_17h07.24.402,MST_test,2024.2.0,59.82872233196665,2026-01-17 17h07.43.082421 +0530,
92,0,93,o,1.8277161000005435,None,93,0,92,526.6939755000058,,,,,,,,,,,,,,,,,,,,,,,,,,,,,,,,,,,,,,,,,,,,,,,,,,526.6777191000001,526.6939755000058,,527.1927586999955,527.2014707999915,527.2098455999949,527.2098455999949,527.2098455999949,529.0445908999973,Objects\143a.jpg,pre,o,1.8277161000005435,None,,,,,,,,00044,001,2026-01-17_17h07.24.402,MST_test,2024.2.0,59.82872233196665,2026-01-17 17h07.43.082421 +0530,
93,0,94,o,1.4408037999965018,None,94,0,93,529.0591540000023,,,,,,,,,,,,,,,,,,,,,,,,,,,,,,,,,,,,,,,,,,,,,,,,,,529.0449999999983,529.0591540000023,529.5638036000018,529.5437347999978,529.5606254000013,529.5638036000018,529.5638036000018,529.5638036000018,531.0111720999994,Scenes\167a.jpg,mid,o,1.4408037999965018,None,,,,,,,,00044,001,2026-01-17_17h07.24.402,MST_test,2024.2.0,59.82872233196665,2026-01-17 17h07.43.082421 +0530,
94,0,95,s,1.5370080000138842,None,95,0,94,531.0258283000003,,,,,,,,,,,,,,,,,,,,,,,,,,,,,,,,,,,,,,,,,,,,,,,,,,531.0114156000054,531.0258283000003,531.5552674999926,531.5103110999917,531.5515883000044,531.5552674999926,531.5552674999926,531.5552674999926,533.0951545999997,Scenes\166b.jpg,mid,s,1.5370080000138842,None,,,,,,,,00044,001,2026-01-17_17h07.24.402,MST_test,2024.2.0,59.82872233196665,2026-01-17 17h07.43.082421 +0530,
95,0,96,o,1.0868117999925744,None,96,0,95,533.1090399999957,,,,,,,,,,,,,,,,,,,,,,,,,,,,,,,,,,,,,,,,,,,,,,,,,,533.0955276000022,533.1090399999957,533.6136455999949,533.5936313999991,533.6106075999996,533.6136455999949,533.6136455999949,533.6136455999949,534.7111951999977,Scenes\105a.jpg,post,o,1.0868117999925744,None,,,,,,,,00044,001,2026-01-17_17h07.24.402,MST_test,2024.2.0,59.82872233196665,2026-01-17 17h07.43.082421 +0530,
96,0,97,o,1.0590752999996766,None,97,0,96,534.7258803000004,,,,,,,,,,,,,,,,,,,,,,,,,,,,,,,,,,,,,,,,,,,,,,,,,,534.7115013000002,534.7258803000004,535.233687999993,535.2101951999939,535.2294315000036,535.233687999993,535.233687999993,535.233687999993,536.2950527999928,Scenes\082a.jpg,mid,o,1.0590752999996766,None,,,,,,,,00044,001,2026-01-17_17h07.24.402,MST_test,2024.2.0,59.82872233196665,2026-01-17 17h07.43.082421 +0530,
97,0,98,o,1.66762550000567,None,98,0,97,536.3094495999976,,,,,,,,,,,,,,,,,,,,,,,,,,,,,,,,,,,,,,,,,,,,,,,,,,536.2954625999992,536.3094495999976,536.8096622000012,536.7936932000011,536.8034691999928,536.8096622000012,536.8096622000012,536.8096622000012,538.4944232999987,Objects\190b.jpg,mid,o,1.66762550000567,None,,,,,,,,00044,001,2026-01-17_17h07.24.402,MST_test,2024.2.0,59.82872233196665,2026-01-17 17h07.43.082421 +0530,
98,0,99,s,4.9747886000113795,None,99,0,98,538.5094947000034,,,,,,,,,,,,,,,,,,,,,,,,,,,,,,,,,,,,,,,,,,,,,,,,,,538.4948230000009,538.5094947000034,539.0467154999933,538.9939034999989,539.0442358,539.0467154999933,539.0467154999933,539.0467154999933,544.027789300002,Objects\106b.jpg,post,s,4.9747886000113795,None,,,,,,,,00044,001,2026-01-17_17h07.24.402,MST_test,2024.2.0,59.82872233196665,2026-01-17 17h07.43.082421 +0530,
99,0,100,n,2.4949051000003237,None,100,0,99,544.0423687000002,,,,,,,,,,,,,,,,,,,,,,,,,,,,,,,,,,,,,,,,,,,,,,,,,,544.0281053999934,544.0423687000002,544.5427320000017,544.5269355999917,544.5347973000025,544.5427320000017,544.5427320000017,544.5427320000017,547.0455927000003,Foils\113a.jpg,none,n,2.4949051000003237,None,,,,,,,,00044,001,2026-01-17_17h07.24.402,MST_test,2024.2.0,59.82872233196665,2026-01-17 17h07.43.082421 +0530,
100,0,101,n,1.4046361000073375,None,101,0,100,547.0592850999965,,,,,,,,,,,,,,,,,,,,,,,,,,,,,,,,,,,,,,,,,,,,,,,,,,547.0459699999919,547.0592850999965,547.5596531000047,547.5437361999939,547.5494331999944,547.5596531000047,547.5596531000047,547.5596531000047,548.9776487999916,Foils\scenes30.jpg,none,n,1.4046361000073375,None,,,,,,,,00044,001,2026-01-17_17h07.24.402,MST_test,2024.2.0,59.82872233196665,2026-01-17 17h07.43.082421 +0530,
101,0,102,o,1.3840903999953298,None,102,0,101,548.9925763999927,,,,,,,,,,,,,,,,,,,,,,,,,,,,,,,,,,,,,,,,,,,,,,,,,,548.9779254000023,548.9925763999927,549.4928790999984,549.4767720999953,549.4851400000043,549.4928790999984,549.4928790999984,549.4928790999984,550.8787581999932,Objects\162a.jpg,pre,o,1.3840903999953298,None,,,,,,,,00044,001,2026-01-17_17h07.24.402,MST_test,2024.2.0,59.82872233196665,2026-01-17 17h07.43.082421 +0530,
102,0,103,o,1.3605055000080029,None,103,0,102,550.8935694999964,,,,,,,,,,,,,,,,,,,,,,,,,,,,,,,,,,,,,,,,,,,,,,,,,,550.8790320999979,550.8935694999964,551.3965011999971,551.3770379999914,551.3933371000021,551.3965011999971,551.3965011999971,551.3965011999971,552.7616086000053,Scenes\046a.jpg,pre,o,1.3605055000080029,None,,,,,,,,00044,001,2026-01-17_17h07.24.402,MST_test,2024.2.0,59.82872233196665,2026-01-17 17h07.43.082421 +0530,
103,0,104,s,1.7365846000029705,None,104,0,103,552.7758978000056,,,,,,,,,,,,,,,,,,,,,,,,,,,,,,,,,,,,,,,,,,,,,,,,,,552.7620192000031,552.7758978000056,553.2766641999915,553.2603031000035,553.2692379999935,553.2766641999915,553.2766641999915,553.2766641999915,555.0284371000016,Scenes\191b.jpg,post,s,1.7365846000029705,None,,,,,,,,00044,001,2026-01-17_17h07.24.402,MST_test,2024.2.0,59.82872233196665,2026-01-17 17h07.43.082421 +0530,
104,0,105,o,1.2058361999952467,None,105,0,104,555.0425094999955,,,,,,,,,,,,,,,,,,,,,,,,,,,,,,,,,,,,,,,,,,,,,,,,,,555.0287989999924,555.0425094999955,555.5434528000042,555.5270694999926,555.5353557999915,555.5434528000042,555.5434528000042,555.5434528000042,556.7610974999989,Objects\161a.jpg,mid,o,1.2058361999952467,None,,,,,,,,00044,001,2026-01-17_17h07.24.402,MST_test,2024.2.0,59.82872233196665,2026-01-17 17h07.43.082421 +0530,
105,0,106,o,0.9479168999969261,None,106,0,105,556.7757970999955,,,,,,,,,,,,,,,,,,,,,,,,,,,,,,,,,,,,,,,,,,,,,,,,,,556.7614566999982,556.7757970999955,557.3048998000013,557.2601551999978,557.302177199992,557.3048998000013,557.3048998000013,557.3048998000013,558.2611060000054,Objects\022b.jpg,post,o,0.9479168999969261,None,,,,,,,,00044,001,2026-01-17_17h07.24.402,MST_test,2024.2.0,59.82872233196665,2026-01-17 17h07.43.082421 +0530,
106,0,107,s,9.276514500001213,None,107,0,106,558.2757812999916,,,,,,,,,,,,,,,,,,,,,,,,,,,,,,,,,,,,,,,,,,,,,,,,,,558.2614708000037,558.2757812999916,558.8004069000017,558.7603075999941,558.7976095000049,558.8004069000017,558.8004069000017,558.8004069000017,568.0946611999971,Objects\116b.jpg,mid,s,9.276514500001213,None,,,,,,,,00044,001,2026-01-17_17h07.24.402,MST_test,2024.2.0,59.82872233196665,2026-01-17 17h07.43.082421 +0530,
107,0,108,s,1.2985710999928415,None,108,0,107,568.1090861999983,,,,,,,,,,,,,,,,,,,,,,,,,,,,,,,,,,,,,,,,,,,,,,,,,,568.0950039000018,568.1090861999983,568.6509551999916,568.5937660000054,568.6480719999963,568.6509551999916,568.6509551999916,568.6509551999916,569.9612371999974,Scenes\053b.jpg,pre,s,1.2985710999928415,None,,,,,,,,00044,001,2026-01-17_17h07.24.402,MST_test,2024.2.0,59.82872233196665,2026-01-17 17h07.43.082421 +0530,
108,0,109,o,1.3224087999988114,None,109,0,108,569.9761093999987,,,,,,,,,,,,,,,,,,,,,,,,,,,,,,,,,,,,,,,,,,,,,,,,,,569.961510299996,569.9761093999987,570.5222543999989,570.4603205000021,570.5188649000047,570.5222543999989,570.5222543999989,570.5222543999989,571.8610099999933,Objects\073b.jpg,pre,o,1.3224087999988114,None,,,,,,,,00044,001,2026-01-17_17h07.24.402,MST_test,2024.2.0,59.82872233196665,2026-01-17 17h07.43.082421 +0530,
109,0,110,o,1.1269209000020055,None,110,0,109,571.8763757999986,,,,,,,,,,,,,,,,,,,,,,,,,,,,,,,,,,,,,,,,,,,,,,,,,,571.8613220999978,571.8763757999986,572.3820067000051,572.3608536999964,572.3789887000021,572.3820067000051,572.3820067000051,572.3820067000051,573.5113154999999,Scenes\040a.jpg,pre,o,1.1269209000020055,None,,,,,,,,00044,001,2026-01-17_17h07.24.402,MST_test,2024.2.0,59.82872233196665,2026-01-17 17h07.43.082421 +0530,
110,0,111,o,1.0547236999991583,None,111,0,110,573.5258467999956,,,,,,,,,,,,,,,,,,,,,,,,,,,,,,,,,,,,,,,,,,,,,,,,,,573.5115557999961,573.5258467999956,574.0541097999958,574.0104082000034,574.0510865999968,574.0541097999958,574.0541097999958,574.0541097999958,575.1113601999969,Objects\136b.jpg,pre,o,1.0547236999991583,None,,,,,,,,00044,001,2026-01-17_17h07.24.402,MST_test,2024.2.0,59.82872233196665,2026-01-17 17h07.43.082421 +0530,
111,0,112,s,1.9413784999924246,None,112,0,111,575.1262134999997,,,,,,,,,,,,,,,,,,,,,,,,,,,,,,,,,,,,,,,,,,,,,,,,,,575.1116356999992,575.1262134999997,575.6314372000052,575.6103867999918,575.6280071999936,575.6314372000052,575.6314372000052,575.6314372000052,577.5782311999938,Scenes\029a.jpg,post,s,1.9413784999924246,None,,,,,,,,00044,001,2026-01-17_17h07.24.402,MST_test,2024.2.0,59.82872233196665,2026-01-17 17h07.43.082421 +0530,
112,0,113,s,5.359549000000698,None,113,0,112,577.5927957999957,,,,,,,,,,,,,,,,,,,,,,,,,,,,,,,,,,,,,,,,,,,,,,,,,,577.5785242999991,577.5927957999957,578.0928930999944,578.0769389999914,578.0830790000036,578.0928930999944,578.0928930999944,578.0928930999944,583.4617952999979,Objects\030a.jpg,pre,s,5.359549000000698,None,,,,,,,,00044,001,2026-01-17_17h07.24.402,MST_test,2024.2.0,59.82872233196665,2026-01-17 17h07.43.082421 +0530,
113,0,114,s,2.084382999993977,None,114,0,113,583.4758073999983,,,,,,,,,,,,,,,,,,,,,,,,,,,,,,,,,,,,,,,,,,,,,,,,,,583.4620828000043,583.4758073999983,583.9762338,583.960802200003,583.9696081000002,583.9762338,583.9762338,583.9762338,586.0777190999943,Objects\189b.jpg,pre,s,2.084382999993977,None,,,,,,,,00044,001,2026-01-17_17h07.24.402,MST_test,2024.2.0,59.82872233196665,2026-01-17 17h07.43.082421 +0530,
114,0,115,o,1.31535669999721,None,115,0,114,586.0924076999945,,,,,,,,,,,,,,,,,,,,,,,,,,,,,,,,,,,,,,,,,,,,,,,,,,586.0780207999924,586.0924076999945,586.6489111999981,586.5777773000009,586.6463059999951,586.6489111999981,586.6489111999981,586.6489111999981,587.9776868000044,Scenes\006b.jpg,post,o,1.31535669999721,None,,,,,,,,00044,001,2026-01-17_17h07.24.402,MST_test,2024.2.0,59.82872233196665,2026-01-17 17h07.43.082421 +0530,
115,0,116,s,1.7254126999905566,None,116,0,115,587.9925549000036,,,,,,,,,,,,,,,,,,,,,,,,,,,,,,,,,,,,,,,,,,,,,,,,,,587.9779249999992,587.9925549000036,588.5278939999989,588.4777259999973,588.5236943999917,588.5278939999989,588.5278939999989,588.5278939999989,590.2613353000052,Foils\scenes12.jpg,none,s,1.7254126999905566,None,,,,,,,,00044,001,2026-01-17_17h07.24.402,MST_test,2024.2.0,59.82872233196665,2026-01-17 17h07.43.082421 +0530,
116,0,117,s,1.586583199998131,None,117,0,116,590.2759241000022,,,,,,,,,,,,,,,,,,,,,,,,,,,,,,,,,,,,,,,,,,,,,,,,,,590.2615756000014,590.2759241000022,590.8260451999959,590.7604702999961,590.8231328999973,590.8260451999959,590.8260451999959,590.8260451999959,592.4283798999968,Scenes\156b.jpg,pre,s,1.586583199998131,None,,,,,,,,00044,001,2026-01-17_17h07.24.402,MST_test,2024.2.0,59.82872233196665,2026-01-17 17h07.43.082421 +0530,
117,0,118,s,2.0885987999936333,None,118,0,117,592.4424039000005,,,,,,,,,,,,,,,,,,,,,,,,,,,,,,,,,,,,,,,,,,,,,,,,,,592.4286279999942,592.4424039000005,592.9886584000051,592.9268169999996,592.9854058000055,592.9886584000051,592.9886584000051,592.9886584000051,595.0792509000021,Scenes\038b.jpg,mid,s,2.0885987999936333,None,,,,,,,,00044,001,2026-01-17_17h07.24.402,MST_test,2024.2.0,59.82872233196665,2026-01-17 17h07.43.082421 +0530,
118,0,119,o,5.3410274000052596,None,119,0,118,595.0924380999932,,,,,,,,,,,,,,,,,,,,,,,,,,,,,,,,,,,,,,,,,,,,,,,,,,595.0795898999932,595.0924380999932,595.6872145999951,595.5771281000052,595.6833676999959,595.6872145999951,595.6872145999951,595.6872145999951,601.0446832000016,Scenes\019b.jpg,pre,o,5.3410274000052596,None,,,,,,,,00044,001,2026-01-17_17h07.24.402,MST_test,2024.2.0,59.82872233196665,2026-01-17 17h07.43.082421 +0530,
119,0,120,o,1.2065165999956662,None,120,0,119,601.0592689000041,,,,,,,,,,,,,,,,,,,,,,,,,,,,,,,,,,,,,,,,,,,,,,,,,,601.0449756000016,601.0592689000041,601.5669182999991,601.5437459999957,601.5640524000046,601.5669182999991,601.5669182999991,601.5669182999991,602.7777913000027,Scenes\063a.jpg,pre,o,1.2065165999956662,None,,,,,,,,00044,001,2026-01-17_17h07.24.402,MST_test,2024.2.0,59.82872233196665,2026-01-17 17h07.43.082421 +0530,
120,0,121,o,0.9768024999939371,None,121,0,120,602.7929543999926,,,,,,,,,,,,,,,,,,,,,,,,,,,,,,,,,,,,,,,,,,,,,,,,,,602.7780503999966,602.7929543999926,603.2929384000017,603.276743800001,603.2887936000043,603.2929384000017,603.2929384000017,603.2929384000017,604.2783103999973,Scenes\185a.jpg,pre,o,0.9768024999939371,None,,,,,,,,00044,001,2026-01-17_17h07.24.402,MST_test,2024.2.0,59.82872233196665,2026-01-17 17h07.43.082421 +0530,
121,0,122,o,1.0674640000070212,None,122,0,121,604.292509699997,,,,,,,,,,,,,,,,,,,,,,,,,,,,,,,,,,,,,,,,,,,,,,,,,,604.2785975000006,604.292509699997,604.7932110999973,604.7769699000055,604.783537700001,604.7932110999973,604.7932110999973,604.7932110999973,605.8780704999954,Objects\133b.jpg,pre,o,1.0674640000070212,None,,,,,,,,00044,001,2026-01-17_17h07.24.402,MST_test,2024.2.0,59.82872233196665,2026-01-17 17h07.43.082421 +0530,
122,0,123,n,2.891674900005455,None,123,0,122,605.8928823000024,,,,,,,,,,,,,,,,,,,,,,,,,,,,,,,,,,,,,,,,,,,,,,,,,,605.8783236000017,605.8928823000024,606.3930172999972,606.3768831000052,606.3825435000035,606.3930172999972,606.3930172999972,606.3930172999972,609.2950363999989,Foils\scenes14.jpg,none,n,2.891674900005455,None,,,,,,,,00044,001,2026-01-17_17h07.24.402,MST_test,2024.2.0,59.82872233196665,2026-01-17 17h07.43.082421 +0530,
123,0,124,o,3.31471700000111,None,124,0,123,609.3092751999939,,,,,,,,,,,,,,,,,,,,,,,,,,,,,,,,,,,,,,,,,,,,,,,,,,609.2953957999998,609.3092751999939,609.867064799997,609.7940879999951,609.863947299993,609.867064799997,609.867064799997,609.867064799997,613.1950759000028,Scenes\020b.jpg,pre,o,3.31471700000111,None,,,,,,,,00044,001,2026-01-17_17h07.24.402,MST_test,2024.2.0,59.82872233196665,2026-01-17 17h07.43.082421 +0530,
124,0,125,s,3.0872927000018535,None,125,0,124,613.2098056999967,,,,,,,,,,,,,,,,,,,,,,,,,,,,,,,,,,,,,,,,,,,,,,,,,,613.1954122000025,613.2098056999967,613.7099796999973,613.6936361999979,613.7052400999964,613.7099796999973,613.7099796999973,613.7099796999973,616.8109666999953,Scenes\147a.jpg,mid,s,3.0872927000018535,None,,,,,,,,00044,001,2026-01-17_17h07.24.402,MST_test,2024.2.0,59.82872233196665,2026-01-17 17h07.43.082421 +0530,
125,0,126,o,1.174738100002287,None,126,0,125,616.8262202000042,,,,,,,,,,,,,,,,,,,,,,,,,,,,,,,,,,,,,,,,,,,,,,,,,,616.8113588999986,616.8262202000042,617.3264165,617.3103203999926,617.3210969999927,617.3264165,617.3264165,617.3264165,618.5111035000009,Scenes\141a.jpg,pre,o,1.174738100002287,None,,,,,,,,00044,001,2026-01-17_17h07.24.402,MST_test,2024.2.0,59.82872233196665,2026-01-17 17h07.43.082421 +0530,
126,0,127,n,2.6446236000047065,None,127,0,126,618.5266628999962,,,,,,,,,,,,,,,,,,,,,,,,,,,,,,,,,,,,,,,,,,,,,,,,,,618.511436899993,618.5266628999962,619.0726511999965,619.0103746999957,619.0696310000058,619.0726511999965,619.0726511999965,619.0726511999965,621.7273975999997,Foils\098a.jpg,none,n,2.6446236000047065,None,,,,,,,,00044,001,2026-01-17_17h07.24.402,MST_test,2024.2.0,59.82872233196665,2026-01-17 17h07.43.082421 +0530,
127,0,128,o,1.1621519999898737,None,128,0,127,621.7425061999966,,,,,,,,,,,,,,,,,,,,,,,,,,,,,,,,,,,,,,,,,,,,,,,,,,621.7277895000007,621.7425061999966,622.2434174999944,622.2269742999924,622.2402590999991,622.2434174999944,622.2434174999944,622.2434174999944,623.4114984000043,Scenes\101b.jpg,mid,o,1.1621519999898737,None,,,,,,,,00044,001,2026-01-17_17h07.24.402,MST_test,2024.2.0,59.82872233196665,2026-01-17 17h07.43.082421 +0530,
128,0,129,o,2.8456136000022525,None,129,0,128,623.4259036000003,,,,,,,,,,,,,,,,,,,,,,,,,,,,,,,,,,,,,,,,,,,,,,,,,,623.4117795000057,623.4259036000003,623.9845071000018,623.9106862000044,623.9808009999979,623.9845071000018,623.9845071000018,623.9845071000018,626.8441992000007,Scenes\145b.jpg,mid,o,2.8456136000022525,None,,,,,,,,00044,001,2026-01-17_17h07.24.402,MST_test,2024.2.0,59.82872233196665,2026-01-17 17h07.43.082421 +0530,
129,0,130,o,0.982229000001098,None,130,0,129,626.8591770000057,,,,,,,,,,,,,,,,,,,,,,,,,,,,,,,,,,,,,,,,,,,,,,,,,,626.8444931999984,626.8591770000057,627.3592499999941,627.343767600003,627.3552259999997,627.3592499999941,627.3592499999941,627.3592499999941,628.3448959999951,Scenes\052a.jpg,pre,o,0.982229000001098,None,,,,,,,,00044,001,2026-01-17_17h07.24.402,MST_test,2024.2.0,59.82872233196665,2026-01-17 17h07.43.082421 +0530,
130,0,131,o,1.208129699996789,None,131,0,130,628.359194699995,,,,,,,,,,,,,,,,,,,,,,,,,,,,,,,,,,,,,,,,,,,,,,,,,,628.3451461999939,628.359194699995,628.9330104999972,628.8433245000051,628.9283735999925,628.9330104999972,628.9330104999972,628.9330104999972,630.1447842999914,Scenes\004b.jpg,mid,o,1.208129699996789,None,,,,,,,,00044,001,2026-01-17_17h07.24.402,MST_test,2024.2.0,59.82872233196665,2026-01-17 17h07.43.082421 +0530,
131,0,132,o,0.8965260999975726,None,132,0,131,630.1590225999971,,,,,,,,,,,,,,,,,,,,,,,,,,,,,,,,,,,,,,,,,,,,,,,,,,630.1451306999952,630.1590225999971,630.6597025999945,630.6437176000036,630.6501424000016,630.6597025999945,630.6597025999945,630.6597025999945,631.561143999992,Objects\120b.jpg,pre,o,0.8965260999975726,None,,,,,,,,00044,001,2026-01-17_17h07.24.402,MST_test,2024.2.0,59.82872233196665,2026-01-17 17h07.43.082421 +0530,
132,0,133,s,1.4978763999970397,None,133,0,132,631.575994400002,,,,,,,,,,,,,,,,,,,,,,,,,,,,,,,,,,,,,,,,,,,,,,,,,,631.5615624999919,631.575994400002,632.0761131000036,632.0603093999962,632.0664983000024,632.0761131000036,632.0761131000036,632.0761131000036,633.5783439999941,Foils\042a.jpg,none,s,1.4978763999970397,None,,,,,,,,00044,001,2026-01-17_17h07.24.402,MST_test,2024.2.0,59.82872233196665,2026-01-17 17h07.43.082421 +0530,
133,0,134,o,1.9978284999961033,None,134,0,133,633.5925334000058,,,,,,,,,,,,,,,,,,,,,,,,,,,,,,,,,,,,,,,,,,,,,,,,,,633.578645799993,633.5925334000058,634.0946833000053,634.0775909999938,634.0917062999943,634.0946833000053,634.0946833000053,634.0946833000053,636.0953416999982,Scenes\134b.jpg,post,o,1.9978284999961033,None,,,,,,,,00044,001,2026-01-17_17h07.24.402,MST_test,2024.2.0,59.82872233196665,2026-01-17 17h07.43.082421 +0530,
134,0,135,o,2.935605899998336,None,135,0,134,636.1091775999957,,,,,,,,,,,,,,,,,,,,,,,,,,,,,,,,,,,,,,,,,,,,,,,,,,636.0957077999919,636.1091775999957,636.6450230000046,636.5942532000045,636.6019169999927,636.6450230000046,636.6450230000046,636.6450230000046,639.5945853000012,Objects\160a.jpg,pre,o,2.935605899998336,None,,,,,,,,00044,001,2026-01-17_17h07.24.402,MST_test,2024.2.0,59.82872233196665,2026-01-17 17h07.43.082421 +0530,
135,0,136,s,1.8957686999929138,None,136,0,135,639.6092897999915,,,,,,,,,,,,,,,,,,,,,,,,,,,,,,,,,,,,,,,,,,,,,,,,,,639.5949566000054,639.6092897999915,640.1096341999946,640.0940757999924,640.1017214000021,640.1096341999946,640.1096341999946,640.1096341999946,642.0113694000029,Foils\086a.jpg,none,s,1.8957686999929138,None,,,,,,,,00044,001,2026-01-17_17h07.24.402,MST_test,2024.2.0,59.82872233196665,2026-01-17 17h07.43.082421 +0530,
136,0,137,o,1.2063785000063945,None,137,0,136,642.0258910999983,,,,,,,,,,,,,,,,,,,,,,,,,,,,,,,,,,,,,,,,,,,,,,,,,,642.0116127999936,642.0258910999983,642.526028399996,642.510255000001,642.5172425999917,642.526028399996,642.526028399996,642.526028399996,643.7447320999927,Objects\051a.jpg,post,o,1.2063785000063945,None,,,,,,,,00044,001,2026-01-17_17h07.24.402,MST_test,2024.2.0,59.82872233196665,2026-01-17 17h07.43.082421 +0530,
137,0,138,s,3.233476099994732,None,138,0,137,643.7595331000048,,,,,,,,,,,,,,,,,,,,,,,,,,,,,,,,,,,,,,,,,,,,,,,,,,643.7451281999965,643.7595331000048,644.2599057000043,644.2437742000038,644.2522787000053,644.2599057000043,644.2599057000043,644.2599057000043,647.4960248999996,Objects\026a.jpg,post,s,3.233476099994732,None,,,,,,,,00044,001,2026-01-17_17h07.24.402,MST_test,2024.2.0,59.82872233196665,2026-01-17 17h07.43.082421 +0530,
138,0,139,n,1.9629303000110667,None,139,0,138,647.5093074000033,,,,,,,,,,,,,,,,,,,,,,,,,,,,,,,,,,,,,,,,,,,,,,,,,,647.496345099993,647.5093074000033,648.0095760999975,647.9934872000013,647.9987298000051,648.0095760999975,648.0095760999975,648.0095760999975,649.9781728999951,Foils\058a.jpg,none,n,1.9629303000110667,None,,,,,,,,00044,001,2026-01-17_17h07.24.402,MST_test,2024.2.0,59.82872233196665,2026-01-17 17h07.43.082421 +0530,
139,0,140,n,1.376232800001162,None,140,0,139,649.9928071000031,,,,,,,,,,,,,,,,,,,,,,,,,,,,,,,,,,,,,,,,,,,,,,,,,,649.978532299996,649.9928071000031,650.4932960000006,650.4772514999931,650.4829249000031,650.4932960000006,650.4932960000006,650.4932960000006,651.8775397999998,Foils\073a.jpg,none,n,1.376232800001162,None,,,,,,,,00044,001,2026-01-17_17h07.24.402,MST_test,2024.2.0,59.82872233196665,2026-01-17 17h07.43.082421 +0530,
140,0,141,n,1.1554140000080224,None,141,0,140,651.8927285999962,,,,,,,,,,,,,,,,,,,,,,,,,,,,,,,,,,,,,,,,,,,,,,,,,,651.8777635000006,651.8927285999962,652.3928624999971,652.3772669000027,652.3840448999981,652.3928624999971,652.3928624999971,652.3928624999971,653.5613080000039,Foils\105a.jpg,none,n,1.1554140000080224,None,,,,,,,,00044,001,2026-01-17_17h07.24.402,MST_test,2024.2.0,59.82872233196665,2026-01-17 17h07.43.082421 +0530,
141,0,142,o,1.0895536000025459,None,142,0,141,653.5757952999993,,,,,,,,,,,,,,,,,,,,,,,,,,,,,,,,,,,,,,,,,,,,,,,,,,653.5616849999933,653.5757952999993,654.138809600001,654.0602636999974,654.1357966999931,654.138809600001,654.138809600001,654.138809600001,655.2446841999918,Scenes\013b.jpg,pre,o,1.0895536000025459,None,,,,,,,,00044,001,2026-01-17_17h07.24.402,MST_test,2024.2.0,59.82872233196665,2026-01-17 17h07.43.082421 +0530,
142,0,143,o,1.9796921999950428,None,143,0,142,655.259587499997,,,,,,,,,,,,,,,,,,,,,,,,,,,,,,,,,,,,,,,,,,,,,,,,,,655.2449841000052,655.259587499997,655.7607187999965,655.7442714999925,655.7503284999984,655.7607187999965,655.7607187999965,655.7607187999965,657.7445084999927,Objects\071a.jpg,post,o,1.9796921999950428,None,,,,,,,,00044,001,2026-01-17_17h07.24.402,MST_test,2024.2.0,59.82872233196665,2026-01-17 17h07.43.082421 +0530,
143,0,144,o,1.1887819999974454,None,144,0,143,657.7594575999974,,,,,,,,,,,,,,,,,,,,,,,,,,,,,,,,,,,,,,,,,,,,,,,,,,657.7448432999954,657.7594575999974,658.280886099994,658.2437668999919,658.2783225000021,658.280886099994,658.280886099994,658.280886099994,659.4779602999915,Objects\042b.jpg,mid,o,1.1887819999974454,None,,,,,,,,00044,001,2026-01-17_17h07.24.402,MST_test,2024.2.0,59.82872233196665,2026-01-17 17h07.43.082421 +0530,
144,0,145,o,0.6821690000069793,None,145,0,144,659.4927014999994,,,,,,,,,,,,,,,,,,,,,,,,,,,,,,,,,,,,,,,,,,,,,,,,,,659.4784083999984,659.4927014999994,659.9950542000006,659.9769628999929,659.9922331999987,659.9950542000006,659.9950542000006,659.9950542000006,660.6946784000029,Scenes\107a.jpg,post,o,0.6821690000069793,None,,,,,,,,00044,001,2026-01-17_17h07.24.402,MST_test,2024.2.0,59.82872233196665,2026-01-17 17h07.43.082421 +0530,
145,0,146,o,0.6427954999962822,None,146,0,145,660.7091654999967,,,,,,,,,,,,,,,,,,,,,,,,,,,,,,,,,,,,,,,,,,,,,,,,,,660.6949792999949,660.7091654999967,661.2098859999969,661.193746799996,661.2036231999955,661.2098859999969,661.2098859999969,661.2098859999969,661.8607498999918,Scenes\039a.jpg,mid,o,0.6427954999962822,None,,,,,,,,00044,001,2026-01-17_17h07.24.402,MST_test,2024.2.0,59.82872233196665,2026-01-17 17h07.43.082421 +0530,
146,0,147,o,0.9281056999898283,None,147,0,146,661.8761060999968,,,,,,,,,,,,,,,,,,,,,,,,,,,,,,,,,,,,,,,,,,,,,,,,,,661.861153299993,661.8761060999968,662.381470399996,662.3608048000024,662.3773060999956,662.381470399996,662.381470399996,662.381470399996,663.3116463000042,Scenes\106a.jpg,pre,o,0.9281056999898283,None,,,,,,,,00044,001,2026-01-17_17h07.24.402,MST_test,2024.2.0,59.82872233196665,2026-01-17 17h07.43.082421 +0530,
147,0,148,s,3.8811195000016596,None,148,0,147,663.3262526000035,,,,,,,,,,,,,,,,,,,,,,,,,,,,,,,,,,,,,,,,,,,,,,,,,,663.3119458000001,663.3262526000035,663.8444337999972,663.8103353000042,663.8414064999961,663.8444337999972,663.8444337999972,663.8444337999972,667.7281892000028,Objects\058b.jpg,mid,s,3.8811195000016596,None,,,,,,,,00044,001,2026-01-17_17h07.24.402,MST_test,2024.2.0,59.82872233196665,2026-01-17 17h07.43.082421 +0530,
148,0,149,s,1.3815107999980683,None,149,0,148,667.7426741999952,,,,,,,,,,,,,,,,,,,,,,,,,,,,,,,,,,,,,,,,,,,,,,,,,,667.7285443000001,667.7426741999952,668.2710420999938,668.2268630000035,668.2683048000035,668.2710420999938,668.2710420999938,668.2710420999938,669.6607880999945,Objects\107b.jpg,mid,s,1.3815107999980683,None,,,,,,,,00044,001,2026-01-17_17h07.24.402,MST_test,2024.2.0,59.82872233196665,2026-01-17 17h07.43.082421 +0530,
149,0,150,o,3.819754099997226,None,150,0,149,669.6758663999935,,,,,,,,,,,,,,,,,,,,,,,,,,,,,,,,,,,,,,,,,,,,,,,,,,669.6611435999948,669.6758663999935,670.1764821999968,670.160080200003,670.1652793999965,670.1764821999968,670.1764821999968,670.1764821999968,674.0114809999941,Objects\114a.jpg,mid,o,3.819754099997226,None,,,,,,,,00044,001,2026-01-17_17h07.24.402,MST_test,2024.2.0,59.82872233196665,2026-01-17 17h07.43.082421 +0530,
,,,,,,,,,,,,,,,,,,,,,,,,,,,,,,,,,,,,,,,,,,,,,,,,,,,,,,,,,,,,,,,,,,,,,,,,,674.0117191000027,674.0262808999978,674.0262808999978,677.8778809999931,space,3.8357741000072565,None,00044,001,2026-01-17_17h07.24.402,MST_test,2024.2.0,59.82872233196665,2026-01-17 17h07.43.082421 +0530,
