Sl_no,image_path,thisN,thisTrialN,thisRepN,key_resp_5.keys,key_resp_7.keys,key_resp_7.rt,key_resp_7.duration,key_resp_5.rt,key_resp_5.duration,key_resp_9.keys,key_resp_8.keys,key_resp_8.rt,key_resp_8.duration,key_resp_9.rt,key_resp_9.duration,practice.thisRepN,practice.thisTrialN,practice.thisN,trials.thisRepN,trials.thisTrialN,trials.thisN,thisRow.t,notes,welcome_page.started,text.started,key_resp.started,welcome_page.stopped,key_resp.keys,key_resp.rt,key_resp.duration,instructions.started,ins.started,key_resp_2.started,instructions.stopped,key_resp_2.keys,key_resp_2.rt,key_resp_2.duration,instructions_2.started,text_10.started,key_resp_10.started,instructions_2.stopped,key_resp_10.keys,key_resp_10.rt,key_resp_10.duration,objects_only_instruction.started,text_3.started,key_resp_3.started,objects_only_instruction.stopped,key_resp_3.keys,key_resp_3.rt,key_resp_3.duration,ISI.started,text_4.started,text_4.stopped,ISI.stopped,practice_block.started,image.started,text_5.started,key_resp_5.started,practice_block.stopped,practice.key_resp_5.keys,indoor_outdoor.started,text_7.started,key_resp_7.started,indoor_outdoor.stopped,practice.key_resp_7.keys,practice.key_resp_7.rt,practice.key_resp_7.duration,image.stopped,text_5.stopped,key_resp_5.stopped,practice.key_resp_5.rt,practice.key_resp_5.duration,practice_to_main.started,text_2.started,key_resp_4.started,practice_to_main.stopped,key_resp_4.keys,key_resp_4.rt,key_resp_4.duration,objects.started,image_2.started,text_9.started,key_resp_9.started,image_2.stopped,text_9.stopped,key_resp_9.stopped,objects.stopped,trials.key_resp_9.keys,encoding_task.started,text_8.started,key_resp_8.started,encoding_task.stopped,trials.key_resp_8.keys,trials.key_resp_8.rt,trials.key_resp_8.duration,trials.key_resp_9.rt,trials.key_resp_9.duration,end_experiment.started,text_6.started,key_resp_6.started,end_experiment.stopped,key_resp_6.keys,key_resp_6.rt,key_resp_6.duration,list_of_stimuli,encoding_task_accuracy,participant,session,date,expName,psychopyVersion,frameRate,expStart,
,,,,,,,,,,,,,,,,,,,,,,,,,0.0012462000013329089,0.0027817999944090843,0.0027817999944090843,54.73117810001713,space,54.72066900000209,None,,,,,,,,,,,,,,,,,,,,,,,,,,,,,,,,,,,,,,,,,,,,,,,,,,,,,,,,,,,,,,,,,,,,,,,,,,,,,,00045,001,2026-01-17_17h37.26.166,MST_task,2024.2.0,60.064713718858755,2026-01-17 17h37.32.903760 +0530,
,,,,,,,,,,,,,,,,,,,,,,,,,,,,,,,,54.73121729999548,54.74606910001603,54.74606910001603,73.11311289999867,space,18.361219799990067,None,,,,,,,,,,,,,,,,,,,,,,,,,,,,,,,,,,,,,,,,,,,,,,,,,,,,,,,,,,,,,,,,,,,,,,,00045,001,2026-01-17_17h37.26.166,MST_task,2024.2.0,60.064713718858755,2026-01-17 17h37.32.903760 +0530,
,,,,,,,,,,,,,,,,,,,,,,,,,,,,,,,,,,,,,,,73.11313850001898,73.12920920000761,73.12920920000761,88.49651510000695,space,15.36199299999862,None,,,,,,,,,,,,,,,,,,,,,,,,,,,,,,,,,,,,,,,,,,,,,,,,,,,,,,,,,,,,,,,,00045,001,2026-01-17_17h37.26.166,MST_task,2024.2.0,60.064713718858755,2026-01-17 17h37.32.903760 +0530,
,,,,,,,,,,,,,,,,,,,,,,,,,,,,,,,,,,,,,,,,,,,,,,88.49654580000788,88.51273360001505,88.51273360001505,108.77973320000456,space,20.250728800019715,None,,,,,,,,,,,,,,,,,,,,,,,,,,,,,,,,,,,,,,,,,,,,,,,,,,,,,,,,,00045,001,2026-01-17_17h37.26.166,MST_task,2024.2.0,60.064713718858755,2026-01-17 17h37.32.903760 +0530,
1,practice_images/013a.jpg,0,0,1,None,j,22.97903529999894,None,,,,,,,,,1,0,0,,,,108.79603290001978,,,,,,,,,,,,,,,,,,,,,,,,,,,,,,108.79376960001537,108.79603290001978,109.30381130002206,109.27951520000352,109.29321250002249,109.30381130002206,109.30381130002206,109.30381130002206,112.29636680000112,None,112.29813050001394,112.31280610000249,112.31280610000249,135.29640140000265,j,22.97903529999894,None,,,,,,,,,,,,,,,,,,,,,,,,,,,,,,,,,,,,,,,,00045,001,2026-01-17_17h37.26.166,MST_task,2024.2.0,60.064713718858755,2026-01-17 17h37.32.903760 +0530,
6,practice_images/158a.jpg,1,1,1,j,None,,,1.7111103999777697,0.07999800000106916,,,,,,,1,1,1,,,,135.31265619999613,,,,,,,,,,,,,,,,,,,,,,,,,,,,,,135.29648930000258,135.31265619999613,135.81285489999573,135.79623470001388,135.80585480001173,135.81285489999573,135.81285489999573,135.81285489999573,138.7965860000113,j,138.79662940002163,,,138.79664340001182,None,,,138.81270480001695,138.81270480001695,138.81270480001695,1.7111103999777697,0.07999800000106916,,,,,,,,,,,,,,,,,,,,,,,,,,,,,,,,,,,00045,001,2026-01-17_17h37.26.166,MST_task,2024.2.0,60.064713718858755,2026-01-17 17h37.32.903760 +0530,
5,practice_images/139a.jpg,2,2,1,f,None,,,2.267391299974406,0.09542430000146851,,,,,,,1,2,2,,,,138.81270480001695,,,,,,,,,,,,,,,,,,,,,,,,,,,,,,138.79670960002113,138.81270480001695,139.3128013999958,139.29618520001532,139.3036781999981,139.3128013999958,139.3128013999958,139.3128013999958,142.29636279999977,f,142.29640059999656,,,142.29641350000747,None,,,142.3126756999991,142.3126756999991,142.3126756999991,2.267391299974406,0.09542430000146851,,,,,,,,,,,,,,,,,,,,,,,,,,,,,,,,,,,00045,001,2026-01-17_17h37.26.166,MST_task,2024.2.0,60.064713718858755,2026-01-17 17h37.32.903760 +0530,
2,practice_images/031a.jpg,3,3,1,f,None,,,2.3270567000145093,0.09607439997489564,,,,,,,1,3,3,,,,142.3126756999991,,,,,,,,,,,,,,,,,,,,,,,,,,,,,,142.29647510001087,142.3126756999991,142.81297960001393,142.7963767000183,142.80474819999654,142.81297960001393,142.81297960001393,142.81297960001393,145.79637330002151,f,145.79641209999681,,,145.79642460000468,None,,,145.8126692000078,145.8126692000078,145.8126692000078,2.3270567000145093,0.09607439997489564,,,,,,,,,,,,,,,,,,,,,,,,,,,,,,,,,,,00045,001,2026-01-17_17h37.26.166,MST_task,2024.2.0,60.064713718858755,2026-01-17 17h37.32.903760 +0530,
3,practice_images/037a.jpg,4,4,1,f,None,,,2.9553204999829177,None,,,,,,,1,4,4,,,,145.8126692000078,,,,,,,,,,,,,,,,,,,,,,,,,,,,,,145.79648650001036,145.8126692000078,146.31285879999632,146.29672559999744,146.30433889999404,146.31285879999632,146.31285879999632,146.31285879999632,149.29644460001145,f,149.2964833000151,,,149.2964952000184,None,,,149.31266240001423,149.31266240001423,149.31266240001423,2.9553204999829177,None,,,,,,,,,,,,,,,,,,,,,,,,,,,,,,,,,,,00045,001,2026-01-17_17h37.26.166,MST_task,2024.2.0,60.064713718858755,2026-01-17 17h37.32.903760 +0530,
4,practice_images/002b.jpg,5,5,1,None,j,20.318793200014625,None,,,,,,,,,1,5,5,,,,149.31266240001423,,,,,,,,,,,,,,,,,,,,,,,,,,,,,,149.29656070002238,149.31266240001423,149.8128180000058,149.79618440000922,149.80818930000532,149.8128180000058,149.8128180000058,149.8128180000058,152.7963498000172,None,152.79895920000854,152.81267509999452,152.81267509999452,173.14666749999742,j,20.318793200014625,None,152.81267509999452,152.81267509999452,152.81267509999452,,,,,,,,,,,,,,,,,,,,,,,,,,,,,,,,,,,,,00045,001,2026-01-17_17h37.26.166,MST_task,2024.2.0,60.064713718858755,2026-01-17 17h37.32.903760 +0530,
9,practice_images/180a.jpg,6,6,1,j,None,,,2.6045274999924004,0.08009210001910105,,,,,,,1,6,6,,,,173.16277500000433,,,,,,,,,,,,,,,,,,,,,,,,,,,,,,173.1467573000118,173.16277500000433,173.6629466000013,173.64638570000534,173.65476689999923,173.6629466000013,173.6629466000013,173.6629466000013,176.64661510000587,j,176.64665690000402,,,176.64667030001874,None,,,176.6627662999963,176.6627662999963,176.6627662999963,2.6045274999924004,0.08009210001910105,,,,,,,,,,,,,,,,,,,,,,,,,,,,,,,,,,,00045,001,2026-01-17_17h37.26.166,MST_task,2024.2.0,60.064713718858755,2026-01-17 17h37.32.903760 +0530,
8,practice_images/178a.jpg,7,7,1,f,None,,,2.2001354999956675,0.12811190000502393,,,,,,,1,7,7,,,,176.6627662999963,,,,,,,,,,,,,,,,,,,,,,,,,,,,,,176.64673450001283,176.6627662999963,177.1630330000189,177.146493200009,177.1542088999995,177.1630330000189,177.1630330000189,177.1630330000189,180.14660740000545,f,180.14664780002204,,,180.14666040000156,None,,,180.16276269999798,180.16276269999798,180.16276269999798,2.2001354999956675,0.12811190000502393,,,,,,,,,,,,,,,,,,,,,,,,,,,,,,,,,,,00045,001,2026-01-17_17h37.26.166,MST_task,2024.2.0,60.064713718858755,2026-01-17 17h37.32.903760 +0530,
7,practice_images/166a.jpg,8,8,1,j,None,,,2.549117499991553,0.1351524000056088,,,,,,,1,8,8,,,,180.16276269999798,,,,,,,,,,,,,,,,,,,,,,,,,,,,,,180.14673279999988,180.16276269999798,180.66292040000553,180.6463612000225,180.65412110000034,180.66292040000553,180.66292040000553,180.66292040000553,183.64650830000755,j,183.64655330000096,,,183.6465669000172,None,,,183.66266750000068,183.66266750000068,183.66266750000068,2.549117499991553,0.1351524000056088,,,,,,,,,,,,,,,,,,,,,,,,,,,,,,,,,,,00045,001,2026-01-17_17h37.26.166,MST_task,2024.2.0,60.064713718858755,2026-01-17 17h37.32.903760 +0530,
10,practice_images/182a.jpg,9,9,1,f,None,,,1.177377100015292,0.1519999000011012,,,,,,,1,9,9,,,,183.66266750000068,,,,,,,,,,,,,,,,,,,,,,,,,,,,,,183.64663450000808,183.66266750000068,184.16296879999572,184.14638310001465,184.15433300001314,184.16296879999572,184.16296879999572,184.16296879999572,187.1467770000163,f,187.14682429999812,,,187.1468390999944,None,,,187.16268070001388,187.16268070001388,187.16268070001388,1.177377100015292,0.1519999000011012,,,,,,,,,,,,,,,,,,,,,,,,,,,,,,,,,,,00045,001,2026-01-17_17h37.26.166,MST_task,2024.2.0,60.064713718858755,2026-01-17 17h37.32.903760 +0530,
,,,,,,,,,,,,,,,,,,,,,,,,,,,,,,,,,,,,,,,,,,,,,,,,,,,,,,,,,,,,,,,,,,,,,,,,,,,187.14688960000058,187.16268070001388,187.16268070001388,210.3131885000039,space,23.13688780000666,None,,,,,,,,,,,,,,,,,,,,,,,,,,,,00045,001,2026-01-17_17h37.26.166,MST_task,2024.2.0,60.064713718858755,2026-01-17 17h37.32.903760 +0530,
,Objects\007a.jpg,0,0,1,,,,,,,None,j,0.5430306000052951,None,,,,,,1,0,0,210.32945350001683,,,,,,,,,,,,,,,,,,,,,,,,,,,,,,210.3139667000214,210.32945350001683,210.83043840000755,210.8129556000058,,,,,,,,,,,,,,,,,,,,,,,,,,210.8269438999996,210.83043840000755,210.83043840000755,210.83043840000755,213.8292965000146,213.8292965000146,213.8292965000146,213.81330820001313,None,213.8168751000194,213.8292965000146,213.8292965000146,214.37970449999557,j,0.5430306000052951,None,,,,,,,,,,,,00045,001,2026-01-17_17h37.26.166,MST_task,2024.2.0,60.064713718858755,2026-01-17 17h37.32.903760 +0530,
,Objects\087a.jpg,1,0,2,,,,,,,f,None,,,2.242882999998983,0.08103260002098978,,,,2,0,1,214.39602480002213,,,,,,,,,,,,,,,,,,,,,,,,,,,,,,214.3797986000136,214.39602480002213,214.89642390000517,214.87970479999785,,,,,,,,,,,,,,,,,,,,,,,,,,214.88237210002262,214.89642390000517,214.89642390000517,214.89642390000517,217.89606960001402,217.89606960001402,217.89606960001402,217.87985900000785,f,217.8799049000081,,,217.87991690001218,None,,,2.242882999998983,0.08103260002098978,,,,,,,,,,00045,001,2026-01-17_17h37.26.166,MST_task,2024.2.0,60.064713718858755,2026-01-17 17h37.32.903760 +0530,
,Objects\140a.jpg,2,0,3,,,,,,,None,j,0.9359708999982104,None,,,,,,3,0,2,217.89606960001402,,,,,,,,,,,,,,,,,,,,,,,,,,,,,,217.88000960001955,217.89606960001402,218.3962831000099,218.37972389999777,,,,,,,,,,,,,,,,,,,,,,,,,,218.38875630000257,218.3962831000099,218.3962831000099,218.3962831000099,221.3960378000047,221.3960378000047,221.3960378000047,221.37973800001782,None,221.37977990001673,221.3960378000047,221.3960378000047,222.346478499996,j,0.9359708999982104,None,,,,,,,,,,,,00045,001,2026-01-17_17h37.26.166,MST_task,2024.2.0,60.064713718858755,2026-01-17 17h37.32.903760 +0530,
,Objects\164a.jpg,3,0,4,,,,,,,f,None,,,1.4292180000047665,0.11990330001572147,,,,4,0,3,222.36268550000386,,,,,,,,,,,,,,,,,,,,,,,,,,,,,,222.34656710000127,222.36268550000386,222.86297159999958,222.8463572000037,,,,,,,,,,,,,,,,,,,,,,,,,,222.85580230000778,222.86297159999958,222.86297159999958,222.86297159999958,225.8626875000191,225.8626875000191,225.8626875000191,225.8466397000011,f,225.8466881000204,,,225.8466995000199,None,,,1.4292180000047665,0.11990330001572147,,,,,,,,,,00045,001,2026-01-17_17h37.26.166,MST_task,2024.2.0,60.064713718858755,2026-01-17 17h37.32.903760 +0530,
,Objects\130a.jpg,4,0,5,,,,,,,j,None,,,2.369307699991623,0.128000400000019,,,,5,0,4,225.8626875000191,,,,,,,,,,,,,,,,,,,,,,,,,,,,,,225.8467970000056,225.8626875000191,226.3629206000187,226.34629350001342,,,,,,,,,,,,,,,,,,,,,,,,,,226.34889490000205,226.3629206000187,226.3629206000187,226.3629206000187,229.362686700013,229.362686700013,229.362686700013,229.34652760002064,j,229.34657100000186,,,229.3465814999945,None,,,2.369307699991623,0.128000400000019,,,,,,,,,,00045,001,2026-01-17_17h37.26.166,MST_task,2024.2.0,60.064713718858755,2026-01-17 17h37.32.903760 +0530,
,Objects\090a.jpg,5,0,6,,,,,,,f,None,,,1.8533416999853216,0.10400839999783784,,,,6,0,5,229.362686700013,,,,,,,,,,,,,,,,,,,,,,,,,,,,,,229.3466462000215,229.362686700013,229.86291920000804,229.84619559999555,,,,,,,,,,,,,,,,,,,,,,,,,,229.85606320001534,229.86291920000804,229.86291920000804,229.86291920000804,232.86269930002163,232.86269930002163,232.86269930002163,232.8465326000005,f,232.84657850000076,,,232.8465897999995,None,,,1.8533416999853216,0.10400839999783784,,,,,,,,,,00045,001,2026-01-17_17h37.26.166,MST_task,2024.2.0,60.064713718858755,2026-01-17 17h37.32.903760 +0530,
,Objects\008a.jpg,6,0,7,,,,,,,f,None,,,1.7293293999973685,0.1359449999872595,,,,7,0,6,232.86269930002163,,,,,,,,,,,,,,,,,,,,,,,,,,,,,,232.84665789999417,232.86269930002163,233.36293679999653,233.34642509999685,,,,,,,,,,,,,,,,,,,,,,,,,,233.3554403000162,233.36293679999653,233.36293679999653,233.36293679999653,236.36273960000835,236.36273960000835,236.36273960000835,236.34677750000264,f,236.34682880001492,,,236.34684010001365,None,,,1.7293293999973685,0.1359449999872595,,,,,,,,,,00045,001,2026-01-17_17h37.26.166,MST_task,2024.2.0,60.064713718858755,2026-01-17 17h37.32.903760 +0530,
,Scenes\010a.jpg,7,0,8,,,,,,,None,j,1.1650231000094209,None,,,,,,8,0,7,236.36273960000835,,,,,,,,,,,,,,,,,,,,,,,,,,,,,,236.34694650000893,236.36273960000835,236.8635131000192,236.84632270000293,,,,,,,,,,,,,,,,,,,,,,,,,,236.85877340001753,236.8635131000192,236.8635131000192,236.8635131000192,239.86267860000953,239.86267860000953,239.86267860000953,239.84652839999762,None,239.84813890000805,239.86267860000953,239.86267860000953,241.03015450001112,j,1.1650231000094209,None,,,,,,,,,,,,00045,001,2026-01-17_17h37.26.166,MST_task,2024.2.0,60.064713718858755,2026-01-17 17h37.32.903760 +0530,
,Scenes\052a.jpg,8,0,9,,,,,,,None,j,0.10605089997989126,None,,,,,,9,0,8,241.04596079999465,,,,,,,,,,,,,,,,,,,,,,,,,,,,,,241.03027370001655,241.04596079999465,241.54633370001102,241.52953240001807,,,,,,,,,,,,,,,,,,,,,,,,,,241.54386840001098,241.54633370001102,241.54633370001102,241.54633370001102,244.54606920000515,244.54606920000515,244.54606920000515,244.53001909999875,None,244.5300635000167,244.54606920000515,244.54606920000515,244.66346579999663,j,0.10605089997989126,None,,,,,,,,,,,,00045,001,2026-01-17_17h37.26.166,MST_task,2024.2.0,60.064713718858755,2026-01-17 17h37.32.903760 +0530,
,Scenes\009a.jpg,9,0,10,,,,,,,f,None,,,2.559043199988082,0.12806880002608523,,,,10,0,9,244.67919650001568,,,,,,,,,,,,,,,,,,,,,,,,,,,,,,244.66355369999656,244.67919650001568,245.1802228000015,245.162954600004,,,,,,,,,,,,,,,,,,,,,,,,,,245.17350880001322,245.1802228000015,245.1802228000015,245.1802228000015,248.17919740002253,248.17919740002253,248.17919740002253,248.16329140000744,f,248.16333720000694,,,248.1633487000072,None,,,2.559043199988082,0.12806880002608523,,,,,,,,,,00045,001,2026-01-17_17h37.26.166,MST_task,2024.2.0,60.064713718858755,2026-01-17 17h37.32.903760 +0530,
,Scenes\173a.jpg,10,0,11,,,,,,,j,None,,,2.499753399984911,0.10431769999559037,,,,11,0,10,248.17919740002253,,,,,,,,,,,,,,,,,,,,,,,,,,,,,,248.1634161999973,248.17919740002253,248.67988840001635,248.66296169999987,,,,,,,,,,,,,,,,,,,,,,,,,,248.67058980002184,248.67988840001635,248.67988840001635,248.67988840001635,251.67925640000612,251.67925640000612,251.67925640000612,251.6633034000115,j,251.66334910001024,,,251.66336070001125,None,,,2.499753399984911,0.10431769999559037,,,,,,,,,,00045,001,2026-01-17_17h37.26.166,MST_task,2024.2.0,60.064713718858755,2026-01-17 17h37.32.903760 +0530,
,Scenes\059a.jpg,11,0,12,,,,,,,None,j,0.5926146999991033,None,,,,,,12,0,11,251.67925640000612,,,,,,,,,,,,,,,,,,,,,,,,,,,,,,251.66343310000957,251.67925640000612,252.18320630001836,252.16289680000045,,,,,,,,,,,,,,,,,,,,,,,,,,252.18095609999727,252.18320630001836,252.18320630001836,252.18320630001836,,,,255.17955950001488,None,255.1795992999978,255.19597349999822,255.19597349999822,255.79642240001704,j,0.5926146999991033,None,,,,,,,,,,,,00045,001,2026-01-17_17h37.26.166,MST_task,2024.2.0,60.064713718858755,2026-01-17 17h37.32.903760 +0530,
,Scenes\172a.jpg,12,0,13,,,,,,,j,None,,,1.5227261999971233,0.11999800000921823,,,,13,0,12,255.81264240000746,,,,,,,,,,,,,,,,,,,,,,,,,,,,,,255.79655280002044,255.81264240000746,256.3133029000019,256.29633589999867,,,,,,,,,,,,,,,,,,,,,,,,,,256.30299660001765,256.3133029000019,256.3133029000019,256.3133029000019,259.31270189999486,259.31270189999486,259.31270189999486,259.2965244000079,j,259.29656750001595,,,259.29657890001545,None,,,1.5227261999971233,0.11999800000921823,,,,,,,,,,00045,001,2026-01-17_17h37.26.166,MST_task,2024.2.0,60.064713718858755,2026-01-17 17h37.32.903760 +0530,
,Scenes\045a.jpg,13,0,14,,,,,,,None,j,0.5352098000003025,None,,,,,,14,0,13,259.31270189999486,,,,,,,,,,,,,,,,,,,,,,,,,,,,,,259.29664330001106,259.31270189999486,259.81325980002293,259.7962824999995,,,,,,,,,,,,,,,,,,,,,,,,,,259.80957520002266,259.81325980002293,259.81325980002293,259.81325980002293,262.812703100004,262.812703100004,262.812703100004,262.7965749000141,None,262.79661330001545,262.812703100004,262.812703100004,263.3631156000192,j,0.5352098000003025,None,,,,,,,,,,,,00045,001,2026-01-17_17h37.26.166,MST_task,2024.2.0,60.064713718858755,2026-01-17 17h37.32.903760 +0530,
,Objects\128a.jpg,14,0,15,,,,,,,f,None,,,1.9479209000128321,0.16065849998267367,,,,15,0,14,263.3792930000054,,,,,,,,,,,,,,,,,,,,,,,,,,,,,,263.36320170000545,263.3792930000054,263.8795693000138,263.8631382000167,,,,,,,,,,,,,,,,,,,,,,,,,,263.8701834999956,263.8795693000138,263.8795693000138,263.8795693000138,266.8792919999978,266.8792919999978,266.8792919999978,266.8632751000114,f,266.86534469999606,,,266.86536340002203,None,,,1.9479209000128321,0.16065849998267367,,,,,,,,,,00045,001,2026-01-17_17h37.26.166,MST_task,2024.2.0,60.064713718858755,2026-01-17 17h37.32.903760 +0530,
,Objects\119a.jpg,15,0,16,,,,,,,f,None,,,1.6156679000123404,0.10477830001036637,,,,16,0,15,266.8792919999978,,,,,,,,,,,,,,,,,,,,,,,,,,,,,,266.86543190001976,266.8792919999978,267.379732100002,267.3632818000042,,,,,,,,,,,,,,,,,,,,,,,,,,267.3661536000145,267.379732100002,267.379732100002,267.379732100002,270.37929710000753,270.37929710000753,270.37929710000753,270.36325550000765,f,270.36330110000563,,,270.3633123000036,None,,,1.6156679000123404,0.10477830001036637,,,,,,,,,,00045,001,2026-01-17_17h37.26.166,MST_task,2024.2.0,60.064713718858755,2026-01-17 17h37.32.903760 +0530,
,Objects\101a.jpg,16,0,17,,,,,,,f,None,,,2.6686919999774545,0.13598459999775514,,,,17,0,16,270.37929710000753,,,,,,,,,,,,,,,,,,,,,,,,,,,,,,270.36340790000395,270.37929710000753,270.8795471000194,270.8629778000177,,,,,,,,,,,,,,,,,,,,,,,,,,270.8658548000094,270.8795471000194,270.8795471000194,270.8795471000194,273.87923109999974,273.87923109999974,273.87923109999974,273.8633654000005,f,273.8634091000131,,,273.8634207000141,None,,,2.6686919999774545,0.13598459999775514,,,,,,,,,,00045,001,2026-01-17_17h37.26.166,MST_task,2024.2.0,60.064713718858755,2026-01-17 17h37.32.903760 +0530,
,Objects\121a.jpg,17,0,18,,,,,,,f,None,,,1.8644048999994993,0.12748530000681058,,,,18,0,17,273.87923109999974,,,,,,,,,,,,,,,,,,,,,,,,,,,,,,273.8634867000219,273.87923109999974,274.37945830001263,274.36303020000923,,,,,,,,,,,,,,,,,,,,,,,,,,274.365919200005,274.37945830001263,274.37945830001263,274.37945830001263,277.37930739999865,277.37930739999865,277.37930739999865,277.36324360000435,f,277.36328839999624,,,277.3632995999942,None,,,1.8644048999994993,0.12748530000681058,,,,,,,,,,00045,001,2026-01-17_17h37.26.166,MST_task,2024.2.0,60.064713718858755,2026-01-17 17h37.32.903760 +0530,
,Objects\126a.jpg,18,0,19,,,,,,,None,f,0.03623810000135563,None,,,,,,19,0,18,277.37930739999865,,,,,,,,,,,,,,,,,,,,,,,,,,,,,,277.3633654000005,277.37930739999865,277.8794415000011,277.8630412000057,,,,,,,,,,,,,,,,,,,,,,,,,,277.87198570001055,277.8794415000011,277.8794415000011,277.8794415000011,280.87948800000595,280.87948800000595,280.87948800000595,280.8633998000005,None,280.8634403000178,280.87948800000595,280.87948800000595,280.92991430000984,f,0.03623810000135563,None,,,,,,,,,,,,00045,001,2026-01-17_17h37.26.166,MST_task,2024.2.0,60.064713718858755,2026-01-17 17h37.32.903760 +0530,
,Objects\029a.jpg,19,0,20,,,,,,,f,None,,,1.4852313000010327,0.08022750000236556,,,,20,0,19,280.9461446000205,,,,,,,,,,,,,,,,,,,,,,,,,,,,,,280.9299972000008,280.9461446000205,281.44641870001215,281.4297348000109,,,,,,,,,,,,,,,,,,,,,,,,,,281.4321919000067,281.44641870001215,281.44641870001215,281.44641870001215,284.44617290000315,284.44617290000315,284.44617290000315,284.42995180000435,f,284.42999780000537,,,284.43000970000867,None,,,1.4852313000010327,0.08022750000236556,,,,,,,,,,00045,001,2026-01-17_17h37.26.166,MST_task,2024.2.0,60.064713718858755,2026-01-17 17h37.32.903760 +0530,
,Objects\122a.jpg,20,0,21,,,,,,,f,None,,,1.6968772000109311,0.13596419998793863,,,,21,0,20,284.44617290000315,,,,,,,,,,,,,,,,,,,,,,,,,,,,,,284.43011190000107,284.44617290000315,284.9464105000079,284.9298177000019,,,,,,,,,,,,,,,,,,,,,,,,,,284.938974699995,284.9464105000079,284.9464105000079,284.9464105000079,287.9461324000149,287.9461324000149,287.9461324000149,287.93002220001654,f,287.93006539999624,,,287.9300761000195,None,,,1.6968772000109311,0.13596419998793863,,,,,,,,,,00045,001,2026-01-17_17h37.26.166,MST_task,2024.2.0,60.064713718858755,2026-01-17 17h37.32.903760 +0530,
,Scenes\037a.jpg,21,0,22,,,,,,,j,None,,,1.52527669997653,0.1199802000191994,,,,22,0,21,287.9461324000149,,,,,,,,,,,,,,,,,,,,,,,,,,,,,,287.93014189999667,287.9461324000149,288.4466561000154,288.4297440999944,,,,,,,,,,,,,,,,,,,,,,,,,,288.44238490000134,288.4466561000154,288.4466561000154,288.4466561000154,291.4462403000216,291.4462403000216,291.4462403000216,291.43014969999786,j,291.43190210001194,,,291.4319211000111,None,,,1.52527669997653,0.1199802000191994,,,,,,,,,,00045,001,2026-01-17_17h37.26.166,MST_task,2024.2.0,60.064713718858755,2026-01-17 17h37.32.903760 +0530,
,Scenes\025a.jpg,22,0,23,,,,,,,j,None,,,1.704727999982424,0.12916410001344047,,,,23,0,22,291.4462403000216,,,,,,,,,,,,,,,,,,,,,,,,,,,,,,291.4320105999941,291.4462403000216,291.94649810000556,291.9297290999966,,,,,,,,,,,,,,,,,,,,,,,,,,291.9413918000064,291.94649810000556,291.94649810000556,291.94649810000556,294.94606010001735,294.94606010001735,294.94606010001735,294.929902200005,j,294.9299576000194,,,294.9299699999974,None,,,1.704727999982424,0.12916410001344047,,,,,,,,,,00045,001,2026-01-17_17h37.26.166,MST_task,2024.2.0,60.064713718858755,2026-01-17 17h37.32.903760 +0530,
,Scenes\177a.jpg,23,0,24,,,,,,,j,None,,,0.9887240999960341,0.13661709998268634,,,,24,0,23,294.94606010001735,,,,,,,,,,,,,,,,,,,,,,,,,,,,,,294.9300390999997,294.94606010001735,295.44672140001785,295.42983560002176,,,,,,,,,,,,,,,,,,,,,,,,,,295.43778110001585,295.44672140001785,295.44672140001785,295.44672140001785,298.44622780001373,298.44622780001373,298.44622780001373,298.43017870001495,j,298.43022660000133,,,298.43023769999854,None,,,0.9887240999960341,0.13661709998268634,,,,,,,,,,00045,001,2026-01-17_17h37.26.166,MST_task,2024.2.0,60.064713718858755,2026-01-17 17h37.32.903760 +0530,
,Scenes\050a.jpg,24,0,25,,,,,,,None,j,0.20104519999586046,None,,,,,,25,0,24,298.44622780001373,,,,,,,,,,,,,,,,,,,,,,,,,,,,,,298.43030680000084,298.44622780001373,298.9465689000208,298.92975100001786,,,,,,,,,,,,,,,,,,,,,,,,,,298.9429671000107,298.9465689000208,298.9465689000208,298.9465689000208,301.94621920000645,301.94621920000645,301.94621920000645,301.9301126000064,None,301.9301600000181,301.94621920000645,301.94621920000645,302.16321270001936,j,0.20104519999586046,None,,,,,,,,,,,,00045,001,2026-01-17_17h37.26.166,MST_task,2024.2.0,60.064713718858755,2026-01-17 17h37.32.903760 +0530,
,Scenes\087a.jpg,25,0,26,,,,,,,j,None,,,1.9879558999964502,0.11195290001342073,,,,26,0,25,302.179375000007,,,,,,,,,,,,,,,,,,,,,,,,,,,,,,302.1633458000142,302.179375000007,302.6801090000081,302.66305070000817,,,,,,,,,,,,,,,,,,,,,,,,,,302.6745099000109,302.6801090000081,302.6801090000081,302.6801090000081,305.67949589999625,305.67949589999625,305.67949589999625,305.66344190001837,j,305.663486800011,,,305.6634988000151,None,,,1.9879558999964502,0.11195290001342073,,,,,,,,,,00045,001,2026-01-17_17h37.26.166,MST_task,2024.2.0,60.064713718858755,2026-01-17 17h37.32.903760 +0530,
,Scenes\113a.jpg,26,0,27,,,,,,,j,None,,,2.0005469000025187,0.1035023000149522,,,,27,0,26,305.67949589999625,,,,,,,,,,,,,,,,,,,,,,,,,,,,,,305.66356640000595,305.67949589999625,306.1799121000222,306.1632085000165,,,,,,,,,,,,,,,,,,,,,,,,,,306.17418480000924,306.1799121000222,306.1799121000222,306.1799121000222,309.17944750000606,309.17944750000606,309.17944750000606,309.16328280000016,j,309.16332730001886,,,309.16333770001074,None,,,2.0005469000025187,0.1035023000149522,,,,,,,,,,00045,001,2026-01-17_17h37.26.166,MST_task,2024.2.0,60.064713718858755,2026-01-17 17h37.32.903760 +0530,
,Scenes\017a.jpg,27,0,28,,,,,,,f,None,,,1.9873349999834318,0.11198750001494773,,,,28,0,27,309.17944750000606,,,,,,,,,,,,,,,,,,,,,,,,,,,,,,309.1634348999942,309.17944750000606,309.68020020000404,309.66307790001156,,,,,,,,,,,,,,,,,,,,,,,,,,309.6732020000054,309.68020020000404,309.68020020000404,309.68020020000404,312.67933470002026,312.67933470002026,312.67933470002026,312.66334960001404,f,312.66339980001794,,,312.66341140001896,None,,,1.9873349999834318,0.11198750001494773,,,,,,,,,,00045,001,2026-01-17_17h37.26.166,MST_task,2024.2.0,60.064713718858755,2026-01-17 17h37.32.903760 +0530,
,Objects\178a.jpg,28,0,29,,,,,,,f,None,,,1.9514953000179958,0.136477099993499,,,,29,0,28,312.67933470002026,,,,,,,,,,,,,,,,,,,,,,,,,,,,,,312.66352620002,312.67933470002026,313.1798120000167,313.1631419000041,,,,,,,,,,,,,,,,,,,,,,,,,,313.17728590001934,313.1798120000167,313.1798120000167,313.1798120000167,316.17937870000605,316.17937870000605,316.17937870000605,316.1633950000105,f,316.165422399994,,,316.1654397000093,None,,,1.9514953000179958,0.136477099993499,,,,,,,,,,00045,001,2026-01-17_17h37.26.166,MST_task,2024.2.0,60.064713718858755,2026-01-17 17h37.32.903760 +0530,
,Objects\125a.jpg,29,0,30,,,,,,,j,None,,,1.7324867999996059,0.10460160000366159,,,,30,0,29,316.17937870000605,,,,,,,,,,,,,,,,,,,,,,,,,,,,,,316.1655101000215,316.17937870000605,316.67957609999576,316.663209499995,,,,,,,,,,,,,,,,,,,,,,,,,,316.6657329000009,316.67957609999576,316.67957609999576,316.67957609999576,319.6794877000211,319.6794877000211,319.6794877000211,319.66338120002183,j,319.66342570001143,,,319.6634364000056,None,,,1.7324867999996059,0.10460160000366159,,,,,,,,,,00045,001,2026-01-17_17h37.26.166,MST_task,2024.2.0,60.064713718858755,2026-01-17 17h37.32.903760 +0530,
,Objects\050a.jpg,30,0,31,,,,,,,None,f,0.9119221000000834,None,,,,,,31,0,30,319.6794877000211,,,,,,,,,,,,,,,,,,,,,,,,,,,,,,319.66353250000975,319.6794877000211,320.1797509000171,320.1631849000114,,,,,,,,,,,,,,,,,,,,,,,,,,320.17197580001084,320.1797509000171,320.1797509000171,320.1797509000171,323.1793651000189,323.1793651000189,323.1793651000189,323.1633361999993,None,323.1633825000026,323.1793651000189,323.1793651000189,324.0966945000109,f,0.9119221000000834,None,,,,,,,,,,,,00045,001,2026-01-17_17h37.26.166,MST_task,2024.2.0,60.064713718858755,2026-01-17 17h37.32.903760 +0530,
,Objects\063a.jpg,31,0,32,,,,,,,f,None,,,2.3261911000008695,0.14545070001622662,,,,32,0,31,324.11283300002106,,,,,,,,,,,,,,,,,,,,,,,,,,,,,,324.0967820000078,324.11283300002106,324.61306790000526,324.5963544000115,,,,,,,,,,,,,,,,,,,,,,,,,,324.6060793000215,324.61306790000526,324.61306790000526,324.61306790000526,327.61283920001006,327.61283920001006,327.61283920001006,327.5966977000062,f,327.5967443000118,,,327.5967561000143,None,,,2.3261911000008695,0.14545070001622662,,,,,,,,,,00045,001,2026-01-17_17h37.26.166,MST_task,2024.2.0,60.064713718858755,2026-01-17 17h37.32.903760 +0530,
,Objects\100a.jpg,32,0,33,,,,,,,f,None,,,1.059095200005686,0.10346670000581071,,,,33,0,32,327.61283920001006,,,,,,,,,,,,,,,,,,,,,,,,,,,,,,327.5968530999962,327.61283920001006,328.1130489000061,328.09635090001393,,,,,,,,,,,,,,,,,,,,,,,,,,328.10522150000907,328.1130489000061,328.1130489000061,328.1130489000061,331.1129134000221,331.1129134000221,331.1129134000221,331.0967334000161,f,331.09677699999884,,,331.0967879999953,None,,,1.059095200005686,0.10346670000581071,,,,,,,,,,00045,001,2026-01-17_17h37.26.166,MST_task,2024.2.0,60.064713718858755,2026-01-17 17h37.32.903760 +0530,
,Objects\177a.jpg,33,0,34,,,,,,,j,None,,,2.743168399989372,0.0960215000086464,,,,34,0,33,331.1129134000221,,,,,,,,,,,,,,,,,,,,,,,,,,,,,,331.0968550000107,331.1129134000221,331.6129596999963,331.59628510000766,,,,,,,,,,,,,,,,,,,,,,,,,,331.5989133999974,331.6129596999963,331.6129596999963,331.6129596999963,334.6128099000198,334.6128099000198,334.6128099000198,334.5967416000203,j,334.59678370002075,,,334.59679430001415,None,,,2.743168399989372,0.0960215000086464,,,,,,,,,,00045,001,2026-01-17_17h37.26.166,MST_task,2024.2.0,60.064713718858755,2026-01-17 17h37.32.903760 +0530,
,Objects\157a.jpg,34,0,35,,,,,,,f,None,,,1.6185615000140388,0.11998749998747371,,,,35,0,34,334.6128099000198,,,,,,,,,,,,,,,,,,,,,,,,,,,,,,334.59689060001983,334.6128099000198,335.112970999995,335.0964092000213,,,,,,,,,,,,,,,,,,,,,,,,,,335.0989088000206,335.112970999995,335.112970999995,335.112970999995,338.11284180000075,338.11284180000075,338.11284180000075,338.09668620000593,f,338.09672910001245,,,338.0967403000104,None,,,1.6185615000140388,0.11998749998747371,,,,,,,,,,00045,001,2026-01-17_17h37.26.166,MST_task,2024.2.0,60.064713718858755,2026-01-17 17h37.32.903760 +0530,
,Scenes\066a.jpg,35,0,36,,,,,,,j,None,,,1.4708111000072677,0.11184309999225661,,,,36,0,35,338.11284180000075,,,,,,,,,,,,,,,,,,,,,,,,,,,,,,338.0968384000007,338.11284180000075,338.6133297000197,338.59635890001664,,,,,,,,,,,,,,,,,,,,,,,,,,338.60785020000185,338.6133297000197,338.6133297000197,338.6133297000197,341.6126657999994,341.6126657999994,341.6126657999994,341.5967033000197,j,341.5982837000047,,,341.5983012000215,None,,,1.4708111000072677,0.11184309999225661,,,,,,,,,,00045,001,2026-01-17_17h37.26.166,MST_task,2024.2.0,60.064713718858755,2026-01-17 17h37.32.903760 +0530,
,Scenes\065a.jpg,36,0,37,,,,,,,j,None,,,1.5064754000050016,0.1118455000105314,,,,37,0,36,341.6126657999994,,,,,,,,,,,,,,,,,,,,,,,,,,,,,,341.5984122000227,341.6126657999994,342.1131888999953,342.09632830001647,,,,,,,,,,,,,,,,,,,,,,,,,,342.10335510000004,342.1131888999953,342.1131888999953,342.1131888999953,345.11264590002247,345.11264590002247,345.11264590002247,345.09654020000016,j,345.09658370001125,,,345.0965947000077,None,,,1.5064754000050016,0.1118455000105314,,,,,,,,,,00045,001,2026-01-17_17h37.26.166,MST_task,2024.2.0,60.064713718858755,2026-01-17 17h37.32.903760 +0530,
,Scenes\005a.jpg,37,0,38,,,,,,,f,None,,,2.1984505000000354,0.13579530001152307,,,,38,0,37,345.11264590002247,,,,,,,,,,,,,,,,,,,,,,,,,,,,,,345.09669110001414,345.11264590002247,345.6140442000178,345.59653320000507,,,,,,,,,,,,,,,,,,,,,,,,,,345.6115667000122,345.6140442000178,345.6140442000178,345.6140442000178,,,,348.6131428999943,f,348.61320640001213,,,348.6132212000084,None,,,2.1984505000000354,0.13579530001152307,,,,,,,,,,00045,001,2026-01-17_17h37.26.166,MST_task,2024.2.0,60.064713718858755,2026-01-17 17h37.32.903760 +0530,
,Scenes\127a.jpg,38,0,39,,,,,,,j,None,,,1.6248862000065856,0.10378519998630509,,,,39,0,38,348.629771900014,,,,,,,,,,,,,,,,,,,,,,,,,,,,,,348.6133081000007,348.629771900014,349.1306792999967,349.1129783000215,,,,,,,,,,,,,,,,,,,,,,,,,,349.12821560000884,349.1306792999967,349.1306792999967,349.1306792999967,,,,352.1295841000101,j,352.1296278999944,,,352.1296392000222,None,,,1.6248862000065856,0.10378519998630509,,,,,,,,,,00045,001,2026-01-17_17h37.26.166,MST_task,2024.2.0,60.064713718858755,2026-01-17 17h37.32.903760 +0530,
,Scenes\020a.jpg,39,0,40,,,,,,,f,None,,,1.316644999984419,0.12003469999763183,,,,40,0,39,352.1460977999959,,,,,,,,,,,,,,,,,,,,,,,,,,,,,,352.12973740001325,352.1460977999959,352.64666120000766,352.6295994000102,,,,,,,,,,,,,,,,,,,,,,,,,,352.64171019999776,352.64666120000766,352.64666120000766,352.64666120000766,355.64604240001063,355.64604240001063,355.64604240001063,355.6298829000152,f,355.6299260999949,,,355.62993740002275,None,,,1.316644999984419,0.12003469999763183,,,,,,,,,,00045,001,2026-01-17_17h37.26.166,MST_task,2024.2.0,60.064713718858755,2026-01-17 17h37.32.903760 +0530,
,Scenes\168a.jpg,40,0,41,,,,,,,j,None,,,2.2340308999991976,0.10288049999508075,,,,41,0,40,355.64604240001063,,,,,,,,,,,,,,,,,,,,,,,,,,,,,,355.6300317000132,355.64604240001063,356.1466821000213,356.12965310001164,,,,,,,,,,,,,,,,,,,,,,,,,,356.13568269999814,356.1466821000213,356.1466821000213,356.1466821000213,359.1460608000052,359.1460608000052,359.1460608000052,359.12978450002265,j,359.1298286000092,,,359.12983990000794,None,,,2.2340308999991976,0.10288049999508075,,,,,,,,,,00045,001,2026-01-17_17h37.26.166,MST_task,2024.2.0,60.064713718858755,2026-01-17 17h37.32.903760 +0530,
,Scenes\078a.jpg,41,0,42,,,,,,,j,None,,,2.4837275000172667,0.08834429999114946,,,,42,0,41,359.1460608000052,,,,,,,,,,,,,,,,,,,,,,,,,,,,,,359.1299050000089,359.1460608000052,359.6480729000177,359.6295567000052,,,,,,,,,,,,,,,,,,,,,,,,,,359.6455126000219,359.6480729000177,359.6480729000177,359.6480729000177,,,,362.6462811999954,j,362.646327399998,,,362.6463395000028,None,,,2.4837275000172667,0.08834429999114946,,,,,,,,,,00045,001,2026-01-17_17h37.26.166,MST_task,2024.2.0,60.064713718858755,2026-01-17 17h37.32.903760 +0530,
,Objects\186a.jpg,42,0,43,,,,,,,f,None,,,1.5369248999923002,0.12727980001363903,,,,43,0,42,362.66272970000864,,,,,,,,,,,,,,,,,,,,,,,,,,,,,,362.6464394000068,362.66272970000864,363.1632055999944,363.14641129999654,,,,,,,,,,,,,,,,,,,,,,,,,,363.1517994000169,363.1632055999944,363.1632055999944,363.1632055999944,366.1627017999999,366.1627017999999,366.1627017999999,366.1467532000097,f,366.14876410001307,,,366.148781099997,None,,,1.5369248999923002,0.12727980001363903,,,,,,,,,,00045,001,2026-01-17_17h37.26.166,MST_task,2024.2.0,60.064713718858755,2026-01-17 17h37.32.903760 +0530,
,Objects\176a.jpg,43,0,44,,,,,,,j,None,,,0.88506430000416,0.10340689998702146,,,,44,0,43,366.1627017999999,,,,,,,,,,,,,,,,,,,,,,,,,,,,,,366.14884930002154,366.1627017999999,366.66305200001807,366.64639629999874,,,,,,,,,,,,,,,,,,,,,,,,,,366.6555752000131,366.66305200001807,366.66305200001807,366.66305200001807,369.6627921000181,369.6627921000181,369.6627921000181,369.64652870001737,j,369.6465833999973,,,369.6465948999976,None,,,0.88506430000416,0.10340689998702146,,,,,,,,,,00045,001,2026-01-17_17h37.26.166,MST_task,2024.2.0,60.064713718858755,2026-01-17 17h37.32.903760 +0530,
,Objects\045a.jpg,44,0,45,,,,,,,j,None,,,2.5683963999908883,0.13598770002136007,,,,45,0,44,369.6627921000181,,,,,,,,,,,,,,,,,,,,,,,,,,,,,,369.6466926000139,369.6627921000181,370.1630278000084,370.14640840000357,,,,,,,,,,,,,,,,,,,,,,,,,,370.1572101000056,370.1630278000084,370.1630278000084,370.1630278000084,373.16267839999637,373.16267839999637,373.16267839999637,373.14668140001595,j,373.146725300001,,,373.14673599999514,None,,,2.5683963999908883,0.13598770002136007,,,,,,,,,,00045,001,2026-01-17_17h37.26.166,MST_task,2024.2.0,60.064713718858755,2026-01-17 17h37.32.903760 +0530,
,Objects\145a.jpg,45,0,46,,,,,,,f,None,,,1.0049566999950912,0.13599929999327287,,,,46,0,45,373.16267839999637,,,,,,,,,,,,,,,,,,,,,,,,,,,,,,373.1468344000168,373.16267839999637,373.66289970002254,373.6462262000132,,,,,,,,,,,,,,,,,,,,,,,,,,373.64877090000664,373.66289970002254,373.66289970002254,373.66289970002254,376.66273460001685,376.66273460001685,376.66273460001685,376.6468520000053,f,376.6469020000077,,,376.64691320000566,None,,,1.0049566999950912,0.13599929999327287,,,,,,,,,,00045,001,2026-01-17_17h37.26.166,MST_task,2024.2.0,60.064713718858755,2026-01-17 17h37.32.903760 +0530,
,Objects\129a.jpg,46,0,47,,,,,,,f,None,,,1.2887927000119817,0.16832359999534674,,,,47,0,46,376.66273460001685,,,,,,,,,,,,,,,,,,,,,,,,,,,,,,376.6470217000169,376.66273460001685,377.16297340000165,377.1464055000106,,,,,,,,,,,,,,,,,,,,,,,,,,377.155725300021,377.16297340000165,377.16297340000165,377.16297340000165,380.16266940001515,380.16266940001515,380.16266940001515,380.1466627000191,f,380.1467071000079,,,380.14671790000284,None,,,1.2887927000119817,0.16832359999534674,,,,,,,,,,00045,001,2026-01-17_17h37.26.166,MST_task,2024.2.0,60.064713718858755,2026-01-17 17h37.32.903760 +0530,
,Objects\191a.jpg,47,0,48,,,,,,,f,None,,,1.324471400002949,0.09598339998046868,,,,48,0,47,380.16266940001515,,,,,,,,,,,,,,,,,,,,,,,,,,,,,,380.14681360000395,380.16266940001515,380.66290150000714,380.64632670002175,,,,,,,,,,,,,,,,,,,,,,,,,,380.6553196000168,380.66290150000714,380.66290150000714,380.66290150000714,383.6627427000203,383.6627427000203,383.6627427000203,383.64669069999945,f,383.6467356000212,,,383.64674710002146,None,,,1.324471400002949,0.09598339998046868,,,,,,,,,,00045,001,2026-01-17_17h37.26.166,MST_task,2024.2.0,60.064713718858755,2026-01-17 17h37.32.903760 +0530,
,Objects\153a.jpg,48,0,49,,,,,,,f,None,,,1.5851862999843433,0.13604430001578294,,,,49,0,48,383.6627427000203,,,,,,,,,,,,,,,,,,,,,,,,,,,,,,383.64684309999575,383.6627427000203,384.16298710001865,384.146373399999,,,,,,,,,,,,,,,,,,,,,,,,,,384.15569650000543,384.16298710001865,384.16298710001865,384.16298710001865,387.16285829999833,387.16285829999833,387.16285829999833,387.14681330000167,f,387.14686300000176,,,387.14687490000506,None,,,1.5851862999843433,0.13604430001578294,,,,,,,,,,00045,001,2026-01-17_17h37.26.166,MST_task,2024.2.0,60.064713718858755,2026-01-17 17h37.32.903760 +0530,
,Scenes\145a.jpg,49,0,50,,,,,,,j,None,,,1.0762337000051048,0.12110089999623597,,,,50,0,49,387.16285829999833,,,,,,,,,,,,,,,,,,,,,,,,,,,,,,387.1469444000104,387.16285829999833,387.6632217000006,387.64632570001413,,,,,,,,,,,,,,,,,,,,,,,,,,387.65813369999523,387.6632217000006,387.6632217000006,387.6632217000006,390.6627662999963,390.6627662999963,390.6627662999963,390.6466483999975,j,390.6487226000172,,,390.6487412000133,None,,,1.0762337000051048,0.12110089999623597,,,,,,,,,,00045,001,2026-01-17_17h37.26.166,MST_task,2024.2.0,60.064713718858755,2026-01-17 17h37.32.903760 +0530,
,Scenes\089a.jpg,50,0,51,,,,,,,j,None,,,2.008133600000292,0.10392819999833591,,,,51,0,50,390.6627662999963,,,,,,,,,,,,,,,,,,,,,,,,,,,,,,390.6488512000069,390.6627662999963,391.16324039999745,391.14634890001616,,,,,,,,,,,,,,,,,,,,,,,,,,391.1587328000169,391.16324039999745,391.16324039999745,391.16324039999745,394.1628447000112,394.1628447000112,394.1628447000112,394.14662889999454,j,394.14669610001147,,,394.1467085000186,None,,,2.008133600000292,0.10392819999833591,,,,,,,,,,00045,001,2026-01-17_17h37.26.166,MST_task,2024.2.0,60.064713718858755,2026-01-17 17h37.32.903760 +0530,
,Scenes\184a.jpg,51,0,52,,,,,,,j,None,,,1.0366336000151932,0.09602490000543185,,,,52,0,51,394.1628447000112,,,,,,,,,,,,,,,,,,,,,,,,,,,,,,394.14677690001554,394.1628447000112,394.66329369999585,394.6463379000197,,,,,,,,,,,,,,,,,,,,,,,,,,394.653412100015,394.66329369999585,394.66329369999585,394.66329369999585,397.6627614000172,397.6627614000172,397.6627614000172,397.64665060001425,j,397.6466973000206,,,397.6467087000201,None,,,1.0366336000151932,0.09602490000543185,,,,,,,,,,00045,001,2026-01-17_17h37.26.166,MST_task,2024.2.0,60.064713718858755,2026-01-17 17h37.32.903760 +0530,
,Scenes\155a.jpg,52,0,53,,,,,,,j,None,,,1.1360592999844812,0.11213019999559037,,,,53,0,52,397.6627614000172,,,,,,,,,,,,,,,,,,,,,,,,,,,,,,397.6467746999988,397.6627614000172,398.1639015999972,398.1463219000143,,,,,,,,,,,,,,,,,,,,,,,,,,398.16134320001584,398.1639015999972,398.1639015999972,398.1639015999972,,,,401.1631137000222,j,401.1631677999976,,,401.1631794999994,None,,,1.1360592999844812,0.11213019999559037,,,,,,,,,,00045,001,2026-01-17_17h37.26.166,MST_task,2024.2.0,60.064713718858755,2026-01-17 17h37.32.903760 +0530,
,Scenes\029a.jpg,53,0,54,,,,,,,j,None,,,1.623811500001466,0.10400000002118759,,,,54,0,53,401.179495999997,,,,,,,,,,,,,,,,,,,,,,,,,,,,,,401.1632791000011,401.179495999997,401.68360160000157,401.66321090000565,,,,,,,,,,,,,,,,,,,,,,,,,,401.6811966999958,401.68360160000157,401.68360160000157,401.68360160000157,,,,404.67960740000126,j,404.6796577000059,,,404.67967000001227,None,,,1.623811500001466,0.10400000002118759,,,,,,,,,,00045,001,2026-01-17_17h37.26.166,MST_task,2024.2.0,60.064713718858755,2026-01-17 17h37.32.903760 +0530,
,Scenes\183a.jpg,54,0,55,,,,,,,j,None,,,1.9272347999794874,0.11947400000644848,,,,55,0,54,404.6961063000199,,,,,,,,,,,,,,,,,,,,,,,,,,,,,,404.67978000000585,404.6961063000199,405.19688800000586,405.17981930001406,,,,,,,,,,,,,,,,,,,,,,,,,,405.19480890000705,405.19688800000586,405.19688800000586,405.19688800000586,408.1962532000034,408.1962532000034,408.1962532000034,408.17988370000967,j,408.17992950000917,,,408.17994170001475,None,,,1.9272347999794874,0.11947400000644848,,,,,,,,,,00045,001,2026-01-17_17h37.26.166,MST_task,2024.2.0,60.064713718858755,2026-01-17 17h37.32.903760 +0530,
,Scenes\159a.jpg,55,0,56,,,,,,,j,None,,,1.0987248999881558,0.11199239999405108,,,,56,0,55,408.1962532000034,,,,,,,,,,,,,,,,,,,,,,,,,,,,,,408.18004520001705,408.1962532000034,408.6968340000021,408.6797943999991,,,,,,,,,,,,,,,,,,,,,,,,,,408.69120349999866,408.6968340000021,408.6968340000021,408.6968340000021,411.6960781000089,411.6960781000089,411.6960781000089,411.68013419999625,j,411.6801842999994,,,411.6801955999981,None,,,1.0987248999881558,0.11199239999405108,,,,,,,,,,00045,001,2026-01-17_17h37.26.166,MST_task,2024.2.0,60.064713718858755,2026-01-17 17h37.32.903760 +0530,
,Objects\102a.jpg,56,0,57,,,,,,,f,None,,,1.382793099997798,0.1519996999995783,,,,57,0,56,411.6960781000089,,,,,,,,,,,,,,,,,,,,,,,,,,,,,,411.68030209999415,411.6960781000089,412.1967593000154,412.1797936000221,,,,,,,,,,,,,,,,,,,,,,,,,,412.18582260000403,412.1967593000154,412.1967593000154,412.1967593000154,415.1961929000099,415.1961929000099,415.1961929000099,415.18026789999567,f,415.1823141000059,,,415.182331500022,None,,,1.382793099997798,0.1519996999995783,,,,,,,,,,00045,001,2026-01-17_17h37.26.166,MST_task,2024.2.0,60.064713718858755,2026-01-17 17h37.32.903760 +0530,
,Objects\059a.jpg,57,0,58,,,,,,,j,None,,,1.8430949999892619,0.10400030002347194,,,,58,0,57,415.1961929000099,,,,,,,,,,,,,,,,,,,,,,,,,,,,,,415.1824020000058,415.1961929000099,415.6963637000008,415.6798176000011,,,,,,,,,,,,,,,,,,,,,,,,,,415.6826196000038,415.6963637000008,415.6963637000008,415.6963637000008,418.6961016000132,418.6961016000132,418.6961016000132,418.68003069999395,j,418.6800795000163,,,418.68009120001807,None,,,1.8430949999892619,0.10400030002347194,,,,,,,,,,00045,001,2026-01-17_17h37.26.166,MST_task,2024.2.0,60.064713718858755,2026-01-17 17h37.32.903760 +0530,
,Objects\060a.jpg,58,0,59,,,,,,,f,None,,,2.8711651999910828,None,,,,59,0,58,418.6961016000132,,,,,,,,,,,,,,,,,,,,,,,,,,,,,,418.68019860002096,418.6961016000132,419.1964474999986,419.17964750001556,,,,,,,,,,,,,,,,,,,,,,,,,,419.1889095000224,419.1964474999986,419.1964474999986,419.1964474999986,422.1961880000017,422.1961880000017,422.1961880000017,422.18004960002145,f,422.1800923999981,,,422.18010369999683,None,,,2.8711651999910828,None,,,,,,,,,,00045,001,2026-01-17_17h37.26.166,MST_task,2024.2.0,60.064713718858755,2026-01-17 17h37.32.903760 +0530,
,Objects\169a.jpg,59,0,60,,,,,,,j,None,,,2.034800199995516,0.10490050000953488,,,,60,0,59,422.1961880000017,,,,,,,,,,,,,,,,,,,,,,,,,,,,,,422.18016680001165,422.1961880000017,422.696483000007,422.6797690000094,,,,,,,,,,,,,,,,,,,,,,,,,,422.68893010000465,422.696483000007,422.696483000007,422.696483000007,425.6961919000023,425.6961919000023,425.6961919000023,425.68004540001857,j,425.6800917000219,,,425.6801030000206,None,,,2.034800199995516,0.10490050000953488,,,,,,,,,,00045,001,2026-01-17_17h37.26.166,MST_task,2024.2.0,60.064713718858755,2026-01-17 17h37.32.903760 +0530,
,Objects\127a.jpg,60,0,61,,,,,,,f,None,,,0.8389758999983314,0.1610565000155475,,,,61,0,60,425.6961919000023,,,,,,,,,,,,,,,,,,,,,,,,,,,,,,425.68017070001224,425.6961919000023,426.19633609999437,426.17966980001074,,,,,,,,,,,,,,,,,,,,,,,,,,426.18865120000555,426.19633609999437,426.19633609999437,426.19633609999437,429.1961106999952,429.1961106999952,429.1961106999952,429.1801054000098,f,429.18014790001325,,,429.1801586000074,None,,,0.8389758999983314,0.1610565000155475,,,,,,,,,,00045,001,2026-01-17_17h37.26.166,MST_task,2024.2.0,60.064713718858755,2026-01-17 17h37.32.903760 +0530,
,Objects\053a.jpg,61,0,62,,,,,,,f,None,,,1.7078566999989562,0.1348835999961011,,,,62,0,61,429.1961106999952,,,,,,,,,,,,,,,,,,,,,,,,,,,,,,429.1802233000053,429.1961106999952,429.6964760000119,429.6796797999996,,,,,,,,,,,,,,,,,,,,,,,,,,429.6904384000227,429.6964760000119,429.6964760000119,429.6964760000119,432.69605960001354,432.69605960001354,432.69605960001354,432.6798997000151,f,432.67994660002296,,,432.67995780002093,None,,,1.7078566999989562,0.1348835999961011,,,,,,,,,,00045,001,2026-01-17_17h37.26.166,MST_task,2024.2.0,60.064713718858755,2026-01-17 17h37.32.903760 +0530,
,Objects\139a.jpg,62,0,63,,,,,,,f,None,,,2.6316334000148345,0.1280001999984961,,,,63,0,62,432.69605960001354,,,,,,,,,,,,,,,,,,,,,,,,,,,,,,432.68006380001316,432.69605960001354,433.19642210000893,433.179495999997,,,,,,,,,,,,,,,,,,,,,,,,,,433.1885203999991,433.19642210000893,433.19642210000893,433.19642210000893,436.1960403000121,436.1960403000121,436.1960403000121,436.1799346000189,f,436.1799781000009,,,436.1799895000004,None,,,2.6316334000148345,0.1280001999984961,,,,,,,,,,00045,001,2026-01-17_17h37.26.166,MST_task,2024.2.0,60.064713718858755,2026-01-17 17h37.32.903760 +0530,
,Scenes\191a.jpg,63,0,64,,,,,,,j,None,,,1.1395895000023302,0.08001100001274608,,,,64,0,63,436.1960403000121,,,,,,,,,,,,,,,,,,,,,,,,,,,,,,436.18005500000436,436.1960403000121,436.6969934999943,436.67960120001226,,,,,,,,,,,,,,,,,,,,,,,,,,436.69451289999415,436.6969934999943,436.6969934999943,436.6969934999943,439.6961135000165,439.6961135000165,439.6961135000165,439.68000789999496,j,439.6816655000148,,,439.68169640001724,None,,,1.1395895000023302,0.08001100001274608,,,,,,,,,,00045,001,2026-01-17_17h37.26.166,MST_task,2024.2.0,60.064713718858755,2026-01-17 17h37.32.903760 +0530,
,Scenes\018a.jpg,64,0,65,,,,,,,f,None,,,1.6627923999913037,0.12791480001760647,,,,65,0,64,439.6961135000165,,,,,,,,,,,,,,,,,,,,,,,,,,,,,,439.68177140000626,439.6961135000165,440.1965775999997,440.1795606999949,,,,,,,,,,,,,,,,,,,,,,,,,,440.1926256000006,440.1965775999997,440.1965775999997,440.1965775999997,443.1961174000171,443.1961174000171,443.1961174000171,443.1797545000154,f,443.17979789999663,,,443.17980870002066,None,,,1.6627923999913037,0.12791480001760647,,,,,,,,,,00045,001,2026-01-17_17h37.26.166,MST_task,2024.2.0,60.064713718858755,2026-01-17 17h37.32.903760 +0530,
,Scenes\055a.jpg,65,0,66,,,,,,,j,None,,,1.1785145000030752,0.10401539999293163,,,,66,0,65,443.1961174000171,,,,,,,,,,,,,,,,,,,,,,,,,,,,,,443.17987439999706,443.1961174000171,443.69680750000407,443.6795445000171,,,,,,,,,,,,,,,,,,,,,,,,,,443.6883160000143,443.69680750000407,443.69680750000407,443.69680750000407,446.6961213000177,446.6961213000177,446.6961213000177,446.67985939999926,j,446.6799020000035,,,446.67991299999994,None,,,1.1785145000030752,0.10401539999293163,,,,,,,,,,00045,001,2026-01-17_17h37.26.166,MST_task,2024.2.0,60.064713718858755,2026-01-17 17h37.32.903760 +0530,
,Scenes\053a.jpg,66,0,67,,,,,,,j,None,,,1.8235922000021674,0.09539209998911247,,,,67,0,66,446.6961213000177,,,,,,,,,,,,,,,,,,,,,,,,,,,,,,446.6799775999971,446.6961213000177,447.19658060002257,447.1799871000112,,,,,,,,,,,,,,,,,,,,,,,,,,447.18962560000364,447.19658060002257,447.19658060002257,447.19658060002257,450.1961158000049,450.1961158000049,450.1961158000049,450.1798430000199,j,450.1798852000211,,,450.17989620001754,None,,,1.8235922000021674,0.09539209998911247,,,,,,,,,,00045,001,2026-01-17_17h37.26.166,MST_task,2024.2.0,60.064713718858755,2026-01-17 17h37.32.903760 +0530,
,Scenes\185a.jpg,67,0,68,,,,,,,j,None,,,1.9309718000004068,0.10406359998160042,,,,68,0,67,450.1961158000049,,,,,,,,,,,,,,,,,,,,,,,,,,,,,,450.17999350000173,450.1961158000049,450.6964762000134,450.6796940000204,,,,,,,,,,,,,,,,,,,,,,,,,,450.6861159999971,450.6964762000134,450.6964762000134,450.6964762000134,453.69602930001565,453.69602930001565,453.69602930001565,453.6799229000171,j,453.6799651000183,,,453.67997660001856,None,,,1.9309718000004068,0.10406359998160042,,,,,,,,,,00045,001,2026-01-17_17h37.26.166,MST_task,2024.2.0,60.064713718858755,2026-01-17 17h37.32.903760 +0530,
,Scenes\012a.jpg,68,0,69,,,,,,,j,None,,,1.2626319999981206,0.12019640000653453,,,,69,0,68,453.69602930001565,,,,,,,,,,,,,,,,,,,,,,,,,,,,,,453.68004180002026,453.69602930001565,454.19687850002083,454.17951869999524,,,,,,,,,,,,,,,,,,,,,,,,,,454.1896521000017,454.19687850002083,454.19687850002083,454.19687850002083,457.19609710000805,457.19609710000805,457.19609710000805,457.17996579999453,j,457.18000870000105,,,457.18001880001975,None,,,1.2626319999981206,0.12019640000653453,,,,,,,,,,00045,001,2026-01-17_17h37.26.166,MST_task,2024.2.0,60.064713718858755,2026-01-17 17h37.32.903760 +0530,
,Scenes\062a.jpg,69,0,70,,,,,,,j,None,,,2.8106105999904685,None,,,,70,0,69,457.19609710000805,,,,,,,,,,,,,,,,,,,,,,,,,,,,,,457.1801141000178,457.19609710000805,457.69669400001294,457.67955620001885,,,,,,,,,,,,,,,,,,,,,,,,,,457.68995699999505,457.69669400001294,457.69669400001294,457.69669400001294,460.6960912000213,460.6960912000213,460.6960912000213,460.67999710000004,j,460.68003800002043,,,460.68004960002145,None,,,2.8106105999904685,None,,,,,,,,,,00045,001,2026-01-17_17h37.26.166,MST_task,2024.2.0,60.064713718858755,2026-01-17 17h37.32.903760 +0530,
,Objects\073a.jpg,70,0,71,,,,,,,f,None,,,1.454756000021007,0.11283009999897331,,,,71,0,70,460.6960912000213,,,,,,,,,,,,,,,,,,,,,,,,,,,,,,460.6801444000157,460.6960912000213,461.19652399999904,461.17957150001894,,,,,,,,,,,,,,,,,,,,,,,,,,461.19088450001436,461.19652399999904,461.19652399999904,461.19652399999904,464.1960944000166,464.1960944000166,464.1960944000166,464.1799351000227,f,464.18227640000987,,,464.1823009000218,None,,,1.454756000021007,0.11283009999897331,,,,,,,,,,00045,001,2026-01-17_17h37.26.166,MST_task,2024.2.0,60.064713718858755,2026-01-17 17h37.32.903760 +0530,
,Objects\025a.jpg,71,0,72,,,,,,,j,None,,,2.6753734000085387,0.11999959999229759,,,,72,0,71,464.1960944000166,,,,,,,,,,,,,,,,,,,,,,,,,,,,,,464.18240429999423,464.1960944000166,464.6963595999987,464.6796049000113,,,,,,,,,,,,,,,,,,,,,,,,,,464.68852029999834,464.6963595999987,464.6963595999987,464.6963595999987,467.6960650999972,467.6960650999972,467.6960650999972,467.67988690000493,j,467.67993890002253,,,467.67995020002127,None,,,2.6753734000085387,0.11999959999229759,,,,,,,,,,00045,001,2026-01-17_17h37.26.166,MST_task,2024.2.0,60.064713718858755,2026-01-17 17h37.32.903760 +0530,
,Objects\081a.jpg,72,0,73,,,,,,,f,None,,,1.9993017000088003,0.15260770000168122,,,,73,0,72,467.6960650999972,,,,,,,,,,,,,,,,,,,,,,,,,,,,,,467.6800476000062,467.6960650999972,468.19630920002237,468.1795473000093,,,,,,,,,,,,,,,,,,,,,,,,,,468.18862580001587,468.19630920002237,468.19630920002237,468.19630920002237,471.1961511000118,471.1961511000118,471.1961511000118,471.1798316000204,f,471.17987290001474,,,471.17988370000967,None,,,1.9993017000088003,0.15260770000168122,,,,,,,,,,00045,001,2026-01-17_17h37.26.166,MST_task,2024.2.0,60.064713718858755,2026-01-17 17h37.32.903760 +0530,
,Objects\041a.jpg,73,0,74,,,,,,,j,None,,,2.8830969000118785,None,,,,74,0,73,471.1961511000118,,,,,,,,,,,,,,,,,,,,,,,,,,,,,,471.179947800003,471.1961511000118,471.6962706000195,471.67953860000125,,,,,,,,,,,,,,,,,,,,,,,,,,471.68861860001925,471.6962706000195,471.6962706000195,471.6962706000195,474.69609710000805,474.69609710000805,474.69609710000805,474.6798415000085,j,474.6798888000194,,,474.6799002000189,None,,,2.8830969000118785,None,,,,,,,,,,00045,001,2026-01-17_17h37.26.166,MST_task,2024.2.0,60.064713718858755,2026-01-17 17h37.32.903760 +0530,
,Objects\136a.jpg,74,0,75,,,,,,,f,None,,,0.8955243000236806,0.13620369997806847,,,,75,0,74,474.69609710000805,,,,,,,,,,,,,,,,,,,,,,,,,,,,,,474.6799963999947,474.69609710000805,475.1964028000075,475.1797889000154,,,,,,,,,,,,,,,,,,,,,,,,,,475.18847730002017,475.1964028000075,475.1964028000075,475.1964028000075,478.19611469999654,478.19611469999654,478.19611469999654,478.1801687999978,f,478.1802147999988,,,478.18022579999524,None,,,0.8955243000236806,0.13620369997806847,,,,,,,,,,00045,001,2026-01-17_17h37.26.166,MST_task,2024.2.0,60.064713718858755,2026-01-17 17h37.32.903760 +0530,
,Objects\058a.jpg,75,0,76,,,,,,,f,None,,,2.219717700005276,0.11200490000192076,,,,76,0,75,478.19611469999654,,,,,,,,,,,,,,,,,,,,,,,,,,,,,,478.1803361000202,478.19611469999654,478.6963122000161,478.6795076999988,,,,,,,,,,,,,,,,,,,,,,,,,,478.68220890001976,478.6963122000161,478.6963122000161,478.6963122000161,481.6960698000039,481.6960698000039,481.6960698000039,481.6798669999989,f,481.67991820001043,,,481.67993010001373,None,,,2.219717700005276,0.11200490000192076,,,,,,,,,,00045,001,2026-01-17_17h37.26.166,MST_task,2024.2.0,60.064713718858755,2026-01-17 17h37.32.903760 +0530,
,Objects\062a.jpg,76,0,77,,,,,,,f,None,,,1.1195880000013858,0.15999169999849983,,,,77,0,76,481.6960698000039,,,,,,,,,,,,,,,,,,,,,,,,,,,,,,481.67999580001924,481.6960698000039,482.196314300003,482.1795476000116,,,,,,,,,,,,,,,,,,,,,,,,,,482.1886099000112,482.196314300003,482.196314300003,482.196314300003,485.19610299999476,485.19610299999476,485.19610299999476,485.1799242999987,f,485.1799685000151,,,485.17997930001,None,,,1.1195880000013858,0.15999169999849983,,,,,,,,,,00045,001,2026-01-17_17h37.26.166,MST_task,2024.2.0,60.064713718858755,2026-01-17 17h37.32.903760 +0530,
,Scenes\101a.jpg,77,0,78,,,,,,,j,None,,,1.21069730000454,0.10577299998840317,,,,78,0,77,485.19610299999476,,,,,,,,,,,,,,,,,,,,,,,,,,,,,,485.18004550001933,485.19610299999476,485.6965826000087,485.6796381000022,,,,,,,,,,,,,,,,,,,,,,,,,,485.6892047000001,485.6965826000087,485.6965826000087,485.6965826000087,488.69611780002015,488.69611780002015,488.69611780002015,488.6803409999993,j,488.6821519000223,,,488.6821714999969,None,,,1.21069730000454,0.10577299998840317,,,,,,,,,,00045,001,2026-01-17_17h37.26.166,MST_task,2024.2.0,60.064713718858755,2026-01-17 17h37.32.903760 +0530,
,Scenes\092a.jpg,78,0,79,,,,,,,j,None,,,2.6164273000031244,0.12008489997242577,,,,79,0,78,488.69611780002015,,,,,,,,,,,,,,,,,,,,,,,,,,,,,,488.68225189999794,488.69611780002015,489.1966442000121,489.1797366999963,,,,,,,,,,,,,,,,,,,,,,,,,,489.187863500003,489.1966442000121,489.1966442000121,489.1966442000121,492.19607060001,492.19607060001,492.19607060001,492.1798614000145,j,492.17991320000147,,,492.17992540000705,None,,,2.6164273000031244,0.12008489997242577,,,,,,,,,,00045,001,2026-01-17_17h37.26.166,MST_task,2024.2.0,60.064713718858755,2026-01-17 17h37.32.903760 +0530,
,Scenes\179a.jpg,79,0,80,,,,,,,j,None,,,2.3228179999860004,0.0971099000016693,,,,80,0,79,492.19607060001,,,,,,,,,,,,,,,,,,,,,,,,,,,,,,492.1799975000031,492.19607060001,492.6966472000058,492.6795998000016,,,,,,,,,,,,,,,,,,,,,,,,,,492.6932713999995,492.6966472000058,492.6966472000058,492.6966472000058,495.6960913000221,495.6960913000221,495.6960913000221,495.67990260000806,j,495.6799457000161,,,495.67995720001636,None,,,2.3228179999860004,0.0971099000016693,,,,,,,,,,00045,001,2026-01-17_17h37.26.166,MST_task,2024.2.0,60.064713718858755,2026-01-17 17h37.32.903760 +0530,
,Scenes\121a.jpg,80,0,81,,,,,,,j,None,,,1.1256630000134464,0.1194369999866467,,,,81,0,80,495.6960913000221,,,,,,,,,,,,,,,,,,,,,,,,,,,,,,495.68002970001544,495.6960913000221,496.19821060000686,496.1796047000098,,,,,,,,,,,,,,,,,,,,,,,,,,496.19572970000445,496.19821060000686,496.19821060000686,496.19821060000686,,,,499.19629839999834,j,499.1963414000056,,,499.19635300000664,None,,,1.1256630000134464,0.1194369999866467,,,,,,,,,,00045,001,2026-01-17_17h37.26.166,MST_task,2024.2.0,60.064713718858755,2026-01-17 17h37.32.903760 +0530,
,Scenes\103a.jpg,81,0,82,,,,,,,j,None,,,2.185574200004339,0.09547569998539984,,,,82,0,81,499.2127576000057,,,,,,,,,,,,,,,,,,,,,,,,,,,,,,499.1964542000205,499.2127576000057,499.7146973000199,499.6962848000112,,,,,,,,,,,,,,,,,,,,,,,,,,499.71264830001746,499.7146973000199,499.7146973000199,499.7146973000199,,,,502.7130039000185,j,502.7130465999944,,,502.7130582999962,None,,,2.185574200004339,0.09547569998539984,,,,,,,,,,00045,001,2026-01-17_17h37.26.166,MST_task,2024.2.0,60.064713718858755,2026-01-17 17h37.32.903760 +0530,
,Scenes\075a.jpg,82,0,83,,,,,,,j,None,,,0.9179787999892142,0.13598049999563955,,,,83,0,82,502.7293658000126,,,,,,,,,,,,,,,,,,,,,,,,,,,,,,502.71315850000246,502.7293658000126,503.229969100008,503.2131201000011,,,,,,,,,,,,,,,,,,,,,,,,,,503.2254275000014,503.229969100008,503.229969100008,503.229969100008,506.2292831999948,506.2292831999948,506.2292831999948,506.21333210001467,j,506.2133750000212,,,506.2133856000146,None,,,0.9179787999892142,0.13598049999563955,,,,,,,,,,00045,001,2026-01-17_17h37.26.166,MST_task,2024.2.0,60.064713718858755,2026-01-17 17h37.32.903760 +0530,
,Scenes\015a.jpg,83,0,84,,,,,,,None,j,0.11425370001234114,None,,,,,,84,0,83,506.2292831999948,,,,,,,,,,,,,,,,,,,,,,,,,,,,,,506.2134833000018,506.2292831999948,506.73322660001577,506.7129949000082,,,,,,,,,,,,,,,,,,,,,,,,,,506.7307826000033,506.73322660001577,506.73322660001577,506.73322660001577,,,,509.7295229000156,None,509.7295601000078,509.7460979000025,509.7460979000025,509.8631459000171,j,0.11425370001234114,None,,,,,,,,,,,,00045,001,2026-01-17_17h37.26.166,MST_task,2024.2.0,60.064713718858755,2026-01-17 17h37.32.903760 +0530,
,Objects\085a.jpg,84,0,85,,,,,,,j,None,,,2.312114100001054,0.11238180001964793,,,,85,0,84,509.8792003999988,,,,,,,,,,,,,,,,,,,,,,,,,,,,,,509.863276100019,509.8792003999988,510.37984740000684,510.3630520000006,,,,,,,,,,,,,,,,,,,,,,,,,,510.3685458000109,510.37984740000684,510.37984740000684,510.37984740000684,513.3793764000002,513.3793764000002,513.3793764000002,513.363540499995,j,513.3658124000067,,,513.3658682999958,None,,,2.312114100001054,0.11238180001964793,,,,,,,,,,00045,001,2026-01-17_17h37.26.166,MST_task,2024.2.0,60.064713718858755,2026-01-17 17h37.32.903760 +0530,
,Objects\150a.jpg,85,0,86,,,,,,,f,None,,,1.4370106999995187,0.13487350000650622,,,,86,0,85,513.3793764000002,,,,,,,,,,,,,,,,,,,,,,,,,,,,,,513.3659779000154,513.3793764000002,513.8796036000131,513.8630405000004,,,,,,,,,,,,,,,,,,,,,,,,,,513.8655775000225,513.8796036000131,513.8796036000131,513.8796036000131,516.8793702000112,516.8793702000112,516.8793702000112,516.8632633000088,f,516.8633057000116,,,516.8633170000103,None,,,1.4370106999995187,0.13487350000650622,,,,,,,,,,00045,001,2026-01-17_17h37.26.166,MST_task,2024.2.0,60.064713718858755,2026-01-17 17h37.32.903760 +0530,
,Objects\166a.jpg,86,0,87,,,,,,,None,j,0.833666299993638,None,,,,,,87,0,86,516.8793702000112,,,,,,,,,,,,,,,,,,,,,,,,,,,,,,516.8633811000036,516.8793702000112,517.3797704000026,517.363064300007,,,,,,,,,,,,,,,,,,,,,,,,,,517.3721602000005,517.3797704000026,517.3797704000026,517.3797704000026,520.3795355000184,520.3795355000184,520.3795355000184,520.3633257000183,None,520.3633655000012,520.3795355000184,520.3795355000184,521.2298067000229,j,0.833666299993638,None,,,,,,,,,,,,00045,001,2026-01-17_17h37.26.166,MST_task,2024.2.0,60.064713718858755,2026-01-17 17h37.32.903760 +0530,
,Objects\155a.jpg,87,0,88,,,,,,,f,None,,,1.025134600000456,0.11214140002266504,,,,88,0,87,521.2462126000028,,,,,,,,,,,,,,,,,,,,,,,,,,,,,,521.2299239000131,521.2462126000028,521.7463925000047,521.72968270001,,,,,,,,,,,,,,,,,,,,,,,,,,521.7386952000088,521.7463925000047,521.7463925000047,521.7463925000047,524.7461895000015,524.7461895000015,524.7461895000015,524.7299481999944,f,524.7299912000017,,,524.7300030000042,None,,,1.025134600000456,0.11214140002266504,,,,,,,,,,00045,001,2026-01-17_17h37.26.166,MST_task,2024.2.0,60.064713718858755,2026-01-17 17h37.32.903760 +0530,
,Objects\180a.jpg,88,0,89,,,,,,,f,None,,,1.6454152000078466,0.1277369000017643,,,,89,0,88,524.7461895000015,,,,,,,,,,,,,,,,,,,,,,,,,,,,,,524.7300996000122,524.7461895000015,525.2464278000116,525.2298200000077,,,,,,,,,,,,,,,,,,,,,,,,,,525.2326701999991,525.2464278000116,525.2464278000116,525.2464278000116,528.2462115999951,528.2462115999951,528.2462115999951,528.2299320000166,f,528.2299749999947,,,528.2299858000188,None,,,1.6454152000078466,0.1277369000017643,,,,,,,,,,00045,001,2026-01-17_17h37.26.166,MST_task,2024.2.0,60.064713718858755,2026-01-17 17h37.32.903760 +0530,
,Objects\014a.jpg,89,0,90,,,,,,,f,None,,,0.8087957999960054,0.1519960000005085,,,,90,0,89,528.2462115999951,,,,,,,,,,,,,,,,,,,,,,,,,,,,,,528.2300499000121,528.2462115999951,528.7464994000038,528.7297187000222,,,,,,,,,,,,,,,,,,,,,,,,,,528.7390557000181,528.7464994000038,528.7464994000038,528.7464994000038,531.7462174000102,531.7462174000102,531.7462174000102,531.7301516000007,f,531.7301960000186,,,531.7302075000189,None,,,0.8087957999960054,0.1519960000005085,,,,,,,,,,00045,001,2026-01-17_17h37.26.166,MST_task,2024.2.0,60.064713718858755,2026-01-17 17h37.32.903760 +0530,
,Objects\113a.jpg,90,0,91,,,,,,,f,None,,,0.7168548000045121,0.12000940000871196,,,,91,0,90,531.7462174000102,,,,,,,,,,,,,,,,,,,,,,,,,,,,,,531.7303105000174,531.7462174000102,532.2464957000047,532.2296686000191,,,,,,,,,,,,,,,,,,,,,,,,,,532.2389622000046,532.2464957000047,532.2464957000047,532.2464957000047,535.2462312999996,535.2462312999996,535.2462312999996,535.2299889000133,f,535.230031300016,,,535.2300422000117,None,,,0.7168548000045121,0.12000940000871196,,,,,,,,,,00045,001,2026-01-17_17h37.26.166,MST_task,2024.2.0,60.064713718858755,2026-01-17 17h37.32.903760 +0530,
,Scenes\046a.jpg,91,0,92,,,,,,,j,None,,,1.4099431999784429,0.118991300027119,,,,92,0,91,535.2462312999996,,,,,,,,,,,,,,,,,,,,,,,,,,,,,,535.2301076000149,535.2462312999996,535.7550747000205,535.7299409999978,,,,,,,,,,,,,,,,,,,,,,,,,,535.752367100009,535.7550747000205,535.7550747000205,535.7550747000205,,,,538.7468296000152,j,538.7485865000053,,,538.7486059000075,None,,,1.4099431999784429,0.118991300027119,,,,,,,,,,00045,001,2026-01-17_17h37.26.166,MST_task,2024.2.0,60.064713718858755,2026-01-17 17h37.32.903760 +0530,
,Scenes\033a.jpg,92,0,93,,,,,,,j,None,,,1.3645717999897897,0.11209690000396222,,,,93,0,92,538.7628810000024,,,,,,,,,,,,,,,,,,,,,,,,,,,,,,538.7487120000005,538.7628810000024,539.26341460002,539.2464688000036,,,,,,,,,,,,,,,,,,,,,,,,,,539.2507751999947,539.26341460002,539.26341460002,539.26341460002,542.2628916999965,542.2628916999965,542.2628916999965,542.2468025000126,j,542.2468483000121,,,542.2468593000085,None,,,1.3645717999897897,0.11209690000396222,,,,,,,,,,00045,001,2026-01-17_17h37.26.166,MST_task,2024.2.0,60.064713718858755,2026-01-17 17h37.32.903760 +0530,
,Scenes\120a.jpg,93,0,94,,,,,,,j,None,,,0.6968482999945991,0.1198222000093665,,,,94,0,93,542.2628916999965,,,,,,,,,,,,,,,,,,,,,,,,,,,,,,542.2469261000224,542.2628916999965,542.7634349,542.746453300002,,,,,,,,,,,,,,,,,,,,,,,,,,542.7558846000175,542.7634349,542.7634349,542.7634349,545.7628977000131,545.7628977000131,545.7628977000131,545.7467574000184,j,545.7468009000004,,,545.7468124000006,None,,,0.6968482999945991,0.1198222000093665,,,,,,,,,,00045,001,2026-01-17_17h37.26.166,MST_task,2024.2.0,60.064713718858755,2026-01-17 17h37.32.903760 +0530,
,Scenes\104a.jpg,94,0,95,,,,,,,None,j,0.021387999993748963,None,,,,,,95,0,94,545.7628977000131,,,,,,,,,,,,,,,,,,,,,,,,,,,,,,545.7469120000023,545.7628977000131,546.2635915999999,546.2465292999987,,,,,,,,,,,,,,,,,,,,,,,,,,546.2565643000125,546.2635915999999,546.2635915999999,546.2635915999999,549.2628243000072,549.2628243000072,549.2628243000072,549.2467356999987,None,549.2467742000008,549.2628243000072,549.2628243000072,549.2965761999949,j,0.021387999993748963,None,,,,,,,,,,,,00045,001,2026-01-17_17h37.26.166,MST_task,2024.2.0,60.064713718858755,2026-01-17 17h37.32.903760 +0530,
,Scenes\156a.jpg,95,0,96,,,,,,,j,None,,,1.4945537000021432,0.12000130000524223,,,,96,0,95,549.3128970999969,,,,,,,,,,,,,,,,,,,,,,,,,,,,,,549.2966540000052,549.3128970999969,549.8135497000185,549.7965050000057,,,,,,,,,,,,,,,,,,,,,,,,,,549.810686700017,549.8135497000185,549.8135497000185,549.8135497000185,552.812883000006,552.812883000006,552.812883000006,552.7966285000148,j,552.7966725000006,,,552.7966843000031,None,,,1.4945537000021432,0.12000130000524223,,,,,,,,,,00045,001,2026-01-17_17h37.26.166,MST_task,2024.2.0,60.064713718858755,2026-01-17 17h37.32.903760 +0530,
,Scenes\034a.jpg,96,0,97,,,,,,,f,None,,,1.1559446000028402,0.1439892000053078,,,,97,0,96,552.812883000006,,,,,,,,,,,,,,,,,,,,,,,,,,,,,,552.7967848000117,552.812883000006,553.3199090000126,553.2964956000214,,,,,,,,,,,,,,,,,,,,,,,,,,553.317338599998,553.3199090000126,553.3199090000126,553.3199090000126,,,,556.3131446000189,f,556.3131867000193,,,556.3131993999996,None,,,1.1559446000028402,0.1439892000053078,,,,,,,,,,00045,001,2026-01-17_17h37.26.166,MST_task,2024.2.0,60.064713718858755,2026-01-17 17h37.32.903760 +0530,
,Scenes\124a.jpg,97,0,98,,,,,,,f,None,,,1.333638999989489,0.15208530001109466,,,,98,0,97,556.3294445000065,,,,,,,,,,,,,,,,,,,,,,,,,,,,,,556.3133077000093,556.3294445000065,556.8301486000128,556.8131507000071,,,,,,,,,,,,,,,,,,,,,,,,,,556.8200147000025,556.8301486000128,556.8301486000128,556.8301486000128,559.8295203000016,559.8295203000016,559.8295203000016,559.8136576999968,f,559.8137086000061,,,559.8137206000101,None,,,1.333638999989489,0.15208530001109466,,,,,,,,,,00045,001,2026-01-17_17h37.26.166,MST_task,2024.2.0,60.064713718858755,2026-01-17 17h37.32.903760 +0530,
,Objects\027a.jpg,98,0,99,,,,,,,f,None,,,1.5772874999966007,0.15260530001251027,,,,99,0,98,559.8295203000016,,,,,,,,,,,,,,,,,,,,,,,,,,,,,,559.813834200002,559.8295203000016,560.3299893000221,560.3130629000079,,,,,,,,,,,,,,,,,,,,,,,,,,560.318600300001,560.3299893000221,560.3299893000221,560.3299893000221,563.3295001000224,563.3295001000224,563.3295001000224,563.3136110000196,f,563.3156486999942,,,563.3156666000141,None,,,1.5772874999966007,0.15260530001251027,,,,,,,,,,00045,001,2026-01-17_17h37.26.166,MST_task,2024.2.0,60.064713718858755,2026-01-17 17h37.32.903760 +0530,
,Objects\143a.jpg,99,0,100,,,,,,,j,None,,,1.7354343000042718,0.11896940000588074,,,,100,0,99,563.3295001000224,,,,,,,,,,,,,,,,,,,,,,,,,,,,,,563.3157367999956,563.3295001000224,563.829655700014,563.8131438000128,,,,,,,,,,,,,,,,,,,,,,,,,,563.8158309000137,563.829655700014,563.829655700014,563.829655700014,566.8293619000178,566.8293619000178,566.8293619000178,566.8136076000228,j,566.8136548000039,,,566.8136659000011,None,,,1.7354343000042718,0.11896940000588074,,,,,,,,,,00045,001,2026-01-17_17h37.26.166,MST_task,2024.2.0,60.064713718858755,2026-01-17 17h37.32.903760 +0530,
,Objects\054a.jpg,100,0,101,,,,,,,j,None,,,0.9855935999948997,0.08820339999510907,,,,101,0,100,566.8293619000178,,,,,,,,,,,,,,,,,,,,,,,,,,,,,,566.8137348000018,566.8293619000178,567.3297443000192,567.3133129000198,,,,,,,,,,,,,,,,,,,,,,,,,,567.3233095000032,567.3297443000192,567.3297443000192,567.3297443000192,570.3295331000118,570.3295331000118,570.3295331000118,570.3133454000053,j,570.3133901999972,,,570.313401100022,None,,,0.9855935999948997,0.08820339999510907,,,,,,,,,,00045,001,2026-01-17_17h37.26.166,MST_task,2024.2.0,60.064713718858755,2026-01-17 17h37.32.903760 +0530,
,Objects\061a.jpg,101,0,102,,,,,,,j,None,,,1.29358259998844,0.17661429999861866,,,,102,0,101,570.3295331000118,,,,,,,,,,,,,,,,,,,,,,,,,,,,,,570.313496799994,570.3295331000118,570.8297831999953,570.8131683999964,,,,,,,,,,,,,,,,,,,,,,,,,,570.8158435000223,570.8297831999953,570.8297831999953,570.8297831999953,573.8293367000006,573.8293367000006,573.8293367000006,573.8135491000139,j,573.8136011000024,,,573.8136140000133,None,,,1.29358259998844,0.17661429999861866,,,,,,,,,,00045,001,2026-01-17_17h37.26.166,MST_task,2024.2.0,60.064713718858755,2026-01-17 17h37.32.903760 +0530,
,Objects\154a.jpg,102,0,103,,,,,,,j,None,,,0.8902869000157807,0.17599170000175945,,,,103,0,102,573.8293367000006,,,,,,,,,,,,,,,,,,,,,,,,,,,,,,573.8137264999968,573.8293367000006,574.329693000007,574.3132006000087,,,,,,,,,,,,,,,,,,,,,,,,,,574.3219401999959,574.329693000007,574.329693000007,574.329693000007,577.3294374000106,577.3294374000106,577.3294374000106,577.313456200005,j,577.3134969999956,,,577.3135078000196,None,,,0.8902869000157807,0.17599170000175945,,,,,,,,,,00045,001,2026-01-17_17h37.26.166,MST_task,2024.2.0,60.064713718858755,2026-01-17 17h37.32.903760 +0530,
,Objects\083a.jpg,103,0,104,,,,,,,f,None,,,2.9348133000021335,None,,,,104,0,103,577.3294374000106,,,,,,,,,,,,,,,,,,,,,,,,,,,,,,577.3136053000053,577.3294374000106,577.829700000002,577.8130664000055,,,,,,,,,,,,,,,,,,,,,,,,,,577.8223365000158,577.829700000002,577.829700000002,577.829700000002,580.8294819000002,580.8294819000002,580.8294819000002,580.813495600014,f,580.8135414000135,,,580.8135527000122,None,,,2.9348133000021335,None,,,,,,,,,,00045,001,2026-01-17_17h37.26.166,MST_task,2024.2.0,60.064713718858755,2026-01-17 17h37.32.903760 +0530,
,Objects\020a.jpg,104,0,105,,,,,,,f,None,,,1.633748000022024,0.18400099998689257,,,,105,0,104,580.8294819000002,,,,,,,,,,,,,,,,,,,,,,,,,,,,,,580.8136192999955,580.8294819000002,581.3296285000106,581.3130522000138,,,,,,,,,,,,,,,,,,,,,,,,,,581.3156611000013,581.3296285000106,581.3296285000106,581.3296285000106,584.3294514000008,584.3294514000008,584.3294514000008,584.3137141000188,f,584.313767100015,,,584.313778700016,None,,,1.633748000022024,0.18400099998689257,,,,,,,,,,00045,001,2026-01-17_17h37.26.166,MST_task,2024.2.0,60.064713718858755,2026-01-17 17h37.32.903760 +0530,
,Scenes\085a.jpg,105,0,106,,,,,,,j,None,,,1.3695755999942776,0.13646629999857396,,,,106,0,105,584.3294514000008,,,,,,,,,,,,,,,,,,,,,,,,,,,,,,584.3139022999967,584.3294514000008,584.8341987000022,584.8130392000021,,,,,,,,,,,,,,,,,,,,,,,,,,584.8317893000203,584.8341987000022,584.8341987000022,584.8341987000022,,,,587.8296476000105,j,587.8313527000137,,,587.8313716000121,None,,,1.3695755999942776,0.13646629999857396,,,,,,,,,,00045,001,2026-01-17_17h37.26.166,MST_task,2024.2.0,60.064713718858755,2026-01-17 17h37.32.903760 +0530,
,Scenes\076a.jpg,106,0,107,,,,,,,None,j,0.10495550002087839,None,,,,,,107,0,106,587.8461619000009,,,,,,,,,,,,,,,,,,,,,,,,,,,,,,587.8314782000089,587.8461619000009,588.351092900004,588.3296129000082,,,,,,,,,,,,,,,,,,,,,,,,,,588.3485345000227,588.351092900004,588.351092900004,588.351092900004,,,,591.3463963000104,None,591.3464345000102,591.3628361000156,591.3628361000156,591.4798619000067,j,0.10495550002087839,None,,,,,,,,,,,,00045,001,2026-01-17_17h37.26.166,MST_task,2024.2.0,60.064713718858755,2026-01-17 17h37.32.903760 +0530,
,Scenes\154a.jpg,107,0,108,,,,,,,j,None,,,1.3907027999812271,0.16799940000055358,,,,108,0,107,591.4960507000214,,,,,,,,,,,,,,,,,,,,,,,,,,,,,,591.4799786000222,591.4960507000214,591.9967535000178,591.9796407000103,,,,,,,,,,,,,,,,,,,,,,,,,,591.9864429000008,591.9967535000178,591.9967535000178,591.9967535000178,594.9961289000057,594.9961289000057,594.9961289000057,594.9800047000172,j,594.9800518999982,,,594.9800644000061,None,,,1.3907027999812271,0.16799940000055358,,,,,,,,,,00045,001,2026-01-17_17h37.26.166,MST_task,2024.2.0,60.064713718858755,2026-01-17 17h37.32.903760 +0530,
,Scenes\091a.jpg,108,0,109,,,,,,,j,None,,,1.0276176999905147,0.1279983000131324,,,,109,0,108,594.9961289000057,,,,,,,,,,,,,,,,,,,,,,,,,,,,,,594.9801745000004,594.9961289000057,595.4967237999954,595.4796203000005,,,,,,,,,,,,,,,,,,,,,,,,,,595.4921785000188,595.4967237999954,595.4967237999954,595.4967237999954,598.4961048999976,598.4961048999976,598.4961048999976,598.4799072000023,j,598.4799543000117,,,598.4799657000112,None,,,1.0276176999905147,0.1279983000131324,,,,,,,,,,00045,001,2026-01-17_17h37.26.166,MST_task,2024.2.0,60.064713718858755,2026-01-17 17h37.32.903760 +0530,
,Scenes\163a.jpg,109,0,110,,,,,,,j,None,,,1.1276740999892354,0.1351002999872435,,,,110,0,109,598.4961048999976,,,,,,,,,,,,,,,,,,,,,,,,,,,,,,598.480064000003,598.4961048999976,598.9966779999959,598.9795848000213,,,,,,,,,,,,,,,,,,,,,,,,,,598.9905652000161,598.9966779999959,598.9966779999959,598.9966779999959,601.9960974999995,601.9960974999995,601.9960974999995,601.9801382000151,j,601.9801824000024,,,601.9801933999988,None,,,1.1276740999892354,0.1351002999872435,,,,,,,,,,00045,001,2026-01-17_17h37.26.166,MST_task,2024.2.0,60.064713718858755,2026-01-17 17h37.32.903760 +0530,
,Scenes\150a.jpg,110,0,111,,,,,,,j,None,,,0.7392221000045538,0.12897249998059124,,,,111,0,110,601.9960974999995,,,,,,,,,,,,,,,,,,,,,,,,,,,,,,601.9802956000203,601.9960974999995,602.4967649000173,602.4796538000228,,,,,,,,,,,,,,,,,,,,,,,,,,602.4878585000115,602.4967649000173,602.4967649000173,602.4967649000173,605.4966640000057,605.4966640000057,605.4966640000057,605.4799437000183,j,605.4799873000011,,,605.4799983999983,None,,,0.7392221000045538,0.12897249998059124,,,,,,,,,,00045,001,2026-01-17_17h37.26.166,MST_task,2024.2.0,60.064713718858755,2026-01-17 17h37.32.903760 +0530,
,Scenes\084a.jpg,111,0,112,,,,,,,j,None,,,0.7110558999993373,0.14405030000489205,,,,112,0,111,605.4966640000057,,,,,,,,,,,,,,,,,,,,,,,,,,,,,,605.4800958000124,605.4966640000057,605.9967926999961,605.9796668000054,,,,,,,,,,,,,,,,,,,,,,,,,,605.98954770001,605.9967926999961,605.9967926999961,605.9967926999961,608.9961420000182,608.9961420000182,608.9961420000182,608.9800154000113,j,608.9800615000131,,,608.9800727000111,None,,,0.7110558999993373,0.14405030000489205,,,,,,,,,,00045,001,2026-01-17_17h37.26.166,MST_task,2024.2.0,60.064713718858755,2026-01-17 17h37.32.903760 +0530,
,Objects\160a.jpg,112,0,113,,,,,,,f,None,,,0.859124000009615,0.15306640000198968,,,,113,0,112,608.9961420000182,,,,,,,,,,,,,,,,,,,,,,,,,,,,,,608.9801760000119,608.9961420000182,609.496552800003,609.4795888000226,,,,,,,,,,,,,,,,,,,,,,,,,,609.4908954999992,609.496552800003,609.496552800003,609.496552800003,612.4961369000084,612.4961369000084,612.4961369000084,612.479965800012,f,612.481952400005,,,612.4819700000226,None,,,0.859124000009615,0.15306640000198968,,,,,,,,,,00045,001,2026-01-17_17h37.26.166,MST_task,2024.2.0,60.064713718858755,2026-01-17 17h37.32.903760 +0530,
,Objects\089a.jpg,113,0,114,,,,,,,j,None,,,1.399097499990603,0.151839199999813,,,,114,0,113,612.4961369000084,,,,,,,,,,,,,,,,,,,,,,,,,,,,,,612.4820397000003,612.4961369000084,612.9964230000041,612.979508599994,,,,,,,,,,,,,,,,,,,,,,,,,,612.9899590999994,612.9964230000041,612.9964230000041,612.9964230000041,615.9961674000078,615.9961674000078,615.9961674000078,615.9800305000099,j,615.9800778000208,,,615.9800897999958,None,,,1.399097499990603,0.151839199999813,,,,,,,,,,00045,001,2026-01-17_17h37.26.166,MST_task,2024.2.0,60.064713718858755,2026-01-17 17h37.32.903760 +0530,
,Objects\015a.jpg,114,0,115,,,,,,,None,f,0.08459589999984019,None,,,,,,115,0,114,615.9961674000078,,,,,,,,,,,,,,,,,,,,,,,,,,,,,,615.9801994000154,615.9961674000078,616.4963848000043,616.4795771000208,,,,,,,,,,,,,,,,,,,,,,,,,,616.4888247000054,616.4963848000043,616.4963848000043,616.4963848000043,619.4960804000148,619.4960804000148,619.4960804000148,619.4802205000015,None,619.4802596000081,619.4960804000148,619.4960804000148,619.5965826000029,f,0.08459589999984019,None,,,,,,,,,,,,00045,001,2026-01-17_17h37.26.166,MST_task,2024.2.0,60.064713718858755,2026-01-17 17h37.32.903760 +0530,
,Objects\011a.jpg,115,0,116,,,,,,,f,None,,,0.7551626000204124,0.12738580000586808,,,,116,0,115,619.6127368000161,,,,,,,,,,,,,,,,,,,,,,,,,,,,,,619.5966976000054,619.6127368000161,620.112949900009,620.0964026000001,,,,,,,,,,,,,,,,,,,,,,,,,,620.0989272000152,620.112949900009,620.112949900009,620.112949900009,623.1128029999963,623.1128029999963,623.1128029999963,623.0968044000037,f,623.0968549000099,,,623.0968670000148,None,,,0.7551626000204124,0.12738580000586808,,,,,,,,,,00045,001,2026-01-17_17h37.26.166,MST_task,2024.2.0,60.064713718858755,2026-01-17 17h37.32.903760 +0530,
,Objects\144a.jpg,116,0,117,,,,,,,j,None,,,2.1034800999914296,0.13513879998936318,,,,117,0,116,623.1128029999963,,,,,,,,,,,,,,,,,,,,,,,,,,,,,,623.0969363000186,623.1128029999963,623.6129660000151,623.5965202000225,,,,,,,,,,,,,,,,,,,,,,,,,,623.6062141000002,623.6129660000151,623.6129660000151,623.6129660000151,626.6127419999975,626.6127419999975,626.6127419999975,626.5967571000219,j,626.5967986000178,,,626.596809300012,None,,,2.1034800999914296,0.13513879998936318,,,,,,,,,,00045,001,2026-01-17_17h37.26.166,MST_task,2024.2.0,60.064713718858755,2026-01-17 17h37.32.903760 +0530,
,Objects\006a.jpg,117,0,118,,,,,,,f,None,,,0.8982708000112325,0.16015750000951812,,,,118,0,117,626.6127419999975,,,,,,,,,,,,,,,,,,,,,,,,,,,,,,626.5969038000039,626.6127419999975,627.1131557000044,627.0963559000229,,,,,,,,,,,,,,,,,,,,,,,,,,627.1051876000129,627.1131557000044,627.1131557000044,627.1131557000044,630.1127861000132,630.1127861000132,630.1127861000132,630.096789800009,f,630.0968361000123,,,630.0968477000133,None,,,0.8982708000112325,0.16015750000951812,,,,,,,,,,00045,001,2026-01-17_17h37.26.166,MST_task,2024.2.0,60.064713718858755,2026-01-17 17h37.32.903760 +0530,
,Objects\159a.jpg,118,0,119,,,,,,,f,None,,,0.8312375000095926,0.16891410000971518,,,,119,0,118,630.1127861000132,,,,,,,,,,,,,,,,,,,,,,,,,,,,,,630.0969156000065,630.1127861000132,630.6130165000213,630.596391900006,,,,,,,,,,,,,,,,,,,,,,,,,,630.5989364999987,630.6130165000213,630.6130165000213,630.6130165000213,633.6127473000088,633.6127473000088,633.6127473000088,633.5967763000226,f,633.596824600012,,,633.5968360000115,None,,,0.8312375000095926,0.16891410000971518,,,,,,,,,,00045,001,2026-01-17_17h37.26.166,MST_task,2024.2.0,60.064713718858755,2026-01-17 17h37.32.903760 +0530,
,Scenes\189a.jpg,119,0,120,,,,,,,None,j,0.7309580000001006,None,,,,,,120,0,119,633.6127473000088,,,,,,,,,,,,,,,,,,,,,,,,,,,,,,633.5969465000089,633.6127473000088,634.1180335000099,634.0963708000199,,,,,,,,,,,,,,,,,,,,,,,,,,634.1154723000072,634.1180335000099,634.1180335000099,634.1180335000099,,,,637.1130606000079,None,637.1148044000147,637.1293630000146,637.1293630000146,637.8632611000212,j,0.7309580000001006,None,,,,,,,,,,,,00045,001,2026-01-17_17h37.26.166,MST_task,2024.2.0,60.064713718858755,2026-01-17 17h37.32.903760 +0530,
,Scenes\107a.jpg,120,0,121,,,,,,,j,None,,,0.7843404000159353,0.14263270000810735,,,,121,0,120,637.8793195000035,,,,,,,,,,,,,,,,,,,,,,,,,,,,,,637.8633486000181,637.8793195000035,638.3805892000091,638.3630865000014,,,,,,,,,,,,,,,,,,,,,,,,,,638.3779371000128,638.3805892000091,638.3805892000091,638.3805892000091,641.3794602999988,641.3794602999988,641.3794602999988,641.3634994000022,j,641.3635436000186,,,641.3635555000219,None,,,0.7843404000159353,0.14263270000810735,,,,,,,,,,00045,001,2026-01-17_17h37.26.166,MST_task,2024.2.0,60.064713718858755,2026-01-17 17h37.32.903760 +0530,
,Scenes\060a.jpg,121,0,122,,,,,,,j,None,,,0.7310848000051919,0.15995719999773428,,,,122,0,121,641.3794602999988,,,,,,,,,,,,,,,,,,,,,,,,,,,,,,641.3636220000044,641.3794602999988,641.9048754000105,641.8631439000019,,,,,,,,,,,,,,,,,,,,,,,,,,641.9022662000207,641.9048754000105,641.9048754000105,641.9048754000105,,,,644.879697299999,j,644.8797405000078,,,644.8797525000118,None,,,0.7310848000051919,0.15995719999773428,,,,,,,,,,00045,001,2026-01-17_17h37.26.166,MST_task,2024.2.0,60.064713718858755,2026-01-17 17h37.32.903760 +0530,
,Scenes\192a.jpg,122,0,123,,,,,,,j,None,,,0.9033861999923829,0.1434305000002496,,,,123,0,122,644.8962483000068,,,,,,,,,,,,,,,,,,,,,,,,,,,,,,644.8798528000189,644.8962483000068,645.3968076000165,645.3798046000011,,,,,,,,,,,,,,,,,,,,,,,,,,645.3867114000022,645.3968076000165,645.3968076000165,645.3968076000165,648.3961748000002,648.3961748000002,648.3961748000002,648.380141600006,j,648.3801825999981,,,648.3801931000198,None,,,0.9033861999923829,0.1434305000002496,,,,,,,,,,00045,001,2026-01-17_17h37.26.166,MST_task,2024.2.0,60.064713718858755,2026-01-17 17h37.32.903760 +0530,
,Scenes\008a.jpg,123,0,124,,,,,,,j,None,,,0.9955514000030234,0.11994199999026023,,,,124,0,123,648.3961748000002,,,,,,,,,,,,,,,,,,,,,,,,,,,,,,648.3802580000192,648.3961748000002,648.8966917000071,648.8800723000022,,,,,,,,,,,,,,,,,,,,,,,,,,648.8942763000086,648.8966917000071,648.8966917000071,648.8966917000071,651.8964453999943,651.8964453999943,651.8964453999943,651.8800588000158,j,651.8801026000001,,,651.8801134999958,None,,,0.9955514000030234,0.11994199999026023,,,,,,,,,,00045,001,2026-01-17_17h37.26.166,MST_task,2024.2.0,60.064713718858755,2026-01-17 17h37.32.903760 +0530,
,Scenes\003a.jpg,124,0,125,,,,,,,f,None,,,1.227351399982581,0.1284690999891609,,,,125,0,124,651.8964453999943,,,,,,,,,,,,,,,,,,,,,,,,,,,,,,651.8801808000135,651.8964453999943,652.4007171000121,652.3798709000112,,,,,,,,,,,,,,,,,,,,,,,,,,652.3983160000062,652.4007171000121,652.4007171000121,652.4007171000121,,,,655.3964913999953,f,655.3965338999988,,,655.396545399999,None,,,1.227351399982581,0.1284690999891609,,,,,,,,,,00045,001,2026-01-17_17h37.26.166,MST_task,2024.2.0,60.064713718858755,2026-01-17 17h37.32.903760 +0530,
,Scenes\063a.jpg,125,0,126,,,,,,,None,j,0.5391959999979008,None,,,,,,126,0,125,655.4129300000204,,,,,,,,,,,,,,,,,,,,,,,,,,,,,,655.3966437000199,655.4129300000204,655.9151439999987,655.8965232000046,,,,,,,,,,,,,,,,,,,,,,,,,,655.912433999998,655.9151439999987,655.9151439999987,655.9151439999987,,,,658.913183800003,None,658.9132374000037,658.9295689999999,658.9295689999999,659.4800983000023,j,0.5391959999979008,None,,,,,,,,,,,,00045,001,2026-01-17_17h37.26.166,MST_task,2024.2.0,60.064713718858755,2026-01-17 17h37.32.903760 +0530,
,Objects\148a.jpg,126,0,127,,,,,,,f,None,,,1.694556599977659,0.136033300019335,,,,127,0,126,659.496248600015,,,,,,,,,,,,,,,,,,,,,,,,,,,,,,659.4802193000214,659.496248600015,659.9968267000222,659.9797291000141,,,,,,,,,,,,,,,,,,,,,,,,,,659.9852249000105,659.9968267000222,659.9968267000222,659.9968267000222,662.9961851999979,662.9961851999979,662.9961851999979,662.9805941999948,f,662.9825991000107,,,662.9826165999984,None,,,1.694556599977659,0.136033300019335,,,,,,,,,,00045,001,2026-01-17_17h37.26.166,MST_task,2024.2.0,60.064713718858755,2026-01-17 17h37.32.903760 +0530,
,Objects\179a.jpg,127,0,128,,,,,,,f,None,,,0.8038779000053182,0.12711010000202805,,,,128,0,127,662.9961851999979,,,,,,,,,,,,,,,,,,,,,,,,,,,,,,662.9826937000034,662.9961851999979,663.4964511000144,663.4798430000083,,,,,,,,,,,,,,,,,,,,,,,,,,663.4885823000222,663.4964511000144,663.4964511000144,663.4964511000144,666.4962941000122,666.4962941000122,666.4962941000122,666.4803551000077,f,666.4804001000011,,,666.4804110999976,None,,,0.8038779000053182,0.12711010000202805,,,,,,,,,,00045,001,2026-01-17_17h37.26.166,MST_task,2024.2.0,60.064713718858755,2026-01-17 17h37.32.903760 +0530,
,Objects\023a.jpg,128,0,129,,,,,,,f,None,,,0.9438584999879822,0.16714609999326058,,,,129,0,128,666.4962941000122,,,,,,,,,,,,,,,,,,,,,,,,,,,,,,666.4805134000198,666.4962941000122,666.9964822000184,666.9796700000006,,,,,,,,,,,,,,,,,,,,,,,,,,666.9886044000159,666.9964822000184,666.9964822000184,666.9964822000184,669.9962454000197,669.9962454000197,669.9962454000197,669.9801929999958,f,669.9802370000107,,,669.9802481000079,None,,,0.9438584999879822,0.16714609999326058,,,,,,,,,,00045,001,2026-01-17_17h37.26.166,MST_task,2024.2.0,60.064713718858755,2026-01-17 17h37.32.903760 +0530,
,Objects\002a.jpg,129,0,130,,,,,,,f,None,,,1.339478700014297,0.11213279998628423,,,,130,0,129,669.9962454000197,,,,,,,,,,,,,,,,,,,,,,,,,,,,,,669.9803192999971,669.9962454000197,670.4964390000096,670.479794200015,,,,,,,,,,,,,,,,,,,,,,,,,,670.488649100007,670.4964390000096,670.4964390000096,670.4964390000096,673.4962624000036,673.4962624000036,673.4962624000036,673.4802396000014,f,673.480283300014,,,673.4802950000158,None,,,1.339478700014297,0.11213279998628423,,,,,,,,,,00045,001,2026-01-17_17h37.26.166,MST_task,2024.2.0,60.064713718858755,2026-01-17 17h37.32.903760 +0530,
,Objects\071a.jpg,130,0,131,,,,,,,f,None,,,1.1990685999917332,0.14411620001192205,,,,131,0,130,673.4962624000036,,,,,,,,,,,,,,,,,,,,,,,,,,,,,,673.480392700003,673.4962624000036,673.9964237000095,673.9797875000222,,,,,,,,,,,,,,,,,,,,,,,,,,673.9905182000075,673.9964237000095,673.9964237000095,673.9964237000095,676.9962626000051,676.9962626000051,676.9962626000051,676.980069000012,f,676.9801115000155,,,676.9801228000142,None,,,1.1990685999917332,0.14411620001192205,,,,,,,,,,00045,001,2026-01-17_17h37.26.166,MST_task,2024.2.0,60.064713718858755,2026-01-17 17h37.32.903760 +0530,
,Objects\108a.jpg,131,0,132,,,,,,,j,None,,,0.6997171999828424,0.15202599999611266,,,,132,0,131,676.9962626000051,,,,,,,,,,,,,,,,,,,,,,,,,,,,,,676.9802250000066,676.9962626000051,677.4964980000223,677.4799263000023,,,,,,,,,,,,,,,,,,,,,,,,,,677.4889120000007,677.4964980000223,677.4964980000223,677.4964980000223,680.496183100011,680.496183100011,680.496183100011,680.480329700018,j,680.480372799997,,,680.4803841999965,None,,,0.6997171999828424,0.15202599999611266,,,,,,,,,,00045,001,2026-01-17_17h37.26.166,MST_task,2024.2.0,60.064713718858755,2026-01-17 17h37.32.903760 +0530,
,Objects\095a.jpg,132,0,133,,,,,,,f,None,,,1.2316799999971408,0.1444185999862384,,,,133,0,132,680.496183100011,,,,,,,,,,,,,,,,,,,,,,,,,,,,,,680.4804842000012,680.496183100011,680.9965946000011,680.9798206000123,,,,,,,,,,,,,,,,,,,,,,,,,,680.9827135000087,680.9965946000011,680.9965946000011,680.9965946000011,683.9961536000192,683.9961536000192,683.9961536000192,683.9801181000075,f,683.9801752000058,,,683.9801881000167,None,,,1.2316799999971408,0.1444185999862384,,,,,,,,,,00045,001,2026-01-17_17h37.26.166,MST_task,2024.2.0,60.064713718858755,2026-01-17 17h37.32.903760 +0530,
,Scenes\041a.jpg,133,0,134,,,,,,,j,None,,,1.3576095000025816,0.12921459999051876,,,,134,0,133,683.9961536000192,,,,,,,,,,,,,,,,,,,,,,,,,,,,,,683.9802910000144,683.9961536000192,684.501837799995,684.4798816000111,,,,,,,,,,,,,,,,,,,,,,,,,,684.4991191000154,684.501837799995,684.501837799995,684.501837799995,,,,687.4963565000216,j,687.497959100001,,,687.4979874000128,None,,,1.3576095000025816,0.12921459999051876,,,,,,,,,,00045,001,2026-01-17_17h37.26.166,MST_task,2024.2.0,60.064713718858755,2026-01-17 17h37.32.903760 +0530,
,Scenes\077a.jpg,134,0,135,,,,,,,j,None,,,2.7331522000022233,0.12802090001059696,,,,135,0,134,687.5129462000041,,,,,,,,,,,,,,,,,,,,,,,,,,,,,,687.4980613000225,687.5129462000041,688.0149492000055,687.996350100002,,,,,,,,,,,,,,,,,,,,,,,,,,688.0125520000001,688.0149492000055,688.0149492000055,688.0149492000055,,,,691.0131310000143,j,691.013175,,,691.0131870000041,None,,,2.7331522000022233,0.12802090001059696,,,,,,,,,,00045,001,2026-01-17_17h37.26.166,MST_task,2024.2.0,60.064713718858755,2026-01-17 17h37.32.903760 +0530,
,Scenes\171a.jpg,135,0,136,,,,,,,None,j,0.338908600009745,None,,,,,,136,0,135,691.0295450999984,,,,,,,,,,,,,,,,,,,,,,,,,,,,,,691.0132555000018,691.0295450999984,691.5302081000118,691.5131432000198,,,,,,,,,,,,,,,,,,,,,,,,,,691.5242100000032,691.5302081000118,691.5302081000118,691.5302081000118,694.5295184999995,694.5295184999995,694.5295184999995,694.513363200007,None,694.5134017000091,694.5295184999995,694.5295184999995,694.8798879999958,j,0.338908600009745,None,,,,,,,,,,,,00045,001,2026-01-17_17h37.26.166,MST_task,2024.2.0,60.064713718858755,2026-01-17 17h37.32.903760 +0530,
,Scenes\174a.jpg,136,0,137,,,,,,,j,None,,,0.927108900010353,0.12807810000958852,,,,137,0,136,694.8962744000019,,,,,,,,,,,,,,,,,,,,,,,,,,,,,,694.880009400018,694.8962744000019,695.3970259000198,695.3797156000219,,,,,,,,,,,,,,,,,,,,,,,,,,695.389917499997,695.3970259000198,695.3970259000198,695.3970259000198,698.3961963000183,698.3961963000183,698.3961963000183,698.3801474000211,j,698.3801912000054,,,698.3802029000071,None,,,0.927108900010353,0.12807810000958852,,,,,,,,,,00045,001,2026-01-17_17h37.26.166,MST_task,2024.2.0,60.064713718858755,2026-01-17 17h37.32.903760 +0530,
,Scenes\167a.jpg,137,0,138,,,,,,,f,None,,,0.8249649999779649,0.1450986000127159,,,,138,0,137,698.3961963000183,,,,,,,,,,,,,,,,,,,,,,,,,,,,,,698.3802701999957,698.3961963000183,698.8986343000142,698.8799892000097,,,,,,,,,,,,,,,,,,,,,,,,,,698.8960963000136,698.8986343000142,698.8986343000142,698.8986343000142,,,,701.896365499997,f,701.8964134000125,,,701.8964255000174,None,,,0.8249649999779649,0.1450986000127159,,,,,,,,,,00045,001,2026-01-17_17h37.26.166,MST_task,2024.2.0,60.064713718858755,2026-01-17 17h37.32.903760 +0530,
,Scenes\002a.jpg,138,0,139,,,,,,,j,None,,,1.990449399978388,0.15202189999399707,,,,139,0,138,701.9128228000191,,,,,,,,,,,,,,,,,,,,,,,,,,,,,,701.8965277000098,701.9128228000191,702.4135874000203,702.3965612000029,,,,,,,,,,,,,,,,,,,,,,,,,,702.4074213000131,702.4135874000203,702.4135874000203,702.4135874000203,705.4128270000219,705.4128270000219,705.4128270000219,705.3968637000071,j,705.3969096000073,,,705.3969211000076,None,,,1.990449399978388,0.15202189999399707,,,,,,,,,,00045,001,2026-01-17_17h37.26.166,MST_task,2024.2.0,60.064713718858755,2026-01-17 17h37.32.903760 +0530,
,Scenes\023a.jpg,139,0,140,,,,,,,f,None,,,1.8389513999863993,0.14356910000788048,,,,140,0,139,705.4128270000219,,,,,,,,,,,,,,,,,,,,,,,,,,,,,,705.3970384999993,705.4128270000219,705.9174087000138,705.8964089000074,,,,,,,,,,,,,,,,,,,,,,,,,,705.9148292000173,705.9174087000138,705.9174087000138,705.9174087000138,,,,708.9131183999998,f,708.9131615000078,,,708.9131738000142,None,,,1.8389513999863993,0.14356910000788048,,,,,,,,,,00045,001,2026-01-17_17h37.26.166,MST_task,2024.2.0,60.064713718858755,2026-01-17 17h37.32.903760 +0530,
,Objects\110a.jpg,140,0,141,,,,,,,f,None,,,1.1579335000133142,0.17700879997573793,,,,141,0,140,708.9293146000127,,,,,,,,,,,,,,,,,,,,,,,,,,,,,,708.9132750999997,708.9293146000127,709.4300432000018,709.4132938999974,,,,,,,,,,,,,,,,,,,,,,,,,,709.4188262000098,709.4300432000018,709.4300432000018,709.4300432000018,712.429566900013,712.429566900013,712.429566900013,712.413867700001,f,712.4160806,,,712.4161044000066,None,,,1.1579335000133142,0.17700879997573793,,,,,,,,,,00045,001,2026-01-17_17h37.26.166,MST_task,2024.2.0,60.064713718858755,2026-01-17 17h37.32.903760 +0530,
,Objects\107a.jpg,141,0,142,,,,,,,j,None,,,0.842078899993794,0.16000209999037907,,,,142,0,141,712.429566900013,,,,,,,,,,,,,,,,,,,,,,,,,,,,,,712.4161844000046,712.429566900013,712.9296550000145,712.9131225000019,,,,,,,,,,,,,,,,,,,,,,,,,,712.9156722000043,712.9296550000145,712.9296550000145,712.9296550000145,715.9295070999942,715.9295070999942,715.9295070999942,715.913483100012,j,715.9135261000192,,,715.9135375000187,None,,,0.842078899993794,0.16000209999037907,,,,,,,,,,00045,001,2026-01-17_17h37.26.166,MST_task,2024.2.0,60.064713718858755,2026-01-17 17h37.32.903760 +0530,
,Objects\021a.jpg,142,0,143,,,,,,,f,None,,,2.1745413999888115,0.13599909999174997,,,,143,0,142,715.9295070999942,,,,,,,,,,,,,,,,,,,,,,,,,,,,,,715.9136391000065,715.9295070999942,716.4297629000212,716.4131241000141,,,,,,,,,,,,,,,,,,,,,,,,,,716.422936100018,716.4297629000212,716.4297629000212,716.4297629000212,719.4293564000109,719.4293564000109,719.4293564000109,719.4134821000043,f,719.4135248000093,,,719.4135361000081,None,,,2.1745413999888115,0.13599909999174997,,,,,,,,,,00045,001,2026-01-17_17h37.26.166,MST_task,2024.2.0,60.064713718858755,2026-01-17 17h37.32.903760 +0530,
,Objects\064a.jpg,143,0,144,,,,,,,f,None,,,0.8180592000135221,0.1690746000094805,,,,144,0,143,719.4293564000109,,,,,,,,,,,,,,,,,,,,,,,,,,,,,,719.4136020000151,719.4293564000109,719.9296261999989,719.9130901000171,,,,,,,,,,,,,,,,,,,,,,,,,,719.9155485999945,719.9296261999989,719.9296261999989,719.9296261999989,722.9293560000078,722.9293560000078,722.9293560000078,722.9134800000174,f,722.913524500007,,,722.9135354000027,None,,,0.8180592000135221,0.1690746000094805,,,,,,,,,,00045,001,2026-01-17_17h37.26.166,MST_task,2024.2.0,60.064713718858755,2026-01-17 17h37.32.903760 +0530,
,Objects\135a.jpg,144,0,145,,,,,,,j,None,,,2.13454840000486,0.09618189997854643,,,,145,0,144,722.9293560000078,,,,,,,,,,,,,,,,,,,,,,,,,,,,,,722.9136350000044,722.9293560000078,723.4295866000175,723.4131135000207,,,,,,,,,,,,,,,,,,,,,,,,,,723.4226754000119,723.4295866000175,723.4295866000175,723.4295866000175,726.429381599999,726.429381599999,726.429381599999,726.4135616999993,j,726.413606600021,,,726.4136177000182,None,,,2.13454840000486,0.09618189997854643,,,,,,,,,,00045,001,2026-01-17_17h37.26.166,MST_task,2024.2.0,60.064713718858755,2026-01-17 17h37.32.903760 +0530,
,Objects\068a.jpg,145,0,146,,,,,,,j,None,,,1.65146189997904,0.11845400001038797,,,,146,0,145,726.429381599999,,,,,,,,,,,,,,,,,,,,,,,,,,,,,,726.4137248000188,726.429381599999,726.9297000000079,726.9130738000094,,,,,,,,,,,,,,,,,,,,,,,,,,726.9154973000113,726.9297000000079,726.9297000000079,726.9297000000079,729.9294384999957,729.9294384999957,729.9294384999957,729.9133993000141,j,729.9134411000123,,,729.9134523000102,None,,,1.65146189997904,0.11845400001038797,,,,,,,,,,00045,001,2026-01-17_17h37.26.166,MST_task,2024.2.0,60.064713718858755,2026-01-17 17h37.32.903760 +0530,
,Objects\013a.jpg,146,0,147,,,,,,,None,f,0.8475586000131443,None,,,,,,147,0,146,729.9294384999957,,,,,,,,,,,,,,,,,,,,,,,,,,,,,,729.913517900015,729.9294384999957,730.4296804000041,730.4131471000146,,,,,,,,,,,,,,,,,,,,,,,,,,730.4224875000073,730.4296804000041,730.4296804000041,730.4296804000041,733.4293622999976,733.4293622999976,733.4293622999976,733.4133889000223,None,733.4134286000044,733.4293622999976,733.4293622999976,734.2802742000204,f,0.8475586000131443,None,,,,,,,,,,,,00045,001,2026-01-17_17h37.26.166,MST_task,2024.2.0,60.064713718858755,2026-01-17 17h37.32.903760 +0530,
,Scenes\110a.jpg,147,0,148,,,,,,,j,None,,,1.2509918000141624,0.12023369999951683,,,,148,0,147,734.2960922000057,,,,,,,,,,,,,,,,,,,,,,,,,,,,,,734.2803599000035,734.2960922000057,734.8006539000198,734.7796144000022,,,,,,,,,,,,,,,,,,,,,,,,,,734.7982605000143,734.8006539000198,734.8006539000198,734.8006539000198,,,,737.7963584999961,j,737.7979762000032,,,737.7979953000031,None,,,1.2509918000141624,0.12023369999951683,,,,,,,,,,00045,001,2026-01-17_17h37.26.166,MST_task,2024.2.0,60.064713718858755,2026-01-17 17h37.32.903760 +0530,
,Scenes\178a.jpg,148,0,149,,,,,,,j,None,,,1.8198374999919906,0.09499320000759326,,,,149,0,148,737.8128416000109,,,,,,,,,,,,,,,,,,,,,,,,,,,,,,737.7981010000221,737.8128416000109,738.3134452000086,738.2963930999977,,,,,,,,,,,,,,,,,,,,,,,,,,738.3100824000139,738.3134452000086,738.3134452000086,738.3134452000086,741.3128409000055,741.3128409000055,741.3128409000055,741.2968379000085,j,741.2968808000151,,,741.2968921000138,None,,,1.8198374999919906,0.09499320000759326,,,,,,,,,,00045,001,2026-01-17_17h37.26.166,MST_task,2024.2.0,60.064713718858755,2026-01-17 17h37.32.903760 +0530,
,Scenes\080a.jpg,149,0,150,,,,,,,j,None,,,1.2140687000064645,0.13715850000153296,,,,150,0,149,741.3128409000055,,,,,,,,,,,,,,,,,,,,,,,,,,,,,,741.2969601000077,741.3128409000055,741.8134744999988,741.7964072000177,,,,,,,,,,,,,,,,,,,,,,,,,,741.8031079000211,741.8134744999988,741.8134744999988,741.8134744999988,744.8128416000109,744.8128416000109,744.8128416000109,744.796688500006,j,744.7967317000148,,,744.7967427000112,None,,,1.2140687000064645,0.13715850000153296,,,,,,,,,,00045,001,2026-01-17_17h37.26.166,MST_task,2024.2.0,60.064713718858755,2026-01-17 17h37.32.903760 +0530,
,Scenes\186a.jpg,150,0,151,,,,,,,j,None,,,1.674339899996994,0.09630370000377297,,,,151,0,150,744.8128416000109,,,,,,,,,,,,,,,,,,,,,,,,,,,,,,744.7968407000008,744.8128416000109,745.3133837000059,745.2963811000227,,,,,,,,,,,,,,,,,,,,,,,,,,745.3029104000016,745.3133837000059,745.3133837000059,745.3133837000059,748.3128463000176,748.3128463000176,748.3128463000176,748.2966517000168,j,748.2966937000165,,,748.2967050000152,None,,,1.674339899996994,0.09630370000377297,,,,,,,,,,00045,001,2026-01-17_17h37.26.166,MST_task,2024.2.0,60.064713718858755,2026-01-17 17h37.32.903760 +0530,
,Scenes\169a.jpg,151,0,152,,,,,,,j,None,,,0.6627825000032317,0.12010080000618473,,,,152,0,151,748.3128463000176,,,,,,,,,,,,,,,,,,,,,,,,,,,,,,748.2967697000131,748.3128463000176,748.8134209999989,748.7964323000051,,,,,,,,,,,,,,,,,,,,,,,,,,748.8036180000054,748.8134209999989,748.8134209999989,748.8134209999989,751.8128171999997,751.8128171999997,751.8128171999997,751.7969209000003,j,751.7969783000008,,,751.796989399998,None,,,0.6627825000032317,0.12010080000618473,,,,,,,,,,00045,001,2026-01-17_17h37.26.166,MST_task,2024.2.0,60.064713718858755,2026-01-17 17h37.32.903760 +0530,
,Scenes\165a.jpg,152,0,153,,,,,,,f,None,,,1.1223687000165228,0.1761763999820687,,,,153,0,152,751.8128171999997,,,,,,,,,,,,,,,,,,,,,,,,,,,,,,751.7970556000073,751.8128171999997,752.3136375000176,752.296624700015,,,,,,,,,,,,,,,,,,,,,,,,,,752.3071011000138,752.3136375000176,752.3136375000176,752.3136375000176,755.3127892000193,755.3127892000193,755.3127892000193,755.2967670000216,f,755.2968104000029,,,755.2968213999993,None,,,1.1223687000165228,0.1761763999820687,,,,,,,,,,00045,001,2026-01-17_17h37.26.166,MST_task,2024.2.0,60.064713718858755,2026-01-17 17h37.32.903760 +0530,
,Scenes\088a.jpg,153,0,154,,,,,,,j,None,,,1.0241658000159077,0.13657360000070184,,,,154,0,153,755.3127892000193,,,,,,,,,,,,,,,,,,,,,,,,,,,,,,755.2968869000033,755.3127892000193,755.8194234000111,755.7964758000162,,,,,,,,,,,,,,,,,,,,,,,,,,755.8164485000016,755.8194234000111,755.8194234000111,755.8194234000111,,,,758.8131111999974,j,758.813155300013,,,758.8131667000125,None,,,1.0241658000159077,0.13657360000070184,,,,,,,,,,00045,001,2026-01-17_17h37.26.166,MST_task,2024.2.0,60.064713718858755,2026-01-17 17h37.32.903760 +0530,
,Objects\109a.jpg,154,0,155,,,,,,,j,None,,,1.7062992999854032,0.12698510001064278,,,,155,0,154,758.8293751000019,,,,,,,,,,,,,,,,,,,,,,,,,,,,,,758.813278400019,758.8293751000019,759.3300283999997,759.3133598999993,,,,,,,,,,,,,,,,,,,,,,,,,,759.3191171000071,759.3300283999997,759.3300283999997,759.3300283999997,762.3296120000014,762.3296120000014,762.3296120000014,762.313495600014,j,762.3155525000184,,,762.3155722000229,None,,,1.7062992999854032,0.12698510001064278,,,,,,,,,,00045,001,2026-01-17_17h37.26.166,MST_task,2024.2.0,60.064713718858755,2026-01-17 17h37.32.903760 +0530,
,Objects\019a.jpg,155,0,156,,,,,,,j,None,,,1.221561100013787,0.12850170000456274,,,,156,0,155,762.3296120000014,,,,,,,,,,,,,,,,,,,,,,,,,,,,,,762.315677800012,762.3296120000014,762.8298229000065,762.8131190999993,,,,,,,,,,,,,,,,,,,,,,,,,,762.8159151000145,762.8298229000065,762.8298229000065,762.8298229000065,765.8295555000077,765.8295555000077,765.8295555000077,765.8135129000002,j,765.8135583999974,,,765.8135695999954,None,,,1.221561100013787,0.12850170000456274,,,,,,,,,,00045,001,2026-01-17_17h37.26.166,MST_task,2024.2.0,60.064713718858755,2026-01-17 17h37.32.903760 +0530,
,Objects\078a.jpg,156,0,157,,,,,,,j,None,,,2.610570800025016,0.1354830999916885,,,,157,0,156,765.8295555000077,,,,,,,,,,,,,,,,,,,,,,,,,,,,,,765.8136363000085,765.8295555000077,766.3298456000048,766.3132177000225,,,,,,,,,,,,,,,,,,,,,,,,,,766.3223662000091,766.3298456000048,766.3298456000048,766.3298456000048,769.3295412000152,769.3295412000152,769.3295412000152,769.3135228000174,j,769.3135698999977,,,769.3135811999964,None,,,2.610570800025016,0.1354830999916885,,,,,,,,,,00045,001,2026-01-17_17h37.26.166,MST_task,2024.2.0,60.064713718858755,2026-01-17 17h37.32.903760 +0530,
