Sl_no,image_path,thisN,thisTrialN,thisRepN,key_resp_5.keys,key_resp_7.keys,key_resp_7.rt,key_resp_7.duration,key_resp_5.rt,key_resp_5.duration,key_resp_9.keys,key_resp_8.keys,key_resp_8.rt,key_resp_8.duration,key_resp_9.rt,key_resp_9.duration,practice.thisRepN,practice.thisTrialN,practice.thisN,trials.thisRepN,trials.thisTrialN,trials.thisN,thisRow.t,notes,welcome_page.started,text.started,key_resp.started,welcome_page.stopped,key_resp.keys,key_resp.rt,key_resp.duration,instructions.started,ins.started,key_resp_2.started,instructions.stopped,key_resp_2.keys,key_resp_2.rt,key_resp_2.duration,instructions_2.started,text_10.started,key_resp_10.started,instructions_2.stopped,key_resp_10.keys,key_resp_10.rt,key_resp_10.duration,objects_only_instruction.started,text_3.started,key_resp_3.started,objects_only_instruction.stopped,key_resp_3.keys,key_resp_3.rt,key_resp_3.duration,ISI.started,text_4.started,text_4.stopped,ISI.stopped,practice_block.started,image.started,text_5.started,key_resp_5.started,practice_block.stopped,practice.key_resp_5.keys,indoor_outdoor.started,text_7.started,key_resp_7.started,indoor_outdoor.stopped,practice.key_resp_7.keys,practice.key_resp_7.rt,practice.key_resp_7.duration,image.stopped,text_5.stopped,key_resp_5.stopped,practice.key_resp_5.rt,practice.key_resp_5.duration,practice_to_main.started,text_2.started,key_resp_4.started,practice_to_main.stopped,key_resp_4.keys,key_resp_4.rt,key_resp_4.duration,objects.started,image_2.started,text_9.started,key_resp_9.started,objects.stopped,trials.key_resp_9.keys,encoding_task.started,text_8.started,key_resp_8.started,encoding_task.stopped,trials.key_resp_8.keys,trials.key_resp_8.rt,trials.key_resp_8.duration,image_2.stopped,text_9.stopped,key_resp_9.stopped,trials.key_resp_9.rt,trials.key_resp_9.duration,end_experiment.started,text_6.started,key_resp_6.started,end_experiment.stopped,key_resp_6.keys,key_resp_6.rt,key_resp_6.duration,list_of_stimuli,encoding_task_accuracy,participant,session,date,expName,psychopyVersion,frameRate,expStart,
,,,,,,,,,,,,,,,,,,,,,,,,,0.0012658999767154455,0.0028449000092223287,0.0028449000092223287,13.212995300011244,space,13.207953600038309,None,,,,,,,,,,,,,,,,,,,,,,,,,,,,,,,,,,,,,,,,,,,,,,,,,,,,,,,,,,,,,,,,,,,,,,,,,,,,,,00049,001,2026-01-18_12h17.50.288,MST_task,2024.2.0,60.22993378611777,2026-01-18 12h30.06.208200 +0530,
,,,,,,,,,,,,,,,,,,,,,,,,,,,,,,,,13.213025900011417,13.228935200022534,13.228935200022534,27.44628560001729,space,14.206443800008856,None,,,,,,,,,,,,,,,,,,,,,,,,,,,,,,,,,,,,,,,,,,,,,,,,,,,,,,,,,,,,,,,,,,,,,,,00049,001,2026-01-18_12h17.50.288,MST_task,2024.2.0,60.22993378611777,2026-01-18 12h30.06.208200 +0530,
,,,,,,,,,,,,,,,,,,,,,,,,,,,,,,,,,,,,,,,27.446312799991574,27.46248360001482,27.46248360001482,41.34620759997051,space,13.877312800032087,None,,,,,,,,,,,,,,,,,,,,,,,,,,,,,,,,,,,,,,,,,,,,,,,,,,,,,,,,,,,,,,,,00049,001,2026-01-18_12h17.50.288,MST_task,2024.2.0,60.22993378611777,2026-01-18 12h30.06.208200 +0530,
,,,,,,,,,,,,,,,,,,,,,,,,,,,,,,,,,,,,,,,,,,,,,,41.34623929997906,41.36252169997897,41.36252169997897,70.62947039998835,space,29.256221699994057,None,,,,,,,,,,,,,,,,,,,,,,,,,,,,,,,,,,,,,,,,,,,,,,,,,,,,,,,,,00049,001,2026-01-18_12h17.50.288,MST_task,2024.2.0,60.22993378611777,2026-01-18 12h30.06.208200 +0530,
3,practice_images/037a.jpg,0,0,1,None,f,2.033144099987112,None,,,,,,,,,1,0,0,,,,70.64616659999592,,,,,,,,,,,,,,,,,,,,,,,,,,,,,,70.6443014999968,70.64616659999592,71.15291519998573,71.12937619996956,71.14201680000406,71.15291519998573,71.15291519998573,71.15291519998573,74.14597289997619,None,74.14774970000144,74.16242060001241,74.16242060001241,76.19608959998004,f,2.033144099987112,None,,,,,,,,,,,,,,,,,,,,,,,,,,,,,,,,,,,,,,,,00049,001,2026-01-18_12h17.50.288,MST_task,2024.2.0,60.22993378611777,2026-01-18 12h30.06.208200 +0530,
7,practice_images/166a.jpg,1,1,1,None,f,0.395445300033316,None,,,,,,,,,1,1,1,,,,76.21241079998435,,,,,,,,,,,,,,,,,,,,,,,,,,,,,,76.19617519999156,76.21241079998435,76.7126085999771,76.69616250001127,76.70537869998952,76.7126085999771,76.7126085999771,76.7126085999771,79.69614969997201,None,79.69618420000188,79.71237879997352,79.71237879997352,80.11277730000438,f,0.395445300033316,None,79.71237879997352,79.71237879997352,79.71237879997352,,,,,,,,,,,,,,,,,,,,,,,,,,,,,,,,,,,,,00049,001,2026-01-18_12h17.50.288,MST_task,2024.2.0,60.22993378611777,2026-01-18 12h30.06.208200 +0530,
9,practice_images/180a.jpg,2,2,1,None,f,0.37452610000036657,None,,,,,,,,,1,2,2,,,,80.12890529999277,,,,,,,,,,,,,,,,,,,,,,,,,,,,,,80.11286090000067,80.12890529999277,80.62905489996774,80.6126559000113,80.62098040001001,80.62905489996774,80.62905489996774,80.62905489996774,83.61296240001684,None,83.61299839999992,83.62899270001799,83.62899270001799,84.01280740002403,f,0.37452610000036657,None,83.62899270001799,83.62899270001799,83.62899270001799,,,,,,,,,,,,,,,,,,,,,,,,,,,,,,,,,,,,,00049,001,2026-01-18_12h17.50.288,MST_task,2024.2.0,60.22993378611777,2026-01-18 12h30.06.208200 +0530,
8,practice_images/178a.jpg,3,3,1,None,j,0.37778169999364763,None,,,,,,,,,1,3,3,,,,84.02898250002181,,,,,,,,,,,,,,,,,,,,,,,,,,,,,,84.01288809999824,84.02898250002181,84.52906859997893,84.51276339998003,84.52144260000205,84.52906859997893,84.52906859997893,84.52906859997893,87.51292930002091,None,87.51297199999681,87.52891599998111,87.52891599998111,87.91286219999893,j,0.37778169999364763,None,87.52891599998111,87.52891599998111,87.52891599998111,,,,,,,,,,,,,,,,,,,,,,,,,,,,,,,,,,,,,00049,001,2026-01-18_12h17.50.288,MST_task,2024.2.0,60.22993378611777,2026-01-18 12h30.06.208200 +0530,
2,practice_images/031a.jpg,4,4,1,f,None,,,1.0294864000170492,0.09630729997297749,,,,,,,1,4,4,,,,87.92891409998992,,,,,,,,,,,,,,,,,,,,,,,,,,,,,,87.91294539999217,87.92891409998992,88.42919080000138,88.41265760001261,88.42102940002223,88.42919080000138,88.42919080000138,88.42919080000138,91.41277649998665,f,91.4128143999842,,,91.41282749996753,None,,,91.42894130002242,91.42894130002242,91.42894130002242,1.0294864000170492,0.09630729997297749,,,,,,,,,,,,,,,,,,,,,,,,,,,,,,,,,,,00049,001,2026-01-18_12h17.50.288,MST_task,2024.2.0,60.22993378611777,2026-01-18 12h30.06.208200 +0530,
1,practice_images/013a.jpg,5,5,1,j,None,,,2.225727100041695,0.11184729996602982,,,,,,,1,5,5,,,,91.42894130002242,,,,,,,,,,,,,,,,,,,,,,,,,,,,,,91.41289470001357,91.42894130002242,91.92948240000987,91.91284279996762,91.92522949998965,91.92948240000987,91.92948240000987,91.92948240000987,94.91279440000653,j,94.91552109998884,,,94.915539300011,None,,,94.92889739997918,94.92889739997918,94.92889739997918,2.225727100041695,0.11184729996602982,,,,,,,,,,,,,,,,,,,,,,,,,,,,,,,,,,,00049,001,2026-01-18_12h17.50.288,MST_task,2024.2.0,60.22993378611777,2026-01-18 12h30.06.208200 +0530,
5,practice_images/139a.jpg,6,6,1,None,f,1.7819335999665782,None,,,,,,,,,1,6,6,,,,94.92889739997918,,,,,,,,,,,,,,,,,,,,,,,,,,,,,,94.91560609999578,94.92889739997918,95.42927550000604,95.41258070000913,95.42140069999732,95.42927550000604,95.42927550000604,95.42927550000604,98.41282650001813,None,98.41286129999207,98.42893390002428,98.42893390002428,100.21288000000641,f,1.7819335999665782,None,98.42893390002428,98.42893390002428,98.42893390002428,,,,,,,,,,,,,,,,,,,,,,,,,,,,,,,,,,,,,00049,001,2026-01-18_12h17.50.288,MST_task,2024.2.0,60.22993378611777,2026-01-18 12h30.06.208200 +0530,
4,practice_images/002b.jpg,7,7,1,None,j,0.8578093000105582,None,,,,,,,,,1,7,7,,,,100.22887400002219,,,,,,,,,,,,,,,,,,,,,,,,,,,,,,100.21296739997342,100.22887400002219,100.72923860000446,100.71265180001501,100.72155780001776,100.72923860000446,100.72923860000446,100.72923860000446,103.71289000002434,None,103.71292570000514,103.72897130000638,103.72897130000638,104.5961470999755,j,0.8578093000105582,None,103.72897130000638,103.72897130000638,103.72897130000638,,,,,,,,,,,,,,,,,,,,,,,,,,,,,,,,,,,,,00049,001,2026-01-18_12h17.50.288,MST_task,2024.2.0,60.22993378611777,2026-01-18 12h30.06.208200 +0530,
6,practice_images/158a.jpg,8,8,1,None,j,0.5879538000444882,None,,,,,,,,,1,8,8,,,,104.61237669998081,,,,,,,,,,,,,,,,,,,,,,,,,,,,,,104.59623249998549,104.61237669998081,105.11254950001603,105.09597010002472,105.1044085000176,105.11254950001603,105.11254950001603,105.11254950001603,108.09606239997083,None,108.09609439998167,108.11240320000798,108.11240320000798,108.71285999997053,j,0.5879538000444882,None,108.11240320000798,108.11240320000798,108.11240320000798,,,,,,,,,,,,,,,,,,,,,,,,,,,,,,,,,,,,,00049,001,2026-01-18_12h17.50.288,MST_task,2024.2.0,60.22993378611777,2026-01-18 12h30.06.208200 +0530,
10,practice_images/182a.jpg,9,9,1,None,f,0.29422909999266267,None,,,,,,,,,1,9,9,,,,108.72899939998752,,,,,,,,,,,,,,,,,,,,,,,,,,,,,,108.71295020001708,108.72899939998752,109.22910930000944,109.21266079996713,109.22096629999578,109.22910930000944,109.22910930000944,109.22910930000944,112.21289179997984,None,112.21292560000438,112.22912779997569,112.22912779997569,112.52945269999327,f,0.29422909999266267,None,112.22912779997569,112.22912779997569,112.22912779997569,,,,,,,,,,,,,,,,,,,,,,,,,,,,,,,,,,,,,00049,001,2026-01-18_12h17.50.288,MST_task,2024.2.0,60.22993378611777,2026-01-18 12h30.06.208200 +0530,
,,,,,,,,,,,,,,,,,,,,,,,,,,,,,,,,,,,,,,,,,,,,,,,,,,,,,,,,,,,,,,,,,,,,,,,,,,,112.52951339998981,112.54574699996738,112.54574699996738,142.37939879996702,space,29.825932500010822,None,,,,,,,,,,,,,,,,,,,,,,,,,,,,00049,001,2026-01-18_12h17.50.288,MST_task,2024.2.0,60.22993378611777,2026-01-18 12h30.06.208200 +0530,
,Objects\167a.jpg,0,0,1,,,,,,,None,f,0.9082039000350051,None,,,,,,1,0,0,142.39570719999028,,,,,,,,,,,,,,,,,,,,,,,,,,,,,,142.3802016999689,142.39570719999028,142.90323409996927,142.87951180001255,,,,,,,,,,,,,,,,,,,,,,,,,,142.90001819998724,142.90323409996927,142.90323409996927,142.90323409996927,145.8798042999697,None,145.88307209999766,145.8957548000035,145.8957548000035,146.8129595000064,f,0.9082039000350051,None,,,,,,,,,,,,,,,00049,001,2026-01-18_12h17.50.288,MST_task,2024.2.0,60.22993378611777,2026-01-18 12h30.06.208200 +0530,
,Objects\151a.jpg,1,0,2,,,,,,,f,None,,,2.441883699968457,0.11207530001411214,,,,2,0,1,146.82906949997414,,,,,,,,,,,,,,,,,,,,,,,,,,,,,,146.81304709997494,146.82906949997414,147.3293348000152,147.31265089998487,,,,,,,,,,,,,,,,,,,,,,,,,,147.3225118999835,147.3293348000152,147.3293348000152,147.3293348000152,150.31304400000954,f,150.3130877999938,,,150.31309900002088,None,,,150.32916099997237,150.32916099997237,150.32916099997237,2.441883699968457,0.11207530001411214,,,,,,,,,,00049,001,2026-01-18_12h17.50.288,MST_task,2024.2.0,60.22993378611777,2026-01-18 12h30.06.208200 +0530,
,Objects\018a.jpg,2,0,3,,,,,,,f,None,,,1.4376647000317462,0.11206249997485429,,,,3,0,2,150.32916099997237,,,,,,,,,,,,,,,,,,,,,,,,,,,,,,150.31316499999957,150.32916099997237,150.82945369998924,150.812772699981,,,,,,,,,,,,,,,,,,,,,,,,,,150.82321349997073,150.82945369998924,150.82945369998924,150.82945369998924,153.81294510001317,f,153.81298960000277,,,153.81300049996935,None,,,153.8291611999739,153.8291611999739,153.8291611999739,1.4376647000317462,0.11206249997485429,,,,,,,,,,00049,001,2026-01-18_12h17.50.288,MST_task,2024.2.0,60.22993378611777,2026-01-18 12h30.06.208200 +0530,
,Objects\138a.jpg,3,0,4,,,,,,,None,j,0.2494173999875784,None,,,,,,4,0,3,153.8291611999739,,,,,,,,,,,,,,,,,,,,,,,,,,,,,,153.8130642999895,153.8291611999739,154.32942470000125,154.31272699998226,,,,,,,,,,,,,,,,,,,,,,,,,,154.3229636999895,154.32942470000125,154.32942470000125,154.32942470000125,157.31308300001547,None,157.31312319997232,157.3291066000238,157.3291066000238,157.57962879998377,j,0.2494173999875784,None,157.3291066000238,157.3291066000238,157.3291066000238,,,,,,,,,,,,00049,001,2026-01-18_12h17.50.288,MST_task,2024.2.0,60.22993378611777,2026-01-18 12h30.06.208200 +0530,
,Objects\044a.jpg,4,0,5,,,,,,,None,f,0.0674021000158973,None,,,,,,5,0,4,157.59581710002385,,,,,,,,,,,,,,,,,,,,,,,,,,,,,,157.5797443999909,157.59581710002385,158.09596329997294,158.0792845999822,,,,,,,,,,,,,,,,,,,,,,,,,,158.08919550001156,158.09596329997294,158.09596329997294,158.09596329997294,161.07962079998106,None,161.07965909998165,161.0957664999878,161.0957664999878,161.17939790000673,f,0.0674021000158973,None,161.0957664999878,161.0957664999878,161.0957664999878,,,,,,,,,,,,00049,001,2026-01-18_12h17.50.288,MST_task,2024.2.0,60.22993378611777,2026-01-18 12h30.06.208200 +0530,
,Objects\006a.jpg,5,0,6,,,,,,,f,None,,,2.1399103999719955,0.10293750005075708,,,,6,0,5,161.1957367999712,,,,,,,,,,,,,,,,,,,,,,,,,,,,,,161.1794813000015,161.1957367999712,161.6959460999933,161.6792699000216,,,,,,,,,,,,,,,,,,,,,,,,,,161.68888979998883,161.6959460999933,161.6959460999933,161.6959460999933,164.6798020999995,f,164.67985259997658,,,164.6798650000128,None,,,164.69580879999558,164.69580879999558,164.69580879999558,2.1399103999719955,0.10293750005075708,,,,,,,,,,00049,001,2026-01-18_12h17.50.288,MST_task,2024.2.0,60.22993378611777,2026-01-18 12h30.06.208200 +0530,
,Objects\008a.jpg,6,0,7,,,,,,,f,None,,,2.0227886000066064,0.11200609995285049,,,,7,0,6,164.69580879999558,,,,,,,,,,,,,,,,,,,,,,,,,,,,,,164.67993270000443,164.69580879999558,165.1960526999901,165.17930269998033,,,,,,,,,,,,,,,,,,,,,,,,,,165.18938060000073,165.1960526999901,165.1960526999901,165.1960526999901,168.17963670002064,f,168.17967889999272,,,168.17969020002056,None,,,168.1957047000178,168.1957047000178,168.1957047000178,2.0227886000066064,0.11200609995285049,,,,,,,,,,00049,001,2026-01-18_12h17.50.288,MST_task,2024.2.0,60.22993378611777,2026-01-18 12h30.06.208200 +0530,
,Scenes\074a.jpg,7,0,8,,,,,,,j,None,,,2.1980297999689355,0.10393779998412356,,,,8,0,7,168.1957047000178,,,,,,,,,,,,,,,,,,,,,,,,,,,,,,168.17978599999333,168.1957047000178,168.7090927999816,168.67931450001197,,,,,,,,,,,,,,,,,,,,,,,,,,168.7064169999794,168.7090927999816,168.7090927999816,168.7090927999816,171.6959354999708,j,171.69768729998032,,,171.69770580000477,None,,,,,,2.1980297999689355,0.10393779998412356,,,,,,,,,,00049,001,2026-01-18_12h17.50.288,MST_task,2024.2.0,60.22993378611777,2026-01-18 12h30.06.208200 +0530,
,Scenes\067a.jpg,8,0,9,,,,,,,f,None,,,1.5265751999686472,0.11255020002136007,,,,9,0,8,171.71243519999553,,,,,,,,,,,,,,,,,,,,,,,,,,,,,,171.69780989998253,171.71243519999553,172.2199703999795,172.19601489999332,,,,,,,,,,,,,,,,,,,,,,,,,,172.2176389999804,172.2199703999795,172.2199703999795,172.2199703999795,175.21266419999301,f,175.21270500001265,,,175.2127164999838,None,,,,,,1.5265751999686472,0.11255020002136007,,,,,,,,,,00049,001,2026-01-18_12h17.50.288,MST_task,2024.2.0,60.22993378611777,2026-01-18 12h30.06.208200 +0530,
,Scenes\126a.jpg,9,0,10,,,,,,,j,None,,,0.9924790000077337,0.1199973999755457,,,,10,0,9,175.22891359997448,,,,,,,,,,,,,,,,,,,,,,,,,,,,,,175.21281439997256,175.22891359997448,175.7305188999744,175.71277769998414,,,,,,,,,,,,,,,,,,,,,,,,,,175.72839780000504,175.7305188999744,175.7305188999744,175.7305188999744,178.72964610002236,j,178.7296881999937,,,178.72969999996712,None,,,,,,0.9924790000077337,0.1199973999755457,,,,,,,,,,00049,001,2026-01-18_12h17.50.288,MST_task,2024.2.0,60.22993378611777,2026-01-18 12h30.06.208200 +0530,
,Scenes\143a.jpg,10,0,11,,,,,,,j,None,,,1.2982164000277407,0.1366139999590814,,,,11,0,10,178.7456929999753,,,,,,,,,,,,,,,,,,,,,,,,,,,,,,178.72979959996883,178.7456929999753,179.24916910001775,179.22914860001765,,,,,,,,,,,,,,,,,,,,,,,,,,179.24696339998627,179.24916910001775,179.24916910001775,179.24916910001775,182.2459935999941,j,182.24603550002212,,,182.24604729999555,None,,,,,,1.2982164000277407,0.1366139999590814,,,,,,,,,,00049,001,2026-01-18_12h17.50.288,MST_task,2024.2.0,60.22993378611777,2026-01-18 12h30.06.208200 +0530,
,Scenes\085a.jpg,11,0,12,,,,,,,j,None,,,1.4605751999770291,0.11919050000142306,,,,12,0,11,182.26236749999225,,,,,,,,,,,,,,,,,,,,,,,,,,,,,,182.24614509998355,182.26236749999225,182.7668793000048,182.74602369999047,,,,,,,,,,,,,,,,,,,,,,,,,,182.7643880000105,182.7668793000048,182.7668793000048,182.7668793000048,185.76279940002132,j,185.7628480999847,,,185.7628608000232,None,,,,,,1.4605751999770291,0.11919050000142306,,,,,,,,,,00049,001,2026-01-18_12h17.50.288,MST_task,2024.2.0,60.22993378611777,2026-01-18 12h30.06.208200 +0530,
,Scenes\063a.jpg,12,0,13,,,,,,,j,None,,,1.0087077000061981,0.1444224999868311,,,,13,0,12,185.77903109998442,,,,,,,,,,,,,,,,,,,,,,,,,,,,,,185.7629679000238,185.77903109998442,186.28193449997343,186.2628017999814,,,,,,,,,,,,,,,,,,,,,,,,,,186.27964490000159,186.28193449997343,186.28193449997343,186.28193449997343,189.27926649997244,j,189.27930779999588,,,189.27931929996703,None,,,,,,1.0087077000061981,0.1444224999868311,,,,,,,,,,00049,001,2026-01-18_12h17.50.288,MST_task,2024.2.0,60.22993378611777,2026-01-18 12h30.06.208200 +0530,
,Scenes\027a.jpg,13,0,14,,,,,,,f,None,,,2.157959599979222,0.1039955000160262,,,,14,0,13,189.29574690002482,,,,,,,,,,,,,,,,,,,,,,,,,,,,,,189.27941979997559,189.29574690002482,189.79681849997723,189.7792169000022,,,,,,,,,,,,,,,,,,,,,,,,,,189.79439260001527,189.79681849997723,189.79681849997723,189.79681849997723,192.7797193999868,f,192.7797744999989,,,192.7797921000165,None,,,192.79581480001798,192.79581480001798,192.79581480001798,2.157959599979222,0.1039955000160262,,,,,,,,,,00049,001,2026-01-18_12h17.50.288,MST_task,2024.2.0,60.22993378611777,2026-01-18 12h30.06.208200 +0530,
,Objects\110a.jpg,14,0,15,,,,,,,f,None,,,2.234882299962919,0.10388560005230829,,,,15,0,14,192.79581480001798,,,,,,,,,,,,,,,,,,,,,,,,,,,,,,192.77986229996895,192.79581480001798,193.29599780001445,193.27926239999942,,,,,,,,,,,,,,,,,,,,,,,,,,193.29282919998514,193.29599780001445,193.29599780001445,193.29599780001445,196.2795763000031,f,196.28208159998758,,,196.28209920000518,None,,,196.29605549998814,196.29605549998814,196.29605549998814,2.234882299962919,0.10388560005230829,,,,,,,,,,00049,001,2026-01-18_12h17.50.288,MST_task,2024.2.0,60.22993378611777,2026-01-18 12h30.06.208200 +0530,
,Objects\100a.jpg,15,0,16,,,,,,,f,None,,,1.4080733000300825,0.11199919995851815,,,,16,0,15,196.29605549998814,,,,,,,,,,,,,,,,,,,,,,,,,,,,,,196.28217010002118,196.29605549998814,196.79592120001325,196.77919279999333,,,,,,,,,,,,,,,,,,,,,,,,,,196.7890630000038,196.79592120001325,196.79592120001325,196.79592120001325,199.77972150000278,f,199.7797661999939,,,199.77977780002402,None,,,199.7957612000173,199.7957612000173,199.7957612000173,1.4080733000300825,0.11199919995851815,,,,,,,,,,00049,001,2026-01-18_12h17.50.288,MST_task,2024.2.0,60.22993378611777,2026-01-18 12h30.06.208200 +0530,
,Objects\087a.jpg,16,0,17,,,,,,,j,None,,,1.6991278000059538,0.1041069999919273,,,,17,0,16,199.7957612000173,,,,,,,,,,,,,,,,,,,,,,,,,,,,,,199.77984490001108,199.7957612000173,200.29598840000108,200.27932139998302,,,,,,,,,,,,,,,,,,,,,,,,,,200.28932270000223,200.29598840000108,200.29598840000108,200.29598840000108,203.27965839998797,j,203.2797010000213,,,203.27971179998713,None,,,203.2957435999997,203.2957435999997,203.2957435999997,1.6991278000059538,0.1041069999919273,,,,,,,,,,00049,001,2026-01-18_12h17.50.288,MST_task,2024.2.0,60.22993378611777,2026-01-18 12h30.06.208200 +0530,
,Objects\145a.jpg,17,0,18,,,,,,,f,None,,,0.863099499954842,0.1120805999962613,,,,18,0,17,203.2957435999997,,,,,,,,,,,,,,,,,,,,,,,,,,,,,,203.27982150000753,203.2957435999997,203.79591400001664,203.77922490000492,,,,,,,,,,,,,,,,,,,,,,,,,,203.78898449998815,203.79591400001664,203.79591400001664,203.79591400001664,206.77947309997398,f,206.779515000002,,,206.77952629997162,None,,,206.79574600001797,206.79574600001797,206.79574600001797,0.863099499954842,0.1120805999962613,,,,,,,,,,00049,001,2026-01-18_12h17.50.288,MST_task,2024.2.0,60.22993378611777,2026-01-18 12h30.06.208200 +0530,
,Objects\064a.jpg,18,0,19,,,,,,,f,None,,,0.8265929999761283,0.09599950001575053,,,,19,0,18,206.79574600001797,,,,,,,,,,,,,,,,,,,,,,,,,,,,,,206.7796212999965,206.79574600001797,207.29604490002384,207.27925919997506,,,,,,,,,,,,,,,,,,,,,,,,,,207.28896839998197,207.29604490002384,207.29604490002384,207.29604490002384,210.27949799998896,f,210.2795396000147,,,210.27955079998355,None,,,210.29578559997026,210.29578559997026,210.29578559997026,0.8265929999761283,0.09599950001575053,,,,,,,,,,00049,001,2026-01-18_12h17.50.288,MST_task,2024.2.0,60.22993378611777,2026-01-18 12h30.06.208200 +0530,
,Objects\172a.jpg,19,0,20,,,,,,,j,None,,,2.0075714999693446,0.08099010004661977,,,,20,0,19,210.29578559997026,,,,,,,,,,,,,,,,,,,,,,,,,,,,,,210.27964710001834,210.29578559997026,210.79592499998398,210.77926619997015,,,,,,,,,,,,,,,,,,,,,,,,,,210.7891149999923,210.79592499998398,210.79592499998398,210.79592499998398,213.77949210000224,j,213.7795353999827,,,213.77954670001054,None,,,213.7957564999815,213.7957564999815,213.7957564999815,2.0075714999693446,0.08099010004661977,,,,,,,,,,00049,001,2026-01-18_12h17.50.288,MST_task,2024.2.0,60.22993378611777,2026-01-18 12h30.06.208200 +0530,
,Objects\171a.jpg,20,0,21,,,,,,,j,None,,,0.9474267000332475,0.06404359999578446,,,,21,0,20,213.7957564999815,,,,,,,,,,,,,,,,,,,,,,,,,,,,,,213.7796414999757,213.7957564999815,214.29595150001114,214.2792793000117,,,,,,,,,,,,,,,,,,,,,,,,,,214.2892159000039,214.29595150001114,214.29595150001114,214.29595150001114,217.27972980000777,j,217.27978029998485,,,217.27979140001116,None,,,217.2957717999816,217.2957717999816,217.2957717999816,0.9474267000332475,0.06404359999578446,,,,,,,,,,00049,001,2026-01-18_12h17.50.288,MST_task,2024.2.0,60.22993378611777,2026-01-18 12h30.06.208200 +0530,
,Scenes\015a.jpg,21,0,22,,,,,,,j,None,,,2.807253499981016,0.10396929999114946,,,,22,0,21,217.2957717999816,,,,,,,,,,,,,,,,,,,,,,,,,,,,,,217.27989720000187,217.2957717999816,217.80381519999355,217.77919839997776,,,,,,,,,,,,,,,,,,,,,,,,,,217.80147259996738,217.80381519999355,217.80381519999355,217.80381519999355,220.79597189999186,j,220.7976732000243,,,220.7976931000012,None,,,,,,2.807253499981016,0.10396929999114946,,,,,,,,,,00049,001,2026-01-18_12h17.50.288,MST_task,2024.2.0,60.22993378611777,2026-01-18 12h30.06.208200 +0530,
,Scenes\018a.jpg,22,0,23,,,,,,,j,None,,,2.137589299993124,0.1279270999948494,,,,23,0,22,220.81254050001735,,,,,,,,,,,,,,,,,,,,,,,,,,,,,,220.7978053999832,220.81254050001735,221.3146940000006,221.2959604000207,,,,,,,,,,,,,,,,,,,,,,,,,,221.31224070000462,221.3146940000006,221.3146940000006,221.3146940000006,224.31274829996983,j,224.31279679998988,,,224.3128096999717,None,,,,,,2.137589299993124,0.1279270999948494,,,,,,,,,,00049,001,2026-01-18_12h17.50.288,MST_task,2024.2.0,60.22993378611777,2026-01-18 12h30.06.208200 +0530,
,Scenes\061a.jpg,23,0,24,,,,,,,j,None,,,2.9014464000356384,None,,,,24,0,23,224.32894819998182,,,,,,,,,,,,,,,,,,,,,,,,,,,,,,224.3128829000052,224.32894819998182,224.82967649999773,224.81271039997227,,,,,,,,,,,,,,,,,,,,,,,,,,224.82558649999555,224.82967649999773,224.82967649999773,224.82967649999773,227.8129576999927,j,227.81301059998805,,,227.81302270002197,None,,,227.82893259997945,227.82893259997945,227.82893259997945,2.9014464000356384,None,,,,,,,,,,00049,001,2026-01-18_12h17.50.288,MST_task,2024.2.0,60.22993378611777,2026-01-18 12h30.06.208200 +0530,
,Scenes\163a.jpg,24,0,25,,,,,,,j,None,,,1.4731066999956965,0.11201460001757368,,,,25,0,24,227.82893259997945,,,,,,,,,,,,,,,,,,,,,,,,,,,,,,227.81311920000007,227.82893259997945,228.32959059998393,228.31268689996796,,,,,,,,,,,,,,,,,,,,,,,,,,228.32549050002126,228.32959059998393,228.32959059998393,228.32959059998393,231.31301569996867,j,231.31305900000734,,,231.31306949997088,None,,,231.32893060002243,231.32893060002243,231.32893060002243,1.4731066999956965,0.11201460001757368,,,,,,,,,,00049,001,2026-01-18_12h17.50.288,MST_task,2024.2.0,60.22993378611777,2026-01-18 12h30.06.208200 +0530,
,Scenes\070a.jpg,25,0,26,,,,,,,f,None,,,1.8331120000220835,0.11898790003033355,,,,26,0,25,231.32893060002243,,,,,,,,,,,,,,,,,,,,,,,,,,,,,,231.31316499999957,231.32893060002243,231.83489359996747,231.81267329998082,,,,,,,,,,,,,,,,,,,,,,,,,,231.8325052,231.83489359996747,231.83489359996747,231.83489359996747,234.82920480001485,f,234.82924639998237,,,234.82925790001173,None,,,,,,1.8331120000220835,0.11898790003033355,,,,,,,,,,00049,001,2026-01-18_12h17.50.288,MST_task,2024.2.0,60.22993378611777,2026-01-18 12h30.06.208200 +0530,
,Scenes\071a.jpg,26,0,27,,,,,,,None,j,0.03226950002135709,None,,,,,,27,0,26,234.84615130000748,,,,,,,,,,,,,,,,,,,,,,,,,,,,,,234.82935850002104,234.84615130000748,235.3475810000091,235.3292775999871,,,,,,,,,,,,,,,,,,,,,,,,,,235.34521790000144,235.3475810000091,235.3475810000091,235.3475810000091,238.34601320000365,None,238.34605819999706,238.3624519999721,238.3624519999721,238.39627069997368,j,0.03226950002135709,None,,,,,,,,,,,,,,,00049,001,2026-01-18_12h17.50.288,MST_task,2024.2.0,60.22993378611777,2026-01-18 12h30.06.208200 +0530,
,Scenes\142a.jpg,27,0,28,,,,,,,j,None,,,1.6170610999688506,0.11098120000679046,,,,28,0,27,238.41242599999532,,,,,,,,,,,,,,,,,,,,,,,,,,,,,,238.39635519997682,238.41242599999532,238.91554999997607,238.89605959999608,,,,,,,,,,,,,,,,,,,,,,,,,,238.9131862000213,238.91554999997607,238.91554999997607,238.91554999997607,241.91275580000365,j,241.91279949998716,,,241.91281150002033,None,,,,,,1.6170610999688506,0.11098120000679046,,,,,,,,,,00049,001,2026-01-18_12h17.50.288,MST_task,2024.2.0,60.22993378611777,2026-01-18 12h30.06.208200 +0530,
,Objects\090a.jpg,28,0,29,,,,,,,f,None,,,2.885894999955781,None,,,,29,0,28,241.92903820000356,,,,,,,,,,,,,,,,,,,,,,,,,,,,,,241.91290940000908,241.92903820000356,242.42945890000556,242.41301459999522,,,,,,,,,,,,,,,,,,,,,,,,,,242.42567730002338,242.42945890000556,242.42945890000556,242.42945890000556,245.41309909999836,f,245.41514040000038,,,245.41515750001417,None,,,245.42904630000703,245.42904630000703,245.42904630000703,2.885894999955781,None,,,,,,,,,,00049,001,2026-01-18_12h17.50.288,MST_task,2024.2.0,60.22993378611777,2026-01-18 12h30.06.208200 +0530,
,Objects\035a.jpg,29,0,30,,,,,,,None,j,0.13752450002357364,None,,,,,,30,0,29,245.42904630000703,,,,,,,,,,,,,,,,,,,,,,,,,,,,,,245.41523569996934,245.42904630000703,245.9294055000064,245.91271010000492,,,,,,,,,,,,,,,,,,,,,,,,,,245.92265500000212,245.9294055000064,245.9294055000064,245.9294055000064,248.91302959999302,None,248.91306749999058,248.92925450002076,248.92925450002076,249.07944780000253,j,0.13752450002357364,None,248.92925450002076,248.92925450002076,248.92925450002076,,,,,,,,,,,,00049,001,2026-01-18_12h17.50.288,MST_task,2024.2.0,60.22993378611777,2026-01-18 12h30.06.208200 +0530,
,Objects\080a.jpg,30,0,31,,,,,,,f,None,,,1.4707826999947429,0.10396869998658076,,,,31,0,30,249.0958502999856,,,,,,,,,,,,,,,,,,,,,,,,,,,,,,249.07953340001404,249.0958502999856,249.59620939998422,249.57944699999643,,,,,,,,,,,,,,,,,,,,,,,,,,249.58927449997282,249.59620939998422,249.59620939998422,249.59620939998422,252.57986270001857,f,252.57990680000512,,,252.57991889998084,None,,,252.5958915000083,252.5958915000083,252.5958915000083,1.4707826999947429,0.10396869998658076,,,,,,,,,,00049,001,2026-01-18_12h17.50.288,MST_task,2024.2.0,60.22993378611777,2026-01-18 12h30.06.208200 +0530,
,Objects\071a.jpg,31,0,32,,,,,,,f,None,,,2.755052499996964,0.10408419999293983,,,,32,0,31,252.5958915000083,,,,,,,,,,,,,,,,,,,,,,,,,,,,,,252.5799850000185,252.5958915000083,253.09610089997295,253.07954030000838,,,,,,,,,,,,,,,,,,,,,,,,,,253.0897192999837,253.09610089997295,253.09610089997295,253.09610089997295,256.0797292999923,f,256.079772099969,,,256.0797825999907,None,,,256.09596870001405,256.09596870001405,256.09596870001405,2.755052499996964,0.10408419999293983,,,,,,,,,,00049,001,2026-01-18_12h17.50.288,MST_task,2024.2.0,60.22993378611777,2026-01-18 12h30.06.208200 +0530,
,Objects\098a.jpg,32,0,33,,,,,,,f,None,,,2.951090300048236,None,,,,33,0,32,256.09596870001405,,,,,,,,,,,,,,,,,,,,,,,,,,,,,,256.07988370000385,256.09596870001405,256.5960762000177,256.5793626999948,,,,,,,,,,,,,,,,,,,,,,,,,,256.58913829998346,256.5960762000177,256.5960762000177,256.5960762000177,259.5797722999705,f,259.5798131999909,,,259.5798246000195,None,,,259.59588229999645,259.59588229999645,259.59588229999645,2.951090300048236,None,,,,,,,,,,00049,001,2026-01-18_12h17.50.288,MST_task,2024.2.0,60.22993378611777,2026-01-18 12h30.06.208200 +0530,
,Objects\017a.jpg,33,0,34,,,,,,,f,None,,,1.3315708999871276,0.13671980000799522,,,,34,0,33,259.59588229999645,,,,,,,,,,,,,,,,,,,,,,,,,,,,,,259.5799231000128,259.59588229999645,260.09610839997185,260.0795263000182,,,,,,,,,,,,,,,,,,,,,,,,,,260.08908559998963,260.09610839997185,260.09610839997185,260.09610839997185,263.0798380000051,f,263.0798833000008,,,263.0798949999735,None,,,263.095845200005,263.095845200005,263.095845200005,1.3315708999871276,0.13671980000799522,,,,,,,,,,00049,001,2026-01-18_12h17.50.288,MST_task,2024.2.0,60.22993378611777,2026-01-18 12h30.06.208200 +0530,
,Objects\038a.jpg,34,0,35,,,,,,,f,None,,,0.7749247999745421,0.10398040001746267,,,,35,0,34,263.095845200005,,,,,,,,,,,,,,,,,,,,,,,,,,,,,,263.0799634999712,263.095845200005,263.5962026999914,263.57945129997097,,,,,,,,,,,,,,,,,,,,,,,,,,263.58895649999613,263.5962026999914,263.5962026999914,263.5962026999914,266.57960789999925,f,266.5796504999744,,,266.5796618000022,None,,,266.595886599971,266.595886599971,266.595886599971,0.7749247999745421,0.10398040001746267,,,,,,,,,,00049,001,2026-01-18_12h17.50.288,MST_task,2024.2.0,60.22993378611777,2026-01-18 12h30.06.208200 +0530,
,Scenes\134a.jpg,35,0,36,,,,,,,j,None,,,1.355935400002636,0.12001709995092824,,,,36,0,35,266.595886599971,,,,,,,,,,,,,,,,,,,,,,,,,,,,,,266.57976310001686,266.595886599971,267.10336339997593,267.0797087000101,,,,,,,,,,,,,,,,,,,,,,,,,,267.1008941999753,267.10336339997593,267.10336339997593,267.10336339997593,270.0962019999861,j,270.0978924999945,,,270.0979109000182,None,,,,,,1.355935400002636,0.12001709995092824,,,,,,,,,,00049,001,2026-01-18_12h17.50.288,MST_task,2024.2.0,60.22993378611777,2026-01-18 12h30.06.208200 +0530,
,Scenes\171a.jpg,36,0,37,,,,,,,f,None,,,0.9378105000359938,0.11199449998093769,,,,37,0,36,270.1125391999958,,,,,,,,,,,,,,,,,,,,,,,,,,,,,,270.0980140999891,270.1125391999958,270.61742389999563,270.5961601000163,,,,,,,,,,,,,,,,,,,,,,,,,,270.6148514000233,270.61742389999563,270.61742389999563,270.61742389999563,273.612857399974,f,273.61290050001116,,,273.6129125999869,None,,,,,,0.9378105000359938,0.11199449998093769,,,,,,,,,,00049,001,2026-01-18_12h17.50.288,MST_task,2024.2.0,60.22993378611777,2026-01-18 12h30.06.208200 +0530,
,Scenes\058a.jpg,37,0,38,,,,,,,f,None,,,1.8229263999965042,0.16001340001821518,,,,38,0,37,273.6291132000042,,,,,,,,,,,,,,,,,,,,,,,,,,,,,,273.6130108999787,273.6291132000042,274.13189099996816,274.11294219997944,,,,,,,,,,,,,,,,,,,,,,,,,,274.12934699998004,274.13189099996816,274.13189099996816,274.13189099996816,277.12934520002455,f,277.1293895000126,,,277.1294018999906,None,,,,,,1.8229263999965042,0.16001340001821518,,,,,,,,,,00049,001,2026-01-18_12h17.50.288,MST_task,2024.2.0,60.22993378611777,2026-01-18 12h30.06.208200 +0530,
,Scenes\131a.jpg,38,0,39,,,,,,,j,None,,,2.7228522999794222,0.1440188999986276,,,,39,0,38,277.14591750002,,,,,,,,,,,,,,,,,,,,,,,,,,,,,,277.12950380000984,277.14591750002,277.6479926999891,277.62942489999114,,,,,,,,,,,,,,,,,,,,,,,,,,277.645715199993,277.6479926999891,277.6479926999891,277.6479926999891,280.6461309000151,j,280.6461733999895,,,280.64618570002494,None,,,,,,2.7228522999794222,0.1440188999986276,,,,,,,,,,00049,001,2026-01-18_12h17.50.288,MST_task,2024.2.0,60.22993378611777,2026-01-18 12h30.06.208200 +0530,
,Scenes\120a.jpg,39,0,40,,,,,,,j,None,,,0.9025706999818794,0.11999610002385452,,,,40,0,39,280.6625520000234,,,,,,,,,,,,,,,,,,,,,,,,,,,,,,280.6462541000219,280.6625520000234,281.16411930002505,281.14603870001156,,,,,,,,,,,,,,,,,,,,,,,,,,281.1614475999959,281.16411930002505,281.16411930002505,281.16411930002505,284.1627409000066,j,284.162783399981,,,284.1627952000126,None,,,,,,0.9025706999818794,0.11999610002385452,,,,,,,,,,00049,001,2026-01-18_12h17.50.288,MST_task,2024.2.0,60.22993378611777,2026-01-18 12h30.06.208200 +0530,
,Scenes\088a.jpg,40,0,41,,,,,,,j,None,,,1.2275488000013866,0.11999669997021556,,,,41,0,40,284.17917690001195,,,,,,,,,,,,,,,,,,,,,,,,,,,,,,284.16289580002194,284.17917690001195,284.6872513999697,284.6627375999815,,,,,,,,,,,,,,,,,,,,,,,,,,284.6848494000151,284.6872513999697,284.6872513999697,284.6872513999697,287.66294160002144,j,287.66299280000385,,,287.66300569998566,None,,,,,,1.2275488000013866,0.11999669997021556,,,,,,,,,,00049,001,2026-01-18_12h17.50.288,MST_task,2024.2.0,60.22993378611777,2026-01-18 12h30.06.208200 +0530,
,Scenes\078a.jpg,41,0,42,,,,,,,None,j,0.6636224999674596,None,,,,,,42,0,41,287.679220799997,,,,,,,,,,,,,,,,,,,,,,,,,,,,,,287.6631134999916,287.679220799997,288.18191340001067,288.162773500022,,,,,,,,,,,,,,,,,,,,,,,,,,288.179552000016,288.18191340001067,288.18191340001067,288.18191340001067,291.17947630002163,None,291.17951380001614,291.1958656000206,291.1958656000206,291.86297479999484,j,0.6636224999674596,None,,,,,,,,,,,,,,,00049,001,2026-01-18_12h17.50.288,MST_task,2024.2.0,60.22993378611777,2026-01-18 12h30.06.208200 +0530,
,Objects\181a.jpg,42,0,43,,,,,,,None,j,0.10309230000711977,None,,,,,,43,0,42,291.87921370001277,,,,,,,,,,,,,,,,,,,,,,,,,,,,,,291.86310539999977,291.87921370001277,292.37972269998863,292.36286380002275,,,,,,,,,,,,,,,,,,,,,,,,,,292.37692369997967,292.37972269998863,292.37972269998863,292.37972269998863,295.36328659998253,None,295.36531680001644,295.37993200001074,295.37993200001074,295.4963206999819,j,0.10309230000711977,None,295.37993200001074,295.37993200001074,295.37993200001074,,,,,,,,,,,,00049,001,2026-01-18_12h17.50.288,MST_task,2024.2.0,60.22993378611777,2026-01-18 12h30.06.208200 +0530,
,Objects\009a.jpg,43,0,44,,,,,,,f,None,,,1.6546689000097103,0.11201270000310615,,,,44,0,43,295.51256930001546,,,,,,,,,,,,,,,,,,,,,,,,,,,,,,295.49640070000896,295.51256930001546,296.01283399999375,295.99615229998017,,,,,,,,,,,,,,,,,,,,,,,,,,296.0064432999934,296.01283399999375,296.01283399999375,296.01283399999375,298.99635029997444,f,298.99639270000625,,,298.9964043999789,None,,,299.01254419999896,299.01254419999896,299.01254419999896,1.6546689000097103,0.11201270000310615,,,,,,,,,,00049,001,2026-01-18_12h17.50.288,MST_task,2024.2.0,60.22993378611777,2026-01-18 12h30.06.208200 +0530,
,Objects\104a.jpg,44,0,45,,,,,,,f,None,,,0.7222368000075221,0.12844699999550357,,,,45,0,44,299.01254419999896,,,,,,,,,,,,,,,,,,,,,,,,,,,,,,298.99646950000897,299.01254419999896,299.5129096999881,299.4960942000034,,,,,,,,,,,,,,,,,,,,,,,,,,299.5062920000055,299.5129096999881,299.5129096999881,299.5129096999881,302.4964052999858,f,302.49644909997005,,,302.49646049999865,None,,,302.51254809997045,302.51254809997045,302.51254809997045,0.7222368000075221,0.12844699999550357,,,,,,,,,,00049,001,2026-01-18_12h17.50.288,MST_task,2024.2.0,60.22993378611777,2026-01-18 12h30.06.208200 +0530,
,Objects\062a.jpg,45,0,46,,,,,,,f,None,,,2.503283499972895,0.09498490003170446,,,,46,0,45,302.51254809997045,,,,,,,,,,,,,,,,,,,,,,,,,,,,,,302.49655470001744,302.51254809997045,303.0127800999908,302.99608660000376,,,,,,,,,,,,,,,,,,,,,,,,,,303.00583849998657,303.0127800999908,303.0127800999908,303.0127800999908,305.9964651999762,f,305.9965125999879,,,305.9965240000165,None,,,306.01250309997704,306.01250309997704,306.01250309997704,2.503283499972895,0.09498490003170446,,,,,,,,,,00049,001,2026-01-18_12h17.50.288,MST_task,2024.2.0,60.22993378611777,2026-01-18 12h30.06.208200 +0530,
,Objects\150a.jpg,46,0,47,,,,,,,None,f,0.5149314999580383,None,,,,,,47,0,46,306.01250309997704,,,,,,,,,,,,,,,,,,,,,,,,,,,,,,305.99659120000433,306.01250309997704,306.5126546000247,306.49609700002475,,,,,,,,,,,,,,,,,,,,,,,,,,306.5060453999904,306.5126546000247,306.5126546000247,306.5126546000247,309.49668629997177,None,309.49672489997465,309.51242360001197,309.51242360001197,310.0294857000117,f,0.5149314999580383,None,309.51242360001197,309.51242360001197,309.51242360001197,,,,,,,,,,,,00049,001,2026-01-18_12h17.50.288,MST_task,2024.2.0,60.22993378611777,2026-01-18 12h30.06.208200 +0530,
,Objects\186a.jpg,47,0,48,,,,,,,f,None,,,0.7927153999917209,0.1363794999779202,,,,48,0,47,310.0457822000026,,,,,,,,,,,,,,,,,,,,,,,,,,,,,,310.02957130002324,310.0457822000026,310.54599339998094,310.52929979999317,,,,,,,,,,,,,,,,,,,,,,,,,,310.5395005000173,310.54599339998094,310.54599339998094,310.54599339998094,313.5298091999721,f,313.5298677000101,,,313.52987909998046,None,,,313.54582080000546,313.54582080000546,313.54582080000546,0.7927153999917209,0.1363794999779202,,,,,,,,,,00049,001,2026-01-18_12h17.50.288,MST_task,2024.2.0,60.22993378611777,2026-01-18 12h30.06.208200 +0530,
,Objects\192a.jpg,48,0,49,,,,,,,f,None,,,1.1325997000094503,0.10398220003116876,,,,49,0,48,313.54582080000546,,,,,,,,,,,,,,,,,,,,,,,,,,,,,,313.5299469999736,313.54582080000546,314.0460965000093,314.0292844999931,,,,,,,,,,,,,,,,,,,,,,,,,,314.03911720000906,314.0460965000093,314.0460965000093,314.0460965000093,317.0295144999982,f,317.02955879998626,,,317.02956950000953,None,,,317.0457834000117,317.0457834000117,317.0457834000117,1.1325997000094503,0.10398220003116876,,,,,,,,,,00049,001,2026-01-18_12h17.50.288,MST_task,2024.2.0,60.22993378611777,2026-01-18 12h30.06.208200 +0530,
,Scenes\014a.jpg,49,0,50,,,,,,,j,None,,,2.240147700009402,0.08830769994528964,,,,50,0,49,317.0457834000117,,,,,,,,,,,,,,,,,,,,,,,,,,,,,,317.02963589999126,317.0457834000117,317.5465943000163,317.52926179999486,,,,,,,,,,,,,,,,,,,,,,,,,,317.5440957000246,317.5465943000163,317.5465943000163,317.5465943000163,320.52947150002,j,320.5311021999805,,,320.53111869998975,None,,,320.5457925000228,320.5457925000228,320.5457925000228,2.240147700009402,0.08830769994528964,,,,,,,,,,00049,001,2026-01-18_12h17.50.288,MST_task,2024.2.0,60.22993378611777,2026-01-18 12h30.06.208200 +0530,
,Scenes\190a.jpg,50,0,51,,,,,,,j,None,,,1.3131189999985509,0.09500690002460033,,,,51,0,50,320.5457925000228,,,,,,,,,,,,,,,,,,,,,,,,,,,,,,320.5311900000088,320.5457925000228,321.05058989999816,321.02944780001417,,,,,,,,,,,,,,,,,,,,,,,,,,321.04837500001304,321.05058989999816,321.05058989999816,321.05058989999816,324.0460515000159,j,324.0460943999933,,,324.0461060000234,None,,,,,,1.3131189999985509,0.09500690002460033,,,,,,,,,,00049,001,2026-01-18_12h17.50.288,MST_task,2024.2.0,60.22993378611777,2026-01-18 12h30.06.208200 +0530,
,Scenes\072a.jpg,51,0,52,,,,,,,j,None,,,2.4449290999909863,0.09604350000154227,,,,52,0,51,324.06246290000854,,,,,,,,,,,,,,,,,,,,,,,,,,,,,,324.0461734000128,324.06246290000854,324.5664370000013,324.5460087999818,,,,,,,,,,,,,,,,,,,,,,,,,,324.5643271000008,324.5664370000013,324.5664370000013,324.5664370000013,327.5463728000177,j,327.54641770001035,,,327.54643009998836,None,,,,,,2.4449290999909863,0.09604350000154227,,,,,,,,,,00049,001,2026-01-18_12h17.50.288,MST_task,2024.2.0,60.22993378611777,2026-01-18 12h30.06.208200 +0530,
,Scenes\125a.jpg,52,0,53,,,,,,,j,None,,,0.9669881000299938,0.07207509997533634,,,,53,0,52,327.5623985999846,,,,,,,,,,,,,,,,,,,,,,,,,,,,,,327.54653280001367,327.5623985999846,328.0680799999973,328.0461639999994,,,,,,,,,,,,,,,,,,,,,,,,,,328.0657027999987,328.0680799999973,328.0680799999973,328.0680799999973,331.0627485999721,j,331.0627910000039,,,331.0628029999789,None,,,,,,0.9669881000299938,0.07207509997533634,,,,,,,,,,00049,001,2026-01-18_12h17.50.288,MST_task,2024.2.0,60.22993378611777,2026-01-18 12h30.06.208200 +0530,
,Scenes\168a.jpg,53,0,54,,,,,,,j,None,,,1.7751729000010528,0.0886313000228256,,,,54,0,53,331.0790853999788,,,,,,,,,,,,,,,,,,,,,,,,,,,,,,331.0629035999882,331.0790853999788,331.57978179998463,331.562718399975,,,,,,,,,,,,,,,,,,,,,,,,,,331.5770985999843,331.57978179998463,331.57978179998463,331.57978179998463,334.56304779998027,j,334.5630907000159,,,334.5631022999878,None,,,334.5791846999782,334.5791846999782,334.5791846999782,1.7751729000010528,0.0886313000228256,,,,,,,,,,00049,001,2026-01-18_12h17.50.288,MST_task,2024.2.0,60.22993378611777,2026-01-18 12h30.06.208200 +0530,
,Scenes\073a.jpg,54,0,55,,,,,,,j,None,,,1.0097556000109762,0.055987600004300475,,,,55,0,54,334.5791846999782,,,,,,,,,,,,,,,,,,,,,,,,,,,,,,334.5631675000186,334.5791846999782,335.08132300002035,335.06287189997965,,,,,,,,,,,,,,,,,,,,,,,,,,335.078772399982,335.08132300002035,335.08132300002035,335.08132300002035,338.07920430001104,j,338.07924960000673,,,338.0792617999832,None,,,,,,1.0097556000109762,0.055987600004300475,,,,,,,,,,00049,001,2026-01-18_12h17.50.288,MST_task,2024.2.0,60.22993378611777,2026-01-18 12h30.06.208200 +0530,
,Scenes\176a.jpg,55,0,56,,,,,,,j,None,,,1.026408099976834,0.0875699000316672,,,,56,0,55,338.0958106999751,,,,,,,,,,,,,,,,,,,,,,,,,,,,,,338.07936209999025,338.0958106999751,338.6012483999948,338.5792957000085,,,,,,,,,,,,,,,,,,,,,,,,,,338.59893139998894,338.6012483999948,338.6012483999948,338.6012483999948,341.59604630002286,j,341.5960942999809,,,341.5961070000194,None,,,,,,1.026408099976834,0.0875699000316672,,,,,,,,,,00049,001,2026-01-18_12h17.50.288,MST_task,2024.2.0,60.22993378611777,2026-01-18 12h30.06.208200 +0530,
,Objects\165a.jpg,56,0,57,,,,,,,f,None,,,1.057762200012803,0.13707689999137074,,,,57,0,56,341.61244230001466,,,,,,,,,,,,,,,,,,,,,,,,,,,,,,341.5961785999825,341.61244230001466,342.11295769998105,342.0960477999761,,,,,,,,,,,,,,,,,,,,,,,,,,342.1090110000223,342.11295769998105,342.11295769998105,342.11295769998105,345.09638860000996,f,345.0985603000154,,,345.0985793999862,None,,,345.11247390002245,345.11247390002245,345.11247390002245,1.057762200012803,0.13707689999137074,,,,,,,,,,00049,001,2026-01-18_12h17.50.288,MST_task,2024.2.0,60.22993378611777,2026-01-18 12h30.06.208200 +0530,
,Objects\011a.jpg,57,0,58,,,,,,,j,None,,,2.4711268999963067,0.06310880003729835,,,,58,0,57,345.11247390002245,,,,,,,,,,,,,,,,,,,,,,,,,,,,,,345.098692199972,345.11247390002245,345.6127263000235,345.5959866999765,,,,,,,,,,,,,,,,,,,,,,,,,,345.60589190002065,345.6127263000235,345.6127263000235,345.6127263000235,348.5963001999771,j,348.5963419000036,,,348.59635289997095,None,,,348.6125400000019,348.6125400000019,348.6125400000019,2.4711268999963067,0.06310880003729835,,,,,,,,,,00049,001,2026-01-18_12h17.50.288,MST_task,2024.2.0,60.22993378611777,2026-01-18 12h30.06.208200 +0530,
,Objects\020a.jpg,58,0,59,,,,,,,j,None,,,2.3627910999930464,0.09599820000585169,,,,59,0,58,348.6125400000019,,,,,,,,,,,,,,,,,,,,,,,,,,,,,,348.59641840000404,348.6125400000019,349.11271139996825,349.0960720999865,,,,,,,,,,,,,,,,,,,,,,,,,,349.10575609997613,349.11271139996825,349.11271139996825,349.11271139996825,352.0964551999932,j,352.0964989999775,,,352.09651559998747,None,,,352.1124457999831,352.1124457999831,352.1124457999831,2.3627910999930464,0.09599820000585169,,,,,,,,,,00049,001,2026-01-18_12h17.50.288,MST_task,2024.2.0,60.22993378611777,2026-01-18 12h30.06.208200 +0530,
,Objects\092a.jpg,59,0,60,,,,,,,None,f,0.2628135000122711,None,,,,,,60,0,59,352.1124457999831,,,,,,,,,,,,,,,,,,,,,,,,,,,,,,352.0966174000059,352.1124457999831,352.6127349999733,352.5960849999683,,,,,,,,,,,,,,,,,,,,,,,,,,352.6076801000163,352.6127349999733,352.6127349999733,352.6127349999733,355.5963783999905,None,355.5964160999865,355.6124077999848,355.6124077999848,355.8794806000078,f,0.2628135000122711,None,355.6124077999848,355.6124077999848,355.6124077999848,,,,,,,,,,,,00049,001,2026-01-18_12h17.50.288,MST_task,2024.2.0,60.22993378611777,2026-01-18 12h30.06.208200 +0530,
,Objects\143a.jpg,60,0,61,,,,,,,f,None,,,1.3363008000305854,0.1590002999873832,,,,61,0,60,355.8957919999957,,,,,,,,,,,,,,,,,,,,,,,,,,,,,,355.879596600018,355.8957919999957,356.3961750000017,356.37933899997734,,,,,,,,,,,,,,,,,,,,,,,,,,356.3890144000179,356.3961750000017,356.3961750000017,356.3961750000017,359.37971960002324,f,359.37976300000446,,,359.3797747999779,None,,,359.3957678999868,359.3957678999868,359.3957678999868,1.3363008000305854,0.1590002999873832,,,,,,,,,,00049,001,2026-01-18_12h17.50.288,MST_task,2024.2.0,60.22993378611777,2026-01-18 12h30.06.208200 +0530,
,Objects\142a.jpg,61,0,62,,,,,,,f,None,,,1.203316500002984,0.15199939999729395,,,,62,0,61,359.3957678999868,,,,,,,,,,,,,,,,,,,,,,,,,,,,,,359.37984399998095,359.3957678999868,359.89603950001765,359.87930069997674,,,,,,,,,,,,,,,,,,,,,,,,,,359.88892170001054,359.89603950001765,359.89603950001765,359.89603950001765,362.8796529999818,f,362.87969729996985,,,362.87970819999464,None,,,362.8957855000044,362.8957855000044,362.8957855000044,1.203316500002984,0.15199939999729395,,,,,,,,,,00049,001,2026-01-18_12h17.50.288,MST_task,2024.2.0,60.22993378611777,2026-01-18 12h30.06.208200 +0530,
,Objects\015a.jpg,62,0,63,,,,,,,f,None,,,0.8238490000367165,0.12728539999807253,,,,63,0,62,362.8957855000044,,,,,,,,,,,,,,,,,,,,,,,,,,,,,,362.87981269997545,362.8957855000044,,363.3801994000096,,,,,,,,,,,,,,,,,,,,,,,,,,363.390743499971,363.39602599997306,363.39602599997306,363.39602599997306,366.3798746999819,f,366.3799168000114,,,366.37992829998257,None,,,,,,0.8238490000367165,0.12728539999807253,,,,,,,,,,00049,001,2026-01-18_12h17.50.288,MST_task,2024.2.0,60.22993378611777,2026-01-18 12h30.06.208200 +0530,
,Scenes\051a.jpg,63,0,64,,,,,,,j,None,,,1.3543974999920465,0.09679410001263022,,,,64,0,63,366.39575279998826,,,,,,,,,,,,,,,,,,,,,,,,,,,,,,366.38002609997056,366.39575279998826,366.8963114999933,366.8793223000248,,,,,,,,,,,,,,,,,,,,,,,,,,366.893822300015,366.8963114999933,366.8963114999933,366.8963114999933,369.8796226999839,j,369.881269000005,,,369.8812858000165,None,,,369.8958318000077,369.8958318000077,369.8958318000077,1.3543974999920465,0.09679410001263022,,,,,,,,,,00049,001,2026-01-18_12h17.50.288,MST_task,2024.2.0,60.22993378611777,2026-01-18 12h30.06.208200 +0530,
,Scenes\038a.jpg,64,0,65,,,,,,,j,None,,,0.8994031000183895,0.1282266000052914,,,,65,0,64,369.8958318000077,,,,,,,,,,,,,,,,,,,,,,,,,,,,,,369.8813894999912,369.8958318000077,370.39938040002016,370.3804288000101,,,,,,,,,,,,,,,,,,,,,,,,,,370.39690859999973,370.39938040002016,370.39938040002016,370.39938040002016,373.39617889997317,j,373.3962276999955,,,373.3962401999743,None,,,,,,0.8994031000183895,0.1282266000052914,,,,,,,,,,00049,001,2026-01-18_12h17.50.288,MST_task,2024.2.0,60.22993378611777,2026-01-18 12h30.06.208200 +0530,
,Scenes\138a.jpg,65,0,66,,,,,,,j,None,,,1.872892299958039,0.09589510003570467,,,,66,0,65,373.41250839998247,,,,,,,,,,,,,,,,,,,,,,,,,,,,,,373.396338200022,373.41250839998247,373.91433840000536,373.89618699997663,,,,,,,,,,,,,,,,,,,,,,,,,,373.9118630000157,373.91433840000536,373.91433840000536,373.91433840000536,376.91286889999174,j,376.912919000024,,,376.91293120000046,None,,,,,,1.872892299958039,0.09589510003570467,,,,,,,,,,00049,001,2026-01-18_12h17.50.288,MST_task,2024.2.0,60.22993378611777,2026-01-18 12h30.06.208200 +0530,
,Scenes\040a.jpg,66,0,67,,,,,,,f,None,,,2.346477999992203,0.09547369997017086,,,,67,0,66,376.9291299000033,,,,,,,,,,,,,,,,,,,,,,,,,,,,,,376.91303110000445,376.9291299000033,377.432701600017,377.4128366999794,,,,,,,,,,,,,,,,,,,,,,,,,,377.43035639997106,377.432701600017,377.432701600017,377.432701600017,380.4294987000176,f,380.42953959997976,,,380.42955100000836,None,,,,,,2.346477999992203,0.09547369997017086,,,,,,,,,,00049,001,2026-01-18_12h17.50.288,MST_task,2024.2.0,60.22993378611777,2026-01-18 12h30.06.208200 +0530,
,Scenes\005a.jpg,67,0,68,,,,,,,f,None,,,1.4318522000103258,0.12742530001560226,,,,68,0,67,380.4458290999755,,,,,,,,,,,,,,,,,,,,,,,,,,,,,,380.42966279998654,380.4458290999755,380.94750559999375,380.9294903000118,,,,,,,,,,,,,,,,,,,,,,,,,,380.9450369999977,380.94750559999375,380.94750559999375,380.94750559999375,383.9461616000044,f,383.9462032999727,,,383.9462147000013,None,,,,,,1.4318522000103258,0.12742530001560226,,,,,,,,,,00049,001,2026-01-18_12h17.50.288,MST_task,2024.2.0,60.22993378611777,2026-01-18 12h30.06.208200 +0530,
,Scenes\060a.jpg,68,0,69,,,,,,,j,None,,,1.137231000000611,0.103975799982436,,,,69,0,68,383.9626215000171,,,,,,,,,,,,,,,,,,,,,,,,,,,,,,383.9462835000013,383.9626215000171,384.4902113999706,384.44639489997644,,,,,,,,,,,,,,,,,,,,,,,,,,384.48766639997484,384.4902113999706,384.4902113999706,384.4902113999706,387.4629159999895,j,387.46295700001065,,,387.46296909998637,None,,,,,,1.137231000000611,0.103975799982436,,,,,,,,,,00049,001,2026-01-18_12h17.50.288,MST_task,2024.2.0,60.22993378611777,2026-01-18 12h30.06.208200 +0530,
,Scenes\187a.jpg,69,0,70,,,,,,,j,None,,,1.0287165999761783,0.09543500002473593,,,,70,0,69,387.47919749998255,,,,,,,,,,,,,,,,,,,,,,,,,,,,,,387.4630659999675,387.47919749998255,387.98299220000627,387.96306540002115,,,,,,,,,,,,,,,,,,,,,,,,,,387.9805445999955,387.98299220000627,387.98299220000627,387.98299220000627,390.9795303000137,j,390.9795716999797,,,390.9795839000144,None,,,,,,1.0287165999761783,0.09543500002473593,,,,,,,,,,00049,001,2026-01-18_12h17.50.288,MST_task,2024.2.0,60.22993378611777,2026-01-18 12h30.06.208200 +0530,
,Objects\103a.jpg,70,0,71,,,,,,,j,None,,,1.994818800012581,0.07952179998392239,,,,71,0,70,390.99592620000476,,,,,,,,,,,,,,,,,,,,,,,,,,,,,,390.9796519000083,390.99592620000476,391.4964737999835,391.4793404000229,,,,,,,,,,,,,,,,,,,,,,,,,,391.49192679999396,391.4964737999835,391.4964737999835,391.4964737999835,394.47978350002086,j,394.4818342999788,,,394.4818510999903,None,,,394.49593939998886,394.49593939998886,394.49593939998886,1.994818800012581,0.07952179998392239,,,,,,,,,,00049,001,2026-01-18_12h17.50.288,MST_task,2024.2.0,60.22993378611777,2026-01-18 12h30.06.208200 +0530,
,Objects\030a.jpg,71,0,72,,,,,,,f,None,,,1.4318673000088893,0.1433774999459274,,,,72,0,71,394.49593939998886,,,,,,,,,,,,,,,,,,,,,,,,,,,,,,394.4819514999981,394.49593939998886,394.9960685999831,394.97938169998815,,,,,,,,,,,,,,,,,,,,,,,,,,394.9894925999688,394.9960685999831,394.9960685999831,394.9960685999831,397.98001529998146,f,397.98006319999695,,,397.9800749999704,None,,,397.99581960000796,397.99581960000796,397.99581960000796,1.4318673000088893,0.1433774999459274,,,,,,,,,,00049,001,2026-01-18_12h17.50.288,MST_task,2024.2.0,60.22993378611777,2026-01-18 12h30.06.208200 +0530,
,Objects\086a.jpg,72,0,73,,,,,,,f,None,,,1.594988299999386,0.1120554999797605,,,,73,0,72,397.99581960000796,,,,,,,,,,,,,,,,,,,,,,,,,,,,,,397.98018399998546,397.99581960000796,398.4960736000212,398.4793986000004,,,,,,,,,,,,,,,,,,,,,,,,,,398.488684299984,398.4960736000212,398.4960736000212,398.4960736000212,401.4798164999811,f,401.4798590000137,,,401.4798702999833,None,,,401.4958278000122,401.4958278000122,401.4958278000122,1.594988299999386,0.1120554999797605,,,,,,,,,,00049,001,2026-01-18_12h17.50.288,MST_task,2024.2.0,60.22993378611777,2026-01-18 12h30.06.208200 +0530,
,Objects\002a.jpg,73,0,74,,,,,,,f,None,,,1.3508051999961026,0.1039833000395447,,,,74,0,73,401.4958278000122,,,,,,,,,,,,,,,,,,,,,,,,,,,,,,401.4799733000109,401.4958278000122,401.99602020002203,401.9794755000039,,,,,,,,,,,,,,,,,,,,,,,,,,401.989179999975,401.99602020002203,401.99602020002203,401.99602020002203,404.9794024999719,f,404.97944349999307,,,404.9794548000209,None,,,404.9959194000112,404.9959194000112,404.9959194000112,1.3508051999961026,0.1039833000395447,,,,,,,,,,00049,001,2026-01-18_12h17.50.288,MST_task,2024.2.0,60.22993378611777,2026-01-18 12h30.06.208200 +0530,
,Objects\066a.jpg,74,0,75,,,,,,,f,None,,,2.083180200017523,0.12074149999534711,,,,75,0,74,404.9959194000112,,,,,,,,,,,,,,,,,,,,,,,,,,,,,,404.97955639997963,404.9959194000112,405.4961341000162,405.4795224000118,,,,,,,,,,,,,,,,,,,,,,,,,,405.48961539997254,405.4961341000162,405.4961341000162,405.4961341000162,408.47976249997737,f,408.4798027999932,,,408.47981400002027,None,,,408.49598389997846,408.49598389997846,408.49598389997846,2.083180200017523,0.12074149999534711,,,,,,,,,,00049,001,2026-01-18_12h17.50.288,MST_task,2024.2.0,60.22993378611777,2026-01-18 12h30.06.208200 +0530,
,Objects\190a.jpg,75,0,76,,,,,,,f,None,,,0.8388434000080451,0.11254900001222268,,,,76,0,75,408.49598389997846,,,,,,,,,,,,,,,,,,,,,,,,,,,,,,408.47988050000276,408.49598389997846,408.9961100000073,408.9794788999716,,,,,,,,,,,,,,,,,,,,,,,,,,408.9890103000216,408.9961100000073,408.9961100000073,408.9961100000073,411.9796930999728,f,411.979734499997,,,411.97974580002483,None,,,411.99592229997506,411.99592229997506,411.99592229997506,0.8388434000080451,0.11254900001222268,,,,,,,,,,00049,001,2026-01-18_12h17.50.288,MST_task,2024.2.0,60.22993378611777,2026-01-18 12h30.06.208200 +0530,
,Objects\175a.jpg,76,0,77,,,,,,,f,None,,,1.09914080001181,0.10496500000590459,,,,77,0,76,411.99592229997506,,,,,,,,,,,,,,,,,,,,,,,,,,,,,,411.979811600002,411.99592229997506,412.49602069996763,412.47934469999745,,,,,,,,,,,,,,,,,,,,,,,,,,412.49234360002447,412.49602069996763,412.49602069996763,412.49602069996763,415.4803159000003,f,415.4803755999892,,,415.4803898999817,None,,,415.49599349999335,415.49599349999335,415.49599349999335,1.09914080001181,0.10496500000590459,,,,,,,,,,00049,001,2026-01-18_12h17.50.288,MST_task,2024.2.0,60.22993378611777,2026-01-18 12h30.06.208200 +0530,
,Scenes\161a.jpg,77,0,78,,,,,,,j,None,,,1.8850849000154994,0.08815229998435825,,,,78,0,77,415.49599349999335,,,,,,,,,,,,,,,,,,,,,,,,,,,,,,415.4804761999985,415.49599349999335,416.0057322999928,415.97946110001067,,,,,,,,,,,,,,,,,,,,,,,,,,416.00317260000156,416.0057322999928,416.0057322999928,416.0057322999928,418.9960943000042,j,418.9977317000157,,,418.9977476000204,None,,,,,,1.8850849000154994,0.08815229998435825,,,,,,,,,,00049,001,2026-01-18_12h17.50.288,MST_task,2024.2.0,60.22993378611777,2026-01-18 12h30.06.208200 +0530,
,Scenes\162a.jpg,78,0,79,,,,,,,j,None,,,1.991403799969703,0.07996649999404326,,,,79,0,78,419.0125282999943,,,,,,,,,,,,,,,,,,,,,,,,,,,,,,418.9978684000089,419.0125282999943,419.5153463999741,419.4961288999766,,,,,,,,,,,,,,,,,,,,,,,,,,419.5130076999776,419.5153463999741,419.5153463999741,419.5153463999741,422.5128602000186,j,422.51290380000137,,,422.5129160999786,None,,,,,,1.991403799969703,0.07996649999404326,,,,,,,,,,00049,001,2026-01-18_12h17.50.288,MST_task,2024.2.0,60.22993378611777,2026-01-18 12h30.06.208200 +0530,
,Scenes\158a.jpg,79,0,80,,,,,,,j,None,,,0.9060983999515884,0.08723460003966466,,,,80,0,79,422.5292512999731,,,,,,,,,,,,,,,,,,,,,,,,,,,,,,422.5130199000123,422.5292512999731,423.0332939000218,423.01285160001134,,,,,,,,,,,,,,,,,,,,,,,,,,423.0307307000039,423.0332939000218,423.0332939000218,423.0332939000218,426.02934439998353,j,426.02938419999555,,,426.0293952000211,None,,,,,,0.9060983999515884,0.08723460003966466,,,,,,,,,,00049,001,2026-01-18_12h17.50.288,MST_task,2024.2.0,60.22993378611777,2026-01-18 12h30.06.208200 +0530,
,Scenes\041a.jpg,80,0,81,,,,,,,j,None,,,1.0451565000112168,0.11115219997009262,,,,81,0,80,426.0459344999981,,,,,,,,,,,,,,,,,,,,,,,,,,,,,,426.0294614000013,426.0459344999981,426.5503032999695,426.52952749998076,,,,,,,,,,,,,,,,,,,,,,,,,,426.5479142999975,426.5503032999695,426.5503032999695,426.5503032999695,429.5460544999805,j,429.54609580000397,,,429.5461072999751,None,,,,,,1.0451565000112168,0.11115219997009262,,,,,,,,,,00049,001,2026-01-18_12h17.50.288,MST_task,2024.2.0,60.22993378611777,2026-01-18 12h30.06.208200 +0530,
,Scenes\039a.jpg,81,0,82,,,,,,,j,None,,,0.7489472999586724,0.11126010003499687,,,,82,0,81,429.5624951000209,,,,,,,,,,,,,,,,,,,,,,,,,,,,,,429.54617480002344,429.5624951000209,430.063029300014,430.0462972000241,,,,,,,,,,,,,,,,,,,,,,,,,,430.0596207000199,430.063029300014,430.063029300014,430.063029300014,433.0467960999813,j,433.0468382000108,,,433.0468490999774,None,,,433.06245849997504,433.06245849997504,433.06245849997504,0.7489472999586724,0.11126010003499687,,,,,,,,,,00049,001,2026-01-18_12h17.50.288,MST_task,2024.2.0,60.22993378611777,2026-01-18 12h30.06.208200 +0530,
,Scenes\127a.jpg,82,0,83,,,,,,,j,None,,,0.9895195999997668,0.08007820002967492,,,,83,0,82,433.06245849997504,,,,,,,,,,,,,,,,,,,,,,,,,,,,,,433.0469491999829,433.06245849997504,433.5653313000221,433.54613570001675,,,,,,,,,,,,,,,,,,,,,,,,,,433.5630588000058,433.5653313000221,433.5653313000221,433.5653313000221,436.56280259997584,j,436.5628564999788,,,436.5628690000158,None,,,,,,0.9895195999997668,0.08007820002967492,,,,,,,,,,00049,001,2026-01-18_12h17.50.288,MST_task,2024.2.0,60.22993378611777,2026-01-18 12h30.06.208200 +0530,
,Scenes\046a.jpg,83,0,84,,,,,,,j,None,,,0.9086843999684788,0.10437509999610484,,,,84,0,83,436.5790022999863,,,,,,,,,,,,,,,,,,,,,,,,,,,,,,436.56297650001943,436.5790022999863,437.0860550000216,437.06277700001374,,,,,,,,,,,,,,,,,,,,,,,,,,437.0836348999874,437.0860550000216,437.0860550000216,437.0860550000216,440.0792925999849,j,440.07937940000556,,,440.07939879997866,None,,,,,,0.9086843999684788,0.10437509999610484,,,,,,,,,,00049,001,2026-01-18_12h17.50.288,MST_task,2024.2.0,60.22993378611777,2026-01-18 12h30.06.208200 +0530,
,Objects\033a.jpg,84,0,85,,,,,,,f,None,,,1.2230299999937415,0.0953637000056915,,,,85,0,84,440.0959618000197,,,,,,,,,,,,,,,,,,,,,,,,,,,,,,440.0795220999862,440.0959618000197,440.59635339997476,440.5793300999794,,,,,,,,,,,,,,,,,,,,,,,,,,440.59149089996936,440.59635339997476,440.59635339997476,440.59635339997476,443.579976900015,f,443.5820788000128,,,443.5820963999722,None,,,443.5958376000053,443.5958376000053,443.5958376000053,1.2230299999937415,0.0953637000056915,,,,,,,,,,00049,001,2026-01-18_12h17.50.288,MST_task,2024.2.0,60.22993378611777,2026-01-18 12h30.06.208200 +0530,
,Objects\042a.jpg,85,0,86,,,,,,,None,j,0.18711229995824397,None,,,,,,86,0,85,443.5958376000053,,,,,,,,,,,,,,,,,,,,,,,,,,,,,,443.5821835999959,443.5958376000053,444.0960650999914,444.07933209999464,,,,,,,,,,,,,,,,,,,,,,,,,,444.08913759997813,444.0960650999914,444.0960650999914,444.0960650999914,447.0797425999772,None,447.07977989997016,447.0958475000225,447.0958475000225,447.29623839998385,j,0.18711229995824397,None,447.0958475000225,447.0958475000225,447.0958475000225,,,,,,,,,,,,00049,001,2026-01-18_12h17.50.288,MST_task,2024.2.0,60.22993378611777,2026-01-18 12h30.06.208200 +0530,
,Objects\153a.jpg,86,0,87,,,,,,,f,None,,,1.2227797999512404,0.12000450002960861,,,,87,0,86,447.31242590001784,,,,,,,,,,,,,,,,,,,,,,,,,,,,,,447.2963215999771,447.31242590001784,447.8127579999855,447.7960888000089,,,,,,,,,,,,,,,,,,,,,,,,,,447.8060599999735,447.8127579999855,447.8127579999855,447.8127579999855,450.79654860001756,f,450.79659669997636,,,450.79660890001105,None,,,450.8125013000099,450.8125013000099,450.8125013000099,1.2227797999512404,0.12000450002960861,,,,,,,,,,00049,001,2026-01-18_12h17.50.288,MST_task,2024.2.0,60.22993378611777,2026-01-18 12h30.06.208200 +0530,
,Objects\176a.jpg,87,0,88,,,,,,,j,None,,,1.042593799997121,0.11203119996935129,,,,88,0,87,450.8125013000099,,,,,,,,,,,,,,,,,,,,,,,,,,,,,,450.79667770001106,450.8125013000099,451.31272829999216,451.2962074999814,,,,,,,,,,,,,,,,,,,,,,,,,,451.30641309998464,451.31272829999216,451.31272829999216,451.31272829999216,454.29638040001737,j,454.29642159998184,,,454.2964334000135,None,,,454.31246500002453,454.31246500002453,454.31246500002453,1.042593799997121,0.11203119996935129,,,,,,,,,,00049,001,2026-01-18_12h17.50.288,MST_task,2024.2.0,60.22993378611777,2026-01-18 12h30.06.208200 +0530,
,Objects\122a.jpg,88,0,89,,,,,,,f,None,,,1.0949593000113964,0.10320479999063537,,,,89,0,88,454.31246500002453,,,,,,,,,,,,,,,,,,,,,,,,,,,,,,454.29653099999996,454.31246500002453,454.8127504999866,454.796067200019,,,,,,,,,,,,,,,,,,,,,,,,,,454.8056734999991,454.8127504999866,454.8127504999866,454.8127504999866,457.7963583000237,f,457.7963983999798,,,457.79640940000536,None,,,457.8125008000061,457.8125008000061,457.8125008000061,1.0949593000113964,0.10320479999063537,,,,,,,,,,00049,001,2026-01-18_12h17.50.288,MST_task,2024.2.0,60.22993378611777,2026-01-18 12h30.06.208200 +0530,
,Objects\127a.jpg,89,0,90,,,,,,,f,None,,,1.0105854000430554,0.11211409996030852,,,,90,0,89,457.8125008000061,,,,,,,,,,,,,,,,,,,,,,,,,,,,,,457.7964727000217,457.8125008000061,458.31274129997473,458.29606869997224,,,,,,,,,,,,,,,,,,,,,,,,,,458.30571500002407,458.31274129997473,458.31274129997473,458.31274129997473,461.29649789998075,f,461.2965427999734,,,461.2965536999982,None,,,461.3125151999993,461.3125151999993,461.3125151999993,1.0105854000430554,0.11211409996030852,,,,,,,,,,00049,001,2026-01-18_12h17.50.288,MST_task,2024.2.0,60.22993378611777,2026-01-18 12h30.06.208200 +0530,
,Objects\114a.jpg,90,0,91,,,,,,,f,None,,,1.2059197000344284,0.1293988999677822,,,,91,0,90,461.3125151999993,,,,,,,,,,,,,,,,,,,,,,,,,,,,,,461.29662129998906,461.3125151999993,461.8127635999699,461.79604669997934,,,,,,,,,,,,,,,,,,,,,,,,,,461.80649789999006,461.8127635999699,461.8127635999699,461.8127635999699,464.79638900002465,f,464.79642929998226,,,464.7964401000063,None,,,464.81243980000727,464.81243980000727,464.81243980000727,1.2059197000344284,0.1293988999677822,,,,,,,,,,00049,001,2026-01-18_12h17.50.288,MST_task,2024.2.0,60.22993378611777,2026-01-18 12h30.06.208200 +0530,
,Scenes\101a.jpg,91,0,92,,,,,,,j,None,,,2.400431199988816,0.10363800002960488,,,,92,0,91,464.81243980000727,,,,,,,,,,,,,,,,,,,,,,,,,,,,,,464.7965052999789,464.81243980000727,465.3156551999855,465.2961714999983,,,,,,,,,,,,,,,,,,,,,,,,,,465.31328559998656,465.3156551999855,465.3156551999855,465.3156551999855,468.3127648999798,j,468.31442090001656,,,468.3144378999714,None,,,,,,2.400431199988816,0.10363800002960488,,,,,,,,,,00049,001,2026-01-18_12h17.50.288,MST_task,2024.2.0,60.22993378611777,2026-01-18 12h30.06.208200 +0530,
,Scenes\024a.jpg,92,0,93,,,,,,,None,j,0.4536252000252716,None,,,,,,93,0,92,468.32902940001804,,,,,,,,,,,,,,,,,,,,,,,,,,,,,,468.3145091999904,468.32902940001804,468.8295517999795,468.81267110002227,,,,,,,,,,,,,,,,,,,,,,,,,,468.82708169997204,468.8295517999795,468.8295517999795,468.8295517999795,471.8133940999978,None,471.8134297999786,471.82910799997626,471.82910799997626,472.29619339999044,j,0.4536252000252716,None,471.82910799997626,471.82910799997626,471.82910799997626,,,,,,,,,,,,00049,001,2026-01-18_12h17.50.288,MST_task,2024.2.0,60.22993378611777,2026-01-18 12h30.06.208200 +0530,
,Scenes\054a.jpg,93,0,94,,,,,,,j,None,,,1.175104400026612,0.10346779995597899,,,,94,0,93,472.31248849997064,,,,,,,,,,,,,,,,,,,,,,,,,,,,,,472.29631060000975,472.31248849997064,472.82016020000447,472.79618770000525,,,,,,,,,,,,,,,,,,,,,,,,,,472.8177985000075,472.82016020000447,472.82016020000447,472.82016020000447,475.8127315000165,j,475.81278550002025,,,475.8127980999998,None,,,,,,1.175104400026612,0.10346779995597899,,,,,,,,,,00049,001,2026-01-18_12h17.50.288,MST_task,2024.2.0,60.22993378611777,2026-01-18 12h30.06.208200 +0530,
,Scenes\140a.jpg,94,0,95,,,,,,,j,None,,,0.8730558999814093,0.12798789999214932,,,,95,0,94,475.82909429998836,,,,,,,,,,,,,,,,,,,,,,,,,,,,,,475.8129103999818,475.82909429998836,476.32970150001347,476.3128098999732,,,,,,,,,,,,,,,,,,,,,,,,,,476.32678930001566,476.32970150001347,476.32970150001347,476.32970150001347,479.3129635999794,j,479.31300470000133,,,479.31301549996715,None,,,479.3290378000238,479.3290378000238,479.3290378000238,0.8730558999814093,0.12798789999214932,,,,,,,,,,00049,001,2026-01-18_12h17.50.288,MST_task,2024.2.0,60.22993378611777,2026-01-18 12h30.06.208200 +0530,
,Scenes\116a.jpg,95,0,96,,,,,,,j,None,,,0.8130594999529421,0.1050379000371322,,,,96,0,95,479.3290378000238,,,,,,,,,,,,,,,,,,,,,,,,,,,,,,479.31311300001107,479.3290378000238,479.8297009000089,479.8128604000085,,,,,,,,,,,,,,,,,,,,,,,,,,479.82691280002473,479.8297009000089,479.8297009000089,479.8297009000089,482.81299429998035,j,482.8130374000175,,,482.8130481999833,None,,,482.8291046000086,482.8291046000086,482.8291046000086,0.8130594999529421,0.1050379000371322,,,,,,,,,,00049,001,2026-01-18_12h17.50.288,MST_task,2024.2.0,60.22993378611777,2026-01-18 12h30.06.208200 +0530,
,Scenes\184a.jpg,96,0,97,,,,,,,j,None,,,0.9612146000145003,0.11185019998811185,,,,97,0,96,482.8291046000086,,,,,,,,,,,,,,,,,,,,,,,,,,,,,,482.8131460999721,482.8291046000086,483.3297381000011,483.31286389997695,,,,,,,,,,,,,,,,,,,,,,,,,,483.32750189997023,483.3297381000011,483.3297381000011,483.3297381000011,486.31309469998814,j,486.3131341999979,,,486.31314490002114,None,,,486.3289481999818,486.3289481999818,486.3289481999818,0.9612146000145003,0.11185019998811185,,,,,,,,,,00049,001,2026-01-18_12h17.50.288,MST_task,2024.2.0,60.22993378611777,2026-01-18 12h30.06.208200 +0530,
,Scenes\137a.jpg,97,0,98,,,,,,,j,None,,,0.7578517000074498,0.1113545999978669,,,,98,0,97,486.3289481999818,,,,,,,,,,,,,,,,,,,,,,,,,,,,,,486.3132086999831,486.3289481999818,486.829697499983,486.81273609999334,,,,,,,,,,,,,,,,,,,,,,,,,,486.82688710000366,486.829697499983,486.829697499983,486.829697499983,489.81305529997917,j,489.8130958999973,,,489.8131070000236,None,,,489.82903199997963,489.82903199997963,489.82903199997963,0.7578517000074498,0.1113545999978669,,,,,,,,,,00049,001,2026-01-18_12h17.50.288,MST_task,2024.2.0,60.22993378611777,2026-01-18 12h30.06.208200 +0530,
,Objects\113a.jpg,98,0,99,,,,,,,f,None,,,1.1867134000058286,0.1350082000135444,,,,99,0,98,489.82903199997963,,,,,,,,,,,,,,,,,,,,,,,,,,,,,,489.8132064000238,489.82903199997963,490.3295654000249,490.312858099991,,,,,,,,,,,,,,,,,,,,,,,,,,490.32615310000256,490.3295654000249,490.3295654000249,490.3295654000249,493.3133374999743,f,493.31542060000356,,,493.31543720001355,None,,,493.32920889998786,493.32920889998786,493.32920889998786,1.1867134000058286,0.1350082000135444,,,,,,,,,,00049,001,2026-01-18_12h17.50.288,MST_task,2024.2.0,60.22993378611777,2026-01-18 12h30.06.208200 +0530,
,Objects\159a.jpg,99,0,100,,,,,,,f,None,,,0.5656540000345558,0.144355500000529,,,,100,0,99,493.32920889998786,,,,,,,,,,,,,,,,,,,,,,,,,,,,,,493.3155078999698,493.32920889998786,493.8294173000031,493.81286080001155,,,,,,,,,,,,,,,,,,,,,,,,,,493.8226194999879,493.8294173000031,493.8294173000031,493.8294173000031,496.8131570999976,f,496.8132002999773,,,496.8132115000044,None,,,496.829016099975,496.829016099975,496.829016099975,0.5656540000345558,0.144355500000529,,,,,,,,,,00049,001,2026-01-18_12h17.50.288,MST_task,2024.2.0,60.22993378611777,2026-01-18 12h30.06.208200 +0530,
,Objects\027a.jpg,100,0,101,,,,,,,f,None,,,0.7775203000055626,0.12101000000257045,,,,101,0,100,496.829016099975,,,,,,,,,,,,,,,,,,,,,,,,,,,,,,496.81331669999054,496.829016099975,497.3294727000175,497.3127881999826,,,,,,,,,,,,,,,,,,,,,,,,,,497.3228832000168,497.3294727000175,497.3294727000175,497.3294727000175,500.3131523000193,f,500.3131930999807,,,500.31320390000474,None,,,500.3291429000092,500.3291429000092,500.3291429000092,0.7775203000055626,0.12101000000257045,,,,,,,,,,00049,001,2026-01-18_12h17.50.288,MST_task,2024.2.0,60.22993378611777,2026-01-18 12h30.06.208200 +0530,
,Objects\107a.jpg,101,0,102,,,,,,,j,None,,,1.029316200001631,0.07998689997475594,,,,102,0,101,500.3291429000092,,,,,,,,,,,,,,,,,,,,,,,,,,,,,,500.31327059998875,500.3291429000092,500.8293790000025,500.8129300000146,,,,,,,,,,,,,,,,,,,,,,,,,,500.82246140000643,500.8293790000025,500.8293790000025,500.8293790000025,503.81317749997834,j,503.81321970000863,,,503.8132313999813,None,,,503.8292885000119,503.8292885000119,503.8292885000119,1.029316200001631,0.07998689997475594,,,,,,,,,,00049,001,2026-01-18_12h17.50.288,MST_task,2024.2.0,60.22993378611777,2026-01-18 12h30.06.208200 +0530,
,Objects\144a.jpg,102,0,103,,,,,,,j,None,,,1.3939976000110619,0.12002059997757897,,,,103,0,102,503.8292885000119,,,,,,,,,,,,,,,,,,,,,,,,,,,,,,503.813328899967,503.8292885000119,504.32944539998425,504.31294620002154,,,,,,,,,,,,,,,,,,,,,,,,,,504.32316640001955,504.32944539998425,504.32944539998425,504.32944539998425,507.3131573999999,j,507.31319610000355,,,507.3132067999686,None,,,507.3291779999854,507.3291779999854,507.3291779999854,1.3939976000110619,0.12002059997757897,,,,,,,,,,00049,001,2026-01-18_12h17.50.288,MST_task,2024.2.0,60.22993378611777,2026-01-18 12h30.06.208200 +0530,
,Objects\115a.jpg,103,0,104,,,,,,,f,None,,,0.8780861000414006,0.1130356999929063,,,,104,0,103,507.3291779999854,,,,,,,,,,,,,,,,,,,,,,,,,,,,,,507.31330109998817,507.3291779999854,507.82948660000693,507.812866399996,,,,,,,,,,,,,,,,,,,,,,,,,,507.82297340000514,507.82948660000693,507.82948660000693,507.82948660000693,510.8130650999956,f,510.81310560001293,,,510.81311609997647,None,,,510.8292877000058,510.8292877000058,510.8292877000058,0.8780861000414006,0.1130356999929063,,,,,,,,,,00049,001,2026-01-18_12h17.50.288,MST_task,2024.2.0,60.22993378611777,2026-01-18 12h30.06.208200 +0530,
,Objects\180a.jpg,104,0,105,,,,,,,j,None,,,2.553723599994555,0.13599929999327287,,,,105,0,104,510.8292877000058,,,,,,,,,,,,,,,,,,,,,,,,,,,,,,510.8132106999983,510.8292877000058,511.32937549997587,511.31284680002136,,,,,,,,,,,,,,,,,,,,,,,,,,511.3224190999754,511.32937549997587,511.32937549997587,511.32937549997587,514.3132215000223,j,514.3132623999845,,,514.3132735000108,None,,,514.3291580000077,514.3291580000077,514.3291580000077,2.553723599994555,0.13599929999327287,,,,,,,,,,00049,001,2026-01-18_12h17.50.288,MST_task,2024.2.0,60.22993378611777,2026-01-18 12h30.06.208200 +0530,
,Scenes\028a.jpg,105,0,106,,,,,,,j,None,,,1.1631838000030257,0.1437088000238873,,,,106,0,105,514.3291580000077,,,,,,,,,,,,,,,,,,,,,,,,,,,,,,514.3133393999888,514.3291580000077,514.8320163000026,514.8128465000191,,,,,,,,,,,,,,,,,,,,,,,,,,514.8294161999947,514.8320163000026,514.8320163000026,514.8320163000026,517.8293628999963,j,517.831022600003,,,517.8310411999701,None,,,,,,1.1631838000030257,0.1437088000238873,,,,,,,,,,00049,001,2026-01-18_12h17.50.288,MST_task,2024.2.0,60.22993378611777,2026-01-18 12h30.06.208200 +0530,
,Scenes\068a.jpg,106,0,107,,,,,,,j,None,,,0.9343039999948815,0.1279964999994263,,,,107,0,106,517.8459609000129,,,,,,,,,,,,,,,,,,,,,,,,,,,,,,517.8311447000015,517.8459609000129,518.3490839999868,518.3292619999847,,,,,,,,,,,,,,,,,,,,,,,,,,518.3466925999965,518.3490839999868,518.3490839999868,518.3490839999868,521.3461271999986,j,521.3461678000167,,,521.3461794999894,None,,,,,,0.9343039999948815,0.1279964999994263,,,,,,,,,,00049,001,2026-01-18_12h17.50.288,MST_task,2024.2.0,60.22993378611777,2026-01-18 12h30.06.208200 +0530,
,Scenes\077a.jpg,107,0,108,,,,,,,None,f,0.43692420003935695,None,,,,,,108,0,107,521.3624791000038,,,,,,,,,,,,,,,,,,,,,,,,,,,,,,521.346278699988,521.3624791000038,521.8647754999693,521.8461893000058,,,,,,,,,,,,,,,,,,,,,,,,,,521.862345099973,521.8647754999693,521.8647754999693,521.8647754999693,524.862790299987,None,524.862838800007,524.8789732999867,524.8789732999867,525.329435200023,f,0.43692420003935695,None,,,,,,,,,,,,,,,00049,001,2026-01-18_12h17.50.288,MST_task,2024.2.0,60.22993378611777,2026-01-18 12h30.06.208200 +0530,
,Scenes\179a.jpg,108,0,109,,,,,,,j,None,,,0.7491253000334837,0.11208809999516234,,,,109,0,108,525.3458432999905,,,,,,,,,,,,,,,,,,,,,,,,,,,,,,525.3295210999786,525.3458432999905,525.8462917999714,525.8294201000244,,,,,,,,,,,,,,,,,,,,,,,,,,525.8424875999917,525.8462917999714,525.8462917999714,525.8462917999714,528.8296641000197,j,528.829710400023,,,528.8297216999927,None,,,528.845845600008,528.845845600008,528.845845600008,0.7491253000334837,0.11208809999516234,,,,,,,,,,00049,001,2026-01-18_12h17.50.288,MST_task,2024.2.0,60.22993378611777,2026-01-18 12h30.06.208200 +0530,
,Scenes\025a.jpg,109,0,110,,,,,,,j,None,,,0.708457900036592,0.15200140001252294,,,,110,0,109,528.845845600008,,,,,,,,,,,,,,,,,,,,,,,,,,,,,,528.8297876999713,528.845845600008,529.350987199985,529.329367999977,,,,,,,,,,,,,,,,,,,,,,,,,,529.348530200019,529.350987199985,529.350987199985,529.350987199985,532.3461345999967,j,532.3461752000148,,,532.3461865999852,None,,,,,,0.708457900036592,0.15200140001252294,,,,,,,,,,00049,001,2026-01-18_12h17.50.288,MST_task,2024.2.0,60.22993378611777,2026-01-18 12h30.06.208200 +0530,
,Scenes\166a.jpg,110,0,111,,,,,,,j,None,,,0.6833530999720097,0.08805339998798445,,,,111,0,110,532.3625106000109,,,,,,,,,,,,,,,,,,,,,,,,,,,,,,532.3462534999708,532.3625106000109,532.8639066999895,532.8462234999752,,,,,,,,,,,,,,,,,,,,,,,,,,532.8613981999806,532.8639066999895,532.8639066999895,532.8639066999895,535.8627862000139,j,535.8628320000134,,,535.8628439999884,None,,,,,,0.6833530999720097,0.08805339998798445,,,,,,,,,,00049,001,2026-01-18_12h17.50.288,MST_task,2024.2.0,60.22993378611777,2026-01-18 12h30.06.208200 +0530,
,Scenes\006a.jpg,111,0,112,,,,,,,f,None,,,1.2306460000108927,0.12826580001274124,,,,112,0,111,535.8790295000072,,,,,,,,,,,,,,,,,,,,,,,,,,,,,,535.8629115999793,535.8790295000072,536.3803434000001,536.3629230000079,,,,,,,,,,,,,,,,,,,,,,,,,,536.3781500000041,536.3803434000001,536.3803434000001,536.3803434000001,539.3798326000106,f,539.3798745999811,,,539.379886300012,None,,,,,,1.2306460000108927,0.12826580001274124,,,,,,,,,,00049,001,2026-01-18_12h17.50.288,MST_task,2024.2.0,60.22993378611777,2026-01-18 12h30.06.208200 +0530,
,Objects\048a.jpg,112,0,113,,,,,,,j,None,,,1.9225304999854416,0.08799580001505092,,,,113,0,112,539.3958005000022,,,,,,,,,,,,,,,,,,,,,,,,,,,,,,539.3799540000036,539.3958005000022,539.8963251999812,539.8795619999873,,,,,,,,,,,,,,,,,,,,,,,,,,539.8917887000134,539.8963251999812,539.8963251999812,539.8963251999812,542.8798228999949,j,542.8818440000177,,,542.8818594000186,None,,,542.895863600017,542.895863600017,542.895863600017,1.9225304999854416,0.08799580001505092,,,,,,,,,,00049,001,2026-01-18_12h17.50.288,MST_task,2024.2.0,60.22993378611777,2026-01-18 12h30.06.208200 +0530,
,Objects\106a.jpg,113,0,114,,,,,,,f,None,,,1.431428500043694,0.10500059998594224,,,,114,0,113,542.895863600017,,,,,,,,,,,,,,,,,,,,,,,,,,,,,,542.8819293999695,542.895863600017,543.3960709000239,543.3793636999908,,,,,,,,,,,,,,,,,,,,,,,,,,543.3887302000076,543.3960709000239,543.3960709000239,543.3960709000239,546.3796475999989,f,546.3796896999702,,,546.3797014000011,None,,,546.3958731999737,546.3958731999737,546.3958731999737,1.431428500043694,0.10500059998594224,,,,,,,,,,00049,001,2026-01-18_12h17.50.288,MST_task,2024.2.0,60.22993378611777,2026-01-18 12h30.06.208200 +0530,
,Objects\173a.jpg,114,0,115,,,,,,,f,None,,,1.1474991999566555,0.11097870004596189,,,,115,0,114,546.3958731999737,,,,,,,,,,,,,,,,,,,,,,,,,,,,,,546.3798017000081,546.3958731999737,546.8962273999932,546.8792081999709,,,,,,,,,,,,,,,,,,,,,,,,,,546.8878067000187,546.8962273999932,546.8962273999932,546.8962273999932,549.8797296999837,f,549.8797716000117,,,549.8797825999791,None,,,549.8958583999774,549.8958583999774,549.8958583999774,1.1474991999566555,0.11097870004596189,,,,,,,,,,00049,001,2026-01-18_12h17.50.288,MST_task,2024.2.0,60.22993378611777,2026-01-18 12h30.06.208200 +0530,
,Objects\099a.jpg,115,0,116,,,,,,,None,f,0.07145119999768212,None,,,,,,116,0,115,549.8958583999774,,,,,,,,,,,,,,,,,,,,,,,,,,,,,,549.8798888999736,549.8958583999774,550.3961335999775,550.379471399996,,,,,,,,,,,,,,,,,,,,,,,,,,550.3898457000032,550.3961335999775,550.3961335999775,550.3961335999775,553.3798158999998,None,553.3798583999742,553.3960088000167,553.3960088000167,553.4795375000103,f,0.07145119999768212,None,553.3960088000167,553.3960088000167,553.3960088000167,,,,,,,,,,,,00049,001,2026-01-18_12h17.50.288,MST_task,2024.2.0,60.22993378611777,2026-01-18 12h30.06.208200 +0530,
,Objects\124a.jpg,116,0,117,,,,,,,j,None,,,1.1106754999491386,0.08905589999631047,,,,117,0,116,553.495848999999,,,,,,,,,,,,,,,,,,,,,,,,,,,,,,553.4796235999675,553.495848999999,553.9960357000236,553.979353200004,,,,,,,,,,,,,,,,,,,,,,,,,,553.9894039999926,553.9960357000236,553.9960357000236,553.9960357000236,556.9796111999894,j,556.9796523000114,,,556.979663599981,None,,,556.9958561999956,556.9958561999956,556.9958561999956,1.1106754999491386,0.08905589999631047,,,,,,,,,,00049,001,2026-01-18_12h17.50.288,MST_task,2024.2.0,60.22993378611777,2026-01-18 12h30.06.208200 +0530,
,Objects\079a.jpg,117,0,118,,,,,,,j,None,,,0.9070732000400312,0.1040493999607861,,,,118,0,117,556.9958561999956,,,,,,,,,,,,,,,,,,,,,,,,,,,,,,556.9797582000028,556.9958561999956,557.496096900024,557.4793649999774,,,,,,,,,,,,,,,,,,,,,,,,,,557.4890497999731,557.496096900024,557.496096900024,557.496096900024,560.4798563999939,j,560.4799037000048,,,560.4799148999737,None,,,560.4959372999729,560.4959372999729,560.4959372999729,0.9070732000400312,0.1040493999607861,,,,,,,,,,00049,001,2026-01-18_12h17.50.288,MST_task,2024.2.0,60.22993378611777,2026-01-18 12h30.06.208200 +0530,
,Objects\125a.jpg,118,0,119,,,,,,,j,None,,,1.4868484000326134,0.11207669996656477,,,,119,0,118,560.4959372999729,,,,,,,,,,,,,,,,,,,,,,,,,,,,,,560.4800266000093,560.4959372999729,560.9960999999894,560.9792866000207,,,,,,,,,,,,,,,,,,,,,,,,,,560.9887720000115,560.9960999999894,560.9960999999894,560.9960999999894,563.9795787999756,j,563.979617999983,,,563.9796291000093,None,,,563.995855599991,563.995855599991,563.995855599991,1.4868484000326134,0.11207669996656477,,,,,,,,,,00049,001,2026-01-18_12h17.50.288,MST_task,2024.2.0,60.22993378611777,2026-01-18 12h30.06.208200 +0530,
,Scenes\020a.jpg,119,0,120,,,,,,,f,None,,,1.7802420999505557,0.11198940000031143,,,,120,0,119,563.995855599991,,,,,,,,,,,,,,,,,,,,,,,,,,,,,,563.9797241999768,563.995855599991,564.5033917999826,564.479486599972,,,,,,,,,,,,,,,,,,,,,,,,,,564.5009228999843,564.5033917999826,564.5033917999826,564.5033917999826,567.4960373999784,f,567.4976985999965,,,567.4977168000187,None,,,,,,1.7802420999505557,0.11198940000031143,,,,,,,,,,00049,001,2026-01-18_12h17.50.288,MST_task,2024.2.0,60.22993378611777,2026-01-18 12h30.06.208200 +0530,
,Scenes\034a.jpg,120,0,121,,,,,,,f,None,,,0.9260068000294268,0.13702029996784404,,,,121,0,120,567.5125183999771,,,,,,,,,,,,,,,,,,,,,,,,,,,,,,567.4978224000079,567.5125183999771,568.0210179999704,567.9960970000247,,,,,,,,,,,,,,,,,,,,,,,,,,568.0183585999766,568.0210179999704,568.0210179999704,568.0210179999704,571.012831799977,f,571.0128718999913,,,571.0128839000245,None,,,,,,0.9260068000294268,0.13702029996784404,,,,,,,,,,00049,001,2026-01-18_12h17.50.288,MST_task,2024.2.0,60.22993378611777,2026-01-18 12h30.06.208200 +0530,
,Scenes\132a.jpg,121,0,122,,,,,,,f,None,,,1.0730218999669887,0.1361449000542052,,,,122,0,121,571.029548600025,,,,,,,,,,,,,,,,,,,,,,,,,,,,,,571.0129822000163,571.029548600025,571.5296886999859,571.5128726999974,,,,,,,,,,,,,,,,,,,,,,,,,,571.5265877000056,571.5296886999859,571.5296886999859,571.5296886999859,574.5129976000171,f,574.513037799974,,,574.5130493000033,None,,,574.52907769999,574.52907769999,574.52907769999,1.0730218999669887,0.1361449000542052,,,,,,,,,,00049,001,2026-01-18_12h17.50.288,MST_task,2024.2.0,60.22993378611777,2026-01-18 12h30.06.208200 +0530,
,Scenes\017a.jpg,122,0,123,,,,,,,f,None,,,2.2745217999909073,0.1280162999755703,,,,123,0,122,574.52907769999,,,,,,,,,,,,,,,,,,,,,,,,,,,,,,574.5131153999828,574.52907769999,575.0325284000137,575.0127185999881,,,,,,,,,,,,,,,,,,,,,,,,,,575.0298812999972,575.0325284000137,575.0325284000137,575.0325284000137,578.029349999968,f,578.0293917999952,,,578.029403100023,None,,,,,,2.2745217999909073,0.1280162999755703,,,,,,,,,,00049,001,2026-01-18_12h17.50.288,MST_task,2024.2.0,60.22993378611777,2026-01-18 12h30.06.208200 +0530,
,Scenes\105a.jpg,123,0,124,,,,,,,j,None,,,1.5809569000266492,0.10507789999246597,,,,124,0,123,578.045891900023,,,,,,,,,,,,,,,,,,,,,,,,,,,,,,578.0295014000149,578.045891900023,578.5498378999764,578.5293938000104,,,,,,,,,,,,,,,,,,,,,,,,,,578.5474742000224,578.5498378999764,578.5498378999764,578.5498378999764,581.5461573000066,j,581.5462034000084,,,581.5462154999841,None,,,,,,1.5809569000266492,0.10507789999246597,,,,,,,,,,00049,001,2026-01-18_12h17.50.288,MST_task,2024.2.0,60.22993378611777,2026-01-18 12h30.06.208200 +0530,
,Scenes\172a.jpg,124,0,125,,,,,,,j,None,,,1.4275421999627724,0.12799479998648167,,,,125,0,124,581.5624945000163,,,,,,,,,,,,,,,,,,,,,,,,,,,,,,581.5463242999977,581.5624945000163,582.0632546999841,582.0462570000091,,,,,,,,,,,,,,,,,,,,,,,,,,582.0610345000168,582.0632546999841,582.0632546999841,582.0632546999841,585.0464506999706,j,585.0464908999857,,,585.0465016000089,None,,,585.0624778000056,585.0624778000056,585.0624778000056,1.4275421999627724,0.12799479998648167,,,,,,,,,,00049,001,2026-01-18_12h17.50.288,MST_task,2024.2.0,60.22993378611777,2026-01-18 12h30.06.208200 +0530,
,Scenes\091a.jpg,125,0,126,,,,,,,j,None,,,0.7760809999890625,0.10573329997714609,,,,126,0,125,585.0624778000056,,,,,,,,,,,,,,,,,,,,,,,,,,,,,,585.0465668999823,585.0624778000056,585.5630392999738,585.5460508000106,,,,,,,,,,,,,,,,,,,,,,,,,,585.559138200013,585.5630392999738,585.5630392999738,585.5630392999738,588.5467944999691,j,588.5468405999709,,,588.5468515999964,None,,,588.5625571999699,588.5625571999699,588.5625571999699,0.7760809999890625,0.10573329997714609,,,,,,,,,,00049,001,2026-01-18_12h17.50.288,MST_task,2024.2.0,60.22993378611777,2026-01-18 12h30.06.208200 +0530,
,Objects\028a.jpg,126,0,127,,,,,,,j,None,,,2.0925066000199877,0.10321089997887611,,,,127,0,126,588.5625571999699,,,,,,,,,,,,,,,,,,,,,,,,,,,,,,588.5469658999937,588.5625571999699,589.0635029000114,589.0461380999768,,,,,,,,,,,,,,,,,,,,,,,,,,589.0589349999791,589.0635029000114,589.0635029000114,589.0635029000114,592.0464644000167,j,592.0487561000045,,,592.0487741999677,None,,,592.0625436999835,592.0625436999835,592.0625436999835,2.0925066000199877,0.10321089997887611,,,,,,,,,,00049,001,2026-01-18_12h17.50.288,MST_task,2024.2.0,60.22993378611777,2026-01-18 12h30.06.208200 +0530,
,Objects\068a.jpg,127,0,128,,,,,,,f,None,,,1.1443237999919802,0.08766100002685562,,,,128,0,127,592.0625436999835,,,,,,,,,,,,,,,,,,,,,,,,,,,,,,592.0488785000052,592.0625436999835,592.5627035999787,592.5460928999819,,,,,,,,,,,,,,,,,,,,,,,,,,592.5559545999859,592.5627035999787,592.5627035999787,592.5627035999787,595.5463877000147,f,595.54642899998,,,595.5464401000063,None,,,595.5625308000017,595.5625308000017,595.5625308000017,1.1443237999919802,0.08766100002685562,,,,,,,,,,00049,001,2026-01-18_12h17.50.288,MST_task,2024.2.0,60.22993378611777,2026-01-18 12h30.06.208200 +0530,
,Objects\050a.jpg,128,0,129,,,,,,,f,None,,,1.268439400009811,0.08855990000301972,,,,129,0,128,595.5625308000017,,,,,,,,,,,,,,,,,,,,,,,,,,,,,,595.546503999969,595.5625308000017,596.0627146000043,596.0461351000122,,,,,,,,,,,,,,,,,,,,,,,,,,596.0565098000225,596.0627146000043,596.0627146000043,596.0627146000043,599.0464461999945,f,599.046487900021,,,599.0464988999884,None,,,599.0625512999832,599.0625512999832,599.0625512999832,1.268439400009811,0.08855990000301972,,,,,,,,,,00049,001,2026-01-18_12h17.50.288,MST_task,2024.2.0,60.22993378611777,2026-01-18 12h30.06.208200 +0530,
,Objects\075a.jpg,129,0,130,,,,,,,f,None,,,1.001425400027074,0.11918629996944219,,,,130,0,129,599.0625512999832,,,,,,,,,,,,,,,,,,,,,,,,,,,,,,599.0465648000245,599.0625512999832,599.5627817999921,599.5461283000186,,,,,,,,,,,,,,,,,,,,,,,,,,599.5558930999832,599.5627817999921,599.5627817999921,599.5627817999921,602.5463302999851,f,602.5463723000139,,,602.546382999979,None,,,602.5625446999911,602.5625446999911,602.5625446999911,1.001425400027074,0.11918629996944219,,,,,,,,,,00049,001,2026-01-18_12h17.50.288,MST_task,2024.2.0,60.22993378611777,2026-01-18 12h30.06.208200 +0530,
,Objects\094a.jpg,130,0,131,,,,,,,f,None,,,0.9002184999990277,0.09709009999642149,,,,131,0,130,602.5625446999911,,,,,,,,,,,,,,,,,,,,,,,,,,,,,,602.5464788000099,602.5625446999911,603.0627326000249,603.0461713999975,,,,,,,,,,,,,,,,,,,,,,,,,,603.0564401000156,603.0627326000249,603.0627326000249,603.0627326000249,606.0464280999731,f,606.0464688999928,,,606.0464802000206,None,,,606.0624825999839,606.0624825999839,606.0624825999839,0.9002184999990277,0.09709009999642149,,,,,,,,,,00049,001,2026-01-18_12h17.50.288,MST_task,2024.2.0,60.22993378611777,2026-01-18 12h30.06.208200 +0530,
,Objects\164a.jpg,131,0,132,,,,,,,f,None,,,1.0807044000248425,0.11234529997454956,,,,132,0,131,606.0624825999839,,,,,,,,,,,,,,,,,,,,,,,,,,,,,,606.0465746999835,606.0624825999839,606.5626974999905,606.5460956000024,,,,,,,,,,,,,,,,,,,,,,,,,,606.5556336999871,606.5626974999905,606.5626974999905,606.5626974999905,609.5464136999799,f,609.5464556000079,,,609.5464661999722,None,,,609.562651699991,609.562651699991,609.562651699991,1.0807044000248425,0.11234529997454956,,,,,,,,,,00049,001,2026-01-18_12h17.50.288,MST_task,2024.2.0,60.22993378611777,2026-01-18 12h30.06.208200 +0530,
,Objects\183a.jpg,132,0,133,,,,,,,j,None,,,0.9164332000073045,0.08801379997748882,,,,133,0,132,609.562651699991,,,,,,,,,,,,,,,,,,,,,,,,,,,,,,609.5465613999986,609.562651699991,610.0628133999999,610.046288100013,,,,,,,,,,,,,,,,,,,,,,,,,,610.0562247000053,610.0628133999999,610.0628133999999,610.0628133999999,613.0465677999891,j,613.0466087000095,,,613.0466199999792,None,,,613.0625694000046,613.0625694000046,613.0625694000046,0.9164332000073045,0.08801379997748882,,,,,,,,,,00049,001,2026-01-18_12h17.50.288,MST_task,2024.2.0,60.22993378611777,2026-01-18 12h30.06.208200 +0530,
,Scenes\110a.jpg,133,0,134,,,,,,,j,None,,,1.2120697000063956,0.09692809998523444,,,,134,0,133,613.0625694000046,,,,,,,,,,,,,,,,,,,,,,,,,,,,,,613.0467158000101,613.0625694000046,613.5665703999694,613.5461305999779,,,,,,,,,,,,,,,,,,,,,,,,,,613.5641117999912,613.5665703999694,613.5665703999694,613.5665703999694,616.5628777000238,j,616.5646567000076,,,616.5646761999815,None,,,,,,1.2120697000063956,0.09692809998523444,,,,,,,,,,00049,001,2026-01-18_12h17.50.288,MST_task,2024.2.0,60.22993378611777,2026-01-18 12h30.06.208200 +0530,
,Scenes\185a.jpg,134,0,135,,,,,,,j,None,,,0.8684072000323795,0.10400839999783784,,,,135,0,134,616.5793002999853,,,,,,,,,,,,,,,,,,,,,,,,,,,,,,616.5647940000053,616.5793002999853,617.0795846999972,617.0628803999862,,,,,,,,,,,,,,,,,,,,,,,,,,617.0760343999718,617.0795846999972,617.0795846999972,617.0795846999972,620.0632448000251,j,620.0632904000231,,,620.063301599992,None,,,620.0792419000063,620.0792419000063,620.0792419000063,0.8684072000323795,0.10400839999783784,,,,,,,,,,00049,001,2026-01-18_12h17.50.288,MST_task,2024.2.0,60.22993378611777,2026-01-18 12h30.06.208200 +0530,
,Scenes\037a.jpg,135,0,136,,,,,,,j,None,,,1.1110565999988467,0.12033900001551956,,,,136,0,135,620.0792419000063,,,,,,,,,,,,,,,,,,,,,,,,,,,,,,620.0633689999813,620.0792419000063,620.5798539000098,620.563256399997,,,,,,,,,,,,,,,,,,,,,,,,,,620.574482499971,620.5798539000098,620.5798539000098,620.5798539000098,623.5632395999855,j,623.5632795999991,,,623.5632902000216,None,,,623.5792277000146,623.5792277000146,623.5792277000146,1.1110565999988467,0.12033900001551956,,,,,,,,,,00049,001,2026-01-18_12h17.50.288,MST_task,2024.2.0,60.22993378611777,2026-01-18 12h30.06.208200 +0530,
,Scenes\033a.jpg,136,0,137,,,,,,,j,None,,,1.355413400044199,0.09600269998190925,,,,137,0,136,623.5792277000146,,,,,,,,,,,,,,,,,,,,,,,,,,,,,,623.5633573000086,623.5792277000146,624.0797725999728,624.0628218000056,,,,,,,,,,,,,,,,,,,,,,,,,,624.0745711000054,624.0797725999728,624.0797725999728,624.0797725999728,627.063181000005,j,627.0632277000113,,,627.0632448000251,None,,,627.0791245999862,627.0791245999862,627.0791245999862,1.355413400044199,0.09600269998190925,,,,,,,,,,00049,001,2026-01-18_12h17.50.288,MST_task,2024.2.0,60.22993378611777,2026-01-18 12h30.06.208200 +0530,
,Scenes\155a.jpg,137,0,138,,,,,,,j,None,,,0.7820451000006869,0.07204509997973219,,,,138,0,137,627.0791245999862,,,,,,,,,,,,,,,,,,,,,,,,,,,,,,627.0633145999745,627.0791245999862,627.5812433999963,627.5629830000107,,,,,,,,,,,,,,,,,,,,,,,,,,627.5786349999835,627.5812433999963,627.5812433999963,627.5812433999963,630.5795531999902,j,630.5795947000152,,,630.5796063999878,None,,,,,,0.7820451000006869,0.07204509997973219,,,,,,,,,,00049,001,2026-01-18_12h17.50.288,MST_task,2024.2.0,60.22993378611777,2026-01-18 12h30.06.208200 +0530,
,Scenes\089a.jpg,138,0,139,,,,,,,j,None,,,0.8698571000131778,0.07963469997048378,,,,139,0,138,630.5959020999726,,,,,,,,,,,,,,,,,,,,,,,,,,,,,,630.579705399985,630.5959020999726,631.1020087000215,631.079545799992,,,,,,,,,,,,,,,,,,,,,,,,,,631.0996152000153,631.1020087000215,631.1020087000215,631.1020087000215,634.096215699974,j,634.0962577000028,,,634.0962698999792,None,,,,,,0.8698571000131778,0.07963469997048378,,,,,,,,,,00049,001,2026-01-18_12h17.50.288,MST_task,2024.2.0,60.22993378611777,2026-01-18 12h30.06.208200 +0530,
,Scenes\008a.jpg,139,0,140,,,,,,,f,None,,,1.7258088000235148,0.12802239996381104,,,,140,0,139,634.1126628000056,,,,,,,,,,,,,,,,,,,,,,,,,,,,,,634.0963386999792,634.1126628000056,634.613217999984,634.5962902000174,,,,,,,,,,,,,,,,,,,,,,,,,,634.6106978000025,634.613217999984,634.613217999984,634.613217999984,637.5966045000241,f,637.5966459999909,,,637.5966566000134,None,,,637.6126925999997,637.6126925999997,637.6126925999997,1.7258088000235148,0.12802239996381104,,,,,,,,,,00049,001,2026-01-18_12h17.50.288,MST_task,2024.2.0,60.22993378611777,2026-01-18 12h30.06.208200 +0530,
,Objects\065a.jpg,140,0,141,,,,,,,j,None,,,0.9778607999905944,0.11300260003190488,,,,141,0,140,637.6126925999997,,,,,,,,,,,,,,,,,,,,,,,,,,,,,,637.5967210999806,637.6126925999997,638.1129546000157,638.096086799982,,,,,,,,,,,,,,,,,,,,,,,,,,638.1082951999852,638.1129546000157,638.1129546000157,638.1129546000157,641.0966648000176,j,641.0987539999769,,,641.0987720999983,None,,,641.1126335000154,641.1126335000154,641.1126335000154,0.9778607999905944,0.11300260003190488,,,,,,,,,,00049,001,2026-01-18_12h17.50.288,MST_task,2024.2.0,60.22993378611777,2026-01-18 12h30.06.208200 +0530,
,Objects\120a.jpg,141,0,142,,,,,,,f,None,,,1.2298547999816947,0.09608489996753633,,,,142,0,141,641.1126335000154,,,,,,,,,,,,,,,,,,,,,,,,,,,,,,641.0988747000229,641.1126335000154,641.6127925000037,641.5961968000047,,,,,,,,,,,,,,,,,,,,,,,,,,641.6062340000062,641.6127925000037,641.6127925000037,641.6127925000037,644.5970760000055,f,644.5971157000167,,,644.5971266999841,None,,,644.6126333000138,644.6126333000138,644.6126333000138,1.2298547999816947,0.09608489996753633,,,,,,,,,,00049,001,2026-01-18_12h17.50.288,MST_task,2024.2.0,60.22993378611777,2026-01-18 12h30.06.208200 +0530,
,Objects\191a.jpg,142,0,143,,,,,,,f,None,,,0.7224893000093289,0.10400849999859929,,,,143,0,142,644.6126333000138,,,,,,,,,,,,,,,,,,,,,,,,,,,,,,644.5971921000164,644.6126333000138,645.112897199986,645.09628659999,,,,,,,,,,,,,,,,,,,,,,,,,,645.1065624000039,645.112897199986,645.112897199986,645.112897199986,648.0964750999701,f,648.0965170999989,,,648.0965287999716,None,,,648.1126525999862,648.1126525999862,648.1126525999862,0.7224893000093289,0.10400849999859929,,,,,,,,,,00049,001,2026-01-18_12h17.50.288,MST_task,2024.2.0,60.22993378611777,2026-01-18 12h30.06.208200 +0530,
,Objects\013a.jpg,143,0,144,,,,,,,j,None,,,0.725854399963282,0.10399390000384301,,,,144,0,143,648.1126525999862,,,,,,,,,,,,,,,,,,,,,,,,,,,,,,648.096626500017,648.1126525999862,648.6128744999878,648.5962709999876,,,,,,,,,,,,,,,,,,,,,,,,,,648.6057280999958,648.6128744999878,648.6128744999878,648.6128744999878,651.5965902999742,j,651.596635200025,,,651.5966459999909,None,,,651.6125276000239,651.6125276000239,651.6125276000239,0.725854399963282,0.10399390000384301,,,,,,,,,,00049,001,2026-01-18_12h17.50.288,MST_task,2024.2.0,60.22993378611777,2026-01-18 12h30.06.208200 +0530,
,Objects\185a.jpg,144,0,145,,,,,,,f,None,,,1.6988588999956846,0.09498090000124648,,,,145,0,144,651.6125276000239,,,,,,,,,,,,,,,,,,,,,,,,,,,,,,651.5967131999787,651.6125276000239,652.1128730999772,652.0962007999769,,,,,,,,,,,,,,,,,,,,,,,,,,652.1061500000069,652.1128730999772,652.1128730999772,652.1128730999772,655.0964739000192,f,655.0965163999936,,,655.0965276000206,None,,,655.1127299999935,655.1127299999935,655.1127299999935,1.6988588999956846,0.09498090000124648,,,,,,,,,,00049,001,2026-01-18_12h17.50.288,MST_task,2024.2.0,60.22993378611777,2026-01-18 12h30.06.208200 +0530,
,Objects\040a.jpg,145,0,146,,,,,,,f,None,,,0.6873559999512509,0.11167450004722923,,,,146,0,145,655.1127299999935,,,,,,,,,,,,,,,,,,,,,,,,,,,,,,655.0966235999949,655.1127299999935,655.6128614000045,655.5962228999706,,,,,,,,,,,,,,,,,,,,,,,,,,655.6054909999948,655.6128614000045,655.6128614000045,655.6128614000045,658.5966978999786,f,658.5967419000226,,,658.5967541999999,None,,,658.6125364999752,658.6125364999752,658.6125364999752,0.6873559999512509,0.11167450004722923,,,,,,,,,,00049,001,2026-01-18_12h17.50.288,MST_task,2024.2.0,60.22993378611777,2026-01-18 12h30.06.208200 +0530,
,Objects\184a.jpg,146,0,147,,,,,,,j,None,,,0.842603400000371,0.1040021000080742,,,,147,0,146,658.6125364999752,,,,,,,,,,,,,,,,,,,,,,,,,,,,,,658.596824200009,658.6125364999752,659.1128147999989,659.0964108000044,,,,,,,,,,,,,,,,,,,,,,,,,,659.106071599992,659.1128147999989,659.1128147999989,659.1128147999989,662.0966066999827,j,662.0966511999723,,,662.0966626000009,None,,,662.112607099989,662.112607099989,662.112607099989,0.842603400000371,0.1040021000080742,,,,,,,,,,00049,001,2026-01-18_12h17.50.288,MST_task,2024.2.0,60.22993378611777,2026-01-18 12h30.06.208200 +0530,
,Scenes\035a.jpg,147,0,148,,,,,,,j,None,,,2.737474999972619,0.08000130002619699,,,,148,0,147,662.112607099989,,,,,,,,,,,,,,,,,,,,,,,,,,,,,,662.096761199995,662.112607099989,662.6180784999742,662.5962153999717,,,,,,,,,,,,,,,,,,,,,,,,,,662.6155940999743,662.6180784999742,662.6180784999742,662.6180784999742,665.6128298999975,j,665.6145997999702,,,665.6146294000209,None,,,,,,2.737474999972619,0.08000130002619699,,,,,,,,,,00049,001,2026-01-18_12h17.50.288,MST_task,2024.2.0,60.22993378611777,2026-01-18 12h30.06.208200 +0530,
,Scenes\012a.jpg,148,0,149,,,,,,,j,None,,,0.7892407999606803,0.07999810000183061,,,,149,0,148,665.6292529000202,,,,,,,,,,,,,,,,,,,,,,,,,,,,,,665.6147056000191,665.6292529000202,666.1340517000062,666.1129008000134,,,,,,,,,,,,,,,,,,,,,,,,,,666.1317298000213,666.1340517000062,666.1340517000062,666.1340517000062,669.1293578000041,j,669.129398799967,,,669.1294104999979,None,,,,,,0.7892407999606803,0.07999810000183061,,,,,,,,,,00049,001,2026-01-18_12h17.50.288,MST_task,2024.2.0,60.22993378611777,2026-01-18 12h30.06.208200 +0530,
,Scenes\011a.jpg,149,0,150,,,,,,,f,None,,,1.9352173000224866,0.13597760000266135,,,,150,0,149,669.1458811999764,,,,,,,,,,,,,,,,,,,,,,,,,,,,,,669.1295105000027,669.1458811999764,669.6522001000121,669.6294137000223,,,,,,,,,,,,,,,,,,,,,,,,,,669.6498162000207,669.6522001000121,669.6522001000121,669.6522001000121,672.6297192000202,f,672.6297778000007,,,672.6297905999818,None,,,,,,1.9352173000224866,0.13597760000266135,,,,,,,,,,00049,001,2026-01-18_12h17.50.288,MST_task,2024.2.0,60.22993378611777,2026-01-18 12h30.06.208200 +0530,
,Scenes\022a.jpg,150,0,151,,,,,,,j,None,,,1.2569526000297628,0.0799999000155367,,,,151,0,150,672.6466151999775,,,,,,,,,,,,,,,,,,,,,,,,,,,,,,672.6299109000247,672.6466151999775,673.1464038999984,673.1294288000208,,,,,,,,,,,,,,,,,,,,,,,,,,673.140215100022,673.1464038999984,673.1464038999984,673.1464038999984,676.129634300014,j,676.1296747999731,,,676.1296852999949,None,,,676.1458946000203,676.1458946000203,676.1458946000203,1.2569526000297628,0.0799999000155367,,,,,,,,,,00049,001,2026-01-18_12h17.50.288,MST_task,2024.2.0,60.22993378611777,2026-01-18 12h30.06.208200 +0530,
,Scenes\031a.jpg,151,0,152,,,,,,,f,None,,,1.6492009999928996,0.11222549999365583,,,,152,0,151,676.1458946000203,,,,,,,,,,,,,,,,,,,,,,,,,,,,,,676.1297840999905,676.1458946000203,676.649957799993,676.6293253999902,,,,,,,,,,,,,,,,,,,,,,,,,,676.647485799971,676.649957799993,676.649957799993,676.649957799993,679.6461400999688,f,679.6461801999831,,,679.6461922000162,None,,,,,,1.6492009999928996,0.11222549999365583,,,,,,,,,,00049,001,2026-01-18_12h17.50.288,MST_task,2024.2.0,60.22993378611777,2026-01-18 12h30.06.208200 +0530,
,Scenes\102a.jpg,152,0,153,,,,,,,f,None,,,0.7858306000125594,0.14401899999938905,,,,153,0,152,679.6624819000135,,,,,,,,,,,,,,,,,,,,,,,,,,,,,,679.6462982000085,679.6624819000135,680.1694999000174,680.1460792999715,,,,,,,,,,,,,,,,,,,,,,,,,,680.1669262999785,680.1694999000174,680.1694999000174,680.1694999000174,683.1628494000179,f,683.1628908999846,,,683.1629025000148,None,,,,,,0.7858306000125594,0.14401899999938905,,,,,,,,,,00049,001,2026-01-18_12h17.50.288,MST_task,2024.2.0,60.22993378611777,2026-01-18 12h30.06.208200 +0530,
,Scenes\019a.jpg,153,0,154,,,,,,,f,None,,,1.625714199966751,0.13632250000955537,,,,154,0,153,683.1791527000023,,,,,,,,,,,,,,,,,,,,,,,,,,,,,,683.1630016000126,683.1791527000023,683.6811429000227,683.6629023000132,,,,,,,,,,,,,,,,,,,,,,,,,,683.6787644000142,683.6811429000227,683.6811429000227,683.6811429000227,686.6793996000197,f,686.6794400999788,,,686.679452100012,None,,,,,,1.625714199966751,0.13632250000955537,,,,,,,,,,00049,001,2026-01-18_12h17.50.288,MST_task,2024.2.0,60.22993378611777,2026-01-18 12h30.06.208200 +0530,
,Objects\128a.jpg,154,0,155,,,,,,,f,None,,,2.054523499973584,0.13624990003881976,,,,155,0,154,686.6958158999914,,,,,,,,,,,,,,,,,,,,,,,,,,,,,,686.6795222000219,686.6958158999914,687.1963701000204,687.1794003999676,,,,,,,,,,,,,,,,,,,,,,,,,,687.1916042999947,687.1963701000204,687.1963701000204,687.1963701000204,690.1798553999979,f,690.1819458000246,,,690.1819634999847,None,,,690.1958673999761,690.1958673999761,690.1958673999761,2.054523499973584,0.13624990003881976,,,,,,,,,,00049,001,2026-01-18_12h17.50.288,MST_task,2024.2.0,60.22993378611777,2026-01-18 12h30.06.208200 +0530,
,Objects\058a.jpg,155,0,156,,,,,,,f,None,,,1.8201876999810338,0.11844590003602207,,,,156,0,155,690.1958673999761,,,,,,,,,,,,,,,,,,,,,,,,,,,,,,690.1820345000015,690.1958673999761,690.6961682999972,690.6793367000064,,,,,,,,,,,,,,,,,,,,,,,,,,690.6888516999898,690.6961682999972,690.6961682999972,690.6961682999972,693.6796411999967,f,693.6796834999695,,,693.6796945999959,None,,,693.6958973999717,693.6958973999717,693.6958973999717,1.8201876999810338,0.11844590003602207,,,,,,,,,,00049,001,2026-01-18_12h17.50.288,MST_task,2024.2.0,60.22993378611777,2026-01-18 12h30.06.208200 +0530,
,Objects\148a.jpg,156,0,157,,,,,,,f,None,,,1.3434446000028402,0.16799839999293908,,,,157,0,156,693.6958973999717,,,,,,,,,,,,,,,,,,,,,,,,,,,,,,693.6797594000236,693.6958973999717,694.1962694000104,694.179552000016,,,,,,,,,,,,,,,,,,,,,,,,,,694.190094999969,694.1962694000104,694.1962694000104,694.1962694000104,697.1797964000143,f,697.1798408000031,,,697.1798523999751,None,,,697.1958670999738,697.1958670999738,697.1958670999738,1.3434446000028402,0.16799839999293908,,,,,,,,,,00049,001,2026-01-18_12h17.50.288,MST_task,2024.2.0,60.22993378611777,2026-01-18 12h30.06.208200 +0530,
,Objects\154a.jpg,157,0,158,,,,,,,j,None,,,0.7866273000254296,0.11194669996621087,,,,158,0,157,697.1958670999738,,,,,,,,,,,,,,,,,,,,,,,,,,,,,,697.1799201999675,697.1958670999738,697.6961716000224,697.6793760000146,,,,,,,,,,,,,,,,,,,,,,,,,,697.6896987999789,697.6961716000224,697.6961716000224,697.6961716000224,700.6801194999716,j,700.6801623000065,,,700.6801733999746,None,,,700.6958298999816,700.6958298999816,700.6958298999816,0.7866273000254296,0.11194669996621087,,,,,,,,,,00049,001,2026-01-18_12h17.50.288,MST_task,2024.2.0,60.22993378611777,2026-01-18 12h30.06.208200 +0530,
,Objects\073a.jpg,158,0,159,,,,,,,f,None,,,0.9991128999972716,0.11199150001630187,,,,159,0,158,700.6958298999816,,,,,,,,,,,,,,,,,,,,,,,,,,,,,,700.6802749999915,700.6958298999816,701.1961333000218,701.1794024999836,,,,,,,,,,,,,,,,,,,,,,,,,,701.1893561999896,701.1961333000218,701.1961333000218,701.1961333000218,704.1798884000164,f,704.1799325000029,,,704.1799446999794,None,,,704.195902300009,704.195902300009,704.195902300009,0.9991128999972716,0.11199150001630187,,,,,,,,,,00049,001,2026-01-18_12h17.50.288,MST_task,2024.2.0,60.22993378611777,2026-01-18 12h30.06.208200 +0530,
,Objects\037a.jpg,159,0,160,,,,,,,f,None,,,0.554706700029783,0.12059219996444881,,,,160,0,159,704.195902300009,,,,,,,,,,,,,,,,,,,,,,,,,,,,,,704.1800532999914,704.195902300009,704.696131500008,704.6793922000215,,,,,,,,,,,,,,,,,,,,,,,,,,704.6891102999798,704.696131500008,704.696131500008,704.696131500008,707.6797546999878,f,707.6797963000135,,,707.6798075999832,None,,,707.6958974999725,707.6958974999725,707.6958974999725,0.554706700029783,0.12059219996444881,,,,,,,,,,00049,001,2026-01-18_12h17.50.288,MST_task,2024.2.0,60.22993378611777,2026-01-18 12h30.06.208200 +0530,
