Sl_no,image_path,thisN,thisTrialN,thisRepN,key_resp_5.keys,key_resp_5.rt,key_resp_5.duration,key_resp_7.keys,key_resp_9.keys,key_resp_9.rt,key_resp_9.duration,key_resp_8.keys,key_resp_8.rt,key_resp_8.duration,practice.thisRepN,practice.thisTrialN,practice.thisN,trials.thisRepN,trials.thisTrialN,trials.thisN,thisRow.t,notes,welcome_page.started,text.started,key_resp.started,welcome_page.stopped,key_resp.keys,key_resp.rt,key_resp.duration,instructions.started,ins.started,key_resp_2.started,instructions.stopped,key_resp_2.keys,key_resp_2.rt,key_resp_2.duration,instructions_2.started,text_10.started,key_resp_10.started,instructions_2.stopped,key_resp_10.keys,key_resp_10.rt,key_resp_10.duration,objects_only_instruction.started,text_3.started,key_resp_3.started,objects_only_instruction.stopped,key_resp_3.keys,key_resp_3.rt,key_resp_3.duration,ISI.started,text_4.started,text_4.stopped,ISI.stopped,practice_block.started,image.started,text_5.started,key_resp_5.started,practice_block.stopped,practice.key_resp_5.keys,practice.key_resp_5.rt,practice.key_resp_5.duration,indoor_outdoor.started,indoor_outdoor.stopped,practice.key_resp_7.keys,image.stopped,text_5.stopped,key_resp_5.stopped,practice_to_main.started,text_2.started,key_resp_4.started,practice_to_main.stopped,key_resp_4.keys,key_resp_4.rt,key_resp_4.duration,objects.started,image_2.started,text_9.started,key_resp_9.started,image_2.stopped,text_9.stopped,key_resp_9.stopped,objects.stopped,trials.key_resp_9.keys,trials.key_resp_9.rt,trials.key_resp_9.duration,encoding_task.started,encoding_task.stopped,trials.key_resp_8.keys,text_8.started,key_resp_8.started,trials.key_resp_8.rt,trials.key_resp_8.duration,end_experiment.started,text_6.started,key_resp_6.started,end_experiment.stopped,key_resp_6.keys,key_resp_6.rt,key_resp_6.duration,list_of_stimuli,encoding_task_accuracy,participant,session,date,expName,psychopyVersion,frameRate,expStart,
,,,,,,,,,,,,,,,,,,,,,,,0.0013490999699570239,0.0033066999749280512,0.0033066999749280512,888.2036898999941,space,888.1839375999989,None,,,,,,,,,,,,,,,,,,,,,,,,,,,,,,,,,,,,,,,,,,,,,,,,,,,,,,,,,,,,,,,,,,,,,,,,,,00050,001,2026-01-18_14h46.37.542,MST_task,2024.2.0,59.836884650338014,2026-01-18 14h47.29.221363 +0530,
,,,,,,,,,,,,,,,,,,,,,,,,,,,,,,888.2037314999616,888.217660699971,888.217660699971,899.1000303999754,space,10.866447400010657,None,,,,,,,,,,,,,,,,,,,,,,,,,,,,,,,,,,,,,,,,,,,,,,,,,,,,,,,,,,,,,,,,,,,00050,001,2026-01-18_14h46.37.542,MST_task,2024.2.0,59.836884650338014,2026-01-18 14h47.29.221363 +0530,
,,,,,,,,,,,,,,,,,,,,,,,,,,,,,,,,,,,,,899.1000584999565,899.116204699967,899.116204699967,914.5166435999563,space,15.399362299998756,None,,,,,,,,,,,,,,,,,,,,,,,,,,,,,,,,,,,,,,,,,,,,,,,,,,,,,,,,,,,,00050,001,2026-01-18_14h46.37.542,MST_task,2024.2.0,59.836884650338014,2026-01-18 14h47.29.221363 +0530,
,,,,,,,,,,,,,,,,,,,,,,,,,,,,,,,,,,,,,,,,,,,,914.516674399958,914.5327709999983,914.5327709999983,929.3166601999546,space,14.774404000025243,None,,,,,,,,,,,,,,,,,,,,,,,,,,,,,,,,,,,,,,,,,,,,,,,,,,,,,00050,001,2026-01-18_14h46.37.542,MST_task,2024.2.0,59.836884650338014,2026-01-18 14h47.29.221363 +0530,
4,practice_images/002b.jpg,0,0,1,f,1.9185385000309907,0.15981440001633018,None,,,,,,,1,0,0,,,,929.3326989999623,,,,,,,,,,,,,,,,,,,,,,,,,,,,,,929.32176599995,929.3326989999623,929.8371230000048,929.8163546999567,929.8254719999968,929.8371230000048,929.8371230000048,929.8371230000048,932.8329064999707,f,1.9185385000309907,0.15981440001633018,932.8347746999934,932.8347943999688,None,,,,,,,,,,,,,,,,,,,,,,,,,,,,,,,,,,,,,,00050,001,2026-01-18_14h46.37.542,MST_task,2024.2.0,59.836884650338014,2026-01-18 14h47.29.221363 +0530,
3,practice_images/037a.jpg,1,1,1,f,0.9834143000189215,0.3035416000057012,None,,,,,,,1,1,1,,,,932.8494918999495,,,,,,,,,,,,,,,,,,,,,,,,,,,,,,932.8348628999665,932.8494918999495,933.349562999967,933.3329464999842,933.3347566999728,933.349562999967,933.349562999967,933.349562999967,936.3330434999662,f,0.9834143000189215,0.3035416000057012,936.3330842999858,936.3330956999562,None,936.349458599987,936.349458599987,936.349458599987,,,,,,,,,,,,,,,,,,,,,,,,,,,,,,,,,,,00050,001,2026-01-18_14h46.37.542,MST_task,2024.2.0,59.836884650338014,2026-01-18 14h47.29.221363 +0530,
5,practice_images/139a.jpg,2,2,1,f,2.354257700033486,0.2160116999875754,None,,,,,,,1,2,2,,,,936.349458599987,,,,,,,,,,,,,,,,,,,,,,,,,,,,,,936.3331589999725,936.349458599987,936.8495680000051,936.8329530999763,936.8349394999677,936.8495680000051,936.8495680000051,936.8495680000051,939.8330568999518,f,2.354257700033486,0.2160116999875754,939.8330958999577,939.8331076999893,None,939.8494256999693,939.8494256999693,939.8494256999693,,,,,,,,,,,,,,,,,,,,,,,,,,,,,,,,,,,00050,001,2026-01-18_14h46.37.542,MST_task,2024.2.0,59.836884650338014,2026-01-18 14h47.29.221363 +0530,
8,practice_images/178a.jpg,3,3,1,f,1.0457434999989346,0.18403100001160055,None,,,,,,,1,3,3,,,,939.8494256999693,,,,,,,,,,,,,,,,,,,,,,,,,,,,,,939.8331697999965,939.8494256999693,,940.3331651999615,940.3349247999722,940.349623099959,940.349623099959,940.349623099959,943.3330488999491,f,1.0457434999989346,0.18403100001160055,943.333085899998,943.3330967999646,None,943.3494724999764,943.3494724999764,943.3494724999764,,,,,,,,,,,,,,,,,,,,,,,,,,,,,,,,,,,00050,001,2026-01-18_14h46.37.542,MST_task,2024.2.0,59.836884650338014,2026-01-18 14h47.29.221363 +0530,
6,practice_images/158a.jpg,4,4,1,j,1.7936343000037596,0.1840004000114277,None,,,,,,,1,4,4,,,,943.3494724999764,,,,,,,,,,,,,,,,,,,,,,,,,,,,,,943.333159199974,943.3494724999764,943.8495743999956,943.8328912999714,943.8346249999595,943.8495743999956,943.8495743999956,943.8495743999956,946.8330512999673,j,1.7936343000037596,0.1840004000114277,946.8330897999695,946.8331018000026,None,946.8494487999706,946.8494487999706,946.8494487999706,,,,,,,,,,,,,,,,,,,,,,,,,,,,,,,,,,,00050,001,2026-01-18_14h46.37.542,MST_task,2024.2.0,59.836884650338014,2026-01-18 14h47.29.221363 +0530,
1,practice_images/013a.jpg,5,5,1,f,2.3985762000083923,0.17557720001786947,None,,,,,,,1,5,5,,,,946.8494487999706,,,,,,,,,,,,,,,,,,,,,,,,,,,,,,946.8331700999988,946.8494487999706,947.3495982000022,947.3329927999876,947.3389483999927,947.3495982000022,947.3495982000022,947.3495982000022,950.3330499999574,f,2.3985762000083923,0.17557720001786947,950.3356899999781,950.3357077999972,None,950.3494535999489,950.3494535999489,950.3494535999489,,,,,,,,,,,,,,,,,,,,,,,,,,,,,,,,,,,00050,001,2026-01-18_14h46.37.542,MST_task,2024.2.0,59.836884650338014,2026-01-18 14h47.29.221363 +0530,
7,practice_images/166a.jpg,6,6,1,f,2.922023699968122,None,None,,,,,,,1,6,6,,,,950.3494535999489,,,,,,,,,,,,,,,,,,,,,,,,,,,,,,950.3357727999683,950.3494535999489,950.8496312999632,950.8328366999631,950.8345687999972,950.8496312999632,950.8496312999632,950.8496312999632,953.8332840999938,f,2.922023699968122,None,953.8333269999712,953.8333397999522,None,953.8494929999579,953.8494929999579,953.8494929999579,,,,,,,,,,,,,,,,,,,,,,,,,,,,,,,,,,,00050,001,2026-01-18_14h46.37.542,MST_task,2024.2.0,59.836884650338014,2026-01-18 14h47.29.221363 +0530,
9,practice_images/180a.jpg,7,7,1,j,1.278175600047689,0.11300650000339374,None,,,,,,,1,7,7,,,,953.8494929999579,,,,,,,,,,,,,,,,,,,,,,,,,,,,,,953.8334044999792,953.8494929999579,954.3495623999625,954.3328465999803,954.3345919999992,954.3495623999625,954.3495623999625,954.3495623999625,957.3330533999833,j,1.278175600047689,0.11300650000339374,957.3330923999893,957.3331042999635,None,957.3493849999504,957.3493849999504,957.3493849999504,,,,,,,,,,,,,,,,,,,,,,,,,,,,,,,,,,,00050,001,2026-01-18_14h46.37.542,MST_task,2024.2.0,59.836884650338014,2026-01-18 14h47.29.221363 +0530,
10,practice_images/182a.jpg,8,8,1,f,1.3057993999682367,0.16010010003810748,None,,,,,,,1,8,8,,,,957.3493849999504,,,,,,,,,,,,,,,,,,,,,,,,,,,,,,957.3331676999805,957.3493849999504,957.8495728999842,957.832877799985,957.834626899974,957.8495728999842,957.8495728999842,957.8495728999842,960.8331018000026,f,1.3057993999682367,0.16010010003810748,960.8331399000017,960.8331515999744,None,960.8494324999629,960.8494324999629,960.8494324999629,,,,,,,,,,,,,,,,,,,,,,,,,,,,,,,,,,,00050,001,2026-01-18_14h46.37.542,MST_task,2024.2.0,59.836884650338014,2026-01-18 14h47.29.221363 +0530,
2,practice_images/031a.jpg,9,9,1,f,1.1584659999934956,0.15883940004277974,None,,,,,,,1,9,9,,,,960.8494324999629,,,,,,,,,,,,,,,,,,,,,,,,,,,,,,960.8332153999945,960.8494324999629,961.3497400999768,961.3332160999998,961.3351695999736,961.3497400999768,961.3497400999768,961.3497400999768,964.3331883999635,f,1.1584659999934956,0.15883940004277974,964.3332266999641,964.3332381999935,None,964.3494054999901,964.3494054999901,964.3494054999901,,,,,,,,,,,,,,,,,,,,,,,,,,,,,,,,,,,00050,001,2026-01-18_14h46.37.542,MST_task,2024.2.0,59.836884650338014,2026-01-18 14h47.29.221363 +0530,
,,,,,,,,,,,,,,,,,,,,,,,,,,,,,,,,,,,,,,,,,,,,,,,,,,,,,,,,,,,,,,,,,,,,,964.3332798999618,964.3494054999901,964.3494054999901,975.4831064000027,space,11.126164599962067,None,,,,,,,,,,,,,,,,,,,,,,,,,,,,00050,001,2026-01-18_14h46.37.542,MST_task,2024.2.0,59.836884650338014,2026-01-18 14h47.29.221363 +0530,
,Scenes\029a.jpg,0,0,1,,,,,j,1.8039076999993995,0.12001020001480356,None,,,,,,1,0,0,975.4994992999709,,,,,,,,,,,,,,,,,,,,,,,,,,,,,,975.4838734999648,975.4994992999709,975.9999267999665,975.9829045999795,,,,,,,,,,,,,,,,,,,,,,975.9962503999704,975.9999267999665,975.9999267999665,975.9999267999665,978.9994785999879,978.9994785999879,978.9994785999879,978.9833117999951,j,1.8039076999993995,0.12001020001480356,978.9850051999674,978.9850238999934,None,,,,,,,,,,,,,,00050,001,2026-01-18_14h46.37.542,MST_task,2024.2.0,59.836884650338014,2026-01-18 14h47.29.221363 +0530,
,Scenes\060a.jpg,1,0,2,,,,,j,1.0556898000068031,0.12790249998215586,None,,,,,,2,0,1,978.9994785999879,,,,,,,,,,,,,,,,,,,,,,,,,,,,,,978.9851186999585,978.9994785999879,979.5000121999765,979.4829028999666,,,,,,,,,,,,,,,,,,,,,,979.4954582999926,979.5000121999765,979.5000121999765,979.5000121999765,982.4993954999954,982.4993954999954,982.4993954999954,982.4832625999697,j,1.0556898000068031,0.12790249998215586,982.4833033999894,982.483314699959,None,,,,,,,,,,,,,,00050,001,2026-01-18_14h46.37.542,MST_task,2024.2.0,59.836884650338014,2026-01-18 14h47.29.221363 +0530,
,Scenes\046a.jpg,2,0,3,,,,,j,1.1634582999977283,0.1361503000371158,None,,,,,,3,0,2,982.4993954999954,,,,,,,,,,,,,,,,,,,,,,,,,,,,,,982.4834067999618,982.4993954999954,983.0000575999729,982.9829857999575,,,,,,,,,,,,,,,,,,,,,,982.9960522999754,983.0000575999729,983.0000575999729,983.0000575999729,985.9993892999482,985.9993892999482,985.9993892999482,985.9832872999832,j,1.1634582999977283,0.1361503000371158,985.98332879995,985.9833398999763,None,,,,,,,,,,,,,,00050,001,2026-01-18_14h46.37.542,MST_task,2024.2.0,59.836884650338014,2026-01-18 14h47.29.221363 +0530,
,Scenes\152a.jpg,3,0,4,,,,,j,0.831048899970483,0.15201170003274456,None,,,,,,4,0,3,985.9993892999482,,,,,,,,,,,,,,,,,,,,,,,,,,,,,,985.9834316999768,985.9993892999482,986.5001838000026,986.482890299987,,,,,,,,,,,,,,,,,,,,,,986.4975547999493,986.5001838000026,986.5001838000026,986.5001838000026,989.4994626999833,989.4994626999833,989.4994626999833,989.4831944999751,j,0.831048899970483,0.15201170003274456,989.4832404999761,989.4832511999994,None,,,,,,,,,,,,,,00050,001,2026-01-18_14h46.37.542,MST_task,2024.2.0,59.836884650338014,2026-01-18 14h47.29.221363 +0530,
,Scenes\051a.jpg,4,0,5,,,,,j,1.2598072999971919,0.09596790000796318,None,,,,,,5,0,4,989.4994626999833,,,,,,,,,,,,,,,,,,,,,,,,,,,,,,989.4833459999645,989.4994626999833,989.9999949999619,989.9828997000004,,,,,,,,,,,,,,,,,,,,,,989.9892764999531,989.9999949999619,989.9999949999619,989.9999949999619,992.9994949999964,992.9994949999964,992.9994949999964,992.983450300002,j,1.2598072999971919,0.09596790000796318,992.9834950999939,992.9835054999567,None,,,,,,,,,,,,,,00050,001,2026-01-18_14h46.37.542,MST_task,2024.2.0,59.836884650338014,2026-01-18 14h47.29.221363 +0530,
,Scenes\175a.jpg,5,0,6,,,,,j,1.1039749000337906,0.1595828999998048,None,,,,,,6,0,5,992.9994949999964,,,,,,,,,,,,,,,,,,,,,,,,,,,,,,992.9836098999949,992.9994949999964,993.5000513999839,993.4828993999981,,,,,,,,,,,,,,,,,,,,,,993.4894290999509,993.5000513999839,993.5000513999839,993.5000513999839,996.4995102999965,996.4995102999965,996.4995102999965,996.4832474999712,j,1.1039749000337906,0.1595828999998048,996.4832904999494,996.4833010999719,None,,,,,,,,,,,,,,00050,001,2026-01-18_14h46.37.542,MST_task,2024.2.0,59.836884650338014,2026-01-18 14h47.29.221363 +0530,
,Scenes\093a.jpg,6,0,7,,,,,f,1.059192000015173,0.1760513000190258,None,,,,,,7,0,6,996.4995102999965,,,,,,,,,,,,,,,,,,,,,,,,,,,,,,996.4833676999551,996.4995102999965,997.0000129999826,996.9829696999514,,,,,,,,,,,,,,,,,,,,,,996.9925515999785,997.0000129999826,997.0000129999826,997.0000129999826,999.9994130999548,999.9994130999548,999.9994130999548,999.983399699966,f,1.059192000015173,0.1760513000190258,999.9834488999913,999.9834596999572,None,,,,,,,,,,,,,,00050,001,2026-01-18_14h46.37.542,MST_task,2024.2.0,59.836884650338014,2026-01-18 14h47.29.221363 +0530,
,Objects\136a.jpg,7,0,8,,,,,f,1.8315792999928817,0.1692058999906294,None,,,,,,8,0,7,999.9994130999548,,,,,,,,,,,,,,,,,,,,,,,,,,,,,,999.9835655000061,999.9994130999548,1000.4996203999617,1000.4828286999837,,,,,,,,,,,,,,,,,,,,,,1000.4962842999958,1000.4996203999617,1000.4996203999617,1000.4996203999617,1003.4994766999735,1003.4994766999735,1003.4994766999735,1003.4835593999596,f,1.8315792999928817,0.1692058999906294,1003.4866717999685,1003.4866943999659,None,,,,,,,,,,,,,,00050,001,2026-01-18_14h46.37.542,MST_task,2024.2.0,59.836884650338014,2026-01-18 14h47.29.221363 +0530,
,Objects\093a.jpg,8,0,9,,,,,j,2.083568000001833,0.13596320000942796,None,,,,,,9,0,8,1003.4994766999735,,,,,,,,,,,,,,,,,,,,,,,,,,,,,,1003.4868129999959,1003.4994766999735,1003.9997167999973,1003.9829664999852,,,,,,,,,,,,,,,,,,,,,,1003.9925447999849,1003.9997167999973,1003.9997167999973,1003.9997167999973,1006.9996632999973,1006.9996632999973,1006.9996632999973,1006.9835497000022,j,2.083568000001833,0.13596320000942796,1006.983593699988,1006.9836044999538,None,,,,,,,,,,,,,,00050,001,2026-01-18_14h46.37.542,MST_task,2024.2.0,59.836884650338014,2026-01-18 14h47.29.221363 +0530,
,Objects\003a.jpg,9,0,10,,,,,j,2.3678457000060007,0.16812520002713427,None,,,,,,10,0,9,1006.9996632999973,,,,,,,,,,,,,,,,,,,,,,,,,,,,,,1006.9836708999937,1006.9996632999973,1007.4997502999613,1007.483085099957,,,,,,,,,,,,,,,,,,,,,,1007.486136499967,1007.4997502999613,1007.4997502999613,1007.4997502999613,1010.4995744999615,1010.4995744999615,1010.4995744999615,1010.4833511000033,j,2.3678457000060007,0.16812520002713427,1010.483394299983,1010.4834048000048,None,,,,,,,,,,,,,,00050,001,2026-01-18_14h46.37.542,MST_task,2024.2.0,59.836884650338014,2026-01-18 14h47.29.221363 +0530,
,Objects\165a.jpg,10,0,11,,,,,f,1.2200299000251107,0.1833727000048384,None,,,,,,11,0,10,1010.4995744999615,,,,,,,,,,,,,,,,,,,,,,,,,,,,,,1010.4834691999713,1010.4995744999615,1010.9997589999693,1010.9831286999979,,,,,,,,,,,,,,,,,,,,,,1010.9871363999555,1010.9997589999693,1010.9997589999693,1010.9997589999693,1013.9994967999519,1013.9994967999519,1013.9994967999519,1013.9835548999836,f,1.2200299000251107,0.1833727000048384,1013.9835976999602,1013.9836087999865,None,,,,,,,,,,,,,,00050,001,2026-01-18_14h46.37.542,MST_task,2024.2.0,59.836884650338014,2026-01-18 14h47.29.221363 +0530,
,Objects\144a.jpg,11,0,12,,,,,j,2.071306199999526,0.14401980000548065,None,,,,,,12,0,11,1013.9994967999519,,,,,,,,,,,,,,,,,,,,,,,,,,,,,,1013.9837028000038,1013.9994967999519,1014.4997818999691,1014.483368999965,,,,,,,,,,,,,,,,,,,,,,1014.487499299983,1014.4997818999691,1014.4997818999691,1014.4997818999691,1017.4996051999624,1017.4996051999624,1017.4996051999624,1017.48346269998,j,2.071306199999526,0.14401980000548065,1017.4835046999506,1017.4835149999708,None,,,,,,,,,,,,,,00050,001,2026-01-18_14h46.37.542,MST_task,2024.2.0,59.836884650338014,2026-01-18 14h47.29.221363 +0530,
,Objects\186a.jpg,12,0,13,,,,,f,1.7394723000470549,0.2093303999863565,None,,,,,,13,0,12,1017.4996051999624,,,,,,,,,,,,,,,,,,,,,,,,,,,,,,1017.4836092999903,1017.4996051999624,1017.9997656999622,1017.9830084999558,,,,,,,,,,,,,,,,,,,,,,1017.9861284999643,1017.9997656999622,1017.9997656999622,1017.9997656999622,1020.999597899965,1020.999597899965,1020.999597899965,1020.9834395999787,f,1.7394723000470549,0.2093303999863565,1020.98348299996,1020.9834934999817,None,,,,,,,,,,,,,,00050,001,2026-01-18_14h46.37.542,MST_task,2024.2.0,59.836884650338014,2026-01-18 14h47.29.221363 +0530,
,Objects\038a.jpg,13,0,14,,,,,f,1.2961507000145502,0.18400279997149482,None,,,,,,14,0,13,1020.999597899965,,,,,,,,,,,,,,,,,,,,,,,,,,,,,,1020.9835586999543,1020.999597899965,1021.4997380999848,1021.4831760999514,,,,,,,,,,,,,,,,,,,,,,1021.4860125999548,1021.4997380999848,1021.4997380999848,1021.4997380999848,1024.499568099971,1024.499568099971,1024.499568099971,1024.4834212999558,f,1.2961507000145502,0.18400279997149482,1024.4834648999968,1024.483475899964,None,,,,,,,,,,,,,,00050,001,2026-01-18_14h46.37.542,MST_task,2024.2.0,59.836884650338014,2026-01-18 14h47.29.221363 +0530,
,Scenes\005a.jpg,14,0,15,,,,,f,2.435158299980685,0.20799510000506416,None,,,,,,15,0,14,1024.499568099971,,,,,,,,,,,,,,,,,,,,,,,,,,,,,,1024.4835746999597,1024.499568099971,1024.999993000005,1024.9832275999943,,,,,,,,,,,,,,,,,,,,,,1024.9935178000014,1024.999993000005,1024.999993000005,1024.999993000005,1027.9995040999493,1027.9995040999493,1027.9995040999493,1027.9836485999986,f,2.435158299980685,0.20799510000506416,1027.985289299977,1027.9853055999847,None,,,,,,,,,,,,,,00050,001,2026-01-18_14h46.37.542,MST_task,2024.2.0,59.836884650338014,2026-01-18 14h47.29.221363 +0530,
,Scenes\058a.jpg,15,0,16,,,,,j,2.079283499973826,0.19200440001441166,None,,,,,,16,0,15,1027.9995040999493,,,,,,,,,,,,,,,,,,,,,,,,,,,,,,1027.9853739999817,1027.9995040999493,1028.500112699985,1028.4831637999741,,,,,,,,,,,,,,,,,,,,,,1028.4928614999517,1028.500112699985,1028.500112699985,1028.500112699985,1031.4996118999552,1031.4996118999552,1031.4996118999552,1031.4836625999887,j,2.079283499973826,0.19200440001441166,1031.483713399968,1031.4837247999967,None,,,,,,,,,,,,,,00050,001,2026-01-18_14h46.37.542,MST_task,2024.2.0,59.836884650338014,2026-01-18 14h47.29.221363 +0530,
,Scenes\027a.jpg,16,0,17,,,,,j,1.491038500040304,0.16894139995565638,None,,,,,,17,0,16,1031.4996118999552,,,,,,,,,,,,,,,,,,,,,,,,,,,,,,1031.483835699968,1031.4996118999552,1032.0000799999689,1031.98313399998,,,,,,,,,,,,,,,,,,,,,,1031.990937399969,1032.0000799999689,1032.0000799999689,1032.0000799999689,1034.9996775999898,1034.9996775999898,1034.9996775999898,1034.9837068999768,j,1.491038500040304,0.16894139995565638,1034.983757399954,1034.9837683999795,None,,,,,,,,,,,,,,00050,001,2026-01-18_14h46.37.542,MST_task,2024.2.0,59.836884650338014,2026-01-18 14h47.29.221363 +0530,
,Scenes\160a.jpg,17,0,18,,,,,j,1.1596728999866173,0.1920494000078179,None,,,,,,18,0,17,1034.9996775999898,,,,,,,,,,,,,,,,,,,,,,,,,,,,,,1034.9838396999985,1034.9996775999898,1035.5001203999855,1035.4831434999942,,,,,,,,,,,,,,,,,,,,,,1035.4906982999528,1035.5001203999855,1035.5001203999855,1035.5001203999855,1038.4994608999696,1038.4994608999696,1038.4994608999696,1038.4833296999568,j,1.1596728999866173,0.1920494000078179,1038.4833756999578,1038.483386399981,None,,,,,,,,,,,,,,00050,001,2026-01-18_14h46.37.542,MST_task,2024.2.0,59.836884650338014,2026-01-18 14h47.29.221363 +0530,
,Scenes\178a.jpg,18,0,19,,,,,j,0.8910245999577455,0.12799440004164353,None,,,,,,19,0,18,1038.4994608999696,,,,,,,,,,,,,,,,,,,,,,,,,,,,,,1038.4834902999573,1038.4994608999696,1039.0001036999747,1038.9832212000038,,,,,,,,,,,,,,,,,,,,,,1038.9976463000057,1039.0001036999747,1039.0001036999747,1039.0001036999747,1041.9995602999697,1041.9995602999697,1041.9995602999697,1041.9835175999906,j,0.8910245999577455,0.12799440004164353,1041.983570499986,1041.9835822999594,None,,,,,,,,,,,,,,00050,001,2026-01-18_14h46.37.542,MST_task,2024.2.0,59.836884650338014,2026-01-18 14h47.29.221363 +0530,
,Scenes\016a.jpg,19,0,20,,,,,j,0.833174399973359,0.11002230003941804,None,,,,,,20,0,19,1041.9995602999697,,,,,,,,,,,,,,,,,,,,,,,,,,,,,,1041.9836568000028,1041.9995602999697,1042.5000681999954,1042.483122000005,,,,,,,,,,,,,,,,,,,,,,1042.4874355999636,1042.5000681999954,1042.5000681999954,1042.5000681999954,1045.4995139999664,1045.4995139999664,1045.4995139999664,1045.483481400006,j,0.833174399973359,0.11002230003941804,1045.4835233999765,1045.4835340999998,None,,,,,,,,,,,,,,00050,001,2026-01-18_14h46.37.542,MST_task,2024.2.0,59.836884650338014,2026-01-18 14h47.29.221363 +0530,
,Scenes\066a.jpg,20,0,21,,,,,j,0.8761089000036009,0.16733510000631213,None,,,,,,21,0,20,1045.4995139999664,,,,,,,,,,,,,,,,,,,,,,,,,,,,,,1045.483628899965,1045.4995139999664,1045.9998933000024,1045.9830156999524,,,,,,,,,,,,,,,,,,,,,,1045.994037299999,1045.9998933000024,1045.9998933000024,1045.9998933000024,1048.9995715999976,1048.9995715999976,1048.9995715999976,1048.9834698999766,j,0.8761089000036009,0.16733510000631213,1048.9835112,1048.9835215999628,None,,,,,,,,,,,,,,00050,001,2026-01-18_14h46.37.542,MST_task,2024.2.0,59.836884650338014,2026-01-18 14h47.29.221363 +0530,
,Objects\181a.jpg,21,0,22,,,,,j,2.8152110999799334,0.08798000001115724,None,,,,,,22,0,21,1048.9995715999976,,,,,,,,,,,,,,,,,,,,,,,,,,,,,,1048.9836158999824,1048.9995715999976,1049.499964299961,1049.4831898999983,,,,,,,,,,,,,,,,,,,,,,1049.4892395999632,1049.499964299961,1049.499964299961,1049.499964299961,1052.4996431999607,1052.4996431999607,1052.4996431999607,1052.4834345999989,j,2.8152110999799334,0.08798000001115724,1052.4854739999864,1052.4854911000002,None,,,,,,,,,,,,,,00050,001,2026-01-18_14h46.37.542,MST_task,2024.2.0,59.836884650338014,2026-01-18 14h47.29.221363 +0530,
,Objects\026a.jpg,22,0,23,,,,,f,1.0032875999459065,0.15210870001465082,None,,,,,,23,0,22,1052.4996431999607,,,,,,,,,,,,,,,,,,,,,,,,,,,,,,1052.4855624999618,1052.4996431999607,1052.9997799999546,1052.983163899975,,,,,,,,,,,,,,,,,,,,,,1052.9866874999716,1052.9997799999546,1052.9997799999546,1052.9997799999546,1055.9994915999705,1055.9994915999705,1055.9994915999705,1055.9833330999827,f,1.0032875999459065,0.15210870001465082,1055.9833760999609,1055.9833874999895,None,,,,,,,,,,,,,,00050,001,2026-01-18_14h46.37.542,MST_task,2024.2.0,59.836884650338014,2026-01-18 14h47.29.221363 +0530,
,Objects\188a.jpg,23,0,24,,,,,f,0.9034354999894276,0.15318080002907664,None,,,,,,24,0,23,1055.9994915999705,,,,,,,,,,,,,,,,,,,,,,,,,,,,,,1055.9834842999699,1055.9994915999705,1056.4998832999845,1056.4831465999596,,,,,,,,,,,,,,,,,,,,,,1056.492746200005,1056.4998832999845,1056.4998832999845,1056.4998832999845,1059.4995689999778,1059.4995689999778,1059.4995689999778,1059.4835307999747,f,0.9034354999894276,0.15318080002907664,1059.4835729000042,1059.4835837999708,None,,,,,,,,,,,,,,00050,001,2026-01-18_14h46.37.542,MST_task,2024.2.0,59.836884650338014,2026-01-18 14h47.29.221363 +0530,
,Objects\013a.jpg,24,0,25,,,,,j,2.843799600028433,None,None,,,,,,25,0,24,1059.4995689999778,,,,,,,,,,,,,,,,,,,,,,,,,,,,,,1059.483681499958,1059.4995689999778,1059.9997815999668,1059.9831548999646,,,,,,,,,,,,,,,,,,,,,,1059.986131499987,1059.9997815999668,1059.9997815999668,1059.9997815999668,1062.9994539999752,1062.9994539999752,1062.9994539999752,1062.9833601999562,j,2.843799600028433,None,1062.9834068999626,1062.9834176999866,None,,,,,,,,,,,,,,00050,001,2026-01-18_14h46.37.542,MST_task,2024.2.0,59.836884650338014,2026-01-18 14h47.29.221363 +0530,
,Objects\008a.jpg,25,0,26,,,,,f,1.8079399999696761,0.15968310000607744,None,,,,,,26,0,25,1062.9994539999752,,,,,,,,,,,,,,,,,,,,,,,,,,,,,,1062.983484199969,1062.9994539999752,1063.499885199999,1063.483080599981,,,,,,,,,,,,,,,,,,,,,,1063.4863438999746,1063.499885199999,1063.499885199999,1063.499885199999,1066.499500899983,1066.499500899983,1066.499500899983,1066.4835143999662,f,1.8079399999696761,0.15968310000607744,1066.483557200001,1066.483567999967,None,,,,,,,,,,,,,,00050,001,2026-01-18_14h46.37.542,MST_task,2024.2.0,59.836884650338014,2026-01-18 14h47.29.221363 +0530,
,Objects\139a.jpg,26,0,27,,,,,f,2.8199200999806635,0.14461220003431663,None,,,,,,27,0,26,1066.499500899983,,,,,,,,,,,,,,,,,,,,,,,,,,,,,,1066.483663299994,1066.499500899983,1066.9996904999716,1066.983051599993,,,,,,,,,,,,,,,,,,,,,,1066.9861819999642,1066.9996904999716,1066.9996904999716,1066.9996904999716,1069.9994586999528,1069.9994586999528,1069.9994586999528,1069.983362399973,f,2.8199200999806635,0.14461220003431663,1069.983408799977,1069.9834199000034,None,,,,,,,,,,,,,,00050,001,2026-01-18_14h46.37.542,MST_task,2024.2.0,59.836884650338014,2026-01-18 14h47.29.221363 +0530,
,Objects\015a.jpg,27,0,28,,,,,f,1.551973599998746,0.15993799996795133,None,,,,,,28,0,27,1069.9994586999528,,,,,,,,,,,,,,,,,,,,,,,,,,,,,,1069.9834883000003,1069.9994586999528,1070.499730599986,1070.4829685000004,,,,,,,,,,,,,,,,,,,,,,1070.486397199973,1070.499730599986,1070.499730599986,1070.499730599986,1073.499481799954,1073.499481799954,1073.499481799954,1073.483201599971,f,1.551973599998746,0.15993799996795133,1073.483243099996,1073.483253799961,None,,,,,,,,,,,,,,00050,001,2026-01-18_14h46.37.542,MST_task,2024.2.0,59.836884650338014,2026-01-18 14h47.29.221363 +0530,
,Scenes\139a.jpg,28,0,29,,,,,j,1.2494617000338621,0.1526255999924615,None,,,,,,29,0,28,1073.499481799954,,,,,,,,,,,,,,,,,,,,,,,,,,,,,,1073.4833459999645,1073.499481799954,1074.0018159999745,1073.9829132999876,,,,,,,,,,,,,,,,,,,,,,1073.999308199971,1074.0018159999745,1074.0018159999745,1074.0018159999745,,,,1076.999729699979,j,1.2494617000338621,0.1526255999924615,1077.001377699955,1077.0013953999733,None,,,,,,,,,,,,,,00050,001,2026-01-18_14h46.37.542,MST_task,2024.2.0,59.836884650338014,2026-01-18 14h47.29.221363 +0530,
,Scenes\117a.jpg,29,0,30,,,,,j,0.782675200025551,0.16858509997837245,None,,,,,,30,0,29,1077.0160861999611,,,,,,,,,,,,,,,,,,,,,,,,,,,,,,1077.0014956999803,1077.0160861999611,1077.5165323999827,1077.4997110999539,,,,,,,,,,,,,,,,,,,,,,1077.5119481000002,1077.5165323999827,1077.5165323999827,1077.5165323999827,1080.516193199961,1080.516193199961,1080.516193199961,1080.4999872999615,j,0.782675200025551,0.16858509997837245,1080.5000340999686,1080.5000446999911,None,,,,,,,,,,,,,,00050,001,2026-01-18_14h46.37.542,MST_task,2024.2.0,59.836884650338014,2026-01-18 14h47.29.221363 +0530,
,Scenes\021a.jpg,30,0,31,,,,,j,1.4722751999506727,0.160023300035391,None,,,,,,31,0,30,1080.516193199961,,,,,,,,,,,,,,,,,,,,,,,,,,,,,,1080.5001490999712,1080.516193199961,1081.019249200006,1080.9997952999547,,,,,,,,,,,,,,,,,,,,,,1081.016740399995,1081.019249200006,1081.019249200006,1081.019249200006,,,,1084.0164122999995,j,1.4722751999506727,0.160023300035391,1084.0164554999792,1084.0164670999511,None,,,,,,,,,,,,,,00050,001,2026-01-18_14h46.37.542,MST_task,2024.2.0,59.836884650338014,2026-01-18 14h47.29.221363 +0530,
,Scenes\191a.jpg,31,0,32,,,,,j,1.438718500023242,0.13596330001018941,None,,,,,,32,0,31,1084.0326461999794,,,,,,,,,,,,,,,,,,,,,,,,,,,,,,1084.0165340999956,1084.0326461999794,1084.5332380000036,1084.516761899984,,,,,,,,,,,,,,,,,,,,,,1084.524679199967,1084.5332380000036,1084.5332380000036,1084.5332380000036,1087.532753699983,1087.532753699983,1087.532753699983,1087.5166949999984,j,1.438718500023242,0.13596330001018941,1087.5167389999842,1087.5167495999485,None,,,,,,,,,,,,,,00050,001,2026-01-18_14h46.37.542,MST_task,2024.2.0,59.836884650338014,2026-01-18 14h47.29.221363 +0530,
,Scenes\074a.jpg,32,0,33,,,,,j,0.8980047999648377,0.15199540002504364,None,,,,,,33,0,32,1087.532753699983,,,,,,,,,,,,,,,,,,,,,,,,,,,,,,1087.5168141999748,1087.532753699983,1088.0332467999542,1088.0165208999533,,,,,,,,,,,,,,,,,,,,,,1088.025743199978,1088.0332467999542,1088.0332467999542,1088.0332467999542,1091.032756200002,1091.032756200002,1091.032756200002,1091.016693499987,j,0.8980047999648377,0.15199540002504364,1091.0167380999774,1091.0167488000006,None,,,,,,,,,,,,,,00050,001,2026-01-18_14h46.37.542,MST_task,2024.2.0,59.836884650338014,2026-01-18 14h47.29.221363 +0530,
,Scenes\018a.jpg,33,0,34,,,,,f,1.7259824000066146,0.1840301000047475,None,,,,,,34,0,33,1091.032756200002,,,,,,,,,,,,,,,,,,,,,,,,,,,,,,1091.0168469999917,1091.032756200002,1091.533264699974,1091.5164519999526,,,,,,,,,,,,,,,,,,,,,,1091.5234060999937,1091.533264699974,1091.533264699974,1091.533264699974,1094.5326886999537,1094.5326886999537,1094.5326886999537,1094.5167414000025,f,1.7259824000066146,0.1840301000047475,1094.516787600005,1094.5167986999732,None,,,,,,,,,,,,,,00050,001,2026-01-18_14h46.37.542,MST_task,2024.2.0,59.836884650338014,2026-01-18 14h47.29.221363 +0530,
,Scenes\082a.jpg,34,0,35,,,,,f,1.547148899990134,0.17579000000841916,None,,,,,,35,0,34,1094.5326886999537,,,,,,,,,,,,,,,,,,,,,,,,,,,,,,1094.5168676999747,1094.5326886999537,1095.03331899998,1095.016428300005,,,,,,,,,,,,,,,,,,,,,,1095.0280001999927,1095.03331899998,1095.03331899998,1095.03331899998,1098.0326500999508,1098.0326500999508,1098.0326500999508,1098.0167051999597,f,1.547148899990134,0.17579000000841916,1098.0167583999573,1098.0167691999814,None,,,,,,,,,,,,,,00050,001,2026-01-18_14h46.37.542,MST_task,2024.2.0,59.836884650338014,2026-01-18 14h47.29.221363 +0530,
,Objects\033a.jpg,35,0,36,,,,,f,1.9674179999856278,0.15108370000962168,None,,,,,,36,0,35,1098.0326500999508,,,,,,,,,,,,,,,,,,,,,,,,,,,,,,1098.0168669999694,1098.0326500999508,1098.5332138999947,1098.5163542999653,,,,,,,,,,,,,,,,,,,,,,1098.5222270999802,1098.5332138999947,1098.5332138999947,1098.5332138999947,1101.532687400002,1101.532687400002,1101.532687400002,1101.516867999977,f,1.9674179999856278,0.15108370000962168,1101.519154299982,1101.5191715999972,None,,,,,,,,,,,,,,00050,001,2026-01-18_14h46.37.542,MST_task,2024.2.0,59.836884650338014,2026-01-18 14h47.29.221363 +0530,
,Objects\041a.jpg,36,0,37,,,,,j,1.8185153999947943,0.13643929996760562,None,,,,,,37,0,36,1101.532687400002,,,,,,,,,,,,,,,,,,,,,,,,,,,,,,1101.5192423999542,1101.532687400002,1102.0328840999864,1102.0163711999776,,,,,,,,,,,,,,,,,,,,,,1102.026060699951,1102.0328840999864,1102.0328840999864,1102.0328840999864,1105.0327593999682,1105.0327593999682,1105.0327593999682,1105.016672400001,j,1.8185153999947943,0.13643929996760562,1105.0167151999776,1105.0167254999978,None,,,,,,,,,,,,,,00050,001,2026-01-18_14h46.37.542,MST_task,2024.2.0,59.836884650338014,2026-01-18 14h47.29.221363 +0530,
,Objects\108a.jpg,37,0,38,,,,,j,2.7984606999671087,0.1447698000119999,None,,,,,,38,0,37,1105.0327593999682,,,,,,,,,,,,,,,,,,,,,,,,,,,,,,1105.0168245999957,1105.0327593999682,1105.532948499953,1105.5165320999804,,,,,,,,,,,,,,,,,,,,,,1105.5196222999948,1105.532948499953,1105.532948499953,1105.532948499953,1108.5327691999846,1108.5327691999846,1108.5327691999846,1108.5166505999514,j,2.7984606999671087,0.1447698000119999,1108.5166920999764,1108.5167023999966,None,,,,,,,,,,,,,,00050,001,2026-01-18_14h46.37.542,MST_task,2024.2.0,59.836884650338014,2026-01-18 14h47.29.221363 +0530,
,Objects\067a.jpg,38,0,39,,,,,f,1.9701195000088774,0.21682159998454154,None,,,,,,39,0,38,1108.5327691999846,,,,,,,,,,,,,,,,,,,,,,,,,,,,,,1108.516794700001,1108.5327691999846,1109.0331094999565,1109.0165111999959,,,,,,,,,,,,,,,,,,,,,,1109.0260826000012,1109.0331094999565,1109.0331094999565,1109.0331094999565,1112.0327563000028,1112.0327563000028,1112.0327563000028,1112.0166849999805,f,1.9701195000088774,0.21682159998454154,1112.016727399954,1112.016737799975,None,,,,,,,,,,,,,,00050,001,2026-01-18_14h46.37.542,MST_task,2024.2.0,59.836884650338014,2026-01-18 14h47.29.221363 +0530,
,Objects\111a.jpg,39,0,40,,,,,j,1.0635332000092603,0.1751712000113912,None,,,,,,40,0,39,1112.0327563000028,,,,,,,,,,,,,,,,,,,,,,,,,,,,,,1112.0168009999907,1112.0327563000028,1112.532980799966,1112.5163986999542,,,,,,,,,,,,,,,,,,,,,,1112.5195837999927,1112.532980799966,1112.532980799966,1112.532980799966,1115.5331223999965,1115.5331223999965,1115.5331223999965,1115.516567899962,j,1.0635332000092603,0.1751712000113912,1115.5166123999516,1115.5166231999756,None,,,,,,,,,,,,,,00050,001,2026-01-18_14h46.37.542,MST_task,2024.2.0,59.836884650338014,2026-01-18 14h47.29.221363 +0530,
,Objects\078a.jpg,40,0,41,,,,,f,1.2347589999553747,0.16755840001860633,None,,,,,,41,0,40,1115.5331223999965,,,,,,,,,,,,,,,,,,,,,,,,,,,,,,1115.51673079998,1115.5331223999965,1116.0329022999504,1116.0165017999825,,,,,,,,,,,,,,,,,,,,,,1116.019790099992,1116.0329022999504,1116.0329022999504,1116.0329022999504,1119.0326922999811,1119.0326922999811,1119.0326922999811,1119.0167051999597,f,1.2347589999553747,0.16755840001860633,1119.0167458999786,1119.016756099998,None,,,,,,,,,,,,,,00050,001,2026-01-18_14h46.37.542,MST_task,2024.2.0,59.836884650338014,2026-01-18 14h47.29.221363 +0530,
,Objects\109a.jpg,41,0,42,,,,,j,1.614433699985966,0.16807960002915934,None,,,,,,42,0,41,1119.0326922999811,,,,,,,,,,,,,,,,,,,,,,,,,,,,,,1119.0168218999752,1119.0326922999811,1119.5329997999943,1119.5163938999758,,,,,,,,,,,,,,,,,,,,,,1119.5193012999953,1119.5329997999943,1119.5329997999943,1119.5329997999943,1122.532719299954,1122.532719299954,1122.532719299954,1122.5166522999643,j,1.614433699985966,0.16807960002915934,1122.5166960999486,1122.516706699971,None,,,,,,,,,,,,,,00050,001,2026-01-18_14h46.37.542,MST_task,2024.2.0,59.836884650338014,2026-01-18 14h47.29.221363 +0530,
,Scenes\156a.jpg,42,0,43,,,,,j,1.3862750999978743,0.13672650000080466,None,,,,,,43,0,42,1122.532719299954,,,,,,,,,,,,,,,,,,,,,,,,,,,,,,1122.5167997999815,1122.532719299954,1123.0331703999545,1123.0163787999772,,,,,,,,,,,,,,,,,,,,,,1123.0268139999826,1123.0331703999545,1123.0331703999545,1123.0331703999545,1126.0328581999638,1126.0328581999638,1126.0328581999638,1126.0169431999675,j,1.3862750999978743,0.13672650000080466,1126.0185962999822,1126.018612999993,None,,,,,,,,,,,,,,00050,001,2026-01-18_14h46.37.542,MST_task,2024.2.0,59.836884650338014,2026-01-18 14h47.29.221363 +0530,
,Scenes\089a.jpg,43,0,44,,,,,j,1.965465100016445,0.16901030001463369,None,,,,,,44,0,43,1126.0328581999638,,,,,,,,,,,,,,,,,,,,,,,,,,,,,,1126.0187131999992,1126.0328581999638,1126.533728899958,1126.5164631999796,,,,,,,,,,,,,,,,,,,,,,1126.5294899999863,1126.533728899958,1126.533728899958,1126.533728899958,1129.5329420999624,1129.5329420999624,1129.5329420999624,1129.516819499957,j,1.965465100016445,0.16901030001463369,1129.5168630999979,1129.5168740999652,None,,,,,,,,,,,,,,00050,001,2026-01-18_14h46.37.542,MST_task,2024.2.0,59.836884650338014,2026-01-18 14h47.29.221363 +0530,
,Scenes\085a.jpg,44,0,45,,,,,j,1.0660034000175074,0.15194199996767566,None,,,,,,45,0,44,1129.5329420999624,,,,,,,,,,,,,,,,,,,,,,,,,,,,,,1129.51693849999,1129.5329420999624,1130.0335429999977,1130.0165235999739,,,,,,,,,,,,,,,,,,,,,,1130.026724299998,1130.0335429999977,1130.0335429999977,1130.0335429999977,1133.0329490999575,1133.0329490999575,1133.0329490999575,1133.016777199984,j,1.0660034000175074,0.15194199996767566,1133.016821099969,1133.016832399997,None,,,,,,,,,,,,,,00050,001,2026-01-18_14h46.37.542,MST_task,2024.2.0,59.836884650338014,2026-01-18 14h47.29.221363 +0530,
,Scenes\109a.jpg,45,0,46,,,,,j,1.2708128000376746,0.16742039995733649,None,,,,,,46,0,45,1133.0329490999575,,,,,,,,,,,,,,,,,,,,,,,,,,,,,,1133.0169279999682,1133.0329490999575,1133.533139499952,1133.5163811999955,,,,,,,,,,,,,,,,,,,,,,1133.5243855000008,1133.533139499952,1133.533139499952,1133.533139499952,1136.5329125999706,1136.5329125999706,1136.5329125999706,1136.516689699958,j,1.2708128000376746,0.16742039995733649,1136.516732499993,1136.5167430999572,None,,,,,,,,,,,,,,00050,001,2026-01-18_14h46.37.542,MST_task,2024.2.0,59.836884650338014,2026-01-18 14h47.29.221363 +0530,
,Scenes\145a.jpg,46,0,47,,,,,j,0.8532424999866635,0.1435188000323251,None,,,,,,47,0,46,1136.5329125999706,,,,,,,,,,,,,,,,,,,,,,,,,,,,,,1136.5168072999804,1136.5329125999706,1137.0384463999653,1137.0164384999662,,,,,,,,,,,,,,,,,,,,,,1137.036017699982,1137.0384463999653,1137.0384463999653,1137.0384463999653,,,,1140.0331161999493,j,0.8532424999866635,0.1435188000323251,1140.033164399967,1140.0331771000056,None,,,,,,,,,,,,,,00050,001,2026-01-18_14h46.37.542,MST_task,2024.2.0,59.836884650338014,2026-01-18 14h47.29.221363 +0530,
,Scenes\161a.jpg,47,0,48,,,,,j,0.8852449000114575,0.16063069994561374,None,,,,,,48,0,47,1140.0495814000024,,,,,,,,,,,,,,,,,,,,,,,,,,,,,,1140.0332847999525,1140.0495814000024,1140.5498784999945,1140.5331555999583,,,,,,,,,,,,,,,,,,,,,,1140.54279029998,1140.5498784999945,1140.5498784999945,1140.5498784999945,1143.549687599996,1143.549687599996,1143.549687599996,1143.5334589999984,j,0.8852449000114575,0.16063069994561374,1143.5335014999728,1143.5335164999706,None,,,,,,,,,,,,,,00050,001,2026-01-18_14h46.37.542,MST_task,2024.2.0,59.836884650338014,2026-01-18 14h47.29.221363 +0530,
,Scenes\153a.jpg,48,0,49,,,,,j,2.3611671999678947,0.1520108000258915,None,,,,,,49,0,48,1143.549687599996,,,,,,,,,,,,,,,,,,,,,,,,,,,,,,1143.5336105999886,1143.549687599996,1144.050226799969,1144.0330658999737,,,,,,,,,,,,,,,,,,,,,,1144.0392802999704,1144.050226799969,1144.050226799969,1144.050226799969,1147.0496507999487,1147.0496507999487,1147.0496507999487,1147.0334592,j,2.3611671999678947,0.1520108000258915,1147.033504799998,1147.0335160999675,None,,,,,,,,,,,,,,00050,001,2026-01-18_14h46.37.542,MST_task,2024.2.0,59.836884650338014,2026-01-18 14h47.29.221363 +0530,
,Objects\079a.jpg,49,0,50,,,,,j,2.822418799973093,0.11912550003034994,None,,,,,,50,0,49,1147.0496507999487,,,,,,,,,,,,,,,,,,,,,,,,,,,,,,1147.0336129000061,1147.0496507999487,1147.549967399973,1147.5332885999815,,,,,,,,,,,,,,,,,,,,,,1147.5391601999872,1147.549967399973,1147.549967399973,1147.549967399973,1150.5495825999533,1150.5495825999533,1150.5495825999533,1150.5334908999503,j,2.822418799973093,0.11912550003034994,1150.5355595999863,1150.5355770000024,None,,,,,,,,,,,,,,00050,001,2026-01-18_14h46.37.542,MST_task,2024.2.0,59.836884650338014,2026-01-18 14h47.29.221363 +0530,
,Objects\091a.jpg,50,0,51,,,,,j,1.9460857000085525,0.1674384000361897,None,,,,,,51,0,50,1150.5495825999533,,,,,,,,,,,,,,,,,,,,,,,,,,,,,,1150.5356774999527,1150.5495825999533,1151.0498724000063,1151.0331128999824,,,,,,,,,,,,,,,,,,,,,,1151.0361928999773,1151.0498724000063,1151.0498724000063,1151.0498724000063,1154.049617599987,1154.049617599987,1154.049617599987,1154.033291300002,j,1.9460857000085525,0.1674384000361897,1154.0333319999627,1154.033342299983,None,,,,,,,,,,,,,,00050,001,2026-01-18_14h46.37.542,MST_task,2024.2.0,59.836884650338014,2026-01-18 14h47.29.221363 +0530,
,Objects\148a.jpg,51,0,52,,,,,f,1.5745844999910332,0.15197350003290921,None,,,,,,52,0,51,1154.049617599987,,,,,,,,,,,,,,,,,,,,,,,,,,,,,,1154.033437499951,1154.049617599987,1154.5497901999624,1154.5333955999813,,,,,,,,,,,,,,,,,,,,,,1154.5366081999964,1154.5497901999624,1154.5497901999624,1154.5497901999624,1157.54961799999,1157.54961799999,1157.54961799999,1157.5333970999927,f,1.5745844999910332,0.15197350003290921,1157.5334390999633,1157.5334498999873,None,,,,,,,,,,,,,,00050,001,2026-01-18_14h46.37.542,MST_task,2024.2.0,59.836884650338014,2026-01-18 14h47.29.221363 +0530,
,Objects\161a.jpg,52,0,53,,,,,f,0.8097993000410497,0.1605738999787718,None,,,,,,53,0,52,1157.54961799999,,,,,,,,,,,,,,,,,,,,,,,,,,,,,,1157.5335139999515,1157.54961799999,1158.04981279996,1158.0330343999667,,,,,,,,,,,,,,,,,,,,,,1158.0431129999924,1158.04981279996,1158.04981279996,1158.04981279996,1161.04962169996,1161.04962169996,1161.04962169996,1161.033434699988,f,0.8097993000410497,0.1605738999787718,1161.033475300006,1161.033485199965,None,,,,,,,,,,,,,,00050,001,2026-01-18_14h46.37.542,MST_task,2024.2.0,59.836884650338014,2026-01-18 14h47.29.221363 +0530,
,Objects\047a.jpg,53,0,54,,,,,f,0.8374544000253081,0.13671319995773956,None,,,,,,54,0,53,1161.04962169996,,,,,,,,,,,,,,,,,,,,,,,,,,,,,,1161.0335497999913,1161.04962169996,1161.549799499975,1161.5332896999898,,,,,,,,,,,,,,,,,,,,,,1161.5364887999604,1161.549799499975,1161.549799499975,1161.549799499975,1164.5496340999962,1164.5496340999962,1164.5496340999962,1164.5333847999573,f,0.8374544000253081,0.13671319995773956,1164.5334281999967,1164.5334386999602,None,,,,,,,,,,,,,,00050,001,2026-01-18_14h46.37.542,MST_task,2024.2.0,59.836884650338014,2026-01-18 14h47.29.221363 +0530,
,Objects\004a.jpg,54,0,55,,,,,j,2.9460532999946736,None,None,,,,,,55,0,54,1164.5496340999962,,,,,,,,,,,,,,,,,,,,,,,,,,,,,,1164.5335335999844,1164.5496340999962,1165.0497879000031,1165.033227899985,,,,,,,,,,,,,,,,,,,,,,1165.042689999973,1165.0497879000031,1165.0497879000031,1165.0497879000031,1168.049695099995,1168.049695099995,1168.049695099995,1168.0336435000063,j,2.9460532999946736,None,1168.0336912999628,1168.033701999986,None,,,,,,,,,,,,,,00050,001,2026-01-18_14h46.37.542,MST_task,2024.2.0,59.836884650338014,2026-01-18 14h47.29.221363 +0530,
,Objects\115a.jpg,55,0,56,,,,,f,1.5253325999947265,0.1528066999744624,None,,,,,,56,0,55,1168.049695099995,,,,,,,,,,,,,,,,,,,,,,,,,,,,,,1168.0337704999838,1168.049695099995,1168.5498404999962,1168.5331667999853,,,,,,,,,,,,,,,,,,,,,,1168.5361351000029,1168.5498404999962,1168.5498404999962,1168.5498404999962,1171.5496358999517,1171.5496358999517,1171.5496358999517,1171.5336873999913,f,1.5253325999947265,0.1528066999744624,1171.5337465999764,1171.5337579000043,None,,,,,,,,,,,,,,00050,001,2026-01-18_14h46.37.542,MST_task,2024.2.0,59.836884650338014,2026-01-18 14h47.29.221363 +0530,
,Scenes\120a.jpg,56,0,57,,,,,j,0.7857165000168607,0.13599350000731647,None,,,,,,57,0,56,1171.5496358999517,,,,,,,,,,,,,,,,,,,,,,,,,,,,,,1171.5338700999855,1171.5496358999517,1172.0500907999813,1172.0331361999852,,,,,,,,,,,,,,,,,,,,,,1172.0445242999704,1172.0500907999813,1172.0500907999813,1172.0500907999813,1175.0495481999824,1175.0495481999824,1175.0495481999824,1175.0336113999947,j,0.7857165000168607,0.13599350000731647,1175.0352563000051,1175.0352725999546,None,,,,,,,,,,,,,,00050,001,2026-01-18_14h46.37.542,MST_task,2024.2.0,59.836884650338014,2026-01-18 14h47.29.221363 +0530,
,Scenes\020a.jpg,57,0,58,,,,,f,1.2378408000222407,0.18440169998211786,None,,,,,,58,0,57,1175.0495481999824,,,,,,,,,,,,,,,,,,,,,,,,,,,,,,1175.0353713999502,1175.0495481999824,1175.550241299963,1175.5332519999938,,,,,,,,,,,,,,,,,,,,,,1175.5461536999792,1175.550241299963,1175.550241299963,1175.550241299963,1178.5495808999985,1178.5495808999985,1178.5495808999985,1178.5334683999536,f,1.2378408000222407,0.18440169998211786,1178.5335283000022,1178.533539099968,None,,,,,,,,,,,,,,00050,001,2026-01-18_14h46.37.542,MST_task,2024.2.0,59.836884650338014,2026-01-18 14h47.29.221363 +0530,
,Scenes\063a.jpg,58,0,59,,,,,j,1.5060971999773756,0.20862739998847246,None,,,,,,59,0,58,1178.5495808999985,,,,,,,,,,,,,,,,,,,,,,,,,,,,,,1178.5336433000048,1178.5495808999985,1179.0502776999492,1179.0331383000012,,,,,,,,,,,,,,,,,,,,,,1179.042794799956,1179.0502776999492,1179.0502776999492,1179.0502776999492,1182.049577399972,1182.049577399972,1182.049577399972,1182.033458299993,j,1.5060971999773756,0.20862739998847246,1182.0335002999636,1182.0335106999846,None,,,,,,,,,,,,,,00050,001,2026-01-18_14h46.37.542,MST_task,2024.2.0,59.836884650338014,2026-01-18 14h47.29.221363 +0530,
,Scenes\022a.jpg,59,0,60,,,,,j,0.5810807999805547,0.1687851999886334,None,,,,,,60,0,59,1182.049577399972,,,,,,,,,,,,,,,,,,,,,,,,,,,,,,1182.033604700002,1182.049577399972,1182.550183299987,1182.533152899996,,,,,,,,,,,,,,,,,,,,,,1182.5374565999955,1182.550183299987,1182.550183299987,1182.550183299987,1185.5495191999944,1185.5495191999944,1185.5495191999944,1185.533346799959,j,0.5810807999805547,0.1687851999886334,1185.5333879999816,1185.5333985000034,None,,,,,,,,,,,,,,00050,001,2026-01-18_14h46.37.542,MST_task,2024.2.0,59.836884650338014,2026-01-18 14h47.29.221363 +0530,
,Scenes\144a.jpg,60,0,61,,,,,j,1.6265049999929033,0.16675990005023777,None,,,,,,61,0,60,1185.5495191999944,,,,,,,,,,,,,,,,,,,,,,,,,,,,,,1185.5334937999723,1185.5495191999944,1186.0500708000036,1186.0330291999853,,,,,,,,,,,,,,,,,,,,,,1186.0400386999827,1186.0500708000036,1186.0500708000036,1186.0500708000036,1189.0494503999944,1189.0494503999944,1189.0494503999944,1189.0334413999808,j,1.6265049999929033,0.16675990005023777,1189.0334813999943,1189.0334920999594,None,,,,,,,,,,,,,,00050,001,2026-01-18_14h46.37.542,MST_task,2024.2.0,59.836884650338014,2026-01-18 14h47.29.221363 +0530,
,Scenes\119a.jpg,61,0,62,,,,,j,1.698686599964276,0.11200240004109219,None,,,,,,62,0,61,1189.0494503999944,,,,,,,,,,,,,,,,,,,,,,,,,,,,,,1189.0335874999873,1189.0494503999944,1189.553350000002,1189.532930299989,,,,,,,,,,,,,,,,,,,,,,1189.5508831999614,1189.553350000002,1189.553350000002,1189.553350000002,,,,1192.5497963999514,j,1.698686599964276,0.11200240004109219,1192.5498379999772,1192.5498492000042,None,,,,,,,,,,,,,,00050,001,2026-01-18_14h46.37.542,MST_task,2024.2.0,59.836884650338014,2026-01-18 14h47.29.221363 +0530,
,Scenes\044a.jpg,62,0,63,,,,,None,,,j,1.7853571000159718,None,,,,63,0,62,1192.5661739999778,,,,,,,,,,,,,,,,,,,,,,,,,,,,,,1192.5499472999945,1192.5661739999778,1193.0667797999922,1193.0499041999574,,,,,,,,,,,,,,,,,,,,,,1193.0573271999601,1193.0667797999922,1193.0667797999922,1193.0667797999922,1196.066117499955,1196.066117499955,1196.066117499955,1196.0501577999676,None,,,1196.0501996999956,1197.8667779999669,j,1196.066117499955,1196.066117499955,1.7853571000159718,None,,,,,,,,,,00050,001,2026-01-18_14h46.37.542,MST_task,2024.2.0,59.836884650338014,2026-01-18 14h47.29.221363 +0530,
,Objects\027a.jpg,63,0,64,,,,,f,2.4762190000037663,0.20782800001325086,None,,,,,,64,0,63,1197.8826960999868,,,,,,,,,,,,,,,,,,,,,,,,,,,,,,1197.866870799975,1197.8826960999868,1198.3832143999753,1198.3664042999735,,,,,,,,,,,,,,,,,,,,,,1198.3719390999759,1198.3832143999753,1198.3832143999753,1198.3832143999753,1201.382689799997,1201.382689799997,1201.382689799997,1201.3670001999708,f,2.4762190000037663,0.20782800001325086,1201.369044799998,1201.3690628999611,None,,,,,,,,,,,,,,00050,001,2026-01-18_14h46.37.542,MST_task,2024.2.0,59.836884650338014,2026-01-18 14h47.29.221363 +0530,
,Objects\069a.jpg,64,0,65,,,,,j,0.9203475000103936,0.1764604999916628,None,,,,,,65,0,64,1201.382689799997,,,,,,,,,,,,,,,,,,,,,,,,,,,,,,1201.3691324999672,1201.382689799997,1201.8830879000016,1201.8663941999548,,,,,,,,,,,,,,,,,,,,,,1201.876625099976,1201.8830879000016,1201.8830879000016,1201.8830879000016,1204.882627999992,1204.882627999992,1204.882627999992,1204.8667586999945,j,0.9203475000103936,0.1764604999916628,1204.8668031999841,1204.866816899972,None,,,,,,,,,,,,,,00050,001,2026-01-18_14h46.37.542,MST_task,2024.2.0,59.836884650338014,2026-01-18 14h47.29.221363 +0530,
,Objects\050a.jpg,65,0,66,,,,,f,1.5728832999593578,0.13594890001695603,None,,,,,,66,0,65,1204.882627999992,,,,,,,,,,,,,,,,,,,,,,,,,,,,,,1204.8669165999745,1204.882627999992,1205.3828658999992,1205.3664307,,,,,,,,,,,,,,,,,,,,,,1205.3693694999674,1205.3828658999992,1205.3828658999992,1205.3828658999992,1208.3827260999824,1208.3827260999824,1208.3827260999824,1208.367123199976,f,1.5728832999593578,0.13594890001695603,1208.3671633999911,1208.3671733999508,None,,,,,,,,,,,,,,00050,001,2026-01-18_14h46.37.542,MST_task,2024.2.0,59.836884650338014,2026-01-18 14h47.29.221363 +0530,
,Objects\016a.jpg,66,0,67,,,,,f,0.7938404000014998,0.16759960004128516,None,,,,,,67,0,66,1208.3827260999824,,,,,,,,,,,,,,,,,,,,,,,,,,,,,,1208.3672380999778,1208.3827260999824,1208.8829802999971,1208.8664714999613,,,,,,,,,,,,,,,,,,,,,,1208.8694626999786,1208.8829802999971,1208.8829802999971,1208.8829802999971,1211.8827935999725,1211.8827935999725,1211.8827935999725,1211.8665982999955,f,0.7938404000014998,0.16759960004128516,1211.8666414999752,1211.8666521999985,None,,,,,,,,,,,,,,00050,001,2026-01-18_14h46.37.542,MST_task,2024.2.0,59.836884650338014,2026-01-18 14h47.29.221363 +0530,
,Objects\163a.jpg,67,0,68,,,,,None,,,j,0.10894140001619235,None,,,,68,0,67,1211.8827935999725,,,,,,,,,,,,,,,,,,,,,,,,,,,,,,1211.8667527999496,1211.8827935999725,1212.3829502000008,1212.3666043999838,,,,,,,,,,,,,,,,,,,,,,1212.370059399982,1212.3829502000008,1212.3829502000008,1212.3829502000008,1215.3827261999832,1215.3827261999832,1215.3827261999832,1215.36674019997,None,,,1215.3667771999608,1215.4999536999967,j,1215.3827261999832,1215.3827261999832,0.10894140001619235,None,,,,,,,,,,00050,001,2026-01-18_14h46.37.542,MST_task,2024.2.0,59.836884650338014,2026-01-18 14h47.29.221363 +0530,
,Objects\081a.jpg,68,0,69,,,,,f,1.7398236999870278,0.19199479999952018,None,,,,,,69,0,68,1215.5161863999674,,,,,,,,,,,,,,,,,,,,,,,,,,,,,,1215.5000374999945,1215.5161863999674,1216.016366099997,1215.999690799974,,,,,,,,,,,,,,,,,,,,,,1216.0028979000053,1216.016366099997,1216.016366099997,1216.016366099997,1219.016254999966,1219.016254999966,1219.016254999966,1219.0003362999996,f,1.7398236999870278,0.19199479999952018,1219.000385799969,1219.000397099997,None,,,,,,,,,,,,,,00050,001,2026-01-18_14h46.37.542,MST_task,2024.2.0,59.836884650338014,2026-01-18 14h47.29.221363 +0530,
,Objects\130a.jpg,69,0,70,,,,,f,2.8234660000307485,0.1280038999975659,None,,,,,,70,0,69,1219.016254999966,,,,,,,,,,,,,,,,,,,,,,,,,,,,,,1219.00046499999,1219.016254999966,1219.5163761999574,1219.4997587999678,,,,,,,,,,,,,,,,,,,,,,1219.5031970999553,1219.5163761999574,1219.5163761999574,1219.5163761999574,1222.5161273999838,1222.5161273999838,1222.5161273999838,1222.5001336999703,f,2.8234660000307485,0.1280038999975659,1222.5001757999999,1222.5001861999626,None,,,,,,,,,,,,,,00050,001,2026-01-18_14h46.37.542,MST_task,2024.2.0,59.836884650338014,2026-01-18 14h47.29.221363 +0530,
,Scenes\012a.jpg,70,0,71,,,,,j,0.6988845000159927,0.1437654999899678,None,,,,,,71,0,70,1222.5161273999838,,,,,,,,,,,,,,,,,,,,,,,,,,,,,,1222.500251999998,1222.5161273999838,1223.0166731999489,1222.9997957999585,,,,,,,,,,,,,,,,,,,,,,1223.0131099999999,1223.0166731999489,1223.0166731999489,1223.0166731999489,1226.0162045999896,1226.0162045999896,1226.0162045999896,1226.0001187999733,j,0.6988845000159927,0.1437654999899678,1226.002095899952,1226.0021128999651,None,,,,,,,,,,,,,,00050,001,2026-01-18_14h46.37.542,MST_task,2024.2.0,59.836884650338014,2026-01-18 14h47.29.221363 +0530,
,Scenes\106a.jpg,71,0,72,,,,,j,0.7508333000005223,0.1284612999879755,None,,,,,,72,0,71,1226.0162045999896,,,,,,,,,,,,,,,,,,,,,,,,,,,,,,1226.0022151999874,1226.0162045999896,1226.516796699958,1226.4997851999942,,,,,,,,,,,,,,,,,,,,,,1226.5106601999723,1226.516796699958,1226.516796699958,1226.516796699958,1229.5162121999892,1229.5162121999892,1229.5162121999892,1229.5000399999553,j,0.7508333000005223,0.1284612999879755,1229.5000844000024,1229.500095299969,None,,,,,,,,,,,,,,00050,001,2026-01-18_14h46.37.542,MST_task,2024.2.0,59.836884650338014,2026-01-18 14h47.29.221363 +0530,
,Scenes\159a.jpg,72,0,73,,,,,j,0.9149379999726079,0.18502279999665916,None,,,,,,73,0,72,1229.5162121999892,,,,,,,,,,,,,,,,,,,,,,,,,,,,,,1229.5001946999691,1229.5162121999892,1230.0168133999687,1229.9998284999747,,,,,,,,,,,,,,,,,,,,,,1230.0122007000027,1230.0168133999687,1230.0168133999687,1230.0168133999687,1233.0161909000017,1233.0161909000017,1233.0161909000017,1233.0000091999536,j,0.9149379999726079,0.18502279999665916,1233.000051399984,1233.0000619000057,None,,,,,,,,,,,,,,00050,001,2026-01-18_14h46.37.542,MST_task,2024.2.0,59.836884650338014,2026-01-18 14h47.29.221363 +0530,
,Scenes\049a.jpg,73,0,74,,,,,j,0.9987488000188023,0.13624520000303164,None,,,,,,74,0,73,1233.0161909000017,,,,,,,,,,,,,,,,,,,,,,,,,,,,,,1233.0001571999746,1233.0161909000017,1233.516744899971,1233.4997053999687,,,,,,,,,,,,,,,,,,,,,,1233.5137362999958,1233.516744899971,1233.516744899971,1233.516744899971,1236.516242999991,1236.516242999991,1236.516242999991,1236.5002032999764,j,0.9987488000188023,0.13624520000303164,1236.5002488999744,1236.500259499997,None,,,,,,,,,,,,,,00050,001,2026-01-18_14h46.37.542,MST_task,2024.2.0,59.836884650338014,2026-01-18 14h47.29.221363 +0530,
,Scenes\165a.jpg,74,0,75,,,,,j,1.4349330000113696,0.16800619999412447,None,,,,,,75,0,74,1236.516242999991,,,,,,,,,,,,,,,,,,,,,,,,,,,,,,1236.5003637999762,1236.516242999991,1237.0168522999738,1236.9997692999896,,,,,,,,,,,,,,,,,,,,,,1237.0105190000031,1237.0168522999738,1237.0168522999738,1237.0168522999738,1240.016214400006,1240.016214400006,1240.016214400006,1240.0000843000016,j,1.4349330000113696,0.16800619999412447,1240.0001256999676,1240.0001362999901,None,,,,,,,,,,,,,,00050,001,2026-01-18_14h46.37.542,MST_task,2024.2.0,59.836884650338014,2026-01-18 14h47.29.221363 +0530,
,Scenes\137a.jpg,75,0,76,,,,,j,0.5753536999691278,0.16760179999982938,None,,,,,,76,0,75,1240.016214400006,,,,,,,,,,,,,,,,,,,,,,,,,,,,,,1240.0002066000015,1240.016214400006,1240.5168318999931,1240.4997932999977,,,,,,,,,,,,,,,,,,,,,,1240.5064963999903,1240.5168318999931,1240.5168318999931,1240.5168318999931,1243.5161382999504,1243.5161382999504,1243.5161382999504,1243.5002472999622,j,0.5753536999691278,0.16760179999982938,1243.5002905000001,1243.500300899963,None,,,,,,,,,,,,,,00050,001,2026-01-18_14h46.37.542,MST_task,2024.2.0,59.836884650338014,2026-01-18 14h47.29.221363 +0530,
,Scenes\006a.jpg,76,0,77,,,,,None,,,f,0.6048958000028506,None,,,,77,0,76,1243.5161382999504,,,,,,,,,,,,,,,,,,,,,,,,,,,,,,1243.5003985999501,1243.5161382999504,1244.0166908999672,1244.0002989999484,,,,,,,,,,,,,,,,,,,,,,1244.007218499959,1244.0166908999672,1244.0166908999672,1244.0166908999672,1247.0162741999957,1247.0162741999957,1247.0162741999957,1247.0001815999858,None,,,1247.0002171999658,1247.6333608999848,f,1247.0162741999957,1247.0162741999957,0.6048958000028506,None,,,,,,,,,,00050,001,2026-01-18_14h46.37.542,MST_task,2024.2.0,59.836884650338014,2026-01-18 14h47.29.221363 +0530,
,Objects\104a.jpg,77,0,78,,,,,f,1.4696546999621205,0.15143790002912283,None,,,,,,78,0,77,1247.64951009996,,,,,,,,,,,,,,,,,,,,,,,,,,,,,,1247.6334506999701,1247.64951009996,1248.1501012999797,1248.1332177000004,,,,,,,,,,,,,,,,,,,,,,1248.139093099977,1248.1501012999797,1248.1501012999797,1248.1501012999797,1251.1495996000012,1251.1495996000012,1251.1495996000012,1251.133350899967,f,1.4696546999621205,0.15143790002912283,1251.1355327999918,1251.135550899955,None,,,,,,,,,,,,,,00050,001,2026-01-18_14h46.37.542,MST_task,2024.2.0,59.836884650338014,2026-01-18 14h47.29.221363 +0530,
,Objects\114a.jpg,78,0,79,,,,,f,1.2500496999709867,0.17531620000954717,None,,,,,,79,0,78,1251.1495996000012,,,,,,,,,,,,,,,,,,,,,,,,,,,,,,1251.1356588999624,1251.1495996000012,1251.6498655999894,1251.6332850999897,,,,,,,,,,,,,,,,,,,,,,1251.636302399973,1251.6498655999894,1251.6498655999894,1251.6498655999894,1254.6496688000043,1254.6496688000043,1254.6496688000043,1254.6334399000043,f,1.2500496999709867,0.17531620000954717,1254.6334820999764,1254.633493100002,None,,,,,,,,,,,,,,00050,001,2026-01-18_14h46.37.542,MST_task,2024.2.0,59.836884650338014,2026-01-18 14h47.29.221363 +0530,
,Objects\084a.jpg,79,0,80,,,,,j,1.4775536000379361,0.16799859999446198,None,,,,,,80,0,79,1254.6496688000043,,,,,,,,,,,,,,,,,,,,,,,,,,,,,,1254.633559399983,1254.6496688000043,1255.1498991999542,1255.133174299961,,,,,,,,,,,,,,,,,,,,,,1255.1365115999943,1255.1498991999542,1255.1498991999542,1255.1498991999542,1258.1495624999516,1258.1495624999516,1258.1495624999516,1258.1336287999875,j,1.4775536000379361,0.16799859999446198,1258.1336734999786,1258.133684600005,None,,,,,,,,,,,,,,00050,001,2026-01-18_14h46.37.542,MST_task,2024.2.0,59.836884650338014,2026-01-18 14h47.29.221363 +0530,
,Objects\121a.jpg,80,0,81,,,,,None,,,f,0.43382289999863133,None,,,,81,0,80,1258.1495624999516,,,,,,,,,,,,,,,,,,,,,,,,,,,,,,1258.1337900999933,1258.1495624999516,1258.64985539997,1258.6331362999626,,,,,,,,,,,,,,,,,,,,,,1258.6433341999655,1258.64985539997,1258.64985539997,1258.64985539997,1261.6496443999931,1261.6496443999931,1261.6496443999931,1261.6336714999634,None,,,1261.6337085999548,1262.1001862999983,f,1261.6496443999931,1261.6496443999931,0.43382289999863133,None,,,,,,,,,,00050,001,2026-01-18_14h46.37.542,MST_task,2024.2.0,59.836884650338014,2026-01-18 14h47.29.221363 +0530,
,Objects\010a.jpg,81,0,82,,,,,j,1.514722799998708,0.1764471000060439,None,,,,,,82,0,81,1262.1163051999756,,,,,,,,,,,,,,,,,,,,,,,,,,,,,,1262.100271000003,1262.1163051999756,1262.6165359999868,1262.5998781999806,,,,,,,,,,,,,,,,,,,,,,1262.6028144999873,1262.6165359999868,1262.6165359999868,1262.6165359999868,1265.6161826999742,1265.6161826999742,1265.6161826999742,1265.6002495999564,j,1.514722799998708,0.1764471000060439,1265.6002952999552,1265.600306599983,None,,,,,,,,,,,,,,00050,001,2026-01-18_14h46.37.542,MST_task,2024.2.0,59.836884650338014,2026-01-18 14h47.29.221363 +0530,
,Objects\125a.jpg,82,0,83,,,,,j,0.9587742000003345,0.1680099000222981,None,,,,,,83,0,82,1265.6161826999742,,,,,,,,,,,,,,,,,,,,,,,,,,,,,,1265.6003750999807,1265.6161826999742,1266.1164501999738,1266.100029299967,,,,,,,,,,,,,,,,,,,,,,1266.1028405999532,1266.1164501999738,1266.1164501999738,1266.1164501999738,1269.1163942999556,1269.1163942999556,1269.1163942999556,1269.100186399999,j,0.9587742000003345,0.1680099000222981,1269.1002271999605,1269.1002417999553,None,,,,,,,,,,,,,,00050,001,2026-01-18_14h46.37.542,MST_task,2024.2.0,59.836884650338014,2026-01-18 14h47.29.221363 +0530,
,Objects\018a.jpg,83,0,84,,,,,j,2.9394888000097126,None,None,,,,,,84,0,83,1269.1163942999556,,,,,,,,,,,,,,,,,,,,,,,,,,,,,,1269.1003374999855,1269.1163942999556,1269.6164709999575,1269.5998466999736,,,,,,,,,,,,,,,,,,,,,,1269.6030996000045,1269.6164709999575,1269.6164709999575,1269.6164709999575,1272.6161579999607,1272.6161579999607,1272.6161579999607,1272.6001141999732,j,2.9394888000097126,None,1272.6001547999913,1272.6001650999533,None,,,,,,,,,,,,,,00050,001,2026-01-18_14h46.37.542,MST_task,2024.2.0,59.836884650338014,2026-01-18 14h47.29.221363 +0530,
,Scenes\025a.jpg,84,0,85,,,,,j,0.6305311999749392,0.0891579000162892,None,,,,,,85,0,84,1272.6161579999607,,,,,,,,,,,,,,,,,,,,,,,,,,,,,,1272.6002281999681,1272.6161579999607,1273.1167479999713,1273.0998230999685,,,,,,,,,,,,,,,,,,,,,,1273.113573599956,1273.1167479999713,1273.1167479999713,1273.1167479999713,1276.1162135999766,1276.1162135999766,1276.1162135999766,1276.1001435999642,j,0.6305311999749392,0.0891579000162892,1276.1017627999536,1276.1017805999727,None,,,,,,,,,,,,,,00050,001,2026-01-18_14h46.37.542,MST_task,2024.2.0,59.836884650338014,2026-01-18 14h47.29.221363 +0530,
,Scenes\070a.jpg,85,0,86,,,,,f,2.3066351000452414,0.1999985000002198,None,,,,,,86,0,85,1276.1162135999766,,,,,,,,,,,,,,,,,,,,,,,,,,,,,,1276.1018490999704,1276.1162135999766,1276.6168394999695,1276.5997385999653,,,,,,,,,,,,,,,,,,,,,,1276.6106372999493,1276.6168394999695,1276.6168394999695,1276.6168394999695,1279.616164899955,1279.616164899955,1279.616164899955,1279.6000865999958,f,2.3066351000452414,0.1999985000002198,1279.600126699952,1279.6001371999737,None,,,,,,,,,,,,,,00050,001,2026-01-18_14h46.37.542,MST_task,2024.2.0,59.836884650338014,2026-01-18 14h47.29.221363 +0530,
,Scenes\004a.jpg,86,0,87,,,,,j,0.9111666999524459,0.1520310000050813,None,,,,,,87,0,86,1279.616164899955,,,,,,,,,,,,,,,,,,,,,,,,,,,,,,1279.6002336999518,1279.616164899955,1280.116861699964,1280.1000328999944,,,,,,,,,,,,,,,,,,,,,,1280.1113740999717,1280.116861699964,1280.116861699964,1280.116861699964,1283.1161463999888,1283.1161463999888,1283.1161463999888,1283.1001338999486,j,0.9111666999524459,0.1520310000050813,1283.1001732999575,1283.1001833999762,None,,,,,,,,,,,,,,00050,001,2026-01-18_14h46.37.542,MST_task,2024.2.0,59.836884650338014,2026-01-18 14h47.29.221363 +0530,
,Scenes\143a.jpg,87,0,88,,,,,j,1.1148604999762028,0.11199950001901016,None,,,,,,88,0,87,1283.1161463999888,,,,,,,,,,,,,,,,,,,,,,,,,,,,,,1283.1002781999996,1283.1161463999888,1283.6168461999623,1283.5997893000022,,,,,,,,,,,,,,,,,,,,,,1283.6102391000022,1283.6168461999623,1283.6168461999623,1283.6168461999623,1286.6163516999804,1286.6163516999804,1286.6163516999804,1286.600148700003,j,1.1148604999762028,0.11199950001901016,1286.6001936999965,1286.6002043999615,None,,,,,,,,,,,,,,00050,001,2026-01-18_14h46.37.542,MST_task,2024.2.0,59.836884650338014,2026-01-18 14h47.29.221363 +0530,
,Scenes\186a.jpg,88,0,89,,,,,j,2.4383176999981515,0.12005389999831095,None,,,,,,89,0,88,1286.6163516999804,,,,,,,,,,,,,,,,,,,,,,,,,,,,,,1286.6003077999922,1286.6163516999804,1287.1168445999501,1287.0997183999862,,,,,,,,,,,,,,,,,,,,,,1287.1072601999622,1287.1168445999501,1287.1168445999501,1287.1168445999501,1290.1162362999748,1290.1162362999748,1290.1162362999748,1290.1001241999911,j,2.4383176999981515,0.12005389999831095,1290.1001667999662,1290.1001773999888,None,,,,,,,,,,,,,,00050,001,2026-01-18_14h46.37.542,MST_task,2024.2.0,59.836884650338014,2026-01-18 14h47.29.221363 +0530,
,Scenes\076a.jpg,89,0,90,,,,,j,1.3063152999966405,0.11999929999001324,None,,,,,,90,0,89,1290.1162362999748,,,,,,,,,,,,,,,,,,,,,,,,,,,,,,1290.1002438999712,1290.1162362999748,1290.6169244999764,1290.6001093999948,,,,,,,,,,,,,,,,,,,,,,1290.6130639999756,1290.6169244999764,1290.6169244999764,1290.6169244999764,1293.6162143999827,1293.6162143999827,1293.6162143999827,1293.6001057999674,j,1.3063152999966405,0.11999929999001324,1293.6001470999909,1293.6001583999605,None,,,,,,,,,,,,,,00050,001,2026-01-18_14h46.37.542,MST_task,2024.2.0,59.836884650338014,2026-01-18 14h47.29.221363 +0530,
,Scenes\134a.jpg,90,0,91,,,,,j,1.175446200009901,0.19091469998238608,None,,,,,,91,0,90,1293.6162143999827,,,,,,,,,,,,,,,,,,,,,,,,,,,,,,1293.600257199956,1293.6162143999827,1294.1169651999953,1294.0997986999573,,,,,,,,,,,,,,,,,,,,,,1294.1105218000012,1294.1169651999953,1294.1169651999953,1294.1169651999953,1297.1161925999913,1297.1161925999913,1297.1161925999913,1297.1000986999716,j,1.175446200009901,0.19091469998238608,1297.100141599949,1297.1001520999707,None,,,,,,,,,,,,,,00050,001,2026-01-18_14h46.37.542,MST_task,2024.2.0,59.836884650338014,2026-01-18 14h47.29.221363 +0530,
,Objects\190a.jpg,91,0,92,,,,,f,1.8915362000116147,0.16834239999298006,None,,,,,,92,0,91,1297.1161925999913,,,,,,,,,,,,,,,,,,,,,,,,,,,,,,1297.1002569999546,1297.1161925999913,1297.6166719999746,1297.5998032999923,,,,,,,,,,,,,,,,,,,,,,1297.605724199966,1297.6166719999746,1297.6166719999746,1297.6166719999746,1300.6161522999755,1300.6161522999755,1300.6161522999755,1300.6001404999988,f,1.8915362000116147,0.16834239999298006,1300.6022170999786,1300.6022339999909,None,,,,,,,,,,,,,,00050,001,2026-01-18_14h46.37.542,MST_task,2024.2.0,59.836884650338014,2026-01-18 14h47.29.221363 +0530,
,Objects\024a.jpg,92,0,93,,,,,f,1.7507005999796093,0.2321288000093773,None,,,,,,93,0,92,1300.6161522999755,,,,,,,,,,,,,,,,,,,,,,,,,,,,,,1300.6023030999932,1300.6161522999755,1301.1164546999498,1301.0997743000044,,,,,,,,,,,,,,,,,,,,,,1301.1032885999884,1301.1164546999498,1301.1164546999498,1301.1164546999498,1304.1162188999588,1304.1162188999588,1304.1162188999588,1304.1000994999777,f,1.7507005999796093,0.2321288000093773,1304.100141999952,1304.100152399973,None,,,,,,,,,,,,,,00050,001,2026-01-18_14h46.37.542,MST_task,2024.2.0,59.836884650338014,2026-01-18 14h47.29.221363 +0530,
,Objects\054a.jpg,93,0,94,,,,,j,2.1386885000392795,0.15304509998532012,None,,,,,,94,0,93,1304.1162188999588,,,,,,,,,,,,,,,,,,,,,,,,,,,,,,1304.100249399955,1304.1162188999588,1304.616456699965,1304.5998594999546,,,,,,,,,,,,,,,,,,,,,,1304.603171899973,1304.616456699965,1304.616456699965,1304.616456699965,1307.6162261999561,1307.6162261999561,1307.6162261999561,1307.6000373999705,j,2.1386885000392795,0.15304509998532012,1307.60007819999,1307.6000883999513,None,,,,,,,,,,,,,,00050,001,2026-01-18_14h46.37.542,MST_task,2024.2.0,59.836884650338014,2026-01-18 14h47.29.221363 +0530,
,Objects\164a.jpg,94,0,95,,,,,f,2.727656700008083,0.19197799998801202,None,,,,,,95,0,94,1307.6162261999561,,,,,,,,,,,,,,,,,,,,,,,,,,,,,,1307.600184299983,1307.6162261999561,1308.1165028999676,1308.0998359999503,,,,,,,,,,,,,,,,,,,,,,1308.1032018999686,1308.1165028999676,1308.1165028999676,1308.1165028999676,1311.1162331999512,1311.1162331999512,1311.1162331999512,1311.1003054999746,f,2.727656700008083,0.19197799998801202,1311.1003510999726,1311.1003618999966,None,,,,,,,,,,,,,,00050,001,2026-01-18_14h46.37.542,MST_task,2024.2.0,59.836884650338014,2026-01-18 14h47.29.221363 +0530,
,Objects\014a.jpg,95,0,96,,,,,f,0.8353353999555111,0.15218500001356006,None,,,,,,96,0,95,1311.1162331999512,,,,,,,,,,,,,,,,,,,,,,,,,,,,,,1311.1004704999505,1311.1162331999512,1311.61655409995,1311.5999180999934,,,,,,,,,,,,,,,,,,,,,,1311.6101339999586,1311.61655409995,1311.61655409995,1311.61655409995,1314.6162518999772,1314.6162518999772,1314.6162518999772,1314.6003634999506,f,0.8353353999555111,0.15218500001356006,1314.6004111999646,1314.6004221999901,None,,,,,,,,,,,,,,00050,001,2026-01-18_14h46.37.542,MST_task,2024.2.0,59.836884650338014,2026-01-18 14h47.29.221363 +0530,
,Objects\166a.jpg,96,0,97,,,,,f,1.0469332999782637,0.1853646999807097,None,,,,,,97,0,96,1314.6162518999772,,,,,,,,,,,,,,,,,,,,,,,,,,,,,,1314.6005323999561,1314.6162518999772,1315.116612999991,1315.099778099975,,,,,,,,,,,,,,,,,,,,,,1315.1095313999685,1315.116612999991,1315.116612999991,1315.116612999991,1318.1161561000044,1318.1161561000044,1318.1161561000044,1318.1002378999838,f,1.0469332999782637,0.1853646999807097,1318.100277599995,1318.1002877999563,None,,,,,,,,,,,,,,00050,001,2026-01-18_14h46.37.542,MST_task,2024.2.0,59.836884650338014,2026-01-18 14h47.29.221363 +0530,
,Objects\116a.jpg,97,0,98,,,,,f,2.202585100021679,0.18512019998161122,None,,,,,,98,0,97,1318.1161561000044,,,,,,,,,,,,,,,,,,,,,,,,,,,,,,1318.100383299985,1318.1161561000044,1318.616641199973,1318.5998121000011,,,,,,,,,,,,,,,,,,,,,,1318.6029284999822,1318.616641199973,1318.616641199973,1318.616641199973,1321.6162284999737,1321.6162284999737,1321.6162284999737,1321.6000333999982,f,2.202585100021679,0.18512019998161122,1321.600074899965,1321.600085699989,None,,,,,,,,,,,,,,00050,001,2026-01-18_14h46.37.542,MST_task,2024.2.0,59.836884650338014,2026-01-18 14h47.29.221363 +0530,
,Scenes\083a.jpg,98,0,99,,,,,j,0.8741986999521032,0.15197280002757907,None,,,,,,99,0,98,1321.6162284999737,,,,,,,,,,,,,,,,,,,,,,,,,,,,,,1321.6001811999595,1321.6162284999737,1322.121629799949,1322.0997630999773,,,,,,,,,,,,,,,,,,,,,,1322.1190649999771,1322.121629799949,1322.121629799949,1322.121629799949,,,,1325.116529699997,j,0.8741986999521032,0.15197280002757907,1325.1182176999864,1325.1182359999511,None,,,,,,,,,,,,,,00050,001,2026-01-18_14h46.37.542,MST_task,2024.2.0,59.836884650338014,2026-01-18 14h47.29.221363 +0530,
,Scenes\047a.jpg,99,0,100,,,,,j,0.958418200025335,0.14397909998660907,None,,,,,,100,0,99,1325.1327350999927,,,,,,,,,,,,,,,,,,,,,,,,,,,,,,1325.1183382999734,1325.1327350999927,1325.6376370999496,1325.6165939999628,,,,,,,,,,,,,,,,,,,,,,1325.6353231999674,1325.6376370999496,1325.6376370999496,1325.6376370999496,,,,1328.6330879000016,j,0.958418200025335,0.14397909998660907,1328.6331306999782,1328.6331422999501,None,,,,,,,,,,,,,,00050,001,2026-01-18_14h46.37.542,MST_task,2024.2.0,59.836884650338014,2026-01-18 14h47.29.221363 +0530,
,Scenes\192a.jpg,100,0,101,,,,,j,2.037841000012122,0.11174329998902977,None,,,,,,101,0,100,1328.649486499955,,,,,,,,,,,,,,,,,,,,,,,,,,,,,,1328.6332388999872,1328.649486499955,1329.1501071999664,1329.1330303999712,,,,,,,,,,,,,,,,,,,,,,1329.1475785999792,1329.1501071999664,1329.1501071999664,1329.1501071999664,1332.1495672999881,1332.1495672999881,1332.1495672999881,1332.1337233999511,j,2.037841000012122,0.11174329998902977,1332.1337688999483,1332.1337803999777,None,,,,,,,,,,,,,,00050,001,2026-01-18_14h46.37.542,MST_task,2024.2.0,59.836884650338014,2026-01-18 14h47.29.221363 +0530,
,Scenes\026a.jpg,101,0,102,,,,,j,1.0691156999673694,0.12002310005482286,None,,,,,,102,0,101,1332.1495672999881,,,,,,,,,,,,,,,,,,,,,,,,,,,,,,1332.1338468999602,1332.1495672999881,1332.6541229999857,1332.633132899995,,,,,,,,,,,,,,,,,,,,,,1332.6517534999875,1332.6541229999857,1332.6541229999857,1332.6541229999857,,,,1335.6498483999749,j,1.0691156999673694,0.12002310005482286,1335.6499356999993,1335.6499520999496,None,,,,,,,,,,,,,,00050,001,2026-01-18_14h46.37.542,MST_task,2024.2.0,59.836884650338014,2026-01-18 14h47.29.221363 +0530,
,Scenes\032a.jpg,102,0,103,,,,,j,1.1976285999990068,0.1269002000335604,None,,,,,,103,0,102,1335.666163499991,,,,,,,,,,,,,,,,,,,,,,,,,,,,,,1335.6500413999893,1335.666163499991,1336.166776500002,1336.1498763999552,,,,,,,,,,,,,,,,,,,,,,1336.161994199967,1336.166776500002,1336.166776500002,1336.166776500002,1339.1662496000063,1339.1662496000063,1339.1662496000063,1339.1501809000038,j,1.1976285999990068,0.1269002000335604,1339.150222599972,1339.1502331999945,None,,,,,,,,,,,,,,00050,001,2026-01-18_14h46.37.542,MST_task,2024.2.0,59.836884650338014,2026-01-18 14h47.29.221363 +0530,
,Scenes\158a.jpg,103,0,104,,,,,j,1.2010186999686994,0.1519797000219114,None,,,,,,104,0,103,1339.1662496000063,,,,,,,,,,,,,,,,,,,,,,,,,,,,,,1339.1502978999633,1339.1662496000063,1339.6668819999904,1339.6498047999921,,,,,,,,,,,,,,,,,,,,,,1339.6612566999975,1339.6668819999904,1339.6668819999904,1339.6668819999904,1342.6662005999824,1342.6662005999824,1342.6662005999824,1342.650318400003,j,1.2010186999686994,0.1519797000219114,1342.650364699948,1342.650375599973,None,,,,,,,,,,,,,,00050,001,2026-01-18_14h46.37.542,MST_task,2024.2.0,59.836884650338014,2026-01-18 14h47.29.221363 +0530,
,Scenes\052a.jpg,104,0,105,,,,,j,1.1325601999997161,0.1519319000071846,None,,,,,,105,0,104,1342.6662005999824,,,,,,,,,,,,,,,,,,,,,,,,,,,,,,1342.6504440999706,1342.6662005999824,1343.166761899949,1343.1498343999847,,,,,,,,,,,,,,,,,,,,,,1343.1586190999951,1343.166761899949,1343.166761899949,1343.166761899949,1346.1662379999761,1346.1662379999761,1346.1662379999761,1346.1501397999818,j,1.1325601999997161,0.1519319000071846,1346.1501806000015,1346.1501915999688,None,,,,,,,,,,,,,,00050,001,2026-01-18_14h46.37.542,MST_task,2024.2.0,59.836884650338014,2026-01-18 14h47.29.221363 +0530,
,Objects\021a.jpg,105,0,106,,,,,f,1.4812320999917574,0.12799880001693964,None,,,,,,106,0,105,1346.1662379999761,,,,,,,,,,,,,,,,,,,,,,,,,,,,,,1346.15026819997,1346.1662379999761,1346.6666961999726,1346.6497341999784,,,,,,,,,,,,,,,,,,,,,,1346.6633081999607,1346.6666961999726,1346.6666961999726,1346.6666961999726,1349.6661653000046,1349.6661653000046,1349.6661653000046,1349.6501995999715,f,1.4812320999917574,0.12799880001693964,1349.6525988999638,1349.6526163999806,None,,,,,,,,,,,,,,00050,001,2026-01-18_14h46.37.542,MST_task,2024.2.0,59.836884650338014,2026-01-18 14h47.29.221363 +0530,
,Objects\095a.jpg,106,0,107,,,,,f,0.7174408999853767,0.18428829999174923,None,,,,,,107,0,106,1349.6661653000046,,,,,,,,,,,,,,,,,,,,,,,,,,,,,,1349.6526855999837,1349.6661653000046,1350.1665408999543,1350.1498585999943,,,,,,,,,,,,,,,,,,,,,,1350.1601255999994,1350.1665408999543,1350.1665408999543,1350.1665408999543,1353.1662278999574,1353.1662278999574,1353.1662278999574,1353.150251199957,f,0.7174408999853767,0.18428829999174923,1353.1502921999781,1353.1503024999984,None,,,,,,,,,,,,,,00050,001,2026-01-18_14h46.37.542,MST_task,2024.2.0,59.836884650338014,2026-01-18 14h47.29.221363 +0530,
,Objects\146a.jpg,107,0,108,,,,,f,1.113422000024002,0.16012459999183193,None,,,,,,108,0,107,1353.1662278999574,,,,,,,,,,,,,,,,,,,,,,,,,,,,,,1353.1504000999848,1353.1662278999574,1353.6664673999767,1353.649817299971,,,,,,,,,,,,,,,,,,,,,,1353.6596007999615,1353.6664673999767,1353.6664673999767,1353.6664673999767,1356.6662260000012,1356.6662260000012,1356.6662260000012,1356.6501817999524,f,1.113422000024002,0.16012459999183193,1356.6502216999652,1356.6502323999885,None,,,,,,,,,,,,,,00050,001,2026-01-18_14h46.37.542,MST_task,2024.2.0,59.836884650338014,2026-01-18 14h47.29.221363 +0530,
,Objects\064a.jpg,108,0,109,,,,,f,0.9572184999706224,0.17604700004449114,None,,,,,,109,0,108,1356.6662260000012,,,,,,,,,,,,,,,,,,,,,,,,,,,,,,1356.6502969999565,1356.6662260000012,1357.1664467999944,1357.1498086999636,,,,,,,,,,,,,,,,,,,,,,1357.1530711999512,1357.1664467999944,1357.1664467999944,1357.1664467999944,1360.166385199991,1360.166385199991,1360.166385199991,1360.1502090999857,f,0.9572184999706224,0.17604700004449114,1360.1502541999798,1360.1502654999495,None,,,,,,,,,,,,,,00050,001,2026-01-18_14h46.37.542,MST_task,2024.2.0,59.836884650338014,2026-01-18 14h47.29.221363 +0530,
,Objects\022a.jpg,109,0,110,,,,,f,1.2167877000174485,0.16897450003307313,None,,,,,,110,0,109,1360.166385199991,,,,,,,,,,,,,,,,,,,,,,,,,,,,,,1360.1503739999607,1360.166385199991,1360.6664789999486,1360.6498472999665,,,,,,,,,,,,,,,,,,,,,,1360.6612262999988,1360.6664789999486,1360.6664789999486,1360.6664789999486,1363.6661825999618,1363.6661825999618,1363.6661825999618,1363.6501137999585,f,1.2167877000174485,0.16897450003307313,1363.6501543999766,1363.6501652000006,None,,,,,,,,,,,,,,00050,001,2026-01-18_14h46.37.542,MST_task,2024.2.0,59.836884650338014,2026-01-18 14h47.29.221363 +0530,
,Objects\192a.jpg,110,0,111,,,,,f,1.004872300021816,0.1451849999721162,None,,,,,,111,0,110,1363.6661825999618,,,,,,,,,,,,,,,,,,,,,,,,,,,,,,1363.6502303999732,1363.6661825999618,1364.1664617999922,1364.149829300004,,,,,,,,,,,,,,,,,,,,,,1364.1529398999992,1364.1664617999922,1364.1664617999922,1364.1664617999922,1367.166311399953,1367.166311399953,1367.166311399953,1367.1503003999824,f,1.004872300021816,0.1451849999721162,1367.150345299975,1367.1503558999975,None,,,,,,,,,,,,,,00050,001,2026-01-18_14h46.37.542,MST_task,2024.2.0,59.836884650338014,2026-01-18 14h47.29.221363 +0530,
,Objects\120a.jpg,111,0,112,,,,,f,0.8887867000303231,0.1839936000178568,None,,,,,,112,0,111,1367.166311399953,,,,,,,,,,,,,,,,,,,,,,,,,,,,,,1367.150431099988,1367.166311399953,1367.6664797999547,1367.6499356999993,,,,,,,,,,,,,,,,,,,,,,1367.6528281999636,1367.6664797999547,1367.6664797999547,1367.6664797999547,1370.6663336000056,1370.6663336000056,1370.6663336000056,1370.6501310999738,f,0.8887867000303231,0.1839936000178568,1370.6501712999889,1370.6501815999509,None,,,,,,,,,,,,,,00050,001,2026-01-18_14h46.37.542,MST_task,2024.2.0,59.836884650338014,2026-01-18 14h47.29.221363 +0530,
,Scenes\183a.jpg,112,0,113,,,,,f,1.156832900014706,0.16118709999136627,None,,,,,,113,0,112,1370.6663336000056,,,,,,,,,,,,,,,,,,,,,,,,,,,,,,1370.6502471999847,1370.6663336000056,1371.166887499974,1371.149870299967,,,,,,,,,,,,,,,,,,,,,,1371.1615413999534,1371.166887499974,1371.166887499974,1371.166887499974,1374.1663668999681,1374.1663668999681,1374.1663668999681,1374.150238399976,f,1.156832900014706,0.16118709999136627,1374.1518788999529,1374.1518952999613,None,,,,,,,,,,,,,,00050,001,2026-01-18_14h46.37.542,MST_task,2024.2.0,59.836884650338014,2026-01-18 14h47.29.221363 +0530,
,Scenes\088a.jpg,113,0,114,,,,,j,1.3531233000103384,0.14347940002335235,None,,,,,,114,0,113,1374.1663668999681,,,,,,,,,,,,,,,,,,,,,,,,,,,,,,1374.151996999979,1374.1663668999681,1374.6669766999548,1374.6498428999912,,,,,,,,,,,,,,,,,,,,,,1374.664028099971,1374.6669766999548,1374.6669766999548,1374.6669766999548,1377.6663668999681,1377.6663668999681,1377.6663668999681,1377.6501764999703,j,1.3531233000103384,0.14347940002335235,1377.6502185999998,1377.650230099971,None,,,,,,,,,,,,,,00050,001,2026-01-18_14h46.37.542,MST_task,2024.2.0,59.836884650338014,2026-01-18 14h47.29.221363 +0530,
,Scenes\035a.jpg,114,0,115,,,,,j,1.5570041999453679,0.127997100003995,None,,,,,,115,0,114,1377.6663668999681,,,,,,,,,,,,,,,,,,,,,,,,,,,,,,1377.6503250999958,1377.6663668999681,1378.1669953999808,1378.14990629995,,,,,,,,,,,,,,,,,,,,,,1378.1600437999587,1378.1669953999808,1378.1669953999808,1378.1669953999808,1381.1663487000042,1381.1663487000042,1381.1663487000042,1381.1501216999604,j,1.5570041999453679,0.127997100003995,1381.1501638999907,1381.1501745999558,None,,,,,,,,,,,,,,00050,001,2026-01-18_14h46.37.542,MST_task,2024.2.0,59.836884650338014,2026-01-18 14h47.29.221363 +0530,
,Scenes\091a.jpg,115,0,116,,,,,j,1.8006959999911487,0.19207719998667017,None,,,,,,116,0,115,1381.1663487000042,,,,,,,,,,,,,,,,,,,,,,,,,,,,,,1381.150240899995,1381.1663487000042,1381.6668625999591,1381.6501946999924,,,,,,,,,,,,,,,,,,,,,,1381.6570159999537,1381.6668625999591,1381.6668625999591,1381.6668625999591,1384.666363700002,1384.666363700002,1384.666363700002,1384.6501667999546,j,1.8006959999911487,0.19207719998667017,1384.650208499981,1384.6502193000051,None,,,,,,,,,,,,,,00050,001,2026-01-18_14h46.37.542,MST_task,2024.2.0,59.836884650338014,2026-01-18 14h47.29.221363 +0530,
,Scenes\177a.jpg,116,0,117,,,,,j,0.6843081999686547,0.1610472000320442,None,,,,,,117,0,116,1384.666363700002,,,,,,,,,,,,,,,,,,,,,,,,,,,,,,1384.6503159999847,1384.666363700002,1385.167114199954,1385.1499970000004,,,,,,,,,,,,,,,,,,,,,,1385.1575719999964,1385.167114199954,1385.167114199954,1385.167114199954,1388.1663891999633,1388.1663891999633,1388.1663891999633,1388.1502499000053,j,0.6843081999686547,0.1610472000320442,1388.1502924999804,1388.1503030000022,None,,,,,,,,,,,,,,00050,001,2026-01-18_14h46.37.542,MST_task,2024.2.0,59.836884650338014,2026-01-18 14h47.29.221363 +0530,
,Scenes\168a.jpg,117,0,118,,,,,j,0.9203000999987125,0.14493000000948086,None,,,,,,118,0,117,1388.1663891999633,,,,,,,,,,,,,,,,,,,,,,,,,,,,,,1388.1503745999653,1388.1663891999633,1388.6668910000008,1388.6498990999535,,,,,,,,,,,,,,,,,,,,,,1388.6565635000006,1388.6668910000008,1388.6668910000008,1388.6668910000008,1391.66629069997,1391.66629069997,1391.66629069997,1391.6502367999637,j,0.9203000999987125,0.14493000000948086,1391.6502782999887,1391.6502887999522,None,,,,,,,,,,,,,,00050,001,2026-01-18_14h46.37.542,MST_task,2024.2.0,59.836884650338014,2026-01-18 14h47.29.221363 +0530,
,Scenes\138a.jpg,118,0,119,,,,,j,0.8215606000158004,0.15903300000354648,None,,,,,,119,0,118,1391.66629069997,,,,,,,,,,,,,,,,,,,,,,,,,,,,,,1391.6503537999815,1391.66629069997,1392.1667418999714,1392.1499561999808,,,,,,,,,,,,,,,,,,,,,,1392.1576615999802,1392.1667418999714,1392.1667418999714,1392.1667418999714,1395.1662648000056,1395.1662648000056,1395.1662648000056,1395.1502792999963,j,0.8215606000158004,0.15903300000354648,1395.1503193999524,1395.1503298999742,None,,,,,,,,,,,,,,00050,001,2026-01-18_14h46.37.542,MST_task,2024.2.0,59.836884650338014,2026-01-18 14h47.29.221363 +0530,
,Objects\096a.jpg,119,0,120,,,,,j,0.777489899948705,0.14301980001619086,None,,,,,,120,0,119,1395.1662648000056,,,,,,,,,,,,,,,,,,,,,,,,,,,,,,1395.150426899956,1395.1662648000056,1395.6667426999775,1395.6499333999818,,,,,,,,,,,,,,,,,,,,,,1395.6626827999717,1395.6667426999775,1395.6667426999775,1395.6667426999775,1398.666242999956,1398.666242999956,1398.666242999956,1398.650244999968,j,0.777489899948705,0.14301980001619086,1398.6523519000039,1398.6523693999625,None,,,,,,,,,,,,,,00050,001,2026-01-18_14h46.37.542,MST_task,2024.2.0,59.836884650338014,2026-01-18 14h47.29.221363 +0530,
,Objects\178a.jpg,120,0,121,,,,,f,1.125514299958013,0.1830937000340782,None,,,,,,121,0,120,1398.666242999956,,,,,,,,,,,,,,,,,,,,,,,,,,,,,,1398.6524389999686,1398.666242999956,1399.1666047999752,1399.1498291000025,,,,,,,,,,,,,,,,,,,,,,1399.1600318999845,1399.1666047999752,1399.1666047999752,1399.1666047999752,1402.16635819996,1402.16635819996,1402.16635819996,1402.150152999966,f,1.125514299958013,0.1830937000340782,1402.1501955999993,1402.1502062999643,None,,,,,,,,,,,,,,00050,001,2026-01-18_14h46.37.542,MST_task,2024.2.0,59.836884650338014,2026-01-18 14h47.29.221363 +0530,
,Objects\019a.jpg,121,0,122,,,,,f,1.8411771000246517,0.15202330000465736,None,,,,,,122,0,121,1402.16635819996,,,,,,,,,,,,,,,,,,,,,,,,,,,,,,1402.1502786999918,1402.16635819996,1402.6665983999847,1402.6498944999767,,,,,,,,,,,,,,,,,,,,,,1402.6532654999755,1402.6665983999847,1402.6665983999847,1402.6665983999847,1405.6663518999703,1405.6663518999703,1405.6663518999703,1405.6500955999945,f,1.8411771000246517,0.15202330000465736,1405.6501400999841,1405.650150500005,None,,,,,,,,,,,,,,00050,001,2026-01-18_14h46.37.542,MST_task,2024.2.0,59.836884650338014,2026-01-18 14h47.29.221363 +0530,
,Objects\162a.jpg,122,0,123,,,,,f,2.5086849000072107,0.1765386999468319,None,,,,,,123,0,122,1405.6663518999703,,,,,,,,,,,,,,,,,,,,,,,,,,,,,,1405.6502149999724,1405.6663518999703,1406.16658249998,1406.149897299998,,,,,,,,,,,,,,,,,,,,,,1406.1596082999604,1406.16658249998,1406.16658249998,1406.16658249998,1409.1663544999901,1409.1663544999901,1409.1663544999901,1409.1502171999891,f,2.5086849000072107,0.1765386999468319,1409.150259499962,1409.150270299986,None,,,,,,,,,,,,,,00050,001,2026-01-18_14h46.37.542,MST_task,2024.2.0,59.836884650338014,2026-01-18 14h47.29.221363 +0530,
,Objects\046a.jpg,123,0,124,,,,,f,2.313315599982161,0.2157411000225693,None,,,,,,124,0,123,1409.1663544999901,,,,,,,,,,,,,,,,,,,,,,,,,,,,,,1409.1503417000058,1409.1663544999901,1409.6664851999958,1409.6499256999814,,,,,,,,,,,,,,,,,,,,,,1409.6529907999793,1409.6664851999958,1409.6664851999958,1409.6664851999958,1412.6663667999674,1412.6663667999674,1412.6663667999674,1412.6501751999604,f,2.313315599982161,0.2157411000225693,1412.6502165999846,1412.6502273999504,None,,,,,,,,,,,,,,00050,001,2026-01-18_14h46.37.542,MST_task,2024.2.0,59.836884650338014,2026-01-18 14h47.29.221363 +0530,
,Objects\030a.jpg,124,0,125,,,,,f,0.7647487000213005,0.16883889999007806,None,,,,,,125,0,124,1412.6663667999674,,,,,,,,,,,,,,,,,,,,,,,,,,,,,,1412.650291799975,1412.6663667999674,1413.1664633000037,1413.1499948999844,,,,,,,,,,,,,,,,,,,,,,1413.1531569999643,1413.1664633000037,1413.1664633000037,1413.1664633000037,1416.1663067999762,1416.1663067999762,1416.1663067999762,1416.1504598999745,f,0.7647487000213005,0.16883889999007806,1416.1505107999546,1416.150521499978,None,,,,,,,,,,,,,,00050,001,2026-01-18_14h46.37.542,MST_task,2024.2.0,59.836884650338014,2026-01-18 14h47.29.221363 +0530,
,Objects\175a.jpg,125,0,126,,,,,f,1.472979900019709,0.16017619997728616,None,,,,,,126,0,125,1416.1663067999762,,,,,,,,,,,,,,,,,,,,,,,,,,,,,,1416.1506360999774,1416.1663067999762,1416.6666134999832,1416.6499018999748,,,,,,,,,,,,,,,,,,,,,,1416.6528090999927,1416.6666134999832,1416.6666134999832,1416.6666134999832,1419.6663589999662,1419.6663589999662,1419.6663589999662,1419.6501611999702,f,1.472979900019709,0.16017619997728616,1419.650202299992,1419.6502126999549,None,,,,,,,,,,,,,,00050,001,2026-01-18_14h46.37.542,MST_task,2024.2.0,59.836884650338014,2026-01-18 14h47.29.221363 +0530,
,Scenes\015a.jpg,126,0,127,,,,,j,1.5768766999826767,0.12691629998153076,None,,,,,,127,0,126,1419.6663589999662,,,,,,,,,,,,,,,,,,,,,,,,,,,,,,1419.6502787999925,1419.6663589999662,1420.1717350999825,1420.1497842999524,,,,,,,,,,,,,,,,,,,,,,1420.1692191999755,1420.1717350999825,1420.1717350999825,1420.1717350999825,,,,1423.16644359997,j,1.5768766999826767,0.12691629998153076,1423.1681883999845,1423.1682059000013,None,,,,,,,,,,,,,,00050,001,2026-01-18_14h46.37.542,MST_task,2024.2.0,59.836884650338014,2026-01-18 14h47.29.221363 +0530,
,Scenes\086a.jpg,127,0,128,,,,,j,0.6243025999865495,0.14401659998111427,None,,,,,,128,0,127,1423.18275789998,,,,,,,,,,,,,,,,,,,,,,,,,,,,,,1423.1683143999544,1423.18275789998,1423.6835053999675,1423.6665844999952,,,,,,,,,,,,,,,,,,,,,,1423.681058099959,1423.6835053999675,1423.6835053999675,1423.6835053999675,1426.6828404999687,1426.6828404999687,1426.6828404999687,1426.6669365999987,j,0.6243025999865495,0.14401659998111427,1426.6669777999632,1426.666988299985,None,,,,,,,,,,,,,,00050,001,2026-01-18_14h46.37.542,MST_task,2024.2.0,59.836884650338014,2026-01-18 14h47.29.221363 +0530,
,Scenes\045a.jpg,128,0,129,,,,,f,2.6833278999547474,0.08806340000592172,None,,,,,,129,0,128,1426.6828404999687,,,,,,,,,,,,,,,,,,,,,,,,,,,,,,1426.6670537999598,1426.6828404999687,1427.184763199999,1427.1667340999702,,,,,,,,,,,,,,,,,,,,,,1427.1823915999848,1427.184763199999,1427.184763199999,1427.184763199999,,,,1430.1830814999994,f,2.6833278999547474,0.08806340000592172,1430.1831295999582,1430.1831411999883,None,,,,,,,,,,,,,,00050,001,2026-01-18_14h46.37.542,MST_task,2024.2.0,59.836884650338014,2026-01-18 14h47.29.221363 +0530,
,Scenes\069a.jpg,129,0,130,,,,,j,0.9763654999551363,0.16719880001619458,None,,,,,,130,0,129,1430.1995909999823,,,,,,,,,,,,,,,,,,,,,,,,,,,,,,1430.1832142999629,1430.1995909999823,1430.7002038999926,1430.6830766999628,,,,,,,,,,,,,,,,,,,,,,1430.690557199996,1430.7002038999926,1430.7002038999926,1430.7002038999926,1433.6996139999828,1433.6996139999828,1433.6996139999828,1433.6836264999583,j,0.9763654999551363,0.16719880001619458,1433.6836779000005,1433.6836889999686,None,,,,,,,,,,,,,,00050,001,2026-01-18_14h46.37.542,MST_task,2024.2.0,59.836884650338014,2026-01-18 14h47.29.221363 +0530,
,Scenes\023a.jpg,130,0,131,,,,,f,0.803357699944172,0.1998417000286281,None,,,,,,131,0,130,1433.6996139999828,,,,,,,,,,,,,,,,,,,,,,,,,,,,,,1433.6838003000012,1433.6996139999828,1434.2003104999894,1434.1833386999788,,,,,,,,,,,,,,,,,,,,,,1434.1970388999907,1434.2003104999894,1434.2003104999894,1434.2003104999894,1437.1995986999827,1437.1995986999827,1437.1995986999827,1437.183599299984,f,0.803357699944172,0.1998417000286281,1437.183644099976,1437.1836551000015,None,,,,,,,,,,,,,,00050,001,2026-01-18_14h46.37.542,MST_task,2024.2.0,59.836884650338014,2026-01-18 14h47.29.221363 +0530,
,Scenes\090a.jpg,131,0,132,,,,,j,1.5368425999768078,0.1365310000255704,None,,,,,,132,0,131,1437.1995986999827,,,,,,,,,,,,,,,,,,,,,,,,,,,,,,1437.1837574999663,1437.1995986999827,1437.7064747999539,1437.6829931999673,,,,,,,,,,,,,,,,,,,,,,1437.703992899973,1437.7064747999539,1437.7064747999539,1437.7064747999539,,,,1440.6998606999987,j,1.5368425999768078,0.1365310000255704,1440.6999029999715,1440.699913999997,None,,,,,,,,,,,,,,00050,001,2026-01-18_14h46.37.542,MST_task,2024.2.0,59.836884650338014,2026-01-18 14h47.29.221363 +0530,
,Scenes\131a.jpg,132,0,133,,,,,j,0.8592226000037044,0.1526568999979645,None,,,,,,133,0,132,1440.7162299999618,,,,,,,,,,,,,,,,,,,,,,,,,,,,,,1440.7000125999912,1440.7162299999618,1441.216865299968,1441.1998201999813,,,,,,,,,,,,,,,,,,,,,,1441.2097559999675,1441.216865299968,1441.216865299968,1441.216865299968,1444.2162546999753,1444.2162546999753,1444.2162546999753,1444.200054499961,j,0.8592226000037044,0.1526568999979645,1444.2000974999974,1444.2001077999594,None,,,,,,,,,,,,,,00050,001,2026-01-18_14h46.37.542,MST_task,2024.2.0,59.836884650338014,2026-01-18 14h47.29.221363 +0530,
,Objects\062a.jpg,133,0,134,,,,,j,2.3350610999623314,0.1276699000154622,None,,,,,,134,0,133,1444.2162546999753,,,,,,,,,,,,,,,,,,,,,,,,,,,,,,1444.2001723999856,1444.2162546999753,1444.7167637999519,1444.699894099962,,,,,,,,,,,,,,,,,,,,,,1444.7055522999726,1444.7167637999519,1444.7167637999519,1444.7167637999519,1447.7162644999917,1447.7162644999917,1447.7162644999917,1447.7001068999525,j,2.3350610999623314,0.1276699000154622,1447.7022075999994,1447.7022240999504,None,,,,,,,,,,,,,,00050,001,2026-01-18_14h46.37.542,MST_task,2024.2.0,59.836884650338014,2026-01-18 14h47.29.221363 +0530,
,Objects\145a.jpg,134,0,135,,,,,f,0.979801400040742,0.2407705999794416,None,,,,,,135,0,134,1447.7162644999917,,,,,,,,,,,,,,,,,,,,,,,,,,,,,,1447.7022945999634,1447.7162644999917,1448.216465000005,1448.1999347999808,,,,,,,,,,,,,,,,,,,,,,1448.2028085999773,1448.216465000005,1448.216465000005,1448.216465000005,1451.2163273000042,1451.2163273000042,1451.2163273000042,1451.2001973000006,f,0.979801400040742,0.2407705999794416,1451.2002412999864,1451.2002526999568,None,,,,,,,,,,,,,,00050,001,2026-01-18_14h46.37.542,MST_task,2024.2.0,59.836884650338014,2026-01-18 14h47.29.221363 +0530,
,Objects\073a.jpg,135,0,136,,,,,f,1.5759004999999888,0.20804630004568025,None,,,,,,136,0,135,1451.2163273000042,,,,,,,,,,,,,,,,,,,,,,,,,,,,,,1451.2003672999563,1451.2163273000042,1451.7164606999722,1451.6999533000053,,,,,,,,,,,,,,,,,,,,,,1451.703121199971,1451.7164606999722,1451.7164606999722,1451.7164606999722,1454.716275099956,1454.716275099956,1454.716275099956,1454.7002421999932,f,1.5759004999999888,0.20804630004568025,1454.7002868999843,1454.7002980999532,None,,,,,,,,,,,,,,00050,001,2026-01-18_14h46.37.542,MST_task,2024.2.0,59.836884650338014,2026-01-18 14h47.29.221363 +0530,
,Objects\123a.jpg,136,0,137,,,,,j,1.2277133999741636,0.11186580004869029,None,,,,,,137,0,136,1454.716275099956,,,,,,,,,,,,,,,,,,,,,,,,,,,,,,1454.7004047999508,1454.716275099956,1455.2164389999816,1455.1997832999914,,,,,,,,,,,,,,,,,,,,,,1455.203173899965,1455.2164389999816,1455.2164389999816,1455.2164389999816,1458.2162835999625,1458.2162835999625,1458.2162835999625,1458.2001598999486,j,1.2277133999741636,0.11186580004869029,1458.200210399984,1458.2002209999482,None,,,,,,,,,,,,,,00050,001,2026-01-18_14h46.37.542,MST_task,2024.2.0,59.836884650338014,2026-01-18 14h47.29.221363 +0530,
,Objects\044a.jpg,137,0,138,,,,,f,1.527453400020022,0.17548189999070019,None,,,,,,138,0,137,1458.2162835999625,,,,,,,,,,,,,,,,,,,,,,,,,,,,,,1458.2002866999828,1458.2162835999625,1458.7164162999834,1458.699772199965,,,,,,,,,,,,,,,,,,,,,,1458.7030210999656,1458.7164162999834,1458.7164162999834,1458.7164162999834,1461.7162689999677,1461.7162689999677,1461.7162689999677,1461.7003029999905,f,1.527453400020022,0.17548189999070019,1461.7003460999695,1461.7003622999764,None,,,,,,,,,,,,,,00050,001,2026-01-18_14h46.37.542,MST_task,2024.2.0,59.836884650338014,2026-01-18 14h47.29.221363 +0530,
,Objects\056a.jpg,138,0,139,,,,,f,2.075344100012444,0.176008099981118,None,,,,,,139,0,138,1461.7162689999677,,,,,,,,,,,,,,,,,,,,,,,,,,,,,,1461.7004289999604,1461.7162689999677,1462.216485699988,1462.1999439999927,,,,,,,,,,,,,,,,,,,,,,1462.2028409999912,1462.216485699988,1462.216485699988,1462.216485699988,1465.2162032999913,1465.2162032999913,1465.2162032999913,1465.200255099975,f,2.075344100012444,0.176008099981118,1465.200296199997,1465.2003071999643,None,,,,,,,,,,,,,,00050,001,2026-01-18_14h46.37.542,MST_task,2024.2.0,59.836884650338014,2026-01-18 14h47.29.221363 +0530,
,Objects\045a.jpg,139,0,140,,,,,j,1.2153593000257388,0.13601969997398555,None,,,,,,140,0,139,1465.2162032999913,,,,,,,,,,,,,,,,,,,,,,,,,,,,,,1465.2003731000004,1465.2162032999913,1465.7164982999675,1465.6998555999598,,,,,,,,,,,,,,,,,,,,,,1465.7034010000061,1465.7164982999675,1465.7164982999675,1465.7164982999675,1468.7162271999987,1468.7162271999987,1468.7162271999987,1468.7002706999774,j,1.2153593000257388,0.13601969997398555,1468.7003157999716,1468.7003306999686,None,,,,,,,,,,,,,,00050,001,2026-01-18_14h46.37.542,MST_task,2024.2.0,59.836884650338014,2026-01-18 14h47.29.221363 +0530,
,Scenes\017a.jpg,140,0,141,,,,,f,1.6666678999899887,0.16868190001696348,None,,,,,,141,0,140,1468.7162271999987,,,,,,,,,,,,,,,,,,,,,,,,,,,,,,1468.700431699981,1468.7162271999987,1469.2168479999527,1469.1998668999877,,,,,,,,,,,,,,,,,,,,,,1469.2122697999584,1469.2168479999527,1469.2168479999527,1469.2168479999527,1472.2162803999963,1472.2162803999963,1472.2162803999963,1472.200313899957,f,1.6666678999899887,0.16868190001696348,1472.2019338999526,1472.2019505999633,None,,,,,,,,,,,,,,00050,001,2026-01-18_14h46.37.542,MST_task,2024.2.0,59.836884650338014,2026-01-18 14h47.29.221363 +0530,
,Scenes\031a.jpg,141,0,142,,,,,None,,,j,None,None,,,,142,0,141,1472.2162803999963,,,,,,,,,,,,,,,,,,,,,,,,,,,,,,1472.202049399959,1472.2162803999963,1472.71683999995,1472.6999511999893,,,,,,,,,,,,,,,,,,,,,,1472.7113258999889,1472.71683999995,1472.71683999995,1472.71683999995,1475.7162687999662,1475.7162687999662,1475.7162687999662,1475.7001043999917,None,,,1475.7001448999508,1475.8667623999645,j,1475.7162687999662,1475.7162687999662,None,None,,,,,,,,,,00050,001,2026-01-18_14h46.37.542,MST_task,2024.2.0,59.836884650338014,2026-01-18 14h47.29.221363 +0530,
,Scenes\167a.jpg,142,0,143,,,,,f,1.1814419000293128,0.15078619995620102,None,,,,,,143,0,142,1475.882755299972,,,,,,,,,,,,,,,,,,,,,,,,,,,,,,1475.8668883999926,1475.882755299972,1476.3835736999754,1476.366552099993,,,,,,,,,,,,,,,,,,,,,,1476.3774039999698,1476.3835736999754,1476.3835736999754,1476.3835736999754,1479.3828972000047,1479.3828972000047,1479.3828972000047,1479.3670277999481,f,1.1814419000293128,0.15078619995620102,1479.3670740999514,1479.3670849999762,None,,,,,,,,,,,,,,00050,001,2026-01-18_14h46.37.542,MST_task,2024.2.0,59.836884650338014,2026-01-18 14h47.29.221363 +0530,
,Scenes\169a.jpg,143,0,144,,,,,j,0.6159001999767497,0.12860450003063306,None,,,,,,144,0,143,1479.3828972000047,,,,,,,,,,,,,,,,,,,,,,,,,,,,,,1479.3671897999593,1479.3828972000047,1479.883433699957,1479.8665140999947,,,,,,,,,,,,,,,,,,,,,,1479.8738021999598,1479.883433699957,1479.883433699957,1479.883433699957,1482.8828694999684,1482.8828694999684,1482.8828694999684,1482.866726599983,j,0.6159001999767497,0.12860450003063306,1482.8667666999972,1482.866777499963,None,,,,,,,,,,,,,,00050,001,2026-01-18_14h46.37.542,MST_task,2024.2.0,59.836884650338014,2026-01-18 14h47.29.221363 +0530,
,Scenes\013a.jpg,144,0,145,,,,,j,0.9000018999795429,0.15997460001381114,None,,,,,,145,0,144,1482.8828694999684,,,,,,,,,,,,,,,,,,,,,,,,,,,,,,1482.8668438000022,1482.8828694999684,1483.3834715999546,1483.3665298999986,,,,,,,,,,,,,,,,,,,,,,1483.3774907999905,1483.3834715999546,1483.3834715999546,1483.3834715999546,1486.383086499991,1486.383086499991,1486.383086499991,1486.3669626999763,j,0.9000018999795429,0.15997460001381114,1486.3670051999507,1486.3670152999694,None,,,,,,,,,,,,,,00050,001,2026-01-18_14h46.37.542,MST_task,2024.2.0,59.836884650338014,2026-01-18 14h47.29.221363 +0530,
,Scenes\078a.jpg,145,0,146,,,,,j,1.1757444000104442,0.1600668999599293,None,,,,,,146,0,145,1486.383086499991,,,,,,,,,,,,,,,,,,,,,,,,,,,,,,1486.3671143999672,1486.383086499991,1486.8835856999503,1486.8665923999506,,,,,,,,,,,,,,,,,,,,,,1486.8757361999596,1486.8835856999503,1486.8835856999503,1486.8835856999503,1489.8830259999959,1489.8830259999959,1489.8830259999959,1489.8668382999604,j,1.1757444000104442,0.1600668999599293,1489.8668791999808,1489.8668900000048,None,,,,,,,,,,,,,,00050,001,2026-01-18_14h46.37.542,MST_task,2024.2.0,59.836884650338014,2026-01-18 14h47.29.221363 +0530,
,Scenes\116a.jpg,146,0,147,,,,,j,0.8602231999975629,0.12010820000432432,None,,,,,,147,0,146,1489.8830259999959,,,,,,,,,,,,,,,,,,,,,,,,,,,,,,1489.8669861999806,1489.8830259999959,1490.3834358999738,1490.366611799982,,,,,,,,,,,,,,,,,,,,,,1490.3737316000042,1490.3834358999738,1490.3834358999738,1490.3834358999738,1493.383020899957,1493.383020899957,1493.383020899957,1493.3668261999846,j,0.8602231999975629,0.12010820000432432,1493.3668665000005,1493.3668767999625,None,,,,,,,,,,,,,,00050,001,2026-01-18_14h46.37.542,MST_task,2024.2.0,59.836884650338014,2026-01-18 14h47.29.221363 +0530,
,Objects\126a.jpg,147,0,148,,,,,j,2.431694000028074,0.10399859998142347,None,,,,,,148,0,147,1493.383020899957,,,,,,,,,,,,,,,,,,,,,,,,,,,,,,1493.3669746999512,1493.383020899957,1493.8835846000002,1493.8666177999694,,,,,,,,,,,,,,,,,,,,,,1493.8809533999884,1493.8835846000002,1493.8835846000002,1493.8835846000002,1496.8829161999747,1496.8829161999747,1496.8829161999747,1496.86693129997,j,2.431694000028074,0.10399859998142347,1496.8689772999496,1496.8689938999596,None,,,,,,,,,,,,,,00050,001,2026-01-18_14h46.37.542,MST_task,2024.2.0,59.836884650338014,2026-01-18 14h47.29.221363 +0530,
,Objects\002a.jpg,148,0,149,,,,,f,1.7485870000091381,0.16000090003944933,None,,,,,,149,0,148,1496.8829161999747,,,,,,,,,,,,,,,,,,,,,,,,,,,,,,1496.869063799968,1496.8829161999747,1497.38313989999,1497.3666049999883,,,,,,,,,,,,,,,,,,,,,,1497.3700268999673,1497.38313989999,1497.38313989999,1497.38313989999,1500.3828852999723,1500.3828852999723,1500.3828852999723,1500.366903999995,f,1.7485870000091381,0.16000090003944933,1500.366947099974,1500.3669576999964,None,,,,,,,,,,,,,,00050,001,2026-01-18_14h46.37.542,MST_task,2024.2.0,59.836884650338014,2026-01-18 14h47.29.221363 +0530,
,Objects\076a.jpg,149,0,150,,,,,f,1.0081179999979213,0.16873250005301088,None,,,,,,150,0,149,1500.3828852999723,,,,,,,,,,,,,,,,,,,,,,,,,,,,,,1500.3670541999745,1500.3828852999723,1500.8832716000034,1500.8667692999588,,,,,,,,,,,,,,,,,,,,,,1500.870032399951,1500.8832716000034,1500.8832716000034,1500.8832716000034,1503.8829995999695,1503.8829995999695,1503.8829995999695,1503.8668972000014,f,1.0081179999979213,0.16873250005301088,1503.8669380999636,1503.8669488999876,None,,,,,,,,,,,,,,00050,001,2026-01-18_14h46.37.542,MST_task,2024.2.0,59.836884650338014,2026-01-18 14h47.29.221363 +0530,
,Objects\099a.jpg,150,0,151,,,,,f,1.8378166999900714,0.15818919998127967,None,,,,,,151,0,150,1503.8829995999695,,,,,,,,,,,,,,,,,,,,,,,,,,,,,,1503.867044399958,1503.8829995999695,1504.383284999989,1504.3666107999743,,,,,,,,,,,,,,,,,,,,,,1504.37012029998,1504.383284999989,1504.383284999989,1504.383284999989,1507.3828830999555,1507.3828830999555,1507.3828830999555,1507.3671019999892,f,1.8378166999900714,0.15818919998127967,1507.3671514999587,1507.3671626999858,None,,,,,,,,,,,,,,00050,001,2026-01-18_14h46.37.542,MST_task,2024.2.0,59.836884650338014,2026-01-18 14h47.29.221363 +0530,
,Objects\063a.jpg,151,0,152,,,,,f,0.776230699964799,0.1519996999995783,None,,,,,,152,0,151,1507.3828830999555,,,,,,,,,,,,,,,,,,,,,,,,,,,,,,1507.3672328999965,1507.3828830999555,1507.8832362999674,1507.866651999997,,,,,,,,,,,,,,,,,,,,,,1507.8770713999984,1507.8832362999674,1507.8832362999674,1507.8832362999674,1510.8829285999527,1510.8829285999527,1510.8829285999527,1510.8669463999686,f,0.776230699964799,0.1519996999995783,1510.8669882999966,1510.8669985999586,None,,,,,,,,,,,,,,00050,001,2026-01-18_14h46.37.542,MST_task,2024.2.0,59.836884650338014,2026-01-18 14h47.29.221363 +0530,
,Objects\176a.jpg,152,0,153,,,,,j,0.764349700009916,0.1439612999674864,None,,,,,,153,0,152,1510.8829285999527,,,,,,,,,,,,,,,,,,,,,,,,,,,,,,1510.8670951999957,1510.8829285999527,1511.3832693999866,1511.366632499965,,,,,,,,,,,,,,,,,,,,,,1511.3701723999693,1511.3832693999866,1511.3832693999866,1511.3832693999866,1514.3829609999666,1514.3829609999666,1514.3829609999666,1514.3668078999617,j,0.764349700009916,0.1439612999674864,1514.3668494999874,1514.3668600999517,None,,,,,,,,,,,,,,00050,001,2026-01-18_14h46.37.542,MST_task,2024.2.0,59.836884650338014,2026-01-18 14h47.29.221363 +0530,
,Objects\065a.jpg,153,0,154,,,,,j,1.6646636999794282,0.20798780000768602,None,,,,,,154,0,153,1514.3829609999666,,,,,,,,,,,,,,,,,,,,,,,,,,,,,,1514.3669551999774,1514.3829609999666,1514.883317300002,1514.8666333999718,,,,,,,,,,,,,,,,,,,,,,1514.8694416999933,1514.883317300002,1514.883317300002,1514.883317300002,1517.8830365999602,1517.8830365999602,1517.8830365999602,1517.8668710999773,j,1.6646636999794282,0.20798780000768602,1517.866913100006,1517.8669234999688,None,,,,,,,,,,,,,,00050,001,2026-01-18_14h46.37.542,MST_task,2024.2.0,59.836884650338014,2026-01-18 14h47.29.221363 +0530,
,Scenes\184a.jpg,154,0,155,,,,,j,1.5563131000380963,0.1195076999720186,None,,,,,,155,0,154,1517.8830365999602,,,,,,,,,,,,,,,,,,,,,,,,,,,,,,1517.86702039995,1517.8830365999602,1518.3835485999589,1518.3666516999947,,,,,,,,,,,,,,,,,,,,,,1518.3759444999741,1518.3835485999589,1518.3835485999589,1518.3835485999589,1521.3829855999793,1521.3829855999793,1521.3829855999793,1521.367096699949,j,1.5563131000380963,0.1195076999720186,1521.3687324000057,1521.368752999988,None,,,,,,,,,,,,,,00050,001,2026-01-18_14h46.37.542,MST_task,2024.2.0,59.836884650338014,2026-01-18 14h47.29.221363 +0530,
,Scenes\002a.jpg,155,0,156,,,,,j,0.9634156000101939,0.15950509998947382,None,,,,,,156,0,155,1521.3829855999793,,,,,,,,,,,,,,,,,,,,,,,,,,,,,,1521.3688241000054,1521.3829855999793,1521.888361499994,1521.8665315999533,,,,,,,,,,,,,,,,,,,,,,1521.8861563999671,1521.888361499994,1521.888361499994,1521.888361499994,,,,1524.883225700003,j,0.9634156000101939,0.15950509998947382,1524.8832672999706,1524.8832784999977,None,,,,,,,,,,,,,,00050,001,2026-01-18_14h46.37.542,MST_task,2024.2.0,59.836884650338014,2026-01-18 14h47.29.221363 +0530,
,Scenes\157a.jpg,156,0,157,,,,,j,0.9317640000372194,0.12760379997780547,None,,,,,,157,0,156,1524.8995460000006,,,,,,,,,,,,,,,,,,,,,,,,,,,,,,1524.8833979999763,1524.8995460000006,1525.400276899978,1525.3835990999942,,,,,,,,,,,,,,,,,,,,,,1525.3921617000015,1525.400276899978,1525.400276899978,1525.400276899978,1528.3996778999572,1528.3996778999572,1528.3996778999572,1528.3836586999823,j,0.9317640000372194,0.12760379997780547,1528.383699099999,1528.3837098999647,None,,,,,,,,,,,,,,00050,001,2026-01-18_14h46.37.542,MST_task,2024.2.0,59.836884650338014,2026-01-18 14h47.29.221363 +0530,
