Sl_no,image_path,thisN,thisTrialN,thisRepN,key_resp_5.keys,key_resp_7.keys,key_resp_7.rt,key_resp_7.duration,key_resp_9.keys,key_resp_8.keys,key_resp_8.rt,key_resp_8.duration,key_resp_9.rt,key_resp_9.duration,practice.thisRepN,practice.thisTrialN,practice.thisN,trials.thisRepN,trials.thisTrialN,trials.thisN,thisRow.t,notes,welcome_page.started,text.started,key_resp.started,welcome_page.stopped,key_resp.keys,key_resp.rt,key_resp.duration,instructions.started,ins.started,key_resp_2.started,instructions.stopped,key_resp_2.keys,key_resp_2.rt,key_resp_2.duration,instructions_2.started,text_10.started,key_resp_10.started,instructions_2.stopped,key_resp_10.keys,key_resp_10.rt,key_resp_10.duration,objects_only_instruction.started,text_3.started,key_resp_3.started,objects_only_instruction.stopped,key_resp_3.keys,key_resp_3.rt,key_resp_3.duration,ISI.started,text_4.started,ISI.stopped,practice_block.started,image.started,text_5.started,key_resp_5.started,practice_block.stopped,practice.key_resp_5.keys,indoor_outdoor.started,text_7.started,key_resp_7.started,indoor_outdoor.stopped,practice.key_resp_7.keys,practice.key_resp_7.rt,practice.key_resp_7.duration,text_4.stopped,image.stopped,text_5.stopped,key_resp_5.stopped,practice_to_main.started,text_2.started,key_resp_4.started,practice_to_main.stopped,key_resp_4.keys,key_resp_4.rt,key_resp_4.duration,objects.started,image_2.started,text_9.started,key_resp_9.started,objects.stopped,trials.key_resp_9.keys,encoding_task.started,text_8.started,key_resp_8.started,encoding_task.stopped,trials.key_resp_8.keys,trials.key_resp_8.rt,trials.key_resp_8.duration,image_2.stopped,text_9.stopped,key_resp_9.stopped,trials.key_resp_9.rt,trials.key_resp_9.duration,end_experiment.started,text_6.started,key_resp_6.started,end_experiment.stopped,key_resp_6.keys,key_resp_6.rt,key_resp_6.duration,list_of_stimuli,encoding_task_accuracy,participant,session,date,expName,psychopyVersion,frameRate,expStart,
,,,,,,,,,,,,,,,,,,,,,,,0.0012926000053994358,0.003257200005464256,0.003257200005464256,2121.651499800035,space,2121.5730519999634,None,,,,,,,,,,,,,,,,,,,,,,,,,,,,,,,,,,,,,,,,,,,,,,,,,,,,,,,,,,,,,,,,,,,,,,,,,,,,00058,001,2026-01-19_10h33.30.310,MST_task,2024.2.0,59.98936987255245,2026-01-19 10h33.41.475002 +0530,
,,,,,,,,,,,,,,,,,,,,,,,,,,,,,,2121.651552800031,2121.666011699999,2121.666011699999,2141.055412500049,space,19.382232400006615,None,,,,,,,,,,,,,,,,,,,,,,,,,,,,,,,,,,,,,,,,,,,,,,,,,,,,,,,,,,,,,,,,,,,,,00058,001,2026-01-19_10h33.30.310,MST_task,2024.2.0,59.98936987255245,2026-01-19 10h33.41.475002 +0530,
,,,,,,,,,,,,,,,,,,,,,,,,,,,,,,,,,,,,,2141.055442300043,2141.0714674000046,2141.0714674000046,2190.638635500043,space,49.56097669998417,None,,,,,,,,,,,,,,,,,,,,,,,,,,,,,,,,,,,,,,,,,,,,,,,,,,,,,,,,,,,,,,00058,001,2026-01-19_10h33.30.310,MST_task,2024.2.0,59.98936987255245,2026-01-19 10h33.41.475002 +0530,
,,,,,,,,,,,,,,,,,,,,,,,,,,,,,,,,,,,,,,,,,,,,2190.6386672999943,2190.65512890002,2190.65512890002,2262.4731982999947,space,71.80901870003436,None,,,,,,,,,,,,,,,,,,,,,,,,,,,,,,,,,,,,,,,,,,,,,,,,,,,,,,,00058,001,2026-01-19_10h33.30.310,MST_task,2024.2.0,59.98936987255245,2026-01-19 10h33.41.475002 +0530,
7,practice_images/166a.jpg,0,0,1,None,f,5.164191999996547,None,,,,,,,1,0,0,,,,2262.498478399997,,,,,,,,,,,,,,,,,,,,,,,,,,,,,,2262.496568600007,2262.498478399997,2262.9884336999967,2263.004457800009,2263.0163630000316,2263.0163630000316,2263.0163630000316,2265.9883463000297,None,2265.990125400014,2266.0047322000028,2266.0047322000028,2271.1720005000243,f,5.164191999996547,None,,,,,,,,,,,,,,,,,,,,,,,,,,,,,,,,,,,,,,,00058,001,2026-01-19_10h33.30.310,MST_task,2024.2.0,59.98936987255245,2026-01-19 10h33.41.475002 +0530,
4,practice_images/002b.jpg,1,1,1,None,j,8.672688699967694,None,,,,,,,1,1,1,,,,2271.1881178000476,,,,,,,,,,,,,,,,,,,,,,,,,,,,,,2271.1720876000472,2271.1881178000476,2271.6717712000245,2271.6805151000153,2271.6883894000202,2271.6883894000202,2271.6883894000202,2274.6718825999997,None,2274.6719166000257,2274.6881687000277,2274.6881687000277,2283.3719928000355,j,8.672688699967694,None,2271.6883894000202,2274.6881687000277,2274.6881687000277,2274.6881687000277,,,,,,,,,,,,,,,,,,,,,,,,,,,,,,,,,,,00058,001,2026-01-19_10h33.30.310,MST_task,2024.2.0,59.98936987255245,2026-01-19 10h33.41.475002 +0530,
1,practice_images/013a.jpg,2,2,1,None,j,3.168436500011012,None,,,,,,,1,2,2,,,,2283.3881328999996,,,,,,,,,,,,,,,,,,,,,,,,,,,,,,2283.3720728000044,2283.3881328999996,2283.871760500013,2283.8809953000164,2283.8883778000018,2283.8883778000018,2283.8883778000018,2286.8721212000237,None,2286.872158000013,2286.888164600008,2286.888164600008,2290.0720120000187,j,3.168436500011012,None,2283.8883778000018,2286.888164600008,2286.888164600008,2286.888164600008,,,,,,,,,,,,,,,,,,,,,,,,,,,,,,,,,,,00058,001,2026-01-19_10h33.30.310,MST_task,2024.2.0,59.98936987255245,2026-01-19 10h33.41.475002 +0530,
3,practice_images/037a.jpg,3,3,1,None,f,3.2603890000027604,None,,,,,,,1,3,3,,,,2290.088165700028,,,,,,,,,,,,,,,,,,,,,,,,,,,,,,2290.0720970000257,2290.088165700028,2290.5718128000153,2290.580610300007,2290.5883873000275,2290.5883873000275,2290.5883873000275,2293.5719713,None,2293.572005600028,2293.588200500002,2293.588200500002,2296.85511340003,f,3.2603890000027604,None,2290.5883873000275,2293.588200500002,2293.588200500002,2293.588200500002,,,,,,,,,,,,,,,,,,,,,,,,,,,,,,,,,,,00058,001,2026-01-19_10h33.30.310,MST_task,2024.2.0,59.98936987255245,2026-01-19 10h33.41.475002 +0530,
8,practice_images/178a.jpg,4,4,1,None,f,13.340960800007451,None,,,,,,,1,4,4,,,,2296.8715349000413,,,,,,,,,,,,,,,,,,,,,,,,,,,,,,2296.8551972000278,2296.8715349000413,2297.354921500024,2297.3633429000038,2297.371655200026,2297.371655200026,2297.371655200026,2300.35516690003,None,2300.3552053000312,2300.371472400031,2300.371472400031,2313.7219014000148,f,13.340960800007451,None,2297.371655200026,2300.371472400031,2300.371472400031,2300.371472400031,,,,,,,,,,,,,,,,,,,,,,,,,,,,,,,,,,,00058,001,2026-01-19_10h33.30.310,MST_task,2024.2.0,59.98936987255245,2026-01-19 10h33.41.475002 +0530,
5,practice_images/139a.jpg,5,5,1,None,j,6.105707499955315,None,,,,,,,1,5,5,,,,2313.738186200033,,,,,,,,,,,,,,,,,,,,,,,,,,,,,,2313.7219848000095,2313.738186200033,2314.2217702000053,2314.2346277000033,2314.2382344999933,2314.2382344999933,2314.2382344999933,2317.2220220000017,None,2317.2247026000405,2317.238336200011,2317.238336200011,2323.355367900047,j,6.105707499955315,None,2314.2382344999933,2317.238336200011,2317.238336200011,2317.238336200011,,,,,,,,,,,,,,,,,,,,,,,,,,,,,,,,,,,00058,001,2026-01-19_10h33.30.310,MST_task,2024.2.0,59.98936987255245,2026-01-19 10h33.41.475002 +0530,
9,practice_images/180a.jpg,6,6,1,None,j,2.6882838999736123,None,,,,,,,1,6,6,,,,2323.3716209999984,,,,,,,,,,,,,,,,,,,,,,,,,,,,,,2323.35545110004,2323.3716209999984,2323.855208299996,2323.8650999999954,2323.871854900033,2323.871854900033,2323.871854900033,2326.855386500014,None,2326.8554215000477,2326.871681000048,2326.871681000048,2329.572153999994,j,2.6882838999736123,None,2323.871854900033,2326.871681000048,2326.871681000048,2326.871681000048,,,,,,,,,,,,,,,,,,,,,,,,,,,,,,,,,,,00058,001,2026-01-19_10h33.30.310,MST_task,2024.2.0,59.98936987255245,2026-01-19 10h33.41.475002 +0530,
10,practice_images/182a.jpg,7,7,1,None,f,1.535790800000541,None,,,,,,,1,7,7,,,,2329.588317800022,,,,,,,,,,,,,,,,,,,,,,,,,,,,,,2329.5722367000417,2329.588317800022,2330.072204200027,2330.0826327000395,2330.088483300002,2330.088483300002,2330.088483300002,2333.072005700029,None,2333.072040800005,2333.088239100005,2333.088239100005,2334.638626500033,f,1.535790800000541,None,2330.088483300002,2333.088239100005,2333.088239100005,2333.088239100005,,,,,,,,,,,,,,,,,,,,,,,,,,,,,,,,,,,00058,001,2026-01-19_10h33.30.310,MST_task,2024.2.0,59.98936987255245,2026-01-19 10h33.41.475002 +0530,
6,practice_images/158a.jpg,8,8,1,None,f,16.726052600017283,None,,,,,,,1,8,8,,,,2334.6549389000284,,,,,,,,,,,,,,,,,,,,,,,,,,,,,,2334.638709300023,2334.6549389000284,2335.1385441000457,2335.147150600038,2335.155205900024,2335.155205900024,2335.155205900024,2338.1387402000255,None,2338.138774799998,2338.154847100028,2338.154847100028,2354.8887923000148,f,16.726052600017283,None,2335.155205900024,2338.154847100028,2338.154847100028,2338.154847100028,,,,,,,,,,,,,,,,,,,,,,,,,,,,,,,,,,,00058,001,2026-01-19_10h33.30.310,MST_task,2024.2.0,59.98936987255245,2026-01-19 10h33.41.475002 +0530,
2,practice_images/031a.jpg,9,9,1,None,j,5.611002899997402,None,,,,,,,1,9,9,,,,2354.904876400018,,,,,,,,,,,,,,,,,,,,,,,,,,,,,,2354.888880100043,2354.904876400018,2355.3885524999932,2355.3970369000454,2355.4050246000406,2355.4050246000406,2355.4050246000406,2358.3888147000107,None,2358.388850999996,2358.4049779000343,2358.4049779000343,2364.0220745000406,j,5.611002899997402,None,2355.4050246000406,2358.4049779000343,2358.4049779000343,2358.4049779000343,,,,,,,,,,,,,,,,,,,,,,,,,,,,,,,,,,,00058,001,2026-01-19_10h33.30.310,MST_task,2024.2.0,59.98936987255245,2026-01-19 10h33.41.475002 +0530,
,,,,,,,,,,,,,,,,,,,,,,,,,,,,,,,,,,,,,,,,,,,,,,,,,,,,,,,,,,,,,,,,,,,,,,,2364.0221446000505,2364.038311900047,2364.038311900047,2390.1387132999953,space,26.097814700042363,None,,,,,,,,,,,,,,,,,,,,,,,,,,,,00058,001,2026-01-19_10h33.30.310,MST_task,2024.2.0,59.98936987255245,2026-01-19 10h33.41.475002 +0530,
,Scenes\169a.jpg,0,0,1,,,,,None,j,3.552541700017173,None,,,,,,1,0,0,2390.1548210000037,,,,,,,,,,,,,,,,,,,,,,,,,,,,,,2390.139488900022,2390.1548210000037,2390.6384918999975,,,,,,,,,,,,,,2390.670224200003,,,,,,,,,,,2390.6666925000027,2390.670224200003,2390.670224200003,2390.670224200003,2393.6550748000154,None,2393.65672920004,2393.671480900026,2393.671480900026,2397.239040900022,j,3.552541700017173,None,,,,,,,,,,,,,,,00058,001,2026-01-19_10h33.30.310,MST_task,2024.2.0,59.98936987255245,2026-01-19 10h33.41.475002 +0530,
,Scenes\190a.jpg,1,0,2,,,,,None,j,5.261209599964786,None,,,,,,2,0,1,2397.2548894000356,,,,,,,,,,,,,,,,,,,,,,,,,,,,,,2397.2391331000254,2397.2548894000356,2397.738567900029,,,,,,,,,,,,,,2397.7596257000114,,,,,,,,,,,2397.7573062000447,2397.7596257000114,2397.7596257000114,2397.7596257000114,2400.7550122000393,None,2400.7550516000483,2400.771602199995,2400.771602199995,2406.0386408000486,j,5.261209599964786,None,,,,,,,,,,,,,,,00058,001,2026-01-19_10h33.30.310,MST_task,2024.2.0,59.98936987255245,2026-01-19 10h33.41.475002 +0530,
,Scenes\089a.jpg,2,0,3,,,,,None,j,4.740821000013966,None,,,,,,3,0,2,2406.0547259000014,,,,,,,,,,,,,,,,,,,,,,,,,,,,,,2406.0387390000396,2406.0547259000014,2406.538470300031,,,,,,,,,,,,,,2406.5612580000306,,,,,,,,,,,2406.5587303000502,2406.5612580000306,2406.5612580000306,2406.5612580000306,2409.555073000025,None,2409.5551166000078,2409.5715115000494,2409.5715115000494,2414.321961000038,j,4.740821000013966,None,,,,,,,,,,,,,,,00058,001,2026-01-19_10h33.30.310,MST_task,2024.2.0,59.98936987255245,2026-01-19 10h33.41.475002 +0530,
,Scenes\130a.jpg,3,0,4,,,,,None,j,9.282391700020526,None,,,,,,4,0,3,2414.338231200003,,,,,,,,,,,,,,,,,,,,,,,,,,,,,,2414.3220495000132,2414.338231200003,2414.8217942000483,,,,,,,,,,,,,,2414.843421800004,,,,,,,,,,,2414.8409115000395,2414.843421800004,2414.843421800004,2414.843421800004,2417.822180500021,None,2417.822221600043,2417.838156700018,2417.838156700018,2427.1220564999967,j,9.282391700020526,None,,,,,,,,,,,,,,,00058,001,2026-01-19_10h33.30.310,MST_task,2024.2.0,59.98936987255245,2026-01-19 10h33.41.475002 +0530,
,Scenes\170a.jpg,4,0,5,,,,,None,j,13.001524699968286,None,,,,,,5,0,4,2427.1382325000013,,,,,,,,,,,,,,,,,,,,,,,,,,,,,,2427.122142600012,2427.1382325000013,2427.6219823000138,,,,,,,,,,,,,,2427.6445438000374,,,,,,,,,,,2427.6420685000485,2427.6445438000374,2427.6445438000374,2427.6445438000374,2430.6384646000224,None,2430.638504100032,2430.654784000013,2430.654784000013,2443.6720050000004,j,13.001524699968286,None,,,,,,,,,,,,,,,00058,001,2026-01-19_10h33.30.310,MST_task,2024.2.0,59.98936987255245,2026-01-19 10h33.41.475002 +0530,
,Scenes\029a.jpg,5,0,6,,,,,None,j,3.5791176999919116,None,,,,,,6,0,5,2443.6883437000215,,,,,,,,,,,,,,,,,,,,,,,,,,,,,,2443.672096299997,2443.6883437000215,2444.1719980000053,,,,,,,,,,,,,,2444.19264990004,,,,,,,,,,,2444.1903733999934,2444.19264990004,2444.19264990004,2444.19264990004,2447.188519200019,None,2447.1885585000273,2447.2048955000355,2447.2048955000355,2450.7887032,j,3.5791176999919116,None,,,,,,,,,,,,,,,00058,001,2026-01-19_10h33.30.310,MST_task,2024.2.0,59.98936987255245,2026-01-19 10h33.41.475002 +0530,
,Scenes\177a.jpg,6,0,7,,,,,None,j,3.8311919999541715,None,,,,,,7,0,6,2450.804944600037,,,,,,,,,,,,,,,,,,,,,,,,,,,,,,2450.7888210000237,2450.804944600037,2451.288499300019,,,,,,,,,,,,,,2451.3074752000393,,,,,,,,,,,2451.3051902000443,2451.3074752000393,2451.3074752000393,2451.3074752000393,2454.3055728000472,None,2454.3056108000455,2454.321666100004,2454.321666100004,2458.155263599998,j,3.8311919999541715,None,,,,,,,,,,,,,,,00058,001,2026-01-19_10h33.30.310,MST_task,2024.2.0,59.98936987255245,2026-01-19 10h33.41.475002 +0530,
,Objects\173a.jpg,7,0,8,,,,,None,f,4.008358799968846,None,,,,,,8,0,7,2458.1715459999978,,,,,,,,,,,,,,,,,,,,,,,,,,,,,,2458.1553561000037,2458.1715459999978,2458.655334800016,,,,,,,,,,,,,,2458.678798100038,,,,,,,,,,,2458.6768319000257,2458.678798100038,2458.678798100038,2458.678798100038,2461.671953400015,None,2461.675100499997,2461.688296700013,2461.688296700013,2465.7052793000476,f,4.008358799968846,None,,,,,,,,,,,,,,,00058,001,2026-01-19_10h33.30.310,MST_task,2024.2.0,59.98936987255245,2026-01-19 10h33.41.475002 +0530,
,Objects\121a.jpg,8,0,9,,,,,None,f,3.6587620999780484,None,,,,,,9,0,8,2465.721589700028,,,,,,,,,,,,,,,,,,,,,,,,,,,,,,2465.705400500039,2465.721589700028,2466.2050518000033,,,,,,,,,,,,,,2466.221756600018,,,,,,,,,,,2466.215448200004,2466.221756600018,2466.221756600018,2466.221756600018,2469.205596200016,None,2469.20563890005,2469.221587900014,2469.221587900014,2472.8887520999997,f,3.6587620999780484,None,2469.221587900014,2469.221587900014,2469.221587900014,,,,,,,,,,,,00058,001,2026-01-19_10h33.30.310,MST_task,2024.2.0,59.98936987255245,2026-01-19 10h33.41.475002 +0530,
,Objects\087a.jpg,9,0,10,,,,,None,j,2.3398661999963224,None,,,,,,10,0,9,2472.904843199998,,,,,,,,,,,,,,,,,,,,,,,,,,,,,,2472.888836600003,2472.904843199998,2473.388790600002,,,,,,,,,,,,,,2473.405065400002,,,,,,,,,,,2473.3985817000503,2473.405065400002,2473.405065400002,2473.405065400002,2476.388718400034,None,2476.388758200046,2476.4048336000415,2476.4048336000415,2478.7557010000455,j,2.3398661999963224,None,2476.4048336000415,2476.4048336000415,2476.4048336000415,,,,,,,,,,,,00058,001,2026-01-19_10h33.30.310,MST_task,2024.2.0,59.98936987255245,2026-01-19 10h33.41.475002 +0530,
,Objects\066a.jpg,10,0,11,,,,,None,j,6.93742640002165,None,,,,,,11,0,10,2478.7717238000478,,,,,,,,,,,,,,,,,,,,,,,,,,,,,,2478.7558403000003,2478.7717238000478,2479.255111400038,,,,,,,,,,,,,,2479.2719402000075,,,,,,,,,,,2479.2648108000285,2479.2719402000075,2479.2719402000075,2479.2719402000075,2482.2553852000274,None,2482.2554236000287,2482.271601000044,2482.271601000044,2489.222010800033,j,6.93742640002165,None,2482.271601000044,2482.271601000044,2482.271601000044,,,,,,,,,,,,00058,001,2026-01-19_10h33.30.310,MST_task,2024.2.0,59.98936987255245,2026-01-19 10h33.41.475002 +0530,
,Objects\033a.jpg,11,0,12,,,,,None,f,1.7822358999983408,None,,,,,,12,0,11,2489.2381848000223,,,,,,,,,,,,,,,,,,,,,,,,,,,,,,2489.2220979999984,2489.2381848000223,2489.721829999995,,,,,,,,,,,,,,2489.7384221000248,,,,,,,,,,,2489.7312754000304,2489.7384221000248,2489.7384221000248,2489.7384221000248,2492.7221166000236,None,2492.7221582000493,2492.738247600035,2492.738247600035,2494.5219718000153,f,1.7822358999983408,None,2492.738247600035,2492.738247600035,2492.738247600035,,,,,,,,,,,,00058,001,2026-01-19_10h33.30.310,MST_task,2024.2.0,59.98936987255245,2026-01-19 10h33.41.475002 +0530,
,Objects\084a.jpg,12,0,13,,,,,None,j,5.634072599990759,None,,,,,,13,0,12,2494.5382359000505,,,,,,,,,,,,,,,,,,,,,,,,,,,,,,2494.5220554000116,2494.5382359000505,2495.021889900032,,,,,,,,,,,,,,2495.0384879000485,,,,,,,,,,,2495.031793400005,2495.0384879000485,2495.0384879000485,2495.0384879000485,2498.022034500027,None,2498.0220738000353,2498.0382466000156,2498.0382466000156,2503.6887374999933,j,5.634072599990759,None,2498.0382466000156,2498.0382466000156,2498.0382466000156,,,,,,,,,,,,00058,001,2026-01-19_10h33.30.310,MST_task,2024.2.0,59.98936987255245,2026-01-19 10h33.41.475002 +0530,
,Objects\016a.jpg,13,0,14,,,,,None,f,2.8750908999936655,None,,,,,,14,0,13,2503.7049660000484,,,,,,,,,,,,,,,,,,,,,,,,,,,,,,2503.68885830004,2503.7049660000484,2504.188501299999,,,,,,,,,,,,,,2504.2050380000146,,,,,,,,,,,2504.198661500006,2504.2050380000146,2504.2050380000146,2504.2050380000146,2507.188739300007,None,2507.188776199997,2507.204856700031,2507.204856700031,2510.088853300025,f,2.8750908999936655,None,2507.204856700031,2507.204856700031,2507.204856700031,,,,,,,,,,,,00058,001,2026-01-19_10h33.30.310,MST_task,2024.2.0,59.98936987255245,2026-01-19 10h33.41.475002 +0530,
,Scenes\134a.jpg,14,0,15,,,,,None,j,5.514812999987043,None,,,,,,15,0,14,2510.104869700037,,,,,,,,,,,,,,,,,,,,,,,,,,,,,,2510.088981100009,2510.104869700037,2510.588472000032,,,,,,,,,,,,,,2510.6109487000504,,,,,,,,,,,2510.608531100035,2510.6109487000504,2510.6109487000504,2510.6109487000504,2513.605054500047,None,2513.606728700048,2513.621638200013,2513.621638200013,2519.138723000011,j,5.514812999987043,None,,,,,,,,,,,,,,,00058,001,2026-01-19_10h33.30.310,MST_task,2024.2.0,59.98936987255245,2026-01-19 10h33.41.475002 +0530,
,Scenes\155a.jpg,15,0,16,,,,,None,j,5.809148299973458,None,,,,,,16,0,15,2519.1546899999958,,,,,,,,,,,,,,,,,,,,,,,,,,,,,,2519.13884280005,2519.1546899999958,2519.6385305000003,,,,,,,,,,,,,,2519.6584557000315,,,,,,,,,,,2519.656026300043,2519.6584557000315,2519.6584557000315,2519.6584557000315,2522.655293699994,None,2522.6553802000126,2522.6717120000394,2522.6717120000394,2528.4886821000255,j,5.809148299973458,None,,,,,,,,,,,,,,,00058,001,2026-01-19_10h33.30.310,MST_task,2024.2.0,59.98936987255245,2026-01-19 10h33.41.475002 +0530,
,Scenes\007a.jpg,16,0,17,,,,,None,f,1.4193376999464817,None,,,,,,17,0,16,2528.504742500023,,,,,,,,,,,,,,,,,,,,,,,,,,,,,,2528.4888154999935,2528.504742500023,2528.988606000028,,,,,,,,,,,,,,2529.0054412000463,,,,,,,,,,,2529.001415400009,2529.0054412000463,2529.0054412000463,2529.0054412000463,2531.9891359000467,None,2531.989184200007,2532.0048917999957,2532.0048917999957,2533.438660200045,f,1.4193376999464817,None,2532.0048917999957,2532.0048917999957,2532.0048917999957,,,,,,,,,,,,00058,001,2026-01-19_10h33.30.310,MST_task,2024.2.0,59.98936987255245,2026-01-19 10h33.41.475002 +0530,
,Scenes\144a.jpg,17,0,18,,,,,None,j,1.7024377000052482,None,,,,,,18,0,17,2533.454851400049,,,,,,,,,,,,,,,,,,,,,,,,,,,,,,2533.438747100008,2533.454851400049,2533.9384888000204,,,,,,,,,,,,,,2533.9554077000357,,,,,,,,,,,2533.9523469000123,2533.9554077000357,2533.9554077000357,2533.9554077000357,2536.938729800051,None,2536.9387706000125,2536.954857200035,2536.954857200035,2538.672558500024,j,1.7024377000052482,None,2536.954857200035,2536.954857200035,2536.954857200035,,,,,,,,,,,,00058,001,2026-01-19_10h33.30.310,MST_task,2024.2.0,59.98936987255245,2026-01-19 10h33.41.475002 +0530,
,Scenes\150a.jpg,18,0,19,,,,,None,j,2.8214657999924384,None,,,,,,19,0,18,2538.688444300031,,,,,,,,,,,,,,,,,,,,,,,,,,,,,,2538.6727025000146,2538.688444300031,2539.1717620000127,,,,,,,,,,,,,,2539.1888618000085,,,,,,,,,,,2539.1865586000495,2539.1888618000085,2539.1888618000085,2539.1888618000085,2542.172222800029,None,2542.1722581000067,2542.1882194000063,2542.1882194000063,2545.022271700029,j,2.8214657999924384,None,2542.1882194000063,2542.1882194000063,2542.1882194000063,,,,,,,,,,,,00058,001,2026-01-19_10h33.30.310,MST_task,2024.2.0,59.98936987255245,2026-01-19 10h33.41.475002 +0530,
,Scenes\137a.jpg,19,0,20,,,,,None,j,1.7263355999602936,None,,,,,,20,0,19,2545.038288400043,,,,,,,,,,,,,,,,,,,,,,,,,,,,,,2545.0224045000505,2545.038288400043,2545.521901100001,,,,,,,,,,,,,,2545.538799800037,,,,,,,,,,,2545.5358749000006,2545.538799800037,2545.538799800037,2545.538799800037,2548.522155500017,None,2548.522194000019,2548.5382633000263,2548.5382633000263,2550.272038199997,j,1.7263355999602936,None,2548.5382633000263,2548.5382633000263,2548.5382633000263,,,,,,,,,,,,00058,001,2026-01-19_10h33.30.310,MST_task,2024.2.0,59.98936987255245,2026-01-19 10h33.41.475002 +0530,
,Scenes\022a.jpg,20,0,21,,,,,None,j,1.8532228999538347,None,,,,,,21,0,20,2550.288260500005,,,,,,,,,,,,,,,,,,,,,,,,,,,,,,2550.2721566000255,2550.288260500005,2550.7719319000025,,,,,,,,,,,,,,2550.7888154000393,,,,,,,,,,,2550.782868100039,2550.7888154000393,2550.7888154000393,2550.7888154000393,2553.7722746999934,None,2553.7723186000367,2553.7882474000216,2553.7882474000216,2555.6554888000246,j,1.8532228999538347,None,2553.7882474000216,2553.7882474000216,2553.7882474000216,,,,,,,,,,,,00058,001,2026-01-19_10h33.30.310,MST_task,2024.2.0,59.98936987255245,2026-01-19 10h33.41.475002 +0530,
,Objects\142a.jpg,21,0,22,,,,,None,f,1.5644069999689236,None,,,,,,22,0,21,2555.6716100000194,,,,,,,,,,,,,,,,,,,,,,,,,,,,,,2555.6556115000276,2555.6716100000194,2556.155273100012,,,,,,,,,,,,,,2556.1721652999986,,,,,,,,,,,2556.1679100000183,2556.1721652999986,2556.1721652999986,2556.1721652999986,2559.1557314000092,None,2559.1577531000366,2559.171628900047,2559.171628900047,2560.7388587000314,f,1.5644069999689236,None,2559.171628900047,2559.171628900047,2559.171628900047,,,,,,,,,,,,00058,001,2026-01-19_10h33.30.310,MST_task,2024.2.0,59.98936987255245,2026-01-19 10h33.41.475002 +0530,
,Objects\168a.jpg,22,0,23,,,,,None,f,2.6902306000120007,None,,,,,,23,0,22,2560.754952999996,,,,,,,,,,,,,,,,,,,,,,,,,,,,,,2560.7389901000424,2560.754952999996,2561.238623000041,,,,,,,,,,,,,,2561.25527090003,,,,,,,,,,,2561.2485762000433,2561.25527090003,2561.25527090003,2561.25527090003,2564.2390402000165,None,2564.239078100014,2564.2550913000014,2564.2550913000014,2566.9554977000225,f,2.6902306000120007,None,2564.2550913000014,2564.2550913000014,2564.2550913000014,,,,,,,,,,,,00058,001,2026-01-19_10h33.30.310,MST_task,2024.2.0,59.98936987255245,2026-01-19 10h33.41.475002 +0530,
,Objects\185a.jpg,23,0,24,,,,,None,f,1.8968640000093728,None,,,,,,24,0,23,2566.971711900027,,,,,,,,,,,,,,,,,,,,,,,,,,,,,,2566.955615600047,2566.971711900027,2567.4552871000487,,,,,,,,,,,,,,2567.4719516000478,,,,,,,,,,,2567.4652263000025,2567.4719516000478,2567.4719516000478,2567.4719516000478,2570.4555873000063,None,2570.4556258000084,2570.4717162000015,2570.4717162000015,2572.37212070002,f,1.8968640000093728,None,2570.4717162000015,2570.4717162000015,2570.4717162000015,,,,,,,,,,,,00058,001,2026-01-19_10h33.30.310,MST_task,2024.2.0,59.98936987255245,2026-01-19 10h33.41.475002 +0530,
,Objects\192a.jpg,24,0,25,,,,,None,f,1.7837677000206895,None,,,,,,25,0,24,2572.388370200002,,,,,,,,,,,,,,,,,,,,,,,,,,,,,,2572.3722382000415,2572.388370200002,2572.871959800017,,,,,,,,,,,,,,2572.8887436000514,,,,,,,,,,,2572.881822400028,2572.8887436000514,2572.8887436000514,2572.8887436000514,2575.8722932999954,None,2575.872330800048,2575.888335800031,2575.888335800031,2577.67278360005,f,1.7837677000206895,None,2575.888335800031,2575.888335800031,2575.888335800031,,,,,,,,,,,,00058,001,2026-01-19_10h33.30.310,MST_task,2024.2.0,59.98936987255245,2026-01-19 10h33.41.475002 +0530,
,Objects\029a.jpg,25,0,26,,,,,None,f,0.8756647999980487,None,,,,,,26,0,25,2577.688454600051,,,,,,,,,,,,,,,,,,,,,,,,,,,,,,2577.6728774000076,2577.688454600051,2578.1719727000454,,,,,,,,,,,,,,2578.188677600003,,,,,,,,,,,2578.1817337000393,2578.188677600003,2578.188677600003,2578.188677600003,2581.1721902000136,None,2581.17223060003,2581.1883731000125,2581.1883731000125,2582.072219500027,f,0.8756647999980487,None,2581.1883731000125,2581.1883731000125,2581.1883731000125,,,,,,,,,,,,00058,001,2026-01-19_10h33.30.310,MST_task,2024.2.0,59.98936987255245,2026-01-19 10h33.41.475002 +0530,
,Objects\132a.jpg,26,0,27,,,,,None,f,0.6678550000069663,None,,,,,,27,0,26,2582.0883992000017,,,,,,,,,,,,,,,,,,,,,,,,,,,,,,2582.0723395000095,2582.0883992000017,2582.5719678000314,,,,,,,,,,,,,,2582.5886434999993,,,,,,,,,,,2582.585189300007,2582.5886434999993,2582.5886434999993,2582.5886434999993,2585.5723092000117,None,2585.5723478000145,2585.5883703000145,2585.5883703000145,2586.2723116000416,f,0.6678550000069663,None,2585.5883703000145,2585.5883703000145,2585.5883703000145,,,,,,,,,,,,00058,001,2026-01-19_10h33.30.310,MST_task,2024.2.0,59.98936987255245,2026-01-19 10h33.41.475002 +0530,
,Objects\108a.jpg,27,0,28,,,,,None,j,1.4198409999953583,None,,,,,,28,0,27,2586.288283700007,,,,,,,,,,,,,,,,,,,,,,,,,,,,,,2586.2724467000226,2586.288283700007,2586.7720386,,,,,,,,,,,,,,2586.7886562000494,,,,,,,,,,,2586.7837565999944,2586.7886562000494,2586.7886562000494,2586.7886562000494,2589.772259300051,None,2589.772307700012,2589.788358000049,2589.788358000049,2591.222171500034,j,1.4198409999953583,None,2589.788358000049,2589.788358000049,2589.788358000049,,,,,,,,,,,,00058,001,2026-01-19_10h33.30.310,MST_task,2024.2.0,59.98936987255245,2026-01-19 10h33.41.475002 +0530,
,Scenes\041a.jpg,28,0,29,,,,,None,j,1.1250602999934927,None,,,,,,29,0,28,2591.2383314000326,,,,,,,,,,,,,,,,,,,,,,,,,,,,,,2591.222302500042,2591.2383314000326,2591.7221242000232,,,,,,,,,,,,,,2591.745059900044,,,,,,,,,,,2591.742520000029,2591.745059900044,2591.745059900044,2591.745059900044,2594.7386396999937,None,2594.740259800048,2594.755024400016,2594.755024400016,2595.8886999000097,j,1.1250602999934927,None,,,,,,,,,,,,,,,00058,001,2026-01-19_10h33.30.310,MST_task,2024.2.0,59.98936987255245,2026-01-19 10h33.41.475002 +0530,
,Scenes\021a.jpg,29,0,30,,,,,None,j,1.8823242000071332,None,,,,,,30,0,29,2595.9050067000207,,,,,,,,,,,,,,,,,,,,,,,,,,,,,,2595.8887874000357,2595.9050067000207,2596.3886308000074,,,,,,,,,,,,,,2596.4077978000278,,,,,,,,,,,2596.4053658000194,2596.4077978000278,2596.4077978000278,2596.4077978000278,2599.4051394000417,None,2599.4051775000407,2599.4217185000307,2599.4217185000307,2601.3054752000025,j,1.8823242000071332,None,,,,,,,,,,,,,,,00058,001,2026-01-19_10h33.30.310,MST_task,2024.2.0,59.98936987255245,2026-01-19 10h33.41.475002 +0530,
,Scenes\191a.jpg,30,0,31,,,,,None,j,1.41079280001577,None,,,,,,31,0,30,2601.321719700005,,,,,,,,,,,,,,,,,,,,,,,,,,,,,,2601.305562500027,2601.321719700005,2601.8053343000356,,,,,,,,,,,,,,2601.822131699999,,,,,,,,,,,2601.8187104000244,2601.822131699999,2601.822131699999,2601.822131699999,2604.80542400002,None,2604.805463800032,2604.8217212000163,2604.8217212000163,2606.239005600044,j,1.41079280001577,None,2604.8217212000163,2604.8217212000163,2604.8217212000163,,,,,,,,,,,,00058,001,2026-01-19_10h33.30.310,MST_task,2024.2.0,59.98936987255245,2026-01-19 10h33.41.475002 +0530,
,Scenes\011a.jpg,31,0,32,,,,,None,j,3.260393699980341,None,,,,,,32,0,31,2606.2549848000053,,,,,,,,,,,,,,,,,,,,,,,,,,,,,,2606.2390969000407,2606.2549848000053,2606.738646200043,,,,,,,,,,,,,,2606.7612347000395,,,,,,,,,,,2606.7585874000215,2606.7612347000395,2606.7612347000395,2606.7612347000395,2609.7552367000026,None,2609.7552756000077,2609.7717252,2609.7717252,2613.0389491000096,j,3.260393699980341,None,,,,,,,,,,,,,,,00058,001,2026-01-19_10h33.30.310,MST_task,2024.2.0,59.98936987255245,2026-01-19 10h33.41.475002 +0530,
,Scenes\172a.jpg,32,0,33,,,,,None,j,1.8217499000020325,None,,,,,,33,0,32,2613.055034800025,,,,,,,,,,,,,,,,,,,,,,,,,,,,,,2613.0390726000187,2613.055034800025,2613.5385820000083,,,,,,,,,,,,,,2613.555486300029,,,,,,,,,,,2613.5527948000235,2613.555486300029,2613.555486300029,2613.555486300029,2616.538852000027,None,2616.538888500014,2616.554814400035,2616.554814400035,2618.388699800009,j,1.8217499000020325,None,2616.554814400035,2616.554814400035,2616.554814400035,,,,,,,,,,,,00058,001,2026-01-19_10h33.30.310,MST_task,2024.2.0,59.98936987255245,2026-01-19 10h33.41.475002 +0530,
,Scenes\019a.jpg,33,0,34,,,,,None,j,15.527305499999784,None,,,,,,34,0,33,2618.4047901000013,,,,,,,,,,,,,,,,,,,,,,,,,,,,,,2618.388786500029,2618.4047901000013,2618.88875870005,,,,,,,,,,,,,,2618.907081000041,,,,,,,,,,,2618.9047884000465,2618.907081000041,2618.907081000041,2618.907081000041,2621.9051510000136,None,2621.905193600047,2621.9215582000325,2621.9215582000325,2637.455257099995,j,15.527305499999784,None,,,,,,,,,,,,,,,00058,001,2026-01-19_10h33.30.310,MST_task,2024.2.0,59.98936987255245,2026-01-19 10h33.41.475002 +0530,
,Scenes\094a.jpg,34,0,35,,,,,None,f,2.004147199972067,None,,,,,,35,0,34,2637.471610000008,,,,,,,,,,,,,,,,,,,,,,,,,,,,,,2637.4553517000168,2637.471610000008,2637.9551106000436,,,,,,,,,,,,,,2637.9768351000384,,,,,,,,,,,2637.974333100021,2637.9768351000384,2637.9768351000384,2637.9768351000384,2640.971898699994,None,2640.9719380000024,2640.98828650004,2640.98828650004,2643.005290800007,f,2.004147199972067,None,,,,,,,,,,,,,,,00058,001,2026-01-19_10h33.30.310,MST_task,2024.2.0,59.98936987255245,2026-01-19 10h33.41.475002 +0530,
,Objects\071a.jpg,35,0,36,,,,,None,j,6.078497199981939,None,,,,,,36,0,35,2643.0215735000093,,,,,,,,,,,,,,,,,,,,,,,,,,,,,,2643.005379600043,2643.0215735000093,2643.505013200047,,,,,,,,,,,,,,2643.522259899997,,,,,,,,,,,2643.5195916999946,2643.522259899997,2643.522259899997,2643.522259899997,2646.5054428000003,None,2646.5076192000415,2646.5216285000206,2646.5216285000206,2652.605293200002,j,6.078497199981939,None,2646.5216285000206,2646.5216285000206,2646.5216285000206,,,,,,,,,,,,00058,001,2026-01-19_10h33.30.310,MST_task,2024.2.0,59.98936987255245,2026-01-19 10h33.41.475002 +0530,
,Objects\165a.jpg,36,0,37,,,,,None,f,0.7032742000301369,None,,,,,,37,0,36,2652.6216248000273,,,,,,,,,,,,,,,,,,,,,,,,,,,,,,2652.605417100014,2652.6216248000273,2653.1051246999996,,,,,,,,,,,,,,2653.1218547000317,,,,,,,,,,,2653.1167896999978,2653.1218547000317,2653.1218547000317,2653.1218547000317,2656.1052702000015,None,2656.1053074999945,2656.121622000006,2656.121622000006,2656.8386788000353,f,0.7032742000301369,None,2656.121622000006,2656.121622000006,2656.121622000006,,,,,,,,,,,,00058,001,2026-01-19_10h33.30.310,MST_task,2024.2.0,59.98936987255245,2026-01-19 10h33.41.475002 +0530,
,Objects\124a.jpg,37,0,38,,,,,None,j,1.52594780002255,None,,,,,,38,0,37,2656.8547912000213,,,,,,,,,,,,,,,,,,,,,,,,,,,,,,2656.838804800005,2656.8547912000213,2657.338525500032,,,,,,,,,,,,,,2657.355247700005,,,,,,,,,,,2657.3488035000046,2657.355247700005,2657.355247700005,2657.355247700005,2660.3388474000385,None,2660.338882900018,2660.354870600044,2660.354870600044,2661.888961800025,j,1.52594780002255,None,2660.354870600044,2660.354870600044,2660.354870600044,,,,,,,,,,,,00058,001,2026-01-19_10h33.30.310,MST_task,2024.2.0,59.98936987255245,2026-01-19 10h33.41.475002 +0530,
,Objects\134a.jpg,38,0,39,,,,,None,j,1.97098530002404,None,,,,,,39,0,38,2661.9048941000365,,,,,,,,,,,,,,,,,,,,,,,,,,,,,,2661.889095999999,2661.9048941000365,2662.3885474000126,,,,,,,,,,,,,,2662.4051406999934,,,,,,,,,,,2662.398494400026,2662.4051406999934,2662.4051406999934,2662.4051406999934,2665.3888371000066,None,2665.3888754000072,2665.405125999998,2665.405125999998,2667.388627700042,j,1.97098530002404,None,2665.405125999998,2665.405125999998,2665.405125999998,,,,,,,,,,,,00058,001,2026-01-19_10h33.30.310,MST_task,2024.2.0,59.98936987255245,2026-01-19 10h33.41.475002 +0530,
,Objects\042a.jpg,39,0,40,,,,,None,j,3.5192285000230186,None,,,,,,40,0,39,2667.4048430999974,,,,,,,,,,,,,,,,,,,,,,,,,,,,,,2667.388744099997,2667.4048430999974,2667.8884634000133,,,,,,,,,,,,,,2667.905237000028,,,,,,,,,,,2667.898382500047,2667.905237000028,2667.905237000028,2667.905237000028,2670.8890412000474,None,2670.8890862000408,2670.9048889999976,2670.9048889999976,2674.43862000003,j,3.5192285000230186,None,2670.9048889999976,2670.9048889999976,2670.9048889999976,,,,,,,,,,,,00058,001,2026-01-19_10h33.30.310,MST_task,2024.2.0,59.98936987255245,2026-01-19 10h33.41.475002 +0530,
,Objects\102a.jpg,40,0,41,,,,,None,f,1.7341214999905787,None,,,,,,41,0,40,2674.4548324000207,,,,,,,,,,,,,,,,,,,,,,,,,,,,,,2674.438704900036,2674.4548324000207,2674.9385605000425,,,,,,,,,,,,,,2674.9553120000055,,,,,,,,,,,2674.9486704000155,2674.9553120000055,2674.9553120000055,2674.9553120000055,2677.938896000036,None,2677.938935000042,2677.9549874000368,2677.9549874000368,2679.7054249000503,f,1.7341214999905787,None,2677.9549874000368,2677.9549874000368,2677.9549874000368,,,,,,,,,,,,00058,001,2026-01-19_10h33.30.310,MST_task,2024.2.0,59.98936987255245,2026-01-19 10h33.41.475002 +0530,
,Objects\081a.jpg,41,0,42,,,,,None,j,12.83493680000538,None,,,,,,42,0,41,2679.721720600035,,,,,,,,,,,,,,,,,,,,,,,,,,,,,,2679.705513300025,2679.721720600035,2680.2052950999932,,,,,,,,,,,,,,2680.2219786000205,,,,,,,,,,,2680.2151654000045,2680.2219786000205,2680.2219786000205,2680.2219786000205,2683.205590300029,None,2683.20564,2683.221725100011,2683.221725100011,2696.07210390002,j,12.83493680000538,None,2683.221725100011,2683.221725100011,2683.221725100011,,,,,,,,,,,,00058,001,2026-01-19_10h33.30.310,MST_task,2024.2.0,59.98936987255245,2026-01-19 10h33.41.475002 +0530,
,Scenes\145a.jpg,42,0,43,,,,,None,j,1.0201166999759153,None,,,,,,43,0,42,2696.088401200017,,,,,,,,,,,,,,,,,,,,,,,,,,,,,,2696.0721944000106,2696.088401200017,2696.5719546000473,,,,,,,,,,,,,,2696.5954106000136,,,,,,,,,,,2696.5927766000386,2696.5954106000136,2696.5954106000136,2696.5954106000136,2699.5887603000156,None,2699.5911120999954,2699.6050847000442,2699.6050847000442,2700.639130900032,j,1.0201166999759153,None,,,,,,,,,,,,,,,00058,001,2026-01-19_10h33.30.310,MST_task,2024.2.0,59.98936987255245,2026-01-19 10h33.41.475002 +0530,
,Scenes\066a.jpg,43,0,44,,,,,None,j,1.1738229999900796,None,,,,,,44,0,43,2700.655108500039,,,,,,,,,,,,,,,,,,,,,,,,,,,,,,2700.639277500042,2700.655108500039,2701.138873500051,,,,,,,,,,,,,,2701.1554093000013,,,,,,,,,,,2701.150443100021,2701.1554093000013,2701.1554093000013,2701.1554093000013,2704.1389685000177,None,2704.139005300007,2704.1549994000234,2704.1549994000234,2705.338853800029,j,1.1738229999900796,None,2704.1549994000234,2704.1549994000234,2704.1549994000234,,,,,,,,,,,,00058,001,2026-01-19_10h33.30.310,MST_task,2024.2.0,59.98936987255245,2026-01-19 10h33.41.475002 +0530,
,Scenes\042a.jpg,44,0,45,,,,,None,j,1.3771259000059217,None,,,,,,45,0,44,2705.3549574000062,,,,,,,,,,,,,,,,,,,,,,,,,,,,,,2705.338969800039,2705.3549574000062,2705.8386526000104,,,,,,,,,,,,,,2705.8582922000205,,,,,,,,,,,2705.8561366000213,2705.8582922000205,2705.8582922000205,2705.8582922000205,2708.838979299995,None,2708.839026200003,2708.8549540000386,2708.8549540000386,2710.2388628000044,j,1.3771259000059217,None,,,,,,,,,,,,,,,00058,001,2026-01-19_10h33.30.310,MST_task,2024.2.0,59.98936987255245,2026-01-19 10h33.41.475002 +0530,
,Scenes\142a.jpg,45,0,46,,,,,None,j,1.0606595000135712,None,,,,,,46,0,45,2710.2549628000124,,,,,,,,,,,,,,,,,,,,,,,,,,,,,,2710.238962100004,2710.2549628000124,2710.738595600007,,,,,,,,,,,,,,2710.759361100034,,,,,,,,,,,2710.757019300014,2710.759361100034,2710.759361100034,2710.759361100034,2713.755342599994,None,2713.7553847000236,2713.771783700038,2713.771783700038,2714.838815600029,j,1.0606595000135712,None,,,,,,,,,,,,,,,00058,001,2026-01-19_10h33.30.310,MST_task,2024.2.0,59.98936987255245,2026-01-19 10h33.41.475002 +0530,
,Scenes\100a.jpg,46,0,47,,,,,None,f,0.76518450002186,None,,,,,,47,0,46,2714.8550747000263,,,,,,,,,,,,,,,,,,,,,,,,,,,,,,2714.838933799998,2714.8550747000263,2715.3386583999963,,,,,,,,,,,,,,2715.3576461000484,,,,,,,,,,,2715.355206300039,2715.3576461000484,2715.3576461000484,2715.3576461000484,2718.3553346000263,None,2718.355373200029,2718.3717387000215,2718.3717387000215,2719.138874199998,f,0.76518450002186,None,,,,,,,,,,,,,,,00058,001,2026-01-19_10h33.30.310,MST_task,2024.2.0,59.98936987255245,2026-01-19 10h33.41.475002 +0530,
,Scenes\160a.jpg,47,0,48,,,,,None,j,0.7762475000345148,None,,,,,,48,0,47,2719.155007000023,,,,,,,,,,,,,,,,,,,,,,,,,,,,,,2719.1389944000402,2719.155007000023,2719.6386657000403,,,,,,,,,,,,,,2719.656493300048,,,,,,,,,,,2719.6541526000365,2719.656493300048,2719.656493300048,2719.656493300048,2722.6553790000034,None,2722.6554170000018,2722.672124100034,2722.672124100034,2723.4555159000447,j,0.7762475000345148,None,,,,,,,,,,,,,,,00058,001,2026-01-19_10h33.30.310,MST_task,2024.2.0,59.98936987255245,2026-01-19 10h33.41.475002 +0530,
,Scenes\034a.jpg,48,0,49,,,,,None,f,7.73249590001069,None,,,,,,49,0,48,2723.4717533999938,,,,,,,,,,,,,,,,,,,,,,,,,,,,,,2723.4556344000157,2723.4717533999938,2723.955741600017,,,,,,,,,,,,,,2723.9793989000027,,,,,,,,,,,2723.976972000033,2723.9793989000027,2723.9793989000027,2723.9793989000027,2726.9720438000513,None,2726.9720815000474,2726.9885085000424,2726.9885085000424,2734.722128900001,f,7.73249590001069,None,,,,,,,,,,,,,,,00058,001,2026-01-19_10h33.30.310,MST_task,2024.2.0,59.98936987255245,2026-01-19 10h33.41.475002 +0530,
,Objects\008a.jpg,49,0,50,,,,,None,f,1.3546117000514641,None,,,,,,50,0,49,2734.738301400037,,,,,,,,,,,,,,,,,,,,,,,,,,,,,,2734.722254100023,2734.738301400037,2735.221911600034,,,,,,,,,,,,,,2735.2388697999995,,,,,,,,,,,2735.234889000014,2735.2388697999995,2735.2388697999995,2735.2388697999995,2738.22238630004,None,2738.2244087000145,2738.2383324000402,2738.2383324000402,2739.605233900016,f,1.3546117000514641,None,2738.2383324000402,2738.2383324000402,2738.2383324000402,,,,,,,,,,,,00058,001,2026-01-19_10h33.30.310,MST_task,2024.2.0,59.98936987255245,2026-01-19 10h33.41.475002 +0530,
,Objects\111a.jpg,50,0,51,,,,,None,j,6.030481499969028,None,,,,,,51,0,50,2739.621638600016,,,,,,,,,,,,,,,,,,,,,,,,,,,,,,2739.605355900014,2739.621638600016,2740.1050759000354,,,,,,,,,,,,,,2740.121918400051,,,,,,,,,,,2740.1150280000293,2740.121918400051,2740.121918400051,2740.121918400051,2743.1053544000024,None,2743.1053928000038,2743.121660100005,2743.121660100005,2749.155264400004,j,6.030481499969028,None,2743.121660100005,2743.121660100005,2743.121660100005,,,,,,,,,,,,00058,001,2026-01-19_10h33.30.310,MST_task,2024.2.0,59.98936987255245,2026-01-19 10h33.41.475002 +0530,
,Objects\001a.jpg,51,0,52,,,,,None,f,0.5457015999709256,None,,,,,,52,0,51,2749.171643400041,,,,,,,,,,,,,,,,,,,,,,,,,,,,,,2749.155385899998,2749.171643400041,2749.655263599998,,,,,,,,,,,,,,2749.671897000051,,,,,,,,,,,2749.6650398000493,2749.671897000051,2749.671897000051,2749.671897000051,2752.655327400018,None,2752.6553654000163,2752.6716622000095,2752.6716622000095,2753.222255200031,f,0.5457015999709256,None,2752.6716622000095,2752.6716622000095,2752.6716622000095,,,,,,,,,,,,00058,001,2026-01-19_10h33.30.310,MST_task,2024.2.0,59.98936987255245,2026-01-19 10h33.41.475002 +0530,
,Objects\106a.jpg,52,0,53,,,,,None,f,1.0381370999966748,None,,,,,,53,0,52,2753.238408000034,,,,,,,,,,,,,,,,,,,,,,,,,,,,,,2753.2223553000367,2753.238408000034,2753.721974300046,,,,,,,,,,,,,,2753.7385656000115,,,,,,,,,,,2753.7316676000482,2753.7385656000115,2753.7385656000115,2753.7385656000115,2756.7221355999936,None,2756.722175600007,2756.738320000004,2756.738320000004,2757.788980900019,f,1.0381370999966748,None,2756.738320000004,2756.738320000004,2756.738320000004,,,,,,,,,,,,00058,001,2026-01-19_10h33.30.310,MST_task,2024.2.0,59.98936987255245,2026-01-19 10h33.41.475002 +0530,
,Objects\156a.jpg,53,0,54,,,,,None,f,0.5757250000024214,None,,,,,,54,0,53,2757.8050737000303,,,,,,,,,,,,,,,,,,,,,,,,,,,,,,2757.7891245000064,2757.8050737000303,2758.2885699000326,,,,,,,,,,,,,,2758.305102800019,,,,,,,,,,,2758.2984362000134,2758.305102800019,2758.305102800019,2758.305102800019,2761.2890383000486,None,2761.289080800023,2761.3049269000185,2761.3049269000185,2761.8888127999962,f,0.5757250000024214,None,2761.3049269000185,2761.3049269000185,2761.3049269000185,,,,,,,,,,,,00058,001,2026-01-19_10h33.30.310,MST_task,2024.2.0,59.98936987255245,2026-01-19 10h33.41.475002 +0530,
,Objects\080a.jpg,54,0,55,,,,,None,f,0.540004099952057,None,,,,,,55,0,54,2761.9048749000067,,,,,,,,,,,,,,,,,,,,,,,,,,,,,,2761.888899900019,2761.9048749000067,2762.3885959000327,,,,,,,,,,,,,,2762.405097300012,,,,,,,,,,,2762.3988418999943,2762.405097300012,2762.405097300012,2762.405097300012,2765.388851800002,None,2765.3888903000043,2765.404875200009,2765.404875200009,2765.9553216000204,f,0.540004099952057,None,2765.404875200009,2765.404875200009,2765.404875200009,,,,,,,,,,,,00058,001,2026-01-19_10h33.30.310,MST_task,2024.2.0,59.98936987255245,2026-01-19 10h33.41.475002 +0530,
,Objects\145a.jpg,55,0,56,,,,,None,f,0.9612549000303261,None,,,,,,56,0,55,2765.9716453000437,,,,,,,,,,,,,,,,,,,,,,,,,,,,,,2765.9554057000205,2765.9716453000437,2766.4550953000435,,,,,,,,,,,,,,2766.47190600005,,,,,,,,,,,2766.466720700031,2766.47190600005,2766.47190600005,2766.47190600005,2769.4554414000013,None,2769.455481700017,2769.4716919000493,2769.4716919000493,2770.438657300023,f,0.9612549000303261,None,2769.4716919000493,2769.4716919000493,2769.4716919000493,,,,,,,,,,,,00058,001,2026-01-19_10h33.30.310,MST_task,2024.2.0,59.98936987255245,2026-01-19 10h33.41.475002 +0530,
,Scenes\176a.jpg,56,0,57,,,,,None,j,1.3087888999725692,None,,,,,,57,0,56,2770.454817700025,,,,,,,,,,,,,,,,,,,,,,,,,,,,,,2770.4387767000007,2770.454817700025,2770.9385203000274,,,,,,,,,,,,,,2770.9621074000024,,,,,,,,,,,2770.959824600024,2770.9621074000024,2770.9621074000024,2770.9621074000024,2773.955037000007,None,2773.956632400048,2773.9716539999936,2773.9716539999936,2775.288765800011,j,1.3087888999725692,None,,,,,,,,,,,,,,,00058,001,2026-01-19_10h33.30.310,MST_task,2024.2.0,59.98936987255245,2026-01-19 10h33.41.475002 +0530,
,Scenes\008a.jpg,57,0,58,,,,,None,j,2.116009999997914,None,,,,,,58,0,57,2775.304911300016,,,,,,,,,,,,,,,,,,,,,,,,,,,,,,2775.2888531000353,2775.304911300016,2775.7885605000192,,,,,,,,,,,,,,2775.8056867000414,,,,,,,,,,,2775.802792500006,2775.8056867000414,2775.8056867000414,2775.8056867000414,2778.7890972000314,None,2778.789140500012,2778.804989700031,2778.804989700031,2780.9222006000346,j,2.116009999997914,None,2778.804989700031,2778.804989700031,2778.804989700031,,,,,,,,,,,,00058,001,2026-01-19_10h33.30.310,MST_task,2024.2.0,59.98936987255245,2026-01-19 10h33.41.475002 +0530,
,Scenes\147a.jpg,58,0,59,,,,,None,j,0.98677769995993,None,,,,,,59,0,58,2780.9383010000456,,,,,,,,,,,,,,,,,,,,,,,,,,,,,,2780.922287900001,2780.9383010000456,2781.42202420003,,,,,,,,,,,,,,2781.438913699996,,,,,,,,,,,2781.4348447000375,2781.438913699996,2781.438913699996,2781.438913699996,2784.422262100037,None,2784.4222997000325,2784.438262800046,2784.438262800046,2785.4387838999974,j,0.98677769995993,None,2784.438262800046,2784.438262800046,2784.438262800046,,,,,,,,,,,,00058,001,2026-01-19_10h33.30.310,MST_task,2024.2.0,59.98936987255245,2026-01-19 10h33.41.475002 +0530,
,Scenes\152a.jpg,59,0,60,,,,,None,j,0.7418315999675542,None,,,,,,60,0,59,2785.4548603000003,,,,,,,,,,,,,,,,,,,,,,,,,,,,,,2785.438901300018,2785.4548603000003,2785.938797000039,,,,,,,,,,,,,,2785.9555376000353,,,,,,,,,,,2785.9531294000335,2785.9555376000353,2785.9555376000353,2785.9555376000353,2788.938868099998,None,2788.9389060999965,2788.954886900028,2788.954886900028,2789.705320100009,j,0.7418315999675542,None,2788.954886900028,2788.954886900028,2788.954886900028,,,,,,,,,,,,00058,001,2026-01-19_10h33.30.310,MST_task,2024.2.0,59.98936987255245,2026-01-19 10h33.41.475002 +0530,
,Scenes\070a.jpg,60,0,61,,,,,None,f,1.1146207000128925,None,,,,,,61,0,60,2789.7216894000303,,,,,,,,,,,,,,,,,,,,,,,,,,,,,,2789.7054377000313,2789.7216894000303,2790.2051078000222,,,,,,,,,,,,,,2790.2256244000164,,,,,,,,,,,2790.222966100031,2790.2256244000164,2790.2256244000164,2790.2256244000164,2793.2219545000116,None,2793.2219915000023,2793.23832470004,2793.23832470004,2794.355292000051,f,1.1146207000128925,None,,,,,,,,,,,,,,,00058,001,2026-01-19_10h33.30.310,MST_task,2024.2.0,59.98936987255245,2026-01-19 10h33.41.475002 +0530,
,Scenes\110a.jpg,61,0,62,,,,,None,j,2.2877893000259064,None,,,,,,62,0,61,2794.371652300004,,,,,,,,,,,,,,,,,,,,,,,,,,,,,,2794.3554115000297,2794.371652300004,2794.855347100005,,,,,,,,,,,,,,2794.8736345000216,,,,,,,,,,,2794.871283000044,2794.8736345000216,2794.8736345000216,2794.8736345000216,2797.8720140000223,None,2797.8720524000237,2797.8883514000336,2797.8883514000336,2800.18875890004,j,2.2877893000259064,None,,,,,,,,,,,,,,,00058,001,2026-01-19_10h33.30.310,MST_task,2024.2.0,59.98936987255245,2026-01-19 10h33.41.475002 +0530,
,Scenes\163a.jpg,62,0,63,,,,,None,j,1.895017100032419,None,,,,,,63,0,62,2800.2050599000067,,,,,,,,,,,,,,,,,,,,,,,,,,,,,,2800.188880200032,2800.2050599000067,2800.688736800046,,,,,,,,,,,,,,2800.705720900034,,,,,,,,,,,2800.7019572000136,2800.705720900034,2800.705720900034,2800.705720900034,2803.6889730000403,None,2803.6890102000325,2803.705165399995,2803.705165399995,2805.60533510003,j,1.895017100032419,None,2803.705165399995,2803.705165399995,2803.705165399995,,,,,,,,,,,,00058,001,2026-01-19_10h33.30.310,MST_task,2024.2.0,59.98936987255245,2026-01-19 10h33.41.475002 +0530,
,Objects\099a.jpg,63,0,64,,,,,None,f,1.5350226000300609,None,,,,,,64,0,63,2805.621650999994,,,,,,,,,,,,,,,,,,,,,,,,,,,,,,2805.6054647000274,2805.621650999994,2806.1053594000405,,,,,,,,,,,,,,2806.1222543000476,,,,,,,,,,,2806.1181950000464,2806.1222543000476,2806.1222543000476,2806.1222543000476,2809.105628899997,None,2809.1076880000182,2809.1217904000077,2809.1217904000077,2810.672171500046,f,1.5350226000300609,None,2809.1217904000077,2809.1217904000077,2809.1217904000077,,,,,,,,,,,,00058,001,2026-01-19_10h33.30.310,MST_task,2024.2.0,59.98936987255245,2026-01-19 10h33.41.475002 +0530,
,Objects\150a.jpg,64,0,65,,,,,None,f,2.3963248999789357,None,,,,,,65,0,64,2810.688704500033,,,,,,,,,,,,,,,,,,,,,,,,,,,,,,2810.6722550000413,2810.688704500033,2811.1720193999936,,,,,,,,,,,,,,2811.1887063000468,,,,,,,,,,,2811.182424800005,2811.1887063000468,2811.1887063000468,2811.1887063000468,2814.1725326000014,None,2814.1725745000294,2814.188428400026,2814.188428400026,2816.5888251000433,f,2.3963248999789357,None,2814.188428400026,2814.188428400026,2814.188428400026,,,,,,,,,,,,00058,001,2026-01-19_10h33.30.310,MST_task,2024.2.0,59.98936987255245,2026-01-19 10h33.41.475002 +0530,
,Objects\105a.jpg,65,0,66,,,,,None,f,0.6721984999603592,None,,,,,,66,0,65,2816.6050781999948,,,,,,,,,,,,,,,,,,,,,,,,,,,,,,2816.58891510003,2816.6050781999948,2817.0888046000036,,,,,,,,,,,,,,2817.1054032000247,,,,,,,,,,,2817.0985177000402,2817.1054032000247,2817.1054032000247,2817.1054032000247,2820.0888843000284,None,2820.088923500036,2820.1050909000332,2820.1050909000332,2820.7890473000007,f,0.6721984999603592,None,2820.1050909000332,2820.1050909000332,2820.1050909000332,,,,,,,,,,,,00058,001,2026-01-19_10h33.30.310,MST_task,2024.2.0,59.98936987255245,2026-01-19 10h33.41.475002 +0530,
,Objects\176a.jpg,66,0,67,,,,,None,j,0.6316656999988481,None,,,,,,67,0,66,2820.8050064000417,,,,,,,,,,,,,,,,,,,,,,,,,,,,,,2820.789141200017,2820.8050064000417,2821.288657500001,,,,,,,,,,,,,,2821.3052477000165,,,,,,,,,,,2821.2988050000276,2821.3052477000165,2821.3052477000165,2821.3052477000165,2824.288962599996,None,2824.2890009999974,2824.305132600013,2824.305132600013,2824.9388200000394,j,0.6316656999988481,None,2824.305132600013,2824.305132600013,2824.305132600013,,,,,,,,,,,,00058,001,2026-01-19_10h33.30.310,MST_task,2024.2.0,59.98936987255245,2026-01-19 10h33.41.475002 +0530,
,Objects\036a.jpg,67,0,68,,,,,None,f,1.3936530000064522,None,,,,,,68,0,67,2824.954852499999,,,,,,,,,,,,,,,,,,,,,,,,,,,,,,2824.938934500038,2824.954852499999,2825.438631500001,,,,,,,,,,,,,,2825.455194100039,,,,,,,,,,,2825.4490605000174,2825.455194100039,2825.455194100039,2825.455194100039,2828.4388043000363,None,2828.438840000017,2828.454927600047,2828.454927600047,2829.855331300001,f,1.3936530000064522,None,2828.454927600047,2828.454927600047,2828.454927600047,,,,,,,,,,,,00058,001,2026-01-19_10h33.30.310,MST_task,2024.2.0,59.98936987255245,2026-01-19 10h33.41.475002 +0530,
,Objects\122a.jpg,68,0,69,,,,,None,f,0.7092229999834672,None,,,,,,69,0,68,2829.8716857000254,,,,,,,,,,,,,,,,,,,,,,,,,,,,,,2829.855417500017,2829.8716857000254,2830.3551201000228,,,,,,,,,,,,,,2830.371858700004,,,,,,,,,,,2830.366501900018,2830.371858700004,2830.371858700004,2830.371858700004,2833.3555611000047,None,2833.355599900009,2833.3716915000114,2833.3716915000114,2834.0887550000334,f,0.7092229999834672,None,2833.3716915000114,2833.3716915000114,2833.3716915000114,,,,,,,,,,,,00058,001,2026-01-19_10h33.30.310,MST_task,2024.2.0,59.98936987255245,2026-01-19 10h33.41.475002 +0530,
,Objects\069a.jpg,69,0,70,,,,,None,j,2.8201732999878004,None,,,,,,70,0,69,2834.10483820003,,,,,,,,,,,,,,,,,,,,,,,,,,,,,,2834.088851800014,2834.10483820003,2834.58861060004,,,,,,,,,,,,,,2834.605202000006,,,,,,,,,,,2834.5993219999946,2834.605202000006,2834.605202000006,2834.605202000006,2837.5888365000137,None,2837.588874000008,2837.604970000044,2837.604970000044,2840.4386916000512,j,2.8201732999878004,None,2837.604970000044,2837.604970000044,2837.604970000044,,,,,,,,,,,,00058,001,2026-01-19_10h33.30.310,MST_task,2024.2.0,59.98936987255245,2026-01-19 10h33.41.475002 +0530,
,Scenes\052a.jpg,70,0,71,,,,,None,j,1.4603731000097468,None,,,,,,71,0,70,2840.4548802000354,,,,,,,,,,,,,,,,,,,,,,,,,,,,,,2840.4388087000116,2840.4548802000354,2840.938637800049,,,,,,,,,,,,,,2840.958412100037,,,,,,,,,,,2840.9558715000167,2840.958412100037,2840.958412100037,2840.958412100037,2843.9552423999994,None,2843.9568475999986,2843.9716977000353,2843.9716977000353,2845.438888500037,j,1.4603731000097468,None,,,,,,,,,,,,,,,00058,001,2026-01-19_10h33.30.310,MST_task,2024.2.0,59.98936987255245,2026-01-19 10h33.41.475002 +0530,
,Scenes\112a.jpg,71,0,72,,,,,None,j,0.8530110999708995,None,,,,,,72,0,71,2845.455053600017,,,,,,,,,,,,,,,,,,,,,,,,,,,,,,2845.4389895000495,2845.455053600017,2845.9385689000483,,,,,,,,,,,,,,2845.956172300037,,,,,,,,,,,2845.9537104000337,2845.956172300037,2845.956172300037,2845.956172300037,2848.9550750000053,None,2848.9551116999937,2848.9717079999973,2848.9717079999973,2849.838775800017,j,0.8530110999708995,None,,,,,,,,,,,,,,,00058,001,2026-01-19_10h33.30.310,MST_task,2024.2.0,59.98936987255245,2026-01-19 10h33.41.475002 +0530,
,Scenes\009a.jpg,72,0,73,,,,,None,f,0.6290293000056408,None,,,,,,73,0,72,2849.854886300047,,,,,,,,,,,,,,,,,,,,,,,,,,,,,,2849.8388611000264,2849.854886300047,2850.3385478000273,,,,,,,,,,,,,,2850.359062500007,,,,,,,,,,,2850.3565006999997,2850.359062500007,2850.359062500007,2850.359062500007,2853.3552034000168,None,2853.3552420000196,2853.3716230000136,2853.3716230000136,2854.0053678000113,f,0.6290293000056408,None,,,,,,,,,,,,,,,00058,001,2026-01-19_10h33.30.310,MST_task,2024.2.0,59.98936987255245,2026-01-19 10h33.41.475002 +0530,
,Scenes\114a.jpg,73,0,74,,,,,None,f,0.6065137999830768,None,,,,,,74,0,73,2854.0216853000456,,,,,,,,,,,,,,,,,,,,,,,,,,,,,,2854.0054536000243,2854.0216853000456,2854.5051012000185,,,,,,,,,,,,,,2854.5272783000255,,,,,,,,,,,2854.5248088000226,2854.5272783000255,2854.5272783000255,2854.5272783000255,2857.5219258000143,None,2857.5219639000134,2857.538345100009,2857.538345100009,2858.155310400005,f,0.6065137999830768,None,,,,,,,,,,,,,,,00058,001,2026-01-19_10h33.30.310,MST_task,2024.2.0,59.98936987255245,2026-01-19 10h33.41.475002 +0530,
,Scenes\080a.jpg,74,0,75,,,,,None,j,0.576515999971889,None,,,,,,75,0,74,2858.17166750005,,,,,,,,,,,,,,,,,,,,,,,,,,,,,,2858.1554279000266,2858.17166750005,2858.655231600045,,,,,,,,,,,,,,2858.672247700044,,,,,,,,,,,2858.6694700000226,2858.672247700044,2858.672247700044,2858.672247700044,2861.655517700012,None,2861.6555547000025,2861.6716950000264,2861.6716950000264,2862.255378400034,j,0.576515999971889,None,2861.6716950000264,2861.6716950000264,2861.6716950000264,,,,,,,,,,,,00058,001,2026-01-19_10h33.30.310,MST_task,2024.2.0,59.98936987255245,2026-01-19 10h33.41.475002 +0530,
,Scenes\002a.jpg,75,0,76,,,,,None,j,1.1406318999943323,None,,,,,,76,0,75,2862.2717028000043,,,,,,,,,,,,,,,,,,,,,,,,,,,,,,2862.255496400001,2862.2717028000043,2862.755178600026,,,,,,,,,,,,,,2862.7782013000106,,,,,,,,,,,2862.7754848000477,2862.7782013000106,2862.7782013000106,2862.7782013000106,2865.7719489000156,None,2865.771986000007,2865.7882774000173,2865.7882774000173,2866.9387582000345,j,1.1406318999943323,None,,,,,,,,,,,,,,,00058,001,2026-01-19_10h33.30.310,MST_task,2024.2.0,59.98936987255245,2026-01-19 10h33.41.475002 +0530,
,Scenes\004a.jpg,76,0,77,,,,,None,j,0.521188999991864,None,,,,,,77,0,76,2866.9548404000234,,,,,,,,,,,,,,,,,,,,,,,,,,,,,,2866.9388870000257,2866.9548404000234,2867.438627800031,,,,,,,,,,,,,,2867.45908890001,,,,,,,,,,,2867.456538700033,2867.45908890001,2867.45908890001,2867.45908890001,2870.455071800039,None,2870.455108700029,2870.4716828000383,2870.4716828000383,2871.005460300017,j,0.521188999991864,None,,,,,,,,,,,,,,,00058,001,2026-01-19_10h33.30.310,MST_task,2024.2.0,59.98936987255245,2026-01-19 10h33.41.475002 +0530,
,Objects\083a.jpg,77,0,78,,,,,None,f,0.270606099977158,None,,,,,,78,0,77,2871.0217438000254,,,,,,,,,,,,,,,,,,,,,,,,,,,,,,2871.0056007000385,2871.0217438000254,2871.5053637000383,,,,,,,,,,,,,,2871.522174600046,,,,,,,,,,,2871.51803950005,2871.522174600046,2871.522174600046,2871.522174600046,2874.5056433000136,None,2874.507690300001,2874.5217039000127,2874.5217039000127,2874.80538840004,f,0.270606099977158,None,2874.5217039000127,2874.5217039000127,2874.5217039000127,,,,,,,,,,,,00058,001,2026-01-19_10h33.30.310,MST_task,2024.2.0,59.98936987255245,2026-01-19 10h33.41.475002 +0530,
,Objects\189a.jpg,78,0,79,,,,,None,j,0.870669599971734,None,,,,,,79,0,78,2874.821644300013,,,,,,,,,,,,,,,,,,,,,,,,,,,,,,2874.805469700019,2874.821644300013,2875.30533860001,,,,,,,,,,,,,,2875.3219612000394,,,,,,,,,,,2875.316170200007,2875.3219612000394,2875.3219612000394,2875.3219612000394,2878.305345200002,None,2878.3053830999997,2878.3216978000128,2878.3216978000128,2879.2053973000147,j,0.870669599971734,None,2878.3216978000128,2878.3216978000128,2878.3216978000128,,,,,,,,,,,,00058,001,2026-01-19_10h33.30.310,MST_task,2024.2.0,59.98936987255245,2026-01-19 10h33.41.475002 +0530,
,Objects\118a.jpg,79,0,80,,,,,None,f,0.42328400001861155,None,,,,,,80,0,79,2879.2216185000143,,,,,,,,,,,,,,,,,,,,,,,,,,,,,,2879.2055142000318,2879.2216185000143,2879.705300200032,,,,,,,,,,,,,,2879.721971700026,,,,,,,,,,,2879.7163177000475,2879.721971700026,2879.721971700026,2879.721971700026,2882.7054144000285,None,2882.705452400027,2882.7216985000414,2882.7216985000414,2883.1552933000494,f,0.42328400001861155,None,2882.7216985000414,2882.7216985000414,2882.7216985000414,,,,,,,,,,,,00058,001,2026-01-19_10h33.30.310,MST_task,2024.2.0,59.98936987255245,2026-01-19 10h33.41.475002 +0530,
,Objects\048a.jpg,80,0,81,,,,,None,j,0.5847084000124596,None,,,,,,81,0,80,2883.1716808000347,,,,,,,,,,,,,,,,,,,,,,,,,,,,,,2883.1553754000342,2883.1716808000347,2883.655278399994,,,,,,,,,,,,,,2883.6719647000427,,,,,,,,,,,2883.6648216000176,2883.6719647000427,2883.6719647000427,2883.6719647000427,2886.6555385999964,None,2886.655575200042,2886.671630900004,2886.671630900004,2887.2720214000437,j,0.5847084000124596,None,2886.671630900004,2886.671630900004,2886.671630900004,,,,,,,,,,,,00058,001,2026-01-19_10h33.30.310,MST_task,2024.2.0,59.98936987255245,2026-01-19 10h33.41.475002 +0530,
,Objects\131a.jpg,81,0,82,,,,,None,f,1.308654699998442,None,,,,,,82,0,81,2887.2883445000043,,,,,,,,,,,,,,,,,,,,,,,,,,,,,,2887.2721114000306,2887.2883445000043,2887.7718618999934,,,,,,,,,,,,,,2887.7885274,,,,,,,,,,,2887.784057200013,2887.7885274,2887.7885274,2887.7885274,2890.772275800002,None,2890.7723162000184,2890.7882969000493,2890.7882969000493,2892.1052083999966,f,1.308654699998442,None,2890.7882969000493,2890.7882969000493,2890.7882969000493,,,,,,,,,,,,00058,001,2026-01-19_10h33.30.310,MST_task,2024.2.0,59.98936987255245,2026-01-19 10h33.41.475002 +0530,
,Objects\063a.jpg,82,0,83,,,,,None,f,0.5477161000017077,None,,,,,,83,0,82,2892.121682900004,,,,,,,,,,,,,,,,,,,,,,,,,,,,,,2892.105293200002,2892.121682900004,2892.6051089999964,,,,,,,,,,,,,,2892.6219782000408,,,,,,,,,,,2892.6170067000203,2892.6219782000408,2892.6219782000408,2892.6219782000408,2895.605355500011,None,2895.6053933000076,2895.6216990000103,2895.6216990000103,2896.1721069000196,f,0.5477161000017077,None,2895.6216990000103,2895.6216990000103,2895.6216990000103,,,,,,,,,,,,00058,001,2026-01-19_10h33.30.310,MST_task,2024.2.0,59.98936987255245,2026-01-19 10h33.41.475002 +0530,
,Objects\177a.jpg,83,0,84,,,,,None,j,0.5519799999892712,None,,,,,,84,0,83,2896.188354800048,,,,,,,,,,,,,,,,,,,,,,,,,,,,,,2896.172226499999,2896.188354800048,2896.67200390005,,,,,,,,,,,,,,2896.6885755000403,,,,,,,,,,,2896.6818139000097,2896.6885755000403,2896.6885755000403,2896.6885755000403,2899.6721841000253,None,2899.6722208000137,2899.6883813000168,2899.6883813000168,2900.255368300015,j,0.5519799999892712,None,2899.6883813000168,2899.6883813000168,2899.6883813000168,,,,,,,,,,,,00058,001,2026-01-19_10h33.30.310,MST_task,2024.2.0,59.98936987255245,2026-01-19 10h33.41.475002 +0530,
,Scenes\119a.jpg,84,0,85,,,,,None,j,0.4839935000054538,None,,,,,,85,0,84,2900.271631700045,,,,,,,,,,,,,,,,,,,,,,,,,,,,,,2900.255484500027,2900.271631700045,2900.7552873000386,,,,,,,,,,,,,,2900.7767076000455,,,,,,,,,,,2900.774372100015,2900.7767076000455,2900.7767076000455,2900.7767076000455,2903.7720969000366,None,2903.773954400036,2903.7885257000453,2903.7885257000453,2904.2887837000308,j,0.4839935000054538,None,,,,,,,,,,,,,,,00058,001,2026-01-19_10h33.30.310,MST_task,2024.2.0,59.98936987255245,2026-01-19 10h33.41.475002 +0530,
,Scenes\121a.jpg,85,0,86,,,,,None,j,0.4028064000303857,None,,,,,,86,0,85,2904.304938999994,,,,,,,,,,,,,,,,,,,,,,,,,,,,,,2904.2889032000094,2904.304938999994,2904.788959800033,,,,,,,,,,,,,,2904.809358300001,,,,,,,,,,,2904.8067561000353,2904.809358300001,2904.809358300001,2904.809358300001,2907.805143900041,None,2907.805181200034,2907.8216967000044,2907.8216967000044,2908.2390451999963,j,0.4028064000303857,None,,,,,,,,,,,,,,,00058,001,2026-01-19_10h33.30.310,MST_task,2024.2.0,59.98936987255245,2026-01-19 10h33.41.475002 +0530,
,Scenes\090a.jpg,86,0,87,,,,,None,j,3.2223984000156634,None,,,,,,87,0,86,2908.255130800011,,,,,,,,,,,,,,,,,,,,,,,,,,,,,,2908.2391815000447,2908.255130800011,2908.738653700042,,,,,,,,,,,,,,2908.759518000006,,,,,,,,,,,2908.757136900036,2908.759518000006,2908.759518000006,2908.759518000006,2911.755247000023,None,2911.7552892999956,2911.7716645000037,2911.7716645000037,2915.0054216000135,j,3.2223984000156634,None,,,,,,,,,,,,,,,00058,001,2026-01-19_10h33.30.310,MST_task,2024.2.0,59.98936987255245,2026-01-19 10h33.41.475002 +0530,
,Scenes\096a.jpg,87,0,88,,,,,None,j,0.503187499998603,None,,,,,,88,0,87,2915.0218006000505,,,,,,,,,,,,,,,,,,,,,,,,,,,,,,2915.0055403000442,2915.0218006000505,2915.505368300015,,,,,,,,,,,,,,2915.5223828000017,,,,,,,,,,,2915.5179715999984,2915.5223828000017,2915.5223828000017,2915.5223828000017,2918.5056704000453,None,2918.5057067000307,2918.5218176000053,2918.5218176000053,2919.0389522000332,j,0.503187499998603,None,2918.5218176000053,2918.5218176000053,2918.5218176000053,,,,,,,,,,,,00058,001,2026-01-19_10h33.30.310,MST_task,2024.2.0,59.98936987255245,2026-01-19 10h33.41.475002 +0530,
,Scenes\044a.jpg,88,0,89,,,,,None,f,1.6211665000300854,None,,,,,,89,0,88,2919.0551758999936,,,,,,,,,,,,,,,,,,,,,,,,,,,,,,2919.039078700007,2919.0551758999936,2919.5387112000026,,,,,,,,,,,,,,2919.5556241000304,,,,,,,,,,,2919.552820400044,2919.5556241000304,2919.5556241000304,2919.5556241000304,2922.539018500014,None,2922.5390591000323,2922.554975200037,2922.554975200037,2924.188778300013,f,1.6211665000300854,None,2922.554975200037,2922.554975200037,2922.554975200037,,,,,,,,,,,,00058,001,2026-01-19_10h33.30.310,MST_task,2024.2.0,59.98936987255245,2026-01-19 10h33.41.475002 +0530,
,Scenes\120a.jpg,89,0,90,,,,,None,j,0.519983800011687,None,,,,,,90,0,89,2924.205089700001,,,,,,,,,,,,,,,,,,,,,,,,,,,,,,2924.1888614000054,2924.205089700001,2924.6887432000367,,,,,,,,,,,,,,2924.7075179000385,,,,,,,,,,,2924.705062400026,2924.7075179000385,2924.7075179000385,2924.7075179000385,2927.7053648,None,2927.705406700028,2927.7217846999993,2927.7217846999993,2928.2554978000117,j,0.519983800011687,None,,,,,,,,,,,,,,,00058,001,2026-01-19_10h33.30.310,MST_task,2024.2.0,59.98936987255245,2026-01-19 10h33.41.475002 +0530,
,Scenes\025a.jpg,90,0,91,,,,,None,j,1.5242315999930725,None,,,,,,91,0,90,2928.2717709999997,,,,,,,,,,,,,,,,,,,,,,,,,,,,,,2928.2556161000393,2928.2717709999997,2928.755340600037,,,,,,,,,,,,,,2928.777081700042,,,,,,,,,,,2928.7744756000466,2928.777081700042,2928.777081700042,2928.777081700042,2931.772056000016,None,2931.7720922000008,2931.7884776000283,2931.7884776000283,2933.3221397000016,j,1.5242315999930725,None,,,,,,,,,,,,,,,00058,001,2026-01-19_10h33.30.310,MST_task,2024.2.0,59.98936987255245,2026-01-19 10h33.41.475002 +0530,
,Objects\180a.jpg,91,0,92,,,,,None,f,3.7937884000129998,None,,,,,,92,0,91,2933.33846540004,,,,,,,,,,,,,,,,,,,,,,,,,,,,,,2933.3222267000237,2933.33846540004,2933.822043900029,,,,,,,,,,,,,,2933.8390535000362,,,,,,,,,,,2933.8346003000042,2933.8390535000362,2933.8390535000362,2933.8390535000362,2936.822412400041,None,2936.8244539000443,2936.8384929000167,2936.8384929000167,2940.638864800043,f,3.7937884000129998,None,2936.8384929000167,2936.8384929000167,2936.8384929000167,,,,,,,,,,,,00058,001,2026-01-19_10h33.30.310,MST_task,2024.2.0,59.98936987255245,2026-01-19 10h33.41.475002 +0530,
,Objects\126a.jpg,92,0,93,,,,,None,j,4.230163800006267,None,,,,,,93,0,92,2940.6551241000416,,,,,,,,,,,,,,,,,,,,,,,,,,,,,,2940.6389496000484,2940.6551241000416,2941.138877600024,,,,,,,,,,,,,,2941.155367600033,,,,,,,,,,,2941.150155500043,2941.155367600033,2941.155367600033,2941.155367600033,2944.1390133000095,None,2944.1390528000193,2944.155060000019,2944.155060000019,2948.388970900036,j,4.230163800006267,None,2944.155060000019,2944.155060000019,2944.155060000019,,,,,,,,,,,,00058,001,2026-01-19_10h33.30.310,MST_task,2024.2.0,59.98936987255245,2026-01-19 10h33.41.475002 +0530,
,Objects\187a.jpg,93,0,94,,,,,None,f,0.44746029999805614,None,,,,,,94,0,93,2948.405024800042,,,,,,,,,,,,,,,,,,,,,,,,,,,,,,2948.3890572999953,2948.405024800042,2948.8887829000014,,,,,,,,,,,,,,2948.90538750001,,,,,,,,,,,2948.9008993000025,2948.90538750001,2948.90538750001,2948.90538750001,2951.8889872000436,None,2951.8890249000397,2951.9051594000193,2951.9051594000193,2952.3556023000274,f,0.44746029999805614,None,2951.9051594000193,2951.9051594000193,2951.9051594000193,,,,,,,,,,,,00058,001,2026-01-19_10h33.30.310,MST_task,2024.2.0,59.98936987255245,2026-01-19 10h33.41.475002 +0530,
,Objects\113a.jpg,94,0,95,,,,,None,f,0.4971172999939881,None,,,,,,95,0,94,2952.371731000021,,,,,,,,,,,,,,,,,,,,,,,,,,,,,,2952.355723000015,2952.371731000021,2952.8553713000147,,,,,,,,,,,,,,2952.871989300009,,,,,,,,,,,2952.8652794000227,2952.871989300009,2952.871989300009,2952.871989300009,2955.8557035000413,None,2955.8557415000396,2955.87174880004,2955.87174880004,2956.3722760000383,f,0.4971172999939881,None,2955.87174880004,2955.87174880004,2955.87174880004,,,,,,,,,,,,00058,001,2026-01-19_10h33.30.310,MST_task,2024.2.0,59.98936987255245,2026-01-19 10h33.41.475002 +0530,
,Objects\138a.jpg,95,0,96,,,,,None,j,1.9367697999696247,None,,,,,,96,0,95,2956.388478500012,,,,,,,,,,,,,,,,,,,,,,,,,,,,,,2956.372361100046,2956.388478500012,2956.8720955000026,,,,,,,,,,,,,,2956.8887042000424,,,,,,,,,,,2956.8816281000036,2956.8887042000424,2956.8887042000424,2956.8887042000424,2959.87229520001,None,2959.8723352000234,2959.8884894000366,2959.8884894000366,2961.8387940000393,j,1.9367697999696247,None,2959.8884894000366,2959.8884894000366,2959.8884894000366,,,,,,,,,,,,00058,001,2026-01-19_10h33.30.310,MST_task,2024.2.0,59.98936987255245,2026-01-19 10h33.41.475002 +0530,
,Objects\114a.jpg,96,0,97,,,,,None,f,0.3258849999983795,None,,,,,,97,0,96,2961.85507520003,,,,,,,,,,,,,,,,,,,,,,,,,,,,,,2961.8389163000393,2961.85507520003,2962.3386347000487,,,,,,,,,,,,,,2962.355190000031,,,,,,,,,,,2962.3484426000505,2962.355190000031,2962.355190000031,2962.355190000031,2965.3390630000504,None,2965.3391018999973,2965.355059100024,2965.355059100024,2965.688963900029,f,0.3258849999983795,None,2965.355059100024,2965.355059100024,2965.355059100024,,,,,,,,,,,,00058,001,2026-01-19_10h33.30.310,MST_task,2024.2.0,59.98936987255245,2026-01-19 10h33.41.475002 +0530,
,Objects\125a.jpg,97,0,98,,,,,None,j,0.5549250999465585,None,,,,,,98,0,97,2965.705055600032,,,,,,,,,,,,,,,,,,,,,,,,,,,,,,2965.6890466000186,2965.705055600032,2966.188935400045,,,,,,,,,,,,,,2966.2052433000063,,,,,,,,,,,2966.199328800023,2966.2052433000063,2966.2052433000063,2966.2052433000063,2969.1891262000427,None,2969.189166199998,2969.2051641000435,2969.2051641000435,2969.7722361000488,j,0.5549250999465585,None,2969.2051641000435,2969.2051641000435,2969.2051641000435,,,,,,,,,,,,00058,001,2026-01-19_10h33.30.310,MST_task,2024.2.0,59.98936987255245,2026-01-19 10h33.41.475002 +0530,
,Scenes\032a.jpg,98,0,99,,,,,None,j,0.511827899958007,None,,,,,,99,0,98,2969.7885679000174,,,,,,,,,,,,,,,,,,,,,,,,,,,,,,2969.772354500019,2969.7885679000174,2970.2720858000102,,,,,,,,,,,,,,2970.299163000018,,,,,,,,,,,2970.2966485000215,2970.299163000018,2970.299163000018,2970.299163000018,2973.288634700002,None,2973.2904425000306,2973.3050023000105,2973.3050023000105,2973.8222450000467,j,0.511827899958007,None,,,,,,,,,,,,,,,00058,001,2026-01-19_10h33.30.310,MST_task,2024.2.0,59.98936987255245,2026-01-19 10h33.41.475002 +0530,
,Scenes\083a.jpg,99,0,100,,,,,None,j,0.46961969998665154,None,,,,,,100,0,99,2973.838503100036,,,,,,,,,,,,,,,,,,,,,,,,,,,,,,2973.8223316000076,2973.838503100036,2974.3222703000065,,,,,,,,,,,,,,2974.3445451000007,,,,,,,,,,,2974.3420074000023,2974.3445451000007,2974.3445451000007,2974.3445451000007,2977.3386070000124,None,2977.338645300013,2977.354984000034,2977.354984000034,2977.8390848000417,j,0.46961969998665154,None,,,,,,,,,,,,,,,00058,001,2026-01-19_10h33.30.310,MST_task,2024.2.0,59.98936987255245,2026-01-19 10h33.41.475002 +0530,
,Scenes\081a.jpg,100,0,101,,,,,None,j,0.46977119997609407,None,,,,,,101,0,100,2977.855050000013,,,,,,,,,,,,,,,,,,,,,,,,,,,,,,2977.8392365000327,2977.855050000013,2978.3385336000356,,,,,,,,,,,,,,2978.358870099997,,,,,,,,,,,2978.3567198000383,2978.358870099997,2978.358870099997,2978.358870099997,2981.3551041000173,None,2981.3551410000073,2981.3717274999944,2981.3717274999944,2981.85535670002,j,0.46977119997609407,None,,,,,,,,,,,,,,,00058,001,2026-01-19_10h33.30.310,MST_task,2024.2.0,59.98936987255245,2026-01-19 10h33.41.475002 +0530,
,Scenes\039a.jpg,101,0,102,,,,,None,j,0.4769788999692537,None,,,,,,102,0,101,2981.8716436999966,,,,,,,,,,,,,,,,,,,,,,,,,,,,,,2981.85549300001,2981.8716436999966,2982.355189700029,,,,,,,,,,,,,,2982.3724504000274,,,,,,,,,,,2982.36966320005,2982.3724504000274,2982.3724504000274,2982.3724504000274,2985.355485100008,None,2985.3555234000087,2985.3717864000355,2985.3717864000355,2985.8553701000055,j,0.4769788999692537,None,2985.3717864000355,2985.3717864000355,2985.3717864000355,,,,,,,,,,,,00058,001,2026-01-19_10h33.30.310,MST_task,2024.2.0,59.98936987255245,2026-01-19 10h33.41.475002 +0530,
,Scenes\125a.jpg,102,0,103,,,,,None,j,0.4044059999869205,None,,,,,,103,0,102,2985.871743800002,,,,,,,,,,,,,,,,,,,,,,,,,,,,,,2985.855488500034,2985.871743800002,2986.355808100023,,,,,,,,,,,,,,,,,,,,,,,,,2986.3732052000123,2986.3755925000296,2986.3755925000296,2986.3755925000296,2989.3719546000357,None,2989.3719920000294,2989.3883858000045,2989.3883858000045,2989.8053190000355,j,0.4044059999869205,None,,,,,,,,,,,,,,,00058,001,2026-01-19_10h33.30.310,MST_task,2024.2.0,59.98936987255245,2026-01-19 10h33.41.475002 +0530,
,Scenes\061a.jpg,103,0,104,,,,,None,j,0.4153948000166565,None,,,,,,104,0,103,2989.821710899996,,,,,,,,,,,,,,,,,,,,,,,,,,,,,,2989.805437800009,2989.821710899996,2990.3051933000097,,,,,,,,,,,,,,2990.3222401000094,,,,,,,,,,,2990.318131600041,2990.3222401000094,2990.3222401000094,2990.3222401000094,2993.305546700023,None,2993.3055843000184,2993.321731400036,2993.321731400036,2993.73890440003,j,0.4153948000166565,None,2993.321731400036,2993.321731400036,2993.321731400036,,,,,,,,,,,,00058,001,2026-01-19_10h33.30.310,MST_task,2024.2.0,59.98936987255245,2026-01-19 10h33.41.475002 +0530,
,Scenes\161a.jpg,104,0,105,,,,,None,j,0.46515519998501986,None,,,,,,105,0,104,2993.7549114000285,,,,,,,,,,,,,,,,,,,,,,,,,,,,,,2993.7390203000396,2993.7549114000285,2994.238650000014,,,,,,,,,,,,,,2994.258203000005,,,,,,,,,,,2994.25581360003,2994.258203000005,2994.258203000005,2994.258203000005,2997.255399800022,None,2997.255445100018,2997.271794,2997.271794,2997.7388604000444,j,0.46515519998501986,None,,,,,,,,,,,,,,,00058,001,2026-01-19_10h33.30.310,MST_task,2024.2.0,59.98936987255245,2026-01-19 10h33.41.475002 +0530,
,Objects\147a.jpg,105,0,106,,,,,None,f,1.6254612999618985,None,,,,,,106,0,105,2997.7548725000233,,,,,,,,,,,,,,,,,,,,,,,,,,,,,,2997.7389801000245,2997.7548725000233,2998.238659000024,,,,,,,,,,,,,,2998.25544410001,,,,,,,,,,,2998.2514344000374,2998.25544410001,2998.25544410001,2998.25544410001,3001.2390788000193,None,3001.2410976000247,3001.2549373999937,3001.2549373999937,3002.8888837000122,f,1.6254612999618985,None,3001.2549373999937,3001.2549373999937,3001.2549373999937,,,,,,,,,,,,00058,001,2026-01-19_10h33.30.310,MST_task,2024.2.0,59.98936987255245,2026-01-19 10h33.41.475002 +0530,
,Objects\047a.jpg,106,0,107,,,,,None,f,0.6592344000237063,None,,,,,,107,0,106,3002.904974300007,,,,,,,,,,,,,,,,,,,,,,,,,,,,,,3002.888968000014,3002.904974300007,3003.3886170000187,,,,,,,,,,,,,,3003.405315800046,,,,,,,,,,,3003.398612000048,3003.405315800046,3003.405315800046,3003.405315800046,3006.388909200032,None,3006.3889479000354,3006.404997000005,3006.404997000005,3007.0721457000473,f,0.6592344000237063,None,3006.404997000005,3006.404997000005,3006.404997000005,,,,,,,,,,,,00058,001,2026-01-19_10h33.30.310,MST_task,2024.2.0,59.98936987255245,2026-01-19 10h33.41.475002 +0530,
,Objects\140a.jpg,107,0,108,,,,,None,j,0.5251376000232995,None,,,,,,108,0,107,3007.0883180000237,,,,,,,,,,,,,,,,,,,,,,,,,,,,,,3007.0722732000286,3007.0883180000237,3007.5721745000337,,,,,,,,,,,,,,3007.588630300015,,,,,,,,,,,3007.5830754000344,3007.588630300015,3007.588630300015,3007.588630300015,3010.572209100006,None,3010.5722470000037,3010.5884002000093,3010.5884002000093,3011.1220480000484,j,0.5251376000232995,None,3010.5884002000093,3010.5884002000093,3010.5884002000093,,,,,,,,,,,,00058,001,2026-01-19_10h33.30.310,MST_task,2024.2.0,59.98936987255245,2026-01-19 10h33.41.475002 +0530,
,Objects\141a.jpg,108,0,109,,,,,None,j,3.370422299951315,None,,,,,,109,0,108,3011.138388000021,,,,,,,,,,,,,,,,,,,,,,,,,,,,,,3011.1221308000386,3011.138388000021,3011.621894800046,,,,,,,,,,,,,,3011.638636799995,,,,,,,,,,,3011.6338999000145,3011.638636799995,3011.638636799995,3011.638636799995,3014.6224461999955,None,3014.622490800044,3014.638478800014,3014.638478800014,3018.022208200011,j,3.370422299951315,None,3014.638478800014,3014.638478800014,3014.638478800014,,,,,,,,,,,,00058,001,2026-01-19_10h33.30.310,MST_task,2024.2.0,59.98936987255245,2026-01-19 10h33.41.475002 +0530,
,Objects\044a.jpg,109,0,110,,,,,None,f,1.174599300022237,None,,,,,,110,0,109,3018.0383863000316,,,,,,,,,,,,,,,,,,,,,,,,,,,,,,3018.022296500043,3018.0383863000316,3018.52238520002,,,,,,,,,,,,,,3018.5387839000323,,,,,,,,,,,3018.535503500025,3018.5387839000323,3018.5387839000323,3018.5387839000323,3021.522868000029,None,3021.5229221000336,3021.538409700035,3021.538409700035,3022.7223038999946,f,1.174599300022237,None,3021.538409700035,3021.538409700035,3021.538409700035,,,,,,,,,,,,00058,001,2026-01-19_10h33.30.310,MST_task,2024.2.0,59.98936987255245,2026-01-19 10h33.41.475002 +0530,
,Objects\021a.jpg,110,0,111,,,,,None,j,1.8427113000070676,None,,,,,,111,0,110,3022.738314700022,,,,,,,,,,,,,,,,,,,,,,,,,,,,,,3022.7223883999977,3022.738314700022,3023.2219732000376,,,,,,,,,,,,,,3023.2386083000456,,,,,,,,,,,3023.232073799998,3023.2386083000456,3023.2386083000456,3023.2386083000456,3026.2225904000225,None,3026.222628700023,3026.238397600013,3026.238397600013,3028.0887459000223,j,1.8427113000070676,None,,,,,,,,,,,,,,,00058,001,2026-01-19_10h33.30.310,MST_task,2024.2.0,59.98936987255245,2026-01-19 10h33.41.475002 +0530,
,Objects\130a.jpg,111,0,112,,,,,None,j,0.8042820999980904,None,,,,,,112,0,111,3028.1048884000047,,,,,,,,,,,,,,,,,,,,,,,,,,,,,,3028.08883360005,3028.1048884000047,3028.5885573000414,,,,,,,,,,,,,,3028.6051544999937,,,,,,,,,,,3028.598632600042,3028.6051544999937,3028.6051544999937,3028.6051544999937,3031.5889530000277,None,3031.589008900046,3031.604894500051,3031.604894500051,3032.4222280000104,j,0.8042820999980904,None,3031.604894500051,3031.604894500051,3031.604894500051,,,,,,,,,,,,00058,001,2026-01-19_10h33.30.310,MST_task,2024.2.0,59.98936987255245,2026-01-19 10h33.41.475002 +0530,
,Scenes\065a.jpg,112,0,113,,,,,None,j,0.7175604000221938,None,,,,,,113,0,112,3032.438315700041,,,,,,,,,,,,,,,,,,,,,,,,,,,,,,3032.422314400028,3032.438315700041,3032.9220357000013,,,,,,,,,,,,,,3032.9404703000328,,,,,,,,,,,3032.9381802999997,3032.9404703000328,3032.9404703000328,3032.9404703000328,3035.9387674000463,None,3035.940373999998,3035.9551553000347,3035.9551553000347,3036.688936200051,j,0.7175604000221938,None,,,,,,,,,,,,,,,00058,001,2026-01-19_10h33.30.310,MST_task,2024.2.0,59.98936987255245,2026-01-19 10h33.41.475002 +0530,
,Scenes\093a.jpg,113,0,114,,,,,None,f,1.4429712999844924,None,,,,,,114,0,113,3036.705125700042,,,,,,,,,,,,,,,,,,,,,,,,,,,,,,3036.689055200026,3036.705125700042,3037.1887515000417,,,,,,,,,,,,,,3037.2080380000407,,,,,,,,,,,3037.2056142000365,3037.2080380000407,3037.2080380000407,3037.2080380000407,3040.2053403000464,None,3040.205377300037,3040.221801800013,3040.221801800013,3041.672226900002,f,1.4429712999844924,None,,,,,,,,,,,,,,,00058,001,2026-01-19_10h33.30.310,MST_task,2024.2.0,59.98936987255245,2026-01-19 10h33.41.475002 +0530,
,Scenes\136a.jpg,114,0,115,,,,,None,f,3.748221299960278,None,,,,,,115,0,114,3041.688484100043,,,,,,,,,,,,,,,,,,,,,,,,,,,,,,3041.6723457000335,3041.688484100043,3042.1720779000316,,,,,,,,,,,,,,3042.189125200035,,,,,,,,,,,3042.185590600013,3042.189125200035,3042.189125200035,3042.189125200035,3045.1726586000295,None,3045.1726975000347,3045.1886148000485,3045.1886148000485,3048.938982199994,f,3.748221299960278,None,3045.1886148000485,3045.1886148000485,3045.1886148000485,,,,,,,,,,,,00058,001,2026-01-19_10h33.30.310,MST_task,2024.2.0,59.98936987255245,2026-01-19 10h33.41.475002 +0530,
,Scenes\127a.jpg,115,0,116,,,,,None,j,0.5444175999728031,None,,,,,,116,0,115,3048.9550728000468,,,,,,,,,,,,,,,,,,,,,,,,,,,,,,3048.9391014000284,3048.9550728000468,3049.438898799999,,,,,,,,,,,,,,3049.4584418000304,,,,,,,,,,,3049.455860200047,3049.4584418000304,3049.4584418000304,3049.4584418000304,3052.455464700004,None,3052.4555027000024,3052.471854100004,3052.471854100004,3053.0223932000226,j,0.5444175999728031,None,,,,,,,,,,,,,,,00058,001,2026-01-19_10h33.30.310,MST_task,2024.2.0,59.98936987255245,2026-01-19 10h33.41.475002 +0530,
,Scenes\188a.jpg,116,0,117,,,,,None,j,0.4944549999781884,None,,,,,,117,0,116,3053.0384880000493,,,,,,,,,,,,,,,,,,,,,,,,,,,,,,3053.022509900038,3053.0384880000493,3053.5220717000193,,,,,,,,,,,,,,3053.539076999994,,,,,,,,,,,3053.535649700032,3053.539076999994,3053.539076999994,3053.539076999994,3056.5225301000173,None,3056.5225669000065,3056.538469800027,3056.538469800027,3057.038959700032,j,0.4944549999781884,None,3056.538469800027,3056.538469800027,3056.538469800027,,,,,,,,,,,,00058,001,2026-01-19_10h33.30.310,MST_task,2024.2.0,59.98936987255245,2026-01-19 10h33.41.475002 +0530,
,Scenes\113a.jpg,117,0,118,,,,,None,j,0.6061851999838836,None,,,,,,118,0,117,3057.055044100038,,,,,,,,,,,,,,,,,,,,,,,,,,,,,,3057.0390436000307,3057.055044100038,3057.5387416000012,,,,,,,,,,,,,,3057.555784700031,,,,,,,,,,,3057.5505542000174,3057.555784700031,3057.555784700031,3057.555784700031,3060.5390511000296,None,3060.5390896000317,3060.5551591000403,3060.5551591000403,3061.1724854000495,j,0.6061851999838836,None,3060.5551591000403,3060.5551591000403,3060.5551591000403,,,,,,,,,,,,00058,001,2026-01-19_10h33.30.310,MST_task,2024.2.0,59.98936987255245,2026-01-19 10h33.41.475002 +0530,
,Scenes\079a.jpg,118,0,119,,,,,None,j,2.0569447999587283,None,,,,,,119,0,118,3061.188579700014,,,,,,,,,,,,,,,,,,,,,,,,,,,,,,3061.1726193000213,3061.188579700014,3061.6720257000416,,,,,,,,,,,,,,3061.688983800006,,,,,,,,,,,3061.6847845000448,3061.688983800006,3061.688983800006,3061.688983800006,3064.6724908000324,None,3064.6725305000436,3064.688391200034,3064.688391200034,3066.755647300044,j,2.0569447999587283,None,3064.688391200034,3064.688391200034,3064.688391200034,,,,,,,,,,,,00058,001,2026-01-19_10h33.30.310,MST_task,2024.2.0,59.98936987255245,2026-01-19 10h33.41.475002 +0530,
,Objects\018a.jpg,119,0,120,,,,,None,j,7.08891200000653,None,,,,,,120,0,119,3066.7718734000227,,,,,,,,,,,,,,,,,,,,,,,,,,,,,,3066.7557821000228,3066.7718734000227,3067.2554344999953,,,,,,,,,,,,,,3067.2723766000126,,,,,,,,,,,3067.268378900015,3067.2723766000126,3067.2723766000126,3067.2723766000126,3070.2557499000104,None,3070.257876700023,3070.2718668000307,3070.2718668000307,3077.3722551999963,j,7.08891200000653,None,3070.2718668000307,3070.2718668000307,3070.2718668000307,,,,,,,,,,,,00058,001,2026-01-19_10h33.30.310,MST_task,2024.2.0,59.98936987255245,2026-01-19 10h33.41.475002 +0530,
,Objects\154a.jpg,120,0,121,,,,,None,j,0.7519725000020117,None,,,,,,121,0,120,3077.388513300044,,,,,,,,,,,,,,,,,,,,,,,,,,,,,,3077.3723410000093,3077.388513300044,3077.872075100022,,,,,,,,,,,,,,3077.8886308000074,,,,,,,,,,,3077.88370320003,3077.8886308000074,3077.8886308000074,3077.8886308000074,3080.8723079000483,None,3080.8723480000044,3080.8883704000036,3080.8883704000036,3081.6555949000176,j,0.7519725000020117,None,3080.8883704000036,3080.8883704000036,3080.8883704000036,,,,,,,,,,,,00058,001,2026-01-19_10h33.30.310,MST_task,2024.2.0,59.98936987255245,2026-01-19 10h33.41.475002 +0530,
,Objects\003a.jpg,121,0,122,,,,,None,j,9.460457200009841,None,,,,,,122,0,121,3081.6718391000177,,,,,,,,,,,,,,,,,,,,,,,,,,,,,,3081.655711700034,3081.6718391000177,3082.1552978000254,,,,,,,,,,,,,,3082.171982700005,,,,,,,,,,,3082.166025200044,3082.171982700005,3082.171982700005,3082.171982700005,3085.155578500009,None,3085.1556165000075,3085.171867600002,3085.171867600002,3094.6388480000314,j,9.460457200009841,None,3085.171867600002,3085.171867600002,3085.171867600002,,,,,,,,,,,,00058,001,2026-01-19_10h33.30.310,MST_task,2024.2.0,59.98936987255245,2026-01-19 10h33.41.475002 +0530,
,Objects\075a.jpg,122,0,123,,,,,None,f,0.43006780004361644,None,,,,,,123,0,122,3094.6550134000136,,,,,,,,,,,,,,,,,,,,,,,,,,,,,,3094.638935499999,3094.6550134000136,3095.1387132999953,,,,,,,,,,,,,,3095.1552601000294,,,,,,,,,,,3095.1491518000257,3095.1552601000294,3095.1552601000294,3095.1552601000294,3098.1389185000444,None,3098.1389558000374,3098.15492380003,3098.15492380003,3098.5887984000146,f,0.43006780004361644,None,3098.15492380003,3098.15492380003,3098.15492380003,,,,,,,,,,,,00058,001,2026-01-19_10h33.30.310,MST_task,2024.2.0,59.98936987255245,2026-01-19 10h33.41.475002 +0530,
,Objects\155a.jpg,123,0,124,,,,,None,f,0.4239166000043042,None,,,,,,124,0,123,3098.604897500016,,,,,,,,,,,,,,,,,,,,,,,,,,,,,,3098.5889259999967,3098.604897500016,3099.0886533000157,,,,,,,,,,,,,,3099.1051231000456,,,,,,,,,,,3099.0980682999943,3099.1051231000456,3099.1051231000456,3099.1051231000456,3102.088970800047,None,3102.0890083000413,3102.104968700034,3102.104968700034,3102.5388638000004,f,0.4239166000043042,None,3102.104968700034,3102.104968700034,3102.104968700034,,,,,,,,,,,,00058,001,2026-01-19_10h33.30.310,MST_task,2024.2.0,59.98936987255245,2026-01-19 10h33.41.475002 +0530,
,Objects\052a.jpg,124,0,125,,,,,None,f,0.40934110002126545,None,,,,,,125,0,124,3102.5549327000044,,,,,,,,,,,,,,,,,,,,,,,,,,,,,,3102.5389786000014,3102.5549327000044,3103.0386401000433,,,,,,,,,,,,,,3103.055125700019,,,,,,,,,,,3103.0487043000176,3103.055125700019,3103.055125700019,3103.055125700019,3106.0389190000133,None,3106.038956000004,3106.055036500038,3106.055036500038,3106.4721100000315,f,0.40934110002126545,None,3106.055036500038,3106.055036500038,3106.055036500038,,,,,,,,,,,,00058,001,2026-01-19_10h33.30.310,MST_task,2024.2.0,59.98936987255245,2026-01-19 10h33.41.475002 +0530,
,Objects\175a.jpg,125,0,126,,,,,None,f,0.5965838999836706,None,,,,,,126,0,125,3106.4884161000373,,,,,,,,,,,,,,,,,,,,,,,,,,,,,,3106.4721955000423,3106.4884161000373,3106.971934100031,,,,,,,,,,,,,,3106.98859600001,,,,,,,,,,,3106.98199130001,3106.98859600001,3106.98859600001,3106.98859600001,3109.972498200019,None,3109.972541199997,3109.988471000048,3109.988471000048,3110.588854200032,f,0.5965838999836706,None,3109.988471000048,3109.988471000048,3109.988471000048,,,,,,,,,,,,00058,001,2026-01-19_10h33.30.310,MST_task,2024.2.0,59.98936987255245,2026-01-19 10h33.41.475002 +0530,
,Scenes\084a.jpg,126,0,127,,,,,None,j,0.5424846999812871,None,,,,,,127,0,126,3110.604906500026,,,,,,,,,,,,,,,,,,,,,,,,,,,,,,3110.5889407000504,3110.604906500026,3111.0886582999956,,,,,,,,,,,,,,3111.1105769000133,,,,,,,,,,,3111.1081103000324,3111.1105769000133,3111.1105769000133,3111.1105769000133,3114.105292399996,None,3114.1069991000113,3114.1217752000084,3114.1217752000084,3114.672240700049,j,0.5424846999812871,None,,,,,,,,,,,,,,,00058,001,2026-01-19_10h33.30.310,MST_task,2024.2.0,59.98936987255245,2026-01-19 10h33.41.475002 +0530,
,Scenes\073a.jpg,127,0,128,,,,,None,j,0.2918101000250317,None,,,,,,128,0,127,3114.6887271000305,,,,,,,,,,,,,,,,,,,,,,,,,,,,,,3114.672361700039,3114.6887271000305,3115.172013500007,,,,,,,,,,,,,,3115.189619600016,,,,,,,,,,,3115.187357500021,3115.189619600016,3115.189619600016,3115.189619600016,3118.1886889000307,None,3118.188725600019,3118.2049434999935,3118.2049434999935,3118.5053887999966,j,0.2918101000250317,None,,,,,,,,,,,,,,,00058,001,2026-01-19_10h33.30.310,MST_task,2024.2.0,59.98936987255245,2026-01-19 10h33.41.475002 +0530,
,Scenes\103a.jpg,128,0,129,,,,,j,None,,,2.8624752999749035,0.08000680000986904,,,,129,0,128,3118.521760200034,,,,,,,,,,,,,,,,,,,,,,,,,,,,,,3118.5055103000486,3118.521760200034,3119.0052323000273,,,,,,,,,,,,,,3119.025764400023,,,,,,,,,,,3119.0234469000134,3119.025764400023,3119.025764400023,3119.025764400023,3122.0219970000326,j,3122.0220393000054,,,3122.0220510000363,None,,,,,,2.8624752999749035,0.08000680000986904,,,,,,,,,,00058,001,2026-01-19_10h33.30.310,MST_task,2024.2.0,59.98936987255245,2026-01-19 10h33.41.475002 +0530,
,Scenes\069a.jpg,129,0,130,,,,,None,j,0.3745874000014737,None,,,,,,130,0,129,3122.038363700034,,,,,,,,,,,,,,,,,,,,,,,,,,,,,,3122.022148600023,3122.038363700034,3122.52200300002,,,,,,,,,,,,,,3122.5389852999942,,,,,,,,,,,3122.5358985000057,3122.5389852999942,3122.5389852999942,3122.5389852999942,3125.522549999994,None,3125.5225938000367,3125.53847650002,3125.53847650002,3125.922232800047,j,0.3745874000014737,None,3125.53847650002,3125.53847650002,3125.53847650002,,,,,,,,,,,,00058,001,2026-01-19_10h33.30.310,MST_task,2024.2.0,59.98936987255245,2026-01-19 10h33.41.475002 +0530,
,Scenes\062a.jpg,130,0,131,,,,,None,j,0.40201099996920675,None,,,,,,131,0,130,3125.938389500021,,,,,,,,,,,,,,,,,,,,,,,,,,,,,,3125.922352100024,3125.938389500021,3126.421998200007,,,,,,,,,,,,,,3126.44256580004,,,,,,,,,,,3126.440238500014,3126.44256580004,3126.44256580004,3126.44256580004,3129.4386765999952,None,3129.438714100048,3129.4549199000467,3129.4549199000467,3129.8722680000355,j,0.40201099996920675,None,,,,,,,,,,,,,,,00058,001,2026-01-19_10h33.30.310,MST_task,2024.2.0,59.98936987255245,2026-01-19 10h33.41.475002 +0530,
,Scenes\162a.jpg,131,0,132,,,,,j,None,,,1.7637747999979183,0.07299980003153905,,,,132,0,131,3129.8884299000492,,,,,,,,,,,,,,,,,,,,,,,,,,,,,,3129.872394700011,3129.8884299000492,3130.372001400043,,,,,,,,,,,,,,3130.3890784000396,,,,,,,,,,,3130.3854201000067,3130.3890784000396,3130.3890784000396,3130.3890784000396,3133.3722804000136,j,3133.3723215000355,,,3133.3723331000074,None,,,3133.3884314000024,3133.3884314000024,3133.3884314000024,1.7637747999979183,0.07299980003153905,,,,,,,,,,00058,001,2026-01-19_10h33.30.310,MST_task,2024.2.0,59.98936987255245,2026-01-19 10h33.41.475002 +0530,
,Scenes\111a.jpg,132,0,133,,,,,None,j,0.33611949998885393,None,,,,,,133,0,132,3133.3884314000024,,,,,,,,,,,,,,,,,,,,,,,,,,,,,,3133.372432700009,3133.3884314000024,3133.872041499999,,,,,,,,,,,,,,3133.8887670999975,,,,,,,,,,,3133.885191700014,3133.8887670999975,3133.8887670999975,3133.8887670999975,3136.87225960003,None,3136.872337800043,3136.8884458999964,3136.8884458999964,3137.2388723000186,j,0.33611949998885393,None,3136.8884458999964,3136.8884458999964,3136.8884458999964,,,,,,,,,,,,00058,001,2026-01-19_10h33.30.310,MST_task,2024.2.0,59.98936987255245,2026-01-19 10h33.41.475002 +0530,
,Objects\116a.jpg,133,0,134,,,,,f,None,,,2.533439200022258,0.08006589999422431,,,,134,0,133,3137.255125500029,,,,,,,,,,,,,,,,,,,,,,,,,,,,,,3137.238957100024,3137.255125500029,3137.7388023000094,,,,,,,,,,,,,,3137.7554875000496,,,,,,,,,,,3137.751958900015,3137.7554875000496,3137.7554875000496,3137.7554875000496,3140.739374099998,f,3140.7416004000115,,,3140.741621299996,None,,,3140.755117200024,3140.755117200024,3140.755117200024,2.533439200022258,0.08006589999422431,,,,,,,,,,00058,001,2026-01-19_10h33.30.310,MST_task,2024.2.0,59.98936987255245,2026-01-19 10h33.41.475002 +0530,
,Objects\030a.jpg,134,0,135,,,,,None,f,1.3852371000102721,None,,,,,,135,0,134,3140.755117200024,,,,,,,,,,,,,,,,,,,,,,,,,,,,,,3140.741743999999,3140.755117200024,3141.2386370000313,,,,,,,,,,,,,,3141.2551911000046,,,,,,,,,,,3141.2500857000123,3141.2551911000046,3141.2551911000046,3141.2551911000046,3144.238976099994,None,3144.239013500046,3144.2550091000157,3144.2550091000157,3145.6554142000386,f,1.3852371000102721,None,3144.2550091000157,3144.2550091000157,3144.2550091000157,,,,,,,,,,,,00058,001,2026-01-19_10h33.30.310,MST_task,2024.2.0,59.98936987255245,2026-01-19 10h33.41.475002 +0530,
,Objects\101a.jpg,135,0,136,,,,,None,f,1.7570515000261366,None,,,,,,136,0,135,3145.671749900037,,,,,,,,,,,,,,,,,,,,,,,,,,,,,,3145.6555348000256,3145.671749900037,3146.155241200002,,,,,,,,,,,,,,3146.172007200017,,,,,,,,,,,3146.1669636000297,3146.172007200017,3146.172007200017,3146.172007200017,3149.15555700002,None,3149.1556028000196,3149.171756900032,3149.171756900032,3150.938993900025,f,1.7570515000261366,None,3149.171756900032,3149.171756900032,3149.171756900032,,,,,,,,,,,,00058,001,2026-01-19_10h33.30.310,MST_task,2024.2.0,59.98936987255245,2026-01-19 10h33.41.475002 +0530,
,Objects\120a.jpg,136,0,137,,,,,None,f,0.3055404999759048,None,,,,,,137,0,136,3150.9552097000415,,,,,,,,,,,,,,,,,,,,,,,,,,,,,,3150.9390861000284,3150.9552097000415,3151.4386758000473,,,,,,,,,,,,,,3151.4552497999975,,,,,,,,,,,3151.4489261000417,3151.4552497999975,3151.4552497999975,3151.4552497999975,3154.438977600017,None,3154.4390151000116,3154.4550394000253,3154.4550394000253,3154.7721876000287,f,0.3055404999759048,None,3154.4550394000253,3154.4550394000253,3154.4550394000253,,,,,,,,,,,,00058,001,2026-01-19_10h33.30.310,MST_task,2024.2.0,59.98936987255245,2026-01-19 10h33.41.475002 +0530,
,Objects\010a.jpg,137,0,138,,,,,None,f,0.2566753000137396,None,,,,,,138,0,137,3154.788506800018,,,,,,,,,,,,,,,,,,,,,,,,,,,,,,3154.7722693000105,3154.788506800018,3155.272045300051,,,,,,,,,,,,,,3155.288731000037,,,,,,,,,,,3155.282165600045,3155.288731000037,3155.288731000037,3155.288731000037,3158.272529400012,None,3158.2725685000187,3158.288443700003,3158.288443700003,3158.555584900023,f,0.2566753000137396,None,3158.288443700003,3158.288443700003,3158.288443700003,,,,,,,,,,,,00058,001,2026-01-19_10h33.30.310,MST_task,2024.2.0,59.98936987255245,2026-01-19 10h33.41.475002 +0530,
,Objects\162a.jpg,138,0,139,,,,,None,f,1.1854592000017874,None,,,,,,139,0,138,3158.571890400024,,,,,,,,,,,,,,,,,,,,,,,,,,,,,,3158.555670700036,3158.571890400024,3159.0554938000278,,,,,,,,,,,,,,3159.072135000024,,,,,,,,,,,3159.0656328000478,3159.072135000024,3159.072135000024,3159.072135000024,3162.055763200042,None,3162.0558011000394,3162.0718087000423,3162.0718087000423,3163.272412499995,f,1.1854592000017874,None,3162.0718087000423,3162.0718087000423,3162.0718087000423,,,,,,,,,,,,00058,001,2026-01-19_10h33.30.310,MST_task,2024.2.0,59.98936987255245,2026-01-19 10h33.41.475002 +0530,
,Objects\178a.jpg,139,0,140,,,,,None,f,0.3796329000033438,None,,,,,,140,0,139,3163.2884639000404,,,,,,,,,,,,,,,,,,,,,,,,,,,,,,3163.2724961000495,3163.2884639000404,3163.7720741000376,,,,,,,,,,,,,,3163.7888074000366,,,,,,,,,,,3163.783026000019,3163.7888074000366,3163.7888074000366,3163.7888074000366,3166.77257130004,None,3166.7726130000083,3166.7885625000345,3166.7885625000345,3167.1724597000284,f,0.3796329000033438,None,3166.7885625000345,3166.7885625000345,3166.7885625000345,,,,,,,,,,,,00058,001,2026-01-19_10h33.30.310,MST_task,2024.2.0,59.98936987255245,2026-01-19 10h33.41.475002 +0530,
,Scenes\082a.jpg,140,0,141,,,,,None,f,0.6071475999779068,None,,,,,,141,0,140,3167.1886969000334,,,,,,,,,,,,,,,,,,,,,,,,,,,,,,3167.1725464000483,3167.1886969000334,3167.6721666000085,,,,,,,,,,,,,,3167.69555340003,,,,,,,,,,,3167.6928233000217,3167.69555340003,3167.69555340003,3167.69555340003,3170.6888622000115,None,3170.69045730005,3170.7051973000052,3170.7051973000052,3171.3223325000145,f,0.6071475999779068,None,,,,,,,,,,,,,,,00058,001,2026-01-19_10h33.30.310,MST_task,2024.2.0,59.98936987255245,2026-01-19 10h33.41.475002 +0530,
,Scenes\171a.jpg,141,0,142,,,,,f,None,,,1.7333685000194237,0.09597580000991002,,,,142,0,141,3171.338402000023,,,,,,,,,,,,,,,,,,,,,,,,,,,,,,3171.3224648000323,3171.338402000023,3171.8221086999984,,,,,,,,,,,,,,3171.8431033000234,,,,,,,,,,,3171.8405939000077,3171.8431033000234,3171.8431033000234,3171.8431033000234,3174.8388414999936,f,3174.8388821000117,,,3174.8388946000487,None,,,,,,1.7333685000194237,0.09597580000991002,,,,,,,,,,00058,001,2026-01-19_10h33.30.310,MST_task,2024.2.0,59.98936987255245,2026-01-19 10h33.41.475002 +0530,
,Scenes\077a.jpg,142,0,143,,,,,None,j,1.3180617000325583,None,,,,,,143,0,142,3174.8552840000484,,,,,,,,,,,,,,,,,,,,,,,,,,,,,,3174.838990500022,3174.8552840000484,3175.3386986000114,,,,,,,,,,,,,,3175.356352600036,,,,,,,,,,,3175.353924700001,3175.356352600036,3175.356352600036,3175.356352600036,3178.339126900013,None,3178.3391626999946,3178.355120800028,3178.355120800028,3179.688913000049,j,1.3180617000325583,None,3178.355120800028,3178.355120800028,3178.355120800028,,,,,,,,,,,,00058,001,2026-01-19_10h33.30.310,MST_task,2024.2.0,59.98936987255245,2026-01-19 10h33.41.475002 +0530,
,Scenes\173a.jpg,143,0,144,,,,,j,None,,,2.5705317999818362,0.07200129999546334,,,,144,0,143,3179.705155100033,,,,,,,,,,,,,,,,,,,,,,,,,,,,,,3179.688998400001,3179.705155100033,3180.188834700035,,,,,,,,,,,,,,3180.205669799994,,,,,,,,,,,3180.202501700027,3180.205669799994,3180.205669799994,3180.205669799994,3183.1891404000344,j,3183.189181499998,,,3183.189192700025,None,,,3183.2051118999952,3183.2051118999952,3183.2051118999952,2.5705317999818362,0.07200129999546334,,,,,,,,,,00058,001,2026-01-19_10h33.30.310,MST_task,2024.2.0,59.98936987255245,2026-01-19 10h33.41.475002 +0530,
,Scenes\091a.jpg,144,0,145,,,,,None,j,0.2312493000063114,None,,,,,,145,0,144,3183.2051118999952,,,,,,,,,,,,,,,,,,,,,,,,,,,,,,3183.1892588000046,3183.2051118999952,3183.6887871000217,,,,,,,,,,,,,,3183.70581710001,,,,,,,,,,,3183.7025202000514,3183.70581710001,3183.70581710001,3183.70581710001,3186.6890045000473,None,3186.6890430000494,3186.704945800011,3186.704945800011,3186.9388229000033,j,0.2312493000063114,None,3186.704945800011,3186.704945800011,3186.704945800011,,,,,,,,,,,,00058,001,2026-01-19_10h33.30.310,MST_task,2024.2.0,59.98936987255245,2026-01-19 10h33.41.475002 +0530,
,Scenes\059a.jpg,145,0,146,,,,,None,j,0.4576905999565497,None,,,,,,146,0,145,3186.9549477000255,,,,,,,,,,,,,,,,,,,,,,,,,,,,,,3186.9389385000104,3186.9549477000255,3187.4386229999945,,,,,,,,,,,,,,3187.459296700021,,,,,,,,,,,3187.4567416000064,3187.459296700021,3187.459296700021,3187.459296700021,3190.4553487999947,None,3190.455387199996,3190.4717394000036,3190.4717394000036,3190.939186100033,j,0.4576905999565497,None,,,,,,,,,,,,,,,00058,001,2026-01-19_10h33.30.310,MST_task,2024.2.0,59.98936987255245,2026-01-19 10h33.41.475002 +0530,
,Scenes\047a.jpg,146,0,147,,,,,None,j,0.6571876000380144,None,,,,,,147,0,146,3190.954944600002,,,,,,,,,,,,,,,,,,,,,,,,,,,,,,3190.9393310000305,3190.954944600002,3191.4387583000353,,,,,,,,,,,,,,3191.459506000043,,,,,,,,,,,3191.4570818000357,3191.459506000043,3191.459506000043,3191.459506000043,3194.4551455000183,None,3194.455182400008,3194.4717848,3194.4717848,3195.139232500049,j,0.6571876000380144,None,,,,,,,,,,,,,,,00058,001,2026-01-19_10h33.30.310,MST_task,2024.2.0,59.98936987255245,2026-01-19 10h33.41.475002 +0530,
,Objects\070a.jpg,147,0,148,,,,,None,f,0.5058126000221819,None,,,,,,148,0,147,3195.155062200036,,,,,,,,,,,,,,,,,,,,,,,,,,,,,,3195.139368400036,3195.155062200036,3195.6387302000076,,,,,,,,,,,,,,3195.6555199000286,,,,,,,,,,,3195.6520662000403,3195.6555199000286,3195.6555199000286,3195.6555199000286,3198.6395065000397,None,3198.641842300014,3198.655116500042,3198.655116500042,3199.1723440000205,f,0.5058126000221819,None,3198.655116500042,3198.655116500042,3198.655116500042,,,,,,,,,,,,00058,001,2026-01-19_10h33.30.310,MST_task,2024.2.0,59.98936987255245,2026-01-19 10h33.41.475002 +0530,
,Objects\039a.jpg,148,0,149,,,,,None,j,0.44780500000342727,None,,,,,,149,0,148,3199.188476500043,,,,,,,,,,,,,,,,,,,,,,,,,,,,,,3199.1724373000325,3199.188476500043,3199.6720489000436,,,,,,,,,,,,,,3199.688694900018,,,,,,,,,,,3199.6818647000473,3199.688694900018,3199.688694900018,3199.688694900018,3202.6723855000455,None,3202.672424499993,3202.688399000035,3202.688399000035,3203.138839500025,j,0.44780500000342727,None,3202.688399000035,3202.688399000035,3202.688399000035,,,,,,,,,,,,00058,001,2026-01-19_10h33.30.310,MST_task,2024.2.0,59.98936987255245,2026-01-19 10h33.41.475002 +0530,
,Objects\152a.jpg,149,0,150,,,,,f,None,,,2.3296706000110134,0.07201509998412803,,,,150,0,149,3203.1550085000345,,,,,,,,,,,,,,,,,,,,,,,,,,,,,,3203.1389562000404,3203.1550085000345,3203.6386867000256,,,,,,,,,,,,,,3203.655216400046,,,,,,,,,,,3203.6507879000274,3203.655216400046,3203.655216400046,3203.655216400046,3206.638934000046,f,3206.6389751000097,,,3206.638986600039,None,,,3206.6549884999986,3206.6549884999986,3206.6549884999986,2.3296706000110134,0.07201509998412803,,,,,,,,,,00058,001,2026-01-19_10h33.30.310,MST_task,2024.2.0,59.98936987255245,2026-01-19 10h33.41.475002 +0530,
,Objects\115a.jpg,150,0,151,,,,,f,None,,,2.27698219998274,0.07221680000657216,,,,151,0,150,3206.6549884999986,,,,,,,,,,,,,,,,,,,,,,,,,,,,,,3206.639082300011,3206.6549884999986,3207.1386423000367,,,,,,,,,,,,,,3207.155223800044,,,,,,,,,,,3207.1498084000195,3207.155223800044,3207.155223800044,3207.155223800044,3210.1390128000057,f,3210.139052400016,,,3210.1390668000095,None,,,3210.154982200009,3210.154982200009,3210.154982200009,2.27698219998274,0.07221680000657216,,,,,,,,,,00058,001,2026-01-19_10h33.30.310,MST_task,2024.2.0,59.98936987255245,2026-01-19 10h33.41.475002 +0530,
,Objects\005a.jpg,151,0,152,,,,,f,None,,,2.297537899983581,0.13599099998828024,,,,152,0,151,3210.154982200009,,,,,,,,,,,,,,,,,,,,,,,,,,,,,,3210.1391650000005,3210.154982200009,3210.6386191000347,,,,,,,,,,,,,,3210.6553139000316,,,,,,,,,,,3210.64847200003,3210.6553139000316,3210.6553139000316,3210.6553139000316,3213.639014000015,f,3213.63905420003,,,3213.6390646999935,None,,,3213.6549811000004,3213.6549811000004,3213.6549811000004,2.297537899983581,0.13599099998828024,,,,,,,,,,00058,001,2026-01-19_10h33.30.310,MST_task,2024.2.0,59.98936987255245,2026-01-19 10h33.41.475002 +0530,
,Objects\133a.jpg,152,0,153,,,,,None,f,0.27785470004891977,None,,,,,,153,0,152,3213.6549811000004,,,,,,,,,,,,,,,,,,,,,,,,,,,,,,3213.6391593000153,3213.6549811000004,3214.1387004000135,,,,,,,,,,,,,,3214.1552824000246,,,,,,,,,,,3214.1489628000418,3214.1552824000246,3214.1552824000246,3214.1552824000246,3217.1391078000306,None,3217.1391465000343,3217.1550018000416,3217.1550018000416,3217.4389116000384,f,0.27785470004891977,None,3217.1550018000416,3217.1550018000416,3217.1550018000416,,,,,,,,,,,,00058,001,2026-01-19_10h33.30.310,MST_task,2024.2.0,59.98936987255245,2026-01-19 10h33.41.475002 +0530,
,Objects\160a.jpg,153,0,154,,,,,None,f,0.45391989999916404,None,,,,,,154,0,153,3217.454981899995,,,,,,,,,,,,,,,,,,,,,,,,,,,,,,3217.4389962000423,3217.454981899995,3217.9386948000174,,,,,,,,,,,,,,3217.955392600037,,,,,,,,,,,3217.948705000046,3217.955392600037,3217.955392600037,3217.955392600037,3220.939023600018,None,3220.939060100005,3220.954992300016,3220.954992300016,3221.4223172000493,f,0.45391989999916404,None,3220.954992300016,3220.954992300016,3220.954992300016,,,,,,,,,,,,00058,001,2026-01-19_10h33.30.310,MST_task,2024.2.0,59.98936987255245,2026-01-19 10h33.41.475002 +0530,
,Scenes\153a.jpg,154,0,155,,,,,j,None,,,2.2774496999918483,0.08829470002092421,,,,155,0,154,3221.438442600018,,,,,,,,,,,,,,,,,,,,,,,,,,,,,,3221.4224028000026,3221.438442600018,3221.9221149000223,,,,,,,,,,,,,,3221.9394006000366,,,,,,,,,,,3221.9367559000384,3221.9394006000366,3221.9394006000366,3221.9394006000366,3224.922383100027,j,3224.923992099997,,,3224.9240098000155,None,,,3224.938450100017,3224.938450100017,3224.938450100017,2.2774496999918483,0.08829470002092421,,,,,,,,,,00058,001,2026-01-19_10h33.30.310,MST_task,2024.2.0,59.98936987255245,2026-01-19 10h33.41.475002 +0530,
,Scenes\178a.jpg,155,0,156,,,,,j,None,,,2.6811895999708213,0.09599380003055558,,,,156,0,155,3224.938450100017,,,,,,,,,,,,,,,,,,,,,,,,,,,,,,3224.924113200046,3224.938450100017,3225.4220776000293,,,,,,,,,,,,,,3225.4389705000212,,,,,,,,,,,3225.4359543000464,3225.4389705000212,3225.4389705000212,3225.4389705000212,3228.422286999994,j,3228.4223295000265,,,3228.4223403000506,None,,,3228.4384497000137,3228.4384497000137,3228.4384497000137,2.6811895999708213,0.09599380003055558,,,,,,,,,,00058,001,2026-01-19_10h33.30.310,MST_task,2024.2.0,59.98936987255245,2026-01-19 10h33.41.475002 +0530,
,Scenes\045a.jpg,156,0,157,,,,,None,f,2.7342037999769673,None,,,,,,157,0,156,3228.4384497000137,,,,,,,,,,,,,,,,,,,,,,,,,,,,,,3228.422404700017,3228.4384497000137,3228.9219606000115,,,,,,,,,,,,,,3228.944729300041,,,,,,,,,,,3228.942359800043,3228.944729300041,3228.944729300041,3228.944729300041,3231.938734800031,None,3231.938772000023,3231.9549572000396,3231.9549572000396,3234.7053899000166,f,2.7342037999769673,None,,,,,,,,,,,,,,,00058,001,2026-01-19_10h33.30.310,MST_task,2024.2.0,59.98936987255245,2026-01-19 10h33.41.475002 +0530,
,Scenes\132a.jpg,157,0,158,,,,,None,j,0.6037115000071935,None,,,,,,158,0,157,3234.7217767999973,,,,,,,,,,,,,,,,,,,,,,,,,,,,,,3234.705478000047,3234.7217767999973,3235.205240500043,,,,,,,,,,,,,,3235.222360200016,,,,,,,,,,,3235.2187843000283,3235.222360200016,3235.222360200016,3235.222360200016,3238.20562360005,None,3238.2056598000345,3238.2217533999938,3238.2217533999938,3238.83910750004,j,0.6037115000071935,None,3238.2217533999938,3238.2217533999938,3238.2217533999938,,,,,,,,,,,,00058,001,2026-01-19_10h33.30.310,MST_task,2024.2.0,59.98936987255245,2026-01-19 10h33.41.475002 +0530,
,Scenes\071a.jpg,158,0,159,,,,,None,j,1.5405223999987356,None,,,,,,159,0,158,3238.855132900004,,,,,,,,,,,,,,,,,,,,,,,,,,,,,,3238.839200700051,3238.855132900004,3239.338695100043,,,,,,,,,,,,,,3239.357308100036,,,,,,,,,,,3239.354869300034,3239.357308100036,3239.357308100036,3239.357308100036,3242.355234000017,None,3242.3552744000335,3242.3717835000134,3242.3717835000134,3243.9222462000325,j,1.5405223999987356,None,,,,,,,,,,,,,,,00058,001,2026-01-19_10h33.30.310,MST_task,2024.2.0,59.98936987255245,2026-01-19 10h33.41.475002 +0530,
