thisN,thisTrialN,thisRepN,key_resp_3.keys,key_resp_3.rt,key_resp_3.duration,trials.thisRepN,trials.thisTrialN,trials.thisN,thisRow.t,notes,intro_page.started,text.started,key_resp.started,intro_page.stopped,key_resp.keys,key_resp.rt,key_resp.duration,instructions.started,text_2.started,key_resp_2.started,instructions.stopped,key_resp_2.keys,key_resp_2.rt,key_resp_2.duration,demo1.started,image_1.started,image_2.started,text_7.started,key_resp_6.started,text_9.started,demo1.stopped,key_resp_6.keys,key_resp_6.rt,key_resp_6.duration,demo2.started,image_5.started,image_6.started,text_11.started,text_12.started,key_resp_8.started,demo2.stopped,key_resp_8.keys,key_resp_8.rt,key_resp_8.duration,demo_conclusion.started,text_13.started,key_resp_9.started,demo_conclusion.stopped,key_resp_9.keys,key_resp_9.rt,key_resp_9.duration,start_test.started,text_6.started,key_resp_5.started,start_test.stopped,key_resp_5.keys,key_resp_5.rt,key_resp_5.duration,ISI.started,text_4.started,text_4.stopped,ISI.stopped,routine_1.started,image.started,text_3.started,key_resp_3.started,routine_1.stopped,image_path,position_of_stimuli,trials.key_resp_3.keys,trials.key_resp_3.rt,trials.key_resp_3.duration,End_page.started,text_5.started,key_resp_4.started,End_page.stopped,key_resp_4.keys,key_resp_4.rt,key_resp_4.duration,participant,session,date,expName,psychopyVersion,frameRate,expStart,
,,,,,,,,,,,0.001192399999126792,0.0027185999788343906,0.0027185999788343906,4.387985499983188,space,4.380324299971107,None,,,,,,,,,,,,,,,,,,,,,,,,,,,,,,,,,,,,,,,,,,,,,,,,,,,,,,,,,,,,,,,00056,001,2026-01-18_19h48.57.810,MST_test,2024.2.0,59.90904609108962,2026-01-18 19h49.05.181974 +0530,
,,,,,,,,,,,,,,,,,,4.388032099988777,4.4026519000181,4.4026519000181,14.05304560001241,space,9.636502400040627,None,,,,,,,,,,,,,,,,,,,,,,,,,,,,,,,,,,,,,,,,,,,,,,,,,,,,,,,,00056,001,2026-01-18_19h48.57.810,MST_test,2024.2.0,59.90904609108962,2026-01-18 19h49.05.181974 +0530,
,,,,,,,,,,,,,,,,,,,,,,,,,14.053072399983648,14.069612299965229,14.069612299965229,14.069612299965229,14.069612299965229,14.069612299965229,17.66990540002007,space,3.5938919999753125,None,,,,,,,,,,,,,,,,,,,,,,,,,,,,,,,,,,,,,,,,,,,,,,00056,001,2026-01-18_19h48.57.810,MST_test,2024.2.0,59.90904609108962,2026-01-18 19h49.05.181974 +0530,
,,,,,,,,,,,,,,,,,,,,,,,,,,,,,,,,,,,17.669935900019482,17.686317800020333,17.686317800020333,17.686317800020333,17.686317800020333,17.686317800020333,21.154373299970757,space,3.4650702999788336,None,,,,,,,,,,,,,,,,,,,,,,,,,,,,,,,,,,,,00056,001,2026-01-18_19h48.57.810,MST_test,2024.2.0,59.90904609108962,2026-01-18 19h49.05.181974 +0530,
,,,,,,,,,,,,,,,,,,,,,,,,,,,,,,,,,,,,,,,,,,,,,21.154401100007817,21.16918099997565,21.16918099997565,37.31961559999036,space,16.149639800016303,None,,,,,,,,,,,,,,,,,,,,,,,,,,,,,00056,001,2026-01-18_19h48.57.810,MST_test,2024.2.0,59.90904609108962,2026-01-18 19h49.05.181974 +0530,
,,,,,,,,,,,,,,,,,,,,,,,,,,,,,,,,,,,,,,,,,,,,,,,,,,,,37.319644599978346,37.336774899973534,37.336774899973534,95.45313779998105,space,58.103766799962614,None,,,,,,,,,,,,,,,,,,,,,,00056,001,2026-01-18_19h48.57.810,MST_test,2024.2.0,59.90904609108962,2026-01-18 19h49.05.181974 +0530,
0,0,1,s,2.945481500006281,None,1,0,0,95.46924579999177,,,,,,,,,,,,,,,,,,,,,,,,,,,,,,,,,,,,,,,,,,,,,,,,,,95.4573199999868,95.46924579999177,95.97351320000598,95.95290639996529,95.97141489997739,95.97351320000598,95.97351320000598,95.97351320000598,98.92011690000072,Objects\184b.jpg,mid,s,2.945481500006281,None,,,,,,,,00056,001,2026-01-18_19h48.57.810,MST_test,2024.2.0,59.90904609108962,2026-01-18 19h49.05.181974 +0530,
1,0,2,o,2.2910508000059053,None,2,0,1,98.93625670002075,,,,,,,,,,,,,,,,,,,,,,,,,,,,,,,,,,,,,,,,,,,,,,,,,,98.92021439998643,98.93625670002075,99.43625149998115,99.41971839999314,99.42267699999502,99.43625149998115,99.43625149998115,99.43625149998115,101.73656489996938,Objects\089a.jpg,mid,o,2.2910508000059053,None,,,,,,,,00056,001,2026-01-18_19h48.57.810,MST_test,2024.2.0,59.90904609108962,2026-01-18 19h49.05.181974 +0530,
2,0,3,o,0.9627000000327826,None,3,0,2,101.75259190000361,,,,,,,,,,,,,,,,,,,,,,,,,,,,,,,,,,,,,,,,,,,,,,,,,,101.73666090000188,101.75259190000361,102.25277540000388,102.23612640000647,102.2387748999754,102.25277540000388,102.25277540000388,102.25277540000388,103.21981939999387,Objects\084a.jpg,pre,o,0.9627000000327826,None,,,,,,,,00056,001,2026-01-18_19h48.57.810,MST_test,2024.2.0,59.90904609108962,2026-01-18 19h49.05.181974 +0530,
3,0,4,o,1.1666424000286497,None,4,0,3,103.23593730002176,,,,,,,,,,,,,,,,,,,,,,,,,,,,,,,,,,,,,,,,,,,,,,,,,,103.21990999998525,103.23593730002176,103.73614839999937,103.71948979998706,103.72207580000395,103.73614839999937,103.73614839999937,103.73614839999937,104.90349369996693,Objects\135a.jpg,mid,o,1.1666424000286497,None,,,,,,,,00056,001,2026-01-18_19h48.57.810,MST_test,2024.2.0,59.90904609108962,2026-01-18 19h49.05.181974 +0530,
4,0,5,o,0.9716022000066005,None,5,0,4,104.91919190000044,,,,,,,,,,,,,,,,,,,,,,,,,,,,,,,,,,,,,,,,,,,,,,,,,,104.90358579996973,104.91919190000044,105.41927229997236,105.40281880000839,105.4051212000195,105.41927229997236,105.41927229997236,105.41927229997236,106.40314959996613,Objects\123a.jpg,mid,o,0.9716022000066005,None,,,,,,,,00056,001,2026-01-18_19h48.57.810,MST_test,2024.2.0,59.90904609108962,2026-01-18 19h49.05.181974 +0530,
5,0,6,n,2.2159931999631226,None,6,0,5,106.41915570001584,,,,,,,,,,,,,,,,,,,,,,,,,,,,,,,,,,,,,,,,,,,,,,,,,,106.40323940000962,106.41915570001584,106.91959980002139,106.90292540000519,106.9123390999739,106.91959980002139,106.91959980002139,106.91959980002139,109.13654709997354,Foils\scenes14.jpg,none,n,2.2159931999631226,None,,,,,,,,00056,001,2026-01-18_19h48.57.810,MST_test,2024.2.0,59.90904609108962,2026-01-18 19h49.05.181974 +0530,
6,0,7,n,2.186044200032484,None,7,0,6,109.15264699998079,,,,,,,,,,,,,,,,,,,,,,,,,,,,,,,,,,,,,,,,,,,,,,,,,,109.1366413999931,109.15264699998079,109.6528616999858,109.6361149000004,109.63970250001876,109.6528616999858,109.6528616999858,109.6528616999858,111.85325559997,Objects\176b.jpg,mid,n,2.186044200032484,None,,,,,,,,00056,001,2026-01-18_19h48.57.810,MST_test,2024.2.0,59.90904609108962,2026-01-18 19h49.05.181974 +0530,
7,0,8,s,1.5015409999759868,None,8,0,7,111.86915619997308,,,,,,,,,,,,,,,,,,,,,,,,,,,,,,,,,,,,,,,,,,,,,,,,,,111.85335009999108,111.86915619997308,112.36944249999942,112.35311169998022,112.36397989996476,112.36944249999942,112.36944249999942,112.36944249999942,113.88654609996593,Objects\118b.jpg,pre,s,1.5015409999759868,None,,,,,,,,00056,001,2026-01-18_19h48.57.810,MST_test,2024.2.0,59.90904609108962,2026-01-18 19h49.05.181974 +0530,
8,0,9,s,2.2044320999993943,None,9,0,8,113.90262319997419,,,,,,,,,,,,,,,,,,,,,,,,,,,,,,,,,,,,,,,,,,,,,,,,,,113.88663600001018,113.90262319997419,114.40302889997838,114.38618849997874,114.39608819998102,114.40302889997838,114.40302889997838,114.40302889997838,116.6197837999789,Objects\145b.jpg,mid,s,2.2044320999993943,None,,,,,,,,00056,001,2026-01-18_19h48.57.810,MST_test,2024.2.0,59.90904609108962,2026-01-18 19h49.05.181974 +0530,
9,0,10,n,2.8228875999921,None,10,0,9,116.63608139997814,,,,,,,,,,,,,,,,,,,,,,,,,,,,,,,,,,,,,,,,,,,,,,,,,,116.61987569998018,116.63608139997814,117.13608159997966,117.11947859998327,117.1219046000042,117.13608159997966,117.13608159997966,117.13608159997966,119.9698029999854,Foils\018a.jpg,none,n,2.8228875999921,None,,,,,,,,00056,001,2026-01-18_19h48.57.810,MST_test,2024.2.0,59.90904609108962,2026-01-18 19h49.05.181974 +0530,
10,0,11,o,1.1372063999879174,None,11,0,10,119.98587679996854,,,,,,,,,,,,,,,,,,,,,,,,,,,,,,,,,,,,,,,,,,,,,,,,,,119.96989840001334,119.98587679996854,120.48618140001781,120.46939569996903,120.48043529997813,120.48618140001781,120.48618140001781,120.48618140001781,121.63657679996686,Objects\171b.jpg,post,o,1.1372063999879174,None,,,,,,,,00056,001,2026-01-18_19h48.57.810,MST_test,2024.2.0,59.90904609108962,2026-01-18 19h49.05.181974 +0530,
11,0,12,s,1.7710150000057183,None,12,0,11,121.65256070002215,,,,,,,,,,,,,,,,,,,,,,,,,,,,,,,,,,,,,,,,,,,,,,,,,,121.63666730001569,121.65256070002215,122.15578679996543,122.13624819996767,122.15347700001439,122.15578679996543,122.15578679996543,122.15578679996543,123.93647670000792,Foils\scenes23.jpg,none,s,1.7710150000057183,None,,,,,,,,00056,001,2026-01-18_19h48.57.810,MST_test,2024.2.0,59.90904609108962,2026-01-18 19h49.05.181974 +0530,
12,0,13,o,1.7306087000179105,None,13,0,12,123.95260810002219,,,,,,,,,,,,,,,,,,,,,,,,,,,,,,,,,,,,,,,,,,,,,,,,,,123.93657499999972,123.95260810002219,124.45319749996997,124.43616939999629,124.45123219996458,124.45319749996997,124.45319749996997,124.45319749996997,126.1868919999688,Scenes\061b.jpg,pre,o,1.7306087000179105,None,,,,,,,,00056,001,2026-01-18_19h48.57.810,MST_test,2024.2.0,59.90904609108962,2026-01-18 19h49.05.181974 +0530,
13,0,14,o,1.1202317999559455,None,14,0,13,126.2026799999876,,,,,,,,,,,,,,,,,,,,,,,,,,,,,,,,,,,,,,,,,,,,,,,,,,126.18699539999943,126.2026799999876,126.7030360000208,126.68621459999122,126.68950500001665,126.7030360000208,126.7030360000208,126.7030360000208,127.83656470000278,Objects\033b.jpg,mid,o,1.1202317999559455,None,,,,,,,,00056,001,2026-01-18_19h48.57.810,MST_test,2024.2.0,59.90904609108962,2026-01-18 19h49.05.181974 +0530,
14,0,15,o,0.791106500022579,None,15,0,14,127.85254900000291,,,,,,,,,,,,,,,,,,,,,,,,,,,,,,,,,,,,,,,,,,,,,,,,,,127.83665939996717,127.85254900000291,128.35281929996563,128.33621889998903,128.33869050000794,128.35281929996563,128.35281929996563,128.35281929996563,129.15352290001465,Objects\006a.jpg,mid,o,0.791106500022579,None,,,,,,,,00056,001,2026-01-18_19h48.57.810,MST_test,2024.2.0,59.90904609108962,2026-01-18 19h49.05.181974 +0530,
15,0,16,o,0.8815991000155918,None,16,0,15,129.16928029997507,,,,,,,,,,,,,,,,,,,,,,,,,,,,,,,,,,,,,,,,,,,,,,,,,,129.15362330002245,129.16928029997507,129.6694954999839,129.65301269997144,129.65579910000088,129.6694954999839,129.6694954999839,129.6694954999839,130.55346259998623,Objects\073a.jpg,mid,o,0.8815991000155918,None,,,,,,,,00056,001,2026-01-18_19h48.57.810,MST_test,2024.2.0,59.90904609108962,2026-01-18 19h49.05.181974 +0530,
16,0,17,o,1.2175202000071295,None,17,0,16,130.5693198000081,,,,,,,,,,,,,,,,,,,,,,,,,,,,,,,,,,,,,,,,,,,,,,,,,,130.55355569999665,130.5693198000081,131.06960709998384,131.05285919999005,131.06016049999744,131.06960709998384,131.06960709998384,131.06960709998384,132.30353550001746,Scenes\156a.jpg,pre,o,1.2175202000071295,None,,,,,,,,00056,001,2026-01-18_19h48.57.810,MST_test,2024.2.0,59.90904609108962,2026-01-18 19h49.05.181974 +0530,
17,0,18,s,1.9842314000125043,None,18,0,17,132.31914879998658,,,,,,,,,,,,,,,,,,,,,,,,,,,,,,,,,,,,,,,,,,,,,,,,,,132.30363609996857,132.31914879998658,132.82328620000044,132.80279940000037,132.82108949997928,132.82328620000044,132.82328620000044,132.82328620000044,134.82006970001385,Scenes\013b.jpg,pre,s,1.9842314000125043,None,,,,,,,,00056,001,2026-01-18_19h48.57.810,MST_test,2024.2.0,59.90904609108962,2026-01-18 19h49.05.181974 +0530,
18,0,19,o,2.023057600017637,None,19,0,18,134.8359677999979,,,,,,,,,,,,,,,,,,,,,,,,,,,,,,,,,,,,,,,,,,,,,,,,,,134.8201636999729,134.8359677999979,135.33646550000412,135.31938760000048,135.32262980000814,135.33646550000412,135.33646550000412,135.33646550000412,137.36976759997196,Objects\146b.jpg,post,o,2.023057600017637,None,,,,,,,,00056,001,2026-01-18_19h48.57.810,MST_test,2024.2.0,59.90904609108962,2026-01-18 19h49.05.181974 +0530,
19,0,20,o,2.7532790999975987,None,20,0,19,137.38588469999377,,,,,,,,,,,,,,,,,,,,,,,,,,,,,,,,,,,,,,,,,,,,,,,,,,137.36986169999,137.38588469999377,137.88614209997468,137.86938370001735,137.87202890001936,137.88614209997468,137.88614209997468,137.88614209997468,140.65310369996587,Objects\175b.jpg,pre,o,2.7532790999975987,None,,,,,,,,00056,001,2026-01-18_19h48.57.810,MST_test,2024.2.0,59.90904609108962,2026-01-18 19h49.05.181974 +0530,
20,0,21,s,3.1495663999812678,None,21,0,20,140.66910910001025,,,,,,,,,,,,,,,,,,,,,,,,,,,,,,,,,,,,,,,,,,,,,,,,,,140.65319450001698,140.66910910001025,141.1695862999768,141.15296139998827,141.16142030002084,141.1695862999768,141.1695862999768,141.1695862999768,144.31990080000833,Scenes\183a.jpg,mid,s,3.1495663999812678,None,,,,,,,,00056,001,2026-01-18_19h48.57.810,MST_test,2024.2.0,59.90904609108962,2026-01-18 19h49.05.181974 +0530,
21,0,22,n,2.5545618000323884,None,22,0,21,144.33597899996676,,,,,,,,,,,,,,,,,,,,,,,,,,,,,,,,,,,,,,,,,,,,,,,,,,144.32000060001155,144.33597899996676,144.83640540001215,144.81948549998924,144.82262039999478,144.83640540001215,144.83640540001215,144.83640540001215,147.4032180000213,Foils\050a.jpg,none,n,2.5545618000323884,None,,,,,,,,00056,001,2026-01-18_19h48.57.810,MST_test,2024.2.0,59.90904609108962,2026-01-18 19h49.05.181974 +0530,
22,0,23,s,2.742018199991435,None,23,0,22,147.41914199996972,,,,,,,,,,,,,,,,,,,,,,,,,,,,,,,,,,,,,,,,,,,,,,,,,,147.4033131999895,147.41914199996972,147.92091579997214,147.9028779999935,147.9189363999758,147.92091579997214,147.92091579997214,147.92091579997214,150.66980149998562,Scenes\109b.jpg,post,s,2.742018199991435,None,,,,,,,,00056,001,2026-01-18_19h48.57.810,MST_test,2024.2.0,59.90904609108962,2026-01-18 19h49.05.181974 +0530,
23,0,24,o,1.612404899962712,None,24,0,23,150.68595579999965,,,,,,,,,,,,,,,,,,,,,,,,,,,,,,,,,,,,,,,,,,,,,,,,,,150.66989409999223,150.68595579999965,151.18647869996494,151.16931039997144,151.17864469997585,151.18647869996494,151.18647869996494,151.18647869996494,152.8032114999951,Scenes\158a.jpg,mid,o,1.612404899962712,None,,,,,,,,00056,001,2026-01-18_19h48.57.810,MST_test,2024.2.0,59.90904609108962,2026-01-18 19h49.05.181974 +0530,
24,0,25,s,3.2634505000314675,None,25,0,24,152.81914939999115,,,,,,,,,,,,,,,,,,,,,,,,,,,,,,,,,,,,,,,,,,,,,,,,,,152.80330580001464,152.81914939999115,153.31968289997894,153.30301530001452,153.31272240000544,153.31968289997894,153.31968289997894,153.31968289997894,156.58665620000102,Foils\scenes19.jpg,none,s,3.2634505000314675,None,,,,,,,,00056,001,2026-01-18_19h48.57.810,MST_test,2024.2.0,59.90904609108962,2026-01-18 19h49.05.181974 +0530,
25,0,26,n,1.9679459999897517,None,26,0,25,156.6026066999766,,,,,,,,,,,,,,,,,,,,,,,,,,,,,,,,,,,,,,,,,,,,,,,,,,156.58675409998978,156.6026066999766,157.10295759997098,157.08620429999428,157.08844849996967,157.10295759997098,157.10295759997098,157.10295759997098,159.08664549997775,Foils\scenes29.jpg,none,n,1.9679459999897517,None,,,,,,,,00056,001,2026-01-18_19h48.57.810,MST_test,2024.2.0,59.90904609108962,2026-01-18 19h49.05.181974 +0530,
26,0,27,o,1.1726072000456043,None,27,0,26,159.10261250002077,,,,,,,,,,,,,,,,,,,,,,,,,,,,,,,,,,,,,,,,,,,,,,,,,,159.086749900016,159.10261250002077,159.60285959998146,159.5862567999866,159.58931369998027,159.60285959998146,159.60285959998146,159.60285959998146,160.78660749999108,Objects\128a.jpg,mid,o,1.1726072000456043,None,,,,,,,,00056,001,2026-01-18_19h48.57.810,MST_test,2024.2.0,59.90904609108962,2026-01-18 19h49.05.181974 +0530,
27,0,28,o,1.2163536999723874,None,28,0,27,160.8028722999734,,,,,,,,,,,,,,,,,,,,,,,,,,,,,,,,,,,,,,,,,,,,,,,,,,160.7867000999977,160.8028722999734,161.30293990002247,161.28645060001872,161.28925719996914,161.30293990002247,161.30293990002247,161.30293990002247,162.5201702999766,Objects\038a.jpg,pre,o,1.2163536999723874,None,,,,,,,,00056,001,2026-01-18_19h48.57.810,MST_test,2024.2.0,59.90904609108962,2026-01-18 19h49.05.181974 +0530,
28,0,29,o,1.130628600018099,None,29,0,28,162.5360097999801,,,,,,,,,,,,,,,,,,,,,,,,,,,,,,,,,,,,,,,,,,,,,,,,,,162.52028499997687,162.5360097999801,163.03647739998996,163.01942939998116,163.02608099998906,163.03647739998996,163.03647739998996,163.03647739998996,164.16987410001457,Scenes\178a.jpg,post,o,1.130628600018099,None,,,,,,,,00056,001,2026-01-18_19h48.57.810,MST_test,2024.2.0,59.90904609108962,2026-01-18 19h49.05.181974 +0530,
29,0,30,o,0.833244800043758,None,30,0,29,164.18597019999288,,,,,,,,,,,,,,,,,,,,,,,,,,,,,,,,,,,,,,,,,,,,,,,,,,164.16997009998886,164.18597019999288,164.68636459996924,164.66959210002096,164.6725728000165,164.68636459996924,164.68636459996924,164.68636459996924,165.53680960001657,Objects\101a.jpg,pre,o,0.833244800043758,None,,,,,,,,00056,001,2026-01-18_19h48.57.810,MST_test,2024.2.0,59.90904609108962,2026-01-18 19h49.05.181974 +0530,
30,0,31,o,2.3304217000259086,None,31,0,30,165.5527951999684,,,,,,,,,,,,,,,,,,,,,,,,,,,,,,,,,,,,,,,,,,,,,,,,,,165.53691109997453,165.5527951999684,166.0531115999911,166.03634669998428,166.042934099969,166.0531115999911,166.0531115999911,166.0531115999911,168.38669090002077,Scenes\006a.jpg,pre,o,2.3304217000259086,None,,,,,,,,00056,001,2026-01-18_19h48.57.810,MST_test,2024.2.0,59.90904609108962,2026-01-18 19h49.05.181974 +0530,
31,0,32,n,1.1208244999870658,None,32,0,31,168.40258429996902,,,,,,,,,,,,,,,,,,,,,,,,,,,,,,,,,,,,,,,,,,,,,,,,,,168.38678250001976,168.40258429996902,168.9030598999816,168.88624899997376,168.89615779998712,168.9030598999816,168.9030598999816,168.9030598999816,170.03677130001597,Foils\034a.jpg,none,n,1.1208244999870658,None,,,,,,,,00056,001,2026-01-18_19h48.57.810,MST_test,2024.2.0,59.90904609108962,2026-01-18 19h49.05.181974 +0530,
32,0,33,n,1.6676417000126094,None,33,0,32,170.05265580001287,,,,,,,,,,,,,,,,,,,,,,,,,,,,,,,,,,,,,,,,,,,,,,,,,,170.03687929996522,170.05265580001287,170.55725760001224,170.53616279998096,170.55506089999108,170.55725760001224,170.55725760001224,170.55725760001224,172.2365381999989,Scenes\088b.jpg,pre,n,1.6676417000126094,None,,,,,,,,00056,001,2026-01-18_19h48.57.810,MST_test,2024.2.0,59.90904609108962,2026-01-18 19h49.05.181974 +0530,
33,0,34,n,2.029748999979347,None,34,0,33,172.25262029998703,,,,,,,,,,,,,,,,,,,,,,,,,,,,,,,,,,,,,,,,,,,,,,,,,,172.23663180001313,172.25262029998703,172.7531805000035,172.73624900000868,172.7507533999742,172.7531805000035,172.7531805000035,172.7531805000035,174.78657840000233,Scenes\049b.jpg,post,n,2.029748999979347,None,,,,,,,,00056,001,2026-01-18_19h48.57.810,MST_test,2024.2.0,59.90904609108962,2026-01-18 19h49.05.181974 +0530,
34,0,35,s,1.7598889999790117,None,35,0,34,174.8025961999665,,,,,,,,,,,,,,,,,,,,,,,,,,,,,,,,,,,,,,,,,,,,,,,,,,174.78666939999675,174.8025961999665,175.30309619999025,175.2863851999864,175.29627900000196,175.30309619999025,175.30309619999025,175.30309619999025,177.06996930000605,Objects\065b.jpg,post,s,1.7598889999790117,None,,,,,,,,00056,001,2026-01-18_19h48.57.810,MST_test,2024.2.0,59.90904609108962,2026-01-18 19h49.05.181974 +0530,
35,0,36,s,2.765497900021728,None,36,0,35,177.08598039997742,,,,,,,,,,,,,,,,,,,,,,,,,,,,,,,,,,,,,,,,,,,,,,,,,,177.07010020001326,177.08598039997742,177.5865111000021,177.56961700000102,177.58221740002045,177.5865111000021,177.5865111000021,177.5865111000021,180.35354390001157,Scenes\166b.jpg,mid,s,2.765497900021728,None,,,,,,,,00056,001,2026-01-18_19h48.57.810,MST_test,2024.2.0,59.90904609108962,2026-01-18 19h49.05.181974 +0530,
36,0,37,n,1.5372250999789685,None,37,0,36,180.3693585000001,,,,,,,,,,,,,,,,,,,,,,,,,,,,,,,,,,,,,,,,,,,,,,,,,,180.35364380001556,180.3693585000001,180.8697682999773,180.8529515999835,180.86485339998035,180.8697682999773,180.8697682999773,180.8697682999773,182.41983939998318,Foils\009a.jpg,none,n,1.5372250999789685,None,,,,,,,,00056,001,2026-01-18_19h48.57.810,MST_test,2024.2.0,59.90904609108962,2026-01-18 19h49.05.181974 +0530,
37,0,38,o,2.7681538999895565,None,38,0,37,182.4359628999955,,,,,,,,,,,,,,,,,,,,,,,,,,,,,,,,,,,,,,,,,,,,,,,,,,182.4199308999814,182.4359628999955,182.93641269998625,182.91950630000792,182.92886919999728,182.93641269998625,182.93641269998625,182.93641269998625,185.7197673000046,Scenes\104a.jpg,post,o,2.7681538999895565,None,,,,,,,,00056,001,2026-01-18_19h48.57.810,MST_test,2024.2.0,59.90904609108962,2026-01-18 19h49.05.181974 +0530,
38,0,39,o,0.9469740000204183,None,39,0,38,185.7359381999704,,,,,,,,,,,,,,,,,,,,,,,,,,,,,,,,,,,,,,,,,,,,,,,,,,185.71986219997052,185.7359381999704,186.23644199996488,186.21954889997141,186.22257719998015,186.23644199996488,186.23644199996488,186.23644199996488,187.18660620000446,Objects\044a.jpg,post,o,0.9469740000204183,None,,,,,,,,00056,001,2026-01-18_19h48.57.810,MST_test,2024.2.0,59.90904609108962,2026-01-18 19h49.05.181974 +0530,
39,0,40,o,2.1766147000016645,None,40,0,39,187.20256790000712,,,,,,,,,,,,,,,,,,,,,,,,,,,,,,,,,,,,,,,,,,,,,,,,,,187.18669629999204,187.20256790000712,187.70283889997518,187.6862885999726,187.68884610000532,187.70283889997518,187.70283889997518,187.70283889997518,189.8867331999936,Objects\124a.jpg,pre,o,2.1766147000016645,None,,,,,,,,00056,001,2026-01-18_19h48.57.810,MST_test,2024.2.0,59.90904609108962,2026-01-18 19h49.05.181974 +0530,
40,0,41,s,1.4369683000259101,None,41,0,40,189.9028158999863,,,,,,,,,,,,,,,,,,,,,,,,,,,,,,,,,,,,,,,,,,,,,,,,,,189.88682369998423,189.9028158999863,190.40302299999166,190.38637789996574,190.3891230999725,190.40302299999166,190.40302299999166,190.40302299999166,191.85335059999488,Objects\102b.jpg,pre,s,1.4369683000259101,None,,,,,,,,00056,001,2026-01-18_19h48.57.810,MST_test,2024.2.0,59.90904609108962,2026-01-18 19h49.05.181974 +0530,
41,0,42,s,0.9894876999896951,None,42,0,41,191.86945739999646,,,,,,,,,,,,,,,,,,,,,,,,,,,,,,,,,,,,,,,,,,,,,,,,,,191.85344199999236,191.86945739999646,192.36992799997097,192.3530233000056,192.35624719999032,192.36992799997097,192.36992799997097,192.36992799997097,193.3701634000172,Foils\105a.jpg,none,s,0.9894876999896951,None,,,,,,,,00056,001,2026-01-18_19h48.57.810,MST_test,2024.2.0,59.90904609108962,2026-01-18 19h49.05.181974 +0530,
42,0,43,s,3.6489318999811076,None,43,0,42,193.38605440000538,,,,,,,,,,,,,,,,,,,,,,,,,,,,,,,,,,,,,,,,,,,,,,,,,,193.37025949999224,193.38605440000538,193.88642940000864,193.86970450001536,193.87232490000315,193.88642940000864,193.88642940000864,193.88642940000864,197.5367107000202,Foils\065a.jpg,none,s,3.6489318999811076,None,,,,,,,,00056,001,2026-01-18_19h48.57.810,MST_test,2024.2.0,59.90904609108962,2026-01-18 19h49.05.181974 +0530,
43,0,44,s,0.9140520999790169,None,44,0,43,197.5527803999721,,,,,,,,,,,,,,,,,,,,,,,,,,,,,,,,,,,,,,,,,,,,,,,,,,197.53679829998873,197.5527803999721,198.05292799999006,198.03630969999358,198.03899749997072,198.05292799999006,198.05292799999006,198.05292799999006,198.96989940002095,Objects\150a.jpg,mid,s,0.9140520999790169,None,,,,,,,,00056,001,2026-01-18_19h48.57.810,MST_test,2024.2.0,59.90904609108962,2026-01-18 19h49.05.181974 +0530,
44,0,45,s,2.0944159000064246,None,45,0,44,198.9860486999969,,,,,,,,,,,,,,,,,,,,,,,,,,,,,,,,,,,,,,,,,,,,,,,,,,198.97002999996766,198.9860486999969,199.48915579996537,199.46989860001486,199.4872440000181,199.48915579996537,199.48915579996537,199.48915579996537,201.5867666999693,Scenes\161b.jpg,mid,s,2.0944159000064246,None,,,,,,,,00056,001,2026-01-18_19h48.57.810,MST_test,2024.2.0,59.90904609108962,2026-01-18 19h49.05.181974 +0530,
45,0,46,s,1.6643602999974973,None,46,0,45,201.6027999999933,,,,,,,,,,,,,,,,,,,,,,,,,,,,,,,,,,,,,,,,,,,,,,,,,,201.58686330000637,201.6027999999933,202.1032295000041,202.08636369998567,202.09670599998208,202.1032295000041,202.1032295000041,202.1032295000041,203.770294499991,Objects\163b.jpg,post,s,1.6643602999974973,None,,,,,,,,00056,001,2026-01-18_19h48.57.810,MST_test,2024.2.0,59.90904609108962,2026-01-18 19h49.05.181974 +0530,
46,0,47,s,0.9287454999866895,None,47,0,46,203.78617009997834,,,,,,,,,,,,,,,,,,,,,,,,,,,,,,,,,,,,,,,,,,,,,,,,,,203.7703954000026,203.78617009997834,204.28658429998904,204.26975829998264,204.27877470001113,204.28658429998904,204.28658429998904,204.28658429998904,205.21970369998598,Scenes\125a.jpg,pre,s,0.9287454999866895,None,,,,,,,,00056,001,2026-01-18_19h48.57.810,MST_test,2024.2.0,59.90904609108962,2026-01-18 19h49.05.181974 +0530,
47,0,48,o,0.9582142999861389,None,48,0,47,205.2359945999924,,,,,,,,,,,,,,,,,,,,,,,,,,,,,,,,,,,,,,,,,,,,,,,,,,205.21979800000554,205.2359945999924,205.73656930000288,205.71964640001534,205.7222326999763,205.73656930000288,205.73656930000288,205.73656930000288,206.70331379998242,Objects\170a.jpg,pre,o,0.9582142999861389,None,,,,,,,,00056,001,2026-01-18_19h48.57.810,MST_test,2024.2.0,59.90904609108962,2026-01-18 19h49.05.181974 +0530,
48,0,49,n,1.1152702000108548,None,49,0,48,206.71937830001116,,,,,,,,,,,,,,,,,,,,,,,,,,,,,,,,,,,,,,,,,,,,,,,,,,206.70340369996848,206.71937830001116,207.220176599978,207.2031065999763,207.21653500001412,207.220176599978,207.220176599978,207.220176599978,208.33691169996746,Foils\scenes28.jpg,none,n,1.1152702000108548,None,,,,,,,,00056,001,2026-01-18_19h48.57.810,MST_test,2024.2.0,59.90904609108962,2026-01-18 19h49.05.181974 +0530,
49,0,50,n,2.3141645999858156,None,50,0,49,208.35266039997805,,,,,,,,,,,,,,,,,,,,,,,,,,,,,,,,,,,,,,,,,,,,,,,,,,208.33700409997255,208.35266039997805,208.85354089998873,208.83631410001544,208.84656540001743,208.85354089998873,208.85354089998873,208.85354089998873,211.17015389999142,Objects\049b.jpg,post,n,2.3141645999858156,None,,,,,,,,00056,001,2026-01-18_19h48.57.810,MST_test,2024.2.0,59.90904609108962,2026-01-18 19h49.05.181974 +0530,
50,0,51,o,1.297224699985236,None,51,0,50,211.18614700000035,,,,,,,,,,,,,,,,,,,,,,,,,,,,,,,,,,,,,,,,,,,,,,,,,,211.1702479000087,211.18614700000035,211.6863056999864,211.67034549999516,211.6729595999932,211.6863056999864,211.6863056999864,211.6863056999864,212.98669180000434,Objects\063a.jpg,post,o,1.297224699985236,None,,,,,,,,00056,001,2026-01-18_19h48.57.810,MST_test,2024.2.0,59.90904609108962,2026-01-18 19h49.05.181974 +0530,
51,0,52,n,1.219665399985388,None,52,0,51,213.0026663999888,,,,,,,,,,,,,,,,,,,,,,,,,,,,,,,,,,,,,,,,,,,,,,,,,,212.98678249999648,213.0026663999888,213.50714100000914,213.48632729996461,213.5047714000102,213.50714100000914,213.50714100000914,213.50714100000914,214.73683120001806,Scenes\054b.jpg,pre,n,1.219665399985388,None,,,,,,,,00056,001,2026-01-18_19h48.57.810,MST_test,2024.2.0,59.90904609108962,2026-01-18 19h49.05.181974 +0530,
52,0,53,s,1.578802900039591,None,53,0,52,214.75275509996573,,,,,,,,,,,,,,,,,,,,,,,,,,,,,,,,,,,,,,,,,,,,,,,,,,214.73692719999235,214.75275509996573,215.2533077999833,215.23634890001267,215.23897010000655,215.2533077999833,215.2533077999833,215.2533077999833,216.836862199998,Objects\106a.jpg,pre,s,1.578802900039591,None,,,,,,,,00056,001,2026-01-18_19h48.57.810,MST_test,2024.2.0,59.90904609108962,2026-01-18 19h49.05.181974 +0530,
53,0,54,o,1.15791559999343,None,54,0,53,216.85282779997215,,,,,,,,,,,,,,,,,,,,,,,,,,,,,,,,,,,,,,,,,,,,,,,,,,216.8369698000024,216.85282779997215,217.35295410000253,217.33634480001638,217.33896079997066,217.35295410000253,217.35295410000253,217.35295410000253,218.51998520002235,Objects\046a.jpg,post,o,1.15791559999343,None,,,,,,,,00056,001,2026-01-18_19h48.57.810,MST_test,2024.2.0,59.90904609108962,2026-01-18 19h49.05.181974 +0530,
54,0,55,n,1.1469040000229143,None,55,0,54,218.53599080001004,,,,,,,,,,,,,,,,,,,,,,,,,,,,,,,,,,,,,,,,,,,,,,,,,,218.52007550001144,218.53599080001004,219.03624719998334,219.0196274999762,219.02902509999694,219.03624719998334,219.03624719998334,219.03624719998334,220.1871240999899,Foils\049a.jpg,none,n,1.1469040000229143,None,,,,,,,,00056,001,2026-01-18_19h48.57.810,MST_test,2024.2.0,59.90904609108962,2026-01-18 19h49.05.181974 +0530,
55,0,56,s,2.391596900008153,None,56,0,55,220.20276090002153,,,,,,,,,,,,,,,,,,,,,,,,,,,,,,,,,,,,,,,,,,,,,,,,,,220.18723069998669,220.20276090002153,220.70323799998732,220.68641079997178,220.69103280000854,220.70323799998732,220.70323799998732,220.70323799998732,223.103326499986,Scenes\139a.jpg,pre,s,2.391596900008153,None,,,,,,,,00056,001,2026-01-18_19h48.57.810,MST_test,2024.2.0,59.90904609108962,2026-01-18 19h49.05.181974 +0530,
56,0,57,s,2.059857399959583,None,57,0,56,223.11940460000187,,,,,,,,,,,,,,,,,,,,,,,,,,,,,,,,,,,,,,,,,,,,,,,,,,223.1034222000162,223.11940460000187,223.61939820001135,223.6030736999819,223.6065760999918,223.61939820001135,223.61939820001135,223.61939820001135,225.6866449000081,Foils\scenes11.jpg,none,s,2.059857399959583,None,,,,,,,,00056,001,2026-01-18_19h48.57.810,MST_test,2024.2.0,59.90904609108962,2026-01-18 19h49.05.181974 +0530,
57,0,58,n,1.4364998000091873,None,58,0,57,225.7027653999976,,,,,,,,,,,,,,,,,,,,,,,,,,,,,,,,,,,,,,,,,,,,,,,,,,225.68674570001895,225.7027653999976,226.20304110000143,226.1863581999787,226.1960491000209,226.20304110000143,226.20304110000143,226.20304110000143,227.65324740001233,Foils\101b.jpg,none,n,1.4364998000091873,None,,,,,,,,00056,001,2026-01-18_19h48.57.810,MST_test,2024.2.0,59.90904609108962,2026-01-18 19h49.05.181974 +0530,
58,0,59,s,1.4131117000360973,None,59,0,58,227.6691695000045,,,,,,,,,,,,,,,,,,,,,,,,,,,,,,,,,,,,,,,,,,,,,,,,,,227.65334600000642,227.6691695000045,228.16963189997477,228.15303649997804,228.15555550000863,228.16963189997477,228.16963189997477,228.16963189997477,229.58661539998138,Objects\100b.jpg,pre,s,1.4131117000360973,None,,,,,,,,00056,001,2026-01-18_19h48.57.810,MST_test,2024.2.0,59.90904609108962,2026-01-18 19h49.05.181974 +0530,
59,0,60,s,7.8718795999884605,None,60,0,59,229.60272450000048,,,,,,,,,,,,,,,,,,,,,,,,,,,,,,,,,,,,,,,,,,,,,,,,,,229.58673059998546,229.60272450000048,230.1031057999935,230.08639449998736,230.0956068999949,230.1031057999935,230.1031057999935,230.1031057999935,237.98661670001457,Scenes\189a.jpg,mid,s,7.8718795999884605,None,,,,,,,,00056,001,2026-01-18_19h48.57.810,MST_test,2024.2.0,59.90904609108962,2026-01-18 19h49.05.181974 +0530,
60,0,61,o,1.1435825999942608,None,61,0,60,238.00276669999585,,,,,,,,,,,,,,,,,,,,,,,,,,,,,,,,,,,,,,,,,,,,,,,,,,237.98670959996525,238.00276669999585,238.5032249999931,238.48639249999542,238.49205100000836,238.5032249999931,238.5032249999931,238.5032249999931,239.65337810001802,Scenes\118a.jpg,post,o,1.1435825999942608,None,,,,,,,,00056,001,2026-01-18_19h48.57.810,MST_test,2024.2.0,59.90904609108962,2026-01-18 19h49.05.181974 +0530,
61,0,62,n,1.4054731999640353,None,62,0,61,239.66942390002077,,,,,,,,,,,,,,,,,,,,,,,,,,,,,,,,,,,,,,,,,,,,,,,,,,239.65347189997556,239.66942390002077,240.16973720001988,240.15300330001628,240.16470949997893,240.16973720001988,240.16973720001988,240.16973720001988,241.58650039997883,Objects\067b.jpg,mid,n,1.4054731999640353,None,,,,,,,,00056,001,2026-01-18_19h48.57.810,MST_test,2024.2.0,59.90904609108962,2026-01-18 19h49.05.181974 +0530,
62,0,63,n,0.9763447000295855,None,63,0,62,241.60258309997153,,,,,,,,,,,,,,,,,,,,,,,,,,,,,,,,,,,,,,,,,,,,,,,,,,241.5865909999702,241.60258309997153,242.1029955999693,242.08628579997458,242.09754340001382,242.1029955999693,242.1029955999693,242.1029955999693,243.0866292999708,Foils\098a.jpg,none,n,0.9763447000295855,None,,,,,,,,00056,001,2026-01-18_19h48.57.810,MST_test,2024.2.0,59.90904609108962,2026-01-18 19h49.05.181974 +0530,
63,0,64,n,1.3948059999966063,None,64,0,63,243.10282099997858,,,,,,,,,,,,,,,,,,,,,,,,,,,,,,,,,,,,,,,,,,,,,,,,,,243.08672469999874,243.10282099997858,243.60521720000543,243.58622739999555,243.60312589997193,243.60521720000543,243.60521720000543,243.60521720000543,245.0034328000038,Scenes\105b.jpg,pre,n,1.3948059999966063,None,,,,,,,,00056,001,2026-01-18_19h48.57.810,MST_test,2024.2.0,59.90904609108962,2026-01-18 19h49.05.181974 +0530,
64,0,65,n,1.2464171999599785,None,65,0,64,245.01923209999222,,,,,,,,,,,,,,,,,,,,,,,,,,,,,,,,,,,,,,,,,,,,,,,,,,245.00352969998494,245.01923209999222,245.521117199969,245.50305910001043,245.5189217000152,245.521117199969,245.521117199969,245.521117199969,246.77012930001365,Scenes\127b.jpg,mid,n,1.2464171999599785,None,,,,,,,,00056,001,2026-01-18_19h48.57.810,MST_test,2024.2.0,59.90904609108962,2026-01-18 19h49.05.181974 +0530,
65,0,66,o,1.0883299999986775,None,66,0,65,246.7859974000021,,,,,,,,,,,,,,,,,,,,,,,,,,,,,,,,,,,,,,,,,,,,,,,,,,246.77023069997085,246.7859974000021,247.28646919998573,247.2696164000081,247.27316629997222,247.28646919998573,247.28646919998573,247.28646919998573,248.38674559997162,Objects\015a.jpg,post,o,1.0883299999986775,None,,,,,,,,00056,001,2026-01-18_19h48.57.810,MST_test,2024.2.0,59.90904609108962,2026-01-18 19h49.05.181974 +0530,
66,0,67,o,1.1045994000160135,None,67,0,66,248.40273669996532,,,,,,,,,,,,,,,,,,,,,,,,,,,,,,,,,,,,,,,,,,,,,,,,,,248.38683480001055,248.40273669996532,248.90294609998818,248.88642779999645,248.89657270000316,248.90294609998818,248.90294609998818,248.90294609998818,250.01987279998139,Objects\050b.jpg,post,o,1.1045994000160135,None,,,,,,,,00056,001,2026-01-18_19h48.57.810,MST_test,2024.2.0,59.90904609108962,2026-01-18 19h49.05.181974 +0530,
67,0,68,n,1.1355732000083663,None,68,0,67,250.03597139997873,,,,,,,,,,,,,,,,,,,,,,,,,,,,,,,,,,,,,,,,,,,,,,,,,,250.01996479998343,250.03597139997873,250.53625810000813,250.51982759998646,250.52996239997447,250.53625810000813,250.53625810000813,250.53625810000813,251.68699750001542,Foils\090a.jpg,none,n,1.1355732000083663,None,,,,,,,,00056,001,2026-01-18_19h48.57.810,MST_test,2024.2.0,59.90904609108962,2026-01-18 19h49.05.181974 +0530,
68,0,69,s,1.6934437999734655,None,69,0,68,251.70275130000664,,,,,,,,,,,,,,,,,,,,,,,,,,,,,,,,,,,,,,,,,,,,,,,,,,251.68709989998024,251.70275130000664,252.20286919997307,252.1862617000006,252.18881919997511,252.20286919997307,252.20286919997307,252.20286919997307,253.90340130002005,Objects\043a.jpg,mid,s,1.6934437999734655,None,,,,,,,,00056,001,2026-01-18_19h48.57.810,MST_test,2024.2.0,59.90904609108962,2026-01-18 19h49.05.181974 +0530,
69,0,70,s,1.5320891999872401,None,70,0,69,253.9191642999649,,,,,,,,,,,,,,,,,,,,,,,,,,,,,,,,,,,,,,,,,,,,,,,,,,253.90349669998977,253.9191642999649,254.41939419996925,254.40321040002163,254.41368180001155,254.41939419996925,254.41939419996925,254.41939419996925,255.95337499998277,Objects\158b.jpg,mid,s,1.5320891999872401,None,,,,,,,,00056,001,2026-01-18_19h48.57.810,MST_test,2024.2.0,59.90904609108962,2026-01-18 19h49.05.181974 +0530,
70,0,71,s,2.864991199981887,None,71,0,70,255.96918419998838,,,,,,,,,,,,,,,,,,,,,,,,,,,,,,,,,,,,,,,,,,,,,,,,,,255.95347249996848,255.96918419998838,256.47047250001924,256.4530160999857,256.46812249999493,256.47047250001924,256.47047250001924,256.47047250001924,259.33665770001244,Scenes\004b.jpg,pre,s,2.864991199981887,None,,,,,,,,00056,001,2026-01-18_19h48.57.810,MST_test,2024.2.0,59.90904609108962,2026-01-18 19h49.05.181974 +0530,
71,0,72,n,1.3544044999871403,None,72,0,71,259.35266269999556,,,,,,,,,,,,,,,,,,,,,,,,,,,,,,,,,,,,,,,,,,,,,,,,,,259.33674930001143,259.35266269999556,259.8531293999986,259.8361788999755,259.83937090000836,259.8531293999986,259.8531293999986,259.8531293999986,261.21989369997755,Foils\097a.jpg,none,n,1.3544044999871403,None,,,,,,,,00056,001,2026-01-18_19h48.57.810,MST_test,2024.2.0,59.90904609108962,2026-01-18 19h49.05.181974 +0530,
72,0,73,s,1.3508181999786757,None,73,0,72,261.2359731000033,,,,,,,,,,,,,,,,,,,,,,,,,,,,,,,,,,,,,,,,,,,,,,,,,,261.21999070001766,261.2359731000033,261.7362372999778,261.7194110999699,261.7290869000135,261.7362372999778,261.7362372999778,261.7362372999778,263.10325179999927,Objects\126b.jpg,mid,s,1.3508181999786757,None,,,,,,,,00056,001,2026-01-18_19h48.57.810,MST_test,2024.2.0,59.90904609108962,2026-01-18 19h49.05.181974 +0530,
73,0,74,o,1.1316194999963045,None,74,0,73,263.1191905000014,,,,,,,,,,,,,,,,,,,,,,,,,,,,,,,,,,,,,,,,,,,,,,,,,,263.10334370000055,263.1191905000014,263.6196171999909,263.6030023000203,263.60915829997975,263.6196171999909,263.6196171999909,263.6196171999909,264.75330659997417,Scenes\007a.jpg,mid,o,1.1316194999963045,None,,,,,,,,00056,001,2026-01-18_19h48.57.810,MST_test,2024.2.0,59.90904609108962,2026-01-18 19h49.05.181974 +0530,
74,0,75,o,1.2731816000305116,None,75,0,74,264.7692666000221,,,,,,,,,,,,,,,,,,,,,,,,,,,,,,,,,,,,,,,,,,,,,,,,,,264.7534016999998,264.7692666000221,265.2698218000005,265.2528361000004,265.2610238000052,265.2698218000005,265.2698218000005,265.2698218000005,266.55337229999714,Scenes\187a.jpg,pre,o,1.2731816000305116,None,,,,,,,,00056,001,2026-01-18_19h48.57.810,MST_test,2024.2.0,59.90904609108962,2026-01-18 19h49.05.181974 +0530,
75,0,76,o,0.9380474999779835,None,76,0,75,266.56937709997874,,,,,,,,,,,,,,,,,,,,,,,,,,,,,,,,,,,,,,,,,,,,,,,,,,266.5534650000045,266.56937709997874,267.06971309997607,267.0529138999991,267.0561656000209,267.06971309997607,267.06971309997607,267.06971309997607,268.01982889999636,Objects\177a.jpg,post,o,0.9380474999779835,None,,,,,,,,00056,001,2026-01-18_19h48.57.810,MST_test,2024.2.0,59.90904609108962,2026-01-18 19h49.05.181974 +0530,
76,0,77,s,1.5079522000160068,None,77,0,76,268.03591159998905,,,,,,,,,,,,,,,,,,,,,,,,,,,,,,,,,,,,,,,,,,,,,,,,,,268.01991839997936,268.03591159998905,268.53929990000324,268.51959919999354,268.5372685000184,268.53929990000324,268.53929990000324,268.53929990000324,270.0532344999956,Scenes\041b.jpg,mid,s,1.5079522000160068,None,,,,,,,,00056,001,2026-01-18_19h48.57.810,MST_test,2024.2.0,59.90904609108962,2026-01-18 19h49.05.181974 +0530,
77,0,78,o,1.0690793999820016,None,78,0,77,270.06914779997896,,,,,,,,,,,,,,,,,,,,,,,,,,,,,,,,,,,,,,,,,,,,,,,,,,270.0533252999885,270.06914779997896,270.5698797000223,270.5528549000155,270.56417299999157,270.5698797000223,270.5698797000223,270.5698797000223,271.653238400002,Objects\051b.jpg,pre,o,1.0690793999820016,None,,,,,,,,00056,001,2026-01-18_19h48.57.810,MST_test,2024.2.0,59.90904609108962,2026-01-18 19h49.05.181974 +0530,
78,0,79,s,1.52283480000915,None,79,0,78,271.6691872999654,,,,,,,,,,,,,,,,,,,,,,,,,,,,,,,,,,,,,,,,,,,,,,,,,,271.65332859999035,271.6691872999654,272.17218579998007,272.15288720000535,272.1699193000095,272.17218579998007,272.17218579998007,272.17218579998007,273.70333879999816,Scenes\130b.jpg,pre,s,1.52283480000915,None,,,,,,,,00056,001,2026-01-18_19h48.57.810,MST_test,2024.2.0,59.90904609108962,2026-01-18 19h49.05.181974 +0530,
79,0,80,o,1.6204676000052132,None,80,0,79,273.71921949996613,,,,,,,,,,,,,,,,,,,,,,,,,,,,,,,,,,,,,,,,,,,,,,,,,,273.70343280001543,273.71921949996613,274.2195939999656,274.20290129998466,274.20635449996917,274.2195939999656,274.2195939999656,274.2195939999656,275.85344099998474,Objects\147a.jpg,pre,o,1.6204676000052132,None,,,,,,,,00056,001,2026-01-18_19h48.57.810,MST_test,2024.2.0,59.90904609108962,2026-01-18 19h49.05.181974 +0530,
80,0,81,o,1.5095329000032507,None,81,0,80,275.86915400001453,,,,,,,,,,,,,,,,,,,,,,,,,,,,,,,,,,,,,,,,,,,,,,,,,,275.85353590000886,275.86915400001453,276.36972339998465,276.35310670000035,276.36346069996944,276.36972339998465,276.36972339998465,276.36972339998465,277.8867859999882,Scenes\102a.jpg,mid,o,1.5095329000032507,None,,,,,,,,00056,001,2026-01-18_19h48.57.810,MST_test,2024.2.0,59.90904609108962,2026-01-18 19h49.05.181974 +0530,
81,0,82,s,3.1965538999647833,None,82,0,81,277.9026396999834,,,,,,,,,,,,,,,,,,,,,,,,,,,,,,,,,,,,,,,,,,,,,,,,,,277.8868745000218,277.9026396999834,278.4031018000096,278.3863923000172,278.3893265000079,278.4031018000096,278.4031018000096,278.4031018000096,281.6031960999826,Objects\058a.jpg,pre,s,3.1965538999647833,None,,,,,,,,00056,001,2026-01-18_19h48.57.810,MST_test,2024.2.0,59.90904609108962,2026-01-18 19h49.05.181974 +0530,
82,0,83,n,1.9519678999786265,None,83,0,82,281.61928310000803,,,,,,,,,,,,,,,,,,,,,,,,,,,,,,,,,,,,,,,,,,,,,,,,,,281.6032853000215,281.61928310000803,282.1196988999727,282.10302310000407,282.11003539996454,282.1196988999727,282.1196988999727,282.1196988999727,284.08681519998936,Scenes\126b.jpg,post,n,1.9519678999786265,None,,,,,,,,00056,001,2026-01-18_19h48.57.810,MST_test,2024.2.0,59.90904609108962,2026-01-18 19h49.05.181974 +0530,
83,0,84,n,1.5619142999639735,None,84,0,83,284.102693199995,,,,,,,,,,,,,,,,,,,,,,,,,,,,,,,,,,,,,,,,,,,,,,,,,,284.0869171000086,284.102693199995,284.6052438999759,284.58616050001,284.6032766000135,284.6052438999759,284.6052438999759,284.6052438999759,286.169971299998,Scenes\175b.jpg,mid,n,1.5619142999639735,None,,,,,,,,00056,001,2026-01-18_19h48.57.810,MST_test,2024.2.0,59.90904609108962,2026-01-18 19h49.05.181974 +0530,
84,0,85,s,1.2500476999557577,None,85,0,84,286.18618810002226,,,,,,,,,,,,,,,,,,,,,,,,,,,,,,,,,,,,,,,,,,,,,,,,,,286.17006299999775,286.18618810002226,286.6864239000133,286.66971320001176,286.67981210001744,286.6864239000133,286.6864239000133,286.6864239000133,287.9533172000083,Objects\018b.jpg,pre,s,1.2500476999557577,None,,,,,,,,00056,001,2026-01-18_19h48.57.810,MST_test,2024.2.0,59.90904609108962,2026-01-18 19h49.05.181974 +0530,
85,0,86,o,2.186595799983479,None,86,0,85,287.9691753999796,,,,,,,,,,,,,,,,,,,,,,,,,,,,,,,,,,,,,,,,,,,,,,,,,,287.95341179997195,287.9691753999796,288.4696901999996,288.45289750001393,288.45705099997576,288.4696901999996,288.4696901999996,288.4696901999996,290.6698569,Scenes\008b.jpg,post,o,2.186595799983479,None,,,,,,,,00056,001,2026-01-18_19h48.57.810,MST_test,2024.2.0,59.90904609108962,2026-01-18 19h49.05.181974 +0530,
86,0,87,n,1.7008800000185147,None,87,0,86,290.6859921999858,,,,,,,,,,,,,,,,,,,,,,,,,,,,,,,,,,,,,,,,,,,,,,,,,,290.66994970000815,290.6859921999858,291.186408700014,291.16949509998085,291.1797598999692,291.186408700014,291.186408700014,291.186408700014,292.9034376000054,Objects\165b.jpg,pre,n,1.7008800000185147,None,,,,,,,,00056,001,2026-01-18_19h48.57.810,MST_test,2024.2.0,59.90904609108962,2026-01-18 19h49.05.181974 +0530,
87,0,88,o,1.068008100031875,None,88,0,87,292.9192011000123,,,,,,,,,,,,,,,,,,,,,,,,,,,,,,,,,,,,,,,,,,,,,,,,,,292.90353399998276,292.9192011000123,293.41944440000225,293.4029136999743,293.40570709999884,293.41944440000225,293.41944440000225,293.41944440000225,294.5031982999644,Foils\066a.jpg,none,o,1.068008100031875,None,,,,,,,,00056,001,2026-01-18_19h48.57.810,MST_test,2024.2.0,59.90904609108962,2026-01-18 19h49.05.181974 +0530,
88,0,89,o,1.259621099976357,None,89,0,88,294.5191565999994,,,,,,,,,,,,,,,,,,,,,,,,,,,,,,,,,,,,,,,,,,,,,,,,,,294.5032882000087,294.5191565999994,295.019824100018,295.0031261999975,295.01443699997617,295.019824100018,295.019824100018,295.019824100018,296.28665700001875,Scenes\016b.jpg,mid,o,1.259621099976357,None,,,,,,,,00056,001,2026-01-18_19h48.57.810,MST_test,2024.2.0,59.90904609108962,2026-01-18 19h49.05.181974 +0530,
89,0,90,o,0.9078895999700762,None,90,0,89,296.3025959000224,,,,,,,,,,,,,,,,,,,,,,,,,,,,,,,,,,,,,,,,,,,,,,,,,,296.2867480000132,296.3025959000224,296.803037900012,296.7862166999839,296.78944989998126,296.803037900012,296.803037900012,296.803037900012,297.7199990999652,Objects\099a.jpg,mid,o,0.9078895999700762,None,,,,,,,,00056,001,2026-01-18_19h48.57.810,MST_test,2024.2.0,59.90904609108962,2026-01-18 19h49.05.181974 +0530,
90,0,91,s,1.7067895000218414,None,91,0,90,297.7359731000033,,,,,,,,,,,,,,,,,,,,,,,,,,,,,,,,,,,,,,,,,,,,,,,,,,297.72009680001065,297.7359731000033,298.23615339997923,298.21940760000143,298.22186420002254,298.23615339997923,298.23615339997923,298.23615339997923,299.953197899973,Objects\086a.jpg,mid,s,1.7067895000218414,None,,,,,,,,00056,001,2026-01-18_19h48.57.810,MST_test,2024.2.0,59.90904609108962,2026-01-18 19h49.05.181974 +0530,
91,0,92,s,4.298010800033808,None,92,0,91,299.9691988999839,,,,,,,,,,,,,,,,,,,,,,,,,,,,,,,,,,,,,,,,,,,,,,,,,,299.9532865000074,299.9691988999839,300.4698229000205,300.4530061999685,300.4595262000221,300.4698229000205,300.4698229000205,300.4698229000205,304.7699588999967,Scenes\136a.jpg,mid,s,4.298010800033808,None,,,,,,,,00056,001,2026-01-18_19h48.57.810,MST_test,2024.2.0,59.90904609108962,2026-01-18 19h49.05.181974 +0530,
92,0,93,s,2.311399399943184,None,93,0,92,304.7859269999899,,,,,,,,,,,,,,,,,,,,,,,,,,,,,,,,,,,,,,,,,,,,,,,,,,304.7700509999995,304.7859269999899,305.2877519999747,305.2695839999942,305.28569629997946,305.2877519999747,305.2877519999747,305.2877519999747,307.6032570999814,Scenes\180b.jpg,mid,s,2.311399399943184,None,,,,,,,,00056,001,2026-01-18_19h48.57.810,MST_test,2024.2.0,59.90904609108962,2026-01-18 19h49.05.181974 +0530,
93,0,94,o,1.336451000010129,None,94,0,93,307.61921939998865,,,,,,,,,,,,,,,,,,,,,,,,,,,,,,,,,,,,,,,,,,,,,,,,,,307.60335150000174,307.61921939998865,308.11987090000184,308.10292169998866,308.1149736000225,308.11987090000184,308.11987090000184,308.11987090000184,309.4697628999711,Scenes\010a.jpg,post,o,1.336451000010129,None,,,,,,,,00056,001,2026-01-18_19h48.57.810,MST_test,2024.2.0,59.90904609108962,2026-01-18 19h49.05.181974 +0530,
94,0,95,o,2.2444862999836914,None,95,0,94,309.4859985000221,,,,,,,,,,,,,,,,,,,,,,,,,,,,,,,,,,,,,,,,,,,,,,,,,,309.4698505999986,309.4859985000221,309.9868134999997,309.9696865999722,309.98225120001007,309.9868134999997,309.9868134999997,309.9868134999997,312.2368418999831,Scenes\179b.jpg,post,o,2.2444862999836914,None,,,,,,,,00056,001,2026-01-18_19h48.57.810,MST_test,2024.2.0,59.90904609108962,2026-01-18 19h49.05.181974 +0530,
95,0,96,s,1.5097203000332229,None,96,0,95,312.2527571999817,,,,,,,,,,,,,,,,,,,,,,,,,,,,,,,,,,,,,,,,,,,,,,,,,,312.23694430000614,312.2527571999817,312.7533087999909,312.73665430000983,312.74023110000417,312.7533087999909,312.7533087999909,312.7533087999909,314.2702036999981,Scenes\033a.jpg,post,s,1.5097203000332229,None,,,,,,,,00056,001,2026-01-18_19h48.57.810,MST_test,2024.2.0,59.90904609108962,2026-01-18 19h49.05.181974 +0530,
96,0,97,n,2.4293170000310056,None,97,0,96,314.2861015999806,,,,,,,,,,,,,,,,,,,,,,,,,,,,,,,,,,,,,,,,,,,,,,,,,,314.270296600007,314.2861015999806,314.78632820001803,314.7695824999828,314.77290490001906,314.78632820001803,314.78632820001803,314.78632820001803,317.2199986000196,Objects\187a.jpg,post,n,2.4293170000310056,None,,,,,,,,00056,001,2026-01-18_19h48.57.810,MST_test,2024.2.0,59.90904609108962,2026-01-18 19h49.05.181974 +0530,
97,0,98,n,2.0673779000062495,None,98,0,97,317.2360969000147,,,,,,,,,,,,,,,,,,,,,,,,,,,,,,,,,,,,,,,,,,,,,,,,,,317.22009680001065,317.2360969000147,317.7401114999666,317.71967720001703,317.7379564999719,317.7401114999666,317.7401114999666,317.7401114999666,319.8201221000054,Scenes\025b.jpg,post,n,2.0673779000062495,None,,,,,,,,00056,001,2026-01-18_19h48.57.810,MST_test,2024.2.0,59.90904609108962,2026-01-18 19h49.05.181974 +0530,
98,0,99,n,1.006155500013847,None,99,0,98,319.83603720000247,,,,,,,,,,,,,,,,,,,,,,,,,,,,,,,,,,,,,,,,,,,,,,,,,,319.82021689997055,319.83603720000247,320.3367076999857,320.31968469999265,320.3231250999961,320.3367076999857,320.3367076999857,320.3367076999857,321.3532452000072,Foils\121a.jpg,none,n,1.006155500013847,None,,,,,,,,00056,001,2026-01-18_19h48.57.810,MST_test,2024.2.0,59.90904609108962,2026-01-18 19h49.05.181974 +0530,
99,0,100,n,1.0573204000247642,None,100,0,99,321.3694404999842,,,,,,,,,,,,,,,,,,,,,,,,,,,,,,,,,,,,,,,,,,,,,,,,,,321.3533344999887,321.3694404999842,321.8696589000174,321.85302290000254,321.8630252999719,321.8696589000174,321.8696589000174,321.8696589000174,322.93661480001174,Scenes\085b.jpg,pre,n,1.0573204000247642,None,,,,,,,,00056,001,2026-01-18_19h48.57.810,MST_test,2024.2.0,59.90904609108962,2026-01-18 19h49.05.181974 +0530,
100,0,101,s,1.3855677000246942,None,101,0,100,322.9527974000084,,,,,,,,,,,,,,,,,,,,,,,,,,,,,,,,,,,,,,,,,,,,,,,,,,322.9367108999868,322.9527974000084,323.45328790001804,323.4363576999749,323.4393330999883,323.45328790001804,323.45328790001804,323.45328790001804,324.85330949997297,Objects\134a.jpg,post,s,1.3855677000246942,None,,,,,,,,00056,001,2026-01-18_19h48.57.810,MST_test,2024.2.0,59.90904609108962,2026-01-18 19h49.05.181974 +0530,
101,0,102,o,1.1332215000293218,None,102,0,101,324.8694374000188,,,,,,,,,,,,,,,,,,,,,,,,,,,,,,,,,,,,,,,,,,,,,,,,,,324.85340010002255,324.8694374000188,325.36965020000935,325.35304229997564,325.3555555000203,325.36965020000935,325.36965020000935,325.36965020000935,326.5035771999974,Objects\129a.jpg,pre,o,1.1332215000293218,None,,,,,,,,00056,001,2026-01-18_19h48.57.810,MST_test,2024.2.0,59.90904609108962,2026-01-18 19h49.05.181974 +0530,
102,0,103,n,1.163866400020197,None,103,0,102,326.51944289996754,,,,,,,,,,,,,,,,,,,,,,,,,,,,,,,,,,,,,,,,,,,,,,,,,,326.50367150001694,326.51944289996754,327.0195874000201,327.0031641999958,327.00586109998403,327.0195874000201,327.0195874000201,327.0195874000201,328.18673919996945,Foils\010a.jpg,none,n,1.163866400020197,None,,,,,,,,00056,001,2026-01-18_19h48.57.810,MST_test,2024.2.0,59.90904609108962,2026-01-18 19h49.05.181974 +0530,
103,0,104,s,1.0873437999980524,None,104,0,103,328.20281909999903,,,,,,,,,,,,,,,,,,,,,,,,,,,,,,,,,,,,,,,,,,,,,,,,,,328.1868284000084,328.20281909999903,328.70342969999183,328.68628590001026,328.6997353999759,328.70342969999183,328.70342969999183,328.70342969999183,329.80338260001736,Scenes\080b.jpg,post,s,1.0873437999980524,None,,,,,,,,00056,001,2026-01-18_19h48.57.810,MST_test,2024.2.0,59.90904609108962,2026-01-18 19h49.05.181974 +0530,
104,0,105,s,1.5118074999772944,None,105,0,104,329.8194371999707,,,,,,,,,,,,,,,,,,,,,,,,,,,,,,,,,,,,,,,,,,,,,,,,,,329.8034819000168,329.8194371999707,330.3199303000001,330.3030258999788,330.31284369999776,330.3199303000001,330.3199303000001,330.3199303000001,331.8368075999897,Scenes\190a.jpg,post,s,1.5118074999772944,None,,,,,,,,00056,001,2026-01-18_19h48.57.810,MST_test,2024.2.0,59.90904609108962,2026-01-18 19h49.05.181974 +0530,
105,0,106,s,1.3735523999785073,None,106,0,105,331.852756200009,,,,,,,,,,,,,,,,,,,,,,,,,,,,,,,,,,,,,,,,,,,,,,,,,,331.8369047999731,331.852756200009,332.35330650000833,332.33636690001003,332.34761369996704,332.35330650000833,332.35330650000833,332.35330650000833,333.7365921000019,Objects\112b.jpg,post,s,1.3735523999785073,None,,,,,,,,00056,001,2026-01-18_19h48.57.810,MST_test,2024.2.0,59.90904609108962,2026-01-18 19h49.05.181974 +0530,
106,0,107,n,1.1303751000086777,None,107,0,106,333.75276669999585,,,,,,,,,,,,,,,,,,,,,,,,,,,,,,,,,,,,,,,,,,,,,,,,,,333.7366854000138,333.75276669999585,334.25311439996585,334.2364577999688,334.2455723999883,334.25311439996585,334.25311439996585,334.25311439996585,335.38679229997797,Foils\scenes3.jpg,none,n,1.1303751000086777,None,,,,,,,,00056,001,2026-01-18_19h48.57.810,MST_test,2024.2.0,59.90904609108962,2026-01-18 19h49.05.181974 +0530,
107,0,108,n,1.9038133000140078,None,108,0,107,335.40269859996624,,,,,,,,,,,,,,,,,,,,,,,,,,,,,,,,,,,,,,,,,,,,,,,,,,335.3868830999709,335.40269859996624,335.9030997999944,335.886407700018,335.8886728999787,335.9030997999944,335.9030997999944,335.9030997999944,337.8200165000162,Foils\scenes7.jpg,none,n,1.9038133000140078,None,,,,,,,,00056,001,2026-01-18_19h48.57.810,MST_test,2024.2.0,59.90904609108962,2026-01-18 19h49.05.181974 +0530,
108,0,109,o,4.215018799994141,None,109,0,108,337.8360484999721,,,,,,,,,,,,,,,,,,,,,,,,,,,,,,,,,,,,,,,,,,,,,,,,,,337.820112299989,337.8360484999721,338.33644320000894,338.3197509999736,338.33146820002,338.33644320000894,338.33644320000894,338.33644320000894,342.5535529999761,Scenes\046a.jpg,pre,o,4.215018799994141,None,,,,,,,,00056,001,2026-01-18_19h48.57.810,MST_test,2024.2.0,59.90904609108962,2026-01-18 19h49.05.181974 +0530,
109,0,110,n,1.5696772999945097,None,110,0,109,342.5693377999705,,,,,,,,,,,,,,,,,,,,,,,,,,,,,,,,,,,,,,,,,,,,,,,,,,342.5536506000208,342.5693377999705,343.0699512999854,343.0530532000121,343.05530569999246,343.0699512999854,343.0699512999854,343.0699512999854,344.6535999000189,Foils\scenes13.jpg,none,n,1.5696772999945097,None,,,,,,,,00056,001,2026-01-18_19h48.57.810,MST_test,2024.2.0,59.90904609108962,2026-01-18 19h49.05.181974 +0530,
110,0,111,s,1.6130956999841146,None,111,0,110,344.6692651999765,,,,,,,,,,,,,,,,,,,,,,,,,,,,,,,,,,,,,,,,,,,,,,,,,,344.65370580001036,344.6692651999765,345.16974240000127,345.1531299999915,345.1651853999938,345.16974240000127,345.16974240000127,345.16974240000127,346.7865560000064,Scenes\141b.jpg,post,s,1.6130956999841146,None,,,,,,,,00056,001,2026-01-18_19h48.57.810,MST_test,2024.2.0,59.90904609108962,2026-01-18 19h49.05.181974 +0530,
111,0,112,n,1.1038660000194795,None,112,0,111,346.80266799998935,,,,,,,,,,,,,,,,,,,,,,,,,,,,,,,,,,,,,,,,,,,,,,,,,,346.7866470000008,346.80266799998935,347.3030282999971,347.28620809997665,347.2881774000125,347.3030282999971,347.3030282999971,347.3030282999971,348.4200894999667,Foils\scenes5.jpg,none,n,1.1038660000194795,None,,,,,,,,00056,001,2026-01-18_19h48.57.810,MST_test,2024.2.0,59.90904609108962,2026-01-18 19h49.05.181974 +0530,
112,0,113,n,1.2387474999995902,None,113,0,112,348.43605359998764,,,,,,,,,,,,,,,,,,,,,,,,,,,,,,,,,,,,,,,,,,,,,,,,,,348.42018620000454,348.43605359998764,348.9364317000145,348.9197994999704,348.92285259999335,348.9364317000145,348.9364317000145,348.9364317000145,350.1866701999679,Foils\058a.jpg,none,n,1.2387474999995902,None,,,,,,,,00056,001,2026-01-18_19h48.57.810,MST_test,2024.2.0,59.90904609108962,2026-01-18 19h49.05.181974 +0530,
113,0,114,s,2.5923815999994986,None,114,0,113,350.2028090999811,,,,,,,,,,,,,,,,,,,,,,,,,,,,,,,,,,,,,,,,,,,,,,,,,,350.18676429998595,350.2028090999811,350.70323460001964,350.6864002000075,350.6995272000204,350.70323460001964,350.70323460001964,350.70323460001964,353.3034843999776,Scenes\176b.jpg,mid,s,2.5923815999994986,None,,,,,,,,00056,001,2026-01-18_19h48.57.810,MST_test,2024.2.0,59.90904609108962,2026-01-18 19h49.05.181974 +0530,
114,0,115,o,3.026974899985362,None,115,0,114,353.31944459996885,,,,,,,,,,,,,,,,,,,,,,,,,,,,,,,,,,,,,,,,,,,,,,,,,,353.3035901999683,353.31944459996885,353.8198531999951,353.8030175999738,353.81082880002214,353.8198531999951,353.8198531999951,353.8198531999951,356.8533328999765,Scenes\115a.jpg,mid,o,3.026974899985362,None,,,,,,,,00056,001,2026-01-18_19h48.57.810,MST_test,2024.2.0,59.90904609108962,2026-01-18 19h49.05.181974 +0530,
115,0,116,o,3.0776751000084914,None,116,0,115,356.8694522000151,,,,,,,,,,,,,,,,,,,,,,,,,,,,,,,,,,,,,,,,,,,,,,,,,,356.8534237999702,356.8694522000151,357.3700272999704,357.3530348999775,357.3608748000115,357.3700272999704,357.3700272999704,357.3700272999704,360.45334090001415,Scenes\150a.jpg,mid,o,3.0776751000084914,None,,,,,,,,00056,001,2026-01-18_19h48.57.810,MST_test,2024.2.0,59.90904609108962,2026-01-18 19h49.05.181974 +0530,
116,0,117,n,1.1495640000212006,None,117,0,116,360.46943140000803,,,,,,,,,,,,,,,,,,,,,,,,,,,,,,,,,,,,,,,,,,,,,,,,,,360.4534332000185,360.46943140000803,360.9699861999834,360.9530542999855,360.9640237999847,360.9699861999834,360.9699861999834,360.9699861999834,362.1204716999782,Objects\191b.jpg,pre,n,1.1495640000212006,None,,,,,,,,00056,001,2026-01-18_19h48.57.810,MST_test,2024.2.0,59.90904609108962,2026-01-18 19h49.05.181974 +0530,
117,0,118,n,2.403055000002496,None,118,0,117,362.13621490000514,,,,,,,,,,,,,,,,,,,,,,,,,,,,,,,,,,,,,,,,,,,,,,,,,,362.12056269997265,362.13621490000514,362.63680109998677,362.6196731000091,362.6346728000208,362.63680109998677,362.63680109998677,362.63680109998677,365.0533025999903,Scenes\075b.jpg,post,n,2.403055000002496,None,,,,,,,,00056,001,2026-01-18_19h48.57.810,MST_test,2024.2.0,59.90904609108962,2026-01-18 19h49.05.181974 +0530,
118,0,119,o,1.051315999997314,None,119,0,118,365.06945289997384,,,,,,,,,,,,,,,,,,,,,,,,,,,,,,,,,,,,,,,,,,,,,,,,,,365.05339680000907,365.06945289997384,365.5728508000029,365.5529603000032,365.57044430001406,365.5728508000029,365.5728508000029,365.5728508000029,366.6370397999999,Scenes\038b.jpg,mid,o,1.051315999997314,None,,,,,,,,00056,001,2026-01-18_19h48.57.810,MST_test,2024.2.0,59.90904609108962,2026-01-18 19h49.05.181974 +0530,
119,0,120,s,1.5349257999914698,None,120,0,119,366.65289680002024,,,,,,,,,,,,,,,,,,,,,,,,,,,,,,,,,,,,,,,,,,,,,,,,,,366.63713930000085,366.65289680002024,367.1534029999748,367.1364263999858,367.14687749999575,367.1534029999748,367.1534029999748,367.1534029999748,368.7034489000216,Objects\137b.jpg,pre,s,1.5349257999914698,None,,,,,,,,00056,001,2026-01-18_19h48.57.810,MST_test,2024.2.0,59.90904609108962,2026-01-18 19h49.05.181974 +0530,
120,0,121,s,1.37999280000804,None,121,0,120,368.71935610001674,,,,,,,,,,,,,,,,,,,,,,,,,,,,,,,,,,,,,,,,,,,,,,,,,,368.7035409999662,368.71935610001674,369.21955039998284,369.20306039997377,369.2130862000049,369.21955039998284,369.21955039998284,369.21955039998284,370.60332120000385,Objects\180b.jpg,post,s,1.37999280000804,None,,,,,,,,00056,001,2026-01-18_19h48.57.810,MST_test,2024.2.0,59.90904609108962,2026-01-18 19h49.05.181974 +0530,
121,0,122,n,1.3910987000563182,None,122,0,121,370.61921600002097,,,,,,,,,,,,,,,,,,,,,,,,,,,,,,,,,,,,,,,,,,,,,,,,,,370.6034145000158,370.61921600002097,371.11984990001656,371.10297269996954,371.10840229998576,371.11984990001656,371.11984990001656,371.11984990001656,372.5199905000045,Scenes\147a.jpg,pre,n,1.3910987000563182,None,,,,,,,,00056,001,2026-01-18_19h48.57.810,MST_test,2024.2.0,59.90904609108962,2026-01-18 19h49.05.181974 +0530,
122,0,123,s,4.63624510000227,None,123,0,122,372.53602990001673,,,,,,,,,,,,,,,,,,,,,,,,,,,,,,,,,,,,,,,,,,,,,,,,,,372.5200898000039,372.53602990001673,373.03654140001163,373.01961929997196,373.0291274000192,373.03654140001163,373.03654140001163,373.03654140001163,377.6867866999819,Scenes\059b.jpg,mid,s,4.63624510000227,None,,,,,,,,00056,001,2026-01-18_19h48.57.810,MST_test,2024.2.0,59.90904609108962,2026-01-18 19h49.05.181974 +0530,
123,0,124,s,2.3321281999815255,None,124,0,123,377.70266070001526,,,,,,,,,,,,,,,,,,,,,,,,,,,,,,,,,,,,,,,,,,,,,,,,,,377.6868807999999,377.70266070001526,378.2032664999715,378.18622869998217,378.1940289000049,378.2032664999715,378.2032664999715,378.2032664999715,380.5369750999962,Scenes\083a.jpg,post,s,2.3321281999815255,None,,,,,,,,00056,001,2026-01-18_19h48.57.810,MST_test,2024.2.0,59.90904609108962,2026-01-18 19h49.05.181974 +0530,
124,0,125,o,1.0818930999957956,None,125,0,124,380.5526718000183,,,,,,,,,,,,,,,,,,,,,,,,,,,,,,,,,,,,,,,,,,,,,,,,,,380.5370723999804,380.5526718000183,381.0531946999836,381.0362532999716,381.0395860999706,381.0531946999836,381.0531946999836,381.0531946999836,382.1369062999729,Objects\108a.jpg,post,o,1.0818930999957956,None,,,,,,,,00056,001,2026-01-18_19h48.57.810,MST_test,2024.2.0,59.90904609108962,2026-01-18 19h49.05.181974 +0530,
125,0,126,n,2.361974100000225,None,126,0,125,382.15268050000304,,,,,,,,,,,,,,,,,,,,,,,,,,,,,,,,,,,,,,,,,,,,,,,,,,382.1369963000179,382.15268050000304,382.6531165000051,382.6363724999828,382.6457033000188,382.6531165000051,382.6531165000051,382.6531165000051,385.0206854999997,Scenes\040b.jpg,post,n,2.361974100000225,None,,,,,,,,00056,001,2026-01-18_19h48.57.810,MST_test,2024.2.0,59.90904609108962,2026-01-18 19h49.05.181974 +0530,
126,0,127,s,1.4952362999902107,None,127,0,126,385.03675709996605,,,,,,,,,,,,,,,,,,,,,,,,,,,,,,,,,,,,,,,,,,,,,,,,,,385.0207916999934,385.03675709996605,385.5364837999805,385.51951249997364,385.52816170000006,385.5364837999805,385.5364837999805,385.5364837999805,387.03663340001367,Foils\scenes2.jpg,none,s,1.4952362999902107,None,,,,,,,,00056,001,2026-01-18_19h48.57.810,MST_test,2024.2.0,59.90904609108962,2026-01-18 19h49.05.181974 +0530,
127,0,128,s,1.5593082999694161,None,128,0,127,387.05273419996956,,,,,,,,,,,,,,,,,,,,,,,,,,,,,,,,,,,,,,,,,,,,,,,,,,387.0367249000119,387.05273419996956,387.5530378000112,387.5364397999947,387.54250599996885,387.5530378000112,387.5530378000112,387.5530378000112,389.1197659000172,Scenes\124a.jpg,pre,s,1.5593082999694161,None,,,,,,,,00056,001,2026-01-18_19h48.57.810,MST_test,2024.2.0,59.90904609108962,2026-01-18 19h49.05.181974 +0530,
128,0,129,o,1.6906428000074811,None,129,0,128,389.1360155000002,,,,,,,,,,,,,,,,,,,,,,,,,,,,,,,,,,,,,,,,,,,,,,,,,,389.1198563000071,389.1360155000002,389.6364648999879,389.6195219999645,389.6294865999953,389.6364648999879,389.6364648999879,389.6364648999879,391.33666359999916,Objects\152b.jpg,pre,o,1.6906428000074811,None,,,,,,,,00056,001,2026-01-18_19h48.57.810,MST_test,2024.2.0,59.90904609108962,2026-01-18 19h49.05.181974 +0530,
129,0,130,o,1.4100348000065424,None,130,0,129,391.3526855999953,,,,,,,,,,,,,,,,,,,,,,,,,,,,,,,,,,,,,,,,,,,,,,,,,,391.33675700001186,391.3526855999953,391.852924900013,391.83626459998777,391.84655580000253,391.852924900013,391.852924900013,391.852924900013,393.26976549997926,Objects\088b.jpg,post,o,1.4100348000065424,None,,,,,,,,00056,001,2026-01-18_19h48.57.810,MST_test,2024.2.0,59.90904609108962,2026-01-18 19h49.05.181974 +0530,
130,0,131,o,1.0529418000369333,None,131,0,130,393.2859559999779,,,,,,,,,,,,,,,,,,,,,,,,,,,,,,,,,,,,,,,,,,,,,,,,,,393.26985629997216,393.2859559999779,393.7862369000213,393.76954170002136,393.7719908999861,393.7862369000213,393.7862369000213,393.7862369000213,394.85354450001614,Objects\114a.jpg,mid,o,1.0529418000369333,None,,,,,,,,00056,001,2026-01-18_19h48.57.810,MST_test,2024.2.0,59.90904609108962,2026-01-18 19h49.05.181974 +0530,
131,0,132,s,1.6771620000363328,None,132,0,131,394.86919220001437,,,,,,,,,,,,,,,,,,,,,,,,,,,,,,,,,,,,,,,,,,,,,,,,,,394.8536474999855,394.86919220001437,395.36963979998836,395.3531334999716,395.3635361000197,395.36963979998836,395.36963979998836,395.36963979998836,397.0534910999704,Objects\039b.jpg,mid,s,1.6771620000363328,None,,,,,,,,00056,001,2026-01-18_19h48.57.810,MST_test,2024.2.0,59.90904609108962,2026-01-18 19h49.05.181974 +0530,
132,0,133,o,1.2134457000065595,None,133,0,132,397.06933229998685,,,,,,,,,,,,,,,,,,,,,,,,,,,,,,,,,,,,,,,,,,,,,,,,,,397.0535935999942,397.06933229998685,397.5694882000098,397.5529412999749,397.555510199978,397.5694882000098,397.5694882000098,397.5694882000098,398.78653769998346,Objects\028a.jpg,post,o,1.2134457000065595,None,,,,,,,,00056,001,2026-01-18_19h48.57.810,MST_test,2024.2.0,59.90904609108962,2026-01-18 19h49.05.181974 +0530,
133,0,134,s,2.7197945999796502,None,134,0,133,398.8026945000165,,,,,,,,,,,,,,,,,,,,,,,,,,,,,,,,,,,,,,,,,,,,,,,,,,398.7866288999794,398.8026945000165,399.303227700002,399.2862857999862,399.2978920000023,399.303227700002,399.303227700002,399.303227700002,402.03666529996553,Scenes\032a.jpg,pre,s,2.7197945999796502,None,,,,,,,,00056,001,2026-01-18_19h48.57.810,MST_test,2024.2.0,59.90904609108962,2026-01-18 19h49.05.181974 +0530,
134,0,135,s,2.277685899985954,None,135,0,134,402.05268839997007,,,,,,,,,,,,,,,,,,,,,,,,,,,,,,,,,,,,,,,,,,,,,,,,,,402.0367621000041,402.05268839997007,402.5533459999715,402.5361553999828,402.5506945999805,402.5533459999715,402.5533459999715,402.5533459999715,404.8365240999847,Scenes\018b.jpg,mid,s,2.277685899985954,None,,,,,,,,00056,001,2026-01-18_19h48.57.810,MST_test,2024.2.0,59.90904609108962,2026-01-18 19h49.05.181974 +0530,
135,0,136,n,2.2947852999786846,None,136,0,135,404.85272640001494,,,,,,,,,,,,,,,,,,,,,,,,,,,,,,,,,,,,,,,,,,,,,,,,,,404.83661569998367,404.85272640001494,405.3532621000195,405.33624289999716,405.34217580000404,405.3532621000195,405.3532621000195,405.3532621000195,407.65330299997004,Scenes\137a.jpg,post,n,2.2947852999786846,None,,,,,,,,00056,001,2026-01-18_19h48.57.810,MST_test,2024.2.0,59.90904609108962,2026-01-18 19h49.05.181974 +0530,
136,0,137,n,1.0781313000479713,None,137,0,136,407.66928729997016,,,,,,,,,,,,,,,,,,,,,,,,,,,,,,,,,,,,,,,,,,,,,,,,,,407.65339399996446,407.66928729997016,408.169608599972,408.15286799997557,408.1629449999891,408.169608599972,408.169608599972,408.169608599972,409.25344920001226,Objects\004b.jpg,pre,n,1.0781313000479713,None,,,,,,,,00056,001,2026-01-18_19h48.57.810,MST_test,2024.2.0,59.90904609108962,2026-01-18 19h49.05.181974 +0530,
137,0,138,s,1.6056337000336498,None,138,0,137,409.2692348000128,,,,,,,,,,,,,,,,,,,,,,,,,,,,,,,,,,,,,,,,,,,,,,,,,,409.25354679999873,409.2692348000128,409.77008330001263,409.7528818999999,409.7637309000129,409.77008330001263,409.77008330001263,409.77008330001263,411.3866004999727,Scenes\112b.jpg,post,s,1.6056337000336498,None,,,,,,,,00056,001,2026-01-18_19h48.57.810,MST_test,2024.2.0,59.90904609108962,2026-01-18 19h49.05.181974 +0530,
138,0,139,s,1.512636300001759,None,139,0,138,411.4027111000032,,,,,,,,,,,,,,,,,,,,,,,,,,,,,,,,,,,,,,,,,,,,,,,,,,411.38670309999725,411.4027111000032,411.90320439997595,411.8863371000043,411.891791299975,411.90320439997595,411.90320439997595,411.90320439997595,413.4200090999948,Scenes\087a.jpg,post,s,1.512636300001759,None,,,,,,,,00056,001,2026-01-18_19h48.57.810,MST_test,2024.2.0,59.90904609108962,2026-01-18 19h49.05.181974 +0530,
139,0,140,o,3.227682700031437,None,140,0,139,413.43594960001064,,,,,,,,,,,,,,,,,,,,,,,,,,,,,,,,,,,,,,,,,,,,,,,,,,413.4200992999831,413.43594960001064,413.93941340001766,413.9195243999711,413.93715710000833,413.93941340001766,413.93941340001766,413.93941340001766,417.1696828000131,Scenes\094b.jpg,mid,o,3.227682700031437,None,,,,,,,,00056,001,2026-01-18_19h48.57.810,MST_test,2024.2.0,59.90904609108962,2026-01-18 19h49.05.181974 +0530,
140,0,141,o,1.0529776999610476,None,141,0,140,417.18603619997157,,,,,,,,,,,,,,,,,,,,,,,,,,,,,,,,,,,,,,,,,,,,,,,,,,417.1697764999699,417.18603619997157,417.69044699997175,417.66954139998415,417.687878799974,417.69044699997175,417.69044699997175,417.69044699997175,418.7537297999952,Scenes\081b.jpg,pre,o,1.0529776999610476,None,,,,,,,,00056,001,2026-01-18_19h48.57.810,MST_test,2024.2.0,59.90904609108962,2026-01-18 19h49.05.181974 +0530,
141,0,142,o,0.7541233000229113,None,142,0,141,418.76920769998105,,,,,,,,,,,,,,,,,,,,,,,,,,,,,,,,,,,,,,,,,,,,,,,,,,418.75382250000257,418.76920769998105,419.2696572999703,419.2531315999804,419.25676610000664,419.2696572999703,419.2696572999703,419.2696572999703,420.0365247000009,Objects\054a.jpg,post,o,0.7541233000229113,None,,,,,,,,00056,001,2026-01-18_19h48.57.810,MST_test,2024.2.0,59.90904609108962,2026-01-18 19h49.05.181974 +0530,
142,0,143,n,1.3668120000511408,None,143,0,142,420.0527192999725,,,,,,,,,,,,,,,,,,,,,,,,,,,,,,,,,,,,,,,,,,,,,,,,,,420.03661640000064,420.0527192999725,420.55291899997974,420.5362960000057,420.5455637999694,420.55291899997974,420.55291899997974,420.55291899997974,421.9364891999867,Foils\093b.jpg,none,n,1.3668120000511408,None,,,,,,,,00056,001,2026-01-18_19h48.57.810,MST_test,2024.2.0,59.90904609108962,2026-01-18 19h49.05.181974 +0530,
143,0,144,n,1.6899700000067241,None,144,0,143,421.9527094999794,,,,,,,,,,,,,,,,,,,,,,,,,,,,,,,,,,,,,,,,,,,,,,,,,,421.93657829996664,421.9527094999794,422.453143599967,422.43629519996466,422.4509448999888,422.453143599967,422.453143599967,422.453143599967,424.1532608999987,Foils\scenes27.jpg,none,n,1.6899700000067241,None,,,,,,,,00056,001,2026-01-18_19h48.57.810,MST_test,2024.2.0,59.90904609108962,2026-01-18 19h49.05.181974 +0530,
144,0,145,o,0.9698964999988675,None,145,0,144,424.1692278999835,,,,,,,,,,,,,,,,,,,,,,,,,,,,,,,,,,,,,,,,,,,,,,,,,,424.1533554000198,424.1692278999835,424.66967879998265,424.6529580000206,424.6559263999807,424.66967879998265,424.66967879998265,424.66967879998265,425.65320100000827,Objects\041a.jpg,mid,o,0.9698964999988675,None,,,,,,,,00056,001,2026-01-18_19h48.57.810,MST_test,2024.2.0,59.90904609108962,2026-01-18 19h49.05.181974 +0530,
145,0,146,s,1.5260424999869429,None,146,0,145,425.66930439998396,,,,,,,,,,,,,,,,,,,,,,,,,,,,,,,,,,,,,,,,,,,,,,,,,,425.6532955999719,425.66930439998396,426.1697401999845,426.15314979996765,426.16464530001394,426.1697401999845,426.1697401999845,426.1697401999845,427.7034934000112,Foils\scenes6.jpg,none,s,1.5260424999869429,None,,,,,,,,00056,001,2026-01-18_19h48.57.810,MST_test,2024.2.0,59.90904609108962,2026-01-18 19h49.05.181974 +0530,
146,0,147,o,1.1722008000360802,None,147,0,146,427.7194192999741,,,,,,,,,,,,,,,,,,,,,,,,,,,,,,,,,,,,,,,,,,,,,,,,,,427.7035915000015,427.7194192999741,428.21973429998616,428.2029814000125,428.2132882999722,428.21973429998616,428.21973429998616,428.21973429998616,429.4032288999879,Scenes\026a.jpg,pre,o,1.1722008000360802,None,,,,,,,,00056,001,2026-01-18_19h48.57.810,MST_test,2024.2.0,59.90904609108962,2026-01-18 19h49.05.181974 +0530,
147,0,148,o,2.439198700012639,None,148,0,147,429.4191926000058,,,,,,,,,,,,,,,,,,,,,,,,,,,,,,,,,,,,,,,,,,,,,,,,,,429.4033209999907,429.4191926000058,429.91979319998063,429.90294719999656,429.9108142000041,429.91979319998063,429.91979319998063,429.91979319998063,432.36971739999717,Scenes\155a.jpg,pre,o,2.439198700012639,None,,,,,,,,00056,001,2026-01-18_19h48.57.810,MST_test,2024.2.0,59.90904609108962,2026-01-18 19h49.05.181974 +0530,
148,0,149,n,1.0963685999740846,None,149,0,148,432.3860214999877,,,,,,,,,,,,,,,,,,,,,,,,,,,,,,,,,,,,,,,,,,,,,,,,,,432.3698147999821,432.3860214999877,432.88648089999333,432.8696964000119,432.88009649998276,432.88648089999333,432.88648089999333,432.88648089999333,433.9873649000074,Foils\020b.jpg,none,n,1.0963685999740846,None,,,,,,,,00056,001,2026-01-18_19h48.57.810,MST_test,2024.2.0,59.90904609108962,2026-01-18 19h49.05.181974 +0530,
149,0,150,s,2.5202045000041835,None,150,0,149,434.0028144000098,,,,,,,,,,,,,,,,,,,,,,,,,,,,,,,,,,,,,,,,,,,,,,,,,,433.98751449998235,434.0028144000098,434.5030672000139,434.4864704000065,434.4889429999748,434.5030672000139,434.5030672000139,434.5030672000139,437.0366989999893,Objects\056a.jpg,post,s,2.5202045000041835,None,,,,,,,,00056,001,2026-01-18_19h48.57.810,MST_test,2024.2.0,59.90904609108962,2026-01-18 19h49.05.181974 +0530,
,,,,,,,,,,,,,,,,,,,,,,,,,,,,,,,,,,,,,,,,,,,,,,,,,,,,,,,,,,,,,,,,,,,,,,,,,437.03676260000793,437.05284519999987,437.05284519999987,439.6533367999946,space,2.5940463000442833,None,00056,001,2026-01-18_19h48.57.810,MST_test,2024.2.0,59.90904609108962,2026-01-18 19h49.05.181974 +0530,
