Sl_no,image_path,thisN,thisTrialN,thisRepN,key_resp_5.keys,key_resp_7.keys,key_resp_7.rt,key_resp_7.duration,key_resp_5.rt,key_resp_5.duration,key_resp_9.keys,key_resp_9.rt,key_resp_9.duration,key_resp_8.keys,key_resp_8.rt,key_resp_8.duration,practice.thisRepN,practice.thisTrialN,practice.thisN,trials.thisRepN,trials.thisTrialN,trials.thisN,thisRow.t,notes,welcome_page.started,text.started,key_resp.started,welcome_page.stopped,key_resp.keys,key_resp.rt,key_resp.duration,instructions.started,ins.started,key_resp_2.started,instructions.stopped,key_resp_2.keys,key_resp_2.rt,key_resp_2.duration,instructions_2.started,text_10.started,key_resp_10.started,instructions_2.stopped,key_resp_10.keys,key_resp_10.rt,key_resp_10.duration,objects_only_instruction.started,text_3.started,key_resp_3.started,objects_only_instruction.stopped,key_resp_3.keys,key_resp_3.rt,key_resp_3.duration,ISI.started,text_4.started,text_4.stopped,ISI.stopped,practice_block.started,image.started,text_5.started,key_resp_5.started,practice_block.stopped,practice.key_resp_5.keys,indoor_outdoor.started,text_7.started,key_resp_7.started,indoor_outdoor.stopped,practice.key_resp_7.keys,practice.key_resp_7.rt,practice.key_resp_7.duration,image.stopped,text_5.stopped,key_resp_5.stopped,practice.key_resp_5.rt,practice.key_resp_5.duration,practice_to_main.started,text_2.started,key_resp_4.started,practice_to_main.stopped,key_resp_4.keys,key_resp_4.rt,key_resp_4.duration,objects.started,image_2.started,text_9.started,key_resp_9.started,image_2.stopped,text_9.stopped,key_resp_9.stopped,objects.stopped,trials.key_resp_9.keys,trials.key_resp_9.rt,trials.key_resp_9.duration,encoding_task.started,encoding_task.stopped,trials.key_resp_8.keys,text_8.started,key_resp_8.started,trials.key_resp_8.rt,trials.key_resp_8.duration,end_experiment.started,text_6.started,key_resp_6.started,end_experiment.stopped,key_resp_6.keys,key_resp_6.rt,key_resp_6.duration,list_of_stimuli,encoding_task_accuracy,participant,session,date,expName,psychopyVersion,frameRate,expStart,
,,,,,,,,,,,,,,,,,,,,,,,,,0.0012419000267982483,0.0029342000489123166,0.0029342000489123166,10.79746020003222,space,10.791521799983457,None,,,,,,,,,,,,,,,,,,,,,,,,,,,,,,,,,,,,,,,,,,,,,,,,,,,,,,,,,,,,,,,,,,,,,,,,,,,,,,00052,001,2026-01-18_16h38.10.006,MST_task,2024.2.0,59.8673339882714,2026-01-18 16h38.18.664161 +0530,
,,,,,,,,,,,,,,,,,,,,,,,,,,,,,,,,10.797492300043814,10.811999900033697,10.811999900033697,24.029406500048935,space,13.214251399971545,None,,,,,,,,,,,,,,,,,,,,,,,,,,,,,,,,,,,,,,,,,,,,,,,,,,,,,,,,,,,,,,,,,,,,,,,00052,001,2026-01-18_16h38.10.006,MST_task,2024.2.0,59.8673339882714,2026-01-18 16h38.18.664161 +0530,
,,,,,,,,,,,,,,,,,,,,,,,,,,,,,,,,,,,,,,,24.02944320003735,24.045905800012406,24.045905800012406,35.345668199996,space,11.291775699995924,None,,,,,,,,,,,,,,,,,,,,,,,,,,,,,,,,,,,,,,,,,,,,,,,,,,,,,,,,,,,,,,,,00052,001,2026-01-18_16h38.10.006,MST_task,2024.2.0,59.8673339882714,2026-01-18 16h38.18.664161 +0530,
,,,,,,,,,,,,,,,,,,,,,,,,,,,,,,,,,,,,,,,,,,,,,,35.34571170003619,35.36201650003204,35.36201650003204,53.81240940000862,space,18.448067600023933,None,,,,,,,,,,,,,,,,,,,,,,,,,,,,,,,,,,,,,,,,,,,,,,,,,,,,,,,,,00052,001,2026-01-18_16h38.10.006,MST_task,2024.2.0,59.8673339882714,2026-01-18 16h38.18.664161 +0530,
6,practice_images/158a.jpg,0,0,1,None,f,0.66627879999578,None,,,,,,,,,1,0,0,,,,53.82853110000724,,,,,,,,,,,,,,,,,,,,,,,,,,,,,,53.816347800020594,53.82853110000724,54.33083610003814,54.31250220001675,54.31962590001058,54.33083610003814,54.33083610003814,54.33083610003814,57.32873990002554,None,57.33053259999724,57.3452174999984,57.3452174999984,58.012457000033464,f,0.66627879999578,None,,,,,,,,,,,,,,,,,,,,,,,,,,,,,,,,,,,,,,,,00052,001,2026-01-18_16h38.10.006,MST_task,2024.2.0,59.8673339882714,2026-01-18 16h38.18.664161 +0530,
9,practice_images/180a.jpg,1,1,1,f,None,,,1.4975743000395596,0.12799839995568618,,,,,,,1,1,1,,,,58.02844190003816,,,,,,,,,,,,,,,,,,,,,,,,,,,,,,58.012546200014185,58.02844190003816,58.528732700040564,58.51219850004418,58.51383150002221,58.528732700040564,58.528732700040564,58.528732700040564,61.51231520000147,f,61.51235370000359,,,61.51236640004208,None,,,61.52841770002851,61.52841770002851,61.52841770002851,1.4975743000395596,0.12799839995568618,,,,,,,,,,,,,,,,,,,,,,,,,,,,,,,,,,,00052,001,2026-01-18_16h38.10.006,MST_task,2024.2.0,59.8673339882714,2026-01-18 16h38.18.664161 +0530,
4,practice_images/002b.jpg,2,2,1,f,None,,,2.6777554999571294,0.16808959998888895,,,,,,,1,2,2,,,,61.52841770002851,,,,,,,,,,,,,,,,,,,,,,,,,,,,,,61.51244710001629,61.52841770002851,62.02858060004655,62.012147400004324,62.01371880003717,62.02858060004655,62.02858060004655,62.02858060004655,65.0123278000392,f,65.01236510003218,,,65.01237740000943,None,,,65.0284563000314,65.0284563000314,65.0284563000314,2.6777554999571294,0.16808959998888895,,,,,,,,,,,,,,,,,,,,,,,,,,,,,,,,,,,00052,001,2026-01-18_16h38.10.006,MST_task,2024.2.0,59.8673339882714,2026-01-18 16h38.18.664161 +0530,
2,practice_images/031a.jpg,3,3,1,f,None,,,1.5218346000183374,0.15129469998646528,,,,,,,1,3,3,,,,65.0284563000314,,,,,,,,,,,,,,,,,,,,,,,,,,,,,,65.01244020002196,65.0284563000314,65.52877259999514,65.51227910001762,65.51379470003303,65.52877259999514,65.52877259999514,65.52877259999514,68.51225960004376,f,68.51229800004512,,,68.51230990001932,None,,,68.52845490002073,68.52845490002073,68.52845490002073,1.5218346000183374,0.15129469998646528,,,,,,,,,,,,,,,,,,,,,,,,,,,,,,,,,,,00052,001,2026-01-18_16h38.10.006,MST_task,2024.2.0,59.8673339882714,2026-01-18 16h38.18.664161 +0530,
5,practice_images/139a.jpg,4,4,1,j,None,,,2.381080200022552,0.1599858999834396,,,,,,,1,4,4,,,,68.52845490002073,,,,,,,,,,,,,,,,,,,,,,,,,,,,,,68.51237370003946,68.52845490002073,69.02871730003972,69.01230030000443,69.01370470004622,69.02871730003972,69.02871730003972,69.02871730003972,72.01233110000612,j,72.01237030001357,,,72.01238280005055,None,,,72.02851990005001,72.02851990005001,72.02851990005001,2.381080200022552,0.1599858999834396,,,,,,,,,,,,,,,,,,,,,,,,,,,,,,,,,,,00052,001,2026-01-18_16h38.10.006,MST_task,2024.2.0,59.8673339882714,2026-01-18 16h38.18.664161 +0530,
3,practice_images/037a.jpg,5,5,1,f,None,,,2.6343663999577984,0.14335349999601021,,,,,,,1,5,5,,,,72.02851990005001,,,,,,,,,,,,,,,,,,,,,,,,,,,,,,72.01244710001629,72.02851990005001,72.52876840002136,72.51229560002685,72.51741060003405,72.52876840002136,72.52876840002136,72.52876840002136,75.51238500000909,f,75.51508490002016,,,75.5151029000408,None,,,75.52843930001836,75.52843930001836,75.52843930001836,2.6343663999577984,0.14335349999601021,,,,,,,,,,,,,,,,,,,,,,,,,,,,,,,,,,,00052,001,2026-01-18_16h38.10.006,MST_task,2024.2.0,59.8673339882714,2026-01-18 16h38.18.664161 +0530,
1,practice_images/013a.jpg,6,6,1,f,None,,,1.0531572999898344,0.10399859998142347,,,,,,,1,6,6,,,,75.52843930001836,,,,,,,,,,,,,,,,,,,,,,,,,,,,,,75.51516840001568,75.52843930001836,76.02861860004487,76.01217900001211,76.01365340000484,76.02861860004487,76.02861860004487,76.02861860004487,79.01233420002973,f,79.01237030001357,,,79.01238270004978,None,,,79.02850860002218,79.02850860002218,79.02850860002218,1.0531572999898344,0.10399859998142347,,,,,,,,,,,,,,,,,,,,,,,,,,,,,,,,,,,00052,001,2026-01-18_16h38.10.006,MST_task,2024.2.0,59.8673339882714,2026-01-18 16h38.18.664161 +0530,
7,practice_images/166a.jpg,7,7,1,None,f,0.05800369998905808,None,,,,,,,,,1,7,7,,,,79.02850860002218,,,,,,,,,,,,,,,,,,,,,,,,,,,,,,79.01244580000639,79.02850860002218,79.52870820002863,79.51219410001067,79.51365420001093,79.52870820002863,79.52870820002863,79.52870820002863,82.51240589999361,None,82.51244350004708,82.5284643000341,82.5284643000341,82.59582350001438,f,0.05800369998905808,None,82.5284643000341,82.5284643000341,82.5284643000341,,,,,,,,,,,,,,,,,,,,,,,,,,,,,,,,,,,,,00052,001,2026-01-18_16h38.10.006,MST_task,2024.2.0,59.8673339882714,2026-01-18 16h38.18.664161 +0530,
8,practice_images/178a.jpg,8,8,1,f,None,,,2.106392699992284,0.127073300012853,,,,,,,1,8,8,,,,82.61198280000826,,,,,,,,,,,,,,,,,,,,,,,,,,,,,,82.59591120004188,82.61198280000826,83.11208190000616,83.09550950000994,83.0969815000426,83.11208190000616,83.11208190000616,83.11208190000616,86.09567150002113,f,86.09571880003205,,,86.09573190001538,None,,,86.11186619999353,86.11186619999353,86.11186619999353,2.106392699992284,0.127073300012853,,,,,,,,,,,,,,,,,,,,,,,,,,,,,,,,,,,00052,001,2026-01-18_16h38.10.006,MST_task,2024.2.0,59.8673339882714,2026-01-18 16h38.18.664161 +0530,
10,practice_images/182a.jpg,9,9,1,f,None,,,1.1740002000005916,0.13594210002338514,,,,,,,1,9,9,,,,86.11186619999353,,,,,,,,,,,,,,,,,,,,,,,,,,,,,,86.09579520003172,86.11186619999353,86.61204750003526,86.59549999999581,86.59685430000536,86.61204750003526,86.61204750003526,86.61204750003526,89.59576100000413,f,89.5958012000192,,,89.59582560003037,None,,,89.61194170004455,89.61194170004455,89.61194170004455,1.1740002000005916,0.13594210002338514,,,,,,,,,,,,,,,,,,,,,,,,,,,,,,,,,,,00052,001,2026-01-18_16h38.10.006,MST_task,2024.2.0,59.8673339882714,2026-01-18 16h38.18.664161 +0530,
,,,,,,,,,,,,,,,,,,,,,,,,,,,,,,,,,,,,,,,,,,,,,,,,,,,,,,,,,,,,,,,,,,,,,,,,,,,89.59587180003291,89.61194170004455,89.61194170004455,106.46274869999615,space,16.845819799986202,None,,,,,,,,,,,,,,,,,,,,,,,,,,,,00052,001,2026-01-18_16h38.10.006,MST_task,2024.2.0,59.8673339882714,2026-01-18 16h38.18.664161 +0530,
,Scenes\096a.jpg,0,0,1,,,,,,,j,1.159645300009288,0.15200039994670078,None,,,,,,1,0,0,106.47853910003323,,,,,,,,,,,,,,,,,,,,,,,,,,,,,,106.46354240004439,106.47853910003323,106.97878880001372,106.96219670004211,,,,,,,,,,,,,,,,,,,,,,,,,,106.96904710005037,106.97878880001372,106.97878880001372,106.97878880001372,109.97851109999465,109.97851109999465,109.97851109999465,109.96250270004384,j,1.159645300009288,0.15200039994670078,109.9642373000388,109.9642548999982,None,,,,,,,,,,,,,,00052,001,2026-01-18_16h38.10.006,MST_task,2024.2.0,59.8673339882714,2026-01-18 16h38.18.664161 +0530,
,Scenes\041a.jpg,1,0,2,,,,,,,j,1.190885000047274,0.1517829999793321,None,,,,,,2,0,1,109.97851109999465,,,,,,,,,,,,,,,,,,,,,,,,,,,,,,109.96435550000751,109.97851109999465,110.48417700000573,110.462260100001,,,,,,,,,,,,,,,,,,,,,,,,,,110.48156210000161,110.48417700000573,110.48417700000573,110.48417700000573,,,,113.47877000004519,j,1.190885000047274,0.1517829999793321,113.47881830000551,113.47883010003716,None,,,,,,,,,,,,,,00052,001,2026-01-18_16h38.10.006,MST_task,2024.2.0,59.8673339882714,2026-01-18 16h38.18.664161 +0530,
,Scenes\153a.jpg,2,0,3,,,,,,,j,1.022177200007718,0.15205169998807833,None,,,,,,3,0,2,113.49545069999294,,,,,,,,,,,,,,,,,,,,,,,,,,,,,,113.47890700004064,113.49545069999294,113.99589210003614,113.97876780002844,,,,,,,,,,,,,,,,,,,,,,,,,,113.98526340001263,113.99589210003614,113.99589210003614,113.99589210003614,,,,116.97887530003209,j,1.022177200007718,0.15205169998807833,116.97891599999275,116.97892810002668,None,,,,,,,,,,,,,,00052,001,2026-01-18_16h38.10.006,MST_task,2024.2.0,59.8673339882714,2026-01-18 16h38.18.664161 +0530,
,Scenes\175a.jpg,3,0,4,,,,,,,j,1.234755000041332,0.13529069995274767,None,,,,,,4,0,3,116.99540070001967,,,,,,,,,,,,,,,,,,,,,,,,,,,,,,116.97902620001696,116.99540070001967,117.49588639999274,117.47894170001382,,,,,,,,,,,,,,,,,,,,,,,,,,117.48503060004441,117.49588639999274,117.49588639999274,117.49588639999274,,,,120.47947700001532,j,1.234755000041332,0.13529069995274767,120.47951750003267,120.4795293000061,None,,,,,,,,,,,,,,00052,001,2026-01-18_16h38.10.006,MST_task,2024.2.0,59.8673339882714,2026-01-18 16h38.18.664161 +0530,
,Scenes\165a.jpg,4,0,5,,,,,,,j,2.9498808999778703,None,None,,,,,,5,0,4,120.49541760003194,,,,,,,,,,,,,,,,,,,,,,,,,,,,,,120.47959719999926,120.49541760003194,120.99608539999463,120.97891619999427,,,,,,,,,,,,,,,,,,,,,,,,,,120.98857020004652,120.99608539999463,120.99608539999463,120.99608539999463,123.9954979000031,123.9954979000031,123.9954979000031,123.97924250003416,j,2.9498808999778703,None,123.97928369999863,123.97929480002495,None,,,,,,,,,,,,,,00052,001,2026-01-18_16h38.10.006,MST_task,2024.2.0,59.8673339882714,2026-01-18 16h38.18.664161 +0530,
,Scenes\124a.jpg,5,0,6,,,,,,,j,1.4022963999886997,0.14345910004340112,None,,,,,,6,0,5,123.9954979000031,,,,,,,,,,,,,,,,,,,,,,,,,,,,,,123.97935939999297,123.9954979000031,124.49616820004303,124.47883650002768,,,,,,,,,,,,,,,,,,,,,,,,,,124.4852627000073,124.49616820004303,124.49616820004303,124.49616820004303,127.49530000000959,127.49530000000959,127.49530000000959,127.47927490004804,j,1.4022963999886997,0.14345910004340112,127.47932110005058,127.4793319000164,None,,,,,,,,,,,,,,00052,001,2026-01-18_16h38.10.006,MST_task,2024.2.0,59.8673339882714,2026-01-18 16h38.18.664161 +0530,
,Scenes\094a.jpg,6,0,7,,,,,,,f,1.613687500008382,0.16903530003037304,None,,,,,,7,0,6,127.49530000000959,,,,,,,,,,,,,,,,,,,,,,,,,,,,,,127.47942980000516,127.49530000000959,127.99600410001585,127.97898250003345,,,,,,,,,,,,,,,,,,,,,,,,,,127.98928010003874,127.99600410001585,127.99600410001585,127.99600410001585,130.99537720001535,130.99537720001535,130.99537720001535,130.97933719999855,f,1.613687500008382,0.16903530003037304,130.9793795000296,130.97939120000228,None,,,,,,,,,,,,,,00052,001,2026-01-18_16h38.10.006,MST_task,2024.2.0,59.8673339882714,2026-01-18 16h38.18.664161 +0530,
,Objects\050a.jpg,7,0,8,,,,,,,f,1.8986389000201598,0.1688780999975279,None,,,,,,8,0,7,130.99537720001535,,,,,,,,,,,,,,,,,,,,,,,,,,,,,,130.97945840004832,130.99537720001535,131.4955339000444,131.47883950005053,,,,,,,,,,,,,,,,,,,,,,,,,,131.4928853000165,131.4955339000444,131.4955339000444,131.4955339000444,134.49537920003058,134.49537920003058,134.49537920003058,134.47911310003838,f,1.8986389000201598,0.1688780999975279,134.48217440000735,134.48219140002038,None,,,,,,,,,,,,,,00052,001,2026-01-18_16h38.10.006,MST_task,2024.2.0,59.8673339882714,2026-01-18 16h38.18.664161 +0530,
,Objects\063a.jpg,8,0,9,,,,,,,f,2.4147027999861166,0.14335999998729676,None,,,,,,9,0,8,134.49537920003058,,,,,,,,,,,,,,,,,,,,,,,,,,,,,,134.48226800002158,134.49537920003058,134.99558550002985,134.97895660001086,,,,,,,,,,,,,,,,,,,,,,,,,,134.9816664000391,134.99558550002985,134.99558550002985,134.99558550002985,137.99535060004564,137.99535060004564,137.99535060004564,137.97928490000777,f,2.4147027999861166,0.14335999998729676,137.97933550004382,137.9793469000142,None,,,,,,,,,,,,,,00052,001,2026-01-18_16h38.10.006,MST_task,2024.2.0,59.8673339882714,2026-01-18 16h38.18.664161 +0530,
,Objects\066a.jpg,9,0,10,,,,,,,None,,,j,0.17870659998152405,None,,,,10,0,9,137.99535060004564,,,,,,,,,,,,,,,,,,,,,,,,,,,,,,137.97944480000297,137.99535060004564,138.4956635000417,138.47897940000985,,,,,,,,,,,,,,,,,,,,,,,,,,138.4820713000372,138.4956635000417,138.4956635000417,138.4956635000417,141.49547470000107,141.49547470000107,141.49547470000107,141.4792066999944,None,,,141.47924430004787,141.6791967000463,j,141.49547470000107,141.49547470000107,0.17870659998152405,None,,,,,,,,,,00052,001,2026-01-18_16h38.10.006,MST_task,2024.2.0,59.8673339882714,2026-01-18 16h38.18.664161 +0530,
,Objects\036a.jpg,10,0,11,,,,,,,f,2.0146123000304215,0.06404829997336492,None,,,,,,11,0,10,141.69530790002318,,,,,,,,,,,,,,,,,,,,,,,,,,,,,,141.67928410001332,141.69530790002318,142.19560630002525,142.17901600000914,,,,,,,,,,,,,,,,,,,,,,,,,,142.18208830000367,142.19560630002525,142.19560630002525,142.19560630002525,145.19536330003757,145.19536330003757,145.19536330003757,145.1791579000419,f,2.0146123000304215,0.06404829997336492,145.17920120002236,145.1792129999958,None,,,,,,,,,,,,,,00052,001,2026-01-18_16h38.10.006,MST_task,2024.2.0,59.8673339882714,2026-01-18 16h38.18.664161 +0530,
,Objects\042a.jpg,11,0,12,,,,,,,j,1.7871380999567918,0.13488010002765805,None,,,,,,12,0,11,145.19536330003757,,,,,,,,,,,,,,,,,,,,,,,,,,,,,,145.1792777000228,145.19536330003757,145.69563309999648,145.6789597000461,,,,,,,,,,,,,,,,,,,,,,,,,,145.6818271999946,145.69563309999648,145.69563309999648,145.69563309999648,148.69524450000608,148.69524450000608,148.69524450000608,148.6788785000099,j,1.7871380999567918,0.13488010002765805,148.67892060003942,148.6789318000083,None,,,,,,,,,,,,,,00052,001,2026-01-18_16h38.10.006,MST_task,2024.2.0,59.8673339882714,2026-01-18 16h38.18.664161 +0530,
,Objects\169a.jpg,12,0,13,,,,,,,j,2.558006400009617,0.14399829995818436,None,,,,,,13,0,12,148.69524450000608,,,,,,,,,,,,,,,,,,,,,,,,,,,,,,148.6789992999984,148.69524450000608,149.19565280003008,149.1790345000336,,,,,,,,,,,,,,,,,,,,,,,,,,149.18158040003618,149.19565280003008,149.19565280003008,149.19565280003008,152.195406200015,152.195406200015,152.195406200015,152.1791706000222,j,2.558006400009617,0.14399829995818436,152.17921240004944,152.17922340001678,None,,,,,,,,,,,,,,00052,001,2026-01-18_16h38.10.006,MST_task,2024.2.0,59.8673339882714,2026-01-18 16h38.18.664161 +0530,
,Objects\159a.jpg,13,0,14,,,,,,,f,0.9306067999568768,0.15164310002001002,None,,,,,,14,0,13,152.195406200015,,,,,,,,,,,,,,,,,,,,,,,,,,,,,,152.1792888000491,152.195406200015,152.69549190002726,152.67890009999974,,,,,,,,,,,,,,,,,,,,,,,,,,152.6816104000318,152.69549190002726,152.69549190002726,152.69549190002726,155.69542410003487,155.69542410003487,155.69542410003487,155.6793367000064,f,0.9306067999568768,0.15164310002001002,155.6793781000306,155.6793886999949,None,,,,,,,,,,,,,,00052,001,2026-01-18_16h38.10.006,MST_task,2024.2.0,59.8673339882714,2026-01-18 16h38.18.664161 +0530,
,Scenes\079a.jpg,14,0,15,,,,,,,j,2.0866270000115037,0.13600579998455942,None,,,,,,15,0,14,155.69542410003487,,,,,,,,,,,,,,,,,,,,,,,,,,,,,,155.6794860000373,155.69542410003487,156.1957407000009,156.17888510000193,,,,,,,,,,,,,,,,,,,,,,,,,,156.18664910004009,156.1957407000009,156.1957407000009,156.1957407000009,159.19540890003555,159.19540890003555,159.19540890003555,159.1791443999973,j,2.0866270000115037,0.13600579998455942,159.18076170003042,159.18077969999285,None,,,,,,,,,,,,,,00052,001,2026-01-18_16h38.10.006,MST_task,2024.2.0,59.8673339882714,2026-01-18 16h38.18.664161 +0530,
,Scenes\060a.jpg,15,0,16,,,,,,,j,1.138136499968823,0.13602540001738816,None,,,,,,16,0,15,159.19540890003555,,,,,,,,,,,,,,,,,,,,,,,,,,,,,,159.1808831000235,159.19540890003555,159.69596870004898,159.67889209999703,,,,,,,,,,,,,,,,,,,,,,,,,,159.6903416000423,159.69596870004898,159.69596870004898,159.69596870004898,162.6953684000182,162.6953684000182,162.6953684000182,162.67944580002222,j,1.138136499968823,0.13602540001738816,162.67948740004795,162.67949830001453,None,,,,,,,,,,,,,,00052,001,2026-01-18_16h38.10.006,MST_task,2024.2.0,59.8673339882714,2026-01-18 16h38.18.664161 +0530,
,Scenes\163a.jpg,16,0,17,,,,,,,j,1.1664306999882683,0.15126840001903474,None,,,,,,17,0,16,162.6953684000182,,,,,,,,,,,,,,,,,,,,,,,,,,,,,,162.67959810001776,162.6953684000182,163.195993500005,163.17893829999957,,,,,,,,,,,,,,,,,,,,,,,,,,163.1913612000062,163.195993500005,163.195993500005,163.195993500005,166.19537620001938,166.19537620001938,166.19537620001938,166.17913380003301,j,1.1664306999882683,0.15126840001903474,166.1791742000496,166.17918470001314,None,,,,,,,,,,,,,,00052,001,2026-01-18_16h38.10.006,MST_task,2024.2.0,59.8673339882714,2026-01-18 16h38.18.664161 +0530,
,Scenes\054a.jpg,17,0,18,,,,,,,j,1.3144210999598727,0.14399340003728867,None,,,,,,18,0,17,166.19537620001938,,,,,,,,,,,,,,,,,,,,,,,,,,,,,,166.1792820999981,166.19537620001938,166.6959223000449,166.67884030001005,,,,,,,,,,,,,,,,,,,,,,,,,,166.6898169000051,166.6959223000449,166.6959223000449,166.6959223000449,169.69533620000584,169.69533620000584,169.69533620000584,169.67932799999835,j,1.3144210999598727,0.14399340003728867,169.67937450000318,169.67938550002873,None,,,,,,,,,,,,,,00052,001,2026-01-18_16h38.10.006,MST_task,2024.2.0,59.8673339882714,2026-01-18 16h38.18.664161 +0530,
,Scenes\102a.jpg,18,0,19,,,,,,,None,,,f,4.022893599991221,None,,,,19,0,18,169.69533620000584,,,,,,,,,,,,,,,,,,,,,,,,,,,,,,169.6794865000411,169.69533620000584,170.1957218000316,170.1789768000017,,,,,,,,,,,,,,,,,,,,,,,,,,170.188793600013,170.1957218000316,170.1957218000316,170.1957218000316,173.19533690001117,173.19533690001117,173.19533690001117,173.17930780001916,None,,,173.1793447000091,177.22887839999748,f,173.19533690001117,173.19533690001117,4.022893599991221,None,,,,,,,,,,00052,001,2026-01-18_16h38.10.006,MST_task,2024.2.0,59.8673339882714,2026-01-18 16h38.18.664161 +0530,
,Scenes\005a.jpg,19,0,20,,,,,,,None,,,j,1.5536391999921761,None,,,,20,0,19,177.24525330000324,,,,,,,,,,,,,,,,,,,,,,,,,,,,,,177.22899770003278,177.24525330000324,177.74584480002522,177.7288044000161,,,,,,,,,,,,,,,,,,,,,,,,,,177.73612570000114,177.74584480002522,177.74584480002522,177.74584480002522,180.74529900000198,180.74529900000198,180.74529900000198,180.7290090000024,None,,,180.7290478000068,182.31235880003078,j,180.74529900000198,180.74529900000198,1.5536391999921761,None,,,,,,,,,,00052,001,2026-01-18_16h38.10.006,MST_task,2024.2.0,59.8673339882714,2026-01-18 16h38.18.664161 +0530,
,Scenes\137a.jpg,20,0,21,,,,,,,j,1.612606799986679,0.16797459998633713,None,,,,,,21,0,20,182.32855050003855,,,,,,,,,,,,,,,,,,,,,,,,,,,,,,182.31244740000693,182.32855050003855,182.82914330001222,182.81221010000445,,,,,,,,,,,,,,,,,,,,,,,,,,182.81831100001,182.82914330001222,182.82914330001222,182.82914330001222,185.8284875000245,185.8284875000245,185.8284875000245,185.8125285000424,j,1.612606799986679,0.16797459998633713,185.8125717000221,185.81258290004916,None,,,,,,,,,,,,,,00052,001,2026-01-18_16h38.10.006,MST_task,2024.2.0,59.8673339882714,2026-01-18 16h38.18.664161 +0530,
,Objects\008a.jpg,21,0,22,,,,,,,None,,,f,1.2821455000084825,None,,,,22,0,21,185.8284875000245,,,,,,,,,,,,,,,,,,,,,,,,,,,,,,185.81268269999418,185.8284875000245,186.3291441000183,186.3124630000093,,,,,,,,,,,,,,,,,,,,,,,,,,186.31841560004978,186.3291441000183,186.3291441000183,186.3291441000183,189.32858030003263,189.32858030003263,189.32858030003263,189.31271260004723,None,,,189.31475550000323,190.61242640001,f,189.32858030003263,189.32858030003263,1.2821455000084825,None,,,,,,,,,,00052,001,2026-01-18_16h38.10.006,MST_task,2024.2.0,59.8673339882714,2026-01-18 16h38.18.664161 +0530,
,Objects\162a.jpg,22,0,23,,,,,,,f,1.3294985999818891,0.20800920005422086,None,,,,,,23,0,22,190.62844810000388,,,,,,,,,,,,,,,,,,,,,,,,,,,,,,190.61255670001265,190.62844810000388,191.12873640004545,191.11231950001093,,,,,,,,,,,,,,,,,,,,,,,,,,191.1153769000084,191.12873640004545,191.12873640004545,191.12873640004545,194.12846710003214,194.12846710003214,194.12846710003214,194.1125651000184,f,1.3294985999818891,0.20800920005422086,194.11260490003042,194.11261640000157,None,,,,,,,,,,,,,,00052,001,2026-01-18_16h38.10.006,MST_task,2024.2.0,59.8673339882714,2026-01-18 16h38.18.664161 +0530,
,Objects\186a.jpg,23,0,24,,,,,,,f,2.6140313000069,0.22311069996794686,None,,,,,,24,0,23,194.12846710003214,,,,,,,,,,,,,,,,,,,,,,,,,,,,,,194.11268530000234,194.12846710003214,194.62865070003318,194.61222990002716,,,,,,,,,,,,,,,,,,,,,,,,,,194.62145810003858,194.62865070003318,194.62865070003318,194.62865070003318,197.6285673000384,197.6285673000384,197.6285673000384,197.61244460003218,f,2.6140313000069,0.22311069996794686,197.61248680000426,197.6124976000283,None,,,,,,,,,,,,,,00052,001,2026-01-18_16h38.10.006,MST_task,2024.2.0,59.8673339882714,2026-01-18 16h38.18.664161 +0530,
,Objects\190a.jpg,24,0,25,,,,,,,f,0.8973994000116363,0.19231010001385584,None,,,,,,25,0,24,197.6285673000384,,,,,,,,,,,,,,,,,,,,,,,,,,,,,,197.61256490001688,197.6285673000384,198.1287306000013,198.11223300005076,,,,,,,,,,,,,,,,,,,,,,,,,,198.114704800013,198.1287306000013,198.1287306000013,198.1287306000013,201.1284504000214,201.1284504000214,201.1284504000214,201.11272350000218,f,0.8973994000116363,0.19231010001385584,201.1127692000009,201.11278070003027,None,,,,,,,,,,,,,,00052,001,2026-01-18_16h38.10.006,MST_task,2024.2.0,59.8673339882714,2026-01-18 16h38.18.664161 +0530,
,Objects\120a.jpg,25,0,26,,,,,,,f,1.237814599997364,0.18399550003232434,None,,,,,,26,0,25,201.1284504000214,,,,,,,,,,,,,,,,,,,,,,,,,,,,,,201.11285030003637,201.1284504000214,201.62862350000069,201.61233670002548,,,,,,,,,,,,,,,,,,,,,,,,,,201.61480500001926,201.62862350000069,201.62862350000069,201.62862350000069,204.6285613999935,204.6285613999935,204.6285613999935,204.61255310004344,f,1.237814599997364,0.18399550003232434,204.61259530001553,204.61260640004184,None,,,,,,,,,,,,,,00052,001,2026-01-18_16h38.10.006,MST_task,2024.2.0,59.8673339882714,2026-01-18 16h38.18.664161 +0530,
,Objects\166a.jpg,26,0,27,,,,,,,f,0.7940071999910288,0.15944889996899292,None,,,,,,27,0,26,204.6285613999935,,,,,,,,,,,,,,,,,,,,,,,,,,,,,,204.61267310002586,204.6285613999935,205.1288108000299,205.11224470002344,,,,,,,,,,,,,,,,,,,,,,,,,,205.12135620001936,205.1288108000299,205.1288108000299,205.1288108000299,208.12846010003705,208.12846010003705,208.12846010003705,208.1126765999943,f,0.7940071999910288,0.15944889996899292,208.1127219000482,208.11273340001935,None,,,,,,,,,,,,,,00052,001,2026-01-18_16h38.10.006,MST_task,2024.2.0,59.8673339882714,2026-01-18 16h38.18.664161 +0530,
,Objects\181a.jpg,27,0,28,,,,,,,j,1.3091185999801382,0.19233099999837577,None,,,,,,28,0,27,208.12846010003705,,,,,,,,,,,,,,,,,,,,,,,,,,,,,,208.11283630004618,208.12846010003705,208.62878140003886,208.61226409999654,,,,,,,,,,,,,,,,,,,,,,,,,,208.61475560005056,208.62878140003886,208.62878140003886,208.62878140003886,211.62852190004196,211.62852190004196,211.62852190004196,211.6124497000128,j,1.3091185999801382,0.19233099999837577,211.61249100003624,211.6125022000051,None,,,,,,,,,,,,,,00052,001,2026-01-18_16h38.10.006,MST_task,2024.2.0,59.8673339882714,2026-01-18 16h38.18.664161 +0530,
,Scenes\072a.jpg,28,0,29,,,,,,,j,1.219887799990829,0.20791019999887794,None,,,,,,29,0,28,211.62852190004196,,,,,,,,,,,,,,,,,,,,,,,,,,,,,,211.61257320002187,211.62852190004196,212.13459080003668,212.11216920003062,,,,,,,,,,,,,,,,,,,,,,,,,,212.1322005999973,212.13459080003668,212.13459080003668,212.13459080003668,,,,215.1288060999941,j,1.219887799990829,0.20791019999887794,215.13041080004768,215.13042890001088,None,,,,,,,,,,,,,,00052,001,2026-01-18_16h38.10.006,MST_task,2024.2.0,59.8673339882714,2026-01-18 16h38.18.664161 +0530,
,Scenes\090a.jpg,29,0,30,,,,,,,f,2.1630260999663733,0.1832682000240311,None,,,,,,30,0,29,215.14523210003972,,,,,,,,,,,,,,,,,,,,,,,,,,,,,,215.13053070002934,215.14523210003972,215.64745680004125,215.62883570004487,,,,,,,,,,,,,,,,,,,,,,,,,,215.6452963000047,215.64745680004125,215.64745680004125,215.64745680004125,,,,218.64554050000152,f,2.1630260999663733,0.1832682000240311,218.6455825000303,218.6455941000022,None,,,,,,,,,,,,,,00052,001,2026-01-18_16h38.10.006,MST_task,2024.2.0,59.8673339882714,2026-01-18 16h38.18.664161 +0530,
,Scenes\170a.jpg,30,0,31,,,,,,,None,,,j,1.3533867999794893,None,,,,31,0,30,218.6619037000346,,,,,,,,,,,,,,,,,,,,,,,,,,,,,,218.64569279999705,218.6619037000346,219.162548399996,219.1454311000416,,,,,,,,,,,,,,,,,,,,,,,,,,219.15553059999365,219.162548399996,219.162548399996,219.162548399996,222.16196470003342,222.16196470003342,222.16196470003342,222.14599610003643,None,,,222.14604010002222,223.5288979000179,j,222.16196470003342,222.16196470003342,1.3533867999794893,None,,,,,,,,,,00052,001,2026-01-18_16h38.10.006,MST_task,2024.2.0,59.8673339882714,2026-01-18 16h38.18.664161 +0530,
,Scenes\154a.jpg,31,0,32,,,,,,,j,1.452976500033401,0.12769029999617487,None,,,,,,32,0,31,223.5453695000033,,,,,,,,,,,,,,,,,,,,,,,,,,,,,,223.52898610004922,223.5453695000033,224.04586930002552,224.02873710001586,,,,,,,,,,,,,,,,,,,,,,,,,,224.03490690002218,224.04586930002552,224.04586930002552,224.04586930002552,227.04530520003755,227.04530520003755,227.04530520003755,227.02900100004626,j,1.452976500033401,0.12769029999617487,227.02904400002444,227.02905569999712,None,,,,,,,,,,,,,,00052,001,2026-01-18_16h38.10.006,MST_task,2024.2.0,59.8673339882714,2026-01-18 16h38.18.664161 +0530,
,Scenes\162a.jpg,32,0,33,,,,,,,j,2.184971200011205,0.16845430003013462,None,,,,,,33,0,32,227.04530520003755,,,,,,,,,,,,,,,,,,,,,,,,,,,,,,227.02915360004408,227.04530520003755,227.5455185000319,227.52886520000175,,,,,,,,,,,,,,,,,,,,,,,,,,227.53402340004686,227.5455185000319,227.5455185000319,227.5455185000319,230.54529740003636,230.54529740003636,230.54529740003636,230.52900500001851,j,2.184971200011205,0.16845430003013462,230.52904530003434,230.52905589999864,None,,,,,,,,,,,,,,00052,001,2026-01-18_16h38.10.006,MST_task,2024.2.0,59.8673339882714,2026-01-18 16h38.18.664161 +0530,
,Scenes\045a.jpg,33,0,34,,,,,,,j,0.9829886999796145,0.18405530002200976,None,,,,,,34,0,33,230.54529740003636,,,,,,,,,,,,,,,,,,,,,,,,,,,,,,230.5291530000395,230.54529740003636,231.05147690000013,231.02872360002948,,,,,,,,,,,,,,,,,,,,,,,,,,231.04887660004897,231.05147690000013,231.05147690000013,231.05147690000013,,,,234.0455250000232,j,0.9829886999796145,0.18405530002200976,234.0455726000364,234.04558460001135,None,,,,,,,,,,,,,,00052,001,2026-01-18_16h38.10.006,MST_task,2024.2.0,59.8673339882714,2026-01-18 16h38.18.664161 +0530,
,Scenes\131a.jpg,34,0,35,,,,,,,j,1.9511530000017956,0.18396569998003542,None,,,,,,35,0,34,234.06194959999993,,,,,,,,,,,,,,,,,,,,,,,,,,,,,,234.04565780004486,234.06194959999993,234.56261220003944,234.54563110001618,,,,,,,,,,,,,,,,,,,,,,,,,,234.55478830001084,234.56261220003944,234.56261220003944,234.56261220003944,237.56209040002432,237.56209040002432,237.56209040002432,237.54588859999785,j,1.9511530000017956,0.18396569998003542,237.545931700035,237.54594320000615,None,,,,,,,,,,,,,,00052,001,2026-01-18_16h38.10.006,MST_task,2024.2.0,59.8673339882714,2026-01-18 16h38.18.664161 +0530,
,Objects\118a.jpg,35,0,36,,,,,,,f,2.3071120000095107,0.19292429997585714,None,,,,,,36,0,35,237.56209040002432,,,,,,,,,,,,,,,,,,,,,,,,,,,,,,237.54601079999702,237.56209040002432,238.06256540003233,238.04559540003538,,,,,,,,,,,,,,,,,,,,,,,,,,238.05131100001745,238.06256540003233,238.06256540003233,238.06256540003233,241.06200600002194,241.06200600002194,241.06200600002194,241.04597370000556,f,2.3071120000095107,0.19292429997585714,241.04802490002476,241.04804260004312,None,,,,,,,,,,,,,,00052,001,2026-01-18_16h38.10.006,MST_task,2024.2.0,59.8673339882714,2026-01-18 16h38.18.664161 +0530,
,Objects\175a.jpg,36,0,37,,,,,,,f,1.3371534000034444,0.17499189998488873,None,,,,,,37,0,36,241.06200600002194,,,,,,,,,,,,,,,,,,,,,,,,,,,,,,241.04811259999406,241.06200600002194,241.56231180002214,241.54587510001147,,,,,,,,,,,,,,,,,,,,,,,,,,241.55520000000251,241.56231180002214,241.56231180002214,241.56231180002214,244.56203700002516,244.56203700002516,244.56203700002516,244.54618100001244,f,1.3371534000034444,0.17499189998488873,244.54622469999595,244.54623580002226,None,,,,,,,,,,,,,,00052,001,2026-01-18_16h38.10.006,MST_task,2024.2.0,59.8673339882714,2026-01-18 16h38.18.664161 +0530,
,Objects\154a.jpg,37,0,38,,,,,,,j,0.9397573000169359,0.15949769999133423,None,,,,,,38,0,37,244.56203700002516,,,,,,,,,,,,,,,,,,,,,,,,,,,,,,244.5463063000352,244.56203700002516,245.0623761000461,245.04572100000223,,,,,,,,,,,,,,,,,,,,,,,,,,245.0485456000315,245.0623761000461,245.0623761000461,245.0623761000461,248.0621106000035,248.0621106000035,248.0621106000035,248.04596190003213,j,0.9397573000169359,0.15949769999133423,248.04600299999584,248.04601350001758,None,,,,,,,,,,,,,,00052,001,2026-01-18_16h38.10.006,MST_task,2024.2.0,59.8673339882714,2026-01-18 16h38.18.664161 +0530,
,Objects\001a.jpg,38,0,39,,,,,,,f,1.0553781000198796,0.21644930000184104,None,,,,,,39,0,38,248.0621106000035,,,,,,,,,,,,,,,,,,,,,,,,,,,,,,248.04611210001167,248.0621106000035,248.5622857999988,248.54557380004553,,,,,,,,,,,,,,,,,,,,,,,,,,248.54814230004558,248.5622857999988,248.5622857999988,248.5622857999988,251.56217940000352,251.56217940000352,251.56217940000352,251.54594420001376,f,1.0553781000198796,0.21644930000184104,251.5459850000334,251.54599620000226,None,,,,,,,,,,,,,,00052,001,2026-01-18_16h38.10.006,MST_task,2024.2.0,59.8673339882714,2026-01-18 16h38.18.664161 +0530,
,Objects\134a.jpg,39,0,40,,,,,,,j,0.9559241000097245,0.19998679996933788,None,,,,,,40,0,39,251.56217940000352,,,,,,,,,,,,,,,,,,,,,,,,,,,,,,251.54606250004144,251.56217940000352,252.0622436000267,252.04567800002405,,,,,,,,,,,,,,,,,,,,,,,,,,252.0483421999961,252.0622436000267,252.0622436000267,252.0622436000267,255.0620099999942,255.0620099999942,255.0620099999942,255.04597730003297,j,0.9559241000097245,0.19998679996933788,255.04601829999592,255.04602890001843,None,,,,,,,,,,,,,,00052,001,2026-01-18_16h38.10.006,MST_task,2024.2.0,59.8673339882714,2026-01-18 16h38.18.664161 +0530,
,Objects\046a.jpg,40,0,41,,,,,,,f,1.5274732999969274,0.22400749998632818,None,,,,,,41,0,40,255.0620099999942,,,,,,,,,,,,,,,,,,,,,,,,,,,,,,255.04612250003265,255.0620099999942,255.56221090001054,255.5458964999998,,,,,,,,,,,,,,,,,,,,,,,,,,255.54898550000507,255.56221090001054,255.56221090001054,255.56221090001054,258.5620923000388,258.5620923000388,258.5620923000388,258.5458396000322,f,1.5274732999969274,0.22400749998632818,258.5458813000005,258.5458926000283,None,,,,,,,,,,,,,,00052,001,2026-01-18_16h38.10.006,MST_task,2024.2.0,59.8673339882714,2026-01-18 16h38.18.664161 +0530,
,Objects\100a.jpg,41,0,42,,,,,,,f,2.1318077000323683,0.20016910001868382,None,,,,,,42,0,41,258.5620923000388,,,,,,,,,,,,,,,,,,,,,,,,,,,,,,258.54596030001994,258.5620923000388,259.06215910002356,259.0455861000228,,,,,,,,,,,,,,,,,,,,,,,,,,259.0484072000254,259.06215910002356,259.06215910002356,259.06215910002356,262.062129500031,262.062129500031,262.062129500031,262.04611060000025,f,2.1318077000323683,0.20016910001868382,262.04615980002563,262.04617040004814,None,,,,,,,,,,,,,,00052,001,2026-01-18_16h38.10.006,MST_task,2024.2.0,59.8673339882714,2026-01-18 16h38.18.664161 +0530,
,Scenes\018a.jpg,42,0,43,,,,,,,j,1.543153300008271,0.20004009996773675,None,,,,,,43,0,42,262.062129500031,,,,,,,,,,,,,,,,,,,,,,,,,,,,,,262.0462400999968,262.062129500031,262.5625609999988,262.5456478000269,,,,,,,,,,,,,,,,,,,,,,,,,,262.55431219999446,262.5625609999988,262.5625609999988,262.5625609999988,265.56220800004667,265.56220800004667,265.56220800004667,265.5461071000318,j,1.543153300008271,0.20004009996773675,265.5477932000067,265.5478114000289,None,,,,,,,,,,,,,,00052,001,2026-01-18_16h38.10.006,MST_task,2024.2.0,59.8673339882714,2026-01-18 16h38.18.664161 +0530,
,Scenes\015a.jpg,43,0,44,,,,,,,j,2.420411100029014,0.14256989996647462,None,,,,,,44,0,43,265.56220800004667,,,,,,,,,,,,,,,,,,,,,,,,,,,,,,265.5478825000464,265.56220800004667,266.06265720003285,266.045750499994,,,,,,,,,,,,,,,,,,,,,,,,,,266.05734759999905,266.06265720003285,266.06265720003285,266.06265720003285,269.0620710999938,269.0620710999938,269.0620710999938,269.045962800039,j,2.420411100029014,0.14256989996647462,269.0460032999981,269.04601330001606,None,,,,,,,,,,,,,,00052,001,2026-01-18_16h38.10.006,MST_task,2024.2.0,59.8673339882714,2026-01-18 16h38.18.664161 +0530,
,Scenes\042a.jpg,44,0,45,,,,,,,j,0.750610199989751,0.17625499999849126,None,,,,,,45,0,44,269.0620710999938,,,,,,,,,,,,,,,,,,,,,,,,,,,,,,269.0461125000147,269.0620710999938,269.5631895000115,269.54566270002397,,,,,,,,,,,,,,,,,,,,,,,,,,269.56070690002525,269.5631895000115,269.5631895000115,269.5631895000115,272.56202770001255,272.56202770001255,272.56202770001255,272.54597630002536,j,0.750610199989751,0.17625499999849126,272.54601799999364,272.5460284000146,None,,,,,,,,,,,,,,00052,001,2026-01-18_16h38.10.006,MST_task,2024.2.0,59.8673339882714,2026-01-18 16h38.18.664161 +0530,
,Scenes\178a.jpg,45,0,46,,,,,,,j,0.6351170999696478,0.1366153000271879,None,,,,,,46,0,45,272.56202770001255,,,,,,,,,,,,,,,,,,,,,,,,,,,,,,272.54609350004466,272.56202770001255,273.0625929000089,273.0456792000332,,,,,,,,,,,,,,,,,,,,,,,,,,273.0521698000375,273.0625929000089,273.0625929000089,273.0625929000089,276.06194850004977,276.06194850004977,276.06194850004977,276.04597300000023,j,0.6351170999696478,0.1366153000271879,276.04601690004347,276.04602760000853,None,,,,,,,,,,,,,,00052,001,2026-01-18_16h38.10.006,MST_task,2024.2.0,59.8673339882714,2026-01-18 16h38.18.664161 +0530,
,Scenes\012a.jpg,46,0,47,,,,,,,j,0.6557438000454567,0.19985340000130236,None,,,,,,47,0,46,276.06194850004977,,,,,,,,,,,,,,,,,,,,,,,,,,,,,,276.0460946999956,276.06194850004977,276.5625424000318,276.54572640004335,,,,,,,,,,,,,,,,,,,,,,,,,,276.5560833000345,276.5625424000318,276.5625424000318,276.5625424000318,279.56206910003675,279.56206910003675,279.56206910003675,279.5459692000295,j,0.6557438000454567,0.19985340000130236,279.5460114000016,279.5460222000256,None,,,,,,,,,,,,,,00052,001,2026-01-18_16h38.10.006,MST_task,2024.2.0,59.8673339882714,2026-01-18 16h38.18.664161 +0530,
,Scenes\107a.jpg,47,0,48,,,,,,,j,0.651811599964276,0.191655799979344,None,,,,,,48,0,47,279.56206910003675,,,,,,,,,,,,,,,,,,,,,,,,,,,,,,279.54612170002656,279.56206910003675,280.062699800008,280.04564359999495,,,,,,,,,,,,,,,,,,,,,,,,,,280.0529020000249,280.062699800008,280.062699800008,280.062699800008,283.0620116000064,283.0620116000064,283.0620116000064,283.0460518000182,j,0.651811599964276,0.191655799979344,283.0460968000116,283.0461076000356,None,,,,,,,,,,,,,,00052,001,2026-01-18_16h38.10.006,MST_task,2024.2.0,59.8673339882714,2026-01-18 16h38.18.664161 +0530,
,Scenes\117a.jpg,48,0,49,,,,,,,j,0.656564700009767,0.17499410000164062,None,,,,,,49,0,48,283.0620116000064,,,,,,,,,,,,,,,,,,,,,,,,,,,,,,283.0461759000318,283.0620116000064,283.5627171000233,283.54567050002515,,,,,,,,,,,,,,,,,,,,,,,,,,283.55127560003893,283.5627171000233,283.5627171000233,283.5627171000233,286.5620027999976,286.5620027999976,286.5620027999976,286.5461888000136,j,0.656564700009767,0.17499410000164062,286.5462373000337,286.546248300001,None,,,,,,,,,,,,,,00052,001,2026-01-18_16h38.10.006,MST_task,2024.2.0,59.8673339882714,2026-01-18 16h38.18.664161 +0530,
,Objects\138a.jpg,49,0,50,,,,,,,j,1.5402554999454878,0.1840014000190422,None,,,,,,50,0,49,286.5620027999976,,,,,,,,,,,,,,,,,,,,,,,,,,,,,,286.54636130004656,286.5620027999976,287.06264970003394,287.0456911000074,,,,,,,,,,,,,,,,,,,,,,,,,,287.05111020000186,287.06264970003394,287.06264970003394,287.06264970003394,290.0621080000419,290.0621080000419,290.0621080000419,290.04596030001994,j,1.5402554999454878,0.1840014000190422,290.04801120003685,290.04802849999396,None,,,,,,,,,,,,,,00052,001,2026-01-18_16h38.10.006,MST_task,2024.2.0,59.8673339882714,2026-01-18 16h38.18.664161 +0530,
,Objects\147a.jpg,50,0,51,,,,,,,f,1.6241763000143692,0.2400791000109166,None,,,,,,51,0,50,290.0621080000419,,,,,,,,,,,,,,,,,,,,,,,,,,,,,,290.0481319000246,290.0621080000419,290.5622216000338,290.5456036000396,,,,,,,,,,,,,,,,,,,,,,,,,,290.5483839000226,290.5622216000338,290.5622216000338,290.5622216000338,293.56208639999386,293.56208639999386,293.56208639999386,293.545804399997,f,1.6241763000143692,0.2400791000109166,293.54585210001096,293.54586480004946,None,,,,,,,,,,,,,,00052,001,2026-01-18_16h38.10.006,MST_task,2024.2.0,59.8673339882714,2026-01-18 16h38.18.664161 +0530,
,Objects\023a.jpg,51,0,52,,,,,,,f,1.3798150999937207,0.19968030002200976,None,,,,,,52,0,51,293.56208639999386,,,,,,,,,,,,,,,,,,,,,,,,,,,,,,293.5459417999955,293.56208639999386,294.06228509999346,294.04566280002473,,,,,,,,,,,,,,,,,,,,,,,,,,294.04881070001284,294.06228509999346,294.06228509999346,294.06228509999346,297.06198150001,297.06198150001,297.06198150001,297.0457645000424,f,1.3798150999937207,0.19968030002200976,297.0458064000122,297.04581690003397,None,,,,,,,,,,,,,,00052,001,2026-01-18_16h38.10.006,MST_task,2024.2.0,59.8673339882714,2026-01-18 16h38.18.664161 +0530,
,Objects\096a.jpg,52,0,53,,,,,,,j,2.007611600041855,0.184017599967774,None,,,,,,53,0,52,297.06198150001,,,,,,,,,,,,,,,,,,,,,,,,,,,,,,297.0458826000104,297.06198150001,297.56219800002873,297.54558070003986,,,,,,,,,,,,,,,,,,,,,,,,,,297.5576207000413,297.56219800002873,297.56219800002873,297.56219800002873,300.5620152000338,300.5620152000338,300.5620152000338,300.5458897000062,j,2.007611600041855,0.184017599967774,300.5459328000434,300.54594400001224,None,,,,,,,,,,,,,,00052,001,2026-01-18_16h38.10.006,MST_task,2024.2.0,59.8673339882714,2026-01-18 16h38.18.664161 +0530,
,Objects\027a.jpg,53,0,54,,,,,,,f,0.7075807999935932,0.19999359996290877,None,,,,,,54,0,53,300.5620152000338,,,,,,,,,,,,,,,,,,,,,,,,,,,,,,300.5460108999978,300.5620152000338,301.0622089999961,301.0455558000249,,,,,,,,,,,,,,,,,,,,,,,,,,301.04831340000965,301.0622089999961,301.0622089999961,301.0622089999961,304.06199479999486,304.06199479999486,304.06199479999486,304.04576370003633,f,0.7075807999935932,0.19999359996290877,304.04580840002745,304.0458191999933,None,,,,,,,,,,,,,,00052,001,2026-01-18_16h38.10.006,MST_task,2024.2.0,59.8673339882714,2026-01-18 16h38.18.664161 +0530,
,Objects\022a.jpg,54,0,55,,,,,,,j,2.7835331999813206,0.1681523000006564,None,,,,,,55,0,54,304.06199479999486,,,,,,,,,,,,,,,,,,,,,,,,,,,,,,304.045886100037,304.06199479999486,304.5622659000219,304.54551170003833,,,,,,,,,,,,,,,,,,,,,,,,,,304.5481506000506,304.5622659000219,304.5622659000219,304.5622659000219,307.56198530003894,307.56198530003894,307.56198530003894,307.54602240002714,j,2.7835331999813206,0.1681523000006564,307.5460667000152,307.5460774000385,None,,,,,,,,,,,,,,00052,001,2026-01-18_16h38.10.006,MST_task,2024.2.0,59.8673339882714,2026-01-18 16h38.18.664161 +0530,
,Objects\187a.jpg,55,0,56,,,,,,,f,1.075710800010711,0.1847142999758944,None,,,,,,56,0,55,307.56198530003894,,,,,,,,,,,,,,,,,,,,,,,,,,,,,,307.54614470002707,307.56198530003894,308.06213480001315,308.0455600999994,,,,,,,,,,,,,,,,,,,,,,,,,,308.0481963000493,308.06213480001315,308.06213480001315,308.06213480001315,311.0619880000013,311.0619880000013,311.0619880000013,311.04580920003355,f,1.075710800010711,0.1847142999758944,311.04585390002467,311.0458644000464,None,,,,,,,,,,,,,,00052,001,2026-01-18_16h38.10.006,MST_task,2024.2.0,59.8673339882714,2026-01-18 16h38.18.664161 +0530,
,Scenes\118a.jpg,56,0,57,,,,,,,j,2.584808300016448,0.1591657999670133,None,,,,,,57,0,56,311.0619880000013,,,,,,,,,,,,,,,,,,,,,,,,,,,,,,311.04596130002756,311.0619880000013,311.5626491000294,311.5456673000008,,,,,,,,,,,,,,,,,,,,,,,,,,311.56007170001976,311.5626491000294,311.5626491000294,311.5626491000294,314.56200440000976,314.56200440000976,314.56200440000976,314.5459610000253,j,2.584808300016448,0.1591657999670133,314.5475781999994,314.5475943000056,None,,,,,,,,,,,,,,00052,001,2026-01-18_16h38.10.006,MST_task,2024.2.0,59.8673339882714,2026-01-18 16h38.18.664161 +0530,
,Scenes\149a.jpg,57,0,58,,,,,,,j,0.9537884999881499,0.17595090001123026,None,,,,,,58,0,57,314.56200440000976,,,,,,,,,,,,,,,,,,,,,,,,,,,,,,314.5477022000123,314.56200440000976,315.0647129000281,315.0455598999979,,,,,,,,,,,,,,,,,,,,,,,,,,315.06236949999584,315.0647129000281,315.0647129000281,315.0647129000281,,,,318.0622674000333,j,0.9537884999881499,0.17595090001123026,318.062325100007,318.0623375000432,None,,,,,,,,,,,,,,00052,001,2026-01-18_16h38.10.006,MST_task,2024.2.0,59.8673339882714,2026-01-18 16h38.18.664161 +0530,
,Scenes\068a.jpg,58,0,59,,,,,,,j,0.6714354999712668,0.19911990000400692,None,,,,,,59,0,58,318.07868710003095,,,,,,,,,,,,,,,,,,,,,,,,,,,,,,318.0624169000075,318.07868710003095,318.57921070000157,318.5621691000415,,,,,,,,,,,,,,,,,,,,,,,,,,318.57131930004107,318.57921070000157,318.57921070000157,318.57921070000157,321.57849750004243,321.57849750004243,321.57849750004243,321.5625293000485,j,0.6714354999712668,0.19911990000400692,321.5625699000084,321.56258010002784,None,,,,,,,,,,,,,,00052,001,2026-01-18_16h38.10.006,MST_task,2024.2.0,59.8673339882714,2026-01-18 16h38.18.664161 +0530,
,Scenes\112a.jpg,59,0,60,,,,,,,None,,,j,0.10007699998095632,None,,,,60,0,59,321.57849750004243,,,,,,,,,,,,,,,,,,,,,,,,,,,,,,321.56268980004825,321.57849750004243,322.0791508000111,322.0622214000323,,,,,,,,,,,,,,,,,,,,,,,,,,322.0706248000497,322.0791508000111,322.0791508000111,322.0791508000111,325.0785092000151,325.0785092000151,325.0785092000151,325.0625174000161,None,,,325.0625642000232,325.1791687000077,j,325.0785092000151,325.0785092000151,0.10007699998095632,None,,,,,,,,,,00052,001,2026-01-18_16h38.10.006,MST_task,2024.2.0,59.8673339882714,2026-01-18 16h38.18.664161 +0530,
,Scenes\183a.jpg,60,0,61,,,,,,,f,2.817863199976273,None,None,,,,,,61,0,60,325.1953290000092,,,,,,,,,,,,,,,,,,,,,,,,,,,,,,325.17925380001543,325.1953290000092,325.6959508000291,325.6788143000449,,,,,,,,,,,,,,,,,,,,,,,,,,325.6880170000368,325.6959508000291,325.6959508000291,325.6959508000291,328.69534370000474,328.69534370000474,328.69534370000474,328.67913030000636,f,2.817863199976273,None,328.67917230003513,328.679183500004,None,,,,,,,,,,,,,,00052,001,2026-01-18_16h38.10.006,MST_task,2024.2.0,59.8673339882714,2026-01-18 16h38.18.664161 +0530,
,Scenes\192a.jpg,61,0,62,,,,,,,j,1.6472490000305697,0.1828840000089258,None,,,,,,62,0,61,328.69534370000474,,,,,,,,,,,,,,,,,,,,,,,,,,,,,,328.6792792000342,328.69534370000474,329.1958649000153,329.17898730002344,,,,,,,,,,,,,,,,,,,,,,,,,,329.1853269000421,329.1958649000153,329.1958649000153,329.1958649000153,332.1952651000465,332.1952651000465,332.1952651000465,332.1791976999957,j,1.6472490000305697,0.1828840000089258,332.1792381000123,332.1792489000363,None,,,,,,,,,,,,,,00052,001,2026-01-18_16h38.10.006,MST_task,2024.2.0,59.8673339882714,2026-01-18 16h38.18.664161 +0530,
,Scenes\050a.jpg,62,0,63,,,,,,,j,0.6665362000348978,0.16788839997025207,None,,,,,,63,0,62,332.1952651000465,,,,,,,,,,,,,,,,,,,,,,,,,,,,,,332.1793168000295,332.1952651000465,332.69593070005067,332.6788857000065,,,,,,,,,,,,,,,,,,,,,,,,,,332.6852832000004,332.69593070005067,332.69593070005067,332.69593070005067,335.6953239000286,335.6953239000286,335.6953239000286,335.67912260000594,j,0.6665362000348978,0.16788839997025207,335.67916470003547,335.67917540000053,None,,,,,,,,,,,,,,00052,001,2026-01-18_16h38.10.006,MST_task,2024.2.0,59.8673339882714,2026-01-18 16h38.18.664161 +0530,
,Objects\013a.jpg,63,0,64,,,,,,,j,2.5347883999929763,0.08795249997638166,None,,,,,,64,0,63,335.6953239000286,,,,,,,,,,,,,,,,,,,,,,,,,,,,,,335.67927960003726,335.6953239000286,336.1957145000342,336.17893290001666,,,,,,,,,,,,,,,,,,,,,,,,,,336.1841449000058,336.1957145000342,336.1957145000342,336.1957145000342,339.1953244000324,339.1953244000324,339.1953244000324,339.1790813000407,j,2.5347883999929763,0.08795249997638166,339.18120950000593,339.18122760002734,None,,,,,,,,,,,,,,00052,001,2026-01-18_16h38.10.006,MST_task,2024.2.0,59.8673339882714,2026-01-18 16h38.18.664161 +0530,
,Objects\071a.jpg,64,0,65,,,,,,,j,2.826441999990493,0.13600009999936447,None,,,,,,65,0,64,339.1953244000324,,,,,,,,,,,,,,,,,,,,,,,,,,,,,,339.18129850004334,339.1953244000324,339.69555400003446,339.67894350003917,,,,,,,,,,,,,,,,,,,,,,,,,,339.68153390003135,339.69555400003446,339.69555400003446,339.69555400003446,342.6952763000154,342.6952763000154,342.6952763000154,342.6792480000295,j,2.826441999990493,0.13600009999936447,342.6792878000415,342.67929820000427,None,,,,,,,,,,,,,,00052,001,2026-01-18_16h38.10.006,MST_task,2024.2.0,59.8673339882714,2026-01-18 16h38.18.664161 +0530,
,Objects\184a.jpg,65,0,66,,,,,,,j,1.6305417999974452,0.1280331999878399,None,,,,,,66,0,65,342.6952763000154,,,,,,,,,,,,,,,,,,,,,,,,,,,,,,342.6793936000322,342.6952763000154,343.1955695000361,343.1789512000396,,,,,,,,,,,,,,,,,,,,,,,,,,343.1817459000158,343.1955695000361,343.1955695000361,343.1955695000361,346.1953536000219,346.1953536000219,346.1953536000219,346.17927080002846,j,1.6305417999974452,0.1280331999878399,346.1793150000158,346.17932590004057,None,,,,,,,,,,,,,,00052,001,2026-01-18_16h38.10.006,MST_task,2024.2.0,59.8673339882714,2026-01-18 16h38.18.664161 +0530,
,Objects\056a.jpg,66,0,67,,,,,,,None,,,j,1.8744302000268362,None,,,,67,0,66,346.1953536000219,,,,,,,,,,,,,,,,,,,,,,,,,,,,,,346.17942970001604,346.1953536000219,346.6955682000262,346.678810900019,,,,,,,,,,,,,,,,,,,,,,,,,,346.6812995999935,346.6955682000262,346.6955682000262,346.6955682000262,349.69535400002496,349.69535400002496,349.69535400002496,349.6791103000287,None,,,349.6791480000247,351.57898120000027,j,349.69535400002496,349.69535400002496,1.8744302000268362,None,,,,,,,,,,00052,001,2026-01-18_16h38.10.006,MST_task,2024.2.0,59.8673339882714,2026-01-18 16h38.18.664161 +0530,
,Objects\086a.jpg,67,0,68,,,,,,,j,1.770868799998425,0.15194150002207607,None,,,,,,68,0,67,351.5953233000473,,,,,,,,,,,,,,,,,,,,,,,,,,,,,,351.57906850002473,351.5953233000473,352.0955722000217,352.07877350004856,,,,,,,,,,,,,,,,,,,,,,,,,,352.08890110003995,352.0955722000217,352.0955722000217,352.0955722000217,355.09538730001077,355.09538730001077,355.09538730001077,355.0793096999987,j,1.770868799998425,0.15194150002207607,355.07935880002333,355.0793702999945,None,,,,,,,,,,,,,,00052,001,2026-01-18_16h38.10.006,MST_task,2024.2.0,59.8673339882714,2026-01-18 16h38.18.664161 +0530,
,Objects\143a.jpg,68,0,69,,,,,,,j,1.8061472999979742,0.1762550999992527,None,,,,,,69,0,68,355.09538730001077,,,,,,,,,,,,,,,,,,,,,,,,,,,,,,355.0794769000495,355.09538730001077,355.5956895000418,355.5789206000045,,,,,,,,,,,,,,,,,,,,,,,,,,355.5818330000038,355.5956895000418,355.5956895000418,355.5956895000418,358.59541559999343,358.59541559999343,358.59541559999343,358.5791948999977,j,1.8061472999979742,0.1762550999992527,358.57924960000673,358.5792621000437,None,,,,,,,,,,,,,,00052,001,2026-01-18_16h38.10.006,MST_task,2024.2.0,59.8673339882714,2026-01-18 16h38.18.664161 +0530,
,Objects\084a.jpg,69,0,70,,,,,,,j,2.6186854999978095,0.1925333000253886,None,,,,,,70,0,69,358.59541559999343,,,,,,,,,,,,,,,,,,,,,,,,,,,,,,358.57933160004904,358.59541559999343,359.0956617000047,359.0790898000123,,,,,,,,,,,,,,,,,,,,,,,,,,359.08916030003456,359.0956617000047,359.0956617000047,359.0956617000047,362.09546060004504,362.09546060004504,362.09546060004504,362.07926070003305,j,2.6186854999978095,0.1925333000253886,362.07930129999295,362.07931190001545,None,,,,,,,,,,,,,,00052,001,2026-01-18_16h38.10.006,MST_task,2024.2.0,59.8673339882714,2026-01-18 16h38.18.664161 +0530,
,Scenes\003a.jpg,70,0,71,,,,,,,None,,,j,0.25505380000686273,None,,,,71,0,70,362.09546060004504,,,,,,,,,,,,,,,,,,,,,,,,,,,,,,362.0794078000472,362.09546060004504,362.59602769999765,362.57898819999536,,,,,,,,,,,,,,,,,,,,,,,,,,362.5910963000497,362.59602769999765,362.59602769999765,362.59602769999765,365.5953401000006,365.5953401000006,365.5953401000006,365.5793464000453,None,,,365.5810584000428,365.8625734000234,j,365.5953401000006,365.5953401000006,0.25505380000686273,None,,,,,,,,,,00052,001,2026-01-18_16h38.10.006,MST_task,2024.2.0,59.8673339882714,2026-01-18 16h38.18.664161 +0530,
,Scenes\092a.jpg,71,0,72,,,,,,,j,1.58224010001868,0.16825420001987368,None,,,,,,72,0,71,365.87867480004206,,,,,,,,,,,,,,,,,,,,,,,,,,,,,,365.86271010001656,365.87867480004206,366.37948490004055,366.36286560003646,,,,,,,,,,,,,,,,,,,,,,,,,,366.37116630002856,366.37948490004055,366.37948490004055,366.37948490004055,369.37859720003325,369.37859720003325,369.37859720003325,369.3628529999987,j,1.58224010001868,0.16825420001987368,369.36289490002673,369.3629068000009,None,,,,,,,,,,,,,,00052,001,2026-01-18_16h38.10.006,MST_task,2024.2.0,59.8673339882714,2026-01-18 16h38.18.664161 +0530,
,Scenes\081a.jpg,72,0,73,,,,,,,j,0.5154006000375375,0.16805869998643175,None,,,,,,73,0,72,369.37859720003325,,,,,,,,,,,,,,,,,,,,,,,,,,,,,,369.362976000004,369.37859720003325,369.8792693000287,369.86250960000325,,,,,,,,,,,,,,,,,,,,,,,,,,369.8726709000184,369.8792693000287,369.8792693000287,369.8792693000287,372.8786217000452,372.8786217000452,372.8786217000452,372.86280270002317,j,0.5154006000375375,0.16805869998643175,372.8628477000166,372.8628590000444,None,,,,,,,,,,,,,,00052,001,2026-01-18_16h38.10.006,MST_task,2024.2.0,59.8673339882714,2026-01-18 16h38.18.664161 +0530,
,Scenes\174a.jpg,73,0,74,,,,,,,j,0.6633773999637924,0.17600020003737882,None,,,,,,74,0,73,372.8786217000452,,,,,,,,,,,,,,,,,,,,,,,,,,,,,,372.86316080001416,372.8786217000452,373.3789851000183,373.3623485999997,,,,,,,,,,,,,,,,,,,,,,,,,,373.3712645000196,373.3789851000183,373.3789851000183,373.3789851000183,376.3785733000259,376.3785733000259,376.3785733000259,376.3625116000185,j,0.6633773999637924,0.17600020003737882,376.362551200029,376.3625617000507,None,,,,,,,,,,,,,,00052,001,2026-01-18_16h38.10.006,MST_task,2024.2.0,59.8673339882714,2026-01-18 16h38.18.664161 +0530,
,Scenes\181a.jpg,74,0,75,,,,,,,j,0.6270955000072718,0.13526159996399656,None,,,,,,75,0,74,376.3785733000259,,,,,,,,,,,,,,,,,,,,,,,,,,,,,,376.36262710002484,376.3785733000259,376.87938610004494,376.8624657000182,,,,,,,,,,,,,,,,,,,,,,,,,,376.87232930003665,376.87938610004494,376.87938610004494,376.87938610004494,379.87876950000646,379.87876950000646,379.87876950000646,379.86264540004777,j,0.6270955000072718,0.13526159996399656,379.8626916000503,379.8627025000169,None,,,,,,,,,,,,,,00052,001,2026-01-18_16h38.10.006,MST_task,2024.2.0,59.8673339882714,2026-01-18 16h38.18.664161 +0530,
,Scenes\121a.jpg,75,0,76,,,,,,,j,2.838328999991063,0.11999049998121336,None,,,,,,76,0,75,379.87876950000646,,,,,,,,,,,,,,,,,,,,,,,,,,,,,,379.86276990000624,379.87876950000646,380.3793458000291,380.36242220003624,,,,,,,,,,,,,,,,,,,,,,,,,,380.37135600001784,380.3793458000291,380.3793458000291,380.3793458000291,383.37887580000097,383.37887580000097,383.37887580000097,383.3629962000414,j,2.838328999991063,0.11999049998121336,383.363040700031,383.3630511999945,None,,,,,,,,,,,,,,00052,001,2026-01-18_16h38.10.006,MST_task,2024.2.0,59.8673339882714,2026-01-18 16h38.18.664161 +0530,
,Scenes\187a.jpg,76,0,77,,,,,,,j,1.210785900009796,0.20762749999994412,None,,,,,,77,0,76,383.37887580000097,,,,,,,,,,,,,,,,,,,,,,,,,,,,,,383.36314740002854,383.37887580000097,383.8793041000026,383.86228580004536,,,,,,,,,,,,,,,,,,,,,,,,,,383.87062560004415,383.8793041000026,383.8793041000026,383.8793041000026,386.8785845999955,386.8785845999955,386.8785845999955,386.86261770001147,j,1.210785900009796,0.20762749999994412,386.8626567000174,386.8626676000422,None,,,,,,,,,,,,,,00052,001,2026-01-18_16h38.10.006,MST_task,2024.2.0,59.8673339882714,2026-01-18 16h38.18.664161 +0530,
,Objects\038a.jpg,77,0,78,,,,,,,None,,,f,1.311291899997741,None,,,,78,0,77,386.8785845999955,,,,,,,,,,,,,,,,,,,,,,,,,,,,,,386.862732700014,386.8785845999955,387.3790879000444,387.3623736000154,,,,,,,,,,,,,,,,,,,,,,,,,,387.3676887000329,387.3790879000444,387.3790879000444,387.3790879000444,390.37864920002175,390.37864920002175,390.37864920002175,390.36268400005065,None,,,390.3647394000436,391.69575250003254,f,390.37864920002175,390.37864920002175,1.311291899997741,None,,,,,,,,,,00052,001,2026-01-18_16h38.10.006,MST_task,2024.2.0,59.8673339882714,2026-01-18 16h38.18.664161 +0530,
,Objects\041a.jpg,78,0,79,,,,,,,j,2.8220600999775343,0.14399330003652722,None,,,,,,79,0,78,391.71203880000394,,,,,,,,,,,,,,,,,,,,,,,,,,,,,,391.69587620004313,391.71203880000394,392.2122653000406,392.1956024999963,,,,,,,,,,,,,,,,,,,,,,,,,,392.2051027000416,392.2122653000406,392.2122653000406,392.2122653000406,395.21202890004497,395.21202890004497,395.21202890004497,395.19584820000455,j,2.8220600999775343,0.14399330003652722,395.19588780001504,395.1958988000406,None,,,,,,,,,,,,,,00052,001,2026-01-18_16h38.10.006,MST_task,2024.2.0,59.8673339882714,2026-01-18 16h38.18.664161 +0530,
,Objects\007a.jpg,79,0,80,,,,,,,j,1.5784411000204273,0.15182209998602048,None,,,,,,80,0,79,395.21202890004497,,,,,,,,,,,,,,,,,,,,,,,,,,,,,,395.19599460001336,395.21202890004497,395.712270500022,395.69560550001916,,,,,,,,,,,,,,,,,,,,,,,,,,395.69811130000744,395.712270500022,395.712270500022,395.712270500022,398.7119781000074,398.7119781000074,398.7119781000074,398.69590869999956,j,1.5784411000204273,0.15182209998602048,398.6959482000093,398.6959586000303,None,,,,,,,,,,,,,,00052,001,2026-01-18_16h38.10.006,MST_task,2024.2.0,59.8673339882714,2026-01-18 16h38.18.664161 +0530,
,Objects\069a.jpg,80,0,81,,,,,,,j,1.8535368000157177,0.19198870001127943,None,,,,,,81,0,80,398.7119781000074,,,,,,,,,,,,,,,,,,,,,,,,,,,,,,398.69602390000364,398.7119781000074,399.2121918000048,399.1955933000427,,,,,,,,,,,,,,,,,,,,,,,,,,399.1983270000201,399.2121918000048,399.2121918000048,399.2121918000048,402.21211409999523,402.21211409999523,402.21211409999523,402.1963094000239,j,1.8535368000157177,0.19198870001127943,402.1963589999941,402.196370700025,None,,,,,,,,,,,,,,00052,001,2026-01-18_16h38.10.006,MST_task,2024.2.0,59.8673339882714,2026-01-18 16h38.18.664161 +0530,
,Objects\128a.jpg,81,0,82,,,,,,,None,,,j,0.15364079998107627,None,,,,82,0,81,402.21211409999523,,,,,,,,,,,,,,,,,,,,,,,,,,,,,,402.1964845000184,402.21211409999523,402.71235830005025,402.69567929999903,,,,,,,,,,,,,,,,,,,,,,,,,,402.70498000003863,402.71235830005025,402.71235830005025,402.71235830005025,405.7121197000379,405.7121197000379,405.7121197000379,405.69604220002657,None,,,405.696081000031,405.8790661999956,j,405.7121197000379,405.7121197000379,0.15364079998107627,None,,,,,,,,,,00052,001,2026-01-18_16h38.10.006,MST_task,2024.2.0,59.8673339882714,2026-01-18 16h38.18.664161 +0530,
,Objects\112a.jpg,82,0,83,,,,,,,f,0.8704177000327036,0.19194449996575713,None,,,,,,83,0,82,405.89534170000115,,,,,,,,,,,,,,,,,,,,,,,,,,,,,,405.8791495000478,405.89534170000115,406.3955928000505,406.3788643000298,,,,,,,,,,,,,,,,,,,,,,,,,,406.38159170001745,406.3955928000505,406.3955928000505,406.3955928000505,409.3953072000295,409.3953072000295,409.3953072000295,409.3793293000199,f,0.8704177000327036,0.19194449996575713,409.3793789000483,409.3793901000172,None,,,,,,,,,,,,,,00052,001,2026-01-18_16h38.10.006,MST_task,2024.2.0,59.8673339882714,2026-01-18 16h38.18.664161 +0530,
,Objects\072a.jpg,83,0,84,,,,,,,f,1.2344637000351213,0.21602679998613894,None,,,,,,84,0,83,409.3953072000295,,,,,,,,,,,,,,,,,,,,,,,,,,,,,,409.37945820001187,409.3953072000295,409.89572390000103,409.8788884000387,,,,,,,,,,,,,,,,,,,,,,,,,,409.88169930002186,409.89572390000103,409.89572390000103,409.89572390000103,412.8953589000157,412.8953589000157,412.8953589000157,412.8791684000171,f,1.2344637000351213,0.21602679998613894,412.8792100000428,412.8792211000109,None,,,,,,,,,,,,,,00052,001,2026-01-18_16h38.10.006,MST_task,2024.2.0,59.8673339882714,2026-01-18 16h38.18.664161 +0530,
,Scenes\095a.jpg,84,0,85,,,,,,,j,0.7872149999602698,0.17672719998518005,None,,,,,,85,0,84,412.8953589000157,,,,,,,,,,,,,,,,,,,,,,,,,,,,,,412.8792864000425,412.8953589000157,413.3985161000164,413.37893040000927,,,,,,,,,,,,,,,,,,,,,,,,,,413.3960994000081,413.3985161000164,413.3985161000164,413.3985161000164,,,,416.3956081000506,j,0.7872149999602698,0.17672719998518005,416.3974298000103,416.39744880003855,None,,,,,,,,,,,,,,00052,001,2026-01-18_16h38.10.006,MST_task,2024.2.0,59.8673339882714,2026-01-18 16h38.18.664161 +0530,
,Scenes\122a.jpg,85,0,86,,,,,,,f,2.2499911999912,0.1680398000171408,None,,,,,,86,0,85,416.4120189000387,,,,,,,,,,,,,,,,,,,,,,,,,,,,,,416.39756420004414,416.4120189000387,416.9126739000203,416.8956168000004,,,,,,,,,,,,,,,,,,,,,,,,,,416.9056775000063,416.9126739000203,416.9126739000203,416.9126739000203,419.9120615000138,419.9120615000138,419.9120615000138,419.8959063999937,f,2.2499911999912,0.1680398000171408,419.8959499000339,419.8959604999982,None,,,,,,,,,,,,,,00052,001,2026-01-18_16h38.10.006,MST_task,2024.2.0,59.8673339882714,2026-01-18 16h38.18.664161 +0530,
,Scenes\143a.jpg,86,0,87,,,,,,,j,1.2589277000515722,0.13599879998946562,None,,,,,,87,0,86,419.9120615000138,,,,,,,,,,,,,,,,,,,,,,,,,,,,,,419.89606070000445,419.9120615000138,420.41493480000645,420.3955629999982,,,,,,,,,,,,,,,,,,,,,,,,,,420.4125714999973,420.41493480000645,420.41493480000645,420.41493480000645,,,,423.4122188000474,j,1.2589277000515722,0.13599879998946562,423.4122595000081,423.4122711000382,None,,,,,,,,,,,,,,00052,001,2026-01-18_16h38.10.006,MST_task,2024.2.0,59.8673339882714,2026-01-18 16h38.18.664161 +0530,
,Scenes\025a.jpg,87,0,88,,,,,,,j,1.2003898000111803,0.13601389998802915,None,,,,,,88,0,87,423.4286241999944,,,,,,,,,,,,,,,,,,,,,,,,,,,,,,423.4123689000262,423.4286241999944,423.92934590001823,423.9124460000312,,,,,,,,,,,,,,,,,,,,,,,,,,423.92315089999465,423.92934590001823,423.92934590001823,423.92934590001823,426.92849590000696,426.92849590000696,426.92849590000696,426.9125864999951,j,1.2003898000111803,0.13601389998802915,426.9126271000132,426.91263810003875,None,,,,,,,,,,,,,,00052,001,2026-01-18_16h38.10.006,MST_task,2024.2.0,59.8673339882714,2026-01-18 16h38.18.664161 +0530,
,Scenes\146a.jpg,88,0,89,,,,,,,j,1.769912799994927,0.17599810002138838,None,,,,,,89,0,88,426.92849590000696,,,,,,,,,,,,,,,,,,,,,,,,,,,,,,426.9127055000281,426.92849590000696,427.43207620002795,427.412377700035,,,,,,,,,,,,,,,,,,,,,,,,,,427.4296472000424,427.43207620002795,427.43207620002795,427.43207620002795,,,,430.42890320002334,j,1.769912799994927,0.17599810002138838,430.4289439000422,430.4289553000126,None,,,,,,,,,,,,,,00052,001,2026-01-18_16h38.10.006,MST_task,2024.2.0,59.8673339882714,2026-01-18 16h38.18.664161 +0530,
,Scenes\141a.jpg,89,0,90,,,,,,,j,2.6800817000330426,0.16826579999178648,None,,,,,,90,0,89,430.44532380002784,,,,,,,,,,,,,,,,,,,,,,,,,,,,,,430.4290547000128,430.44532380002784,430.9458540000487,430.9288606000482,,,,,,,,,,,,,,,,,,,,,,,,,,430.93391780002275,430.9458540000487,430.9458540000487,430.9458540000487,433.94535819999874,433.94535819999874,433.94535819999874,433.9291615000111,j,2.6800817000330426,0.16826579999178648,433.9292021000292,433.9292126999935,None,,,,,,,,,,,,,,00052,001,2026-01-18_16h38.10.006,MST_task,2024.2.0,59.8673339882714,2026-01-18 16h38.18.664161 +0530,
,Scenes\173a.jpg,90,0,91,,,,,,,j,0.8845535999862477,0.12000090000219643,None,,,,,,91,0,90,433.94535819999874,,,,,,,,,,,,,,,,,,,,,,,,,,,,,,433.9293082000222,433.94535819999874,434.4457089000498,434.42884780000895,,,,,,,,,,,,,,,,,,,,,,,,,,434.4343829000136,434.4457089000498,434.4457089000498,434.4457089000498,437.4453485000413,437.4453485000413,437.4453485000413,437.4292849000194,j,0.8845535999862477,0.12000090000219643,437.4293255000375,437.42933600000106,None,,,,,,,,,,,,,,00052,001,2026-01-18_16h38.10.006,MST_task,2024.2.0,59.8673339882714,2026-01-18 16h38.18.664161 +0530,
,Objects\102a.jpg,91,0,92,,,,,,,None,,,f,0.17805119999684393,None,,,,92,0,91,437.4453485000413,,,,,,,,,,,,,,,,,,,,,,,,,,,,,,437.42940180003643,437.4453485000413,437.9458056000294,437.9288904000423,,,,,,,,,,,,,,,,,,,,,,,,,,437.9415447000065,437.9458056000294,437.9458056000294,437.9458056000294,440.9453686000197,440.9453686000197,440.9453686000197,440.9295685000252,None,,,440.93179420003435,441.1290258000372,f,440.9453686000197,440.9453686000197,0.17805119999684393,None,,,,,,,,,,00052,001,2026-01-18_16h38.10.006,MST_task,2024.2.0,59.8673339882714,2026-01-18 16h38.18.664161 +0530,
,Objects\174a.jpg,92,0,93,,,,,,,f,1.1010314000304788,0.20764859998598695,None,,,,,,93,0,92,441.1453608000302,,,,,,,,,,,,,,,,,,,,,,,,,,,,,,441.12911390000954,441.1453608000302,441.64557330001844,441.628994800034,,,,,,,,,,,,,,,,,,,,,,,,,,441.6316459000227,441.64557330001844,441.64557330001844,441.64557330001844,444.6453814000124,444.6453814000124,444.6453814000124,444.6291124999989,f,1.1010314000304788,0.20764859998598695,444.62915320001775,444.6291642000433,None,,,,,,,,,,,,,,00052,001,2026-01-18_16h38.10.006,MST_task,2024.2.0,59.8673339882714,2026-01-18 16h38.18.664161 +0530,
,Objects\170a.jpg,93,0,94,,,,,,,j,2.0730258999974467,0.21582979999948293,None,,,,,,94,0,93,444.6453814000124,,,,,,,,,,,,,,,,,,,,,,,,,,,,,,444.62926650000736,444.6453814000124,445.1455142000341,445.12893740000436,,,,,,,,,,,,,,,,,,,,,,,,,,445.13164420000976,445.1455142000341,445.1455142000341,445.1455142000341,448.1454405999975,448.1454405999975,448.1454405999975,448.12934650003444,j,2.0730258999974467,0.21582979999948293,448.12939310004003,448.12940440000966,None,,,,,,,,,,,,,,00052,001,2026-01-18_16h38.10.006,MST_task,2024.2.0,59.8673339882714,2026-01-18 16h38.18.664161 +0530,
,Objects\192a.jpg,94,0,95,,,,,,,f,1.692173500021454,0.24876280000898987,None,,,,,,95,0,94,448.1454405999975,,,,,,,,,,,,,,,,,,,,,,,,,,,,,,448.1294763000333,448.1454405999975,448.64558490004856,448.62894860003144,,,,,,,,,,,,,,,,,,,,,,,,,,448.6316459000227,448.64558490004856,448.64558490004856,448.64558490004856,451.6453879000037,451.6453879000037,451.6453879000037,451.6291691000224,f,1.692173500021454,0.24876280000898987,451.6292105000466,451.6292216000147,None,,,,,,,,,,,,,,00052,001,2026-01-18_16h38.10.006,MST_task,2024.2.0,59.8673339882714,2026-01-18 16h38.18.664161 +0530,
,Objects\033a.jpg,95,0,96,,,,,,,f,2.1285309999948367,0.17601220001233742,None,,,,,,96,0,95,451.6453879000037,,,,,,,,,,,,,,,,,,,,,,,,,,,,,,451.6292992000235,451.6453879000037,452.1455837000394,452.12907270004507,,,,,,,,,,,,,,,,,,,,,,,,,,452.13195440004347,452.1455837000394,452.1455837000394,452.1455837000394,455.14537690003635,455.14537690003635,455.14537690003635,455.12923680001404,f,2.1285309999948367,0.17601220001233742,455.12927970004966,455.1292912000208,None,,,,,,,,,,,,,,00052,001,2026-01-18_16h38.10.006,MST_task,2024.2.0,59.8673339882714,2026-01-18 16h38.18.664161 +0530,
,Objects\107a.jpg,96,0,97,,,,,,,j,1.2530636999872513,0.18398119998164475,None,,,,,,97,0,96,455.14537690003635,,,,,,,,,,,,,,,,,,,,,,,,,,,,,,455.1293585000094,455.14537690003635,455.6455977000296,455.6288751999964,,,,,,,,,,,,,,,,,,,,,,,,,,455.63788650004426,455.6455977000296,455.6455977000296,455.6455977000296,458.64539580000564,458.64539580000564,458.64539580000564,458.62915500003146,j,1.2530636999872513,0.18398119998164475,458.62919540004805,458.62920650001615,None,,,,,,,,,,,,,,00052,001,2026-01-18_16h38.10.006,MST_task,2024.2.0,59.8673339882714,2026-01-18 16h38.18.664161 +0530,
,Objects\106a.jpg,97,0,98,,,,,,,f,0.8404753999784589,0.24071740004001185,None,,,,,,98,0,97,458.64539580000564,,,,,,,,,,,,,,,,,,,,,,,,,,,,,,458.6293142000213,458.64539580000564,459.1455817000242,459.1289280000492,,,,,,,,,,,,,,,,,,,,,,,,,,459.13148540002294,459.1455817000242,459.1455817000242,459.1455817000242,462.14530390000436,462.14530390000436,462.14530390000436,462.1292380000232,f,0.8404753999784589,0.24071740004001185,462.12927710002987,462.1292875999934,None,,,,,,,,,,,,,,00052,001,2026-01-18_16h38.10.006,MST_task,2024.2.0,59.8673339882714,2026-01-18 16h38.18.664161 +0530,
,Scenes\127a.jpg,98,0,99,,,,,,,j,0.8208320999983698,0.15201119997072965,None,,,,,,99,0,98,462.14530390000436,,,,,,,,,,,,,,,,,,,,,,,,,,,,,,462.12938220001524,462.14530390000436,462.6458756000502,462.62890410004184,,,,,,,,,,,,,,,,,,,,,,,,,,462.6391282000113,462.6458756000502,462.6458756000502,462.6458756000502,465.645311500004,465.645311500004,465.645311500004,465.6293130000122,j,0.8208320999983698,0.15201119997072965,465.63094260002254,465.63095890003024,None,,,,,,,,,,,,,,00052,001,2026-01-18_16h38.10.006,MST_task,2024.2.0,59.8673339882714,2026-01-18 16h38.18.664161 +0530,
,Scenes\089a.jpg,99,0,100,,,,,,,j,1.1924719999660738,0.16085750004276633,None,,,,,,100,0,99,465.645311500004,,,,,,,,,,,,,,,,,,,,,,,,,,,,,,465.63110610004514,465.645311500004,466.1459949000273,466.1289472000208,,,,,,,,,,,,,,,,,,,,,,,,,,466.1408591000363,466.1459949000273,466.1459949000273,466.1459949000273,469.14537770004245,469.14537770004245,469.14537770004245,469.12919800000964,j,1.1924719999660738,0.16085750004276633,469.129238500027,469.12924870004645,None,,,,,,,,,,,,,,00052,001,2026-01-18_16h38.10.006,MST_task,2024.2.0,59.8673339882714,2026-01-18 16h38.18.664161 +0530,
,Scenes\172a.jpg,100,0,101,,,,,,,j,1.2843391000060365,0.17612679995363578,None,,,,,,101,0,100,469.14537770004245,,,,,,,,,,,,,,,,,,,,,,,,,,,,,,469.12931540003046,469.14537770004245,469.6458789000171,469.6289295000024,,,,,,,,,,,,,,,,,,,,,,,,,,469.63550420000684,469.6458789000171,469.6458789000171,469.6458789000171,472.6453522000229,472.6453522000229,472.6453522000229,472.62915680004517,j,1.2843391000060365,0.17612679995363578,472.6292056000093,472.6292175000417,None,,,,,,,,,,,,,,00052,001,2026-01-18_16h38.10.006,MST_task,2024.2.0,59.8673339882714,2026-01-18 16h38.18.664161 +0530,
,Scenes\084a.jpg,101,0,102,,,,,,,j,2.800210400018841,None,None,,,,,,102,0,101,472.6453522000229,,,,,,,,,,,,,,,,,,,,,,,,,,,,,,472.62928620004095,472.6453522000229,473.1460313000134,473.1289613000117,,,,,,,,,,,,,,,,,,,,,,,,,,473.13855970004806,473.1460313000134,473.1460313000134,473.1460313000134,476.14549590001116,476.14549590001116,476.14549590001116,476.12934730004054,j,2.800210400018841,None,476.1293871999951,476.1293979000184,None,,,,,,,,,,,,,,00052,001,2026-01-18_16h38.10.006,MST_task,2024.2.0,59.8673339882714,2026-01-18 16h38.18.664161 +0530,
,Scenes\046a.jpg,102,0,103,,,,,,,j,2.8361118999891914,None,None,,,,,,103,0,102,476.14549590001116,,,,,,,,,,,,,,,,,,,,,,,,,,,,,,476.12949469999876,476.14549590001116,476.6461815999937,476.62916950002545,,,,,,,,,,,,,,,,,,,,,,,,,,476.6414320000331,476.6461815999937,476.6461815999937,476.6461815999937,479.6454771000426,479.6454771000426,479.6454771000426,479.6292861000402,j,2.8361118999891914,None,479.6293254000484,479.6293360000127,None,,,,,,,,,,,,,,00052,001,2026-01-18_16h38.10.006,MST_task,2024.2.0,59.8673339882714,2026-01-18 16h38.18.664161 +0530,
,Scenes\034a.jpg,103,0,104,,,,,,,j,2.6238879000302404,0.15996979997726157,None,,,,,,104,0,103,479.6454771000426,,,,,,,,,,,,,,,,,,,,,,,,,,,,,,479.6294335999992,479.6454771000426,480.14622530003544,480.12905640003737,,,,,,,,,,,,,,,,,,,,,,,,,,480.14305410004454,480.14622530003544,480.14622530003544,480.14622530003544,483.1455110000097,483.1455110000097,483.1455110000097,483.129392700037,j,2.6238879000302404,0.15996979997726157,483.1294320000452,483.129442800011,None,,,,,,,,,,,,,,00052,001,2026-01-18_16h38.10.006,MST_task,2024.2.0,59.8673339882714,2026-01-18 16h38.18.664161 +0530,
,Scenes\159a.jpg,104,0,105,,,,,,,j,2.140071799978614,0.14386599999852479,None,,,,,,105,0,104,483.1455110000097,,,,,,,,,,,,,,,,,,,,,,,,,,,,,,483.1295403999975,483.1455110000097,483.6461749000009,483.6291595000075,,,,,,,,,,,,,,,,,,,,,,,,,,483.64010509999935,483.6461749000009,483.6461749000009,483.6461749000009,486.6454430000158,486.6454430000158,486.6454430000158,486.62943260004977,j,2.140071799978614,0.14386599999852479,486.62947380001424,486.62948490004055,None,,,,,,,,,,,,,,00052,001,2026-01-18_16h38.10.006,MST_task,2024.2.0,59.8673339882714,2026-01-18 16h38.18.664161 +0530,
,Objects\059a.jpg,105,0,106,,,,,,,None,,,f,0.6243286000099033,None,,,,106,0,105,486.6454430000158,,,,,,,,,,,,,,,,,,,,,,,,,,,,,,486.6295933999936,486.6454430000158,487.146159099997,487.1290649000439,,,,,,,,,,,,,,,,,,,,,,,,,,487.1346681000432,487.146159099997,487.146159099997,487.146159099997,490.14551590004703,490.14551590004703,490.14551590004703,490.12929500004975,None,,,490.13131820003036,490.77921810001135,f,490.14551590004703,490.14551590004703,0.6243286000099033,None,,,,,,,,,,00052,001,2026-01-18_16h38.10.006,MST_task,2024.2.0,59.8673339882714,2026-01-18 16h38.18.664161 +0530,
,Objects\158a.jpg,106,0,107,,,,,,,f,2.8903092000400648,None,None,,,,,,107,0,106,490.79539879999356,,,,,,,,,,,,,,,,,,,,,,,,,,,,,,490.7793390000006,490.79539879999356,491.29569920001086,491.2791173000005,,,,,,,,,,,,,,,,,,,,,,,,,,491.2903160999995,491.29569920001086,491.29569920001086,491.29569920001086,494.2954334000242,494.2954334000242,494.2954334000242,494.279382000037,f,2.8903092000400648,None,494.27942200005054,494.2794335000217,None,,,,,,,,,,,,,,00052,001,2026-01-18_16h38.10.006,MST_task,2024.2.0,59.8673339882714,2026-01-18 16h38.18.664161 +0530,
,Objects\101a.jpg,107,0,108,,,,,,,j,2.5419880999834277,0.15199009998468682,None,,,,,,108,0,107,494.2954334000242,,,,,,,,,,,,,,,,,,,,,,,,,,,,,,494.2795313000097,494.2954334000242,494.79574090003734,494.7791575000156,,,,,,,,,,,,,,,,,,,,,,,,,,494.78166249999776,494.79574090003734,494.79574090003734,494.79574090003734,497.79548060003435,497.79548060003435,497.79548060003435,497.7792558000074,j,2.5419880999834277,0.15199009998468682,497.77929570002016,497.7793064000434,None,,,,,,,,,,,,,,00052,001,2026-01-18_16h38.10.006,MST_task,2024.2.0,59.8673339882714,2026-01-18 16h38.18.664161 +0530,
,Objects\075a.jpg,108,0,109,,,,,,,f,2.8825003000092693,None,None,,,,,,109,0,108,497.79548060003435,,,,,,,,,,,,,,,,,,,,,,,,,,,,,,497.77937200001907,497.79548060003435,498.295696300047,498.278938100033,,,,,,,,,,,,,,,,,,,,,,,,,,498.28150139999343,498.295696300047,498.295696300047,498.295696300047,501.2954962000367,501.2954962000367,501.2954962000367,501.2792263000156,f,2.8825003000092693,None,501.2792674000375,501.2792785000056,None,,,,,,,,,,,,,,00052,001,2026-01-18_16h38.10.006,MST_task,2024.2.0,59.8673339882714,2026-01-18 16h38.18.664161 +0530,
,Objects\178a.jpg,109,0,110,,,,,,,j,2.7347172999870963,0.11200210003880784,None,,,,,,110,0,109,501.2954962000367,,,,,,,,,,,,,,,,,,,,,,,,,,,,,,501.27937770000426,501.2954962000367,501.7957352999947,501.7790839000372,,,,,,,,,,,,,,,,,,,,,,,,,,501.78215360001195,501.7957352999947,501.7957352999947,501.7957352999947,504.7954207000439,504.7954207000439,504.7954207000439,504.7792721000151,j,2.7347172999870963,0.11200210003880784,504.77931200002786,504.7793229999952,None,,,,,,,,,,,,,,00052,001,2026-01-18_16h38.10.006,MST_task,2024.2.0,59.8673339882714,2026-01-18 16h38.18.664161 +0530,
,Objects\155a.jpg,110,0,111,,,,,,,f,2.2580971000134014,0.17728410003473982,None,,,,,,111,0,110,504.7954207000439,,,,,,,,,,,,,,,,,,,,,,,,,,,,,,504.7793980000424,504.7954207000439,505.2957136000041,505.27906960004475,,,,,,,,,,,,,,,,,,,,,,,,,,505.2815330000012,505.2957136000041,505.2957136000041,505.2957136000041,508.29617350001354,508.29617350001354,508.29617350001354,508.27982660004636,f,2.2580971000134014,0.17728410003473982,508.2798795000417,508.27989260002505,None,,,,,,,,,,,,,,00052,001,2026-01-18_16h38.10.006,MST_task,2024.2.0,59.8673339882714,2026-01-18 16h38.18.664161 +0530,
,Objects\121a.jpg,111,0,112,,,,,,,f,2.382849699992221,0.20800869999220595,None,,,,,,112,0,111,508.29617350001354,,,,,,,,,,,,,,,,,,,,,,,,,,,,,,508.28000950004207,508.29617350001354,508.7957011000253,508.77893870003754,,,,,,,,,,,,,,,,,,,,,,,,,,508.7816782000009,508.7957011000253,508.7957011000253,508.7957011000253,511.79550310003106,511.79550310003106,511.79550310003106,511.77922870003385,f,2.382849699992221,0.20800869999220595,511.7792682000436,511.7792793000117,None,,,,,,,,,,,,,,00052,001,2026-01-18_16h38.10.006,MST_task,2024.2.0,59.8673339882714,2026-01-18 16h38.18.664161 +0530,
,Scenes\128a.jpg,112,0,113,,,,,,,j,2.2513158999499865,0.13498560001607984,None,,,,,,113,0,112,511.79550310003106,,,,,,,,,,,,,,,,,,,,,,,,,,,,,,511.7793453000486,511.79550310003106,512.2961108000018,512.2790730000124,,,,,,,,,,,,,,,,,,,,,,,,,,512.2913493000087,512.2961108000018,512.2961108000018,512.2961108000018,515.2955079000094,515.2955079000094,515.2955079000094,515.2789484999957,j,2.2513158999499865,0.13498560001607984,515.2805567000178,515.2805748000392,None,,,,,,,,,,,,,,00052,001,2026-01-18_16h38.10.006,MST_task,2024.2.0,59.8673339882714,2026-01-18 16h38.18.664161 +0530,
,Scenes\047a.jpg,113,0,114,,,,,,,j,2.934382400009781,None,None,,,,,,114,0,113,515.2955079000094,,,,,,,,,,,,,,,,,,,,,,,,,,,,,,515.2806969000376,515.2955079000094,515.7960428000079,515.7790771000437,,,,,,,,,,,,,,,,,,,,,,,,,,515.7890445000376,515.7960428000079,515.7960428000079,515.7960428000079,518.7954447999946,518.7954447999946,518.7954447999946,518.779411400028,j,2.934382400009781,None,518.7794515000423,518.7794626000104,None,,,,,,,,,,,,,,00052,001,2026-01-18_16h38.10.006,MST_task,2024.2.0,59.8673339882714,2026-01-18 16h38.18.664161 +0530,
,Scenes\123a.jpg,114,0,115,,,,,,,j,2.3780744000105187,0.15217020001728088,None,,,,,,115,0,114,518.7954447999946,,,,,,,,,,,,,,,,,,,,,,,,,,,,,,518.779561000003,518.7954447999946,519.2959999000304,519.2791206000256,,,,,,,,,,,,,,,,,,,,,,,,,,519.2851271000109,519.2959999000304,519.2959999000304,519.2959999000304,522.2955042000394,522.2955042000394,522.2955042000394,522.2792421000195,j,2.3780744000105187,0.15217020001728088,522.2792866000091,522.2792976000346,None,,,,,,,,,,,,,,00052,001,2026-01-18_16h38.10.006,MST_task,2024.2.0,59.8673339882714,2026-01-18 16h38.18.664161 +0530,
,Scenes\010a.jpg,115,0,116,,,,,,,j,1.5817324999952689,0.05599759996403009,None,,,,,,116,0,115,522.2955042000394,,,,,,,,,,,,,,,,,,,,,,,,,,,,,,522.2793957000249,522.2955042000394,522.7960059000179,522.7789485999965,,,,,,,,,,,,,,,,,,,,,,,,,,522.7897515000077,522.7960059000179,522.7960059000179,522.7960059000179,525.7955194000388,525.7955194000388,525.7955194000388,525.7792276000255,j,1.5817324999952689,0.05599759996403009,525.7792692999938,525.7792804000201,None,,,,,,,,,,,,,,00052,001,2026-01-18_16h38.10.006,MST_task,2024.2.0,59.8673339882714,2026-01-18 16h38.18.664161 +0530,
,Scenes\136a.jpg,116,0,117,,,,,,,f,1.8020691000274383,0.16800129995681345,None,,,,,,117,0,116,525.7955194000388,,,,,,,,,,,,,,,,,,,,,,,,,,,,,,525.7793768999982,525.7955194000388,526.2961361000198,526.2789688000339,,,,,,,,,,,,,,,,,,,,,,,,,,526.2850767000346,526.2961361000198,526.2961361000198,526.2961361000198,529.2954199000378,529.2954199000378,529.2954199000378,529.2794349000324,f,1.8020691000274383,0.16800129995681345,529.2794743000413,529.2794847000041,None,,,,,,,,,,,,,,00052,001,2026-01-18_16h38.10.006,MST_task,2024.2.0,59.8673339882714,2026-01-18 16h38.18.664161 +0530,
,Scenes\110a.jpg,117,0,118,,,,,,,j,1.5657123000128195,0.0960009999689646,None,,,,,,118,0,117,529.2954199000378,,,,,,,,,,,,,,,,,,,,,,,,,,,,,,529.2795829999959,529.2954199000378,529.7960288000177,529.7790562000009,,,,,,,,,,,,,,,,,,,,,,,,,,529.7868125000386,529.7960288000177,529.7960288000177,529.7960288000177,532.7953529999941,532.7953529999941,532.7953529999941,532.7792590000317,j,1.5657123000128195,0.0960009999689646,532.7793017000076,532.7793126000324,None,,,,,,,,,,,,,,00052,001,2026-01-18_16h38.10.006,MST_task,2024.2.0,59.8673339882714,2026-01-18 16h38.18.664161 +0530,
,Scenes\017a.jpg,118,0,119,,,,,,,f,2.1696306000230834,0.1920721000060439,None,,,,,,119,0,118,532.7953529999941,,,,,,,,,,,,,,,,,,,,,,,,,,,,,,532.7794180000201,532.7953529999941,533.2961698000436,533.2791513000266,,,,,,,,,,,,,,,,,,,,,,,,,,533.2890519000357,533.2961698000436,533.2961698000436,533.2961698000436,536.295385800011,536.295385800011,536.295385800011,536.2790294000297,f,2.1696306000230834,0.1920721000060439,536.2790681000333,536.2790787999984,None,,,,,,,,,,,,,,00052,001,2026-01-18_16h38.10.006,MST_task,2024.2.0,59.8673339882714,2026-01-18 16h38.18.664161 +0530,
,Objects\173a.jpg,119,0,120,,,,,,,f,1.9107850000145845,0.17599279998103157,None,,,,,,120,0,119,536.295385800011,,,,,,,,,,,,,,,,,,,,,,,,,,,,,,536.2791790000047,536.295385800011,536.7959098000429,536.7788032999961,,,,,,,,,,,,,,,,,,,,,,,,,,536.784400900011,536.7959098000429,536.7959098000429,536.7959098000429,539.7953785000136,539.7953785000136,539.7953785000136,539.7792309000506,f,1.9107850000145845,0.17599279998103157,539.7812959000003,539.7813139000209,None,,,,,,,,,,,,,,00052,001,2026-01-18_16h38.10.006,MST_task,2024.2.0,59.8673339882714,2026-01-18 16h38.18.664161 +0530,
,Objects\065a.jpg,120,0,121,,,,,,,None,,,j,1.2271945999818854,None,,,,121,0,120,539.7953785000136,,,,,,,,,,,,,,,,,,,,,,,,,,,,,,539.7814225000329,539.7953785000136,540.2955573000363,540.2788244000403,,,,,,,,,,,,,,,,,,,,,,,,,,540.2813656000071,540.2955573000363,540.2955573000363,540.2955573000363,543.2956198000466,543.2956198000466,543.2956198000466,543.2793331000139,None,,,543.2793769999989,544.5290651000105,j,543.2956198000466,543.2956198000466,1.2271945999818854,None,,,,,,,,,,00052,001,2026-01-18_16h38.10.006,MST_task,2024.2.0,59.8673339882714,2026-01-18 16h38.18.664161 +0530,
,Objects\139a.jpg,121,0,122,,,,,,,f,2.813301499991212,0.1513433000072837,None,,,,,,122,0,121,544.5453841999988,,,,,,,,,,,,,,,,,,,,,,,,,,,,,,544.5291956000146,544.5453841999988,545.0455420000362,545.028736600012,,,,,,,,,,,,,,,,,,,,,,,,,,545.0315645000082,545.0455420000362,545.0455420000362,545.0455420000362,548.0453339000233,548.0453339000233,548.0453339000233,548.0291826000321,f,2.813301499991212,0.1513433000072837,548.0292230000487,548.0292338000145,None,,,,,,,,,,,,,,00052,001,2026-01-18_16h38.10.006,MST_task,2024.2.0,59.8673339882714,2026-01-18 16h38.18.664161 +0530,
,Objects\185a.jpg,122,0,123,,,,,,,f,2.7601848000194877,None,None,,,,,,123,0,122,548.0453339000233,,,,,,,,,,,,,,,,,,,,,,,,,,,,,,548.0293001999962,548.0453339000233,548.5456181000336,548.5288264999981,,,,,,,,,,,,,,,,,,,,,,,,,,548.5318576000282,548.5456181000336,548.5456181000336,548.5456181000336,551.5453896000399,551.5453896000399,551.5453896000399,551.5291222000378,f,2.7601848000194877,None,551.5291640000069,551.5291743000271,None,,,,,,,,,,,,,,00052,001,2026-01-18_16h38.10.006,MST_task,2024.2.0,59.8673339882714,2026-01-18 16h38.18.664161 +0530,
,Objects\016a.jpg,123,0,124,,,,,,,f,1.6686187000013888,0.17603929998585954,None,,,,,,124,0,123,551.5453896000399,,,,,,,,,,,,,,,,,,,,,,,,,,,,,,551.5292723000166,551.5453896000399,552.045620799996,552.028844400018,,,,,,,,,,,,,,,,,,,,,,,,,,552.0315941000008,552.045620799996,552.045620799996,552.045620799996,555.0453982000472,555.0453982000472,555.0453982000472,555.0290957000107,f,1.6686187000013888,0.17603929998585954,555.0291372000356,555.0291477999999,None,,,,,,,,,,,,,,00052,001,2026-01-18_16h38.10.006,MST_task,2024.2.0,59.8673339882714,2026-01-18 16h38.18.664161 +0530,
,Objects\019a.jpg,124,0,125,,,,,,,j,1.7926708000013605,0.17600739997578785,None,,,,,,125,0,124,555.0453982000472,,,,,,,,,,,,,,,,,,,,,,,,,,,,,,555.0292643000139,555.0453982000472,555.5456654000445,555.528824100038,,,,,,,,,,,,,,,,,,,,,,,,,,555.5317451000446,555.5456654000445,555.5456654000445,555.5456654000445,558.545369200001,558.545369200001,558.545369200001,558.5291921000462,j,1.7926708000013605,0.17600739997578785,558.5292452000431,558.5292570000165,None,,,,,,,,,,,,,,00052,001,2026-01-18_16h38.10.006,MST_task,2024.2.0,59.8673339882714,2026-01-18 16h38.18.664161 +0530,
,Objects\018a.jpg,125,0,126,,,,,,,f,2.7731919000507332,0.18353889998979867,None,,,,,,126,0,125,558.545369200001,,,,,,,,,,,,,,,,,,,,,,,,,,,,,,558.5293245000066,558.545369200001,559.045581900049,559.0289321000455,,,,,,,,,,,,,,,,,,,,,,,,,,559.031968299998,559.045581900049,559.045581900049,559.045581900049,562.0453649000265,562.0453649000265,562.0453649000265,562.029194200004,f,2.7731919000507332,0.18353889998979867,562.0292457000469,562.0292562000104,None,,,,,,,,,,,,,,00052,001,2026-01-18_16h38.10.006,MST_task,2024.2.0,59.8673339882714,2026-01-18 16h38.18.664161 +0530,
,Scenes\106a.jpg,126,0,127,,,,,,,j,1.6684259999892674,0.15891559998271987,None,,,,,,127,0,126,562.0453649000265,,,,,,,,,,,,,,,,,,,,,,,,,,,,,,562.0293235999998,562.0453649000265,562.5508975000121,562.5288713000482,,,,,,,,,,,,,,,,,,,,,,,,,,562.5483171000378,562.5508975000121,562.5508975000121,562.5508975000121,,,,565.545634100039,j,1.6684259999892674,0.15891559998271987,565.5472960000043,565.5473142000264,None,,,,,,,,,,,,,,00052,001,2026-01-18_16h38.10.006,MST_task,2024.2.0,59.8673339882714,2026-01-18 16h38.18.664161 +0530,
,Scenes\184a.jpg,127,0,128,,,,,,,j,1.948859199997969,0.1751028000144288,None,,,,,,128,0,127,565.5620412999997,,,,,,,,,,,,,,,,,,,,,,,,,,,,,,565.5474194000126,565.5620412999997,566.0625378999976,566.0455687000067,,,,,,,,,,,,,,,,,,,,,,,,,,566.0526501000277,566.0625378999976,566.0625378999976,566.0625378999976,569.0620612000348,569.0620612000348,569.0620612000348,569.0459874999942,j,1.948859199997969,0.1751028000144288,569.0460285000154,569.0460392000386,None,,,,,,,,,,,,,,00052,001,2026-01-18_16h38.10.006,MST_task,2024.2.0,59.8673339882714,2026-01-18 16h38.18.664161 +0530,
,Scenes\032a.jpg,128,0,129,,,,,,,j,1.9916768000111915,0.09592900000279769,None,,,,,,129,0,128,569.0620612000348,,,,,,,,,,,,,,,,,,,,,,,,,,,,,,569.0461056000204,569.0620612000348,569.5627139999997,569.5455606000032,,,,,,,,,,,,,,,,,,,,,,,,,,569.557555700012,569.5627139999997,569.5627139999997,569.5627139999997,572.5620698000421,572.5620698000421,572.5620698000421,572.5458823000081,j,1.9916768000111915,0.09592900000279769,572.5459243000369,572.545935800008,None,,,,,,,,,,,,,,00052,001,2026-01-18_16h38.10.006,MST_task,2024.2.0,59.8673339882714,2026-01-18 16h38.18.664161 +0530,
,Scenes\013a.jpg,129,0,130,,,,,,,j,2.4675460000289604,0.1290758999530226,None,,,,,,130,0,129,572.5620698000421,,,,,,,,,,,,,,,,,,,,,,,,,,,,,,572.5460058000172,572.5620698000421,573.0627663000487,573.0456348000444,,,,,,,,,,,,,,,,,,,,,,,,,,573.0552825000486,573.0627663000487,573.0627663000487,573.0627663000487,576.0620206000167,576.0620206000167,576.0620206000167,576.046377199993,j,2.4675460000289604,0.1290758999530226,576.0464201000286,576.046431099996,None,,,,,,,,,,,,,,00052,001,2026-01-18_16h38.10.006,MST_task,2024.2.0,59.8673339882714,2026-01-18 16h38.18.664161 +0530,
,Scenes\076a.jpg,130,0,131,,,,,,,j,1.6664493000134826,0.08019189996412024,None,,,,,,131,0,130,576.0620206000167,,,,,,,,,,,,,,,,,,,,,,,,,,,,,,576.0465376999928,576.0620206000167,576.5678088000277,576.5456432999927,,,,,,,,,,,,,,,,,,,,,,,,,,576.5655092000379,576.5678088000277,576.5678088000277,576.5678088000277,,,,579.5622845000471,j,1.6664493000134826,0.08019189996412024,579.5623248000047,579.5623372000409,None,,,,,,,,,,,,,,00052,001,2026-01-18_16h38.10.006,MST_task,2024.2.0,59.8673339882714,2026-01-18 16h38.18.664161 +0530,
,Scenes\083a.jpg,131,0,132,,,,,,,j,2.7393615000182763,0.19115770002827048,None,,,,,,132,0,131,579.5786552000209,,,,,,,,,,,,,,,,,,,,,,,,,,,,,,579.562439900008,579.5786552000209,580.0792369000264,580.0623021000065,,,,,,,,,,,,,,,,,,,,,,,,,,580.0702162000234,580.0792369000264,580.0792369000264,580.0792369000264,583.078589300043,583.078589300043,583.078589300043,583.0627350000432,j,2.7393615000182763,0.19115770002827048,583.0627777000191,583.06278810004,None,,,,,,,,,,,,,,00052,001,2026-01-18_16h38.10.006,MST_task,2024.2.0,59.8673339882714,2026-01-18 16h38.18.664161 +0530,
,Scenes\138a.jpg,132,0,133,,,,,,,j,1.735349899972789,0.12023090000730008,None,,,,,,133,0,132,583.078589300043,,,,,,,,,,,,,,,,,,,,,,,,,,,,,,583.0628912000102,583.078589300043,583.5793593000271,583.5622604000382,,,,,,,,,,,,,,,,,,,,,,,,,,583.569108900032,583.5793593000271,583.5793593000271,583.5793593000271,586.5786779000191,586.5786779000191,586.5786779000191,586.56260200002,j,1.735349899972789,0.12023090000730008,586.5626448999974,586.5626561000245,None,,,,,,,,,,,,,,00052,001,2026-01-18_16h38.10.006,MST_task,2024.2.0,59.8673339882714,2026-01-18 16h38.18.664161 +0530,
,Objects\172a.jpg,133,0,134,,,,,,,j,2.3796357000246644,0.13611070002662018,None,,,,,,134,0,133,586.5786779000191,,,,,,,,,,,,,,,,,,,,,,,,,,,,,,586.5627629000228,586.5786779000191,587.0790424000006,587.0623101000092,,,,,,,,,,,,,,,,,,,,,,,,,,587.0739746000036,587.0790424000006,587.0790424000006,587.0790424000006,590.0786919000093,590.0786919000093,590.0786919000093,590.0625508000376,j,2.3796357000246644,0.13611070002662018,590.0647272000206,590.0647448000382,None,,,,,,,,,,,,,,00052,001,2026-01-18_16h38.10.006,MST_task,2024.2.0,59.8673339882714,2026-01-18 16h38.18.664161 +0530,
,Objects\115a.jpg,134,0,135,,,,,,,f,2.831066099985037,None,None,,,,,,135,0,134,590.0786919000093,,,,,,,,,,,,,,,,,,,,,,,,,,,,,,590.0648498000228,590.0786919000093,590.5789129000041,590.5622854999965,,,,,,,,,,,,,,,,,,,,,,,,,,590.564824400004,590.5789129000041,590.5789129000041,590.5789129000041,593.578674999997,593.578674999997,593.578674999997,593.5625566000235,f,2.831066099985037,None,593.5625961000333,593.5626065999968,None,,,,,,,,,,,,,,00052,001,2026-01-18_16h38.10.006,MST_task,2024.2.0,59.8673339882714,2026-01-18 16h38.18.664161 +0530,
,Objects\093a.jpg,135,0,136,,,,,,,f,2.7233544000191614,0.17572200001450256,None,,,,,,136,0,135,593.578674999997,,,,,,,,,,,,,,,,,,,,,,,,,,,,,,593.5627022000263,593.578674999997,594.079085000034,594.0623486000113,,,,,,,,,,,,,,,,,,,,,,,,,,594.072868600022,594.079085000034,594.079085000034,594.079085000034,597.0788496000459,597.0788496000459,597.0788496000459,597.0626801000326,f,2.7233544000191614,0.17572200001450256,597.0627195000416,597.0627301000059,None,,,,,,,,,,,,,,00052,001,2026-01-18_16h38.10.006,MST_task,2024.2.0,59.8673339882714,2026-01-18 16h38.18.664161 +0530,
,Objects\091a.jpg,136,0,137,,,,,,,j,1.5512759000412188,0.13611459999810904,None,,,,,,137,0,136,597.0788496000459,,,,,,,,,,,,,,,,,,,,,,,,,,,,,,597.0627966000466,597.0788496000459,597.5788585999981,597.5624755000463,,,,,,,,,,,,,,,,,,,,,,,,,,597.571745400026,597.5788585999981,597.5788585999981,597.5788585999981,600.5787806000444,600.5787806000444,600.5787806000444,600.5627146000043,j,1.5512759000412188,0.13611459999810904,600.5627576000406,600.5627680000034,None,,,,,,,,,,,,,,00052,001,2026-01-18_16h38.10.006,MST_task,2024.2.0,59.8673339882714,2026-01-18 16h38.18.664161 +0530,
,Objects\081a.jpg,137,0,138,,,,,,,None,,,f,0.14770619996124879,None,,,,138,0,137,600.5787806000444,,,,,,,,,,,,,,,,,,,,,,,,,,,,,,600.5628868000349,600.5787806000444,601.079020300007,601.0624642000184,,,,,,,,,,,,,,,,,,,,,,,,,,601.0719664000208,601.079020300007,601.079020300007,601.079020300007,604.078774900001,604.078774900001,604.078774900001,604.0627179000294,None,,,604.0627550000208,604.2292692000046,f,604.078774900001,604.078774900001,0.14770619996124879,None,,,,,,,,,,00052,001,2026-01-18_16h38.10.006,MST_task,2024.2.0,59.8673339882714,2026-01-18 16h38.18.664161 +0530,
,Objects\104a.jpg,138,0,139,,,,,,,None,,,f,0.28112289996352047,None,,,,139,0,138,604.2454705000273,,,,,,,,,,,,,,,,,,,,,,,,,,,,,,604.2293521999964,604.2454705000273,604.7459012000472,604.7291595000424,,,,,,,,,,,,,,,,,,,,,,,,,,604.7324359000195,604.7459012000472,604.7459012000472,604.7459012000472,607.7455478000338,607.7455478000338,607.7455478000338,607.7296263000462,None,,,607.7296633000369,608.0291484000045,f,607.7455478000338,607.7455478000338,0.28112289996352047,None,,,,,,,,,,00052,001,2026-01-18_16h38.10.006,MST_task,2024.2.0,59.8673339882714,2026-01-18 16h38.18.664161 +0530,
,Objects\099a.jpg,139,0,140,,,,,,,j,2.5843187000136822,0.15308809996349737,None,,,,,,140,0,139,608.0455107000307,,,,,,,,,,,,,,,,,,,,,,,,,,,,,,608.0292693999945,608.0455107000307,608.5457850000239,608.5290776000475,,,,,,,,,,,,,,,,,,,,,,,,,,608.5391631000093,608.5457850000239,608.5457850000239,608.5457850000239,611.5455484000267,611.5455484000267,611.5455484000267,611.5292062000372,j,2.5843187000136822,0.15308809996349737,611.5292459000484,611.5292574000196,None,,,,,,,,,,,,,,00052,001,2026-01-18_16h38.10.006,MST_task,2024.2.0,59.8673339882714,2026-01-18 16h38.18.664161 +0530,
,Scenes\078a.jpg,140,0,141,,,,,,,j,2.28031010000268,0.14365599997108802,None,,,,,,141,0,140,611.5455484000267,,,,,,,,,,,,,,,,,,,,,,,,,,,,,,611.5293226999929,611.5455484000267,612.0503959000343,612.0291513000266,,,,,,,,,,,,,,,,,,,,,,,,,,612.0479268000345,612.0503959000343,612.0503959000343,612.0503959000343,,,,615.0456972999964,j,2.28031010000268,0.14365599997108802,615.047510000004,615.0475280000246,None,,,,,,,,,,,,,,00052,001,2026-01-18_16h38.10.006,MST_task,2024.2.0,59.8673339882714,2026-01-18 16h38.18.664161 +0530,
,Scenes\020a.jpg,141,0,142,,,,,,,f,1.279892100021243,0.1597232999629341,None,,,,,,142,0,141,615.0622411000077,,,,,,,,,,,,,,,,,,,,,,,,,,,,,,615.0476315999986,615.0622411000077,615.5626635000226,615.545810700045,,,,,,,,,,,,,,,,,,,,,,,,,,615.5587414000183,615.5626635000226,615.5626635000226,615.5626635000226,618.5621666000225,618.5621666000225,618.5621666000225,618.5460690000327,f,1.279892100021243,0.1597232999629341,618.5461080000387,618.5461185000022,None,,,,,,,,,,,,,,00052,001,2026-01-18_16h38.10.006,MST_task,2024.2.0,59.8673339882714,2026-01-18 16h38.18.664161 +0530,
,Scenes\158a.jpg,142,0,143,,,,,,,j,2.954988199984655,None,None,,,,,,143,0,142,618.5621666000225,,,,,,,,,,,,,,,,,,,,,,,,,,,,,,618.5462142000324,618.5621666000225,619.0628349000472,619.0457599000074,,,,,,,,,,,,,,,,,,,,,,,,,,619.0552651000326,619.0628349000472,619.0628349000472,619.0628349000472,622.0621164000477,622.0621164000477,622.0621164000477,622.0461355000152,j,2.954988199984655,None,622.046175800031,622.0461872000014,None,,,,,,,,,,,,,,00052,001,2026-01-18_16h38.10.006,MST_task,2024.2.0,59.8673339882714,2026-01-18 16h38.18.664161 +0530,
,Scenes\011a.jpg,143,0,144,,,,,,,None,,,j,1.6878486999776214,None,,,,144,0,143,622.0621164000477,,,,,,,,,,,,,,,,,,,,,,,,,,,,,,622.0462549999938,622.0621164000477,622.562875100004,622.5457037000451,,,,,,,,,,,,,,,,,,,,,,,,,,622.5577364000492,622.562875100004,622.562875100004,622.562875100004,625.5623767999932,625.5623767999932,625.5623767999932,625.5460944999941,None,,,625.5461333999992,627.2626339000417,j,625.5623767999932,625.5623767999932,1.6878486999776214,None,,,,,,,,,,00052,001,2026-01-18_16h38.10.006,MST_task,2024.2.0,59.8673339882714,2026-01-18 16h38.18.664161 +0530,
,Scenes\186a.jpg,144,0,145,,,,,,,j,1.9502040999941528,0.16007020004326478,None,,,,,,145,0,144,627.2788630000432,,,,,,,,,,,,,,,,,,,,,,,,,,,,,,627.2627608000184,627.2788630000432,627.779492600006,627.7624479000224,,,,,,,,,,,,,,,,,,,,,,,,,,627.7760112000396,627.779492600006,627.779492600006,627.779492600006,630.7785996000166,630.7785996000166,630.7785996000166,630.7626655000495,j,1.9502040999941528,0.16007020004326478,630.7627116999938,630.7627236000262,None,,,,,,,,,,,,,,00052,001,2026-01-18_16h38.10.006,MST_task,2024.2.0,59.8673339882714,2026-01-18 16h38.18.664161 +0530,
,Scenes\166a.jpg,145,0,146,,,,,,,j,2.7630496000056155,0.11198380001587793,None,,,,,,146,0,145,630.7785996000166,,,,,,,,,,,,,,,,,,,,,,,,,,,,,,630.7627907000133,630.7785996000166,631.279213300033,631.262484100007,,,,,,,,,,,,,,,,,,,,,,,,,,631.2744688999956,631.279213300033,631.279213300033,631.279213300033,634.2787563000456,634.2787563000456,634.2787563000456,634.2627248000354,j,2.7630496000056155,0.11198380001587793,634.262765499996,634.26277630002,None,,,,,,,,,,,,,,00052,001,2026-01-18_16h38.10.006,MST_task,2024.2.0,59.8673339882714,2026-01-18 16h38.18.664161 +0530,
,Scenes\058a.jpg,146,0,147,,,,,,,f,1.7993116999859922,0.4240165000082925,None,,,,,,147,0,146,634.2787563000456,,,,,,,,,,,,,,,,,,,,,,,,,,,,,,634.2628417999949,634.2787563000456,634.7791956000146,634.7624285000493,,,,,,,,,,,,,,,,,,,,,,,,,,634.7715892000124,634.7791956000146,634.7791956000146,634.7791956000146,637.7789315000409,637.7789315000409,637.7789315000409,637.7631225000368,f,1.7993116999859922,0.4240165000082925,637.7631685000379,637.7631793000037,None,,,,,,,,,,,,,,00052,001,2026-01-18_16h38.10.006,MST_task,2024.2.0,59.8673339882714,2026-01-18 16h38.18.664161 +0530,
,Objects\156a.jpg,147,0,148,,,,,,,f,2.594258799974341,0.20869739999761805,None,,,,,,148,0,147,637.7789315000409,,,,,,,,,,,,,,,,,,,,,,,,,,,,,,637.7632854999974,637.7789315000409,638.2795290999929,638.2624440999934,,,,,,,,,,,,,,,,,,,,,,,,,,638.2750923000276,638.2795290999929,638.2795290999929,638.2795290999929,641.2788391000358,641.2788391000358,641.2788391000358,641.2626573000452,f,2.594258799974341,0.20869739999761805,641.2647075999994,641.2647246000124,None,,,,,,,,,,,,,,00052,001,2026-01-18_16h38.10.006,MST_task,2024.2.0,59.8673339882714,2026-01-18 16h38.18.664161 +0530,
,Objects\052a.jpg,148,0,149,,,,,,,None,,,f,0.5748345999745652,None,,,,149,0,148,641.2788391000358,,,,,,,,,,,,,,,,,,,,,,,,,,,,,,641.2647945000208,641.2788391000358,641.779233600013,641.7626853000256,,,,,,,,,,,,,,,,,,,,,,,,,,641.7725880999933,641.779233600013,641.779233600013,641.779233600013,644.7789598000236,644.7789598000236,644.7789598000236,644.7627375000156,None,,,644.7627741000033,645.3625826000352,f,644.7789598000236,644.7789598000236,0.5748345999745652,None,,,,,,,,,,00052,001,2026-01-18_16h38.10.006,MST_task,2024.2.0,59.8673339882714,2026-01-18 16h38.18.664161 +0530,
,Objects\037a.jpg,149,0,150,,,,,,,f,2.3719789999886416,0.15872950002085418,None,,,,,,150,0,149,645.3787567000254,,,,,,,,,,,,,,,,,,,,,,,,,,,,,,645.3626818000339,645.3787567000254,645.8790191000444,645.8624996000435,,,,,,,,,,,,,,,,,,,,,,,,,,645.8725265000248,645.8790191000444,645.8790191000444,645.8790191000444,648.8786231999984,648.8786231999984,648.8786231999984,648.8626902000397,f,2.3719789999886416,0.15872950002085418,648.8627330000163,648.8627440000419,None,,,,,,,,,,,,,,00052,001,2026-01-18_16h38.10.006,MST_task,2024.2.0,59.8673339882714,2026-01-18 16h38.18.664161 +0530,
,Objects\060a.jpg,150,0,151,,,,,,,f,2.511761999980081,0.1829505999921821,None,,,,,,151,0,150,648.8786231999984,,,,,,,,,,,,,,,,,,,,,,,,,,,,,,648.8628519000486,648.8786231999984,649.3790793000371,649.3624240000499,,,,,,,,,,,,,,,,,,,,,,,,,,649.3739712000242,649.3790793000371,649.3790793000371,649.3790793000371,,,,652.3630427000462,f,2.511761999980081,0.1829505999921821,652.3630817999947,652.3630938000279,None,,,,,,,,,,,,,,00052,001,2026-01-18_16h38.10.006,MST_task,2024.2.0,59.8673339882714,2026-01-18 16h38.18.664161 +0530,
,Objects\028a.jpg,151,0,152,,,,,,,j,2.859327399986796,None,None,,,,,,152,0,151,652.3787507000379,,,,,,,,,,,,,,,,,,,,,,,,,,,,,,652.3631612000172,652.3787507000379,652.8791063000099,652.862476600043,,,,,,,,,,,,,,,,,,,,,,,,,,652.8653657000395,652.8791063000099,652.8791063000099,652.8791063000099,655.8787669000449,655.8787669000449,655.8787669000449,655.8628959000343,j,2.859327399986796,None,655.8629425000399,655.8629544000141,None,,,,,,,,,,,,,,00052,001,2026-01-18_16h38.10.006,MST_task,2024.2.0,59.8673339882714,2026-01-18 16h38.18.664161 +0530,
,Objects\117a.jpg,152,0,153,,,,,,,f,2.8230722000007518,None,None,,,,,,153,0,152,655.8787669000449,,,,,,,,,,,,,,,,,,,,,,,,,,,,,,655.8630670999992,655.8787669000449,656.3789504000451,656.3623849000433,,,,,,,,,,,,,,,,,,,,,,,,,,656.3715550000197,656.3789504000451,656.3789504000451,656.3789504000451,659.3786389000015,659.3786389000015,659.3786389000015,659.3627111000242,f,2.8230722000007518,None,659.3627504000324,659.3627608999959,None,,,,,,,,,,,,,,00052,001,2026-01-18_16h38.10.006,MST_task,2024.2.0,59.8673339882714,2026-01-18 16h38.18.664161 +0530,
,Objects\064a.jpg,153,0,154,,,,,,,f,1.8837358999880962,0.9036080000223592,None,,,,,,154,0,153,659.3786389000015,,,,,,,,,,,,,,,,,,,,,,,,,,,,,,659.3628249000176,659.3786389000015,659.8789925000165,659.8623064000276,,,,,,,,,,,,,,,,,,,,,,,,,,659.8649008999928,659.8789925000165,659.8789925000165,659.8789925000165,662.8785777000012,662.8785777000012,662.8785777000012,662.8627321000095,f,1.8837358999880962,0.9036080000223592,662.8627784000128,662.8627898000414,None,,,,,,,,,,,,,,00052,001,2026-01-18_16h38.10.006,MST_task,2024.2.0,59.8673339882714,2026-01-18 16h38.18.664161 +0530,
,Scenes\044a.jpg,154,0,155,,,,,,,j,1.6873809000244364,0.1438215000089258,None,,,,,,155,0,154,662.8785777000012,,,,,,,,,,,,,,,,,,,,,,,,,,,,,,662.862894800026,662.8785777000012,663.3792537000263,663.3626874000183,,,,,,,,,,,,,,,,,,,,,,,,,,663.3710481000016,663.3792537000263,663.3792537000263,663.3792537000263,666.3785485000117,666.3785485000117,666.3785485000117,666.3628093000152,j,1.6873809000244364,0.1438215000089258,666.3644444000092,666.3644619000261,None,,,,,,,,,,,,,,00052,001,2026-01-18_16h38.10.006,MST_task,2024.2.0,59.8673339882714,2026-01-18 16h38.18.664161 +0530,
,Scenes\142a.jpg,155,0,156,,,,,,,None,,,j,0.09946900000795722,None,,,,156,0,155,666.3785485000117,,,,,,,,,,,,,,,,,,,,,,,,,,,,,,666.3645340999938,666.3785485000117,666.8791549000307,666.8623837000341,,,,,,,,,,,,,,,,,,,,,,,,,,666.8720409999951,666.8791549000307,666.8791549000307,666.8791549000307,669.8786856000079,669.8786856000079,669.8786856000079,669.8628686000011,None,,,669.8629168000189,669.9791460999986,j,669.8786856000079,669.8786856000079,0.09946900000795722,None,,,,,,,,,,00052,001,2026-01-18_16h38.10.006,MST_task,2024.2.0,59.8673339882714,2026-01-18 16h38.18.664161 +0530,
,Scenes\139a.jpg,156,0,157,,,,,,,j,2.306380199966952,0.12017110001761466,None,,,,,,157,0,156,669.9953999000136,,,,,,,,,,,,,,,,,,,,,,,,,,,,,,669.9792729000328,669.9953999000136,670.495980000007,670.4790782000055,,,,,,,,,,,,,,,,,,,,,,,,,,670.4843998000142,670.495980000007,670.495980000007,670.495980000007,673.4953760000062,673.4953760000062,673.4953760000062,673.4791632000124,j,2.306380199966952,0.12017110001761466,673.4792037000298,673.4792153000017,None,,,,,,,,,,,,,,00052,001,2026-01-18_16h38.10.006,MST_task,2024.2.0,59.8673339882714,2026-01-18 16h38.18.664161 +0530,
