thisN,thisTrialN,thisRepN,key_resp_3.keys,key_resp_3.rt,key_resp_3.duration,trials.thisRepN,trials.thisTrialN,trials.thisN,thisRow.t,notes,intro_page.started,text.started,key_resp.started,intro_page.stopped,key_resp.keys,key_resp.rt,key_resp.duration,instructions.started,text_2.started,key_resp_2.started,instructions.stopped,key_resp_2.keys,key_resp_2.rt,key_resp_2.duration,demo1.started,image_1.started,image_2.started,text_7.started,key_resp_6.started,text_9.started,demo1.stopped,key_resp_6.keys,key_resp_6.rt,key_resp_6.duration,demo2.started,image_5.started,image_6.started,text_11.started,text_12.started,key_resp_8.started,demo2.stopped,key_resp_8.keys,key_resp_8.rt,key_resp_8.duration,demo_conclusion.started,text_13.started,key_resp_9.started,demo_conclusion.stopped,key_resp_9.keys,key_resp_9.rt,key_resp_9.duration,start_test.started,text_6.started,key_resp_5.started,start_test.stopped,key_resp_5.keys,key_resp_5.rt,key_resp_5.duration,ISI.started,text_4.started,text_4.stopped,ISI.stopped,routine_1.started,image.started,text_3.started,key_resp_3.started,routine_1.stopped,image_path,position_of_stimuli,trials.key_resp_3.keys,trials.key_resp_3.rt,trials.key_resp_3.duration,End_page.started,text_5.started,key_resp_4.started,End_page.stopped,key_resp_4.keys,key_resp_4.rt,key_resp_4.duration,participant,session,date,expName,psychopyVersion,frameRate,expStart,
,,,,,,,,,,,0.0014599000005546259,0.0035047000001213746,0.0035047000001213746,2.6015873000014835,space,2.580955900000845,None,,,,,,,,,,,,,,,,,,,,,,,,,,,,,,,,,,,,,,,,,,,,,,,,,,,,,,,,,,,,,,,00055,001,2026-01-18_19h02.33.344,MST_test,2024.2.0,59.697180084037306,2026-01-18 19h02.44.723078 +0530,
,,,,,,,,,,,,,,,,,,2.6016266000006,2.6181799000005412,2.6181799000005412,12.595660800001497,space,9.973999600000752,None,,,,,,,,,,,,,,,,,,,,,,,,,,,,,,,,,,,,,,,,,,,,,,,,,,,,,,,,00055,001,2026-01-18_19h02.33.344,MST_test,2024.2.0,59.697180084037306,2026-01-18 19h02.44.723078 +0530,
,,,,,,,,,,,,,,,,,,,,,,,,,12.595785000001342,12.64033290000043,12.64033290000043,12.64033290000043,12.64033290000043,12.64033290000043,17.113028300000224,space,4.455647700000554,None,,,,,,,,,,,,,,,,,,,,,,,,,,,,,,,,,,,,,,,,,,,,,,00055,001,2026-01-18_19h02.33.344,MST_test,2024.2.0,59.697180084037306,2026-01-18 19h02.44.723078 +0530,
,,,,,,,,,,,,,,,,,,,,,,,,,,,,,,,,,,,17.113164100001086,17.12849770000139,17.12849770000139,17.12849770000139,17.12849770000139,17.12849770000139,18.112605300000723,space,0.9758349999992788,None,,,,,,,,,,,,,,,,,,,,,,,,,,,,,,,,,,,,00055,001,2026-01-18_19h02.33.344,MST_test,2024.2.0,59.697180084037306,2026-01-18 19h02.44.723078 +0530,
,,,,,,,,,,,,,,,,,,,,,,,,,,,,,,,,,,,,,,,,,,,,,18.11268090000158,18.127042100000835,18.127042100000835,34.52929490000133,space,16.394156700000167,None,,,,,,,,,,,,,,,,,,,,,,,,,,,,,00055,001,2026-01-18_19h02.33.344,MST_test,2024.2.0,59.697180084037306,2026-01-18 19h02.44.723078 +0530,
,,,,,,,,,,,,,,,,,,,,,,,,,,,,,,,,,,,,,,,,,,,,,,,,,,,,34.529464799999914,34.544057500001145,34.544057500001145,124.09641480000028,space,89.5449693999999,None,,,,,,,,,,,,,,,,,,,,,,00055,001,2026-01-18_19h02.33.344,MST_test,2024.2.0,59.697180084037306,2026-01-18 19h02.44.723078 +0530,
0,0,1,n,4.524660999999469,None,1,0,0,124.11026140000104,,,,,,,,,,,,,,,,,,,,,,,,,,,,,,,,,,,,,,,,,,,,,,,,,,124.10539920000156,124.11026140000104,124.62811490000058,124.59514590000072,124.62366380000094,124.62811490000058,124.62811490000058,124.62811490000058,129.16248200000155,Scenes\088a.jpg,post,n,4.524660999999469,None,,,,,,,,00055,001,2026-01-18_19h02.33.344,MST_test,2024.2.0,59.697180084037306,2026-01-18 19h02.44.723078 +0530,
1,0,2,o,4.666578300000765,None,2,0,1,129.1770806000004,,,,,,,,,,,,,,,,,,,,,,,,,,,,,,,,,,,,,,,,,,,,,,,,,,129.16290130000016,129.1770806000004,129.67770630000086,129.66175629999998,129.67495730000155,129.67770630000086,129.67770630000086,129.67770630000086,134.34673610000027,Objects\020a.jpg,post,o,4.666578300000765,None,,,,,,,,00055,001,2026-01-18_19h02.33.344,MST_test,2024.2.0,59.697180084037306,2026-01-18 19h02.44.723078 +0530,
2,0,3,n,4.778650000000198,None,3,0,2,134.36043020000034,,,,,,,,,,,,,,,,,,,,,,,,,,,,,,,,,,,,,,,,,,,,,,,,,,134.3470109000009,134.36043020000034,134.89432190000116,134.8449983999999,134.8919609000004,134.89432190000116,134.89432190000116,134.89432190000116,139.6792759,Foils\033a.jpg,none,n,4.778650000000198,None,,,,,,,,00055,001,2026-01-18_19h02.33.344,MST_test,2024.2.0,59.697180084037306,2026-01-18 19h02.44.723078 +0530,
3,0,4,n,1.82390149999992,None,4,0,3,139.69394629999988,,,,,,,,,,,,,,,,,,,,,,,,,,,,,,,,,,,,,,,,,,,,,,,,,,139.67969300000004,139.69394629999988,140.2085431000014,140.17838230000052,140.2057187999999,140.2085431000014,140.2085431000014,140.2085431000014,142.04562120000082,Foils\074a.jpg,none,n,1.82390149999992,None,,,,,,,,00055,001,2026-01-18_19h02.33.344,MST_test,2024.2.0,59.697180084037306,2026-01-18 19h02.44.723078 +0530,
4,0,5,s,3.6711685999998735,None,5,0,4,142.06054290000066,,,,,,,,,,,,,,,,,,,,,,,,,,,,,,,,,,,,,,,,,,,,,,,,,,142.04598570000053,142.06054290000066,142.56075410000085,142.54479320000064,142.550644500001,142.56075410000085,142.56075410000085,142.56075410000085,146.24540470000102,Objects\081a.jpg,post,s,3.6711685999998735,None,,,,,,,,00055,001,2026-01-18_19h02.33.344,MST_test,2024.2.0,59.697180084037306,2026-01-18 19h02.44.723078 +0530,
5,0,6,n,2.6274171999993996,None,6,0,5,146.2607912000003,,,,,,,,,,,,,,,,,,,,,,,,,,,,,,,,,,,,,,,,,,,,,,,,,,146.24564620000092,146.2607912000003,146.7722982000014,146.74471770000127,146.7696519000001,146.7722982000014,146.7722982000014,146.7722982000014,149.4126096,Objects\156b.jpg,mid,n,2.6274171999993996,None,,,,,,,,00055,001,2026-01-18_19h02.33.344,MST_test,2024.2.0,59.697180084037306,2026-01-18 19h02.44.723078 +0530,
6,0,7,s,3.8799701999996614,None,7,0,6,149.42727350000132,,,,,,,,,,,,,,,,,,,,,,,,,,,,,,,,,,,,,,,,,,,,,,,,,,149.412959700001,149.42727350000132,149.96071090000078,149.91177190000053,149.95802370000092,149.96071090000078,149.96071090000078,149.96071090000078,153.8461399000007,Scenes\166b.jpg,post,s,3.8799701999996614,None,,,,,,,,00055,001,2026-01-18_19h02.33.344,MST_test,2024.2.0,59.697180084037306,2026-01-18 19h02.44.723078 +0530,
7,0,8,o,3.3919257999987167,None,8,0,7,153.86073150000084,,,,,,,,,,,,,,,,,,,,,,,,,,,,,,,,,,,,,,,,,,,,,,,,,,153.8465021000011,153.86073150000084,154.3609561000012,154.34470970000075,154.35531400000036,154.3609561000012,154.3609561000012,154.3609561000012,157.76255459999993,Objects\080a.jpg,mid,o,3.3919257999987167,None,,,,,,,,00055,001,2026-01-18_19h02.33.344,MST_test,2024.2.0,59.697180084037306,2026-01-18 19h02.44.723078 +0530,
8,0,9,s,3.470367999998416,None,9,0,8,157.77732110000034,,,,,,,,,,,,,,,,,,,,,,,,,,,,,,,,,,,,,,,,,,,,,,,,,,157.7629252000006,157.77732110000034,158.30648079999992,158.26165260000016,158.30301790000158,158.30648079999992,158.30648079999992,158.30648079999992,161.7792954000015,Foils\050a.jpg,none,s,3.470367999998416,None,,,,,,,,00055,001,2026-01-18_19h02.33.344,MST_test,2024.2.0,59.697180084037306,2026-01-18 19h02.44.723078 +0530,
9,0,10,o,7.155677099999593,None,10,0,9,161.79383589999998,,,,,,,,,,,,,,,,,,,,,,,,,,,,,,,,,,,,,,,,,,,,,,,,,,161.7796425000015,161.79383589999998,162.30813540000054,162.2782188000001,162.30557610000142,162.30813540000054,162.30813540000054,162.30813540000054,169.47904780000135,Objects\087b.jpg,pre,o,7.155677099999593,None,,,,,,,,00055,001,2026-01-18_19h02.33.344,MST_test,2024.2.0,59.697180084037306,2026-01-18 19h02.44.723078 +0530,
10,0,11,o,2.1103352999998606,None,11,0,10,169.49399369999992,,,,,,,,,,,,,,,,,,,,,,,,,,,,,,,,,,,,,,,,,,,,,,,,,,169.47950260000107,169.49399369999992,169.99403359999997,169.97826750000058,169.98631790000036,169.99403359999997,169.99403359999997,169.99403359999997,172.11217670000042,Objects\192a.jpg,mid,o,2.1103352999998606,None,,,,,,,,00055,001,2026-01-18_19h02.33.344,MST_test,2024.2.0,59.697180084037306,2026-01-18 19h02.44.723078 +0530,
11,0,12,o,1.480819700000211,None,12,0,11,172.1271523000014,,,,,,,,,,,,,,,,,,,,,,,,,,,,,,,,,,,,,,,,,,,,,,,,,,172.11262800000077,172.1271523000014,172.6309369999999,172.6113357000013,172.62812200000008,172.6309369999999,172.6309369999999,172.6309369999999,174.1294996000015,Scenes\009a.jpg,post,o,1.480819700000211,None,,,,,,,,00055,001,2026-01-18_19h02.33.344,MST_test,2024.2.0,59.697180084037306,2026-01-18 19h02.44.723078 +0530,
12,0,13,s,2.0364190000000235,None,13,0,12,174.14401050000015,,,,,,,,,,,,,,,,,,,,,,,,,,,,,,,,,,,,,,,,,,,,,,,,,,174.1298526999999,174.14401050000015,174.71597330000077,174.62825350000094,174.7126801000013,174.71597330000077,174.71597330000077,174.71597330000077,176.76272450000033,Scenes\024b.jpg,mid,s,2.0364190000000235,None,,,,,,,,00055,001,2026-01-18_19h02.33.344,MST_test,2024.2.0,59.697180084037306,2026-01-18 19h02.44.723078 +0530,
13,0,14,o,2.615576800000781,None,14,0,13,176.7772803000007,,,,,,,,,,,,,,,,,,,,,,,,,,,,,,,,,,,,,,,,,,,,,,,,,,176.76312710000093,176.7772803000007,177.27995100000044,177.26146450000124,177.27685400000155,177.27995100000044,177.27995100000044,177.27995100000044,179.91191940000135,Scenes\049a.jpg,mid,o,2.615576800000781,None,,,,,,,,00055,001,2026-01-18_19h02.33.344,MST_test,2024.2.0,59.697180084037306,2026-01-18 19h02.44.723078 +0530,
14,0,15,o,1.7398717000014585,None,15,0,14,179.92718070000046,,,,,,,,,,,,,,,,,,,,,,,,,,,,,,,,,,,,,,,,,,,,,,,,,,179.91217599999982,179.92718070000046,180.4280413000015,180.41198890000123,180.42445120000048,180.4280413000015,180.4280413000015,180.4280413000015,182.17895790000148,Scenes\120a.jpg,post,o,1.7398717000014585,None,,,,,,,,00055,001,2026-01-18_19h02.33.344,MST_test,2024.2.0,59.697180084037306,2026-01-18 19h02.44.723078 +0530,
15,0,16,o,2.2897931000006793,None,16,0,15,182.1939755000003,,,,,,,,,,,,,,,,,,,,,,,,,,,,,,,,,,,,,,,,,,,,,,,,,,182.1793303000013,182.1939755000003,182.6952970000002,182.678355,182.68618100000094,182.6952970000002,182.6952970000002,182.6952970000002,184.99594740000066,Scenes\016a.jpg,post,o,2.2897931000006793,None,,,,,,,,00055,001,2026-01-18_19h02.33.344,MST_test,2024.2.0,59.697180084037306,2026-01-18 19h02.44.723078 +0530,
16,0,17,s,1.2135519000003114,None,17,0,16,185.0105252000012,,,,,,,,,,,,,,,,,,,,,,,,,,,,,,,,,,,,,,,,,,,,,,,,,,184.99629710000045,185.0105252000012,185.54707770000095,185.49584500000128,185.54440700000123,185.54707770000095,185.54707770000095,185.54707770000095,186.76284510000005,Scenes\050b.jpg,post,s,1.2135519000003114,None,,,,,,,,00055,001,2026-01-18_19h02.33.344,MST_test,2024.2.0,59.697180084037306,2026-01-18 19h02.44.723078 +0530,
17,0,18,s,1.6626545999988593,None,18,0,17,186.77713010000116,,,,,,,,,,,,,,,,,,,,,,,,,,,,,,,,,,,,,,,,,,,,,,,,,,186.76317560000098,186.77713010000116,187.32932400000027,187.26187050000044,187.32648440000048,187.32932400000027,187.32932400000027,187.32932400000027,188.9957473000013,Scenes\157b.jpg,post,s,1.6626545999988593,None,,,,,,,,00055,001,2026-01-18_19h02.33.344,MST_test,2024.2.0,59.697180084037306,2026-01-18 19h02.44.723078 +0530,
18,0,19,o,3.523978100000022,None,19,0,18,189.0104467000001,,,,,,,,,,,,,,,,,,,,,,,,,,,,,,,,,,,,,,,,,,,,,,,,,,188.99598789999982,189.0104467000001,189.51646470000014,189.49488290000045,189.51348640000106,189.51646470000014,189.51646470000014,189.51646470000014,193.04587660000107,Scenes\190a.jpg,pre,o,3.523978100000022,None,,,,,,,,00055,001,2026-01-18_19h02.33.344,MST_test,2024.2.0,59.697180084037306,2026-01-18 19h02.44.723078 +0530,
19,0,20,o,1.2955994000003557,None,20,0,19,193.0603914000003,,,,,,,,,,,,,,,,,,,,,,,,,,,,,,,,,,,,,,,,,,,,,,,,,,193.04622290000043,193.0603914000003,193.56106530000034,193.54487599999993,193.55345950000083,193.56106530000034,193.56106530000034,193.56106530000034,194.86241400000108,Objects\090a.jpg,mid,o,1.2955994000003557,None,,,,,,,,00055,001,2026-01-18_19h02.33.344,MST_test,2024.2.0,59.697180084037306,2026-01-18 19h02.44.723078 +0530,
20,0,21,s,1.764447999999902,None,21,0,20,194.87720470000022,,,,,,,,,,,,,,,,,,,,,,,,,,,,,,,,,,,,,,,,,,,,,,,,,,194.86275150000074,194.87720470000022,195.40413740000076,195.3615101000014,195.40125760000046,195.40413740000076,195.40413740000076,195.40413740000076,197.17939670000123,Objects\084b.jpg,pre,s,1.764447999999902,None,,,,,,,,00055,001,2026-01-18_19h02.33.344,MST_test,2024.2.0,59.697180084037306,2026-01-18 19h02.44.723078 +0530,
21,0,22,o,2.562077800001134,None,22,0,21,197.19392890000017,,,,,,,,,,,,,,,,,,,,,,,,,,,,,,,,,,,,,,,,,,,,,,,,,,197.17961220000143,197.19392890000017,197.69485420000092,197.67813670000032,197.69190870000057,197.69485420000092,197.69485420000092,197.69485420000092,200.26244790000055,Scenes\068a.jpg,mid,o,2.562077800001134,None,,,,,,,,00055,001,2026-01-18_19h02.33.344,MST_test,2024.2.0,59.697180084037306,2026-01-18 19h02.44.723078 +0530,
22,0,23,s,6.099076099999365,None,23,0,22,200.27713100000074,,,,,,,,,,,,,,,,,,,,,,,,,,,,,,,,,,,,,,,,,,,,,,,,,,200.2628560000012,200.27713100000074,200.8044473000009,200.76173270000072,200.80033560000084,200.8044473000009,200.8044473000009,200.8044473000009,206.91243170000052,Objects\106b.jpg,pre,s,6.099076099999365,None,,,,,,,,00055,001,2026-01-18_19h02.33.344,MST_test,2024.2.0,59.697180084037306,2026-01-18 19h02.44.723078 +0530,
23,0,24,n,1.3960908999997628,None,24,0,23,206.92703970000002,,,,,,,,,,,,,,,,,,,,,,,,,,,,,,,,,,,,,,,,,,,,,,,,,,206.9128208000002,206.92703970000002,207.4283830000004,207.41161730000022,207.4178926000004,207.4283830000004,207.4283830000004,207.4283830000004,208.82925680000153,Objects\145a.jpg,mid,n,1.3960908999997628,None,,,,,,,,00055,001,2026-01-18_19h02.33.344,MST_test,2024.2.0,59.697180084037306,2026-01-18 19h02.44.723078 +0530,
24,0,25,n,1.1196153000000777,None,25,0,24,208.8438124000004,,,,,,,,,,,,,,,,,,,,,,,,,,,,,,,,,,,,,,,,,,,,,,,,,,208.82961440000145,208.8438124000004,209.34407420000025,209.3283347000015,209.33620410000003,209.34407420000025,209.34407420000025,209.34407420000025,210.47931849999986,Objects\010a.jpg,post,n,1.1196153000000777,None,,,,,,,,00055,001,2026-01-18_19h02.33.344,MST_test,2024.2.0,59.697180084037306,2026-01-18 19h02.44.723078 +0530,
25,0,26,o,1.2851844000015262,None,26,0,25,210.49387190000016,,,,,,,,,,,,,,,,,,,,,,,,,,,,,,,,,,,,,,,,,,,,,,,,,,210.47957400000087,210.49387190000016,210.9944129000014,210.9782223000002,210.9906262000004,210.9944129000014,210.9944129000014,210.9944129000014,212.29578720000063,Scenes\175a.jpg,pre,o,1.2851844000015262,None,,,,,,,,00055,001,2026-01-18_19h02.33.344,MST_test,2024.2.0,59.697180084037306,2026-01-18 19h02.44.723078 +0530,
26,0,27,o,1.5810903000001417,None,27,0,26,212.31039860000055,,,,,,,,,,,,,,,,,,,,,,,,,,,,,,,,,,,,,,,,,,,,,,,,,,212.29615420000118,212.31039860000055,212.81109819999983,212.79483120000077,212.8070628000005,212.81109819999983,212.81109819999983,212.81109819999983,214.3959044000003,Scenes\136a.jpg,pre,o,1.5810903000001417,None,,,,,,,,00055,001,2026-01-18_19h02.33.344,MST_test,2024.2.0,59.697180084037306,2026-01-18 19h02.44.723078 +0530,
27,0,28,o,1.5121032999995805,None,28,0,27,214.41044950000105,,,,,,,,,,,,,,,,,,,,,,,,,,,,,,,,,,,,,,,,,,,,,,,,,,214.39635200000157,214.41044950000105,214.92042780000156,214.89512620000096,214.91749490000075,214.92042780000156,214.92042780000156,214.92042780000156,216.44577449999997,Foils\scenes1.jpg,none,o,1.5121032999995805,None,,,,,,,,00055,001,2026-01-18_19h02.33.344,MST_test,2024.2.0,59.697180084037306,2026-01-18 19h02.44.723078 +0530,
28,0,29,s,5.037790000000314,None,29,0,28,216.46050560000003,,,,,,,,,,,,,,,,,,,,,,,,,,,,,,,,,,,,,,,,,,,,,,,,,,216.4460252000008,216.46050560000003,217.02692209999987,216.94520920000105,217.02334950000113,217.02692209999987,217.02692209999987,217.02692209999987,222.07925720000094,Scenes\044b.jpg,post,s,5.037790000000314,None,,,,,,,,00055,001,2026-01-18_19h02.33.344,MST_test,2024.2.0,59.697180084037306,2026-01-18 19h02.44.723078 +0530,
29,0,30,o,2.884243200000128,None,30,0,29,222.09388070000023,,,,,,,,,,,,,,,,,,,,,,,,,,,,,,,,,,,,,,,,,,,,,,,,,,222.07956280000144,222.09388070000023,222.65985980000005,222.57820700000048,222.65661890000047,222.65985980000005,222.65985980000005,222.65985980000005,225.5464376,Scenes\062b.jpg,mid,o,2.884243200000128,None,,,,,,,,00055,001,2026-01-18_19h02.33.344,MST_test,2024.2.0,59.697180084037306,2026-01-18 19h02.44.723078 +0530,
30,0,31,o,1.5961086999996041,None,31,0,30,225.5604729000006,,,,,,,,,,,,,,,,,,,,,,,,,,,,,,,,,,,,,,,,,,,,,,,,,,225.5468424999999,225.5604729000006,226.0608940000002,226.04490100000112,226.0543189,226.0608940000002,226.0608940000002,226.0608940000002,227.66270020000047,Objects\108a.jpg,pre,o,1.5961086999996041,None,,,,,,,,00055,001,2026-01-18_19h02.33.344,MST_test,2024.2.0,59.697180084037306,2026-01-18 19h02.44.723078 +0530,
31,0,32,n,2.3021091999999044,None,32,0,31,227.6771972000006,,,,,,,,,,,,,,,,,,,,,,,,,,,,,,,,,,,,,,,,,,,,,,,,,,227.66303690000132,227.6771972000006,228.2576110000009,228.16174020000108,228.25417800000105,228.2576110000009,228.2576110000009,228.2576110000009,230.5628136000014,Scenes\046b.jpg,post,n,2.3021091999999044,None,,,,,,,,00055,001,2026-01-18_19h02.33.344,MST_test,2024.2.0,59.697180084037306,2026-01-18 19h02.44.723078 +0530,
32,0,33,o,1.7841104999988602,None,33,0,32,230.57732990000113,,,,,,,,,,,,,,,,,,,,,,,,,,,,,,,,,,,,,,,,,,,,,,,,,,230.5631910000011,230.57732990000113,231.10482500000035,231.06192139999985,231.10171530000116,231.10482500000035,231.10482500000035,231.10482500000035,232.8957631000012,Objects\034b.jpg,mid,o,1.7841104999988602,None,,,,,,,,00055,001,2026-01-18_19h02.33.344,MST_test,2024.2.0,59.697180084037306,2026-01-18 19h02.44.723078 +0530,
33,0,34,n,1.1907651000001351,None,34,0,33,232.91046190000088,,,,,,,,,,,,,,,,,,,,,,,,,,,,,,,,,,,,,,,,,,,,,,,,,,232.8959747000008,232.91046190000088,233.42571660000067,233.39495590000115,233.42305530000158,233.42571660000067,233.42571660000067,233.42571660000067,234.62970660000065,Objects\117b.jpg,mid,n,1.1907651000001351,None,,,,,,,,00055,001,2026-01-18_19h02.33.344,MST_test,2024.2.0,59.697180084037306,2026-01-18 19h02.44.723078 +0530,
34,0,35,o,2.675234199999977,None,35,0,34,234.64386840000043,,,,,,,,,,,,,,,,,,,,,,,,,,,,,,,,,,,,,,,,,,,,,,,,,,234.6300701,234.64386840000043,235.18088090000128,235.12835430000086,235.17811900000015,235.18088090000128,235.18088090000128,235.18088090000128,237.86251820000143,Objects\027b.jpg,pre,o,2.675234199999977,None,,,,,,,,00055,001,2026-01-18_19h02.33.344,MST_test,2024.2.0,59.697180084037306,2026-01-18 19h02.44.723078 +0530,
35,0,36,n,1.1989964000003965,None,36,0,35,237.8772374,,,,,,,,,,,,,,,,,,,,,,,,,,,,,,,,,,,,,,,,,,,,,,,,,,237.8629458000014,237.8772374,238.37759220000044,238.36151960000097,238.37341580000066,238.37759220000044,238.37759220000044,238.37759220000044,239.5789760000007,Scenes\186a.jpg,mid,n,1.1989964000003965,None,,,,,,,,00055,001,2026-01-18_19h02.33.344,MST_test,2024.2.0,59.697180084037306,2026-01-18 19h02.44.723078 +0530,
36,0,37,n,1.5010653999997885,None,37,0,36,239.59382170000026,,,,,,,,,,,,,,,,,,,,,,,,,,,,,,,,,,,,,,,,,,,,,,,,,,239.57920040000135,239.59382170000026,240.12314400000105,240.07871740000155,240.1203772000008,240.12314400000105,240.12314400000105,240.12314400000105,241.62890890000017,Foils\scenes11.jpg,none,n,1.5010653999997885,None,,,,,,,,00055,001,2026-01-18_19h02.33.344,MST_test,2024.2.0,59.697180084037306,2026-01-18 19h02.44.723078 +0530,
37,0,38,n,2.7320834000001923,None,38,0,37,241.64419460000136,,,,,,,,,,,,,,,,,,,,,,,,,,,,,,,,,,,,,,,,,,,,,,,,,,241.62931540000136,241.64419460000136,242.2286492000003,242.12830790000044,242.22597459999997,242.2286492000003,242.2286492000003,242.2286492000003,244.9630027000003,Scenes\070b.jpg,mid,n,2.7320834000001923,None,,,,,,,,00055,001,2026-01-18_19h02.33.344,MST_test,2024.2.0,59.697180084037306,2026-01-18 19h02.44.723078 +0530,
38,0,39,o,1.9948703999998543,None,39,0,38,244.97730970000157,,,,,,,,,,,,,,,,,,,,,,,,,,,,,,,,,,,,,,,,,,,,,,,,,,244.9633319000004,244.97730970000157,245.47798930000135,245.46168300000136,245.4676285000005,245.47798930000135,245.47798930000135,245.47798930000135,247.47977400000127,Objects\017a.jpg,pre,o,1.9948703999998543,None,,,,,,,,00055,001,2026-01-18_19h02.33.344,MST_test,2024.2.0,59.697180084037306,2026-01-18 19h02.44.723078 +0530,
39,0,40,o,1.1561373000004096,None,40,0,39,247.4947826000007,,,,,,,,,,,,,,,,,,,,,,,,,,,,,,,,,,,,,,,,,,,,,,,,,,247.48010050000084,247.4947826000007,248.0209964000005,247.97837170000093,248.0176919000005,248.0209964000005,248.0209964000005,248.0209964000005,249.18010640000102,Foils\081a.jpg,none,o,1.1561373000004096,None,,,,,,,,00055,001,2026-01-18_19h02.33.344,MST_test,2024.2.0,59.697180084037306,2026-01-18 19h02.44.723078 +0530,
40,0,41,n,2.538507999999638,None,41,0,40,249.19384910000008,,,,,,,,,,,,,,,,,,,,,,,,,,,,,,,,,,,,,,,,,,,,,,,,,,249.1804305000005,249.19384910000008,249.7092104000003,249.67830649999996,249.70668730000034,249.7092104000003,249.7092104000003,249.7092104000003,252.26265630000125,Objects\157b.jpg,post,n,2.538507999999638,None,,,,,,,,00055,001,2026-01-18_19h02.33.344,MST_test,2024.2.0,59.697180084037306,2026-01-18 19h02.44.723078 +0530,
41,0,42,n,2.3078396000000794,None,42,0,41,252.2771929999999,,,,,,,,,,,,,,,,,,,,,,,,,,,,,,,,,,,,,,,,,,,,,,,,,,252.2629280000001,252.2771929999999,252.82950470000105,252.76147550000132,252.82674750000115,252.82950470000105,252.82950470000105,252.82950470000105,255.1459031000013,Scenes\182b.jpg,mid,n,2.3078396000000794,None,,,,,,,,00055,001,2026-01-18_19h02.33.344,MST_test,2024.2.0,59.697180084037306,2026-01-18 19h02.44.723078 +0530,
42,0,43,n,1.2500800999987405,None,43,0,42,255.16081860000122,,,,,,,,,,,,,,,,,,,,,,,,,,,,,,,,,,,,,,,,,,,,,,,,,,255.14634530000149,255.16081860000122,255.68546700000115,255.64490490000026,255.68112890000157,255.68546700000115,255.68546700000115,255.68546700000115,256.94634600000063,Foils\scenes13.jpg,none,n,1.2500800999987405,None,,,,,,,,00055,001,2026-01-18_19h02.33.344,MST_test,2024.2.0,59.697180084037306,2026-01-18 19h02.44.723078 +0530,
43,0,44,o,2.687987499999508,None,44,0,43,256.96095960000093,,,,,,,,,,,,,,,,,,,,,,,,,,,,,,,,,,,,,,,,,,,,,,,,,,256.94662360000075,256.96095960000093,257.4798716000005,257.44482920000155,257.4774784000001,257.4798716000005,257.4798716000005,257.4798716000005,260.17884950000007,Objects\040b.jpg,post,o,2.687987499999508,None,,,,,,,,00055,001,2026-01-18_19h02.33.344,MST_test,2024.2.0,59.697180084037306,2026-01-18 19h02.44.723078 +0530,
44,0,45,s,0.9144886000012775,None,45,0,44,260.1942006999998,,,,,,,,,,,,,,,,,,,,,,,,,,,,,,,,,,,,,,,,,,,,,,,,,,260.17913390000103,260.1942006999998,260.6940760000016,260.6781647000007,260.68322609999996,260.6940760000016,260.6940760000016,260.6940760000016,261.61266050000086,Objects\052a.jpg,post,s,0.9144886000012775,None,,,,,,,,00055,001,2026-01-18_19h02.33.344,MST_test,2024.2.0,59.697180084037306,2026-01-18 19h02.44.723078 +0530,
45,0,46,o,1.4944763999992574,None,46,0,45,261.6274334000009,,,,,,,,,,,,,,,,,,,,,,,,,,,,,,,,,,,,,,,,,,,,,,,,,,261.61297809999996,261.6274334000009,262.1530480000001,262.11183560000063,262.14992920000077,262.1530480000001,262.1530480000001,262.1530480000001,263.66266630000064,Foils\scenes3.jpg,none,o,1.4944763999992574,None,,,,,,,,00055,001,2026-01-18_19h02.33.344,MST_test,2024.2.0,59.697180084037306,2026-01-18 19h02.44.723078 +0530,
46,0,47,o,0.701789099999587,None,47,0,46,263.67725790000077,,,,,,,,,,,,,,,,,,,,,,,,,,,,,,,,,,,,,,,,,,,,,,,,,,263.66305509999984,263.67725790000077,264.17780350000066,264.1617242000011,264.1670258000013,264.17780350000066,264.17780350000066,264.17780350000066,264.8960170999999,Objects\115a.jpg,mid,o,0.701789099999587,None,,,,,,,,00055,001,2026-01-18_19h02.33.344,MST_test,2024.2.0,59.697180084037306,2026-01-18 19h02.44.723078 +0530,
47,0,48,o,0.7649414999996225,None,48,0,47,264.91046820000156,,,,,,,,,,,,,,,,,,,,,,,,,,,,,,,,,,,,,,,,,,,,,,,,,,264.8963865000005,264.91046820000156,265.4115171000012,265.3951753000001,265.40862019999986,265.4115171000012,265.4115171000012,265.4115171000012,266.1792519999999,Scenes\013a.jpg,pre,o,0.7649414999996225,None,,,,,,,,00055,001,2026-01-18_19h02.33.344,MST_test,2024.2.0,59.697180084037306,2026-01-18 19h02.44.723078 +0530,
48,0,49,n,2.456975799999782,None,49,0,48,266.1939462999999,,,,,,,,,,,,,,,,,,,,,,,,,,,,,,,,,,,,,,,,,,,,,,,,,,266.17949150000095,266.1939462999999,266.7196752,266.67887000000155,266.71616390000054,266.7196752,266.7196752,266.7196752,269.17917470000066,Foils\scenes30.jpg,none,n,2.456975799999782,None,,,,,,,,00055,001,2026-01-18_19h02.33.344,MST_test,2024.2.0,59.697180084037306,2026-01-18 19h02.44.723078 +0530,
49,0,50,o,2.1037663999995857,None,50,0,49,269.1939459000005,,,,,,,,,,,,,,,,,,,,,,,,,,,,,,,,,,,,,,,,,,,,,,,,,,269.17941150000115,269.1939459000005,269.7125063000003,269.6781808000014,269.7094182000001,269.7125063000003,269.7125063000003,269.7125063000003,271.8290555000003,Foils\066a.jpg,none,o,2.1037663999995857,None,,,,,,,,00055,001,2026-01-18_19h02.33.344,MST_test,2024.2.0,59.697180084037306,2026-01-18 19h02.44.723078 +0530,
50,0,51,o,4.543702099999791,None,51,0,50,271.84401790000084,,,,,,,,,,,,,,,,,,,,,,,,,,,,,,,,,,,,,,,,,,,,,,,,,,271.82936340000015,271.84401790000084,272.35210430000006,272.3280848000013,272.3486868,272.35210430000006,272.35210430000006,272.35210430000006,276.9131218000002,Scenes\125a.jpg,pre,o,4.543702099999791,None,,,,,,,,00055,001,2026-01-18_19h02.33.344,MST_test,2024.2.0,59.697180084037306,2026-01-18 19h02.44.723078 +0530,
51,0,52,o,1.9667171999990387,None,52,0,51,276.92729340000005,,,,,,,,,,,,,,,,,,,,,,,,,,,,,,,,,,,,,,,,,,,,,,,,,,276.9134823000004,276.92729340000005,277.4276391000003,277.41167920000044,277.42092720000073,277.4276391000003,277.4276391000003,277.4276391000003,279.3960059000001,Objects\107a.jpg,pre,o,1.9667171999990387,None,,,,,,,,00055,001,2026-01-18_19h02.33.344,MST_test,2024.2.0,59.697180084037306,2026-01-18 19h02.44.723078 +0530,
52,0,53,o,1.7527380999999878,None,53,0,52,279.41042280000147,,,,,,,,,,,,,,,,,,,,,,,,,,,,,,,,,,,,,,,,,,,,,,,,,,279.3964104000006,279.41042280000147,279.9115333999998,279.89490360000127,279.9085059000008,279.9115333999998,279.9115333999998,279.9115333999998,281.67904869999984,Scenes\158a.jpg,post,o,1.7527380999999878,None,,,,,,,,00055,001,2026-01-18_19h02.33.344,MST_test,2024.2.0,59.697180084037306,2026-01-18 19h02.44.723078 +0530,
53,0,54,n,1.573196100000132,None,54,0,53,281.6939213000005,,,,,,,,,,,,,,,,,,,,,,,,,,,,,,,,,,,,,,,,,,,,,,,,,,281.67943540000124,281.6939213000005,282.27548770000067,282.1784380000008,282.27102040000136,282.27548770000067,282.27548770000067,282.27548770000067,283.86257320000004,Foils\scenes15.jpg,none,n,1.573196100000132,None,,,,,,,,00055,001,2026-01-18_19h02.33.344,MST_test,2024.2.0,59.697180084037306,2026-01-18 19h02.44.723078 +0530,
54,0,55,s,2.794736899999407,None,55,0,54,283.8770884000005,,,,,,,,,,,,,,,,,,,,,,,,,,,,,,,,,,,,,,,,,,,,,,,,,,283.8629086000001,283.8770884000005,284.3900173000002,284.36159130000124,284.38754380000137,284.3900173000002,284.3900173000002,284.3900173000002,287.19594940000025,Scenes\121a.jpg,mid,s,2.794736899999407,None,,,,,,,,00055,001,2026-01-18_19h02.33.344,MST_test,2024.2.0,59.697180084037306,2026-01-18 19h02.44.723078 +0530,
55,0,56,o,1.1842825999992783,None,56,0,55,287.2104102000012,,,,,,,,,,,,,,,,,,,,,,,,,,,,,,,,,,,,,,,,,,,,,,,,,,287.1962779000005,287.2104102000012,287.7113137000015,287.6953054000005,287.70270710000113,287.7113137000015,287.7113137000015,287.7113137000015,288.9124190000002,Scenes\033a.jpg,mid,o,1.1842825999992783,None,,,,,,,,00055,001,2026-01-18_19h02.33.344,MST_test,2024.2.0,59.697180084037306,2026-01-18 19h02.44.723078 +0530,
56,0,57,o,1.2477603999996063,None,57,0,56,288.9272928999999,,,,,,,,,,,,,,,,,,,,,,,,,,,,,,,,,,,,,,,,,,,,,,,,,,288.91277230000014,288.9272928999999,289.4886243000001,289.4118705000001,289.48589360000005,289.4886243000001,289.4886243000001,289.4886243000001,290.74570610000046,Scenes\115b.jpg,pre,o,1.2477603999996063,None,,,,,,,,00055,001,2026-01-18_19h02.33.344,MST_test,2024.2.0,59.697180084037306,2026-01-18 19h02.44.723078 +0530,
57,0,58,n,4.466418300000441,None,58,0,57,290.76042120000056,,,,,,,,,,,,,,,,,,,,,,,,,,,,,,,,,,,,,,,,,,,,,,,,,,290.7460382999998,290.76042120000056,291.30961860000025,291.24518660000103,291.3059970000013,291.30961860000025,291.30961860000025,291.30961860000025,295.7795784000009,Scenes\058b.jpg,post,n,4.466418300000441,None,,,,,,,,00055,001,2026-01-18_19h02.33.344,MST_test,2024.2.0,59.697180084037306,2026-01-18 19h02.44.723078 +0530,
58,0,59,n,0.8093852000001789,None,59,0,58,295.7941167000008,,,,,,,,,,,,,,,,,,,,,,,,,,,,,,,,,,,,,,,,,,,,,,,,,,295.7799876000008,295.7941167000008,296.29455100000087,296.278873700001,296.28574130000015,296.29455100000087,296.29455100000087,296.29455100000087,297.11240650000036,Scenes\022a.jpg,post,n,0.8093852000001789,None,,,,,,,,00055,001,2026-01-18_19h02.33.344,MST_test,2024.2.0,59.697180084037306,2026-01-18 19h02.44.723078 +0530,
59,0,60,n,1.8917214000011882,None,60,0,59,297.1268043,,,,,,,,,,,,,,,,,,,,,,,,,,,,,,,,,,,,,,,,,,,,,,,,,,297.1126516000004,297.1268043,297.628872700001,297.61163660000057,297.62541370000145,297.628872700001,297.628872700001,297.628872700001,299.52926730000036,Scenes\059a.jpg,mid,n,1.8917214000011882,None,,,,,,,,00055,001,2026-01-18_19h02.33.344,MST_test,2024.2.0,59.697180084037306,2026-01-18 19h02.44.723078 +0530,
60,0,61,o,2.0961341000001994,None,61,0,60,299.54381490000014,,,,,,,,,,,,,,,,,,,,,,,,,,,,,,,,,,,,,,,,,,,,,,,,,,299.52961460000006,299.54381490000014,300.04755040000055,300.02819760000057,300.04455210000015,300.04755040000055,300.04755040000055,300.04755040000055,302.1458669000003,Scenes\042a.jpg,mid,o,2.0961341000001994,None,,,,,,,,00055,001,2026-01-18_19h02.33.344,MST_test,2024.2.0,59.697180084037306,2026-01-18 19h02.44.723078 +0530,
61,0,62,o,1.154758499998934,None,62,0,61,302.16048540000156,,,,,,,,,,,,,,,,,,,,,,,,,,,,,,,,,,,,,,,,,,,,,,,,,,302.14620079999986,302.16048540000156,302.6614029000011,302.6449917000009,302.65447380000114,302.6614029000011,302.6614029000011,302.6614029000011,303.8295867000015,Objects\149a.jpg,mid,o,1.154758499998934,None,,,,,,,,00055,001,2026-01-18_19h02.33.344,MST_test,2024.2.0,59.697180084037306,2026-01-18 19h02.44.723078 +0530,
62,0,63,o,0.9017572000011569,None,63,0,62,303.84376860000157,,,,,,,,,,,,,,,,,,,,,,,,,,,,,,,,,,,,,,,,,,,,,,,,,,303.8299059000001,303.84376860000157,304.3625974000006,304.32816360000106,304.3594176000006,304.3625974000006,304.3625974000006,304.3625974000006,305.27903400000105,Foils\065a.jpg,none,o,0.9017572000011569,None,,,,,,,,00055,001,2026-01-18_19h02.33.344,MST_test,2024.2.0,59.697180084037306,2026-01-18 19h02.44.723078 +0530,
63,0,64,o,1.1370394000005035,None,64,0,63,305.2941064000006,,,,,,,,,,,,,,,,,,,,,,,,,,,,,,,,,,,,,,,,,,,,,,,,,,305.27930000000015,305.2941064000006,305.80046700000094,305.77816300000086,305.7978715999998,305.80046700000094,305.80046700000094,305.80046700000094,306.9452859000012,Objects\118b.jpg,post,o,1.1370394000005035,None,,,,,,,,00055,001,2026-01-18_19h02.33.344,MST_test,2024.2.0,59.697180084037306,2026-01-18 19h02.44.723078 +0530,
64,0,65,s,0.9840946999993321,None,65,0,64,306.96071380000103,,,,,,,,,,,,,,,,,,,,,,,,,,,,,,,,,,,,,,,,,,,,,,,,,,306.9455102000011,306.96071380000103,307.55970250000064,307.4449222000003,307.55638570000156,307.55970250000064,307.55970250000064,307.55970250000064,308.5457458000001,Objects\054b.jpg,pre,s,0.9840946999993321,None,,,,,,,,00055,001,2026-01-18_19h02.33.344,MST_test,2024.2.0,59.697180084037306,2026-01-18 19h02.44.723078 +0530,
65,0,66,s,1.0912599000002956,None,66,0,65,308.5612833000014,,,,,,,,,,,,,,,,,,,,,,,,,,,,,,,,,,,,,,,,,,,,,,,,,,308.5461583000015,308.5612833000014,309.06078530000013,309.0452441000016,309.0532785000014,309.06078530000013,309.06078530000013,309.06078530000013,310.16287310000007,Objects\089a.jpg,pre,s,1.0912599000002956,None,,,,,,,,00055,001,2026-01-18_19h02.33.344,MST_test,2024.2.0,59.697180084037306,2026-01-18 19h02.44.723078 +0530,
66,0,67,n,2.011479099999633,None,67,0,66,310.17721859999983,,,,,,,,,,,,,,,,,,,,,,,,,,,,,,,,,,,,,,,,,,,,,,,,,,310.1632524000015,310.17721859999983,310.6772395000007,310.6618401000014,310.66753570000037,310.6772395000007,310.6772395000007,310.6772395000007,312.6958331000005,Objects\170a.jpg,mid,n,2.011479099999633,None,,,,,,,,00055,001,2026-01-18_19h02.33.344,MST_test,2024.2.0,59.697180084037306,2026-01-18 19h02.44.723078 +0530,
67,0,68,n,1.0470240999984526,None,68,0,67,312.71051609999995,,,,,,,,,,,,,,,,,,,,,,,,,,,,,,,,,,,,,,,,,,,,,,,,,,312.69624380000096,312.71051609999995,313.23272630000065,313.19501540000056,313.2287053,313.23272630000065,313.23272630000065,313.23272630000065,314.29549940000106,Foils\121a.jpg,none,n,1.0470240999984526,None,,,,,,,,00055,001,2026-01-18_19h02.33.344,MST_test,2024.2.0,59.697180084037306,2026-01-18 19h02.44.723078 +0530,
68,0,69,n,1.0925633999995625,None,69,0,68,314.31050160000086,,,,,,,,,,,,,,,,,,,,,,,,,,,,,,,,,,,,,,,,,,,,,,,,,,314.2957384000001,314.31050160000086,314.8674339999998,314.795121000001,314.8642563000012,314.8674339999998,314.8674339999998,314.8674339999998,315.96303160000025,Scenes\168b.jpg,post,n,1.0925633999995625,None,,,,,,,,00055,001,2026-01-18_19h02.33.344,MST_test,2024.2.0,59.697180084037306,2026-01-18 19h02.44.723078 +0530,
69,0,70,n,0.9702761999997165,None,70,0,69,315.97835510000004,,,,,,,,,,,,,,,,,,,,,,,,,,,,,,,,,,,,,,,,,,,,,,,,,,315.96329289999994,315.97835510000004,316.47780370000146,316.4618394000008,316.467733200001,316.47780370000146,316.47780370000146,316.47780370000146,317.4624760000006,Objects\047a.jpg,post,n,0.9702761999997165,None,,,,,,,,00055,001,2026-01-18_19h02.33.344,MST_test,2024.2.0,59.697180084037306,2026-01-18 19h02.44.723078 +0530,
70,0,71,n,1.4753345000008267,None,71,0,70,317.477135000001,,,,,,,,,,,,,,,,,,,,,,,,,,,,,,,,,,,,,,,,,,,,,,,,,,317.4627692000013,317.477135000001,317.98151000000144,317.9616012000006,317.97865060000004,317.98151000000144,317.98151000000144,317.98151000000144,319.46291139999994,Scenes\167a.jpg,pre,n,1.4753345000008267,None,,,,,,,,00055,001,2026-01-18_19h02.33.344,MST_test,2024.2.0,59.697180084037306,2026-01-18 19h02.44.723078 +0530,
71,0,72,o,1.6643834000005882,None,72,0,71,319.477208100001,,,,,,,,,,,,,,,,,,,,,,,,,,,,,,,,,,,,,,,,,,,,,,,,,,319.4632754000013,319.477208100001,320.0085639000008,319.96124770000097,320.0052850000011,320.0085639000008,320.0085639000008,320.0085639000008,321.67950999999994,Objects\073b.jpg,pre,o,1.6643834000005882,None,,,,,,,,00055,001,2026-01-18_19h02.33.344,MST_test,2024.2.0,59.697180084037306,2026-01-18 19h02.44.723078 +0530,
72,0,73,o,1.4060874000006152,None,73,0,72,321.6938800000007,,,,,,,,,,,,,,,,,,,,,,,,,,,,,,,,,,,,,,,,,,,,,,,,,,321.6797488000011,321.6938800000007,322.1940691,322.1783946000014,322.1850852000007,322.1940691,322.1940691,322.1940691,323.6124233999999,Objects\045a.jpg,mid,o,1.4060874000006152,None,,,,,,,,00055,001,2026-01-18_19h02.33.344,MST_test,2024.2.0,59.697180084037306,2026-01-18 19h02.44.723078 +0530,
73,0,74,o,1.3321180000002641,None,74,0,73,323.6272476000013,,,,,,,,,,,,,,,,,,,,,,,,,,,,,,,,,,,,,,,,,,,,,,,,,,323.6127116000007,323.6272476000013,324.1475659000007,324.1114300999998,324.14501310000014,324.1475659000007,324.1475659000007,324.1475659000007,325.49591390000023,Foils\073a.jpg,none,o,1.3321180000002641,None,,,,,,,,00055,001,2026-01-18_19h02.33.344,MST_test,2024.2.0,59.697180084037306,2026-01-18 19h02.44.723078 +0530,
74,0,75,o,1.79546659999869,None,75,0,74,325.51058270000067,,,,,,,,,,,,,,,,,,,,,,,,,,,,,,,,,,,,,,,,,,,,,,,,,,325.49619260000145,325.51058270000067,326.0849950000011,325.99496420000105,326.08153910000146,326.0849950000011,326.0849950000011,326.0849950000011,327.8960987999999,Scenes\039b.jpg,pre,o,1.79546659999869,None,,,,,,,,00055,001,2026-01-18_19h02.33.344,MST_test,2024.2.0,59.697180084037306,2026-01-18 19h02.44.723078 +0530,
75,0,76,s,1.6056361999999353,None,76,0,75,327.91041740000037,,,,,,,,,,,,,,,,,,,,,,,,,,,,,,,,,,,,,,,,,,,,,,,,,,327.8964676000014,327.91041740000037,328.41104670000095,328.39496300000064,328.4055790000002,328.41104670000095,328.41104670000095,328.41104670000095,330.02878390000114,Objects\103a.jpg,post,s,1.6056361999999353,None,,,,,,,,00055,001,2026-01-18_19h02.33.344,MST_test,2024.2.0,59.697180084037306,2026-01-18 19h02.44.723078 +0530,
76,0,77,o,1.3918026000010286,None,77,0,76,330.04383060000146,,,,,,,,,,,,,,,,,,,,,,,,,,,,,,,,,,,,,,,,,,,,,,,,,,330.0290764000001,330.04383060000146,330.5440758000004,330.52840450000076,330.53656030000093,330.5440758000004,330.5440758000004,330.5440758000004,331.94581890000154,Objects\028a.jpg,pre,o,1.3918026000010286,None,,,,,,,,00055,001,2026-01-18_19h02.33.344,MST_test,2024.2.0,59.697180084037306,2026-01-18 19h02.44.723078 +0530,
77,0,78,n,0.9789124999988417,None,78,0,77,331.9603807000003,,,,,,,,,,,,,,,,,,,,,,,,,,,,,,,,,,,,,,,,,,,,,,,,,,331.94621820000066,331.9603807000003,332.460645000001,332.44504380000035,332.4512687000006,332.460645000001,332.460645000001,332.460645000001,333.4456659000007,Objects\166a.jpg,pre,n,0.9789124999988417,None,,,,,,,,00055,001,2026-01-18_19h02.33.344,MST_test,2024.2.0,59.697180084037306,2026-01-18 19h02.44.723078 +0530,
78,0,79,n,0.996271699999852,None,79,0,78,333.4605636000015,,,,,,,,,,,,,,,,,,,,,,,,,,,,,,,,,,,,,,,,,,,,,,,,,,333.44591910000054,333.4605636000015,333.9882987000001,333.9452235000008,333.98448720000124,333.9882987000001,333.9882987000001,333.9882987000001,334.9957159000005,Foils\scenes12.jpg,none,n,0.996271699999852,None,,,,,,,,00055,001,2026-01-18_19h02.33.344,MST_test,2024.2.0,59.697180084037306,2026-01-18 19h02.44.723078 +0530,
79,0,80,o,1.5632626000005985,None,80,0,79,335.0104988000003,,,,,,,,,,,,,,,,,,,,,,,,,,,,,,,,,,,,,,,,,,,,,,,,,,334.99606140000105,335.0104988000003,335.5107398,335.4949678000012,335.5014628000008,335.5107398,335.5107398,335.5107398,337.07946040000024,Objects\188a.jpg,post,o,1.5632626000005985,None,,,,,,,,00055,001,2026-01-18_19h02.33.344,MST_test,2024.2.0,59.697180084037306,2026-01-18 19h02.44.723078 +0530,
80,0,81,o,3.7678465000008146,None,81,0,80,337.0938580000002,,,,,,,,,,,,,,,,,,,,,,,,,,,,,,,,,,,,,,,,,,,,,,,,,,337.0798199000001,337.0938580000002,337.63277590000143,337.57847610000135,337.6300615,337.63277590000143,337.63277590000143,337.63277590000143,341.4124733000008,Objects\071b.jpg,mid,o,3.7678465000008146,None,,,,,,,,00055,001,2026-01-18_19h02.33.344,MST_test,2024.2.0,59.697180084037306,2026-01-18 19h02.44.723078 +0530,
81,0,82,n,1.0745963999997912,None,82,0,81,341.42712870000105,,,,,,,,,,,,,,,,,,,,,,,,,,,,,,,,,,,,,,,,,,,,,,,,,,341.4128209999999,341.42712870000105,341.94162420000066,341.91165020000153,341.9392005999998,341.94162420000066,341.94162420000066,341.94162420000066,343.02901290000045,Foils\113a.jpg,none,n,1.0745963999997912,None,,,,,,,,00055,001,2026-01-18_19h02.33.344,MST_test,2024.2.0,59.697180084037306,2026-01-18 19h02.44.723078 +0530,
82,0,83,s,1.9262930000004417,None,83,0,82,343.04380990000027,,,,,,,,,,,,,,,,,,,,,,,,,,,,,,,,,,,,,,,,,,,,,,,,,,343.0292496000002,343.04380990000027,343.60123639999983,343.52820539999993,343.59799470000144,343.60123639999983,343.60123639999983,343.60123639999983,345.52952000000005,Scenes\025b.jpg,pre,s,1.9262930000004417,None,,,,,,,,00055,001,2026-01-18_19h02.33.344,MST_test,2024.2.0,59.697180084037306,2026-01-18 19h02.44.723078 +0530,
83,0,84,n,1.28323889999956,None,84,0,83,345.5440187000004,,,,,,,,,,,,,,,,,,,,,,,,,,,,,,,,,,,,,,,,,,,,,,,,,,345.5299089,345.5440187000004,346.0766723000015,346.0280799000011,346.0730736000005,346.0766723000015,346.0766723000015,346.0766723000015,347.3626053000007,Objects\132b.jpg,mid,n,1.28323889999956,None,,,,,,,,00055,001,2026-01-18_19h02.33.344,MST_test,2024.2.0,59.697180084037306,2026-01-18 19h02.44.723078 +0530,
84,0,85,o,1.9389018999991094,None,85,0,84,347.3781059000012,,,,,,,,,,,,,,,,,,,,,,,,,,,,,,,,,,,,,,,,,,,,,,,,,,347.36302539999997,347.3781059000012,347.9020954000007,347.8617654999998,347.89936430000125,347.9020954000007,347.9020954000007,347.9020954000007,349.8454388000009,Objects\124b.jpg,post,o,1.9389018999991094,None,,,,,,,,00055,001,2026-01-18_19h02.33.344,MST_test,2024.2.0,59.697180084037306,2026-01-18 19h02.44.723078 +0530,
85,0,86,o,1.1402525000012247,None,86,0,85,349.86038650000046,,,,,,,,,,,,,,,,,,,,,,,,,,,,,,,,,,,,,,,,,,,,,,,,,,349.84568930000023,349.86038650000046,350.3641324,350.34500090000074,350.36094050000065,350.3641324,350.3641324,350.3641324,351.5126839000004,Scenes\076a.jpg,post,o,1.1402525000012247,None,,,,,,,,00055,001,2026-01-18_19h02.33.344,MST_test,2024.2.0,59.697180084037306,2026-01-18 19h02.44.723078 +0530,
86,0,87,n,1.7582889999994222,None,87,0,86,351.5270999000004,,,,,,,,,,,,,,,,,,,,,,,,,,,,,,,,,,,,,,,,,,,,,,,,,,351.51300020000053,351.5270999000004,352.1692385000006,352.0118457000008,352.1660563000005,352.1692385000006,352.1692385000006,352.1692385000006,353.92976310000086,Scenes\054b.jpg,post,n,1.7582889999994222,None,,,,,,,,00055,001,2026-01-18_19h02.33.344,MST_test,2024.2.0,59.697180084037306,2026-01-18 19h02.44.723078 +0530,
87,0,88,o,1.0068623000006482,None,88,0,87,353.9437271000006,,,,,,,,,,,,,,,,,,,,,,,,,,,,,,,,,,,,,,,,,,,,,,,,,,353.9300149999999,353.9437271000006,354.50473520000014,354.4286740000007,354.5001435000013,354.50473520000014,354.50473520000014,354.50473520000014,355.5283091000001,Foils\scenes22.jpg,none,o,1.0068623000006482,None,,,,,,,,00055,001,2026-01-18_19h02.33.344,MST_test,2024.2.0,59.697180084037306,2026-01-18 19h02.44.723078 +0530,
88,0,89,o,1.2048615000003338,None,89,0,88,355.5437732999999,,,,,,,,,,,,,,,,,,,,,,,,,,,,,,,,,,,,,,,,,,,,,,,,,,355.52851290000035,355.5437732999999,356.13225969999985,356.0286036000016,356.1282375999999,356.13225969999985,356.13225969999985,356.13225969999985,357.34585210000114,Scenes\010b.jpg,post,o,1.2048615000003338,None,,,,,,,,00055,001,2026-01-18_19h02.33.344,MST_test,2024.2.0,59.697180084037306,2026-01-18 19h02.44.723078 +0530,
89,0,90,n,3.970631100000901,None,90,0,89,357.3606041000003,,,,,,,,,,,,,,,,,,,,,,,,,,,,,,,,,,,,,,,,,,,,,,,,,,357.3462079000001,357.3606041000003,357.8939156000015,357.84478560000025,357.8910897000005,357.8939156000015,357.8939156000015,357.8939156000015,361.87946470000134,Foils\057a.jpg,none,n,3.970631100000901,None,,,,,,,,00055,001,2026-01-18_19h02.33.344,MST_test,2024.2.0,59.697180084037306,2026-01-18 19h02.44.723078 +0530,
90,0,91,o,4.000734499999453,None,91,0,90,361.89386080000077,,,,,,,,,,,,,,,,,,,,,,,,,,,,,,,,,,,,,,,,,,,,,,,,,,361.879875300001,361.89386080000077,362.44687390000036,362.37828679999984,362.4436480000004,362.44687390000036,362.44687390000036,362.44687390000036,366.46221850000074,Scenes\080b.jpg,pre,o,4.000734499999453,None,,,,,,,,00055,001,2026-01-18_19h02.33.344,MST_test,2024.2.0,59.697180084037306,2026-01-18 19h02.44.723078 +0530,
91,0,92,s,0.9513333999984752,None,92,0,91,366.4771410000012,,,,,,,,,,,,,,,,,,,,,,,,,,,,,,,,,,,,,,,,,,,,,,,,,,366.46246040000005,366.4771410000012,367.0083732000003,366.9616726000004,367.00480750000133,367.0083732000003,367.0083732000003,367.0083732000003,367.96263010000075,Objects\059b.jpg,post,s,0.9513333999984752,None,,,,,,,,00055,001,2026-01-18_19h02.33.344,MST_test,2024.2.0,59.697180084037306,2026-01-18 19h02.44.723078 +0530,
92,0,93,o,1.0008180000004359,None,93,0,92,367.9771416000003,,,,,,,,,,,,,,,,,,,,,,,,,,,,,,,,,,,,,,,,,,,,,,,,,,367.96289609999985,367.9771416000003,368.4956319000012,368.46170429999984,368.49253520000093,368.4956319000012,368.4956319000012,368.4956319000012,369.5123629000009,Objects\050b.jpg,pre,o,1.0008180000004359,None,,,,,,,,00055,001,2026-01-18_19h02.33.344,MST_test,2024.2.0,59.697180084037306,2026-01-18 19h02.44.723078 +0530,
93,0,94,n,1.6866590999998152,None,94,0,93,369.5272029000007,,,,,,,,,,,,,,,,,,,,,,,,,,,,,,,,,,,,,,,,,,,,,,,,,,369.5127071000006,369.5272029000007,370.04171430000133,370.0115412000014,370.038427200001,370.04171430000133,370.04171430000133,370.04171430000133,371.7458544000001,Objects\100b.jpg,pre,n,1.6866590999998152,None,,,,,,,,00055,001,2026-01-18_19h02.33.344,MST_test,2024.2.0,59.697180084037306,2026-01-18 19h02.44.723078 +0530,
94,0,95,o,1.4032434000000649,None,95,0,94,371.7606850000011,,,,,,,,,,,,,,,,,,,,,,,,,,,,,,,,,,,,,,,,,,,,,,,,,,371.7462237,371.7606850000011,372.28545889999987,372.2451333000008,372.2828547000008,372.28545889999987,372.28545889999987,372.28545889999987,373.69613759999993,Objects\135b.jpg,pre,o,1.4032434000000649,None,,,,,,,,00055,001,2026-01-18_19h02.33.344,MST_test,2024.2.0,59.697180084037306,2026-01-18 19h02.44.723078 +0530,
95,0,96,o,1.356603800000812,None,96,0,95,373.7104950000012,,,,,,,,,,,,,,,,,,,,,,,,,,,,,,,,,,,,,,,,,,,,,,,,,,373.69653220000146,373.7104950000012,374.21922900000027,374.1949861000012,374.2150108000005,374.21922900000027,374.21922900000027,374.21922900000027,375.5792314999999,Scenes\020a.jpg,mid,o,1.356603800000812,None,,,,,,,,00055,001,2026-01-18_19h02.33.344,MST_test,2024.2.0,59.697180084037306,2026-01-18 19h02.44.723078 +0530,
96,0,97,o,4.004717199999504,None,97,0,96,375.59369980000156,,,,,,,,,,,,,,,,,,,,,,,,,,,,,,,,,,,,,,,,,,,,,,,,,,375.5795231000011,375.59369980000156,376.11551640000107,376.07829800000036,376.11223750000136,376.11551640000107,376.11551640000107,376.11551640000107,380.1292454000013,Foils\017a.jpg,none,o,4.004717199999504,None,,,,,,,,00055,001,2026-01-18_19h02.33.344,MST_test,2024.2.0,59.697180084037306,2026-01-18 19h02.44.723078 +0530,
97,0,98,o,0.866851200000383,None,98,0,97,380.1441386000006,,,,,,,,,,,,,,,,,,,,,,,,,,,,,,,,,,,,,,,,,,,,,,,,,,380.12949370000024,380.1441386000006,380.64479220000067,380.62837930000023,380.6418099000002,380.64479220000067,380.64479220000067,380.64479220000067,381.5292706,Scenes\017a.jpg,post,o,0.866851200000383,None,,,,,,,,00055,001,2026-01-18_19h02.33.344,MST_test,2024.2.0,59.697180084037306,2026-01-18 19h02.44.723078 +0530,
98,0,99,o,0.8764248999996198,None,99,0,98,381.5441062000009,,,,,,,,,,,,,,,,,,,,,,,,,,,,,,,,,,,,,,,,,,,,,,,,,,381.5296666000013,381.5441062000009,382.0443836000013,382.0283690000015,382.03780929999994,382.0443836000013,382.0443836000013,382.0443836000013,382.9296516000013,Objects\163a.jpg,pre,o,0.8764248999996198,None,,,,,,,,00055,001,2026-01-18_19h02.33.344,MST_test,2024.2.0,59.697180084037306,2026-01-18 19h02.44.723078 +0530,
99,0,100,o,1.3325167000002693,None,100,0,99,382.94372509999994,,,,,,,,,,,,,,,,,,,,,,,,,,,,,,,,,,,,,,,,,,,,,,,,,,382.92996850000054,382.94372509999994,383.4441549000003,383.4283058000001,383.4366194000013,383.4441549000003,383.4441549000003,383.4441549000003,384.7793816000012,Objects\042a.jpg,mid,o,1.3325167000002693,None,,,,,,,,00055,001,2026-01-18_19h02.33.344,MST_test,2024.2.0,59.697180084037306,2026-01-18 19h02.44.723078 +0530,
100,0,101,o,0.9148076000001311,None,101,0,100,384.7937871000013,,,,,,,,,,,,,,,,,,,,,,,,,,,,,,,,,,,,,,,,,,,,,,,,,,384.77968450000117,384.7937871000013,385.2942047000015,385.27840880000076,385.2844083,385.2942047000015,385.2942047000015,385.2942047000015,386.2125883000008,Objects\011a.jpg,post,o,0.9148076000001311,None,,,,,,,,00055,001,2026-01-18_19h02.33.344,MST_test,2024.2.0,59.697180084037306,2026-01-18 19h02.44.723078 +0530,
101,0,102,o,1.2336430000013934,None,102,0,101,386.2273212,,,,,,,,,,,,,,,,,,,,,,,,,,,,,,,,,,,,,,,,,,,,,,,,,,386.2130068000006,386.2273212,386.7274242000003,386.71161980000034,386.71958860000086,386.7274242000003,386.7274242000003,386.7274242000003,387.96324559999994,Objects\004a.jpg,post,o,1.2336430000013934,None,,,,,,,,00055,001,2026-01-18_19h02.33.344,MST_test,2024.2.0,59.697180084037306,2026-01-18 19h02.44.723078 +0530,
102,0,103,n,1.8588110999990022,None,103,0,102,387.9782195000007,,,,,,,,,,,,,,,,,,,,,,,,,,,,,,,,,,,,,,,,,,,,,,,,,,387.9635094000005,387.9782195000007,388.47782110000117,388.4616074000005,388.4674255000009,388.47782110000117,388.47782110000117,388.47782110000117,390.3455391000007,Objects\041a.jpg,pre,n,1.8588110999990022,None,,,,,,,,00055,001,2026-01-18_19h02.33.344,MST_test,2024.2.0,59.697180084037306,2026-01-18 19h02.44.723078 +0530,
103,0,104,o,1.5563935999998648,None,104,0,103,390.36061430000154,,,,,,,,,,,,,,,,,,,,,,,,,,,,,,,,,,,,,,,,,,,,,,,,,,390.3459460000013,390.36061430000154,390.90744240000095,390.84515100000135,390.9043898,390.90744240000095,390.90744240000095,390.90744240000095,392.4794974000015,Scenes\021b.jpg,mid,o,1.5563935999998648,None,,,,,,,,00055,001,2026-01-18_19h02.33.344,MST_test,2024.2.0,59.697180084037306,2026-01-18 19h02.44.723078 +0530,
104,0,105,o,0.8952185999987705,None,105,0,104,392.4937495000013,,,,,,,,,,,,,,,,,,,,,,,,,,,,,,,,,,,,,,,,,,,,,,,,,,392.4799090000015,392.4937495000013,392.99439060000077,392.9782873000004,392.98720330000106,392.99439060000077,392.99439060000077,392.99439060000077,393.8952706,Objects\109a.jpg,mid,o,0.8952185999987705,None,,,,,,,,00055,001,2026-01-18_19h02.33.344,MST_test,2024.2.0,59.697180084037306,2026-01-18 19h02.44.723078 +0530,
105,0,106,s,1.4611853000005794,None,106,0,105,393.91044990000046,,,,,,,,,,,,,,,,,,,,,,,,,,,,,,,,,,,,,,,,,,,,,,,,,,393.89547570000104,393.91044990000046,394.41154129999995,394.3949958000012,394.40214000000014,394.41154129999995,394.41154129999995,394.41154129999995,395.8793192000012,Objects\168a.jpg,pre,s,1.4611853000005794,None,,,,,,,,00055,001,2026-01-18_19h02.33.344,MST_test,2024.2.0,59.697180084037306,2026-01-18 19h02.44.723078 +0530,
106,0,107,n,2.67928270000084,None,107,0,106,395.89383930000076,,,,,,,,,,,,,,,,,,,,,,,,,,,,,,,,,,,,,,,,,,,,,,,,,,395.8796043000002,395.89383930000076,396.4087008000006,396.37827260000086,396.4053820000008,396.4087008000006,396.4087008000006,396.4087008000006,399.09615440000016,Objects\049b.jpg,mid,n,2.67928270000084,None,,,,,,,,00055,001,2026-01-18_19h02.33.344,MST_test,2024.2.0,59.697180084037306,2026-01-18 19h02.44.723078 +0530,
107,0,108,o,1.044138399998701,None,108,0,107,399.1103354000006,,,,,,,,,,,,,,,,,,,,,,,,,,,,,,,,,,,,,,,,,,,,,,,,,,399.09647290000066,399.1103354000006,399.62866510000094,399.5950246000011,399.6248981000008,399.62866510000094,399.62866510000094,399.62866510000094,400.6793127000001,Scenes\008b.jpg,post,o,1.044138399998701,None,,,,,,,,00055,001,2026-01-18_19h02.33.344,MST_test,2024.2.0,59.697180084037306,2026-01-18 19h02.44.723078 +0530,
108,0,109,o,1.4225253000004159,None,109,0,108,400.6938039000015,,,,,,,,,,,,,,,,,,,,,,,,,,,,,,,,,,,,,,,,,,,,,,,,,,400.6796426000001,400.6938039000015,401.2178820000008,401.17820140000003,401.21431740000116,401.2178820000008,401.2178820000008,401.2178820000008,402.64614820000133,Foils\scenes7.jpg,none,o,1.4225253000004159,None,,,,,,,,00055,001,2026-01-18_19h02.33.344,MST_test,2024.2.0,59.697180084037306,2026-01-18 19h02.44.723078 +0530,
109,0,110,o,1.3897807999983343,None,110,0,109,402.6604317000001,,,,,,,,,,,,,,,,,,,,,,,,,,,,,,,,,,,,,,,,,,,,,,,,,,402.64657070000067,402.6604317000001,403.2101164000014,403.14498860000094,403.2071541000005,403.2101164000014,403.2101164000014,403.2101164000014,404.6134514000005,Scenes\154b.jpg,pre,o,1.3897807999983343,None,,,,,,,,00055,001,2026-01-18_19h02.33.344,MST_test,2024.2.0,59.697180084037306,2026-01-18 19h02.44.723078 +0530,
110,0,111,n,0.8146064000011393,None,111,0,110,404.6272904000016,,,,,,,,,,,,,,,,,,,,,,,,,,,,,,,,,,,,,,,,,,,,,,,,,,404.6138626000011,404.6272904000016,405.1296880000009,405.111803400001,405.1266073000006,405.1296880000009,405.1296880000009,405.1296880000009,405.9464672000013,Scenes\132a.jpg,pre,n,0.8146064000011393,None,,,,,,,,00055,001,2026-01-18_19h02.33.344,MST_test,2024.2.0,59.697180084037306,2026-01-18 19h02.44.723078 +0530,
111,0,112,n,0.9425860999999713,None,112,0,111,405.96084770000016,,,,,,,,,,,,,,,,,,,,,,,,,,,,,,,,,,,,,,,,,,,,,,,,,,405.94680340000014,405.96084770000016,406.5697992000005,406.44475050000074,406.5664949000002,406.5697992000005,406.5697992000005,406.5697992000005,407.52906240000084,Scenes\011b.jpg,mid,n,0.9425860999999713,None,,,,,,,,00055,001,2026-01-18_19h02.33.344,MST_test,2024.2.0,59.697180084037306,2026-01-18 19h02.44.723078 +0530,
112,0,113,o,1.8798277000005328,None,113,0,112,407.54394330000105,,,,,,,,,,,,,,,,,,,,,,,,,,,,,,,,,,,,,,,,,,,,,,,,,,407.52947980000135,407.54394330000105,408.0967046000005,408.02837610000097,408.09337080000114,408.0967046000005,408.0967046000005,408.0967046000005,409.98047829999996,Foils\scenes23.jpg,none,o,1.8798277000005328,None,,,,,,,,00055,001,2026-01-18_19h02.33.344,MST_test,2024.2.0,59.697180084037306,2026-01-18 19h02.44.723078 +0530,
113,0,114,o,0.8963414999998349,None,114,0,113,409.9939986999998,,,,,,,,,,,,,,,,,,,,,,,,,,,,,,,,,,,,,,,,,,,,,,,,,,409.9807861999998,409.9939986999998,410.6075445000006,410.47919940000065,410.6023193000001,410.6075445000006,410.6075445000006,410.6075445000006,411.51315760000034,Foils\scenes25.jpg,none,o,0.8963414999998349,None,,,,,,,,00055,001,2026-01-18_19h02.33.344,MST_test,2024.2.0,59.697180084037306,2026-01-18 19h02.44.723078 +0530,
114,0,115,n,1.9159080000008544,None,115,0,114,411.52698020000025,,,,,,,,,,,,,,,,,,,,,,,,,,,,,,,,,,,,,,,,,,,,,,,,,,411.5135050000008,411.52698020000025,412.0607273000005,412.01197180000054,412.05561710000075,412.0607273000005,412.0607273000005,412.0607273000005,413.9792785000009,Foils\086a.jpg,none,n,1.9159080000008544,None,,,,,,,,00055,001,2026-01-18_19h02.33.344,MST_test,2024.2.0,59.697180084037306,2026-01-18 19h02.44.723078 +0530,
115,0,116,n,0.7532563999993727,None,116,0,115,413.99387019999995,,,,,,,,,,,,,,,,,,,,,,,,,,,,,,,,,,,,,,,,,,,,,,,,,,413.9796452999999,413.99387019999995,414.5187616000003,414.47821440000007,414.5159328999998,414.5187616000003,414.5187616000003,414.5187616000003,415.2798520000015,Foils\093b.jpg,none,n,0.7532563999993727,None,,,,,,,,00055,001,2026-01-18_19h02.33.344,MST_test,2024.2.0,59.697180084037306,2026-01-18 19h02.44.723078 +0530,
116,0,117,n,0.7458393000015349,None,117,0,116,415.2939686999998,,,,,,,,,,,,,,,,,,,,,,,,,,,,,,,,,,,,,,,,,,,,,,,,,,415.2801362000009,415.2939686999998,415.7982229999998,415.77906520000033,415.7957165000007,415.7982229999998,415.7982229999998,415.7982229999998,416.5465032000011,Foils\090a.jpg,none,n,0.7458393000015349,None,,,,,,,,00055,001,2026-01-18_19h02.33.344,MST_test,2024.2.0,59.697180084037306,2026-01-18 19h02.44.723078 +0530,
117,0,118,n,0.6541452999990724,None,118,0,117,416.56042460000026,,,,,,,,,,,,,,,,,,,,,,,,,,,,,,,,,,,,,,,,,,,,,,,,,,416.546822100001,416.56042460000026,417.06607150000127,417.045309000001,417.063484100001,417.06607150000127,417.06607150000127,417.06607150000127,417.729346600001,Objects\060b.jpg,post,n,0.6541452999990724,None,,,,,,,,00055,001,2026-01-18_19h02.33.344,MST_test,2024.2.0,59.697180084037306,2026-01-18 19h02.44.723078 +0530,
118,0,119,s,0.745645399998466,None,119,0,118,417.7442116000002,,,,,,,,,,,,,,,,,,,,,,,,,,,,,,,,,,,,,,,,,,,,,,,,,,417.72974240000076,417.7442116000002,418.2785874000001,418.22861170000033,418.2753274000006,418.2785874000001,418.2785874000001,418.2785874000001,419.02899890000117,Objects\015b.jpg,post,s,0.745645399998466,None,,,,,,,,00055,001,2026-01-18_19h02.33.344,MST_test,2024.2.0,59.697180084037306,2026-01-18 19h02.44.723078 +0530,
119,0,120,n,0.7419826000004832,None,120,0,119,419.04412910000065,,,,,,,,,,,,,,,,,,,,,,,,,,,,,,,,,,,,,,,,,,,,,,,,,,419.02926110000044,419.04412910000065,419.5613725000003,419.5285221000013,419.55875370000103,419.5613725000003,419.5613725000003,419.5613725000003,420.3126951000013,Foils\098a.jpg,none,n,0.7419826000004832,None,,,,,,,,00055,001,2026-01-18_19h02.33.344,MST_test,2024.2.0,59.697180084037306,2026-01-18 19h02.44.723078 +0530,
120,0,121,n,0.8323019999988901,None,121,0,120,420.32709440000144,,,,,,,,,,,,,,,,,,,,,,,,,,,,,,,,,,,,,,,,,,,,,,,,,,420.31298530000095,420.32709440000144,420.84703360000094,420.81165260000125,420.8444573000015,420.84703360000094,420.84703360000094,420.84703360000094,421.69605800000136,Objects\116b.jpg,mid,n,0.8323019999988901,None,,,,,,,,00055,001,2026-01-18_19h02.33.344,MST_test,2024.2.0,59.697180084037306,2026-01-18 19h02.44.723078 +0530,
121,0,122,n,1.343118199998571,None,122,0,121,421.71053030000076,,,,,,,,,,,,,,,,,,,,,,,,,,,,,,,,,,,,,,,,,,,,,,,,,,421.6963800000012,421.71053030000076,422.34547870000097,422.1951353000004,422.3427988000003,422.34547870000097,422.34547870000097,422.34547870000097,423.69568190000064,Scenes\086b.jpg,mid,n,1.343118199998571,None,,,,,,,,00055,001,2026-01-18_19h02.33.344,MST_test,2024.2.0,59.697180084037306,2026-01-18 19h02.44.723078 +0530,
122,0,123,o,1.1325073999996675,None,123,0,122,423.7109580000015,,,,,,,,,,,,,,,,,,,,,,,,,,,,,,,,,,,,,,,,,,,,,,,,,,423.69602920000034,423.7109580000015,424.2114614000002,424.1948665,424.2032919000012,424.2114614000002,424.2114614000002,424.2114614000002,425.34614540000075,Objects\007a.jpg,mid,o,1.1325073999996675,None,,,,,,,,00055,001,2026-01-18_19h02.33.344,MST_test,2024.2.0,59.697180084037306,2026-01-18 19h02.44.723078 +0530,
123,0,124,n,0.8578471000000718,None,124,0,123,425.3606971999998,,,,,,,,,,,,,,,,,,,,,,,,,,,,,,,,,,,,,,,,,,,,,,,,,,425.3464958000004,425.3606971999998,425.88654660000066,425.84491890000027,425.8837973999998,425.88654660000066,425.88654660000066,425.88654660000066,426.74695190000057,Foils\009a.jpg,none,n,0.8578471000000718,None,,,,,,,,00055,001,2026-01-18_19h02.33.344,MST_test,2024.2.0,59.697180084037306,2026-01-18 19h02.44.723078 +0530,
124,0,125,n,0.8985713000001851,None,125,0,124,426.7605534000013,,,,,,,,,,,,,,,,,,,,,,,,,,,,,,,,,,,,,,,,,,,,,,,,,,426.74721670000145,426.7605534000013,427.2850223000005,427.2449211000003,427.2821894000008,427.2850223000005,427.2850223000005,427.2850223000005,428.19588530000146,Foils\049a.jpg,none,n,0.8985713000001851,None,,,,,,,,00055,001,2026-01-18_19h02.33.344,MST_test,2024.2.0,59.697180084037306,2026-01-18 19h02.44.723078 +0530,
125,0,126,o,0.8473587999997108,None,126,0,125,428.21063700000013,,,,,,,,,,,,,,,,,,,,,,,,,,,,,,,,,,,,,,,,,,,,,,,,,,428.1963014000012,428.21063700000013,428.7684532000003,428.69489860000067,428.76519220000046,428.7684532000003,428.7684532000003,428.7684532000003,429.62899930000094,Scenes\034b.jpg,pre,o,0.8473587999997108,None,,,,,,,,00055,001,2026-01-18_19h02.33.344,MST_test,2024.2.0,59.697180084037306,2026-01-18 19h02.44.723078 +0530,
126,0,127,n,1.1897343000000546,None,127,0,126,429.6439293000003,,,,,,,,,,,,,,,,,,,,,,,,,,,,,,,,,,,,,,,,,,,,,,,,,,429.6294011000009,429.6439293000003,430.2024333999998,430.12836400000015,430.1989824000011,430.2024333999998,430.2024333999998,430.2024333999998,431.3959919000008,Scenes\128b.jpg,mid,n,1.1897343000000546,None,,,,,,,,00055,001,2026-01-18_19h02.33.344,MST_test,2024.2.0,59.697180084037306,2026-01-18 19h02.44.723078 +0530,
127,0,128,n,0.56028040000092,None,128,0,127,431.41040109999994,,,,,,,,,,,,,,,,,,,,,,,,,,,,,,,,,,,,,,,,,,,,,,,,,,431.39626210000097,431.41040109999994,431.91233160000047,431.8950923000011,431.9084369000011,431.91233160000047,431.91233160000047,431.91233160000047,432.4796006000015,Scenes\150a.jpg,pre,n,0.56028040000092,None,,,,,,,,00055,001,2026-01-18_19h02.33.344,MST_test,2024.2.0,59.697180084037306,2026-01-18 19h02.44.723078 +0530,
128,0,129,n,0.741594899998745,None,129,0,128,432.4938894000006,,,,,,,,,,,,,,,,,,,,,,,,,,,,,,,,,,,,,,,,,,,,,,,,,,432.4798288000002,432.4938894000006,433.00189330000103,432.97845400000006,432.9986509999999,433.00189330000103,433.00189330000103,433.00189330000103,433.7460084000013,Scenes\001a.jpg,mid,n,0.741594899998745,None,,,,,,,,00055,001,2026-01-18_19h02.33.344,MST_test,2024.2.0,59.697180084037306,2026-01-18 19h02.44.723078 +0530,
129,0,130,n,0.9691215999991982,None,130,0,129,433.7606044000004,,,,,,,,,,,,,,,,,,,,,,,,,,,,,,,,,,,,,,,,,,,,,,,,,,433.74624740000036,433.7606044000004,434.27895640000133,434.2448666,434.27594450000106,434.27895640000133,434.27895640000133,434.27895640000133,435.2626968000004,Objects\058b.jpg,mid,n,0.9691215999991982,None,,,,,,,,00055,001,2026-01-18_19h02.33.344,MST_test,2024.2.0,59.697180084037306,2026-01-18 19h02.44.723078 +0530,
130,0,131,n,0.7270814000003156,None,131,0,130,435.2772377000001,,,,,,,,,,,,,,,,,,,,,,,,,,,,,,,,,,,,,,,,,,,,,,,,,,435.2629925000001,435.2772377000001,435.8006294000006,435.7614061000004,435.79828140000063,435.8006294000006,435.8006294000006,435.8006294000006,436.5297810000011,Objects\183b.jpg,post,n,0.7270814000003156,None,,,,,,,,00055,001,2026-01-18_19h02.33.344,MST_test,2024.2.0,59.697180084037306,2026-01-18 19h02.44.723078 +0530,
131,0,132,s,1.484818599999926,None,132,0,131,436.54390520000015,,,,,,,,,,,,,,,,,,,,,,,,,,,,,,,,,,,,,,,,,,,,,,,,,,436.5301169000013,436.54390520000015,437.08344040000156,437.02829180000117,437.0805540000001,437.08344040000156,437.08344040000156,437.08344040000156,438.57902640000066,Foils\scenes28.jpg,none,s,1.484818599999926,None,,,,,,,,00055,001,2026-01-18_19h02.33.344,MST_test,2024.2.0,59.697180084037306,2026-01-18 19h02.44.723078 +0530,
132,0,133,n,0.6665257000004203,None,133,0,132,438.593910900001,,,,,,,,,,,,,,,,,,,,,,,,,,,,,,,,,,,,,,,,,,,,,,,,,,438.5794263000007,438.593910900001,439.1422427000016,439.078182700001,439.13865970000006,439.1422427000016,439.1422427000016,439.1422427000016,439.8125239000001,Scenes\119b.jpg,mid,n,0.6665257000004203,None,,,,,,,,00055,001,2026-01-18_19h02.33.344,MST_test,2024.2.0,59.697180084037306,2026-01-18 19h02.44.723078 +0530,
133,0,134,n,0.37587750000056985,None,134,0,133,439.8280461000013,,,,,,,,,,,,,,,,,,,,,,,,,,,,,,,,,,,,,,,,,,,,,,,,,,439.8127869,439.8280461000013,440.3278820000014,440.31163190000007,440.3220212000015,440.3278820000014,440.3278820000014,440.3278820000014,440.7120740999999,Scenes\147a.jpg,pre,n,0.37587750000056985,None,,,,,,,,00055,001,2026-01-18_19h02.33.344,MST_test,2024.2.0,59.697180084037306,2026-01-18 19h02.44.723078 +0530,
134,0,135,n,0.40335119999872404,None,135,0,134,440.72711470000104,,,,,,,,,,,,,,,,,,,,,,,,,,,,,,,,,,,,,,,,,,,,,,,,,,440.7123969000004,440.72711470000104,441.34883590000027,441.21191200000067,441.30577880000055,441.34883590000027,441.34883590000027,441.34883590000027,441.76285540000026,Scenes\069b.jpg,pre,n,0.40335119999872404,None,,,,,,,,00055,001,2026-01-18_19h02.33.344,MST_test,2024.2.0,59.697180084037306,2026-01-18 19h02.44.723078 +0530,
135,0,136,n,1.6018635999989783,None,136,0,135,441.77717550000125,,,,,,,,,,,,,,,,,,,,,,,,,,,,,,,,,,,,,,,,,,,,,,,,,,441.7631820000006,441.77717550000125,442.2776934000012,442.2618083000016,442.27110690000154,442.2776934000012,442.2776934000012,442.2776934000012,443.8956909000008,Objects\127a.jpg,post,n,1.6018635999989783,None,,,,,,,,00055,001,2026-01-18_19h02.33.344,MST_test,2024.2.0,59.697180084037306,2026-01-18 19h02.44.723078 +0530,
136,0,137,n,0.6284551000007923,None,137,0,136,443.91050670000004,,,,,,,,,,,,,,,,,,,,,,,,,,,,,,,,,,,,,,,,,,,,,,,,,,443.89599030000136,443.91050670000004,444.4763356000003,444.39494860000013,444.4727135000012,444.4763356000003,444.4763356000003,444.4763356000003,445.1129423000002,Scenes\117b.jpg,mid,n,0.6284551000007923,None,,,,,,,,00055,001,2026-01-18_19h02.33.344,MST_test,2024.2.0,59.697180084037306,2026-01-18 19h02.44.723078 +0530,
137,0,138,n,0.5151480000004085,None,138,0,137,445.1271947000005,,,,,,,,,,,,,,,,,,,,,,,,,,,,,,,,,,,,,,,,,,,,,,,,,,445.1133323000013,445.1271947000005,445.70092250000016,445.61175110000113,445.6977674000009,445.70092250000016,445.70092250000016,445.70092250000016,446.22866729999987,Objects\093b.jpg,pre,n,0.5151480000004085,None,,,,,,,,00055,001,2026-01-18_19h02.33.344,MST_test,2024.2.0,59.697180084037306,2026-01-18 19h02.44.723078 +0530,
138,0,139,n,3.6871970999982295,None,139,0,138,446.24395189999996,,,,,,,,,,,,,,,,,,,,,,,,,,,,,,,,,,,,,,,,,,,,,,,,,,446.22900819999995,446.24395189999996,446.7442520000004,446.72847900000124,446.7344118000001,446.7442520000004,446.7442520000004,446.7442520000004,450.4457805000002,Scenes\053a.jpg,pre,n,3.6871970999982295,None,,,,,,,,00055,001,2026-01-18_19h02.33.344,MST_test,2024.2.0,59.697180084037306,2026-01-18 19h02.44.723078 +0530,
139,0,140,o,17.500617499999862,None,140,0,139,450.4605659000008,,,,,,,,,,,,,,,,,,,,,,,,,,,,,,,,,,,,,,,,,,,,,,,,,,450.44618570000057,450.4605659000008,451.0040101000013,450.9449955,451.0013037000008,451.0040101000013,451.0040101000013,451.0040101000013,468.51266080000096,Scenes\141b.jpg,pre,o,17.500617499999862,None,,,,,,,,00055,001,2026-01-18_19h02.33.344,MST_test,2024.2.0,59.697180084037306,2026-01-18 19h02.44.723078 +0530,
140,0,141,n,0.9424259999996139,None,141,0,140,468.5272208000006,,,,,,,,,,,,,,,,,,,,,,,,,,,,,,,,,,,,,,,,,,,,,,,,,,468.5131067000002,468.5272208000006,469.09001630000057,469.0117678000006,469.0865396999998,469.09001630000057,469.09001630000057,469.09001630000057,470.0455711000013,Scenes\029b.jpg,pre,n,0.9424259999996139,None,,,,,,,,00055,001,2026-01-18_19h02.33.344,MST_test,2024.2.0,59.697180084037306,2026-01-18 19h02.44.723078 +0530,
141,0,142,o,1.1298102000000654,None,142,0,141,470.0609979000001,,,,,,,,,,,,,,,,,,,,,,,,,,,,,,,,,,,,,,,,,,,,,,,,,,470.0457832000011,470.0609979000001,470.5662032,470.5451585999999,470.5624660000012,470.5662032,470.5662032,470.5662032,471.7126446000002,Scenes\072a.jpg,pre,o,1.1298102000000654,None,,,,,,,,00055,001,2026-01-18_19h02.33.344,MST_test,2024.2.0,59.697180084037306,2026-01-18 19h02.44.723078 +0530,
142,0,143,o,1.6362853000009636,None,143,0,142,471.7271075000008,,,,,,,,,,,,,,,,,,,,,,,,,,,,,,,,,,,,,,,,,,,,,,,,,,471.71297290000075,471.7271075000008,472.2844614000005,472.21157160000075,472.28108390000125,472.2844614000005,472.2844614000005,472.2844614000005,473.9293428000001,Scenes\131b.jpg,mid,o,1.6362853000009636,None,,,,,,,,00055,001,2026-01-18_19h02.33.344,MST_test,2024.2.0,59.697180084037306,2026-01-18 19h02.44.723078 +0530,
143,0,144,n,1.3077242999988812,None,144,0,143,473.94389240000055,,,,,,,,,,,,,,,,,,,,,,,,,,,,,,,,,,,,,,,,,,,,,,,,,,473.9297368000007,473.94389240000055,474.4926050000013,474.42831430000115,474.4888703000015,474.4926050000013,474.4926050000013,474.4926050000013,475.81253470000047,Objects\178b.jpg,pre,n,1.3077242999988812,None,,,,,,,,00055,001,2026-01-18_19h02.33.344,MST_test,2024.2.0,59.697180084037306,2026-01-18 19h02.44.723078 +0530,
144,0,145,n,3.1468738000003214,None,145,0,144,475.8271910000003,,,,,,,,,,,,,,,,,,,,,,,,,,,,,,,,,,,,,,,,,,,,,,,,,,475.8128714000013,475.8271910000003,476.34928279999986,476.31177209999987,476.34601720000137,476.34928279999986,476.34928279999986,476.34928279999986,479.5124222000013,Foils\scenes16.jpg,none,n,3.1468738000003214,None,,,,,,,,00055,001,2026-01-18_19h02.33.344,MST_test,2024.2.0,59.697180084037306,2026-01-18 19h02.44.723078 +0530,
145,0,146,o,1.3322539999990113,None,146,0,145,479.52708429999984,,,,,,,,,,,,,,,,,,,,,,,,,,,,,,,,,,,,,,,,,,,,,,,,,,479.5128669000005,479.52708429999984,480.02782930000103,480.0116159999998,480.0177057000001,480.02782930000103,480.02782930000103,480.02782930000103,481.3626185000012,Objects\164a.jpg,post,o,1.3322539999990113,None,,,,,,,,00055,001,2026-01-18_19h02.33.344,MST_test,2024.2.0,59.697180084037306,2026-01-18 19h02.44.723078 +0530,
146,0,147,s,5.546112100000755,None,147,0,146,481.377487400001,,,,,,,,,,,,,,,,,,,,,,,,,,,,,,,,,,,,,,,,,,,,,,,,,,481.36285490000046,481.377487400001,481.9337744000004,481.86167600000044,481.93009600000005,481.9337744000004,481.9337744000004,481.9337744000004,487.4958609000005,Scenes\137b.jpg,post,s,5.546112100000755,None,,,,,,,,00055,001,2026-01-18_19h02.33.344,MST_test,2024.2.0,59.697180084037306,2026-01-18 19h02.44.723078 +0530,
147,0,148,s,0.9114196999998967,None,148,0,147,487.5104366000014,,,,,,,,,,,,,,,,,,,,,,,,,,,,,,,,,,,,,,,,,,,,,,,,,,487.4962738000013,487.5104366000014,488.03405790000033,487.9951914000012,488.03083400000105,488.03405790000033,488.03405790000033,488.03405790000033,488.9623601000003,Objects\003b.jpg,mid,s,0.9114196999998967,None,,,,,,,,00055,001,2026-01-18_19h02.33.344,MST_test,2024.2.0,59.697180084037306,2026-01-18 19h02.44.723078 +0530,
148,0,149,n,0.8613423000006151,None,149,0,148,488.9772245000004,,,,,,,,,,,,,,,,,,,,,,,,,,,,,,,,,,,,,,,,,,,,,,,,,,488.96280490000026,488.9772245000004,489.4821724000012,489.4616334000002,489.47935190000135,489.4821724000012,489.4821724000012,489.4821724000012,490.3459242000008,Scenes\114a.jpg,post,n,0.8613423000006151,None,,,,,,,,00055,001,2026-01-18_19h02.33.344,MST_test,2024.2.0,59.697180084037306,2026-01-18 19h02.44.723078 +0530,
149,0,150,s,1.096537100000205,None,150,0,149,490.36040649999995,,,,,,,,,,,,,,,,,,,,,,,,,,,,,,,,,,,,,,,,,,,,,,,,,,490.3461619999998,490.36040649999995,490.8950087000012,490.84499959999994,490.8918174999999,490.8950087000012,490.8950087000012,490.8950087000012,491.99576630000047,Objects\144b.jpg,post,s,1.096537100000205,None,,,,,,,,00055,001,2026-01-18_19h02.33.344,MST_test,2024.2.0,59.697180084037306,2026-01-18 19h02.44.723078 +0530,
,,,,,,,,,,,,,,,,,,,,,,,,,,,,,,,,,,,,,,,,,,,,,,,,,,,,,,,,,,,,,,,,,,,,,,,,,491.9959239,492.0105352999999,492.0105352999999,495.24577130000034,space,3.2294810000003054,None,00055,001,2026-01-18_19h02.33.344,MST_test,2024.2.0,59.697180084037306,2026-01-18 19h02.44.723078 +0530,
