thisN,thisTrialN,thisRepN,key_resp_3.keys,key_resp_3.rt,key_resp_3.duration,trials.thisRepN,trials.thisTrialN,trials.thisN,thisRow.t,notes,intro_page.started,text.started,key_resp.started,intro_page.stopped,key_resp.keys,key_resp.rt,key_resp.duration,instructions.started,text_2.started,key_resp_2.started,instructions.stopped,key_resp_2.keys,key_resp_2.rt,key_resp_2.duration,demo1.started,image_1.started,image_2.started,text_7.started,key_resp_6.started,text_9.started,demo1.stopped,key_resp_6.keys,key_resp_6.rt,key_resp_6.duration,demo2.started,image_5.started,image_6.started,text_11.started,text_12.started,key_resp_8.started,demo2.stopped,key_resp_8.keys,key_resp_8.rt,key_resp_8.duration,demo_conclusion.started,text_13.started,key_resp_9.started,demo_conclusion.stopped,key_resp_9.keys,key_resp_9.rt,key_resp_9.duration,start_test.started,text_6.started,key_resp_5.started,start_test.stopped,key_resp_5.keys,key_resp_5.rt,key_resp_5.duration,ISI.started,text_4.started,text_4.stopped,ISI.stopped,routine_1.started,image.started,text_3.started,key_resp_3.started,routine_1.stopped,image_path,position_of_stimuli,trials.key_resp_3.keys,trials.key_resp_3.rt,trials.key_resp_3.duration,End_page.started,text_5.started,key_resp_4.started,participant,session,date,expName,psychopyVersion,frameRate,expStart,
,,,,,,,,,,,0.0015314999982365407,0.003491899999062298,0.003491899999062298,17.190970599996945,space,17.180673700000625,None,,,,,,,,,,,,,,,,,,,,,,,,,,,,,,,,,,,,,,,,,,,,,,,,,,,,,,,,,,,00057,001,2026-01-18_22h26.01.980,MST_test,2024.2.0,59.88959951262023,2026-01-18 22h26.48.014365 +0530,
,,,,,,,,,,,,,,,,,,17.1911177999973,17.209111199998006,17.209111199998006,26.620324499999697,space,9.398672799998167,None,,,,,,,,,,,,,,,,,,,,,,,,,,,,,,,,,,,,,,,,,,,,,,,,,,,,00057,001,2026-01-18_22h26.01.980,MST_test,2024.2.0,59.88959951262023,2026-01-18 22h26.48.014365 +0530,
,,,,,,,,,,,,,,,,,,,,,,,,,26.620432299998356,26.65836749999653,26.65836749999653,26.65836749999653,26.65836749999653,26.65836749999653,32.90428149999934,space,6.23737919999985,None,,,,,,,,,,,,,,,,,,,,,,,,,,,,,,,,,,,,,,,,,,00057,001,2026-01-18_22h26.01.980,MST_test,2024.2.0,59.88959951262023,2026-01-18 22h26.48.014365 +0530,
,,,,,,,,,,,,,,,,,,,,,,,,,,,,,,,,,,,32.90435119999893,32.91919749999943,32.91919749999943,32.91919749999943,32.91919749999943,32.91919749999943,34.60406249999869,space,1.6726119000013568,None,,,,,,,,,,,,,,,,,,,,,,,,,,,,,,,,00057,001,2026-01-18_22h26.01.980,MST_test,2024.2.0,59.88959951262023,2026-01-18 22h26.48.014365 +0530,
,,,,,,,,,,,,,,,,,,,,,,,,,,,,,,,,,,,,,,,,,,,,,34.604178599998704,34.61885489999986,34.61885489999986,45.13738699999885,space,10.508179500000551,None,,,,,,,,,,,,,,,,,,,,,,,,,00057,001,2026-01-18_22h26.01.980,MST_test,2024.2.0,59.88959951262023,2026-01-18 22h26.48.014365 +0530,
,,,,,,,,,,,,,,,,,,,,,,,,,,,,,,,,,,,,,,,,,,,,,,,,,,,,45.13750429999709,45.15215679999892,45.15215679999892,75.95403499999884,space,30.79204590000154,None,,,,,,,,,,,,,,,,,,00057,001,2026-01-18_22h26.01.980,MST_test,2024.2.0,59.88959951262023,2026-01-18 22h26.48.014365 +0530,
0,0,1,o,5.395792100000108,None,1,0,0,75.96874749999915,,,,,,,,,,,,,,,,,,,,,,,,,,,,,,,,,,,,,,,,,,,,,,,,,,75.96214959999998,75.96874749999915,76.47490529999777,76.45329209999909,76.47177159999774,76.47490529999777,76.47490529999777,76.47490529999777,81.88740259999759,Objects\119a.jpg,mid,o,5.395792100000108,None,,,,00057,001,2026-01-18_22h26.01.980,MST_test,2024.2.0,59.88959951262023,2026-01-18 22h26.48.014365 +0530,
1,0,2,o,5.437371899999562,None,2,0,1,81.90225859999919,,,,,,,,,,,,,,,,,,,,,,,,,,,,,,,,,,,,,,,,,,,,,,,,,,81.88766399999804,81.90225859999919,82.40244159999929,82.38649429999714,82.3936165999985,82.40244159999929,82.40244159999929,82.40244159999929,87.8543228999988,Objects\153a.jpg,post,o,5.437371899999562,None,,,,00057,001,2026-01-18_22h26.01.980,MST_test,2024.2.0,59.88959951262023,2026-01-18 22h26.48.014365 +0530,
2,0,3,s,3.542506300000241,None,3,0,2,87.86890049999784,,,,,,,,,,,,,,,,,,,,,,,,,,,,,,,,,,,,,,,,,,,,,,,,,,87.85459549999723,87.86890049999784,88.40136699999857,88.35350130000006,88.39845379999679,88.40136699999857,88.40136699999857,88.40136699999857,91.95394779999697,Foils\101b.jpg,none,s,3.542506300000241,None,,,,00057,001,2026-01-18_22h26.01.980,MST_test,2024.2.0,59.88959951262023,2026-01-18 22h26.48.014365 +0530,
3,0,4,s,1.4743562999974529,None,4,0,3,91.96881359999679,,,,,,,,,,,,,,,,,,,,,,,,,,,,,,,,,,,,,,,,,,,,,,,,,,91.95433419999972,91.96881359999679,92.48536609999792,92.45334319999893,92.48239729999841,92.48536609999792,92.48536609999792,92.48536609999792,93.9708765999967,Objects\133b.jpg,post,s,1.4743562999974529,None,,,,00057,001,2026-01-18_22h26.01.980,MST_test,2024.2.0,59.88959951262023,2026-01-18 22h26.48.014365 +0530,
4,0,5,s,1.5459465999992972,None,5,0,4,93.98564649999753,,,,,,,,,,,,,,,,,,,,,,,,,,,,,,,,,,,,,,,,,,,,,,,,,,93.97124089999852,93.98564649999753,94.48584449999908,94.47002979999888,94.47804579999865,94.48584449999908,94.48584449999908,94.48584449999908,96.03775019999739,Objects\003b.jpg,pre,s,1.5459465999992972,None,,,,00057,001,2026-01-18_22h26.01.980,MST_test,2024.2.0,59.88959951262023,2026-01-18 22h26.48.014365 +0530,
5,0,6,o,2.297616800002288,None,6,0,5,96.0520609999985,,,,,,,,,,,,,,,,,,,,,,,,,,,,,,,,,,,,,,,,,,,,,,,,,,96.03800090000004,96.0520609999985,96.55718049999996,96.5365669999992,96.55344269999841,96.55718049999996,96.55718049999996,96.55718049999996,98.87106139999742,Scenes\040a.jpg,mid,o,2.297616800002288,None,,,,00057,001,2026-01-18_22h26.01.980,MST_test,2024.2.0,59.88959951262023,2026-01-18 22h26.48.014365 +0530,
6,0,7,n,3.3887400000021444,None,7,0,6,98.88541399999667,,,,,,,,,,,,,,,,,,,,,,,,,,,,,,,,,,,,,,,,,,,,,,,,,,98.87138719999712,98.88541399999667,99.387232699999,99.36994759999652,99.38355989999764,99.387232699999,99.387232699999,99.387232699999,102.78731689999768,Scenes\128a.jpg,post,n,3.3887400000021444,None,,,,00057,001,2026-01-18_22h26.01.980,MST_test,2024.2.0,59.88959951262023,2026-01-18 22h26.48.014365 +0530,
7,0,8,s,1.6242291000016849,None,8,0,7,102.80208349999884,,,,,,,,,,,,,,,,,,,,,,,,,,,,,,,,,,,,,,,,,,,,,,,,,,102.78759159999754,102.80208349999884,103.35131089999777,103.28646169999774,103.34788849999677,103.35131089999777,103.35131089999777,103.35131089999777,104.9871905,Scenes\132b.jpg,mid,s,1.6242291000016849,None,,,,00057,001,2026-01-18_22h26.01.980,MST_test,2024.2.0,59.88959951262023,2026-01-18 22h26.48.014365 +0530,
8,0,9,o,2.43301319999955,None,9,0,8,105.0021330999989,,,,,,,,,,,,,,,,,,,,,,,,,,,,,,,,,,,,,,,,,,,,,,,,,,104.98759449999852,105.0021330999989,105.5028261999978,105.48631849999947,105.4957751999973,105.5028261999978,105.5028261999978,105.5028261999978,107.93789459999971,Scenes\008a.jpg,mid,o,2.43301319999955,None,,,,00057,001,2026-01-18_22h26.01.980,MST_test,2024.2.0,59.88959951262023,2026-01-18 22h26.48.014365 +0530,
9,0,10,o,2.3116298999993887,None,10,0,9,107.95219139999972,,,,,,,,,,,,,,,,,,,,,,,,,,,,,,,,,,,,,,,,,,,,,,,,,,107.93832119999934,107.95219139999972,108.45627299999978,108.43645939999988,108.45281780000005,108.45627299999978,108.45627299999978,108.45627299999978,110.77092289999928,Scenes\177a.jpg,pre,o,2.3116298999993887,None,,,,00057,001,2026-01-18_22h26.01.980,MST_test,2024.2.0,59.88959951262023,2026-01-18 22h26.48.014365 +0530,
10,0,11,s,1.1008191000000807,None,11,0,10,110.78542699999889,,,,,,,,,,,,,,,,,,,,,,,,,,,,,,,,,,,,,,,,,,,,,,,,,,110.7713382999973,110.78542699999889,111.3224612999984,111.26998769999773,111.32009089999701,111.3224612999984,111.3224612999984,111.3224612999984,112.43755719999899,Scenes\053b.jpg,mid,s,1.1008191000000807,None,,,,00057,001,2026-01-18_22h26.01.980,MST_test,2024.2.0,59.88959951262023,2026-01-18 22h26.48.014365 +0530,
11,0,12,s,1.5970655999990413,None,12,0,11,112.45188569999664,,,,,,,,,,,,,,,,,,,,,,,,,,,,,,,,,,,,,,,,,,,,,,,,,,112.43786279999767,112.45188569999664,112.95447699999932,112.93685329999789,112.95177759999933,112.95447699999932,112.95447699999932,112.95447699999932,114.55428279999978,Scenes\112a.jpg,mid,s,1.5970655999990413,None,,,,00057,001,2026-01-18_22h26.01.980,MST_test,2024.2.0,59.88959951262023,2026-01-18 22h26.48.014365 +0530,
12,0,13,s,2.658449100003054,None,13,0,12,114.56880509999974,,,,,,,,,,,,,,,,,,,,,,,,,,,,,,,,,,,,,,,,,,,,,,,,,,114.55465769999864,114.56880509999974,115.06964979999975,115.05358199999682,115.0619725999968,115.06964979999975,115.06964979999975,115.06964979999975,117.73743329999706,Objects\137a.jpg,post,s,2.658449100003054,None,,,,00057,001,2026-01-18_22h26.01.980,MST_test,2024.2.0,59.88959951262023,2026-01-18 22h26.48.014365 +0530,
13,0,14,o,1.0998600000020815,None,14,0,13,117.75200349999795,,,,,,,,,,,,,,,,,,,,,,,,,,,,,,,,,,,,,,,,,,,,,,,,,,117.73768879999989,117.75200349999795,118.25229259999833,118.23548849999861,118.23838189999879,118.25229259999833,118.25229259999833,118.25229259999833,119.35440069999822,Objects\169a.jpg,mid,o,1.0998600000020815,None,,,,00057,001,2026-01-18_22h26.01.980,MST_test,2024.2.0,59.88959951262023,2026-01-18 22h26.48.014365 +0530,
14,0,15,s,1.0752869000025385,None,15,0,14,119.36898859999928,,,,,,,,,,,,,,,,,,,,,,,,,,,,,,,,,,,,,,,,,,,,,,,,,,119.35471249999682,119.36898859999928,119.88409499999761,119.85316879999664,119.8816939999997,119.88409499999761,119.88409499999761,119.88409499999761,120.97049939999852,Objects\145b.jpg,mid,s,1.0752869000025385,None,,,,00057,001,2026-01-18_22h26.01.980,MST_test,2024.2.0,59.88959951262023,2026-01-18 22h26.48.014365 +0530,
15,0,16,s,4.950658999998268,None,16,0,15,120.98554719999811,,,,,,,,,,,,,,,,,,,,,,,,,,,,,,,,,,,,,,,,,,,,,,,,,,120.9707408999966,120.98554719999811,121.48804869999731,121.47023730000001,121.48518739999781,121.48804869999731,121.48804869999731,121.48804869999731,126.45376289999695,Scenes\102a.jpg,pre,s,4.950658999998268,None,,,,00057,001,2026-01-18_22h26.01.980,MST_test,2024.2.0,59.88959951262023,2026-01-18 22h26.48.014365 +0530,
16,0,17,s,1.382272799997736,None,17,0,16,126.46899999999732,,,,,,,,,,,,,,,,,,,,,,,,,,,,,,,,,,,,,,,,,,,,,,,,,,126.45420899999954,126.46899999999732,126.96953159999975,126.95324739999705,126.9625012999968,126.96953159999975,126.96953159999975,126.96953159999975,128.35441289999653,Scenes\117b.jpg,mid,s,1.382272799997736,None,,,,00057,001,2026-01-18_22h26.01.980,MST_test,2024.2.0,59.88959951262023,2026-01-18 22h26.48.014365 +0530,
17,0,18,n,2.3468870999968203,None,18,0,17,128.36884139999893,,,,,,,,,,,,,,,,,,,,,,,,,,,,,,,,,,,,,,,,,,,,,,,,,,128.35463059999893,128.36884139999893,128.88429319999705,128.85361289999855,128.88130849999652,128.88429319999705,128.88429319999705,128.88429319999705,131.23767999999836,Foils\scenes8.jpg,none,n,2.3468870999968203,None,,,,00057,001,2026-01-18_22h26.01.980,MST_test,2024.2.0,59.88959951262023,2026-01-18 22h26.48.014365 +0530,
18,0,19,n,1.5151087000012922,None,19,0,18,131.25215539999772,,,,,,,,,,,,,,,,,,,,,,,,,,,,,,,,,,,,,,,,,,,,,,,,,,131.2379390999995,131.25215539999772,131.788395399999,131.7367372999979,131.78570649999892,131.788395399999,131.788395399999,131.788395399999,133.3206883999992,Foils\002a.jpg,none,n,1.5151087000012922,None,,,,00057,001,2026-01-18_22h26.01.980,MST_test,2024.2.0,59.88959951262023,2026-01-18 22h26.48.014365 +0530,
19,0,20,n,3.514789799999562,None,20,0,19,133.33550979999927,,,,,,,,,,,,,,,,,,,,,,,,,,,,,,,,,,,,,,,,,,,,,,,,,,133.32094559999678,133.33550979999927,133.8358984999977,133.8196296999995,133.82425069999954,133.8358984999977,133.8358984999977,133.8358984999977,137.3539998999986,Foils\scenes3.jpg,none,n,3.514789799999562,None,,,,00057,001,2026-01-18_22h26.01.980,MST_test,2024.2.0,59.88959951262023,2026-01-18 22h26.48.014365 +0530,
20,0,21,n,3.585879499998555,None,21,0,20,137.36882699999842,,,,,,,,,,,,,,,,,,,,,,,,,,,,,,,,,,,,,,,,,,,,,,,,,,137.3543979999995,137.36882699999842,137.8690777999982,137.85300729999653,137.86085119999916,137.8690777999982,137.8690777999982,137.8690777999982,141.47075929999846,Foils\050a.jpg,none,n,3.585879499998555,None,,,,00057,001,2026-01-18_22h26.01.980,MST_test,2024.2.0,59.88959951262023,2026-01-18 22h26.48.014365 +0530,
21,0,22,n,1.7009231000010914,None,22,0,21,141.48559249999744,,,,,,,,,,,,,,,,,,,,,,,,,,,,,,,,,,,,,,,,,,,,,,,,,,141.47108429999935,141.48559249999744,141.98575099999653,141.96985909999785,141.9786607999995,141.98575099999653,141.98575099999653,141.98575099999653,143.7039377000001,Foils\049a.jpg,none,n,1.7009231000010914,None,,,,00057,001,2026-01-18_22h26.01.980,MST_test,2024.2.0,59.88959951262023,2026-01-18 22h26.48.014365 +0530,
22,0,23,o,2.2749885000012,None,23,0,22,143.71888709999985,,,,,,,,,,,,,,,,,,,,,,,,,,,,,,,,,,,,,,,,,,,,,,,,,,143.7042610999997,143.71888709999985,144.22067129999778,144.2032849999996,144.21716679999736,144.22067129999778,144.22067129999778,144.22067129999778,146.50470849999692,Scenes\145a.jpg,mid,o,2.2749885000012,None,,,,00057,001,2026-01-18_22h26.01.980,MST_test,2024.2.0,59.88959951262023,2026-01-18 22h26.48.014365 +0530,
23,0,24,s,2.6919331999997667,None,24,0,23,146.51878509999733,,,,,,,,,,,,,,,,,,,,,,,,,,,,,,,,,,,,,,,,,,,,,,,,,,146.50494489999983,146.51878509999733,147.01930139999968,147.00322529999903,147.01261319999685,147.01930139999968,147.01930139999968,147.01930139999968,149.72066789999735,Objects\096a.jpg,mid,s,2.6919331999997667,None,,,,00057,001,2026-01-18_22h26.01.980,MST_test,2024.2.0,59.88959951262023,2026-01-18 22h26.48.014365 +0530,
24,0,25,s,1.915796400000545,None,25,0,24,149.7358908999995,,,,,,,,,,,,,,,,,,,,,,,,,,,,,,,,,,,,,,,,,,,,,,,,,,149.7210492999984,149.7358908999995,150.23573599999872,150.22003909999694,150.22774489999938,150.23573599999872,150.23573599999872,150.23573599999872,152.1541201,Objects\007a.jpg,post,s,1.915796400000545,None,,,,00057,001,2026-01-18_22h26.01.980,MST_test,2024.2.0,59.88959951262023,2026-01-18 22h26.48.014365 +0530,
25,0,26,s,2.517161499999929,None,26,0,25,152.16870949999793,,,,,,,,,,,,,,,,,,,,,,,,,,,,,,,,,,,,,,,,,,,,,,,,,,152.15437380000003,152.16870949999793,152.6822136999981,152.65330859999813,152.67901529999654,152.6822136999981,152.6822136999981,152.6822136999981,155.20361149999735,Scenes\034b.jpg,pre,s,2.517161499999929,None,,,,00057,001,2026-01-18_22h26.01.980,MST_test,2024.2.0,59.88959951262023,2026-01-18 22h26.48.014365 +0530,
26,0,27,s,1.15132640000229,None,27,0,26,155.2188032999984,,,,,,,,,,,,,,,,,,,,,,,,,,,,,,,,,,,,,,,,,,,,,,,,,,155.2039724999995,155.2188032999984,155.7196606999969,155.7041814999975,155.71008439999787,155.7196606999969,155.7196606999969,155.7196606999969,156.8871199999994,Objects\053a.jpg,mid,s,1.15132640000229,None,,,,00057,001,2026-01-18_22h26.01.980,MST_test,2024.2.0,59.88959951262023,2026-01-18 22h26.48.014365 +0530,
27,0,28,s,1.4453978999990795,None,28,0,27,156.90216839999994,,,,,,,,,,,,,,,,,,,,,,,,,,,,,,,,,,,,,,,,,,,,,,,,,,156.88738389999708,156.90216839999994,157.42511669999658,157.38663839999936,157.4222738999997,157.42511669999658,157.42511669999658,157.42511669999658,158.8875040999992,Objects\010b.jpg,mid,s,1.4453978999990795,None,,,,00057,001,2026-01-18_22h26.01.980,MST_test,2024.2.0,59.88959951262023,2026-01-18 22h26.48.014365 +0530,
28,0,29,s,1.994824299999891,None,29,0,28,158.90210529999968,,,,,,,,,,,,,,,,,,,,,,,,,,,,,,,,,,,,,,,,,,,,,,,,,,158.8878784999979,158.90210529999968,159.43760819999807,159.38641879999705,159.4348923999969,159.43760819999807,159.43760819999807,159.43760819999807,161.43772849999732,Scenes\139b.jpg,mid,s,1.994824299999891,None,,,,00057,001,2026-01-18_22h26.01.980,MST_test,2024.2.0,59.88959951262023,2026-01-18 22h26.48.014365 +0530,
29,0,30,o,1.3106372000002011,None,30,0,29,161.45210789999692,,,,,,,,,,,,,,,,,,,,,,,,,,,,,,,,,,,,,,,,,,,,,,,,,,161.43800529999862,161.45210789999692,161.95299689999956,161.93664269999863,161.94532689999687,161.95299689999956,161.95299689999956,161.95299689999956,163.27068799999688,Objects\117a.jpg,post,o,1.3106372000002011,None,,,,00057,001,2026-01-18_22h26.01.980,MST_test,2024.2.0,59.88959951262023,2026-01-18 22h26.48.014365 +0530,
30,0,31,o,1.2048187000000325,None,31,0,30,163.28534509999736,,,,,,,,,,,,,,,,,,,,,,,,,,,,,,,,,,,,,,,,,,,,,,,,,,163.27094529999886,163.28534509999736,163.78569999999672,163.77001969999765,163.77776289999747,163.78569999999672,163.78569999999672,163.78569999999672,165.00403519999963,Objects\091a.jpg,pre,o,1.2048187000000325,None,,,,00057,001,2026-01-18_22h26.01.980,MST_test,2024.2.0,59.88959951262023,2026-01-18 22h26.48.014365 +0530,
31,0,32,o,0.9360588000017742,None,32,0,31,165.01879829999962,,,,,,,,,,,,,,,,,,,,,,,,,,,,,,,,,,,,,,,,,,,,,,,,,,165.00444329999664,165.01879829999962,165.51910309999948,165.5033760999977,165.509000799997,165.51910309999948,165.51910309999948,165.51910309999948,166.47054559999742,Objects\125a.jpg,mid,o,0.9360588000017742,None,,,,00057,001,2026-01-18_22h26.01.980,MST_test,2024.2.0,59.88959951262023,2026-01-18 22h26.48.014365 +0530,
32,0,33,o,1.8140072999995027,None,33,0,32,166.4854228999975,,,,,,,,,,,,,,,,,,,,,,,,,,,,,,,,,,,,,,,,,,,,,,,,,,166.47099749999688,166.4854228999975,166.9857200999977,166.96990689999802,166.9769290999975,166.9857200999977,166.9857200999977,166.9857200999977,168.80408289999832,Objects\060a.jpg,pre,o,1.8140072999995027,None,,,,00057,001,2026-01-18_22h26.01.980,MST_test,2024.2.0,59.88959951262023,2026-01-18 22h26.48.014365 +0530,
33,0,34,n,1.9007137999979022,None,34,0,33,168.8188900999994,,,,,,,,,,,,,,,,,,,,,,,,,,,,,,,,,,,,,,,,,,,,,,,,,,168.80442299999777,168.8188900999994,169.38594639999792,169.30325009999797,169.3830147999979,169.38594639999792,169.38594639999792,169.38594639999792,171.3039409999983,Scenes\153b.jpg,pre,n,1.9007137999979022,None,,,,00057,001,2026-01-18_22h26.01.980,MST_test,2024.2.0,59.88959951262023,2026-01-18 22h26.48.014365 +0530,
34,0,35,n,2.7084302000002936,None,35,0,34,171.3188016999993,,,,,,,,,,,,,,,,,,,,,,,,,,,,,,,,,,,,,,,,,,,,,,,,,,171.30427089999648,171.3188016999993,171.81916439999986,171.80289730000004,171.81139489999987,171.81916439999986,171.81916439999986,171.81916439999986,174.53740859999743,Scenes\154a.jpg,mid,n,2.7084302000002936,None,,,,00057,001,2026-01-18_22h26.01.980,MST_test,2024.2.0,59.88959951262023,2026-01-18 22h26.48.014365 +0530,
35,0,36,n,2.498913999999786,None,36,0,35,174.55246579999948,,,,,,,,,,,,,,,,,,,,,,,,,,,,,,,,,,,,,,,,,,,,,,,,,,174.5376957999979,174.55246579999948,175.05263649999688,175.03657669999666,175.04547159999856,175.05263649999688,175.05263649999688,175.05263649999688,177.5542037999985,Objects\115a.jpg,post,n,2.498913999999786,None,,,,00057,001,2026-01-18_22h26.01.980,MST_test,2024.2.0,59.88959951262023,2026-01-18 22h26.48.014365 +0530,
36,0,37,s,1.0275626000002376,None,37,0,36,177.5687969999999,,,,,,,,,,,,,,,,,,,,,,,,,,,,,,,,,,,,,,,,,,,,,,,,,,177.55443879999802,177.5687969999999,178.11556599999676,178.05360959999962,178.11273809999693,178.11556599999676,178.11556599999676,178.11556599999676,179.15356099999917,Scenes\120b.jpg,pre,s,1.0275626000002376,None,,,,00057,001,2026-01-18_22h26.01.980,MST_test,2024.2.0,59.88959951262023,2026-01-18 22h26.48.014365 +0530,
37,0,38,s,1.4933722000023408,None,38,0,37,179.1688534999994,,,,,,,,,,,,,,,,,,,,,,,,,,,,,,,,,,,,,,,,,,,,,,,,,,179.15378919999785,179.1688534999994,179.68308419999812,179.65352299999722,179.68039139999746,179.68308419999812,179.68308419999812,179.68308419999812,181.18772409999656,Foils\018a.jpg,none,s,1.4933722000023408,None,,,,00057,001,2026-01-18_22h26.01.980,MST_test,2024.2.0,59.88959951262023,2026-01-18 22h26.48.014365 +0530,
38,0,39,n,1.3022578999989491,None,39,0,38,181.202050099997,,,,,,,,,,,,,,,,,,,,,,,,,,,,,,,,,,,,,,,,,,,,,,,,,,181.18807549999838,181.202050099997,181.72929759999897,181.68640569999843,181.72655579999991,181.72929759999897,181.72929759999897,181.72929759999897,183.0377406999978,Foils\082a.jpg,none,n,1.3022578999989491,None,,,,00057,001,2026-01-18_22h26.01.980,MST_test,2024.2.0,59.88959951262023,2026-01-18 22h26.48.014365 +0530,
39,0,40,o,1.0864116000011563,None,40,0,39,183.05206839999664,,,,,,,,,,,,,,,,,,,,,,,,,,,,,,,,,,,,,,,,,,,,,,,,,,183.03811169999972,183.05206839999664,183.55256539999755,183.53712769999765,183.54499919999944,183.55256539999755,183.55256539999755,183.55256539999755,184.6542746999985,Objects\106a.jpg,pre,o,1.0864116000011563,None,,,,00057,001,2026-01-18_22h26.01.980,MST_test,2024.2.0,59.88959951262023,2026-01-18 22h26.48.014365 +0530,
40,0,41,s,5.4324152000008326,None,41,0,40,184.66903269999966,,,,,,,,,,,,,,,,,,,,,,,,,,,,,,,,,,,,,,,,,,,,,,,,,,184.65467589999753,184.66903269999966,185.2223036999967,185.1532668999971,185.21949589999713,185.2223036999967,185.2223036999967,185.2223036999967,190.67094169999837,Scenes\027b.jpg,mid,s,5.4324152000008326,None,,,,00057,001,2026-01-18_22h26.01.980,MST_test,2024.2.0,59.88959951262023,2026-01-18 22h26.48.014365 +0530,
41,0,42,n,2.624289100000169,None,42,0,41,190.68562589999783,,,,,,,,,,,,,,,,,,,,,,,,,,,,,,,,,,,,,,,,,,,,,,,,,,190.67121919999772,190.68562589999783,191.23937549999755,191.16996239999935,191.23587339999722,191.23937549999755,191.23937549999755,191.23937549999755,193.87067869999737,Foils\scenes27.jpg,none,n,2.624289100000169,None,,,,00057,001,2026-01-18_22h26.01.980,MST_test,2024.2.0,59.88959951262023,2026-01-18 22h26.48.014365 +0530,
42,0,43,n,1.036932800001523,None,43,0,42,193.8855405999966,,,,,,,,,,,,,,,,,,,,,,,,,,,,,,,,,,,,,,,,,,,,,,,,,,193.87100369999825,193.8855405999966,194.38602549999996,194.3699971999995,194.37990619999982,194.38602549999996,194.38602549999996,194.38602549999996,195.43726349999997,Objects\078a.jpg,mid,n,1.036932800001523,None,,,,00057,001,2026-01-18_22h26.01.980,MST_test,2024.2.0,59.88959951262023,2026-01-18 22h26.48.014365 +0530,
43,0,44,n,0.8372963999972853,None,44,0,43,195.4521216999965,,,,,,,,,,,,,,,,,,,,,,,,,,,,,,,,,,,,,,,,,,,,,,,,,,195.43767579999985,195.4521216999965,195.97847159999947,195.93661939999947,195.97598229999858,195.97847159999947,195.97847159999947,195.97847159999947,196.82035499999984,Objects\151b.jpg,pre,n,0.8372963999972853,None,,,,00057,001,2026-01-18_22h26.01.980,MST_test,2024.2.0,59.88959951262023,2026-01-18 22h26.48.014365 +0530,
44,0,45,o,1.0960592000010365,None,45,0,44,196.83545400000003,,,,,,,,,,,,,,,,,,,,,,,,,,,,,,,,,,,,,,,,,,,,,,,,,,196.82071489999726,196.83545400000003,197.33572139999887,197.31988339999953,197.32774019999852,197.33572139999887,197.33572139999887,197.33572139999887,198.43795799999862,Objects\016a.jpg,post,o,1.0960592000010365,None,,,,00057,001,2026-01-18_22h26.01.980,MST_test,2024.2.0,59.88959951262023,2026-01-18 22h26.48.014365 +0530,
45,0,46,o,0.9631138999975519,None,46,0,45,198.45255980000002,,,,,,,,,,,,,,,,,,,,,,,,,,,,,,,,,,,,,,,,,,,,,,,,,,198.43832399999883,198.45255980000002,198.9565548999999,198.93776109999817,198.95383519999814,198.9565548999999,198.9565548999999,198.9565548999999,199.93760629999815,Scenes\011a.jpg,mid,o,0.9631138999975519,None,,,,00057,001,2026-01-18_22h26.01.980,MST_test,2024.2.0,59.88959951262023,2026-01-18 22h26.48.014365 +0530,
46,0,47,s,3.5314441999980772,None,47,0,46,199.95217169999887,,,,,,,,,,,,,,,,,,,,,,,,,,,,,,,,,,,,,,,,,,,,,,,,,,199.93801079999685,199.95217169999887,200.50815559999683,200.4365833999982,200.5043530999974,200.50815559999683,200.50815559999683,200.50815559999683,204.05398739999873,Scenes\160b.jpg,post,s,3.5314441999980772,None,,,,00057,001,2026-01-18_22h26.01.980,MST_test,2024.2.0,59.88959951262023,2026-01-18 22h26.48.014365 +0530,
47,0,48,n,2.433485000001383,None,48,0,47,204.06889229999797,,,,,,,,,,,,,,,,,,,,,,,,,,,,,,,,,,,,,,,,,,,,,,,,,,204.05424389999826,204.06889229999797,204.5815982999993,204.55361569999877,204.5776608999986,204.5815982999993,204.5815982999993,204.5815982999993,207.02091799999835,Foils\scenes19.jpg,none,n,2.433485000001383,None,,,,00057,001,2026-01-18_22h26.01.980,MST_test,2024.2.0,59.88959951262023,2026-01-18 22h26.48.014365 +0530,
48,0,49,n,2.615710300000501,None,49,0,48,207.03556649999882,,,,,,,,,,,,,,,,,,,,,,,,,,,,,,,,,,,,,,,,,,,,,,,,,,207.02129059999788,207.03556649999882,207.53563559999748,207.52003289999993,207.52807269999903,207.53563559999748,207.53563559999748,207.53563559999748,210.15443009999944,Foils\scenes11.jpg,none,n,2.615710300000501,None,,,,00057,001,2026-01-18_22h26.01.980,MST_test,2024.2.0,59.88959951262023,2026-01-18 22h26.48.014365 +0530,
49,0,50,n,1.170150999998441,None,50,0,49,210.16885609999736,,,,,,,,,,,,,,,,,,,,,,,,,,,,,,,,,,,,,,,,,,,,,,,,,,210.15478009999788,210.16885609999736,210.66919289999714,210.65331279999737,210.66281799999706,210.66919289999714,210.66919289999714,210.66919289999714,211.85380259999874,Foils\017a.jpg,none,n,1.170150999998441,None,,,,00057,001,2026-01-18_22h26.01.980,MST_test,2024.2.0,59.88959951262023,2026-01-18 22h26.48.014365 +0530,
50,0,51,n,0.8775548999983585,None,51,0,50,211.86894299999767,,,,,,,,,,,,,,,,,,,,,,,,,,,,,,,,,,,,,,,,,,,,,,,,,,211.85407789999954,211.86894299999767,212.36937519999992,212.3530026999979,212.36199799999667,212.36937519999992,212.36937519999992,212.36937519999992,213.2540360999992,Foils\086a.jpg,none,n,0.8775548999983585,None,,,,00057,001,2026-01-18_22h26.01.980,MST_test,2024.2.0,59.88959951262023,2026-01-18 22h26.48.014365 +0530,
51,0,52,n,1.3463797000003979,None,52,0,51,213.26884269999937,,,,,,,,,,,,,,,,,,,,,,,,,,,,,,,,,,,,,,,,,,,,,,,,,,213.25440949999756,213.26884269999937,213.8291371999985,213.75331979999828,213.82616979999875,213.8291371999985,213.8291371999985,213.8291371999985,215.1872689999982,Scenes\190b.jpg,mid,n,1.3463797000003979,None,,,,00057,001,2026-01-18_22h26.01.980,MST_test,2024.2.0,59.88959951262023,2026-01-18 22h26.48.014365 +0530,
52,0,53,o,2.4582898000007845,None,53,0,52,215.2021599999971,,,,,,,,,,,,,,,,,,,,,,,,,,,,,,,,,,,,,,,,,,,,,,,,,,215.18764299999748,215.2021599999971,215.7337172999978,215.68666459999804,215.73017099999925,215.7337172999978,215.7337172999978,215.7337172999978,218.203992499999,Objects\128b.jpg,post,o,2.4582898000007845,None,,,,00057,001,2026-01-18_22h26.01.980,MST_test,2024.2.0,59.88959951262023,2026-01-18 22h26.48.014365 +0530,
53,0,54,o,1.3032215000021097,None,54,0,53,218.21880809999857,,,,,,,,,,,,,,,,,,,,,,,,,,,,,,,,,,,,,,,,,,,,,,,,,,218.20433069999854,218.21880809999857,218.71921479999946,218.7031575999972,218.711784799998,218.71921479999946,218.71921479999946,218.71921479999946,220.03856379999706,Objects\015a.jpg,pre,o,1.3032215000021097,None,,,,00057,001,2026-01-18_22h26.01.980,MST_test,2024.2.0,59.88959951262023,2026-01-18 22h26.48.014365 +0530,
54,0,55,o,1.8145863999998255,None,55,0,54,220.0521160999997,,,,,,,,,,,,,,,,,,,,,,,,,,,,,,,,,,,,,,,,,,,,,,,,,,220.03883419999693,220.0521160999997,220.5531271999971,220.53667539999878,220.5504910999989,220.5531271999971,220.5531271999971,220.5531271999971,222.37088529999892,Scenes\104a.jpg,post,o,1.8145863999998255,None,,,,00057,001,2026-01-18_22h26.01.980,MST_test,2024.2.0,59.88959951262023,2026-01-18 22h26.48.014365 +0530,
55,0,56,o,0.8808265999978175,None,56,0,55,222.38541509999777,,,,,,,,,,,,,,,,,,,,,,,,,,,,,,,,,,,,,,,,,,,,,,,,,,222.371161199997,222.38541509999777,222.88605449999886,222.87085619999925,222.87762409999777,222.88605449999886,222.88605449999886,222.88605449999886,223.7709133999997,Objects\006a.jpg,mid,o,0.8808265999978175,None,,,,00057,001,2026-01-18_22h26.01.980,MST_test,2024.2.0,59.88959951262023,2026-01-18 22h26.48.014365 +0530,
56,0,57,o,1.2911103000005824,None,57,0,56,223.7853815999988,,,,,,,,,,,,,,,,,,,,,,,,,,,,,,,,,,,,,,,,,,,,,,,,,,223.7713367999968,223.7853815999988,224.29184929999974,224.2699603000001,224.288060699997,224.29184929999974,224.29184929999974,224.29184929999974,225.5879498999966,Scenes\059a.jpg,pre,o,1.2911103000005824,None,,,,00057,001,2026-01-18_22h26.01.980,MST_test,2024.2.0,59.88959951262023,2026-01-18 22h26.48.014365 +0530,
57,0,58,s,5.351769499997317,None,58,0,57,225.60222559999966,,,,,,,,,,,,,,,,,,,,,,,,,,,,,,,,,,,,,,,,,,,,,,,,,,225.58832939999775,225.60222559999966,226.102733599997,226.08674769999925,226.09538089999842,226.102733599997,226.102733599997,226.102733599997,231.47076489999745,Objects\157b.jpg,mid,s,5.351769499997317,None,,,,00057,001,2026-01-18_22h26.01.980,MST_test,2024.2.0,59.88959951262023,2026-01-18 22h26.48.014365 +0530,
58,0,59,n,6.503677400000015,None,59,0,58,231.48544760000004,,,,,,,,,,,,,,,,,,,,,,,,,,,,,,,,,,,,,,,,,,,,,,,,,,231.47120369999902,231.48544760000004,232.00739599999724,231.97004299999753,232.00347399999737,232.00739599999724,232.00739599999724,232.00739599999724,238.5205688999995,Foils\scenes29.jpg,none,n,6.503677400000015,None,,,,00057,001,2026-01-18_22h26.01.980,MST_test,2024.2.0,59.88959951262023,2026-01-18 22h26.48.014365 +0530,
59,0,60,s,2.9639926999989257,None,60,0,59,238.53553389999797,,,,,,,,,,,,,,,,,,,,,,,,,,,,,,,,,,,,,,,,,,,,,,,,,,238.52083649999986,238.53553389999797,239.03608279999753,239.0200251999995,239.02632659999654,239.03608279999753,239.03608279999753,239.03608279999753,242.00388309999835,Objects\168a.jpg,post,s,2.9639926999989257,None,,,,00057,001,2026-01-18_22h26.01.980,MST_test,2024.2.0,59.88959951262023,2026-01-18 22h26.48.014365 +0530,
60,0,61,s,0.8668471999990288,None,61,0,60,242.0188847999998,,,,,,,,,,,,,,,,,,,,,,,,,,,,,,,,,,,,,,,,,,,,,,,,,,242.00431559999925,242.0188847999998,242.5488022999998,242.50335579999955,242.5460067999993,242.5488022999998,242.5488022999998,242.5488022999998,243.42086199999903,Objects\090b.jpg,pre,s,0.8668471999990288,None,,,,00057,001,2026-01-18_22h26.01.980,MST_test,2024.2.0,59.88959951262023,2026-01-18 22h26.48.014365 +0530,
61,0,62,s,2.048277199999575,None,62,0,61,243.43541459999688,,,,,,,,,,,,,,,,,,,,,,,,,,,,,,,,,,,,,,,,,,,,,,,,,,243.4211009999999,243.43541459999688,243.97437679999712,243.91980909999984,243.9712804999981,243.97437679999712,243.97437679999712,243.97437679999712,246.0374036999965,Scenes\091b.jpg,mid,s,2.048277199999575,None,,,,00057,001,2026-01-18_22h26.01.980,MST_test,2024.2.0,59.88959951262023,2026-01-18 22h26.48.014365 +0530,
62,0,63,n,1.0351109999974142,None,63,0,62,246.05217549999725,,,,,,,,,,,,,,,,,,,,,,,,,,,,,,,,,,,,,,,,,,,,,,,,,,246.0378047999984,246.05217549999725,246.58034479999696,246.5371204999974,246.57738379999864,246.58034479999696,246.58034479999696,246.58034479999696,247.62084929999764,Foils\scenes20.jpg,none,n,1.0351109999974142,None,,,,00057,001,2026-01-18_22h26.01.980,MST_test,2024.2.0,59.88959951262023,2026-01-18 22h26.48.014365 +0530,
63,0,64,o,1.3388354999988223,None,64,0,63,247.63560159999906,,,,,,,,,,,,,,,,,,,,,,,,,,,,,,,,,,,,,,,,,,,,,,,,,,247.62118719999853,247.63560159999906,248.1408913999985,248.11990279999736,248.13801649999732,248.1408913999985,248.1408913999985,248.1408913999985,249.48799289999806,Scenes\029a.jpg,post,o,1.3388354999988223,None,,,,00057,001,2026-01-18_22h26.01.980,MST_test,2024.2.0,59.88959951262023,2026-01-18 22h26.48.014365 +0530,
64,0,65,s,2.2927931000012904,None,65,0,64,249.5021949999973,,,,,,,,,,,,,,,,,,,,,,,,,,,,,,,,,,,,,,,,,,,,,,,,,,249.48828499999945,249.5021949999973,250.00272029999905,249.9867357999974,249.99629559999812,250.00272029999905,250.00272029999905,250.00272029999905,252.30408539999917,Scenes\140a.jpg,pre,s,2.2927931000012904,None,,,,00057,001,2026-01-18_22h26.01.980,MST_test,2024.2.0,59.88959951262023,2026-01-18 22h26.48.014365 +0530,
65,0,66,s,1.4824880999985908,None,66,0,65,252.31891599999653,,,,,,,,,,,,,,,,,,,,,,,,,,,,,,,,,,,,,,,,,,,,,,,,,,252.30436429999827,252.31891599999653,252.8686123999978,252.8032542999972,252.8655884999971,252.8686123999978,252.8686123999978,252.8686123999978,254.35467549999885,Scenes\186b.jpg,post,s,1.4824880999985908,None,,,,00057,001,2026-01-18_22h26.01.980,MST_test,2024.2.0,59.88959951262023,2026-01-18 22h26.48.014365 +0530,
66,0,67,s,1.0657594999975117,None,67,0,66,254.3688293999985,,,,,,,,,,,,,,,,,,,,,,,,,,,,,,,,,,,,,,,,,,,,,,,,,,254.3549619999976,254.3688293999985,254.90937569999733,254.8534065999993,254.90663889999996,254.90937569999733,254.90937569999733,254.90937569999733,255.98804739999832,Scenes\018b.jpg,post,s,1.0657594999975117,None,,,,00057,001,2026-01-18_22h26.01.980,MST_test,2024.2.0,59.88959951262023,2026-01-18 22h26.48.014365 +0530,
67,0,68,n,2.169018900000083,None,68,0,67,256.00200969999787,,,,,,,,,,,,,,,,,,,,,,,,,,,,,,,,,,,,,,,,,,,,,,,,,,255.98839429999862,256.00200969999787,256.5175535999988,256.48782479999863,256.5144533999992,256.5175535999988,256.5175535999988,256.5175535999988,258.70404419999977,Foils\scenes23.jpg,none,n,2.169018900000083,None,,,,00057,001,2026-01-18_22h26.01.980,MST_test,2024.2.0,59.88959951262023,2026-01-18 22h26.48.014365 +0530,
68,0,69,s,2.9043387999990955,None,69,0,68,258.7191884999993,,,,,,,,,,,,,,,,,,,,,,,,,,,,,,,,,,,,,,,,,,,,,,,,,,258.70433389999744,258.7191884999993,259.22280399999727,259.20435449999786,259.2195538999986,259.22280399999727,259.22280399999727,259.22280399999727,262.13800699999774,Objects\064a.jpg,mid,s,2.9043387999990955,None,,,,00057,001,2026-01-18_22h26.01.980,MST_test,2024.2.0,59.88959951262023,2026-01-18 22h26.48.014365 +0530,
69,0,70,n,2.1993210000000545,None,70,0,69,262.1520772999975,,,,,,,,,,,,,,,,,,,,,,,,,,,,,,,,,,,,,,,,,,,,,,,,,,262.1383218999981,262.1520772999975,262.7045201999972,262.6367602999999,262.70173129999966,262.7045201999972,262.7045201999972,262.7045201999972,264.92092149999735,Scenes\081b.jpg,mid,n,2.1993210000000545,None,,,,00057,001,2026-01-18_22h26.01.980,MST_test,2024.2.0,59.88959951262023,2026-01-18 22h26.48.014365 +0530,
70,0,71,n,1.1205141999998887,None,71,0,70,264.9353329999976,,,,,,,,,,,,,,,,,,,,,,,,,,,,,,,,,,,,,,,,,,,,,,,,,,264.9212488999983,264.9353329999976,265.47062339999684,265.4203843999967,265.4662056999987,265.47062339999684,265.47062339999684,265.47062339999684,266.6039592999987,Objects\005b.jpg,post,n,1.1205141999998887,None,,,,00057,001,2026-01-18_22h26.01.980,MST_test,2024.2.0,59.88959951262023,2026-01-18 22h26.48.014365 +0530,
71,0,72,o,3.592821300000651,None,72,0,71,266.6199173999994,,,,,,,,,,,,,,,,,,,,,,,,,,,,,,,,,,,,,,,,,,,,,,,,,,266.60422429999744,266.6199173999994,267.1190119999992,267.10356239999965,267.10991459999786,267.1190119999992,267.1190119999992,267.1190119999992,270.7209434999968,Objects\008a.jpg,pre,o,3.592821300000651,None,,,,00057,001,2026-01-18_22h26.01.980,MST_test,2024.2.0,59.88959951262023,2026-01-18 22h26.48.014365 +0530,
72,0,73,o,1.418561900001805,None,73,0,72,270.73567439999897,,,,,,,,,,,,,,,,,,,,,,,,,,,,,,,,,,,,,,,,,,,,,,,,,,270.7213797999975,270.73567439999897,271.2360749999971,271.2200176999977,271.2326493999972,271.2360749999971,271.2360749999971,271.2360749999971,272.67083139999886,Scenes\021a.jpg,pre,o,1.418561900001805,None,,,,00057,001,2026-01-18_22h26.01.980,MST_test,2024.2.0,59.88959951262023,2026-01-18 22h26.48.014365 +0530,
73,0,74,n,1.9808711000005133,None,74,0,73,272.6854757000001,,,,,,,,,,,,,,,,,,,,,,,,,,,,,,,,,,,,,,,,,,,,,,,,,,272.67114779999974,272.6854757000001,273.2351322999966,273.16999659999783,273.23278709999795,273.2351322999966,273.2351322999966,273.2351322999966,275.22063609999896,Scenes\082b.jpg,pre,n,1.9808711000005133,None,,,,00057,001,2026-01-18_22h26.01.980,MST_test,2024.2.0,59.88959951262023,2026-01-18 22h26.48.014365 +0530,
74,0,75,n,0.9205129000001762,None,75,0,74,275.2355479999969,,,,,,,,,,,,,,,,,,,,,,,,,,,,,,,,,,,,,,,,,,,,,,,,,,275.2208881999977,275.2355479999969,275.76610269999946,275.7201105999993,275.7617154999971,275.76610269999946,275.76610269999946,275.76610269999946,276.7041129999998,Foils\scenes15.jpg,none,n,0.9205129000001762,None,,,,00057,001,2026-01-18_22h26.01.980,MST_test,2024.2.0,59.88959951262023,2026-01-18 22h26.48.014365 +0530,
75,0,76,n,1.017946199997823,None,76,0,75,276.7187883999977,,,,,,,,,,,,,,,,,,,,,,,,,,,,,,,,,,,,,,,,,,,,,,,,,,276.70446329999686,276.7187883999977,277.22070469999744,277.2034962999969,277.2114821999967,277.22070469999744,277.22070469999744,277.22070469999744,278.2539044999976,Foils\090a.jpg,none,n,1.017946199997823,None,,,,00057,001,2026-01-18_22h26.01.980,MST_test,2024.2.0,59.88959951262023,2026-01-18 22h26.48.014365 +0530,
76,0,77,s,2.395577899998898,None,77,0,76,278.26896639999904,,,,,,,,,,,,,,,,,,,,,,,,,,,,,,,,,,,,,,,,,,,,,,,,,,278.25408739999693,278.26896639999904,278.7798851999978,278.7527848999998,278.7776311999987,278.7798851999978,278.7798851999978,278.7798851999978,281.18703129999994,Objects\134b.jpg,mid,s,2.395577899998898,None,,,,00057,001,2026-01-18_22h26.01.980,MST_test,2024.2.0,59.88959951262023,2026-01-18 22h26.48.014365 +0530,
77,0,78,o,2.3985391999995045,None,78,0,77,281.20224119999693,,,,,,,,,,,,,,,,,,,,,,,,,,,,,,,,,,,,,,,,,,,,,,,,,,281.1874121999972,281.20224119999693,281.70417299999826,281.68661319999956,281.7013614999996,281.70417299999826,281.70417299999826,281.70417299999826,284.104915099997,Scenes\168a.jpg,mid,o,2.3985391999995045,None,,,,00057,001,2026-01-18_22h26.01.980,MST_test,2024.2.0,59.88959951262023,2026-01-18 22h26.48.014365 +0530,
78,0,79,n,1.1626456000012695,None,79,0,78,284.11919599999965,,,,,,,,,,,,,,,,,,,,,,,,,,,,,,,,,,,,,,,,,,,,,,,,,,284.10522889999993,284.11919599999965,284.6198259999983,284.6038446999992,284.61004759999923,284.6198259999983,284.6198259999983,284.6198259999983,285.787158799998,Foils\scenes13.jpg,none,n,1.1626456000012695,None,,,,00057,001,2026-01-18_22h26.01.980,MST_test,2024.2.0,59.88959951262023,2026-01-18 22h26.48.014365 +0530,
79,0,80,s,1.1642860000029032,None,80,0,79,285.80217730000004,,,,,,,,,,,,,,,,,,,,,,,,,,,,,,,,,,,,,,,,,,,,,,,,,,285.7875230999998,285.80217730000004,286.3153198999971,286.28653359999953,286.31228569999803,286.3153198999971,286.3153198999971,286.3153198999971,287.4875650999966,Objects\047b.jpg,pre,s,1.1642860000029032,None,,,,00057,001,2026-01-18_22h26.01.980,MST_test,2024.2.0,59.88959951262023,2026-01-18 22h26.48.014365 +0530,
80,0,81,o,2.242323499998747,None,81,0,80,287.5022990999969,,,,,,,,,,,,,,,,,,,,,,,,,,,,,,,,,,,,,,,,,,,,,,,,,,287.48783289999847,287.5022990999969,288.005062799999,287.9866282999974,288.0021846999989,288.005062799999,288.005062799999,288.005062799999,290.25429409999924,Scenes\183a.jpg,post,o,2.242323499998747,None,,,,00057,001,2026-01-18_22h26.01.980,MST_test,2024.2.0,59.88959951262023,2026-01-18 22h26.48.014365 +0530,
81,0,82,o,1.1823613999986264,None,82,0,81,290.26899889999913,,,,,,,,,,,,,,,,,,,,,,,,,,,,,,,,,,,,,,,,,,,,,,,,,,290.25475430000006,290.26899889999913,290.76974209999753,290.75369769999816,290.7614412999974,290.76974209999753,290.76974209999753,290.76974209999753,291.95436509999854,Objects\124b.jpg,post,o,1.1823613999986264,None,,,,00057,001,2026-01-18_22h26.01.980,MST_test,2024.2.0,59.88959951262023,2026-01-18 22h26.48.014365 +0530,
82,0,83,o,0.9144383000020753,None,83,0,82,291.96873269999924,,,,,,,,,,,,,,,,,,,,,,,,,,,,,,,,,,,,,,,,,,,,,,,,,,291.9547535999991,291.96873269999924,292.4690797999974,292.45347219999894,292.4607290999993,292.4690797999974,292.4690797999974,292.4690797999974,293.3877479999974,Objects\162a.jpg,pre,o,0.9144383000020753,None,,,,00057,001,2026-01-18_22h26.01.980,MST_test,2024.2.0,59.88959951262023,2026-01-18 22h26.48.014365 +0530,
83,0,84,n,1.8739500000010594,None,84,0,83,293.4020346999969,,,,,,,,,,,,,,,,,,,,,,,,,,,,,,,,,,,,,,,,,,,,,,,,,,293.3880876999974,293.4020346999969,293.92538579999746,293.8874379999979,293.9227393999972,293.92538579999746,293.92538579999746,293.92538579999746,295.8037130999983,Objects\075b.jpg,pre,n,1.8739500000010594,None,,,,00057,001,2026-01-18_22h26.01.980,MST_test,2024.2.0,59.88959951262023,2026-01-18 22h26.48.014365 +0530,
84,0,85,o,1.0928703999998106,None,85,0,84,295.81884929999796,,,,,,,,,,,,,,,,,,,,,,,,,,,,,,,,,,,,,,,,,,,,,,,,,,295.8040286999967,295.81884929999796,296.32342479999716,296.30312649999905,296.320334,296.32342479999716,296.32342479999716,296.32342479999716,297.420893399998,Scenes\044a.jpg,pre,o,1.0928703999998106,None,,,,00057,001,2026-01-18_22h26.01.980,MST_test,2024.2.0,59.88959951262023,2026-01-18 22h26.48.014365 +0530,
85,0,86,o,1.1345860999972501,None,86,0,85,297.4354420999989,,,,,,,,,,,,,,,,,,,,,,,,,,,,,,,,,,,,,,,,,,,,,,,,,,297.42124559999866,297.4354420999989,297.9358132999987,297.91975629999797,297.92886409999846,297.9358132999987,297.9358132999987,297.9358132999987,299.08780399999887,Scenes\111a.jpg,mid,o,1.1345860999972501,None,,,,00057,001,2026-01-18_22h26.01.980,MST_test,2024.2.0,59.88959951262023,2026-01-18 22h26.48.014365 +0530,
86,0,87,o,1.3201953999996476,None,87,0,86,299.10320429999774,,,,,,,,,,,,,,,,,,,,,,,,,,,,,,,,,,,,,,,,,,,,,,,,,,299.08816359999764,299.10320429999774,299.61566669999957,299.5866593999999,299.61189789999844,299.61566669999957,299.61566669999957,299.61566669999957,300.9381794999972,Objects\017b.jpg,pre,o,1.3201953999996476,None,,,,00057,001,2026-01-18_22h26.01.980,MST_test,2024.2.0,59.88959951262023,2026-01-18 22h26.48.014365 +0530,
87,0,88,n,1.999575099998765,None,88,0,87,300.95218789999853,,,,,,,,,,,,,,,,,,,,,,,,,,,,,,,,,,,,,,,,,,,,,,,,,,300.9384982999982,300.95218789999853,301.4559526999983,301.4366655999984,301.45240919999924,301.4559526999983,301.4559526999983,301.4559526999983,303.4713199999969,Foils\scenes22.jpg,none,n,1.999575099998765,None,,,,00057,001,2026-01-18_22h26.01.980,MST_test,2024.2.0,59.88959951262023,2026-01-18 22h26.48.014365 +0530,
88,0,89,s,2.8379217000001518,None,89,0,88,303.48539829999936,,,,,,,,,,,,,,,,,,,,,,,,,,,,,,,,,,,,,,,,,,,,,,,,,,303.471545299999,303.48539829999936,304.0086936999978,303.97024539999984,304.0057565999996,304.0086936999978,304.0086936999978,304.0086936999978,306.8540639999992,Objects\041b.jpg,mid,s,2.8379217000001518,None,,,,00057,001,2026-01-18_22h26.01.980,MST_test,2024.2.0,59.88959951262023,2026-01-18 22h26.48.014365 +0530,
89,0,90,o,1.0759994000000006,None,90,0,89,306.86895209999784,,,,,,,,,,,,,,,,,,,,,,,,,,,,,,,,,,,,,,,,,,,,,,,,,,306.8543292999966,306.86895209999784,307.3718160999997,307.3534073999981,307.36818499999936,307.3718160999997,307.3718160999997,307.3718160999997,308.4544548999984,Scenes\086a.jpg,pre,o,1.0759994000000006,None,,,,00057,001,2026-01-18_22h26.01.980,MST_test,2024.2.0,59.88959951262023,2026-01-18 22h26.48.014365 +0530,
90,0,91,n,0.9961485999992874,None,91,0,90,308.4689029000001,,,,,,,,,,,,,,,,,,,,,,,,,,,,,,,,,,,,,,,,,,,,,,,,,,308.45475899999656,308.4689029000001,309.03497069999867,308.9532685999984,309.03007779999825,309.03497069999867,309.03497069999867,309.03497069999867,310.03844449999815,Foils\scenes25.jpg,none,n,0.9961485999992874,None,,,,00057,001,2026-01-18_22h26.01.980,MST_test,2024.2.0,59.88959951262023,2026-01-18 22h26.48.014365 +0530,
91,0,92,s,1.3433407000011357,None,92,0,91,310.0523278999972,,,,,,,,,,,,,,,,,,,,,,,,,,,,,,,,,,,,,,,,,,,,,,,,,,310.0387568999977,310.0523278999972,310.60748039999817,310.53647009999986,310.6021269999983,310.60748039999817,310.60748039999817,310.60748039999817,311.95496829999684,Scenes\172b.jpg,post,s,1.3433407000011357,None,,,,00057,001,2026-01-18_22h26.01.980,MST_test,2024.2.0,59.88959951262023,2026-01-18 22h26.48.014365 +0530,
92,0,93,n,3.8882260999998834,None,93,0,92,311.9688608999968,,,,,,,,,,,,,,,,,,,,,,,,,,,,,,,,,,,,,,,,,,,,,,,,,,311.95539429999917,311.9688608999968,312.5192618999972,312.4533401999979,312.5158606999976,312.5192618999972,312.5192618999972,312.5192618999972,316.4205974999968,Scenes\181b.jpg,pre,n,3.8882260999998834,None,,,,00057,001,2026-01-18_22h26.01.980,MST_test,2024.2.0,59.88959951262023,2026-01-18 22h26.48.014365 +0530,
93,0,94,o,0.7485004999980447,None,94,0,93,316.435554599997,,,,,,,,,,,,,,,,,,,,,,,,,,,,,,,,,,,,,,,,,,,,,,,,,,316.42098579999947,316.435554599997,316.9623331999974,316.91985849999764,316.95919109999886,316.9623331999974,316.9623331999974,316.9623331999974,317.72086429999763,Foils\scenes4.jpg,none,o,0.7485004999980447,None,,,,00057,001,2026-01-18_22h26.01.980,MST_test,2024.2.0,59.88959951262023,2026-01-18 22h26.48.014365 +0530,
94,0,95,o,1.2864826000004541,None,95,0,94,317.73547959999996,,,,,,,,,,,,,,,,,,,,,,,,,,,,,,,,,,,,,,,,,,,,,,,,,,317.7210950999979,317.73547959999996,318.26421689999916,318.2213363999981,318.26153949999934,318.26421689999916,318.26421689999916,318.26421689999916,319.55386729999736,Objects\129b.jpg,post,o,1.2864826000004541,None,,,,00057,001,2026-01-18_22h26.01.980,MST_test,2024.2.0,59.88959951262023,2026-01-18 22h26.48.014365 +0530,
95,0,96,o,0.9397602999997616,None,96,0,95,319.56881339999745,,,,,,,,,,,,,,,,,,,,,,,,,,,,,,,,,,,,,,,,,,,,,,,,,,319.5541489999996,319.56881339999745,320.0830036999978,320.053081799997,320.0800648999975,320.0830036999978,320.0830036999978,320.0830036999978,321.03861629999665,Foils\scenes17.jpg,none,o,0.9397602999997616,None,,,,00057,001,2026-01-18_22h26.01.980,MST_test,2024.2.0,59.88959951262023,2026-01-18 22h26.48.014365 +0530,
96,0,97,o,2.374595400000544,None,97,0,96,321.05222239999785,,,,,,,,,,,,,,,,,,,,,,,,,,,,,,,,,,,,,,,,,,,,,,,,,,321.0389307999976,321.05222239999785,321.55333059999975,321.53661179999835,321.5489959999977,321.55333059999975,321.55333059999975,321.55333059999975,323.93731339999795,Scenes\175a.jpg,pre,o,2.374595400000544,None,,,,00057,001,2026-01-18_22h26.01.980,MST_test,2024.2.0,59.88959951262023,2026-01-18 22h26.48.014365 +0530,
97,0,98,s,1.0110500000009779,None,98,0,97,323.951832499999,,,,,,,,,,,,,,,,,,,,,,,,,,,,,,,,,,,,,,,,,,,,,,,,,,323.9375798999972,323.951832499999,324.45291949999955,324.43652069999735,324.4460748999991,324.45291949999955,324.45291949999955,324.45291949999955,325.4711309999984,Scenes\080b.jpg,post,s,1.0110500000009779,None,,,,00057,001,2026-01-18_22h26.01.980,MST_test,2024.2.0,59.88959951262023,2026-01-18 22h26.48.014365 +0530,
98,0,99,n,1.28574849999859,None,99,0,98,325.4855981999972,,,,,,,,,,,,,,,,,,,,,,,,,,,,,,,,,,,,,,,,,,,,,,,,,,325.4714524999981,325.4855981999972,326.01656549999825,325.9698051999985,326.01383489999716,326.01656549999825,326.01656549999825,326.01656549999825,327.3043624999991,Scenes\167b.jpg,post,n,1.28574849999859,None,,,,00057,001,2026-01-18_22h26.01.980,MST_test,2024.2.0,59.88959951262023,2026-01-18 22h26.48.014365 +0530,
99,0,100,s,1.9255449999982375,None,100,0,99,327.31897369999933,,,,,,,,,,,,,,,,,,,,,,,,,,,,,,,,,,,,,,,,,,,,,,,,,,327.30468369999653,327.31897369999933,327.84904859999733,327.8033383999973,327.846050199998,327.84904859999733,327.84904859999733,327.84904859999733,329.7875731999993,Scenes\022b.jpg,post,s,1.9255449999982375,None,,,,00057,001,2026-01-18_22h26.01.980,MST_test,2024.2.0,59.88959951262023,2026-01-18 22h26.48.014365 +0530,
100,0,101,s,1.639916699998139,None,101,0,100,329.8020491999996,,,,,,,,,,,,,,,,,,,,,,,,,,,,,,,,,,,,,,,,,,,,,,,,,,329.7878673999985,329.8020491999996,330.3023815999986,330.2882099999988,330.2974303999981,330.3023815999986,330.3023815999986,330.3023815999986,331.95391339999696,Objects\140a.jpg,pre,s,1.639916699998139,None,,,,00057,001,2026-01-18_22h26.01.980,MST_test,2024.2.0,59.88959951262023,2026-01-18 22h26.48.014365 +0530,
101,0,102,o,1.3321117000014056,None,102,0,101,331.9687737999993,,,,,,,,,,,,,,,,,,,,,,,,,,,,,,,,,,,,,,,,,,,,,,,,,,331.95418359999894,331.9687737999993,332.4748871999982,332.4530724999968,332.47199759999785,332.4748871999982,332.4748871999982,332.4748871999982,333.8207326999982,Scenes\023a.jpg,post,o,1.3321117000014056,None,,,,00057,001,2026-01-18_22h26.01.980,MST_test,2024.2.0,59.88959951262023,2026-01-18 22h26.48.014365 +0530,
102,0,103,n,1.0947047000008752,None,103,0,102,333.8355019999981,,,,,,,,,,,,,,,,,,,,,,,,,,,,,,,,,,,,,,,,,,,,,,,,,,333.8210433999993,333.8355019999981,334.3364533999993,334.3202893999987,334.3287950999984,334.3364533999993,334.3364533999993,334.3364533999993,335.43771429999833,Foils\033a.jpg,none,n,1.0947047000008752,None,,,,00057,001,2026-01-18_22h26.01.980,MST_test,2024.2.0,59.88959951262023,2026-01-18 22h26.48.014365 +0530,
103,0,104,n,1.4304778000005172,None,104,0,103,335.45291489999727,,,,,,,,,,,,,,,,,,,,,,,,,,,,,,,,,,,,,,,,,,,,,,,,,,335.4381347999988,335.45291489999727,335.9527524999976,335.93684159999975,335.9494502999987,335.9527524999976,335.9527524999976,335.9527524999976,337.387431799998,Scenes\050b.jpg,pre,n,1.4304778000005172,None,,,,00057,001,2026-01-18_22h26.01.980,MST_test,2024.2.0,59.88959951262023,2026-01-18 22h26.48.014365 +0530,
104,0,105,n,3.4128725999980816,None,105,0,104,337.4019112999995,,,,,,,,,,,,,,,,,,,,,,,,,,,,,,,,,,,,,,,,,,,,,,,,,,337.3878558999968,337.4019112999995,337.95476999999664,337.88652049999655,337.9516146999995,337.95476999999664,337.95476999999664,337.95476999999664,341.3711306999976,Scenes\156b.jpg,pre,n,3.4128725999980816,None,,,,00057,001,2026-01-18_22h26.01.980,MST_test,2024.2.0,59.88959951262023,2026-01-18 22h26.48.014365 +0530,
105,0,106,o,1.6093820999994932,None,106,0,105,341.3857457999984,,,,,,,,,,,,,,,,,,,,,,,,,,,,,,,,,,,,,,,,,,,,,,,,,,341.37150049999764,341.3857457999984,341.88599639999666,341.8699315999984,341.8789520999999,341.88599639999666,341.88599639999666,341.88599639999666,343.50412129999677,Objects\019a.jpg,pre,o,1.6093820999994932,None,,,,00057,001,2026-01-18_22h26.01.980,MST_test,2024.2.0,59.88959951262023,2026-01-18 22h26.48.014365 +0530,
106,0,107,n,1.1982984000023862,None,107,0,106,343.5189602999999,,,,,,,,,,,,,,,,,,,,,,,,,,,,,,,,,,,,,,,,,,,,,,,,,,343.50437729999976,343.5189602999999,344.0561170000001,344.0035014999994,344.05287009999665,344.0561170000001,344.0561170000001,344.0561170000001,345.27101539999785,Scenes\147b.jpg,mid,n,1.1982984000023862,None,,,,00057,001,2026-01-18_22h26.01.980,MST_test,2024.2.0,59.88959951262023,2026-01-18 22h26.48.014365 +0530,
107,0,108,n,1.6512350999983028,None,108,0,107,345.2855890999999,,,,,,,,,,,,,,,,,,,,,,,,,,,,,,,,,,,,,,,,,,,,,,,,,,345.2712532999976,345.2855890999999,345.8031919999994,345.76994659999764,345.7998542999994,345.8031919999994,345.8031919999994,345.8031919999994,347.4708608000001,Foils\scenes5.jpg,none,n,1.6512350999983028,None,,,,00057,001,2026-01-18_22h26.01.980,MST_test,2024.2.0,59.88959951262023,2026-01-18 22h26.48.014365 +0530,
108,0,109,o,1.5410518000026059,None,109,0,108,347.4854581999971,,,,,,,,,,,,,,,,,,,,,,,,,,,,,,,,,,,,,,,,,,,,,,,,,,347.4711341999973,347.4854581999971,347.98698089999743,347.9697500999973,347.9751174999983,347.98698089999743,347.98698089999743,347.98698089999743,349.5376832999973,Objects\190a.jpg,post,o,1.5410518000026059,None,,,,00057,001,2026-01-18_22h26.01.980,MST_test,2024.2.0,59.88959951262023,2026-01-18 22h26.48.014365 +0530,
109,0,110,s,1.1223312000001897,None,110,0,109,349.55307079999693,,,,,,,,,,,,,,,,,,,,,,,,,,,,,,,,,,,,,,,,,,,,,,,,,,349.5379742999976,349.55307079999693,350.05238089999693,350.0366963999986,350.0450119999987,350.05238089999693,350.05238089999693,350.05238089999693,351.18752779999704,Objects\040b.jpg,pre,s,1.1223312000001897,None,,,,00057,001,2026-01-18_22h26.01.980,MST_test,2024.2.0,59.88959951262023,2026-01-18 22h26.48.014365 +0530,
110,0,111,o,1.2082566000026418,None,111,0,110,351.2020681999966,,,,,,,,,,,,,,,,,,,,,,,,,,,,,,,,,,,,,,,,,,,,,,,,,,351.1878646999976,351.2020681999966,351.7022704999981,351.6864345999966,351.692874999997,351.7022704999981,351.7022704999981,351.7022704999981,352.92030749999685,Objects\068a.jpg,pre,o,1.2082566000026418,None,,,,00057,001,2026-01-18_22h26.01.980,MST_test,2024.2.0,59.88959951262023,2026-01-18 22h26.48.014365 +0530,
111,0,112,n,2.156793199999811,None,112,0,111,352.9354687999985,,,,,,,,,,,,,,,,,,,,,,,,,,,,,,,,,,,,,,,,,,,,,,,,,,352.92072279999775,352.9354687999985,353.48216479999974,353.4199120999983,353.4793221999971,353.48216479999974,353.48216479999974,353.48216479999974,355.6542182999983,Scenes\074b.jpg,post,n,2.156793199999811,None,,,,00057,001,2026-01-18_22h26.01.980,MST_test,2024.2.0,59.88959951262023,2026-01-18 22h26.48.014365 +0530,
112,0,113,o,2.4053209999983665,None,113,0,112,355.66883919999964,,,,,,,,,,,,,,,,,,,,,,,,,,,,,,,,,,,,,,,,,,,,,,,,,,355.6546976999998,355.66883919999964,356.1693579999992,356.1541486999995,356.16358189999664,356.1693579999992,356.1693579999992,356.1693579999992,358.5875347000001,Scenes\069a.jpg,post,o,2.4053209999983665,None,,,,00057,001,2026-01-18_22h26.01.980,MST_test,2024.2.0,59.88959951262023,2026-01-18 22h26.48.014365 +0530,
113,0,114,o,3.1905924000020605,None,114,0,113,358.60224259999814,,,,,,,,,,,,,,,,,,,,,,,,,,,,,,,,,,,,,,,,,,,,,,,,,,358.5878914999994,358.60224259999814,359.1049712999993,359.0867846000001,359.10064449999845,359.1049712999993,359.1049712999993,359.1049712999993,362.3043727999975,Scenes\158a.jpg,mid,o,3.1905924000020605,None,,,,00057,001,2026-01-18_22h26.01.980,MST_test,2024.2.0,59.88959951262023,2026-01-18 22h26.48.014365 +0530,
114,0,115,o,0.9282615000010992,None,115,0,114,362.31881639999847,,,,,,,,,,,,,,,,,,,,,,,,,,,,,,,,,,,,,,,,,,,,,,,,,,362.3046942000001,362.31881639999847,362.8712676999967,362.8034633999996,362.86794779999764,362.8712676999967,362.8712676999967,362.8712676999967,363.80428329999995,Scenes\078b.jpg,post,o,0.9282615000010992,None,,,,00057,001,2026-01-18_22h26.01.980,MST_test,2024.2.0,59.88959951262023,2026-01-18 22h26.48.014365 +0530,
115,0,116,o,2.018131799999537,None,116,0,115,363.81893769999806,,,,,,,,,,,,,,,,,,,,,,,,,,,,,,,,,,,,,,,,,,,,,,,,,,363.8046712999967,363.81893769999806,364.34958019999976,364.30351079999673,364.3465034999972,364.34958019999976,364.34958019999976,364.34958019999976,366.371075199997,Objects\020b.jpg,mid,o,2.018131799999537,None,,,,00057,001,2026-01-18_22h26.01.980,MST_test,2024.2.0,59.88959951262023,2026-01-18 22h26.48.014365 +0530,
116,0,117,n,1.6404535999972722,None,117,0,116,366.3855365999989,,,,,,,,,,,,,,,,,,,,,,,,,,,,,,,,,,,,,,,,,,,,,,,,,,366.3713171999989,366.3855365999989,366.8859283999991,366.8699329999981,366.87623539999913,366.8859283999991,366.8859283999991,366.8859283999991,368.5368602999988,Foils\093b.jpg,none,n,1.6404535999972722,None,,,,00057,001,2026-01-18_22h26.01.980,MST_test,2024.2.0,59.88959951262023,2026-01-18 22h26.48.014365 +0530,
117,0,118,s,2.097980800001096,None,118,0,117,368.55208369999673,,,,,,,,,,,,,,,,,,,,,,,,,,,,,,,,,,,,,,,,,,,,,,,,,,368.5370305999968,368.55208369999673,369.0526551999974,369.03650579999885,369.04320319999897,369.0526551999974,369.0526551999974,369.0526551999974,371.15436709999994,Foils\scenes1.jpg,none,s,2.097980800001096,None,,,,00057,001,2026-01-18_22h26.01.980,MST_test,2024.2.0,59.88959951262023,2026-01-18 22h26.48.014365 +0530,
118,0,119,n,1.6106677999996464,None,119,0,118,371.16906879999806,,,,,,,,,,,,,,,,,,,,,,,,,,,,,,,,,,,,,,,,,,,,,,,,,,371.15475179999703,371.16906879999806,371.6692286999969,371.65305239999725,371.6605873999979,371.6692286999969,371.6692286999969,371.6692286999969,373.28801239999666,Foils\009a.jpg,none,n,1.6106677999996464,None,,,,00057,001,2026-01-18_22h26.01.980,MST_test,2024.2.0,59.88959951262023,2026-01-18 22h26.48.014365 +0530,
119,0,120,s,1.2602681999997003,None,120,0,119,373.30220349999945,,,,,,,,,,,,,,,,,,,,,,,,,,,,,,,,,,,,,,,,,,,,,,,,,,373.28827889999957,373.30220349999945,373.8035745999987,373.7882557999983,373.79913459999807,373.8035745999987,373.8035745999987,373.8035745999987,375.0708259999992,Scenes\180a.jpg,pre,s,1.2602681999997003,None,,,,00057,001,2026-01-18_22h26.01.980,MST_test,2024.2.0,59.88959951262023,2026-01-18 22h26.48.014365 +0530,
120,0,121,s,2.5002435999995214,None,121,0,120,375.0855883999975,,,,,,,,,,,,,,,,,,,,,,,,,,,,,,,,,,,,,,,,,,,,,,,,,,375.0712261999979,375.0855883999975,375.5861565999985,375.570292299999,375.58297289999973,375.5861565999985,375.5861565999985,375.5861565999985,378.08851429999777,Scenes\119a.jpg,pre,s,2.5002435999995214,None,,,,00057,001,2026-01-18_22h26.01.980,MST_test,2024.2.0,59.88959951262023,2026-01-18 22h26.48.014365 +0530,
121,0,122,o,1.0417937000020174,None,122,0,121,378.1020155999977,,,,,,,,,,,,,,,,,,,,,,,,,,,,,,,,,,,,,,,,,,,,,,,,,,378.08875449999687,378.1020155999977,378.62186889999793,378.58655539999745,378.6177342999981,378.62186889999793,378.62186889999793,378.62186889999793,379.6709447999965,Objects\062b.jpg,post,o,1.0417937000020174,None,,,,00057,001,2026-01-18_22h26.01.980,MST_test,2024.2.0,59.88959951262023,2026-01-18 22h26.48.014365 +0530,
122,0,123,s,2.044880400000693,None,123,0,122,379.68554199999926,,,,,,,,,,,,,,,,,,,,,,,,,,,,,,,,,,,,,,,,,,,,,,,,,,379.67128969999976,379.68554199999926,380.22576859999754,380.1699245999989,380.2228898999965,380.22576859999754,380.22576859999754,380.22576859999754,382.2877393999988,Scenes\076b.jpg,mid,s,2.044880400000693,None,,,,00057,001,2026-01-18_22h26.01.980,MST_test,2024.2.0,59.88959951262023,2026-01-18 22h26.48.014365 +0530,
123,0,124,o,1.4637036000021908,None,124,0,123,382.30210729999817,,,,,,,,,,,,,,,,,,,,,,,,,,,,,,,,,,,,,,,,,,,,,,,,,,382.28804839999793,382.30210729999817,382.85464899999715,382.78704519999883,382.85123459999886,382.85464899999715,382.85464899999715,382.85464899999715,384.32135549999657,Scenes\020b.jpg,post,o,1.4637036000021908,None,,,,00057,001,2026-01-18_22h26.01.980,MST_test,2024.2.0,59.88959951262023,2026-01-18 22h26.48.014365 +0530,
124,0,125,o,1.0312844999971276,None,125,0,124,384.3364402999978,,,,,,,,,,,,,,,,,,,,,,,,,,,,,,,,,,,,,,,,,,,,,,,,,,384.3216928999973,384.3364402999978,384.8649329,384.82004919999963,384.86200349999854,384.8649329,384.8649329,384.8649329,385.90482039999915,Objects\182b.jpg,pre,o,1.0312844999971276,None,,,,00057,001,2026-01-18_22h26.01.980,MST_test,2024.2.0,59.88959951262023,2026-01-18 22h26.48.014365 +0530,
125,0,126,o,2.051069400000415,None,126,0,125,385.9186968999966,,,,,,,,,,,,,,,,,,,,,,,,,,,,,,,,,,,,,,,,,,,,,,,,,,385.90518189999784,385.9186968999966,386.4192465999986,386.40285559999757,386.40964699999677,386.4192465999986,386.4192465999986,386.4192465999986,388.4871407999999,Objects\102a.jpg,post,o,2.051069400000415,None,,,,00057,001,2026-01-18_22h26.01.980,MST_test,2024.2.0,59.88959951262023,2026-01-18 22h26.48.014365 +0530,
126,0,127,n,2.157389100000728,None,127,0,126,388.5020936999972,,,,,,,,,,,,,,,,,,,,,,,,,,,,,,,,,,,,,,,,,,,,,,,,,,388.48746129999927,388.5020936999972,389.0026168999975,388.98755209999945,388.9981093999995,389.0026168999975,389.0026168999975,389.0026168999975,391.1712364999985,Scenes\173a.jpg,pre,n,2.157389100000728,None,,,,00057,001,2026-01-18_22h26.01.980,MST_test,2024.2.0,59.88959951262023,2026-01-18 22h26.48.014365 +0530,
127,0,128,s,1.3617173999991792,None,128,0,127,391.185644899997,,,,,,,,,,,,,,,,,,,,,,,,,,,,,,,,,,,,,,,,,,,,,,,,,,391.17161589999887,391.185644899997,391.6860557,391.6699058999984,391.67736499999955,391.6860557,391.6860557,391.6860557,393.054185099998,Objects\086a.jpg,post,s,1.3617173999991792,None,,,,00057,001,2026-01-18_22h26.01.980,MST_test,2024.2.0,59.88959951262023,2026-01-18 22h26.48.014365 +0530,
128,0,129,o,0.8386796999984654,None,129,0,128,393.06897639999806,,,,,,,,,,,,,,,,,,,,,,,,,,,,,,,,,,,,,,,,,,,,,,,,,,393.0545014999989,393.06897639999806,393.5847383,393.5533448999995,393.582080199998,393.5847383,393.5847383,393.5847383,394.4376513999996,Foils\106a.jpg,none,o,0.8386796999984654,None,,,,00057,001,2026-01-18_22h26.01.980,MST_test,2024.2.0,59.88959951262023,2026-01-18 22h26.48.014365 +0530,
129,0,130,o,0.8311164000006102,None,130,0,129,394.45185839999976,,,,,,,,,,,,,,,,,,,,,,,,,,,,,,,,,,,,,,,,,,,,,,,,,,394.43802389999837,394.45185839999976,394.95232039999973,394.9368516999966,394.94605879999654,394.95232039999973,394.95232039999973,394.95232039999973,395.7872866999969,Objects\072a.jpg,post,o,0.8311164000006102,None,,,,00057,001,2026-01-18_22h26.01.980,MST_test,2024.2.0,59.88959951262023,2026-01-18 22h26.48.014365 +0530,
130,0,131,s,1.673643300000549,None,131,0,130,395.8022755999991,,,,,,,,,,,,,,,,,,,,,,,,,,,,,,,,,,,,,,,,,,,,,,,,,,395.7877195999972,395.8022755999991,396.30233849999786,396.28656709999996,396.2929596999966,396.30233849999786,396.30233849999786,396.30233849999786,397.98716409999906,Objects\123a.jpg,mid,s,1.673643300000549,None,,,,00057,001,2026-01-18_22h26.01.980,MST_test,2024.2.0,59.88959951262023,2026-01-18 22h26.48.014365 +0530,
131,0,132,o,1.1449361000013596,None,132,0,131,398.0022109999991,,,,,,,,,,,,,,,,,,,,,,,,,,,,,,,,,,,,,,,,,,,,,,,,,,397.98738779999985,398.0022109999991,398.502475199999,398.4865757999978,398.492711699997,398.502475199999,398.502475199999,398.502475199999,399.65416639999967,Objects\042a.jpg,mid,o,1.1449361000013596,None,,,,00057,001,2026-01-18_22h26.01.980,MST_test,2024.2.0,59.88959951262023,2026-01-18 22h26.48.014365 +0530,
132,0,133,s,2.006194099998538,None,133,0,132,399.66869379999844,,,,,,,,,,,,,,,,,,,,,,,,,,,,,,,,,,,,,,,,,,,,,,,,,,399.65452039999946,399.66869379999844,400.20974309999656,400.15334489999805,400.20622789999834,400.20974309999656,400.20974309999656,400.20974309999656,402.22074489999795,Scenes\096b.jpg,post,s,2.006194099998538,None,,,,00057,001,2026-01-18_22h26.01.980,MST_test,2024.2.0,59.88959951262023,2026-01-18 22h26.48.014365 +0530,
133,0,134,s,1.2481463999974949,None,134,0,133,402.23564839999744,,,,,,,,,,,,,,,,,,,,,,,,,,,,,,,,,,,,,,,,,,,,,,,,,,402.22111629999927,402.23564839999744,402.7507422999988,402.7204950999985,402.7481142999968,402.7507422999988,402.7507422999988,402.7507422999988,404.0040310999975,Objects\095b.jpg,mid,s,1.2481463999974949,None,,,,00057,001,2026-01-18_22h26.01.980,MST_test,2024.2.0,59.88959951262023,2026-01-18 22h26.48.014365 +0530,
134,0,135,o,1.350254800003313,None,135,0,134,404.0189591999988,,,,,,,,,,,,,,,,,,,,,,,,,,,,,,,,,,,,,,,,,,,,,,,,,,404.0042964999993,404.0189591999988,404.52117579999685,404.5034801999973,404.5182494999972,404.52117579999685,404.52117579999685,404.52117579999685,405.88758919999964,Scenes\062b.jpg,post,o,1.350254800003313,None,,,,00057,001,2026-01-18_22h26.01.980,MST_test,2024.2.0,59.88959951262023,2026-01-18 22h26.48.014365 +0530,
135,0,136,s,1.4621204000031867,None,136,0,135,405.9021442999983,,,,,,,,,,,,,,,,,,,,,,,,,,,,,,,,,,,,,,,,,,,,,,,,,,405.88789279999764,405.9021442999983,406.46473259999766,406.386823599998,406.4231805999989,406.46473259999766,406.46473259999766,406.46473259999766,407.93865829999777,Objects\177b.jpg,mid,s,1.4621204000031867,None,,,,00057,001,2026-01-18_22h26.01.980,MST_test,2024.2.0,59.88959951262023,2026-01-18 22h26.48.014365 +0530,
136,0,137,s,1.7064074000008986,None,137,0,136,407.9524051999979,,,,,,,,,,,,,,,,,,,,,,,,,,,,,,,,,,,,,,,,,,,,,,,,,,407.9389083999995,407.9524051999979,408.45241199999873,408.4367614999974,408.443374399998,408.45241199999873,408.45241199999873,408.45241199999873,410.17124429999967,Objects\092a.jpg,post,s,1.7064074000008986,None,,,,00057,001,2026-01-18_22h26.01.980,MST_test,2024.2.0,59.88959951262023,2026-01-18 22h26.48.014365 +0530,
137,0,138,n,2.150072699998418,None,138,0,137,410.1855809999979,,,,,,,,,,,,,,,,,,,,,,,,,,,,,,,,,,,,,,,,,,,,,,,,,,410.1715106999982,410.1855809999979,410.7366899999979,410.6698503999978,410.73386219999884,410.7366899999979,410.7366899999979,410.7366899999979,412.9043600999976,Scenes\055b.jpg,pre,n,2.150072699998418,None,,,,00057,001,2026-01-18_22h26.01.980,MST_test,2024.2.0,59.88959951262023,2026-01-18 22h26.48.014365 +0530,
138,0,139,n,1.3631018000014592,None,139,0,138,412.9188458999997,,,,,,,,,,,,,,,,,,,,,,,,,,,,,,,,,,,,,,,,,,,,,,,,,,412.9046672999975,412.9188458999997,413.41954449999685,413.4028710999992,413.4091096999982,413.41954449999685,413.41954449999685,413.41954449999685,414.78766429999814,Foils\073a.jpg,none,n,1.3631018000014592,None,,,,00057,001,2026-01-18_22h26.01.980,MST_test,2024.2.0,59.88959951262023,2026-01-18 22h26.48.014365 +0530,
139,0,140,s,1.1558541000013065,None,140,0,139,414.8021806999968,,,,,,,,,,,,,,,,,,,,,,,,,,,,,,,,,,,,,,,,,,,,,,,,,,414.7879705999985,414.8021806999968,415.33091839999906,415.2866036999985,415.3281625999989,415.33091839999906,415.33091839999906,415.33091839999906,416.50387489999775,Objects\176b.jpg,mid,s,1.1558541000013065,None,,,,00057,001,2026-01-18_22h26.01.980,MST_test,2024.2.0,59.88959951262023,2026-01-18 22h26.48.014365 +0530,
140,0,141,s,1.0775133999995887,None,141,0,140,416.51864939999723,,,,,,,,,,,,,,,,,,,,,,,,,,,,,,,,,,,,,,,,,,,,,,,,,,416.5042794999972,416.51864939999723,417.04934859999776,417.00323879999996,417.0464538999986,417.04934859999776,417.04934859999776,417.04934859999776,418.1370947999967,Objects\037b.jpg,pre,s,1.0775133999995887,None,,,,00057,001,2026-01-18_22h26.01.980,MST_test,2024.2.0,59.88959951262023,2026-01-18 22h26.48.014365 +0530,
141,0,142,s,0.9908442999985709,None,142,0,141,418.15214079999714,,,,,,,,,,,,,,,,,,,,,,,,,,,,,,,,,,,,,,,,,,,,,,,,,,418.1373971999965,418.15214079999714,418.6718132999995,418.6365772999998,418.6691527999974,418.6718132999995,418.6718132999995,418.6718132999995,419.67091999999684,Objects\147b.jpg,pre,s,0.9908442999985709,None,,,,00057,001,2026-01-18_22h26.01.980,MST_test,2024.2.0,59.88959951262023,2026-01-18 22h26.48.014365 +0530,
142,0,143,n,1.2376006000013149,None,143,0,142,419.6854972000001,,,,,,,,,,,,,,,,,,,,,,,,,,,,,,,,,,,,,,,,,,,,,,,,,,419.67122069999823,419.6854972000001,420.2262352999969,420.1700828999965,420.22330299999885,420.2262352999969,420.2262352999969,420.2262352999969,421.4708886999979,Scenes\007b.jpg,post,n,1.2376006000013149,None,,,,00057,001,2026-01-18_22h26.01.980,MST_test,2024.2.0,59.88959951262023,2026-01-18 22h26.48.014365 +0530,
143,0,144,n,0.9373720999974466,None,144,0,143,421.4855733999975,,,,,,,,,,,,,,,,,,,,,,,,,,,,,,,,,,,,,,,,,,,,,,,,,,421.47119159999784,421.4855733999975,422.05362089999835,421.9700163999987,422.0505685999997,422.05362089999835,422.05362089999835,422.05362089999835,423.00418159999754,Scenes\083b.jpg,pre,n,0.9373720999974466,None,,,,00057,001,2026-01-18_22h26.01.980,MST_test,2024.2.0,59.88959951262023,2026-01-18 22h26.48.014365 +0530,
144,0,145,n,1.3287864999983867,None,145,0,144,423.0188240999996,,,,,,,,,,,,,,,,,,,,,,,,,,,,,,,,,,,,,,,,,,,,,,,,,,423.0044206999992,423.0188240999996,423.58176489999823,423.50401169999896,423.57897049999883,423.58176489999823,423.58176489999823,423.58176489999823,424.9204304999985,Objects\080b.jpg,post,n,1.3287864999983867,None,,,,00057,001,2026-01-18_22h26.01.980,MST_test,2024.2.0,59.88959951262023,2026-01-18 22h26.48.014365 +0530,
145,0,146,s,1.2464026999987254,None,146,0,145,424.9353940999972,,,,,,,,,,,,,,,,,,,,,,,,,,,,,,,,,,,,,,,,,,,,,,,,,,424.92067939999833,424.9353940999972,425.4407446999976,425.4197690999972,425.4373713999994,425.4407446999976,425.4407446999976,425.4407446999976,426.7045177,Scenes\130a.jpg,post,s,1.2464026999987254,None,,,,00057,001,2026-01-18_22h26.01.980,MST_test,2024.2.0,59.88959951262023,2026-01-18 22h26.48.014365 +0530,
146,0,147,s,0.8670711000013398,None,147,0,146,426.71873869999763,,,,,,,,,,,,,,,,,,,,,,,,,,,,,,,,,,,,,,,,,,,,,,,,,,426.70487149999826,426.71873869999763,427.21965069999715,427.20338619999893,427.21385579999696,427.21965069999715,427.21965069999715,427.21965069999715,428.10437269999966,Scenes\126a.jpg,mid,s,0.8670711000013398,None,,,,00057,001,2026-01-18_22h26.01.980,MST_test,2024.2.0,59.88959951262023,2026-01-18 22h26.48.014365 +0530,
147,0,148,s,1.0509779999993043,None,148,0,147,428.11878889999934,,,,,,,,,,,,,,,,,,,,,,,,,,,,,,,,,,,,,,,,,,,,,,,,,,428.1047555999976,428.11878889999934,428.63571839999713,428.60355779999736,428.63274509999974,428.63571839999713,428.63571839999713,428.63571839999713,429.704343399997,Objects\126b.jpg,pre,s,1.0509779999993043,None,,,,00057,001,2026-01-18_22h26.01.980,MST_test,2024.2.0,59.88959951262023,2026-01-18 22h26.48.014365 +0530,
148,0,149,s,2.4940821999989566,None,149,0,148,429.71895879999647,,,,,,,,,,,,,,,,,,,,,,,,,,,,,,,,,,,,,,,,,,,,,,,,,,429.70474319999994,429.71895879999647,430.2333407999977,430.2032765999975,430.23045569999886,430.2333407999977,430.2333407999977,430.2333407999977,432.7374184,Objects\154b.jpg,mid,s,2.4940821999989566,None,,,,00057,001,2026-01-18_22h26.01.980,MST_test,2024.2.0,59.88959951262023,2026-01-18 22h26.48.014365 +0530,
149,0,150,o,0.8744962999990094,None,150,0,149,432.752291599998,,,,,,,,,,,,,,,,,,,,,,,,,,,,,,,,,,,,,,,,,,,,,,,,,,432.7378443999987,432.752291599998,433.25244439999733,433.2363546999986,433.241909999997,433.25244439999733,433.25244439999733,433.25244439999733,434.13745559999734,Objects\164a.jpg,post,o,0.8744962999990094,None,,,,00057,001,2026-01-18_22h26.01.980,MST_test,2024.2.0,59.88959951262023,2026-01-18 22h26.48.014365 +0530,
,,,,,,,,,,,,,,,,,,,,,,,,,,,,,,,,,,,,,,,,,,,,,,,,,,,,,,,,,,,,,,,,,,,,,,,,,434.13771579999957,434.15254229999846,434.15254229999846,,,,,,,,
