Sl_no,image_path,thisN,thisTrialN,thisRepN,key_resp_5.keys,key_resp_7.keys,key_resp_7.rt,key_resp_7.duration,key_resp_5.rt,key_resp_5.duration,key_resp_9.keys,key_resp_9.rt,key_resp_9.duration,key_resp_8.keys,key_resp_8.rt,key_resp_8.duration,practice.thisRepN,practice.thisTrialN,practice.thisN,trials.thisRepN,trials.thisTrialN,trials.thisN,thisRow.t,notes,welcome_page.started,text.started,key_resp.started,welcome_page.stopped,key_resp.keys,key_resp.rt,key_resp.duration,instructions.started,ins.started,key_resp_2.started,instructions.stopped,key_resp_2.keys,key_resp_2.rt,key_resp_2.duration,instructions_2.started,text_10.started,key_resp_10.started,instructions_2.stopped,key_resp_10.keys,key_resp_10.rt,key_resp_10.duration,objects_only_instruction.started,text_3.started,key_resp_3.started,objects_only_instruction.stopped,key_resp_3.keys,key_resp_3.rt,key_resp_3.duration,ISI.started,text_4.started,ISI.stopped,practice_block.started,image.started,text_5.started,key_resp_5.started,practice_block.stopped,practice.key_resp_5.keys,indoor_outdoor.started,text_7.started,key_resp_7.started,indoor_outdoor.stopped,practice.key_resp_7.keys,practice.key_resp_7.rt,practice.key_resp_7.duration,text_4.stopped,practice.key_resp_5.rt,practice.key_resp_5.duration,image.stopped,text_5.stopped,key_resp_5.stopped,practice_to_main.started,text_2.started,key_resp_4.started,practice_to_main.stopped,key_resp_4.keys,key_resp_4.rt,key_resp_4.duration,objects.started,image_2.started,text_9.started,key_resp_9.started,objects.stopped,trials.key_resp_9.keys,trials.key_resp_9.rt,trials.key_resp_9.duration,encoding_task.started,encoding_task.stopped,trials.key_resp_8.keys,text_8.started,key_resp_8.started,trials.key_resp_8.rt,trials.key_resp_8.duration,end_experiment.started,text_6.started,key_resp_6.started,end_experiment.stopped,key_resp_6.keys,key_resp_6.rt,key_resp_6.duration,list_of_stimuli,encoding_task_accuracy,participant,session,date,expName,psychopyVersion,frameRate,expStart,
,,,,,,,,,,,,,,,,,,,,,,,,,0.0015097000014065998,0.0034450000002834713,0.0034450000002834713,9.496823500001483,space,9.478213599999435,None,,,,,,,,,,,,,,,,,,,,,,,,,,,,,,,,,,,,,,,,,,,,,,,,,,,,,,,,,,,,,,,,,,,,,,,,,,,00055,001,2026-01-18_18h37.48.341,MST_task,2024.2.0,60.02880181938554,2026-01-18 18h37.57.451793 +0530,
,,,,,,,,,,,,,,,,,,,,,,,,,,,,,,,,9.496914299999844,9.516735500001232,9.516735500001232,30.573080199999822,space,21.053396900000735,None,,,,,,,,,,,,,,,,,,,,,,,,,,,,,,,,,,,,,,,,,,,,,,,,,,,,,,,,,,,,,,,,,,,,00055,001,2026-01-18_18h37.48.341,MST_task,2024.2.0,60.02880181938554,2026-01-18 18h37.57.451793 +0530,
,,,,,,,,,,,,,,,,,,,,,,,,,,,,,,,,,,,,,,,30.57317200000034,30.587798900000053,30.587798900000053,47.13945290000083,space,16.54175270000087,None,,,,,,,,,,,,,,,,,,,,,,,,,,,,,,,,,,,,,,,,,,,,,,,,,,,,,,,,,,,,,00055,001,2026-01-18_18h37.48.341,MST_task,2024.2.0,60.02880181938554,2026-01-18 18h37.57.451793 +0530,
,,,,,,,,,,,,,,,,,,,,,,,,,,,,,,,,,,,,,,,,,,,,,,47.13957400000072,47.154660800000784,47.154660800000784,97.30602040000122,space,50.13433900000018,None,,,,,,,,,,,,,,,,,,,,,,,,,,,,,,,,,,,,,,,,,,,,,,,,,,,,,,00055,001,2026-01-18_18h37.48.341,MST_task,2024.2.0,60.02880181938554,2026-01-18 18h37.57.451793 +0530,
6,practice_images/158a.jpg,0,0,1,None,j,0.27527269999882265,None,,,,,,,,,1,0,0,,,,97.3449870000004,,,,,,,,,,,,,,,,,,,,,,,,,,,,,,97.34207380000043,97.3449870000004,97.82132790000105,97.87624500000129,97.90946410000106,97.90946410000106,97.90946410000106,100.82136840000021,None,100.82548190000125,100.83787620000112,100.83787620000112,101.12311390000104,j,0.27527269999882265,None,,,,,,,,,,,,,,,,,,,,,,,,,,,,,,,,,,,,,,00055,001,2026-01-18_18h37.48.341,MST_task,2024.2.0,60.02880181938554,2026-01-18 18h37.57.451793 +0530,
4,practice_images/002b.jpg,1,1,1,f,None,,,1.8738966999990225,0.1919209999996383,,,,,,,1,1,1,,,,101.13763460000155,,,,,,,,,,,,,,,,,,,,,,,,,,,,,,101.12336040000082,101.13763460000155,101.62214780000068,101.6603367000007,101.663225100001,101.663225100001,101.663225100001,104.63816720000068,f,104.63831670000036,,,104.63836100000117,None,,,101.663225100001,1.8738966999990225,0.1919209999996383,,,,,,,,,,,,,,,,,,,,,,,,,,,,,,,,,,,00055,001,2026-01-18_18h37.48.341,MST_task,2024.2.0,60.02880181938554,2026-01-18 18h37.57.451793 +0530,
10,practice_images/182a.jpg,2,2,1,f,None,,,2.009690999999293,0.13617880000128935,,,,,,,1,2,2,,,,104.65443490000143,,,,,,,,,,,,,,,,,,,,,,,,,,,,,,104.63856070000111,104.65443490000143,105.13886710000043,105.17174710000108,105.17494640000041,105.17494640000041,105.17494640000041,108.15509290000045,f,108.15524550000009,,,108.15529910000078,None,,,105.17494640000041,2.009690999999293,0.13617880000128935,,,,,,,,,,,,,,,,,,,,,,,,,,,,,,,,,,,00055,001,2026-01-18_18h37.48.341,MST_task,2024.2.0,60.02880181938554,2026-01-18 18h37.57.451793 +0530,
3,practice_images/037a.jpg,3,3,1,f,None,,,1.5651653000004444,0.18394959999932325,,,,,,,1,3,3,,,,108.17100370000117,,,,,,,,,,,,,,,,,,,,,,,,,,,,,,108.15553920000093,108.17100370000117,108.65553020000152,108.68918090000079,108.69175739999991,108.69175739999991,108.69175739999991,111.67172449999998,f,111.6718879,,,111.67193709999992,None,,,108.69175739999991,1.5651653000004444,0.18394959999932325,,,,,,,,,,,,,,,,,,,,,,,,,,,,,,,,,,,00055,001,2026-01-18_18h37.48.341,MST_task,2024.2.0,60.02880181938554,2026-01-18 18h37.57.451793 +0530,
1,practice_images/013a.jpg,4,4,1,j,None,,,1.2721455999999307,0.16032439999980852,,,,,,,1,4,4,,,,111.688775300001,,,,,,,,,,,,,,,,,,,,,,,,,,,,,,111.67215140000008,111.688775300001,112.18800720000036,112.21459510000022,112.21701800000119,112.21701800000119,112.21701800000119,115.18824420000055,j,115.18843540000125,,,115.18850160000147,None,,,,1.2721455999999307,0.16032439999980852,,,,,,,,,,,,,,,,,,,,,,,,,,,,,,,,,,,00055,001,2026-01-18_18h37.48.341,MST_task,2024.2.0,60.02880181938554,2026-01-18 18h37.57.451793 +0530,
5,practice_images/139a.jpg,5,5,1,j,None,,,2.3461602999996103,0.14430949999950826,,,,,,,1,5,5,,,,115.20444120000138,,,,,,,,,,,,,,,,,,,,,,,,,,,,,,115.1888222000016,115.20444120000138,115.6888310000013,115.72466060000079,115.72713600000134,115.72713600000134,115.72713600000134,118.70488800000021,j,118.71051270000135,,,118.71056950000093,None,,,115.72713600000134,2.3461602999996103,0.14430949999950826,,,,,,,,,,,,,,,,,,,,,,,,,,,,,,,,,,,00055,001,2026-01-18_18h37.48.341,MST_task,2024.2.0,60.02880181938554,2026-01-18 18h37.57.451793 +0530,
7,practice_images/166a.jpg,6,6,1,f,None,,,2.2745487000011053,0.11912549999942712,,,,,,,1,6,6,,,,118.72101860000112,,,,,,,,,,,,,,,,,,,,,,,,,,,,,,118.7107915000015,118.72101860000112,119.20542519999981,119.2206780000015,119.22349300000133,119.22349300000133,119.22349300000133,122.22160460000123,f,122.22171010000056,,,122.2217539000012,None,,,119.22349300000133,2.2745487000011053,0.11912549999942712,,,,,,,,,,,,,,,,,,,,,,,,,,,,,,,,,,,00055,001,2026-01-18_18h37.48.341,MST_task,2024.2.0,60.02880181938554,2026-01-18 18h37.57.451793 +0530,
2,practice_images/031a.jpg,7,7,1,f,None,,,1.910606600000392,0.1678501000005781,,,,,,,1,7,7,,,,122.23771190000116,,,,,,,,,,,,,,,,,,,,,,,,,,,,,,122.22195490000013,122.23771190000116,122.72223870000016,122.73620180000034,122.73882700000104,122.73882700000104,122.73882700000104,125.72239520000039,f,125.72257330000139,,,125.72264420000101,None,,,122.73882700000104,1.910606600000392,0.1678501000005781,125.73788969999987,125.73788969999987,125.73788969999987,,,,,,,,,,,,,,,,,,,,,,,,,,,,,,,,00055,001,2026-01-18_18h37.48.341,MST_task,2024.2.0,60.02880181938554,2026-01-18 18h37.57.451793 +0530,
9,practice_images/180a.jpg,8,8,1,j,None,,,2.0484641999992164,0.19202450000011595,,,,,,,1,8,8,,,,125.73788969999987,,,,,,,,,,,,,,,,,,,,,,,,,,,,,,125.72294670000156,125.73788969999987,126.22214590000112,126.2459873000007,126.24908210000103,126.24908210000103,126.24908210000103,129.23810830000002,j,129.23828500000127,,,129.23835420000069,None,,,126.24908210000103,2.0484641999992164,0.19202450000011595,,,,,,,,,,,,,,,,,,,,,,,,,,,,,,,,,,,00055,001,2026-01-18_18h37.48.341,MST_task,2024.2.0,60.02880181938554,2026-01-18 18h37.57.451793 +0530,
8,practice_images/178a.jpg,9,9,1,f,None,,,2.5731660000001284,0.23917070000061358,,,,,,,1,9,9,,,,129.25458480000088,,,,,,,,,,,,,,,,,,,,,,,,,,,,,,129.23867650000102,129.25458480000088,129.73906720000014,129.75368119999985,129.7572407000007,129.7572407000007,129.7572407000007,132.7550529,f,132.7552037000005,,,132.75524399999995,None,,,129.7572407000007,2.5731660000001284,0.23917070000061358,,,,,,,,,,,,,,,,,,,,,,,,,,,,,,,,,,,00055,001,2026-01-18_18h37.48.341,MST_task,2024.2.0,60.02880181938554,2026-01-18 18h37.57.451793 +0530,
,,,,,,,,,,,,,,,,,,,,,,,,,,,,,,,,,,,,,,,,,,,,,,,,,,,,,,,,,,,,,,,,,,,,,,,,,,,132.75538469999992,132.77107370000158,132.77107370000158,156.78913810000086,space,24.00596039999982,None,,,,,,,,,,,,,,,,,,,,,,,,,00055,001,2026-01-18_18h37.48.341,MST_task,2024.2.0,60.02880181938554,2026-01-18 18h37.57.451793 +0530,
,Objects\052a.jpg,0,0,1,,,,,,,f,1.5766137000009621,0.1196550999993633,None,,,,,,1,0,0,156.80436499999996,,,,,,,,,,,,,,,,,,,,,,,,,,,,,,156.79164730000048,156.80436499999996,157.2890408000003,,,,,,,,,,,,,,157.33718450000015,,,,,,,,,,,,,157.3336001000007,157.33718450000015,157.33718450000015,157.33718450000015,160.30487979999998,f,1.5766137000009621,0.1196550999993633,160.31201580000015,160.31205610000143,None,,,,,,,,,,,,,,00055,001,2026-01-18_18h37.48.341,MST_task,2024.2.0,60.02880181938554,2026-01-18 18h37.57.451793 +0530,
,Objects\131a.jpg,1,0,2,,,,,,,f,1.9327197999991768,0.21711560000039754,None,,,,,,2,0,1,160.32113690000006,,,,,,,,,,,,,,,,,,,,,,,,,,,,,,160.31220340000073,160.32113690000006,160.80560660000083,,,,,,,,,,,,,,160.84390540000095,,,,,,,,,,,,,160.84105760000057,160.84390540000095,160.84390540000095,160.84390540000095,163.82147299999997,f,1.9327197999991768,0.21711560000039754,163.82166210000105,163.8217278000011,None,,,,,,,,,,,,,,00055,001,2026-01-18_18h37.48.341,MST_task,2024.2.0,60.02880181938554,2026-01-18 18h37.57.451793 +0530,
,Objects\174a.jpg,2,0,3,,,,,,,f,1.4297280000009778,0.1587466000000859,None,,,,,,3,0,2,163.83788020000065,,,,,,,,,,,,,,,,,,,,,,,,,,,,,,163.8220121000013,163.83788020000065,164.3222067000006,,,,,,,,,,,,,,164.35651640000106,,,,,,,,,,,,,164.35326830000122,164.35651640000106,164.35651640000106,164.35651640000106,167.3381113000014,f,1.4297280000009778,0.1587466000000859,167.33822630000031,167.33826540000155,None,,,,,,,,,,,,,,00055,001,2026-01-18_18h37.48.341,MST_task,2024.2.0,60.02880181938554,2026-01-18 18h37.57.451793 +0530,
,Objects\109a.jpg,3,0,4,,,,,,,j,1.335262500000681,0.20052729999952135,None,,,,,,4,0,3,167.3544049000011,,,,,,,,,,,,,,,,,,,,,,,,,,,,,,167.33852910000132,167.3544049000011,167.83891770000082,,,,,,,,,,,,,,167.87301280000065,,,,,,,,,,,,,167.87006870000005,167.87301280000065,167.87301280000065,167.87301280000065,170.85471049999978,j,1.335262500000681,0.20052729999952135,170.85483750000094,170.85488270000133,None,,,,,,,,,,,,,,00055,001,2026-01-18_18h37.48.341,MST_task,2024.2.0,60.02880181938554,2026-01-18 18h37.57.451793 +0530,
,Objects\035a.jpg,4,0,5,,,,,,,j,2.848764799999117,None,None,,,,,,5,0,4,170.87110340000072,,,,,,,,,,,,,,,,,,,,,,,,,,,,,,170.8552238000011,170.87110340000072,171.35548950000157,,,,,,,,,,,,,,171.38373219999994,,,,,,,,,,,,,171.38012960000015,171.38373219999994,171.38373219999994,171.38373219999994,174.37146350000148,j,2.848764799999117,None,174.37165470000036,174.3717228000005,None,,,,,,,,,,,,,,00055,001,2026-01-18_18h37.48.341,MST_task,2024.2.0,60.02880181938554,2026-01-18 18h37.57.451793 +0530,
,Objects\063a.jpg,5,0,6,,,,,,,f,1.3056097999997291,0.1747213999988162,None,,,,,,6,0,5,174.38775619999979,,,,,,,,,,,,,,,,,,,,,,,,,,,,,,174.37197150000065,174.38775619999979,174.87216750000152,,,,,,,,,,,,,,174.91211450000083,,,,,,,,,,,,,174.90923380000095,174.91211450000083,174.91211450000083,174.91211450000083,177.88806900000054,f,1.3056097999997291,0.1747213999988162,177.88823650000086,177.8882991999999,None,,,,,,,,,,,,,,00055,001,2026-01-18_18h37.48.341,MST_task,2024.2.0,60.02880181938554,2026-01-18 18h37.57.451793 +0530,
,Objects\087a.jpg,6,0,7,,,,,,,j,2.4807961999995314,0.13558670000020356,None,,,,,,7,0,6,177.90434470000037,,,,,,,,,,,,,,,,,,,,,,,,,,,,,,177.8886566000001,177.90434470000037,178.38885540000047,,,,,,,,,,,,,,178.42456590000074,,,,,,,,,,,,,178.42139150000003,178.42456590000074,178.42456590000074,178.42456590000074,181.40474370000084,j,2.4807961999995314,0.13558670000020356,181.40486610000153,181.40490409999984,None,,,,,,,,,,,,,,00055,001,2026-01-18_18h37.48.341,MST_task,2024.2.0,60.02880181938554,2026-01-18 18h37.57.451793 +0530,
,Scenes\008a.jpg,7,0,8,,,,,,,j,1.9871566999991046,0.16795300000012503,None,,,,,,8,0,7,181.42117130000042,,,,,,,,,,,,,,,,,,,,,,,,,,,,,,181.40516730000127,181.42117130000042,181.90570520000074,,,,,,,,,,,,,,181.95809760000157,,,,,,,,,,,,,181.95520790000046,181.95809760000157,181.95809760000157,181.95809760000157,184.92175300000054,j,1.9871566999991046,0.16795300000012503,184.92688700000144,184.92694180000035,None,,,,,,,,,,,,,,00055,001,2026-01-18_18h37.48.341,MST_task,2024.2.0,60.02880181938554,2026-01-18 18h37.57.451793 +0530,
,Scenes\096a.jpg,8,0,9,,,,,,,j,2.1498938000004273,0.1686253999996552,None,,,,,,9,0,8,184.93778160000147,,,,,,,,,,,,,,,,,,,,,,,,,,,,,,184.92716440000004,184.93778160000147,185.4221131000013,,,,,,,,,,,,,,185.46725669999978,,,,,,,,,,,,,185.46482170000127,185.46725669999978,185.46725669999978,185.46725669999978,188.43880250000075,j,2.1498938000004273,0.1686253999996552,188.43899340000098,188.43905950000044,None,,,,,,,,,,,,,,00055,001,2026-01-18_18h37.48.341,MST_task,2024.2.0,60.02880181938554,2026-01-18 18h37.57.451793 +0530,
,Scenes\122a.jpg,9,0,10,,,,,,,f,1.985245699999723,0.14355309999882593,None,,,,,,10,0,9,188.4545216000006,,,,,,,,,,,,,,,,,,,,,,,,,,,,,,188.43940060000023,188.4545216000006,188.938882800001,,,,,,,,,,,,,,189.0005412999999,,,,,,,,,,,,,188.9975000000013,189.0005412999999,189.0005412999999,189.0005412999999,191.9548233000005,f,1.985245699999723,0.14355309999882593,191.9550022000003,191.95506780000142,None,,,,,,,,,,,,,,00055,001,2026-01-18_18h37.48.341,MST_task,2024.2.0,60.02880181938554,2026-01-18 18h37.57.451793 +0530,
,Scenes\021a.jpg,10,0,11,,,,,,,j,2.0337017999991076,0.20791340000141645,None,,,,,,11,0,10,191.97100310000133,,,,,,,,,,,,,,,,,,,,,,,,,,,,,,191.95551270000033,191.97100310000133,192.45544940000036,,,,,,,,,,,,,,192.5278997000005,,,,,,,,,,,,,192.52443360000143,192.5278997000005,192.5278997000005,192.5278997000005,195.4714939000005,j,2.0337017999991076,0.20791340000141645,195.4716700000008,195.4717184000001,None,,,,,,,,,,,,,,00055,001,2026-01-18_18h37.48.341,MST_task,2024.2.0,60.02880181938554,2026-01-18 18h37.57.451793 +0530,
,Scenes\152a.jpg,11,0,12,,,,,,,j,1.1882724999995844,0.17504279999957362,None,,,,,,12,0,11,195.48783920000096,,,,,,,,,,,,,,,,,,,,,,,,,,,,,,195.47197310000047,195.48783920000096,195.97218560000147,,,,,,,,,,,,,,196.0291699999998,,,,,,,,,,,,,196.0258231000007,196.0291699999998,196.0291699999998,196.0291699999998,198.98821959999987,j,1.1882724999995844,0.17504279999957362,198.98834930000157,198.98838980000073,None,,,,,,,,,,,,,,00055,001,2026-01-18_18h37.48.341,MST_task,2024.2.0,60.02880181938554,2026-01-18 18h37.57.451793 +0530,
,Scenes\172a.jpg,12,0,13,,,,,,,j,2.143958199998451,0.14398120000078052,None,,,,,,13,0,12,199.0044205000013,,,,,,,,,,,,,,,,,,,,,,,,,,,,,,198.98869970000123,199.0044205000013,199.48932070000046,,,,,,,,,,,,,,,,,,,,,,,,,,,199.57457410000097,199.57750579999993,199.57750579999993,199.57750579999993,202.5047934000013,j,2.143958199998451,0.14398120000078052,202.50496720000046,202.50503320000098,None,,,,,,,,,,,,,,00055,001,2026-01-18_18h37.48.341,MST_task,2024.2.0,60.02880181938554,2026-01-18 18h37.57.451793 +0530,
,Scenes\013a.jpg,13,0,14,,,,,,,j,2.6674460000012914,0.12008570000034524,None,,,,,,14,0,13,202.5210592000003,,,,,,,,,,,,,,,,,,,,,,,,,,,,,,202.5053551000001,202.5210592000003,203.00545010000133,,,,,,,,,,,,,,203.08608840000124,,,,,,,,,,,,,203.08268790000147,203.08608840000124,203.08608840000124,203.08608840000124,206.02170790000127,j,2.6674460000012914,0.12008570000034524,206.02187790000062,206.02194830000008,None,,,,,,,,,,,,,,00055,001,2026-01-18_18h37.48.341,MST_task,2024.2.0,60.02880181938554,2026-01-18 18h37.57.451793 +0530,
,Objects\040a.jpg,14,0,15,,,,,,,f,1.0989066999991337,0.160496399999829,None,,,,,,15,0,14,206.03783750000002,,,,,,,,,,,,,,,,,,,,,,,,,,,,,,206.02229700000134,206.03783750000002,206.52195790000042,,,,,,,,,,,,,,206.55804370000078,,,,,,,,,,,,,206.55453130000024,206.55804370000078,206.55804370000078,206.55804370000078,209.53838610000093,f,1.0989066999991337,0.160496399999829,209.54290700000092,209.5429382000002,None,,,,,,,,,,,,,,00055,001,2026-01-18_18h37.48.341,MST_task,2024.2.0,60.02880181938554,2026-01-18 18h37.57.451793 +0530,
,Objects\181a.jpg,15,0,16,,,,,,,f,2.3708583999996335,0.18426179999914893,None,,,,,,16,0,15,209.5543783000012,,,,,,,,,,,,,,,,,,,,,,,,,,,,,,209.54305860000022,209.5543783000012,210.03873080000085,,,,,,,,,,,,,,210.06249990000106,,,,,,,,,,,,,210.0597748,210.06249990000106,210.06249990000106,210.06249990000106,213.0546086000013,f,2.3708583999996335,0.18426179999914893,213.05472890000055,213.05477090000022,None,,,,,,,,,,,,,,00055,001,2026-01-18_18h37.48.341,MST_task,2024.2.0,60.02880181938554,2026-01-18 18h37.57.451793 +0530,
,Objects\147a.jpg,16,0,17,,,,,,,f,2.3999511000001803,0.1749679999993532,None,,,,,,17,0,16,213.07107200000064,,,,,,,,,,,,,,,,,,,,,,,,,,,,,,213.05498440000156,213.07107200000064,213.5553267000014,,,,,,,,,,,,,,213.60185850000016,,,,,,,,,,,,,213.59873030000017,213.60185850000016,213.60185850000016,213.60185850000016,216.57134700000097,f,2.3999511000001803,0.1749679999993532,216.57147520000035,216.5715177000002,None,,,,,,,,,,,,,,00055,001,2026-01-18_18h37.48.341,MST_task,2024.2.0,60.02880181938554,2026-01-18 18h37.57.451793 +0530,
,Objects\058a.jpg,17,0,18,,,,,,,f,1.5629399999997986,0.09544930000083696,None,,,,,,18,0,17,216.58791030000066,,,,,,,,,,,,,,,,,,,,,,,,,,,,,,216.5717338000013,216.58791030000066,217.07183450000048,,,,,,,,,,,,,,217.1022621000011,,,,,,,,,,,,,217.09932780000054,217.1022621000011,217.1022621000011,217.1022621000011,220.07180230000085,f,1.5629399999997986,0.09544930000083696,220.07196530000147,220.07200680000096,None,,,,,,,,,,,,,,00055,001,2026-01-18_18h37.48.341,MST_task,2024.2.0,60.02880181938554,2026-01-18 18h37.57.451793 +0530,
,Objects\036a.jpg,18,0,19,,,,,,,f,1.576539400000911,0.1923826000002009,None,,,,,,19,0,18,220.08777420000115,,,,,,,,,,,,,,,,,,,,,,,,,,,,,,220.07221949999985,220.08777420000115,220.57200019999982,,,,,,,,,,,,,,220.61582240000098,,,,,,,,,,,,,220.61306610000065,220.61582240000098,220.61582240000098,220.61582240000098,223.5881846000011,f,1.576539400000911,0.1923826000002009,223.58835720000025,223.5884231,None,,,,,,,,,,,,,,00055,001,2026-01-18_18h37.48.341,MST_task,2024.2.0,60.02880181938554,2026-01-18 18h37.57.451793 +0530,
,Objects\191a.jpg,19,0,20,,,,,,,f,0.9340242999987822,0.12631810000129917,None,,,,,,20,0,19,223.6043533000011,,,,,,,,,,,,,,,,,,,,,,,,,,,,,,223.58868390000134,223.6043533000011,224.0887397000006,,,,,,,,,,,,,,224.1321112000005,,,,,,,,,,,,,224.12919950000105,224.1321112000005,224.1321112000005,224.1321112000005,227.10469540000122,f,0.9340242999987822,0.12631810000129917,227.10486830000082,227.10493440000027,None,,,,,,,,,,,,,,00055,001,2026-01-18_18h37.48.341,MST_task,2024.2.0,60.02880181938554,2026-01-18 18h37.57.451793 +0530,
,Objects\106a.jpg,20,0,21,,,,,,,f,2.05867760000001,0.11982629999874916,None,,,,,,21,0,20,227.1211123000012,,,,,,,,,,,,,,,,,,,,,,,,,,,,,,227.105289000001,227.1211123000012,227.60584410000047,,,,,,,,,,,,,,227.64610750000065,,,,,,,,,,,,,227.64277370000127,227.64610750000065,227.64610750000065,227.64610750000065,230.62148020000132,f,2.05867760000001,0.11982629999874916,230.6216499000002,230.62169540000104,None,,,,,,,,,,,,,,00055,001,2026-01-18_18h37.48.341,MST_task,2024.2.0,60.02880181938554,2026-01-18 18h37.57.451793 +0530,
,Scenes\016a.jpg,21,0,22,,,,,,,j,0.9105067000000417,0.18378029999985301,None,,,,,,22,0,21,230.63774130000093,,,,,,,,,,,,,,,,,,,,,,,,,,,,,,230.62200510000002,230.63774130000093,231.1221626000006,,,,,,,,,,,,,,231.17065790000015,,,,,,,,,,,,,231.1676903000007,231.17065790000015,231.17065790000015,231.17065790000015,234.1382091000014,j,0.9105067000000417,0.18378029999985301,234.14288710000073,234.1429681999998,None,,,,,,,,,,,,,,00055,001,2026-01-18_18h37.48.341,MST_task,2024.2.0,60.02880181938554,2026-01-18 18h37.57.451793 +0530,
,Scenes\142a.jpg,22,0,23,,,,,,,None,,,j,0.22604540000065754,None,,,,23,0,22,234.15443980000055,,,,,,,,,,,,,,,,,,,,,,,,,,,,,,234.1433786000016,234.15443980000055,234.63876620000156,,,,,,,,,,,,,,234.6947422000012,,,,,,,,,,,,,234.6917050000011,234.6947422000012,234.6947422000012,234.6947422000012,237.65467870000066,None,,,237.6547713,237.90654080000058,j,237.67102630000045,237.67102630000045,0.22604540000065754,None,,,,,,,,,,00055,001,2026-01-18_18h37.48.341,MST_task,2024.2.0,60.02880181938554,2026-01-18 18h37.57.451793 +0530,
,Scenes\090a.jpg,23,0,24,,,,,,,None,,,j,0.20377790000020468,None,,,,24,0,23,237.9209436000001,,,,,,,,,,,,,,,,,,,,,,,,,,,,,,237.90703300000132,237.9209436000001,238.40558450000026,,,,,,,,,,,,,,238.48633270000028,,,,,,,,,,,,,238.48242550000032,238.48633270000028,238.48633270000028,238.48633270000028,241.42141580000134,None,,,241.42152370000076,241.65596990000085,j,241.43775050000113,241.43775050000113,0.20377790000020468,None,,,,,,,,,,00055,001,2026-01-18_18h37.48.341,MST_task,2024.2.0,60.02880181938554,2026-01-18 18h37.57.451793 +0530,
,Scenes\059a.jpg,24,0,25,,,,,,,None,,,j,0.9250039999988076,None,,,,25,0,24,241.67113940000127,,,,,,,,,,,,,,,,,,,,,,,,,,,,,,241.65647180000087,241.67113940000127,242.15576750000037,,,,,,,,,,,,,,242.27795660000083,,,,,,,,,,,,,242.27422040000056,242.27795660000083,242.27795660000083,242.27795660000083,245.1710980000007,None,,,245.17122550000022,246.1233032,j,245.18788270000005,245.18788270000005,0.9250039999988076,None,,,,,,,,,,00055,001,2026-01-18_18h37.48.341,MST_task,2024.2.0,60.02880181938554,2026-01-18 18h37.57.451793 +0530,
,Scenes\107a.jpg,25,0,26,,,,,,,j,2.5219137000003684,0.14392299999963143,None,,,,,,26,0,25,246.13759440000103,,,,,,,,,,,,,,,,,,,,,,,,,,,,,,246.12361760000022,246.13759440000103,246.62210770000092,,,,,,,,,,,,,,246.6870093000016,,,,,,,,,,,,,246.68323380000038,246.6870093000016,246.6870093000016,246.6870093000016,249.63810420000118,j,2.5219137000003684,0.14392299999963143,249.6382033000009,249.63823890000094,None,,,,,,,,,,,,,,00055,001,2026-01-18_18h37.48.341,MST_task,2024.2.0,60.02880181938554,2026-01-18 18h37.57.451793 +0530,
,Scenes\123a.jpg,26,0,27,,,,,,,j,0.8050715000008495,0.14496929999950225,None,,,,,,27,0,26,249.6543631000004,,,,,,,,,,,,,,,,,,,,,,,,,,,,,,249.6384166000007,249.6543631000004,250.13888260000022,,,,,,,,,,,,,,,,,,,,,,,,,,,250.20026540000072,250.2035289000014,250.2035289000014,250.2035289000014,253.1554197000005,j,0.8050715000008495,0.14496929999950225,253.15555470000072,253.1556013999998,None,,,,,,,,,,,,,,00055,001,2026-01-18_18h37.48.341,MST_task,2024.2.0,60.02880181938554,2026-01-18 18h37.57.451793 +0530,
,Scenes\175a.jpg,27,0,28,,,,,,,j,1.9140755999997054,0.13665410000066913,None,,,,,,28,0,27,253.17131520000112,,,,,,,,,,,,,,,,,,,,,,,,,,,,,,253.15593340000123,253.17131520000112,253.6555618000002,,,,,,,,,,,,,,253.70284520000132,,,,,,,,,,,,,253.69971990000158,253.70284520000132,253.70284520000132,253.70284520000132,256.671414800001,j,1.9140755999997054,0.13665410000066913,256.6715855000002,256.6716511000013,None,,,,,,,,,,,,,,00055,001,2026-01-18_18h37.48.341,MST_task,2024.2.0,60.02880181938554,2026-01-18 18h37.57.451793 +0530,
,Objects\157a.jpg,28,0,29,,,,,,,j,2.480719900000622,0.17648059999919496,None,,,,,,29,0,28,256.6879732000016,,,,,,,,,,,,,,,,,,,,,,,,,,,,,,256.67197410000153,256.6879732000016,257.17216760000156,,,,,,,,,,,,,,257.20811050000157,,,,,,,,,,,,,257.20514960000037,257.20811050000157,257.20811050000157,257.20811050000157,260.18817670000135,j,2.480719900000622,0.17648059999919496,260.1920951000011,260.1921247999999,None,,,,,,,,,,,,,,00055,001,2026-01-18_18h37.48.341,MST_task,2024.2.0,60.02880181938554,2026-01-18 18h37.57.451793 +0530,
,Objects\141a.jpg,29,0,30,,,,,,,j,2.6730490999998437,0.14348820000122942,None,,,,,,30,0,29,260.2044370000003,,,,,,,,,,,,,,,,,,,,,,,,,,,,,,260.1922872000014,260.2044370000003,260.68925070000114,,,,,,,,,,,,,,260.7128494000008,,,,,,,,,,,,,260.7095838000005,260.7128494000008,260.7128494000008,260.7128494000008,263.7048639000004,j,2.6730490999998437,0.14348820000122942,263.70503370000006,263.70507630000066,None,,,,,,,,,,,,,,00055,001,2026-01-18_18h37.48.341,MST_task,2024.2.0,60.02880181938554,2026-01-18 18h37.57.451793 +0530,
,Objects\169a.jpg,30,0,31,,,,,,,None,,,j,None,None,,,,31,0,30,263.72097920000124,,,,,,,,,,,,,,,,,,,,,,,,,,,,,,263.70530169999984,263.72097920000124,264.20543780000116,,,,,,,,,,,,,,264.23955280000155,,,,,,,,,,,,,264.2365021000005,264.23955280000155,264.23955280000155,264.23955280000155,267.22163870000077,None,,,267.22180330000083,267.3733202000003,j,267.23779920000015,267.23779920000015,None,None,,,,,,,,,,00055,001,2026-01-18_18h37.48.341,MST_task,2024.2.0,60.02880181938554,2026-01-18 18h37.57.451793 +0530,
,Objects\042a.jpg,31,0,32,,,,,,,None,,,j,0.1933683999995992,None,,,,32,0,31,267.38778510000157,,,,,,,,,,,,,,,,,,,,,,,,,,,,,,267.3735774000015,267.38778510000157,267.87217260000034,,,,,,,,,,,,,,267.89070150000043,,,,,,,,,,,,,267.8880250000002,267.89070150000043,267.89070150000043,267.89070150000043,270.88828580000154,None,,,270.88842040000054,271.10621060000085,j,270.9044468000011,270.9044468000011,0.1933683999995992,None,,,,,,,,,,00055,001,2026-01-18_18h37.48.341,MST_task,2024.2.0,60.02880181938554,2026-01-18 18h37.57.451793 +0530,
,Objects\044a.jpg,32,0,33,,,,,,,None,,,f,3.267253800000617,None,,,,33,0,32,271.12099000000126,,,,,,,,,,,,,,,,,,,,,,,,,,,,,,271.1066085000002,271.12099000000126,271.6055408000011,,,,,,,,,,,,,,271.6281620999998,,,,,,,,,,,,,271.6253172000015,271.6281620999998,271.6281620999998,271.6281620999998,274.6217164000009,None,,,274.6218699000001,277.9072070000002,f,274.6377269000004,274.6377269000004,3.267253800000617,None,,,,,,,,,,00055,001,2026-01-18_18h37.48.341,MST_task,2024.2.0,60.02880181938554,2026-01-18 18h37.57.451793 +0530,
,Objects\032a.jpg,33,0,34,,,,,,,None,,,j,1.3078530000002502,None,,,,34,0,33,277.92137450000155,,,,,,,,,,,,,,,,,,,,,,,,,,,,,,277.90756580000016,277.92137450000155,278.405910200001,,,,,,,,,,,,,,278.44093220000104,,,,,,,,,,,,,278.43765350000103,278.44093220000104,278.44093220000104,278.44093220000104,281.42137379999986,None,,,281.42152820000047,282.7566635000003,j,281.4378023999998,281.4378023999998,1.3078530000002502,None,,,,,,,,,,00055,001,2026-01-18_18h37.48.341,MST_task,2024.2.0,60.02880181938554,2026-01-18 18h37.57.451793 +0530,
,Objects\041a.jpg,34,0,35,,,,,,,None,,,j,0.6175325000003795,None,,,,35,0,34,282.77105850000044,,,,,,,,,,,,,,,,,,,,,,,,,,,,,,282.7571134000009,282.77105850000044,283.2557829000016,,,,,,,,,,,,,,283.2764963000009,,,,,,,,,,,,,283.2737545,283.2764963000009,283.2764963000009,283.2764963000009,286.27136880000035,None,,,286.2715251000009,286.9073397000011,j,286.2878375,286.2878375,0.6175325000003795,None,,,,,,,,,,00055,001,2026-01-18_18h37.48.341,MST_task,2024.2.0,60.02880181938554,2026-01-18 18h37.57.451793 +0530,
,Scenes\166a.jpg,35,0,36,,,,,,,None,,,f,0.03534820000095351,None,,,,36,0,35,286.9210398000014,,,,,,,,,,,,,,,,,,,,,,,,,,,,,,286.9076831000002,286.9210398000014,287.4057087000001,,,,,,,,,,,,,,287.4617857000012,,,,,,,,,,,,,287.45856210000056,287.4617857000012,287.4617857000012,287.4617857000012,290.42208780000146,None,,,290.4270699000008,290.48951670000133,f,290.43765800000074,290.43765800000074,0.03534820000095351,None,,,,,,,,,,00055,001,2026-01-18_18h37.48.341,MST_task,2024.2.0,60.02880181938554,2026-01-18 18h37.57.451793 +0530,
,Scenes\138a.jpg,36,0,37,,,,,,,None,,,j,0.5082774000002246,None,,,,37,0,36,290.5044831000014,,,,,,,,,,,,,,,,,,,,,,,,,,,,,,290.4899495000009,290.5044831000014,290.9887690000014,,,,,,,,,,,,,,291.0896098000012,,,,,,,,,,,,,291.08648600000015,291.0896098000012,291.0896098000012,291.0896098000012,294.00490100000025,None,,,294.00507690000086,294.5397059000006,j,294.0211143000015,294.0211143000015,0.5082774000002246,None,,,,,,,,,,00055,001,2026-01-18_18h37.48.341,MST_task,2024.2.0,60.02880181938554,2026-01-18 18h37.57.451793 +0530,
,Scenes\041a.jpg,37,0,38,,,,,,,j,1.109398800001145,0.19243429999914952,None,,,,,,38,0,37,294.554330500001,,,,,,,,,,,,,,,,,,,,,,,,,,,,,,294.5402531,294.554330500001,295.03940150000017,,,,,,,,,,,,,,295.11568570000054,,,,,,,,,,,,,295.11250890000156,295.11568570000054,295.11568570000054,295.11568570000054,298.05494160000126,j,1.109398800001145,0.19243429999914952,298.0551187000001,298.0551849000003,None,,,,,,,,,,,,,,00055,001,2026-01-18_18h37.48.341,MST_task,2024.2.0,60.02880181938554,2026-01-18 18h37.57.451793 +0530,
,Scenes\024a.jpg,38,0,39,,,,,,,None,,,j,0.44612659999984317,None,,,,39,0,38,298.0709895,,,,,,,,,,,,,,,,,,,,,,,,,,,,,,298.0555101000009,298.0709895,298.5555949999998,,,,,,,,,,,,,,298.61286010000003,,,,,,,,,,,,,298.6091680999998,298.61286010000003,298.61286010000003,298.61286010000003,301.57172189999983,None,,,301.5718762000015,302.04066520000015,j,301.58775140000034,301.58775140000034,0.44612659999984317,None,,,,,,,,,,00055,001,2026-01-18_18h37.48.341,MST_task,2024.2.0,60.02880181938554,2026-01-18 18h37.57.451793 +0530,
,Scenes\077a.jpg,39,0,40,,,,,,,j,1.761594800000239,0.14400530000057188,None,,,,,,40,0,39,302.05445260000124,,,,,,,,,,,,,,,,,,,,,,,,,,,,,,302.04110709999986,302.05445260000124,302.5391077000004,,,,,,,,,,,,,,302.61571450000156,,,,,,,,,,,,,302.6123230000012,302.61571450000156,302.61571450000156,302.61571450000156,305.55474790000153,j,1.761594800000239,0.14400530000057188,305.55491750000147,305.5549839000014,None,,,,,,,,,,,,,,00055,001,2026-01-18_18h37.48.341,MST_task,2024.2.0,60.02880181938554,2026-01-18 18h37.57.451793 +0530,
,Scenes\102a.jpg,40,0,41,,,,,,,f,0.7459639000007883,0.19115929999861692,None,,,,,,41,0,40,305.57118810000065,,,,,,,,,,,,,,,,,,,,,,,,,,,,,,305.5553084000003,305.57118810000065,306.0557531000013,,,,,,,,,,,,,,306.1350929,,,,,,,,,,,,,306.13150040000073,306.1350929,306.1350929,306.1350929,309.0711984999998,f,0.7459639000007883,0.19115929999861692,309.07129859999986,309.0713345000004,None,,,,,,,,,,,,,,00055,001,2026-01-18_18h37.48.341,MST_task,2024.2.0,60.02880181938554,2026-01-18 18h37.57.451793 +0530,
,Scenes\147a.jpg,41,0,42,,,,,,,None,,,j,0.6210937999985617,None,,,,42,0,41,309.0876791999999,,,,,,,,,,,,,,,,,,,,,,,,,,,,,,309.07157890000053,309.0876791999999,309.5718921000007,,,,,,,,,,,,,,309.6129129000001,,,,,,,,,,,,,309.6095838000001,309.6129129000001,309.6129129000001,309.6129129000001,312.5717394000003,None,,,312.5718902000008,313.22289850000016,j,312.5880751000004,312.5880751000004,0.6210937999985617,None,,,,,,,,,,00055,001,2026-01-18_18h37.48.341,MST_task,2024.2.0,60.02880181938554,2026-01-18 18h37.57.451793 +0530,
,Objects\124a.jpg,42,0,43,,,,,,,j,2.1094918999988295,0.10416590000022552,None,,,,,,43,0,42,313.23787860000084,,,,,,,,,,,,,,,,,,,,,,,,,,,,,,313.22343420000107,313.23787860000084,313.7221075000016,,,,,,,,,,,,,,313.7629431000005,,,,,,,,,,,,,313.75989200000004,313.7629431000005,313.7629431000005,313.7629431000005,316.73849710000104,j,2.1094918999988295,0.10416590000022552,316.7431643,316.7432082000014,None,,,,,,,,,,,,,,00055,001,2026-01-18_18h37.48.341,MST_task,2024.2.0,60.02880181938554,2026-01-18 18h37.57.451793 +0530,
,Objects\101a.jpg,43,0,44,,,,,,,f,1.8155951000007917,0.13490549999914947,None,,,,,,44,0,43,316.7546828000013,,,,,,,,,,,,,,,,,,,,,,,,,,,,,,316.7434573999999,316.7546828000013,317.23889190000045,,,,,,,,,,,,,,317.2820281000004,,,,,,,,,,,,,317.2791397000001,317.2820281000004,317.2820281000004,317.2820281000004,320.25492120000126,f,1.8155951000007917,0.13490549999914947,320.25509779999993,320.2551641000009,None,,,,,,,,,,,,,,00055,001,2026-01-18_18h37.48.341,MST_task,2024.2.0,60.02880181938554,2026-01-18 18h37.57.451793 +0530,
,Objects\056a.jpg,44,0,45,,,,,,,None,,,f,0.12600319999910425,None,,,,45,0,44,320.27100450000034,,,,,,,,,,,,,,,,,,,,,,,,,,,,,,320.2554912000014,320.27100450000034,320.75555859999986,,,,,,,,,,,,,,320.7960464000007,,,,,,,,,,,,,320.7931214,320.7960464000007,320.7960464000007,320.7960464000007,323.7713437000002,None,,,323.7714408000011,323.9229414000001,f,323.78783660000045,323.78783660000045,0.12600319999910425,None,,,,,,,,,,00055,001,2026-01-18_18h37.48.341,MST_task,2024.2.0,60.02880181938554,2026-01-18 18h37.57.451793 +0530,
,Objects\034a.jpg,45,0,46,,,,,,,f,1.0168479000003572,0.14298039999994216,None,,,,,,46,0,45,323.9377121000016,,,,,,,,,,,,,,,,,,,,,,,,,,,,,,323.9232213000014,323.9377121000016,324.4219713000002,,,,,,,,,,,,,,324.4492046000014,,,,,,,,,,,,,324.4460572000007,324.4492046000014,324.4492046000014,324.4492046000014,327.4381978000001,f,1.0168479000003572,0.14298039999994216,327.43837690000146,327.4384221,None,,,,,,,,,,,,,,00055,001,2026-01-18_18h37.48.341,MST_task,2024.2.0,60.02880181938554,2026-01-18 18h37.57.451793 +0530,
,Objects\160a.jpg,46,0,47,,,,,,,f,2.133567300001232,0.16766439999992144,None,,,,,,47,0,46,327.45440659999986,,,,,,,,,,,,,,,,,,,,,,,,,,,,,,327.43875070000104,327.45440659999986,327.9389726999998,,,,,,,,,,,,,,327.9713191999999,,,,,,,,,,,,,327.9681982000002,327.9713191999999,327.9713191999999,327.9713191999999,330.95487460000004,f,2.133567300001232,0.16766439999992144,330.9550554000016,330.9551212000006,None,,,,,,,,,,,,,,00055,001,2026-01-18_18h37.48.341,MST_task,2024.2.0,60.02880181938554,2026-01-18 18h37.57.451793 +0530,
,Objects\066a.jpg,47,0,48,,,,,,,f,1.7668641000000207,0.11136799999985669,None,,,,,,48,0,47,330.97096109999984,,,,,,,,,,,,,,,,,,,,,,,,,,,,,,330.9554619999999,330.97096109999984,331.45550900000126,,,,,,,,,,,,,,331.4984591000011,,,,,,,,,,,,,331.49552159999985,331.4984591000011,331.4984591000011,331.4984591000011,334.4715559000015,f,1.7668641000000207,0.11136799999985669,334.4717481000007,334.4718131000009,None,,,,,,,,,,,,,,00055,001,2026-01-18_18h37.48.341,MST_task,2024.2.0,60.02880181938554,2026-01-18 18h37.57.451793 +0530,
,Objects\178a.jpg,48,0,49,,,,,,,j,1.8115476000002673,0.09608339999977034,None,,,,,,49,0,48,334.4877668000008,,,,,,,,,,,,,,,,,,,,,,,,,,,,,,334.4720937000002,334.4877668000008,334.9720391999999,,,,,,,,,,,,,,335.0214407000003,,,,,,,,,,,,,335.01830580000023,335.0214407000003,335.0214407000003,335.0214407000003,337.9882226999998,j,1.8115476000002673,0.09608339999977034,337.9883944000012,337.9884595000003,None,,,,,,,,,,,,,,00055,001,2026-01-18_18h37.48.341,MST_task,2024.2.0,60.02880181938554,2026-01-18 18h37.57.451793 +0530,
,Scenes\168a.jpg,49,0,50,,,,,,,j,2.460974300000089,0.10308249999980035,None,,,,,,50,0,49,338.0044144000003,,,,,,,,,,,,,,,,,,,,,,,,,,,,,,337.9887997000005,338.0044144000003,338.48874050000086,,,,,,,,,,,,,,338.54879729999993,,,,,,,,,,,,,338.5452046999999,338.54879729999993,338.54879729999993,338.54879729999993,341.50484190000134,j,2.460974300000089,0.10308249999980035,341.510368700001,341.51043430000027,None,,,,,,,,,,,,,,00055,001,2026-01-18_18h37.48.341,MST_task,2024.2.0,60.02880181938554,2026-01-18 18h37.57.451793 +0530,
,Scenes\143a.jpg,50,0,51,,,,,,,j,0.8576775999990787,0.09717120000095747,None,,,,,,51,0,50,341.521391100001,,,,,,,,,,,,,,,,,,,,,,,,,,,,,,341.51069500000085,341.521391100001,342.0054639000009,,,,,,,,,,,,,,342.07879090000097,,,,,,,,,,,,,342.07492940000157,342.07879090000097,342.07879090000097,342.07879090000097,345.02149370000006,j,0.8576775999990787,0.09717120000095747,345.02168510000047,345.0217511999999,None,,,,,,,,,,,,,,00055,001,2026-01-18_18h37.48.341,MST_task,2024.2.0,60.02880181938554,2026-01-18 18h37.57.451793 +0530,
,Scenes\003a.jpg,51,0,52,,,,,,,j,0.8277947999995376,0.08797930000037013,None,,,,,,52,0,51,345.0377120000012,,,,,,,,,,,,,,,,,,,,,,,,,,,,,,345.0221147000011,345.0377120000012,345.5220226000001,,,,,,,,,,,,,,345.6054193,,,,,,,,,,,,,345.6016264000009,345.6054193,345.6054193,345.6054193,348.5382505000016,j,0.8277947999995376,0.08797930000037013,348.5384451000009,348.5385107000002,None,,,,,,,,,,,,,,00055,001,2026-01-18_18h37.48.341,MST_task,2024.2.0,60.02880181938554,2026-01-18 18h37.57.451793 +0530,
,Scenes\182a.jpg,52,0,53,,,,,,,j,1.452818699999625,0.11925429999973858,None,,,,,,53,0,52,348.5553396000014,,,,,,,,,,,,,,,,,,,,,,,,,,,,,,348.53886390000116,348.5553396000014,349.0547918000011,,,,,,,,,,,,,,,,,,,,,,,,,,,349.121582400001,349.1246936000007,349.1246936000007,349.1246936000007,352.0549931000005,j,1.452818699999625,0.11925429999973858,352.0551531000001,352.05518720000146,None,,,,,,,,,,,,,,00055,001,2026-01-18_18h37.48.341,MST_task,2024.2.0,60.02880181938554,2026-01-18 18h37.57.451793 +0530,
,Scenes\118a.jpg,53,0,54,,,,,,,j,0.9247570999996242,0.08751070000107575,None,,,,,,54,0,53,352.07097480000084,,,,,,,,,,,,,,,,,,,,,,,,,,,,,,352.0553690000015,352.07097480000084,352.556014400001,,,,,,,,,,,,,,352.6368816000013,,,,,,,,,,,,,352.63348300000143,352.6368816000013,352.6368816000013,352.6368816000013,355.5715656000011,j,0.9247570999996242,0.08751070000107575,355.5717420000001,355.5718059999999,None,,,,,,,,,,,,,,00055,001,2026-01-18_18h37.48.341,MST_task,2024.2.0,60.02880181938554,2026-01-18 18h37.57.451793 +0530,
,Scenes\045a.jpg,54,0,55,,,,,,,f,1.4901613000001817,0.10455940000065311,None,,,,,,55,0,54,355.58775160000005,,,,,,,,,,,,,,,,,,,,,,,,,,,,,,355.5722383000011,355.58775160000005,356.0722960000003,,,,,,,,,,,,,,356.18216480000046,,,,,,,,,,,,,356.1789002000005,356.18216480000046,356.18216480000046,356.18216480000046,359.08816300000035,f,1.4901613000001817,0.10455940000065311,359.0883537999998,359.08841960000063,None,,,,,,,,,,,,,,00055,001,2026-01-18_18h37.48.341,MST_task,2024.2.0,60.02880181938554,2026-01-18 18h37.57.451793 +0530,
,Scenes\025a.jpg,55,0,56,,,,,,,j,2.094283500000529,0.09469709999939369,None,,,,,,56,0,55,359.1044027000007,,,,,,,,,,,,,,,,,,,,,,,,,,,,,,359.0887380000004,359.1044027000007,359.5885339000015,,,,,,,,,,,,,,359.65937060000033,,,,,,,,,,,,,359.6559861000005,359.65937060000033,359.65937060000033,359.65937060000033,362.6049896000004,j,2.094283500000529,0.09469709999939369,362.6052006000009,362.6052673000013,None,,,,,,,,,,,,,,00055,001,2026-01-18_18h37.48.341,MST_task,2024.2.0,60.02880181938554,2026-01-18 18h37.57.451793 +0530,
,Objects\164a.jpg,56,0,57,,,,,,,f,0.9080183999994915,0.09499230000074022,None,,,,,,57,0,56,362.6212305000008,,,,,,,,,,,,,,,,,,,,,,,,,,,,,,362.60559470000044,362.6212305000008,363.10545100000127,,,,,,,,,,,,,,363.15775759999997,,,,,,,,,,,,,363.15473980000024,363.15775759999997,363.15775759999997,363.15775759999997,366.12177599999995,f,0.9080183999994915,0.09499230000074022,366.1253035999998,366.1253394000014,None,,,,,,,,,,,,,,00055,001,2026-01-18_18h37.48.341,MST_task,2024.2.0,60.02880181938554,2026-01-18 18h37.57.451793 +0530,
,Objects\146a.jpg,57,0,58,,,,,,,j,1.473410500000682,0.09580470000037167,None,,,,,,58,0,57,366.13752470000145,,,,,,,,,,,,,,,,,,,,,,,,,,,,,,366.1255329000014,366.13752470000145,366.62226030000056,,,,,,,,,,,,,,366.65495720000035,,,,,,,,,,,,,366.6520846000003,366.65495720000035,366.65495720000035,366.65495720000035,369.6382644000005,j,1.473410500000682,0.09580470000037167,369.63844130000143,369.63848529999996,None,,,,,,,,,,,,,,00055,001,2026-01-18_18h37.48.341,MST_task,2024.2.0,60.02880181938554,2026-01-18 18h37.57.451793 +0530,
,Objects\140a.jpg,58,0,59,,,,,,,j,1.3721705000007205,0.1190084999998362,None,,,,,,59,0,58,369.6544928000003,,,,,,,,,,,,,,,,,,,,,,,,,,,,,,369.6387128000006,369.6544928000003,370.1386711000014,,,,,,,,,,,,,,370.1734967000011,,,,,,,,,,,,,370.17044739999983,370.1734967000011,370.1734967000011,370.1734967000011,373.15479940000114,j,1.3721705000007205,0.1190084999998362,373.1549281000007,373.1549711000007,None,,,,,,,,,,,,,,00055,001,2026-01-18_18h37.48.341,MST_task,2024.2.0,60.02880181938554,2026-01-18 18h37.57.451793 +0530,
,Objects\145a.jpg,59,0,60,,,,,,,f,2.4385501999986445,0.1596908000010444,None,,,,,,60,0,59,373.17101170000024,,,,,,,,,,,,,,,,,,,,,,,,,,,,,,373.1551991000015,373.17101170000024,373.65556710000055,,,,,,,,,,,,,,373.69070790000114,,,,,,,,,,,,,373.68703559999994,373.69070790000114,373.69070790000114,373.69070790000114,376.6713604000015,f,2.4385501999986445,0.1596908000010444,376.67148670000097,376.67152930000157,None,,,,,,,,,,,,,,00055,001,2026-01-18_18h37.48.341,MST_task,2024.2.0,60.02880181938554,2026-01-18 18h37.57.451793 +0530,
,Objects\008a.jpg,60,0,61,,,,,,,f,1.0270657000000938,0.10426019999977143,None,,,,,,61,0,60,376.68768249999994,,,,,,,,,,,,,,,,,,,,,,,,,,,,,,376.67186030000084,376.68768249999994,377.17234550000103,,,,,,,,,,,,,,377.2215730000007,,,,,,,,,,,,,377.218221000001,377.2215730000007,377.2215730000007,377.2215730000007,380.1882850000002,f,1.0270657000000938,0.10426019999977143,380.1884708000016,380.18853500000114,None,,,,,,,,,,,,,,00055,001,2026-01-18_18h37.48.341,MST_task,2024.2.0,60.02880181938554,2026-01-18 18h37.57.451793 +0530,
,Objects\031a.jpg,61,0,62,,,,,,,j,2.133023800000956,0.10378149999996822,None,,,,,,62,0,61,380.2043059000007,,,,,,,,,,,,,,,,,,,,,,,,,,,,,,380.18905020000057,380.2043059000007,380.6892521999998,,,,,,,,,,,,,,380.7240844000007,,,,,,,,,,,,,380.7213167000009,380.7240844000007,380.7240844000007,380.7240844000007,383.70472940000036,j,2.133023800000956,0.10378149999996822,383.7049014000004,383.7049643999999,None,,,,,,,,,,,,,,00055,001,2026-01-18_18h37.48.341,MST_task,2024.2.0,60.02880181938554,2026-01-18 18h37.57.451793 +0530,
,Objects\108a.jpg,62,0,63,,,,,,,None,,,j,2.195741100000305,None,,,,63,0,62,383.7210761000006,,,,,,,,,,,,,,,,,,,,,,,,,,,,,,383.70539800000006,383.7210761000006,384.2052362000013,,,,,,,,,,,,,,384.3331018000008,,,,,,,,,,,,,384.32913760000156,384.3331018000008,384.3331018000008,384.3331018000008,387.2219255,None,,,387.2220717,389.43956980000075,j,387.23780050000096,387.23780050000096,2.195741100000305,None,,,,,,,,,,00055,001,2026-01-18_18h37.48.341,MST_task,2024.2.0,60.02880181938554,2026-01-18 18h37.57.451793 +0530,
,Scenes\157a.jpg,63,0,64,,,,,,,j,1.5449588000010408,0.14461689999916416,None,,,,,,64,0,63,389.4544741000009,,,,,,,,,,,,,,,,,,,,,,,,,,,,,,389.4401020000005,389.4544741000009,389.9394116000003,,,,,,,,,,,,,,389.9993454000014,,,,,,,,,,,,,389.99614980000115,389.9993454000014,389.9993454000014,389.9993454000014,392.95472210000116,j,1.5449588000010408,0.14461689999916416,392.9595550000013,392.9596279000016,None,,,,,,,,,,,,,,00055,001,2026-01-18_18h37.48.341,MST_task,2024.2.0,60.02880181938554,2026-01-18 18h37.57.451793 +0530,
,Scenes\176a.jpg,64,0,65,,,,,,,j,1.0807721999990463,0.0960135999994236,None,,,,,,65,0,64,392.97110299999986,,,,,,,,,,,,,,,,,,,,,,,,,,,,,,392.96000989999993,392.97110299999986,393.4556341000007,,,,,,,,,,,,,,393.51204020000114,,,,,,,,,,,,,393.5085214999999,393.51204020000114,393.51204020000114,393.51204020000114,396.4717673000014,j,1.0807721999990463,0.0960135999994236,396.4719466000006,396.4719935000012,None,,,,,,,,,,,,,,00055,001,2026-01-18_18h37.48.341,MST_task,2024.2.0,60.02880181938554,2026-01-18 18h37.57.451793 +0530,
,Scenes\170a.jpg,65,0,66,,,,,,,j,0.8618492000005062,0.12892529999953695,None,,,,,,66,0,65,396.4878475000005,,,,,,,,,,,,,,,,,,,,,,,,,,,,,,396.47224650000135,396.4878475000005,396.97228130000076,,,,,,,,,,,,,,397.0355786,,,,,,,,,,,,,397.032545,397.0355786,397.0355786,397.0355786,399.98797540000123,j,0.8618492000005062,0.12892529999953695,399.9880826000008,399.98812140000155,None,,,,,,,,,,,,,,00055,001,2026-01-18_18h37.48.341,MST_task,2024.2.0,60.02880181938554,2026-01-18 18h37.57.451793 +0530,
,Scenes\033a.jpg,66,0,67,,,,,,,j,0.5435849000004964,0.13589890000002924,None,,,,,,67,0,66,400.004433600001,,,,,,,,,,,,,,,,,,,,,,,,,,,,,,399.9883212000004,400.004433600001,400.4889144000008,,,,,,,,,,,,,,400.5293142999999,,,,,,,,,,,,,400.52589400000033,400.5293142999999,400.5293142999999,400.5293142999999,403.4883647000006,j,0.5435849000004964,0.13589890000002924,403.48853770000096,403.48860180000156,None,,,,,,,,,,,,,,00055,001,2026-01-18_18h37.48.341,MST_task,2024.2.0,60.02880181938554,2026-01-18 18h37.57.451793 +0530,
,Scenes\124a.jpg,67,0,68,,,,,,,j,2.062521800000468,0.09545369999977993,None,,,,,,68,0,67,403.5046865000004,,,,,,,,,,,,,,,,,,,,,,,,,,,,,,403.48892180000075,403.5046865000004,403.98881280000023,,,,,,,,,,,,,,404.058722400001,,,,,,,,,,,,,404.0559127000015,404.058722400001,404.058722400001,404.058722400001,407.00508850000006,j,2.062521800000468,0.09545369999977993,407.00524940000105,407.0052852000008,None,,,,,,,,,,,,,,00055,001,2026-01-18_18h37.48.341,MST_task,2024.2.0,60.02880181938554,2026-01-18 18h37.57.451793 +0530,
,Scenes\155a.jpg,68,0,69,,,,,,,f,1.5789058999998815,0.11898490000021411,None,,,,,,69,0,68,407.02097219999996,,,,,,,,,,,,,,,,,,,,,,,,,,,,,,407.00554550000015,407.02097219999996,407.50543840000137,,,,,,,,,,,,,,407.5903849000006,,,,,,,,,,,,,407.5863835,407.5903849000006,407.5903849000006,407.5903849000006,410.5213726000002,f,1.5789058999998815,0.11898490000021411,410.5214956,410.52154100000007,None,,,,,,,,,,,,,,00055,001,2026-01-18_18h37.48.341,MST_task,2024.2.0,60.02880181938554,2026-01-18 18h37.57.451793 +0530,
,Scenes\150a.jpg,69,0,70,,,,,,,j,2.0242292000002635,0.11975560000064434,None,,,,,,70,0,69,410.5380548000012,,,,,,,,,,,,,,,,,,,,,,,,,,,,,,410.5218530000002,410.5380548000012,411.02183700000023,,,,,,,,,,,,,,,,,,,,,,,,,,,411.0852801000001,411.08888840000145,411.08888840000145,411.08888840000145,414.0219780000007,j,2.0242292000002635,0.11975560000064434,414.02208820000124,414.0221279000016,None,,,,,,,,,,,,,,00055,001,2026-01-18_18h37.48.341,MST_task,2024.2.0,60.02880181938554,2026-01-18 18h37.57.451793 +0530,
,Objects\144a.jpg,70,0,71,,,,,,,None,,,j,0.43853040000067267,None,,,,71,0,70,414.03803020000123,,,,,,,,,,,,,,,,,,,,,,,,,,,,,,414.0224145000011,414.03803020000123,414.5220566000007,,,,,,,,,,,,,,414.57768320000105,,,,,,,,,,,,,414.57374250000066,414.57768320000105,414.57768320000105,414.57768320000105,417.5381554000014,None,,,417.54349300000104,418.00634490000084,j,417.55436050000026,417.55436050000026,0.43853040000067267,None,,,,,,,,,,00055,001,2026-01-18_18h37.48.341,MST_task,2024.2.0,60.02880181938554,2026-01-18 18h37.57.451793 +0530,
,Objects\125a.jpg,71,0,72,,,,,,,j,1.3254949000001943,0.10563440000078117,None,,,,,,72,0,71,418.02140750000035,,,,,,,,,,,,,,,,,,,,,,,,,,,,,,418.0066618000001,418.02140750000035,418.50546140000006,,,,,,,,,,,,,,418.538791500001,,,,,,,,,,,,,418.53543640000134,418.538791500001,418.538791500001,418.538791500001,421.5214059000009,j,1.3254949000001943,0.10563440000078117,421.52152540000134,421.5215655000011,None,,,,,,,,,,,,,,00055,001,2026-01-18_18h37.48.341,MST_task,2024.2.0,60.02880181938554,2026-01-18 18h37.57.451793 +0530,
,Objects\184a.jpg,72,0,73,,,,,,,j,1.2345225999997638,0.05559549999998126,None,,,,,,73,0,72,421.5380894000009,,,,,,,,,,,,,,,,,,,,,,,,,,,,,,421.52184040000066,421.5380894000009,422.02215290000095,,,,,,,,,,,,,,422.08684770000036,,,,,,,,,,,,,422.08369330000096,422.08684770000036,422.08684770000036,422.08684770000036,425.038143400001,j,1.2345225999997638,0.05559549999998126,425.03827360000105,425.0383200000015,None,,,,,,,,,,,,,,00055,001,2026-01-18_18h37.48.341,MST_task,2024.2.0,60.02880181938554,2026-01-18 18h37.57.451793 +0530,
,Objects\149a.jpg,73,0,74,,,,,,,f,1.9636180999987118,0.07141159999991942,None,,,,,,74,0,73,425.0546393000004,,,,,,,,,,,,,,,,,,,,,,,,,,,,,,425.0386756000007,425.0546393000004,425.53920710000057,,,,,,,,,,,,,,425.58159870000054,,,,,,,,,,,,,425.5782040000013,425.58159870000054,425.58159870000054,425.58159870000054,428.5553286000013,f,1.9636180999987118,0.07141159999991942,428.5554355000004,428.5554753000015,None,,,,,,,,,,,,,,00055,001,2026-01-18_18h37.48.341,MST_task,2024.2.0,60.02880181938554,2026-01-18 18h37.57.451793 +0530,
,Objects\072a.jpg,74,0,75,,,,,,,j,2.8319160000010015,0.07910439999977825,None,,,,,,75,0,74,428.57170550000046,,,,,,,,,,,,,,,,,,,,,,,,,,,,,,428.55575320000025,428.57170550000046,429.05544910000026,,,,,,,,,,,,,,429.09751190000134,,,,,,,,,,,,,429.0943808000011,429.09751190000134,429.09751190000134,429.09751190000134,432.0714560000015,j,2.8319160000010015,0.07910439999977825,432.07162080000126,432.0716616000009,None,,,,,,,,,,,,,,00055,001,2026-01-18_18h37.48.341,MST_task,2024.2.0,60.02880181938554,2026-01-18 18h37.57.451793 +0530,
,Objects\105a.jpg,75,0,76,,,,,,,f,1.3640285000001313,0.12698920000002545,None,,,,,,76,0,75,432.0877947000008,,,,,,,,,,,,,,,,,,,,,,,,,,,,,,432.0718703000002,432.0877947000008,432.5722091000007,,,,,,,,,,,,,,432.6057875000006,,,,,,,,,,,,,432.60292740000114,432.6057875000006,432.6057875000006,432.6057875000006,435.58807650000017,f,1.3640285000001313,0.12698920000002545,435.5881863000013,435.5882251000003,None,,,,,,,,,,,,,,00055,001,2026-01-18_18h37.48.341,MST_task,2024.2.0,60.02880181938554,2026-01-18 18h37.57.451793 +0530,
,Objects\107a.jpg,76,0,77,,,,,,,j,1.0887644999984332,0.09564560000035272,None,,,,,,77,0,76,435.60444110000026,,,,,,,,,,,,,,,,,,,,,,,,,,,,,,435.5884244000008,435.60444110000026,436.0890937000004,,,,,,,,,,,,,,436.12892590000047,,,,,,,,,,,,,436.125680000001,436.12892590000047,436.12892590000047,436.12892590000047,439.1050051000002,j,1.0887644999984332,0.09564560000035272,439.10517980000077,439.1052448999999,None,,,,,,,,,,,,,,00055,001,2026-01-18_18h37.48.341,MST_task,2024.2.0,60.02880181938554,2026-01-18 18h37.57.451793 +0530,
,Scenes\114a.jpg,77,0,78,,,,,,,f,1.6790433999995003,0.25540619999992487,None,,,,,,78,0,77,439.12118080000073,,,,,,,,,,,,,,,,,,,,,,,,,,,,,,439.10568200000125,439.12118080000073,439.60547510000106,,,,,,,,,,,,,,439.6904645000013,,,,,,,,,,,,,439.6874321000014,439.6904645000013,439.6904645000013,439.6904645000013,442.62147450000157,f,1.6790433999995003,0.25540619999992487,442.6256245000004,442.6256459000015,None,,,,,,,,,,,,,,00055,001,2026-01-18_18h37.48.341,MST_task,2024.2.0,60.02880181938554,2026-01-18 18h37.57.451793 +0530,
,Scenes\074a.jpg,78,0,79,,,,,,,j,1.033128700000816,0.08793279999918013,None,,,,,,79,0,78,442.63808900000004,,,,,,,,,,,,,,,,,,,,,,,,,,,,,,442.62576640000043,442.63808900000004,443.1224542,,,,,,,,,,,,,,443.1917555,,,,,,,,,,,,,443.18861280000056,443.1917555,443.1917555,443.1917555,446.1381222,j,1.033128700000816,0.08793279999918013,446.1382166000003,446.13824879999993,None,,,,,,,,,,,,,,00055,001,2026-01-18_18h37.48.341,MST_task,2024.2.0,60.02880181938554,2026-01-18 18h37.57.451793 +0530,
,Scenes\105a.jpg,79,0,80,,,,,,,j,0.8652370999989216,0.04813370000010764,None,,,,,,80,0,79,446.15438950000134,,,,,,,,,,,,,,,,,,,,,,,,,,,,,,446.13847520000127,446.15438950000134,446.63847010000063,,,,,,,,,,,,,,,,,,,,,,,,,,,446.78054540000085,446.78400970000075,446.78400970000075,446.78400970000075,449.6550584000015,j,0.8652370999989216,0.04813370000010764,449.65517379999983,449.65521660000013,None,,,,,,,,,,,,,,00055,001,2026-01-18_18h37.48.341,MST_task,2024.2.0,60.02880181938554,2026-01-18 18h37.57.451793 +0530,
,Scenes\020a.jpg,80,0,81,,,,,,,None,,,f,1.5882068000009895,None,,,,81,0,80,449.67121530000077,,,,,,,,,,,,,,,,,,,,,,,,,,,,,,449.65555790000144,449.67121530000077,450.15548070000114,,,,,,,,,,,,,,450.2557039000003,,,,,,,,,,,,,450.25250589999996,450.2557039000003,450.2557039000003,450.2557039000003,453.17144050000024,None,,,453.17159100000026,454.78947620000145,f,453.1880938000013,453.1880938000013,1.5882068000009895,None,,,,,,,,,,00055,001,2026-01-18_18h37.48.341,MST_task,2024.2.0,60.02880181938554,2026-01-18 18h37.57.451793 +0530,
,Scenes\079a.jpg,81,0,82,,,,,,,j,1.0480666999992536,0.09626229999958014,None,,,,,,82,0,81,454.80447690000074,,,,,,,,,,,,,,,,,,,,,,,,,,,,,,454.789878900001,454.80447690000074,455.2892378000015,,,,,,,,,,,,,,455.35343850000027,,,,,,,,,,,,,455.35025270000006,455.35343850000027,455.35343850000027,455.35343850000027,458.30502200000046,j,1.0480666999992536,0.09626229999958014,458.3051370000012,458.3051787000004,None,,,,,,,,,,,,,,00055,001,2026-01-18_18h37.48.341,MST_task,2024.2.0,60.02880181938554,2026-01-18 18h37.57.451793 +0530,
,Scenes\026a.jpg,82,0,83,,,,,,,None,,,j,0.9704368000002432,None,,,,83,0,82,458.32122880000134,,,,,,,,,,,,,,,,,,,,,,,,,,,,,,458.30546810000124,458.32122880000134,458.80578779999996,,,,,,,,,,,,,,458.9014685000002,,,,,,,,,,,,,458.8984070000006,458.9014685000002,458.9014685000002,458.9014685000002,461.8218057000013,None,,,461.82195240000146,462.82316290000017,j,461.83767270000135,461.83767270000135,0.9704368000002432,None,,,,,,,,,,00055,001,2026-01-18_18h37.48.341,MST_task,2024.2.0,60.02880181938554,2026-01-18 18h37.57.451793 +0530,
,Scenes\034a.jpg,83,0,84,,,,,,,f,1.9730765000003885,0.11217849999957252,None,,,,,,84,0,83,462.8377287000003,,,,,,,,,,,,,,,,,,,,,,,,,,,,,,462.82343850000143,462.8377287000003,463.32203480000135,,,,,,,,,,,,,,463.4511994000004,,,,,,,,,,,,,463.4477678000003,463.4511994000004,463.4511994000004,463.4511994000004,466.33816000000115,f,1.9730765000003885,0.11217849999957252,466.3383367000006,466.33840280000004,None,,,,,,,,,,,,,,00055,001,2026-01-18_18h37.48.341,MST_task,2024.2.0,60.02880181938554,2026-01-18 18h37.57.451793 +0530,
,Objects\004a.jpg,84,0,85,,,,,,,None,,,j,1.4014893000003212,None,,,,85,0,84,466.35439399999996,,,,,,,,,,,,,,,,,,,,,,,,,,,,,,466.33882820000144,466.35439399999996,466.83888260000094,,,,,,,,,,,,,,466.88354900000013,,,,,,,,,,,,,466.87983370000075,466.88354900000013,466.88354900000013,466.88354900000013,469.8549047000015,None,,,469.8599840000006,471.28959510000095,j,469.87096870000096,469.87096870000096,1.4014893000003212,None,,,,,,,,,,00055,001,2026-01-18_18h37.48.341,MST_task,2024.2.0,60.02880181938554,2026-01-18 18h37.57.451793 +0530,
,Objects\113a.jpg,85,0,86,,,,,,,f,0.985423099999025,0.14402920000065933,None,,,,,,86,0,85,471.3044359000014,,,,,,,,,,,,,,,,,,,,,,,,,,,,,,471.28997359999994,471.3044359000014,471.7888421000007,,,,,,,,,,,,,,471.8952330000011,,,,,,,,,,,,,471.8925401000015,471.8952330000011,471.8952330000011,471.8952330000011,474.8050696999999,f,0.985423099999025,0.14402920000065933,474.80525640000087,474.80532219999986,None,,,,,,,,,,,,,,00055,001,2026-01-18_18h37.48.341,MST_task,2024.2.0,60.02880181938554,2026-01-18 18h37.57.451793 +0530,
,Objects\150a.jpg,86,0,87,,,,,,,j,0.9593906000009156,0.0942851999989216,None,,,,,,87,0,86,474.8211183000003,,,,,,,,,,,,,,,,,,,,,,,,,,,,,,474.80561880000096,474.8211183000003,475.30559340000036,,,,,,,,,,,,,,475.33048880000024,,,,,,,,,,,,,475.3271031000004,475.33048880000024,475.33048880000024,475.33048880000024,478.3214799000016,j,0.9593906000009156,0.0942851999989216,478.32161300000007,478.32166000000143,None,,,,,,,,,,,,,,00055,001,2026-01-18_18h37.48.341,MST_task,2024.2.0,60.02880181938554,2026-01-18 18h37.57.451793 +0530,
,Objects\007a.jpg,87,0,88,,,,,,,j,1.1522684000010486,0.17486019999887503,None,,,,,,88,0,87,478.3376775000015,,,,,,,,,,,,,,,,,,,,,,,,,,,,,,478.32190059999994,478.3376775000015,478.82194979999986,,,,,,,,,,,,,,478.8493054999999,,,,,,,,,,,,,478.84641250000095,478.8493054999999,478.8493054999999,478.8493054999999,481.83808600000157,j,1.1522684000010486,0.17486019999887503,481.8382554,481.8383188000007,None,,,,,,,,,,,,,,00055,001,2026-01-18_18h37.48.341,MST_task,2024.2.0,60.02880181938554,2026-01-18 18h37.57.451793 +0530,
,Objects\088a.jpg,88,0,89,,,,,,,j,2.396857000001546,0.1598318999986077,None,,,,,,89,0,88,481.8547001000006,,,,,,,,,,,,,,,,,,,,,,,,,,,,,,481.83863630000087,481.8547001000006,482.3387606000015,,,,,,,,,,,,,,482.38814040000034,,,,,,,,,,,,,482.3845588000004,482.38814040000034,482.38814040000034,482.38814040000034,485.3548501000005,j,2.396857000001546,0.1598318999986077,485.35501420000037,485.35505300000113,None,,,,,,,,,,,,,,00055,001,2026-01-18_18h37.48.341,MST_task,2024.2.0,60.02880181938554,2026-01-18 18h37.57.451793 +0530,
,Objects\137a.jpg,89,0,90,,,,,,,f,1.9677224999995815,0.14344100000016624,None,,,,,,90,0,89,485.37121000000116,,,,,,,,,,,,,,,,,,,,,,,,,,,,,,485.3553275000013,485.37121000000116,485.85542650000025,,,,,,,,,,,,,,485.9537138000014,,,,,,,,,,,,,485.95070750000014,485.9537138000014,485.9537138000014,485.9537138000014,488.87134570000126,f,1.9677224999995815,0.14344100000016624,488.8715132000016,488.8715804000003,None,,,,,,,,,,,,,,00055,001,2026-01-18_18h37.48.341,MST_task,2024.2.0,60.02880181938554,2026-01-18 18h37.57.451793 +0530,
,Objects\054a.jpg,90,0,91,,,,,,,j,1.3248149999999441,0.11927070000092499,None,,,,,,91,0,90,488.88803050000024,,,,,,,,,,,,,,,,,,,,,,,,,,,,,,488.8719011000012,488.88803050000024,489.37229900000057,,,,,,,,,,,,,,489.4122203000006,,,,,,,,,,,,,489.408942,489.4122203000006,489.4122203000006,489.4122203000006,492.3885028000004,j,1.3248149999999441,0.11927070000092499,492.3886628,492.3887021999999,None,,,,,,,,,,,,,,00055,001,2026-01-18_18h37.48.341,MST_task,2024.2.0,60.02880181938554,2026-01-18 18h37.57.451793 +0530,
,Scenes\050a.jpg,91,0,92,,,,,,,j,1.3472844000007171,0.2647686000000249,None,,,,,,92,0,91,492.4043580000016,,,,,,,,,,,,,,,,,,,,,,,,,,,,,,492.38897570000154,492.4043580000016,492.88877870000033,,,,,,,,,,,,,,492.95819930000107,,,,,,,,,,,,,492.9550754000011,492.95819930000107,492.95819930000107,492.95819930000107,495.90503590000117,j,1.3472844000007171,0.2647686000000249,495.9086248000003,495.90866710000046,None,,,,,,,,,,,,,,00055,001,2026-01-18_18h37.48.341,MST_task,2024.2.0,60.02880181938554,2026-01-18 18h37.57.451793 +0530,
,Scenes\085a.jpg,92,0,93,,,,,,,j,0.8775789000010263,0.12031199999910314,None,,,,,,93,0,92,495.9211808,,,,,,,,,,,,,,,,,,,,,,,,,,,,,,495.90885789999993,495.9211808,496.40556300000026,,,,,,,,,,,,,,496.54717300000084,,,,,,,,,,,,,496.54324910000105,496.54717300000084,496.54717300000084,496.54717300000084,499.4217709000004,j,0.8775789000010263,0.12031199999910314,499.4219374000004,499.4219752000008,None,,,,,,,,,,,,,,00055,001,2026-01-18_18h37.48.341,MST_task,2024.2.0,60.02880181938554,2026-01-18 18h37.57.451793 +0530,
,Scenes\111a.jpg,93,0,94,,,,,,,j,2.6782124000001204,0.12828670000089915,None,,,,,,94,0,93,499.4378312000008,,,,,,,,,,,,,,,,,,,,,,,,,,,,,,499.4222524000015,499.4378312000008,499.92181359999995,,,,,,,,,,,,,,499.9943925000007,,,,,,,,,,,,,499.9901675000001,499.9943925000007,499.9943925000007,499.9943925000007,502.93801859999985,j,2.6782124000001204,0.12828670000089915,502.9381884000013,502.9382519999999,None,,,,,,,,,,,,,,00055,001,2026-01-18_18h37.48.341,MST_task,2024.2.0,60.02880181938554,2026-01-18 18h37.57.451793 +0530,
,Scenes\062a.jpg,94,0,95,,,,,,,j,1.0849018000008073,0.16766759999882197,None,,,,,,95,0,94,502.95475330000045,,,,,,,,,,,,,,,,,,,,,,,,,,,,,,502.9385834000004,502.95475330000045,503.43881500000134,,,,,,,,,,,,,,503.53247550000015,,,,,,,,,,,,,503.52832149999995,503.53247550000015,503.53247550000015,503.53247550000015,506.4549646000014,j,1.0849018000008073,0.16766759999882197,506.4551313000011,506.4551960000008,None,,,,,,,,,,,,,,00055,001,2026-01-18_18h37.48.341,MST_task,2024.2.0,60.02880181938554,2026-01-18 18h37.57.451793 +0530,
,Scenes\094a.jpg,95,0,96,,,,,,,None,,,j,0.3410755999993853,None,,,,96,0,95,506.4711547000006,,,,,,,,,,,,,,,,,,,,,,,,,,,,,,506.4556332000011,506.4711547000006,506.95568230000026,,,,,,,,,,,,,,507.04386310000154,,,,,,,,,,,,,507.0411774000004,507.04386310000154,507.04386310000154,507.04386310000154,509.9718591000001,None,,,509.97195530000135,510.3399074000008,j,509.98775510000087,509.98775510000087,0.3410755999993853,None,,,,,,,,,,00055,001,2026-01-18_18h37.48.341,MST_task,2024.2.0,60.02880181938554,2026-01-18 18h37.57.451793 +0530,
,Scenes\179a.jpg,96,0,97,,,,,,,j,2.5345658999995067,0.1927931999998691,None,,,,,,97,0,96,510.354277800001,,,,,,,,,,,,,,,,,,,,,,,,,,,,,,510.3401864000007,510.354277800001,510.8390651000009,,,,,,,,,,,,,,510.9055324000001,,,,,,,,,,,,,510.9021311000015,510.9055324000001,510.9055324000001,510.9055324000001,513.8547487000014,j,2.5345658999995067,0.1927931999998691,513.8548482000006,513.8548836000009,None,,,,,,,,,,,,,,00055,001,2026-01-18_18h37.48.341,MST_task,2024.2.0,60.02880181938554,2026-01-18 18h37.57.451793 +0530,
,Scenes\167a.jpg,97,0,98,,,,,,,None,,,j,0.549311900000248,None,,,,98,0,97,513.8709632000009,,,,,,,,,,,,,,,,,,,,,,,,,,,,,,513.855061100001,513.8709632000009,514.3553518000008,,,,,,,,,,,,,,514.437516,,,,,,,,,,,,,514.4332599000008,514.437516,514.437516,514.437516,517.371576900001,None,,,517.3717473000015,517.9394272999998,j,517.3876891,517.3876891,0.549311900000248,None,,,,,,,,,,00055,001,2026-01-18_18h37.48.341,MST_task,2024.2.0,60.02880181938554,2026-01-18 18h37.57.451793 +0530,
,Objects\081a.jpg,98,0,99,,,,,,,f,2.743003300000055,0.1605959000007715,None,,,,,,99,0,98,517.9543438000001,,,,,,,,,,,,,,,,,,,,,,,,,,,,,,517.9398583000002,517.9543438000001,518.4388047000011,,,,,,,,,,,,,,518.4810848000016,,,,,,,,,,,,,518.4778732000013,518.4810848000016,518.4810848000016,518.4810848000016,521.4547806999999,f,2.743003300000055,0.1605959000007715,521.4602763000003,521.4603207,None,,,,,,,,,,,,,,00055,001,2026-01-18_18h37.48.341,MST_task,2024.2.0,60.02880181938554,2026-01-18 18h37.57.451793 +0530,
,Objects\129a.jpg,99,0,100,,,,,,,f,1.5085648999993282,0.15176319999955012,None,,,,,,100,0,99,521.4709588000005,,,,,,,,,,,,,,,,,,,,,,,,,,,,,,521.4604952000009,521.4709588000005,521.9557209000013,,,,,,,,,,,,,,522.0119617,,,,,,,,,,,,,522.0088350000005,522.0119617,522.0119617,522.0119617,524.9715031000014,f,1.5085648999993282,0.15176319999955012,524.9716404999999,524.9717054000012,None,,,,,,,,,,,,,,00055,001,2026-01-18_18h37.48.341,MST_task,2024.2.0,60.02880181938554,2026-01-18 18h37.57.451793 +0530,
,Objects\148a.jpg,100,0,101,,,,,,,None,,,j,1.440651799999614,None,,,,101,0,100,524.9877265000014,,,,,,,,,,,,,,,,,,,,,,,,,,,,,,524.9721012000009,524.9877265000014,525.4721441000002,,,,,,,,,,,,,,525.5124684000002,,,,,,,,,,,,,525.5083115000016,525.5124684000002,525.5124684000002,525.5124684000002,528.4880902000004,None,,,528.4882379999999,529.9558597000014,j,528.5045804000001,528.5045804000001,1.440651799999614,None,,,,,,,,,,00055,001,2026-01-18_18h37.48.341,MST_task,2024.2.0,60.02880181938554,2026-01-18 18h37.57.451793 +0530,
,Objects\156a.jpg,101,0,102,,,,,,,None,,,j,0.00897369999984221,None,,,,102,0,101,529.9711393000016,,,,,,,,,,,,,,,,,,,,,,,,,,,,,,529.9560864000014,529.9711393000016,530.4555034000005,,,,,,,,,,,,,,530.4977319000009,,,,,,,,,,,,,530.4941566000016,530.4977319000009,530.4977319000009,530.4977319000009,533.4714089000008,None,,,533.4715302000004,533.5064735000014,j,533.487857600001,533.487857600001,0.00897369999984221,None,,,,,,,,,,00055,001,2026-01-18_18h37.48.341,MST_task,2024.2.0,60.02880181938554,2026-01-18 18h37.57.451793 +0530,
,Objects\055a.jpg,102,0,103,,,,,,,f,1.7334344000009878,0.09506099999998696,None,,,,,,103,0,102,533.5210371000012,,,,,,,,,,,,,,,,,,,,,,,,,,,,,,533.5068778000004,533.5210371000012,534.0061211000011,,,,,,,,,,,,,,534.0439053999999,,,,,,,,,,,,,534.0413543000013,534.0439053999999,534.0439053999999,534.0439053999999,537.0215051000014,f,1.7334344000009878,0.09506099999998696,537.0216776000016,537.0217416000014,None,,,,,,,,,,,,,,00055,001,2026-01-18_18h37.48.341,MST_task,2024.2.0,60.02880181938554,2026-01-18 18h37.57.451793 +0530,
,Objects\079a.jpg,103,0,104,,,,,,,f,0.8160040000002482,0.07934899999963818,None,,,,,,104,0,103,537.0376546000007,,,,,,,,,,,,,,,,,,,,,,,,,,,,,,537.0220213000011,537.0376546000007,537.5222126000008,,,,,,,,,,,,,,537.5693277999999,,,,,,,,,,,,,537.5662091000013,537.5693277999999,537.5693277999999,537.5693277999999,540.5389116000006,f,0.8160040000002482,0.07934899999963818,540.5390860000007,540.5391522999998,None,,,,,,,,,,,,,,00055,001,2026-01-18_18h37.48.341,MST_task,2024.2.0,60.02880181938554,2026-01-18 18h37.57.451793 +0530,
,Objects\135a.jpg,104,0,105,,,,,,,j,1.6050200000008772,0.10451359999933629,None,,,,,,105,0,104,540.5543816999998,,,,,,,,,,,,,,,,,,,,,,,,,,,,,,540.5395797000001,540.5543816999998,541.0388450999999,,,,,,,,,,,,,,541.0761985000008,,,,,,,,,,,,,541.0729185,541.0761985000008,541.0761985000008,541.0761985000008,544.054845300001,j,1.6050200000008772,0.10451359999933629,544.0550139000006,544.0550895000015,None,,,,,,,,,,,,,,00055,001,2026-01-18_18h37.48.341,MST_task,2024.2.0,60.02880181938554,2026-01-18 18h37.57.451793 +0530,
,Scenes\046a.jpg,105,0,106,,,,,,,j,0.976130999999441,0.08825160000014876,None,,,,,,106,0,105,544.0710278000006,,,,,,,,,,,,,,,,,,,,,,,,,,,,,,544.0553594000012,544.0710278000006,544.5555989000004,,,,,,,,,,,,,,544.6641920000002,,,,,,,,,,,,,544.6612493000011,544.6641920000002,544.6641920000002,544.6641920000002,547.5714258000007,j,0.976130999999441,0.08825160000014876,547.5772566000014,547.5772963,None,,,,,,,,,,,,,,00055,001,2026-01-18_18h37.48.341,MST_task,2024.2.0,60.02880181938554,2026-01-18 18h37.57.451793 +0530,
,Scenes\063a.jpg,106,0,107,,,,,,,j,0.8476196000010532,0.11249130000032892,None,,,,,,107,0,106,547.5878342000015,,,,,,,,,,,,,,,,,,,,,,,,,,,,,,547.5775055000013,547.5878342000015,548.071990800001,,,,,,,,,,,,,,548.1530996000001,,,,,,,,,,,,,548.1491927000006,548.1530996000001,548.1530996000001,548.1530996000001,551.0885624000002,j,0.8476196000010532,0.11249130000032892,551.0887348000015,551.0887976000013,None,,,,,,,,,,,,,,00055,001,2026-01-18_18h37.48.341,MST_task,2024.2.0,60.02880181938554,2026-01-18 18h37.57.451793 +0530,
,Scenes\023a.jpg,107,0,108,,,,,,,f,0.8450744000001578,0.0875328999991325,None,,,,,,108,0,107,551.1045727000001,,,,,,,,,,,,,,,,,,,,,,,,,,,,,,551.0892334,551.1045727000001,551.5883287000015,,,,,,,,,,,,,,551.6603230000001,,,,,,,,,,,,,551.6568446000001,551.6603230000001,551.6603230000001,551.6603230000001,554.6049301000003,f,0.8450744000001578,0.0875328999991325,554.6051060999998,554.6051708000014,None,,,,,,,,,,,,,,00055,001,2026-01-18_18h37.48.341,MST_task,2024.2.0,60.02880181938554,2026-01-18 18h37.57.451793 +0530,
,Scenes\042a.jpg,108,0,109,,,,,,,j,2.6258142000006046,None,None,,,,,,109,0,108,554.6210535000009,,,,,,,,,,,,,,,,,,,,,,,,,,,,,,554.6055314000005,554.6210535000009,555.1055725000006,,,,,,,,,,,,,,555.1754662000003,,,,,,,,,,,,,555.1720997000011,555.1754662000003,555.1754662000003,555.1754662000003,558.1214702000016,j,2.6258142000006046,None,558.1216282000005,558.1216660999999,None,,,,,,,,,,,,,,00055,001,2026-01-18_18h37.48.341,MST_task,2024.2.0,60.02880181938554,2026-01-18 18h37.57.451793 +0530,
,Scenes\130a.jpg,109,0,110,,,,,,,f,1.311488499999541,0.14403710000078718,None,,,,,,110,0,109,558.1376243000013,,,,,,,,,,,,,,,,,,,,,,,,,,,,,,558.1218640000006,558.1376243000013,558.6220067000013,,,,,,,,,,,,,,558.6898291000016,,,,,,,,,,,,,558.6862421000005,558.6898291000016,558.6898291000016,558.6898291000016,561.6382121000006,f,1.311488499999541,0.14403710000078718,561.6383414000011,561.6383830000013,None,,,,,,,,,,,,,,00055,001,2026-01-18_18h37.48.341,MST_task,2024.2.0,60.02880181938554,2026-01-18 18h37.57.451793 +0530,
,Scenes\103a.jpg,110,0,111,,,,,,,j,1.9591142999997828,0.07175099999949452,None,,,,,,111,0,110,561.6544301000013,,,,,,,,,,,,,,,,,,,,,,,,,,,,,,561.6385805000009,561.6544301000013,562.1388923000013,,,,,,,,,,,,,,562.2178892000011,,,,,,,,,,,,,562.2132024000002,562.2178892000011,562.2178892000011,562.2178892000011,565.1548307000012,j,1.9591142999997828,0.07175099999949452,565.1549394000012,565.1549782000002,None,,,,,,,,,,,,,,00055,001,2026-01-18_18h37.48.341,MST_task,2024.2.0,60.02880181938554,2026-01-18 18h37.57.451793 +0530,
,Scenes\115a.jpg,111,0,112,,,,,,,j,2.550620699999854,0.09588319999966188,None,,,,,,112,0,111,565.1710658000011,,,,,,,,,,,,,,,,,,,,,,,,,,,,,,565.1552502000013,565.1710658000011,565.6554456000013,,,,,,,,,,,,,,565.7145181000014,,,,,,,,,,,,,565.7118964000001,565.7145181000014,565.7145181000014,565.7145181000014,568.6712884000008,j,2.550620699999854,0.09588319999966188,568.6714011000004,568.6714415000006,None,,,,,,,,,,,,,,00055,001,2026-01-18_18h37.48.341,MST_task,2024.2.0,60.02880181938554,2026-01-18 18h37.57.451793 +0530,
,Objects\118a.jpg,112,0,113,,,,,,,None,,,j,0.2038124999999127,None,,,,113,0,112,568.6878121000009,,,,,,,,,,,,,,,,,,,,,,,,,,,,,,568.6716473000015,568.6878121000009,569.1721193000012,,,,,,,,,,,,,,569.2201713000013,,,,,,,,,,,,,569.2157756000015,569.2201713000013,569.2201713000013,569.2201713000013,572.1881110000013,None,,,572.1935185000002,572.4232510000002,j,572.2042600000004,572.2042600000004,0.2038124999999127,None,,,,,,,,,,00055,001,2026-01-18_18h37.48.341,MST_task,2024.2.0,60.02880181938554,2026-01-18 18h37.57.451793 +0530,
,Objects\001a.jpg,113,0,114,,,,,,,j,2.42885650000062,0.12711440000020957,None,,,,,,114,0,113,572.4387022999999,,,,,,,,,,,,,,,,,,,,,,,,,,,,,,572.423552100001,572.4387022999999,572.9219942,,,,,,,,,,,,,,572.9559841999999,,,,,,,,,,,,,572.9532858000002,572.9559841999999,572.9559841999999,572.9559841999999,575.9380689000009,j,2.42885650000062,0.12711440000020957,575.9382524000011,575.9382905000002,None,,,,,,,,,,,,,,00055,001,2026-01-18_18h37.48.341,MST_task,2024.2.0,60.02880181938554,2026-01-18 18h37.57.451793 +0530,
,Objects\076a.jpg,114,0,115,,,,,,,f,1.1744832999993378,0.11091250000026776,None,,,,,,115,0,114,575.9544643000008,,,,,,,,,,,,,,,,,,,,,,,,,,,,,,575.9384817999999,575.9544643000008,576.4385122000003,,,,,,,,,,,,,,,,,,,,,,,,,,,576.4714373000006,576.4745450999999,576.4745450999999,576.4745450999999,579.4548677000002,f,1.1744832999993378,0.11091250000026776,579.4549775000014,579.4550157000012,None,,,,,,,,,,,,,,00055,001,2026-01-18_18h37.48.341,MST_task,2024.2.0,60.02880181938554,2026-01-18 18h37.57.451793 +0530,
,Objects\049a.jpg,115,0,116,,,,,,,f,0.7748157000005449,0.20886520000021846,None,,,,,,116,0,115,579.4711874000004,,,,,,,,,,,,,,,,,,,,,,,,,,,,,,579.4552927000004,579.4711874000004,579.9553879000014,,,,,,,,,,,,,,579.9853528000003,,,,,,,,,,,,,579.9824630000003,579.9853528000003,579.9853528000003,579.9853528000003,582.9718686000015,f,0.7748157000005449,0.20886520000021846,582.9720555000004,582.972119600001,None,,,,,,,,,,,,,,00055,001,2026-01-18_18h37.48.341,MST_task,2024.2.0,60.02880181938554,2026-01-18 18h37.57.451793 +0530,
,Objects\098a.jpg,116,0,117,,,,,,,j,0.7629895999998553,0.09484310000152618,None,,,,,,117,0,116,582.9878271000016,,,,,,,,,,,,,,,,,,,,,,,,,,,,,,582.9724437000004,582.9878271000016,583.4721395000015,,,,,,,,,,,,,,583.5026890000008,,,,,,,,,,,,,583.4996449000009,583.5026890000008,583.5026890000008,583.5026890000008,586.4884270000002,j,0.7629895999998553,0.09484310000152618,586.488565900001,586.4886161000013,None,,,,,,,,,,,,,,00055,001,2026-01-18_18h37.48.341,MST_task,2024.2.0,60.02880181938554,2026-01-18 18h37.57.451793 +0530,
,Objects\002a.jpg,117,0,118,,,,,,,j,1.8270375000010972,0.12884899999880872,None,,,,,,118,0,117,586.5042936000009,,,,,,,,,,,,,,,,,,,,,,,,,,,,,,586.4889700000003,586.5042936000009,586.9891108000011,,,,,,,,,,,,,,587.0372196000008,,,,,,,,,,,,,587.0334003000007,587.0372196000008,587.0372196000008,587.0372196000008,590.0047865000015,j,1.8270375000010972,0.12884899999880872,590.0049752000014,590.0050398000003,None,,,,,,,,,,,,,,00055,001,2026-01-18_18h37.48.341,MST_task,2024.2.0,60.02880181938554,2026-01-18 18h37.57.451793 +0530,
,Objects\073a.jpg,118,0,119,,,,,,,f,1.585841399999481,0.14420799999970768,None,,,,,,119,0,118,590.0209414000001,,,,,,,,,,,,,,,,,,,,,,,,,,,,,,590.0053830000015,590.0209414000001,590.5053429,,,,,,,,,,,,,,590.5998125000006,,,,,,,,,,,,,590.5964230000009,590.5998125000006,590.5998125000006,590.5998125000006,593.521743700001,f,1.585841399999481,0.14420799999970768,593.5219225000001,593.5219861000005,None,,,,,,,,,,,,,,00055,001,2026-01-18_18h37.48.341,MST_task,2024.2.0,60.02880181938554,2026-01-18 18h37.57.451793 +0530,
,Scenes\044a.jpg,119,0,120,,,,,,,j,1.45319439999912,0.10317790000044624,None,,,,,,120,0,119,593.5380292999998,,,,,,,,,,,,,,,,,,,,,,,,,,,,,,593.5224339000015,593.5380292999998,594.0224407000005,,,,,,,,,,,,,,594.0843440000008,,,,,,,,,,,,,594.0813079,594.0843440000008,594.0843440000008,594.0843440000008,597.0380670000013,j,1.45319439999912,0.10317790000044624,597.0416409000009,597.0416818000012,None,,,,,,,,,,,,,,00055,001,2026-01-18_18h37.48.341,MST_task,2024.2.0,60.02880181938554,2026-01-18 18h37.57.451793 +0530,
,Scenes\126a.jpg,120,0,121,,,,,,,j,0.743171699999948,0.1677661999983684,None,,,,,,121,0,120,597.0544134000011,,,,,,,,,,,,,,,,,,,,,,,,,,,,,,597.0418149000016,597.0544134000011,597.538889200001,,,,,,,,,,,,,,597.6022090000006,,,,,,,,,,,,,597.5993962000011,597.6022090000006,597.6022090000006,597.6022090000006,600.5547260000003,j,0.743171699999948,0.1677661999983684,600.5548988999999,600.5549631000013,None,,,,,,,,,,,,,,00055,001,2026-01-18_18h37.48.341,MST_task,2024.2.0,60.02880181938554,2026-01-18 18h37.57.451793 +0530,
,Scenes\060a.jpg,121,0,122,,,,,,,j,0.9926373000016611,0.10349529999984952,None,,,,,,122,0,121,600.5710252000008,,,,,,,,,,,,,,,,,,,,,,,,,,,,,,600.5554002000008,600.5710252000008,601.0555789999999,,,,,,,,,,,,,,601.1443779000001,,,,,,,,,,,,,601.1413066000005,601.1443779000001,601.1443779000001,601.1443779000001,604.0717148000003,j,0.9926373000016611,0.10349529999984952,604.0718247000004,604.0718637000009,None,,,,,,,,,,,,,,00055,001,2026-01-18_18h37.48.341,MST_task,2024.2.0,60.02880181938554,2026-01-18 18h37.57.451793 +0530,
,Scenes\086a.jpg,122,0,123,,,,,,,j,1.5285189999995055,0.11138310000023921,None,,,,,,123,0,122,604.0878522000003,,,,,,,,,,,,,,,,,,,,,,,,,,,,,,604.0721363000011,604.0878522000003,604.5720798000002,,,,,,,,,,,,,,,,,,,,,,,,,,,604.6449342000014,604.6484021000015,604.6484021000015,604.6484021000015,607.5882517000009,j,1.5285189999995055,0.11138310000023921,607.5884380000007,607.5884795000002,None,,,,,,,,,,,,,,00055,001,2026-01-18_18h37.48.341,MST_task,2024.2.0,60.02880181938554,2026-01-18 18h37.57.451793 +0530,
,Scenes\140a.jpg,123,0,124,,,,,,,j,1.686670299999605,0.15215969999917434,None,,,,,,124,0,123,607.6047467000008,,,,,,,,,,,,,,,,,,,,,,,,,,,,,,607.5886906000014,607.6047467000008,608.0887516000003,,,,,,,,,,,,,,608.1539940000002,,,,,,,,,,,,,608.1507683,608.1539940000002,608.1539940000002,608.1539940000002,611.1048421000014,j,1.686670299999605,0.15215969999917434,611.1049471000006,611.1049824000002,None,,,,,,,,,,,,,,00055,001,2026-01-18_18h37.48.341,MST_task,2024.2.0,60.02880181938554,2026-01-18 18h37.57.451793 +0530,
,Scenes\113a.jpg,124,0,125,,,,,,,j,1.0451143999998749,0.0973850999998831,None,,,,,,125,0,124,611.1208842000015,,,,,,,,,,,,,,,,,,,,,,,,,,,,,,611.1052403000012,611.1208842000015,611.6056680000002,,,,,,,,,,,,,,611.6594312000016,,,,,,,,,,,,,611.6563567000012,611.6594312000016,611.6594312000016,611.6594312000016,614.6216374000014,j,1.0451143999998749,0.0973850999998831,614.6218168000014,614.6218833000003,None,,,,,,,,,,,,,,00055,001,2026-01-18_18h37.48.341,MST_task,2024.2.0,60.02880181938554,2026-01-18 18h37.57.451793 +0530,
,Scenes\190a.jpg,125,0,126,,,,,,,j,2.583053499998641,0.1352554000004602,None,,,,,,126,0,125,614.6376533000002,,,,,,,,,,,,,,,,,,,,,,,,,,,,,,614.6222450000005,614.6376533000002,615.1221352000011,,,,,,,,,,,,,,615.1858978,,,,,,,,,,,,,615.182841400001,615.1858978,615.1858978,615.1858978,618.1381937000006,j,2.583053499998641,0.1352554000004602,618.1383631000008,618.1384049000008,None,,,,,,,,,,,,,,00055,001,2026-01-18_18h37.48.341,MST_task,2024.2.0,60.02880181938554,2026-01-18 18h37.57.451793 +0530,
,Objects\010a.jpg,126,0,127,,,,,,,j,1.8804701000008208,0.13675979999970878,None,,,,,,127,0,126,618.154345500001,,,,,,,,,,,,,,,,,,,,,,,,,,,,,,618.1386548999999,618.154345500001,618.638848300001,,,,,,,,,,,,,,618.6800586000008,,,,,,,,,,,,,618.6768938000005,618.6800586000008,618.6800586000008,618.6800586000008,621.6549149000002,j,1.8804701000008208,0.13675979999970878,621.6594342000008,621.6594728,None,,,,,,,,,,,,,,00055,001,2026-01-18_18h37.48.341,MST_task,2024.2.0,60.02880181938554,2026-01-18 18h37.57.451793 +0530,
,Objects\062a.jpg,127,0,128,,,,,,,f,1.8598416000004363,0.16795339999953285,None,,,,,,128,0,127,621.671032100001,,,,,,,,,,,,,,,,,,,,,,,,,,,,,,621.6596457000014,621.671032100001,622.1555439000003,,,,,,,,,,,,,,622.1967800000002,,,,,,,,,,,,,622.193782100001,622.1967800000002,622.1967800000002,622.1967800000002,625.1714774000011,f,1.8598416000004363,0.16795339999953285,625.1716471,625.1717108000012,None,,,,,,,,,,,,,,00055,001,2026-01-18_18h37.48.341,MST_task,2024.2.0,60.02880181938554,2026-01-18 18h37.57.451793 +0530,
,Objects\061a.jpg,128,0,129,,,,,,,j,1.8184125000007043,0.17616569999881904,None,,,,,,129,0,128,625.1879294000009,,,,,,,,,,,,,,,,,,,,,,,,,,,,,,625.1720041000008,625.1879294000009,625.672109000001,,,,,,,,,,,,,,625.6944515000014,,,,,,,,,,,,,625.691288,625.6944515000014,625.6944515000014,625.6944515000014,628.6719784000015,j,1.8184125000007043,0.17616569999881904,628.6720830000013,628.6721204000005,None,,,,,,,,,,,,,,00055,001,2026-01-18_18h37.48.341,MST_task,2024.2.0,60.02880181938554,2026-01-18 18h37.57.451793 +0530,
,Objects\090a.jpg,129,0,130,,,,,,,j,1.404587500001071,0.1441311999988102,None,,,,,,130,0,129,628.6876814000007,,,,,,,,,,,,,,,,,,,,,,,,,,,,,,628.6723791000004,628.6876814000007,629.1723796000006,,,,,,,,,,,,,,629.204592,,,,,,,,,,,,,629.2015887000016,629.204592,629.204592,629.204592,632.1882579000012,j,1.404587500001071,0.1441311999988102,632.1884343000002,632.1885020999998,None,,,,,,,,,,,,,,00055,001,2026-01-18_18h37.48.341,MST_task,2024.2.0,60.02880181938554,2026-01-18 18h37.57.451793 +0530,
,Objects\091a.jpg,130,0,131,,,,,,,j,2.411005199999636,0.16046559999995225,None,,,,,,131,0,130,632.20435,,,,,,,,,,,,,,,,,,,,,,,,,,,,,,632.1888303000014,632.20435,632.6887709000002,,,,,,,,,,,,,,632.7173187000008,,,,,,,,,,,,,632.7143751000003,632.7173187000008,632.7173187000008,632.7173187000008,635.7048814000009,j,2.411005199999636,0.16046559999995225,635.7050508000011,635.7051133000004,None,,,,,,,,,,,,,,00055,001,2026-01-18_18h37.48.341,MST_task,2024.2.0,60.02880181938554,2026-01-18 18h37.57.451793 +0530,
,Objects\175a.jpg,131,0,132,,,,,,,j,2.221452499999941,0.20083250000061525,None,,,,,,132,0,131,635.7210265000012,,,,,,,,,,,,,,,,,,,,,,,,,,,,,,635.7054884000008,635.7210265000012,636.2047113000008,,,,,,,,,,,,,,636.2345628000003,,,,,,,,,,,,,636.2311905000006,636.2345628000003,636.2345628000003,636.2345628000003,639.2215286999999,j,2.221452499999941,0.20083250000061525,639.2216261000012,639.2216610000014,None,,,,,,,,,,,,,,00055,001,2026-01-18_18h37.48.341,MST_task,2024.2.0,60.02880181938554,2026-01-18 18h37.57.451793 +0530,
,Objects\050a.jpg,132,0,133,,,,,,,j,1.4931624000000738,0.10455300000103307,None,,,,,,133,0,132,639.2378411000009,,,,,,,,,,,,,,,,,,,,,,,,,,,,,,639.2218384000007,639.2378411000009,639.7222754000013,,,,,,,,,,,,,,639.7552217000011,,,,,,,,,,,,,639.7514664000009,639.7552217000011,639.7552217000011,639.7552217000011,642.7381822000007,j,1.4931624000000738,0.10455300000103307,642.7383461999998,642.7383932000012,None,,,,,,,,,,,,,,00055,001,2026-01-18_18h37.48.341,MST_task,2024.2.0,60.02880181938554,2026-01-18 18h37.57.451793 +0530,
,Scenes\017a.jpg,133,0,134,,,,,,,f,2.006863099999464,0.16808880000098725,None,,,,,,134,0,133,642.7543038000003,,,,,,,,,,,,,,,,,,,,,,,,,,,,,,642.7386303000003,642.7543038000003,643.2390319000006,,,,,,,,,,,,,,643.2972623000005,,,,,,,,,,,,,643.2937875000007,643.2972623000005,643.2972623000005,643.2972623000005,646.2550717000013,f,2.006863099999464,0.16808880000098725,646.2603159000009,646.2604007999998,None,,,,,,,,,,,,,,00055,001,2026-01-18_18h37.48.341,MST_task,2024.2.0,60.02880181938554,2026-01-18 18h37.57.451793 +0530,
,Scenes\163a.jpg,134,0,135,,,,,,,j,0.8509052000008523,0.13429469999937282,None,,,,,,135,0,134,646.2711021000014,,,,,,,,,,,,,,,,,,,,,,,,,,,,,,646.2606775000004,646.2711021000014,646.7556433000009,,,,,,,,,,,,,,646.8147805000008,,,,,,,,,,,,,646.8111449000007,646.8147805000008,646.8147805000008,646.8147805000008,649.7714861000004,j,0.8509052000008523,0.13429469999937282,649.7716783000014,649.7717441000004,None,,,,,,,,,,,,,,00055,001,2026-01-18_18h37.48.341,MST_task,2024.2.0,60.02880181938554,2026-01-18 18h37.57.451793 +0530,
,Scenes\015a.jpg,135,0,136,,,,,,,j,1.3280507999988913,0.14381310000135272,None,,,,,,136,0,135,649.787758800001,,,,,,,,,,,,,,,,,,,,,,,,,,,,,,649.7720956000012,649.787758800001,650.2727587000008,,,,,,,,,,,,,,650.3211065000014,,,,,,,,,,,,,650.3175781000009,650.3211065000014,650.3211065000014,650.3211065000014,653.2882829999999,j,1.3280507999988913,0.14381310000135272,653.2883945000012,653.2884332000012,None,,,,,,,,,,,,,,00055,001,2026-01-18_18h37.48.341,MST_task,2024.2.0,60.02880181938554,2026-01-18 18h37.57.451793 +0530,
,Scenes\128a.jpg,136,0,137,,,,,,,j,1.1767429999999877,0.18290299999898707,None,,,,,,137,0,136,653.3043443000006,,,,,,,,,,,,,,,,,,,,,,,,,,,,,,653.288708600001,653.3043443000006,653.788508900001,,,,,,,,,,,,,,653.8564479000015,,,,,,,,,,,,,653.8529822,653.8564479000015,653.8564479000015,653.8564479000015,656.8050233000013,j,1.1767429999999877,0.18290299999898707,656.8051808,656.8052227000007,None,,,,,,,,,,,,,,00055,001,2026-01-18_18h37.48.341,MST_task,2024.2.0,60.02880181938554,2026-01-18 18h37.57.451793 +0530,
,Scenes\052a.jpg,137,0,138,,,,,,,j,1.3259346000013466,0.1913827999997011,None,,,,,,138,0,137,656.8211907000004,,,,,,,,,,,,,,,,,,,,,,,,,,,,,,656.8055323000008,656.8211907000004,657.3055837000011,,,,,,,,,,,,,,657.3629196000002,,,,,,,,,,,,,657.3592638000009,657.3629196000002,657.3629196000002,657.3629196000002,660.3215734000005,j,1.3259346000013466,0.1913827999997011,660.3217151000008,660.3217591000011,None,,,,,,,,,,,,,,00055,001,2026-01-18_18h37.48.341,MST_task,2024.2.0,60.02880181938554,2026-01-18 18h37.57.451793 +0530,
,Scenes\161a.jpg,138,0,139,,,,,,,j,1.0522709000015311,0.09589229999983218,None,,,,,,139,0,138,660.3376830000016,,,,,,,,,,,,,,,,,,,,,,,,,,,,,,660.3219838000005,660.3376830000016,660.8219026000006,,,,,,,,,,,,,,660.924190400001,,,,,,,,,,,,,660.9209793999999,660.924190400001,660.924190400001,660.924190400001,663.8384210000004,j,1.0522709000015311,0.09589229999983218,663.8385776000014,663.8386137000016,None,,,,,,,,,,,,,,00055,001,2026-01-18_18h37.48.341,MST_task,2024.2.0,60.02880181938554,2026-01-18 18h37.57.451793 +0530,
,Scenes\029a.jpg,139,0,140,,,,,,,j,0.8316068000003725,0.14486219999889727,None,,,,,,140,0,139,663.8550802999998,,,,,,,,,,,,,,,,,,,,,,,,,,,,,,663.8388691,663.8550802999998,664.3391777000015,,,,,,,,,,,,,,664.4244520000011,,,,,,,,,,,,,664.4214830000001,664.4244520000011,664.4244520000011,664.4244520000011,667.3549800000001,j,0.8316068000003725,0.14486219999889727,667.355160000001,667.3552245999999,None,,,,,,,,,,,,,,00055,001,2026-01-18_18h37.48.341,MST_task,2024.2.0,60.02880181938554,2026-01-18 18h37.57.451793 +0530,
,Objects\015a.jpg,140,0,141,,,,,,,f,1.2489331999986462,0.17775020000044606,None,,,,,,141,0,140,667.3709919000012,,,,,,,,,,,,,,,,,,,,,,,,,,,,,,667.3555277000014,667.3709919000012,667.8555204000004,,,,,,,,,,,,,,667.9109938000001,,,,,,,,,,,,,667.9072041,667.9109938000001,667.9109938000001,667.9109938000001,670.8716010000007,f,1.2489331999986462,0.17775020000044606,670.8771056000005,670.8771444000013,None,,,,,,,,,,,,,,00055,001,2026-01-18_18h37.48.341,MST_task,2024.2.0,60.02880181938554,2026-01-18 18h37.57.451793 +0530,
,Objects\104a.jpg,141,0,142,,,,,,,f,0.7997957000006863,0.16790989999935846,None,,,,,,142,0,141,670.8877069000009,,,,,,,,,,,,,,,,,,,,,,,,,,,,,,670.8773630000014,670.8877069000009,671.3720266,,,,,,,,,,,,,,671.4015123000008,,,,,,,,,,,,,671.3987776000013,671.4015123000008,671.4015123000008,671.4015123000008,674.3882700000013,f,0.7997957000006863,0.16790989999935846,674.3884312000009,674.3884673000011,None,,,,,,,,,,,,,,00055,001,2026-01-18_18h37.48.341,MST_task,2024.2.0,60.02880181938554,2026-01-18 18h37.57.451793 +0530,
,Objects\102a.jpg,142,0,143,,,,,,,f,2.1037878999995883,0.12076380000144127,None,,,,,,143,0,142,674.4045065000009,,,,,,,,,,,,,,,,,,,,,,,,,,,,,,674.3887281000007,674.4045065000009,674.8884978000006,,,,,,,,,,,,,,674.9205385000005,,,,,,,,,,,,,674.9176992000012,674.9205385000005,674.9205385000005,674.9205385000005,677.8888532000001,f,2.1037878999995883,0.12076380000144127,677.8890379000004,677.8891018000013,None,,,,,,,,,,,,,,00055,001,2026-01-18_18h37.48.341,MST_task,2024.2.0,60.02880181938554,2026-01-18 18h37.57.451793 +0530,
,Objects\045a.jpg,143,0,144,,,,,,,f,1.3970556999993278,0.11996220000037283,None,,,,,,144,0,143,677.9045323999999,,,,,,,,,,,,,,,,,,,,,,,,,,,,,,677.889401800001,677.9045323999999,678.3889443000007,,,,,,,,,,,,,,678.4199610000014,,,,,,,,,,,,,678.4171669000007,678.4199610000014,678.4199610000014,678.4199610000014,681.4048829000003,f,1.3970556999993278,0.11996220000037283,681.4049964000005,681.4050351000005,None,,,,,,,,,,,,,,00055,001,2026-01-18_18h37.48.341,MST_task,2024.2.0,60.02880181938554,2026-01-18 18h37.57.451793 +0530,
,Objects\173a.jpg,144,0,145,,,,,,,f,1.018073799999911,0.1282405000001745,None,,,,,,145,0,144,681.4212127999999,,,,,,,,,,,,,,,,,,,,,,,,,,,,,,681.4053172000004,681.4212127999999,681.9054827,,,,,,,,,,,,,,681.9428485000008,,,,,,,,,,,,,681.9393530000016,681.9428485000008,681.9428485000008,681.9428485000008,684.9215113999999,f,1.018073799999911,0.1282405000001745,684.9216735000009,684.9217175000013,None,,,,,,,,,,,,,,00055,001,2026-01-18_18h37.48.341,MST_task,2024.2.0,60.02880181938554,2026-01-18 18h37.57.451793 +0530,
,Objects\092a.jpg,145,0,146,,,,,,,f,0.7827745000013238,0.1686078999991878,None,,,,,,146,0,145,684.9379770000014,,,,,,,,,,,,,,,,,,,,,,,,,,,,,,684.9220332000004,684.9379770000014,685.4224064999999,,,,,,,,,,,,,,685.4416375000001,,,,,,,,,,,,,685.4388007000016,685.4416375000001,685.4416375000001,685.4416375000001,688.4387975999998,f,0.7827745000013238,0.1686078999991878,688.4389703000015,688.4390349000005,None,,,,,,,,,,,,,,00055,001,2026-01-18_18h37.48.341,MST_task,2024.2.0,60.02880181938554,2026-01-18 18h37.57.451793 +0530,
,Objects\017a.jpg,146,0,147,,,,,,,f,0.9782183000006626,0.16798329999983252,None,,,,,,147,0,146,688.4543447000015,,,,,,,,,,,,,,,,,,,,,,,,,,,,,,688.4393127000003,688.4543447000015,688.9386631000016,,,,,,,,,,,,,,688.9750316999998,,,,,,,,,,,,,688.9720991000013,688.9750316999998,688.9750316999998,688.9750316999998,691.9548663000005,f,0.9782183000006626,0.16798329999983252,691.9550046000004,691.9550442,None,,,,,,,,,,,,,,00055,001,2026-01-18_18h37.48.341,MST_task,2024.2.0,60.02880181938554,2026-01-18 18h37.57.451793 +0530,
,Scenes\054a.jpg,147,0,148,,,,,,,j,0.46141720000014175,0.15197509999961767,None,,,,,,148,0,147,691.9710228000004,,,,,,,,,,,,,,,,,,,,,,,,,,,,,,691.9552515000014,691.9710228000004,692.4555256000003,,,,,,,,,,,,,,692.5305321000014,,,,,,,,,,,,,692.5274666000005,692.5305321000014,692.5305321000014,692.5305321000014,695.4714244000006,j,0.46141720000014175,0.15197509999961767,695.475128,695.4751648000001,None,,,,,,,,,,,,,,00055,001,2026-01-18_18h37.48.341,MST_task,2024.2.0,60.02880181938554,2026-01-18 18h37.57.451793 +0530,
,Scenes\116a.jpg,148,0,149,,,,,,,j,1.8646201999999903,0.16171229999963543,None,,,,,,149,0,148,695.4877233000007,,,,,,,,,,,,,,,,,,,,,,,,,,,,,,695.4753704000013,695.4877233000007,695.9719707000004,,,,,,,,,,,,,,696.0311965000001,,,,,,,,,,,,,696.0276815000016,696.0311965000001,696.0311965000001,696.0311965000001,698.9881393000014,j,1.8646201999999903,0.16171229999963543,698.9882494000012,698.9882890000008,None,,,,,,,,,,,,,,00055,001,2026-01-18_18h37.48.341,MST_task,2024.2.0,60.02880181938554,2026-01-18 18h37.57.451793 +0530,
,Scenes\066a.jpg,149,0,150,,,,,,,j,1.2508057999984885,0.18286820000139414,None,,,,,,150,0,149,699.0043667000009,,,,,,,,,,,,,,,,,,,,,,,,,,,,,,698.9885641000001,699.0043667000009,699.4887948000014,,,,,,,,,,,,,,699.526543,,,,,,,,,,,,,699.5229801000005,699.526543,699.526543,699.526543,702.5053673000002,j,1.2508057999984885,0.18286820000139414,702.5054698000004,702.5055063,None,,,,,,,,,,,,,,00055,001,2026-01-18_18h37.48.341,MST_task,2024.2.0,60.02880181938554,2026-01-18 18h37.57.451793 +0530,
,Scenes\070a.jpg,150,0,151,,,,,,,j,2.4686669999991864,0.2081616000014037,None,,,,,,151,0,150,702.5210052000002,,,,,,,,,,,,,,,,,,,,,,,,,,,,,,702.5057785000008,702.5210052000002,703.0056205000001,,,,,,,,,,,,,,703.0674968000003,,,,,,,,,,,,,703.0638394000016,703.0674968000003,703.0674968000003,703.0674968000003,706.0218751000011,j,2.4686669999991864,0.2081616000014037,706.0220536000015,706.0221179,None,,,,,,,,,,,,,,00055,001,2026-01-18_18h37.48.341,MST_task,2024.2.0,60.02880181938554,2026-01-18 18h37.57.451793 +0530,
,Scenes\173a.jpg,151,0,152,,,,,,,j,0.9260213999987172,0.16686079999999492,None,,,,,,152,0,151,706.0379852000005,,,,,,,,,,,,,,,,,,,,,,,,,,,,,,706.0225490000012,706.0379852000005,706.5220170000011,,,,,,,,,,,,,,706.5793162999998,,,,,,,,,,,,,706.5756867,706.5793162999998,706.5793162999998,706.5793162999998,709.5382772000012,j,0.9260213999987172,0.16686079999999492,709.5384106000001,709.5384583000014,None,,,,,,,,,,,,,,00055,001,2026-01-18_18h37.48.341,MST_task,2024.2.0,60.02880181938554,2026-01-18 18h37.57.451793 +0530,
,Scenes\092a.jpg,152,0,153,,,,,,,j,0.9542406000000483,0.16004900000007183,None,,,,,,153,0,152,709.5551639000005,,,,,,,,,,,,,,,,,,,,,,,,,,,,,,709.5387151000014,709.5551639000005,710.0389854000005,,,,,,,,,,,,,,710.1263181000013,,,,,,,,,,,,,710.1223316000014,710.1263181000013,710.1263181000013,710.1263181000013,713.0547965000005,j,0.9542406000000483,0.16004900000007183,713.0549512000016,713.0549879000009,None,,,,,,,,,,,,,,00055,001,2026-01-18_18h37.48.341,MST_task,2024.2.0,60.02880181938554,2026-01-18 18h37.57.451793 +0530,
,Scenes\039a.jpg,153,0,154,,,,,,,j,2.525101799999902,0.1596650999999838,None,,,,,,154,0,153,713.071018300001,,,,,,,,,,,,,,,,,,,,,,,,,,,,,,713.0551728999999,713.071018300001,713.5555380000005,,,,,,,,,,,,,,713.6439396000005,,,,,,,,,,,,,713.6401994000007,713.6439396000005,713.6439396000005,713.6439396000005,716.5715129,j,2.525101799999902,0.1596650999999838,716.5716944000014,716.5717584000013,None,,,,,,,,,,,,,,00055,001,2026-01-18_18h37.48.341,MST_task,2024.2.0,60.02880181938554,2026-01-18 18h37.57.451793 +0530,
,Objects\060a.jpg,154,0,155,,,,,,,f,1.8240272999992158,0.19318240000029618,None,,,,,,155,0,154,716.5877259000008,,,,,,,,,,,,,,,,,,,,,,,,,,,,,,716.5721432999999,716.5877259000008,717.0721870000016,,,,,,,,,,,,,,717.1044951000003,,,,,,,,,,,,,717.1014799000004,717.1044951000003,717.1044951000003,717.1044951000003,720.0882053000005,f,1.8240272999992158,0.19318240000029618,720.0940695000008,720.0941120000007,None,,,,,,,,,,,,,,00055,001,2026-01-18_18h37.48.341,MST_task,2024.2.0,60.02880181938554,2026-01-18 18h37.57.451793 +0530,
,Objects\121a.jpg,155,0,156,,,,,,,f,1.6933377999994264,0.2244274000004225,None,,,,,,156,0,155,720.1047534000008,,,,,,,,,,,,,,,,,,,,,,,,,,,,,,720.0943028000002,720.1047534000008,720.588908400001,,,,,,,,,,,,,,720.6355263000005,,,,,,,,,,,,,720.632233100001,720.6355263000005,720.6355263000005,720.6355263000005,723.6048124000008,f,1.6933377999994264,0.2244274000004225,723.6049842000011,723.6050488000001,None,,,,,,,,,,,,,,00055,001,2026-01-18_18h37.48.341,MST_task,2024.2.0,60.02880181938554,2026-01-18 18h37.57.451793 +0530,
,Objects\037a.jpg,156,0,157,,,,,,,f,0.6304442999989988,0.12702150000041001,None,,,,,,157,0,156,723.6211034000007,,,,,,,,,,,,,,,,,,,,,,,,,,,,,,723.6053635000007,723.6211034000007,724.1061483000012,,,,,,,,,,,,,,724.1469015000002,,,,,,,,,,,,,724.1433682000006,724.1469015000002,724.1469015000002,724.1469015000002,727.1215069000009,f,0.6304442999989988,0.12702150000041001,727.121668400001,727.1217285000002,None,,,,,,,,,,,,,,00055,001,2026-01-18_18h37.48.341,MST_task,2024.2.0,60.02880181938554,2026-01-18 18h37.57.451793 +0530,
,Objects\071a.jpg,157,0,158,,,,,,,j,0.5627761000014289,0.19140319999860367,None,,,,,,158,0,157,727.1377005000013,,,,,,,,,,,,,,,,,,,,,,,,,,,,,,727.122135900001,727.1377005000013,727.6222517000006,,,,,,,,,,,,,,727.6541359000003,,,,,,,,,,,,,727.6511444000007,727.6541359000003,727.6541359000003,727.6541359000003,730.6384213000001,j,0.5627761000014289,0.19140319999860367,730.6385328000015,730.6385718000001,None,,,,,,,,,,,,,,00055,001,2026-01-18_18h37.48.341,MST_task,2024.2.0,60.02880181938554,2026-01-18 18h37.57.451793 +0530,
,Objects\182a.jpg,158,0,159,,,,,,,f,0.9569565000001603,0.16805219999878318,None,,,,,,159,0,158,730.6544061000004,,,,,,,,,,,,,,,,,,,,,,,,,,,,,,730.6388467000015,730.6544061000004,731.1389457000005,,,,,,,,,,,,,,731.2120129000014,,,,,,,,,,,,,731.2089646000004,731.2120129000014,731.2120129000014,731.2120129000014,734.1547827000013,f,0.9569565000001603,0.16805219999878318,734.1549556999998,734.1550206000011,None,,,,,,,,,,,,,,00055,001,2026-01-18_18h37.48.341,MST_task,2024.2.0,60.02880181938554,2026-01-18 18h37.57.451793 +0530,
,Objects\021a.jpg,159,0,160,,,,,,,j,2.4460703000004287,0.15223390000028303,None,,,,,,160,0,159,734.1712661000001,,,,,,,,,,,,,,,,,,,,,,,,,,,,,,734.1553379000015,734.1712661000001,734.6558007000003,,,,,,,,,,,,,,734.6906377000014,,,,,,,,,,,,,734.6879029000011,734.6906377000014,734.6906377000014,734.6906377000014,737.6716053,j,2.4460703000004287,0.15223390000028303,737.6717871000001,737.6718516000001,None,,,,,,,,,,,,,,00055,001,2026-01-18_18h37.48.341,MST_task,2024.2.0,60.02880181938554,2026-01-18 18h37.57.451793 +0530,
,Objects\084a.jpg,160,0,161,,,,,,,j,2.002436000000671,0.16725269999915326,None,,,,,,161,0,160,737.6879881000004,,,,,,,,,,,,,,,,,,,,,,,,,,,,,,737.6721397000001,737.6879881000004,738.1721665000005,,,,,,,,,,,,,,738.2063879000016,,,,,,,,,,,,,738.2029779000004,738.2063879000016,738.2063879000016,738.2063879000016,741.1881097000005,j,2.002436000000671,0.16725269999915326,741.188278900001,741.1883598000004,None,,,,,,,,,,,,,,00055,001,2026-01-18_18h37.48.341,MST_task,2024.2.0,60.02880181938554,2026-01-18 18h37.57.451793 +0530,
,Scenes\158a.jpg,161,0,162,,,,,,,j,0.5426736999997956,0.18407370000022638,None,,,,,,162,0,161,741.2044815999998,,,,,,,,,,,,,,,,,,,,,,,,,,,,,,741.1887308000005,741.2044815999998,741.6890754000015,,,,,,,,,,,,,,741.7617416000012,,,,,,,,,,,,,741.7585261000004,741.7617416000012,741.7617416000012,741.7617416000012,744.7050357000007,j,0.5426736999997956,0.18407370000022638,744.7096777000006,744.7096996,None,,,,,,,,,,,,,,00055,001,2026-01-18_18h37.48.341,MST_task,2024.2.0,60.02880181938554,2026-01-18 18h37.57.451793 +0530,
,Scenes\100a.jpg,162,0,163,,,,,,,j,1.706463700000313,0.14411699999982375,None,,,,,,163,0,162,744.7211740000002,,,,,,,,,,,,,,,,,,,,,,,,,,,,,,744.7097812000011,744.7211740000002,745.2054179000006,,,,,,,,,,,,,,745.2935668000009,,,,,,,,,,,,,745.290343300001,745.2935668000009,745.2935668000009,745.2935668000009,748.2216110999998,j,1.706463700000313,0.14411699999982375,748.2217977,748.2218614000012,None,,,,,,,,,,,,,,00055,001,2026-01-18_18h37.48.341,MST_task,2024.2.0,60.02880181938554,2026-01-18 18h37.57.451793 +0530,
,Scenes\004a.jpg,163,0,164,,,,,,,f,1.0871883999989223,0.1520899000006466,None,,,,,,164,0,163,748.2377563000009,,,,,,,,,,,,,,,,,,,,,,,,,,,,,,748.2221914000002,748.2377563000009,748.7224632000016,,,,,,,,,,,,,,748.7935633000016,,,,,,,,,,,,,748.7902994000015,748.7935633000016,748.7935633000016,748.7935633000016,751.7381174000002,f,1.0871883999989223,0.1520899000006466,751.7382976000008,751.7383622000016,None,,,,,,,,,,,,,,00055,001,2026-01-18_18h37.48.341,MST_task,2024.2.0,60.02880181938554,2026-01-18 18h37.57.451793 +0530,
,Scenes\121a.jpg,164,0,165,,,,,,,j,0.48072940000020026,0.1756344999994326,None,,,,,,165,0,164,751.7543862000002,,,,,,,,,,,,,,,,,,,,,,,,,,,,,,751.7388185,751.7543862000002,752.2389326000011,,,,,,,,,,,,,,752.3117739999998,,,,,,,,,,,,,752.3085226000003,752.3117739999998,752.3117739999998,752.3117739999998,755.2551104000013,j,0.48072940000020026,0.1756344999994326,755.2552641000002,755.2553003000012,None,,,,,,,,,,,,,,00055,001,2026-01-18_18h37.48.341,MST_task,2024.2.0,60.02880181938554,2026-01-18 18h37.57.451793 +0530,
,Scenes\089a.jpg,165,0,166,,,,,,,j,1.5603030000002036,0.14538100000027043,None,,,,,,166,0,165,755.2710693000008,,,,,,,,,,,,,,,,,,,,,,,,,,,,,,755.2555568000007,755.2710693000008,755.7554751000007,,,,,,,,,,,,,,755.8398589000008,,,,,,,,,,,,,755.8363724999999,755.8398589000008,755.8398589000008,755.8398589000008,758.7716226000011,j,1.5603030000002036,0.14538100000027043,758.7717466000013,758.7717917000009,None,,,,,,,,,,,,,,00055,001,2026-01-18_18h37.48.341,MST_task,2024.2.0,60.02880181938554,2026-01-18 18h37.57.451793 +0530,
,Scenes\040a.jpg,166,0,167,,,,,,,f,0.9338903999996546,0.599988800000574,None,,,,,,167,0,166,758.7879130000001,,,,,,,,,,,,,,,,,,,,,,,,,,,,,,758.7720196000009,758.7879130000001,759.2722633000012,,,,,,,,,,,,,,759.3476205000006,,,,,,,,,,,,,759.3443846000009,759.3476205000006,759.3476205000006,759.3476205000006,762.273287,f,0.9338903999996546,0.599988800000574,762.2734410000012,762.2734865000002,None,,,,,,,,,,,,,,00055,001,2026-01-18_18h37.48.341,MST_task,2024.2.0,60.02880181938554,2026-01-18 18h37.57.451793 +0530,
,Scenes\125a.jpg,167,0,168,,,,,,,None,,,j,1.403653100000156,None,,,,168,0,167,762.2876332000014,,,,,,,,,,,,,,,,,,,,,,,,,,,,,,762.2737972000014,762.2876332000014,762.7721677000009,,,,,,,,,,,,,,762.8413692000013,,,,,,,,,,,,,762.8384125000011,762.8413692000013,762.8413692000013,762.8413692000013,765.7882318000011,None,,,765.7883736000003,767.2228793000013,j,765.8044047000003,765.8044047000003,1.403653100000156,None,,,,,,,,,,00055,001,2026-01-18_18h37.48.341,MST_task,2024.2.0,60.02880181938554,2026-01-18 18h37.57.451793 +0530,
,Objects\127a.jpg,168,0,169,,,,,,,f,1.6493528999999398,0.1044755000002624,None,,,,,,169,0,168,767.2377434999999,,,,,,,,,,,,,,,,,,,,,,,,,,,,,,767.2232928000012,767.2377434999999,767.7221958000009,,,,,,,,,,,,,,767.7588083999999,,,,,,,,,,,,,767.7554932000003,767.7588083999999,767.7588083999999,767.7588083999999,770.7382507000002,f,1.6493528999999398,0.1044755000002624,770.7437143000006,770.7437642000004,None,,,,,,,,,,,,,,00055,001,2026-01-18_18h37.48.341,MST_task,2024.2.0,60.02880181938554,2026-01-18 18h37.57.451793 +0530,
,Objects\057a.jpg,169,0,170,,,,,,,f,0.9221612000001187,0.12814520000029006,None,,,,,,170,0,169,770.754449600001,,,,,,,,,,,,,,,,,,,,,,,,,,,,,,770.7439763000002,770.754449600001,771.2391815999999,,,,,,,,,,,,,,771.2702365000005,,,,,,,,,,,,,771.2673079000015,771.2702365000005,771.2702365000005,771.2702365000005,774.2549018000009,f,0.9221612000001187,0.12814520000029006,774.2550787,774.2551443000011,None,,,,,,,,,,,,,,00055,001,2026-01-18_18h37.48.341,MST_task,2024.2.0,60.02880181938554,2026-01-18 18h37.57.451793 +0530,
,Objects\009a.jpg,170,0,171,,,,,,,f,1.907563000000664,0.12090339999849675,None,,,,,,171,0,170,774.2709971000004,,,,,,,,,,,,,,,,,,,,,,,,,,,,,,774.2554670999998,774.2709971000004,774.7555072000014,,,,,,,,,,,,,,774.7965353,,,,,,,,,,,,,774.7931896999999,774.7965353,774.7965353,774.7965353,777.7555219000005,f,1.907563000000664,0.12090339999849675,777.7556330000007,777.755671500001,None,,,,,,,,,,,,,,00055,001,2026-01-18_18h37.48.341,MST_task,2024.2.0,60.02880181938554,2026-01-18 18h37.57.451793 +0530,
,Objects\132a.jpg,171,0,172,,,,,,,f,2.020974400000341,0.11194740000064485,None,,,,,,172,0,171,777.7712186000008,,,,,,,,,,,,,,,,,,,,,,,,,,,,,,777.7558657999998,777.7712186000008,778.2561304999999,,,,,,,,,,,,,,778.2918712999999,,,,,,,,,,,,,778.2891577999999,778.2918712999999,778.2918712999999,778.2918712999999,781.271471,f,2.020974400000341,0.11194740000064485,781.2716406,781.2716846000003,None,,,,,,,,,,,,,,00055,001,2026-01-18_18h37.48.341,MST_task,2024.2.0,60.02880181938554,2026-01-18 18h37.57.451793 +0530,
,Objects\013a.jpg,172,0,173,,,,,,,None,,,j,0.14068140000017593,None,,,,173,0,172,781.2877752000004,,,,,,,,,,,,,,,,,,,,,,,,,,,,,,781.2719945000008,781.2877752000004,781.7725301999999,,,,,,,,,,,,,,781.8169771000012,,,,,,,,,,,,,781.8137794000013,781.8169771000012,781.8169771000012,781.8169771000012,784.7881828000009,None,,,784.7883019000001,784.9569520000005,j,784.8043779,784.8043779,0.14068140000017593,None,,,,,,,,,,00055,001,2026-01-18_18h37.48.341,MST_task,2024.2.0,60.02880181938554,2026-01-18 18h37.57.451793 +0530,
,Objects\067a.jpg,173,0,174,,,,,,,f,1.3901863000010053,0.16807169999992766,None,,,,,,174,0,173,784.9713335000015,,,,,,,,,,,,,,,,,,,,,,,,,,,,,,784.957309200001,784.9713335000015,785.4558105000015,,,,,,,,,,,,,,785.4824327000006,,,,,,,,,,,,,785.4786552000005,785.4824327000006,785.4824327000006,785.4824327000006,788.4713433000015,f,1.3901863000010053,0.16807169999992766,788.4715188999999,788.4715847000007,None,,,,,,,,,,,,,,00055,001,2026-01-18_18h37.48.341,MST_task,2024.2.0,60.02880181938554,2026-01-18 18h37.57.451793 +0530,
