thisN,thisTrialN,thisRepN,key_resp_3.keys,key_resp_3.rt,key_resp_3.duration,trials.thisRepN,trials.thisTrialN,trials.thisN,thisRow.t,notes,intro_page.started,text.started,key_resp.started,intro_page.stopped,key_resp.keys,key_resp.rt,key_resp.duration,instructions.started,text_2.started,key_resp_2.started,instructions.stopped,key_resp_2.keys,key_resp_2.rt,key_resp_2.duration,demo1.started,image_1.started,image_2.started,text_7.started,key_resp_6.started,text_9.started,demo1.stopped,key_resp_6.keys,key_resp_6.rt,key_resp_6.duration,demo2.started,image_5.started,image_6.started,text_11.started,text_12.started,key_resp_8.started,demo2.stopped,key_resp_8.keys,key_resp_8.rt,key_resp_8.duration,demo_conclusion.started,text_13.started,key_resp_9.started,demo_conclusion.stopped,key_resp_9.keys,key_resp_9.rt,key_resp_9.duration,start_test.started,text_6.started,key_resp_5.started,start_test.stopped,key_resp_5.keys,key_resp_5.rt,key_resp_5.duration,ISI.started,text_4.started,text_4.stopped,ISI.stopped,routine_1.started,image.started,text_3.started,key_resp_3.started,routine_1.stopped,image_path,position_of_stimuli,trials.key_resp_3.keys,trials.key_resp_3.rt,trials.key_resp_3.duration,End_page.started,text_5.started,key_resp_4.started,End_page.stopped,key_resp_4.keys,key_resp_4.rt,key_resp_4.duration,participant,session,date,expName,psychopyVersion,frameRate,expStart,
,,,,,,,,,,,0.0013233000063337386,0.0028603000100702047,0.0028603000100702047,3.5468169000232592,space,3.5278170999954455,None,,,,,,,,,,,,,,,,,,,,,,,,,,,,,,,,,,,,,,,,,,,,,,,,,,,,,,,,,,,,,,,00051,001,2026-01-18_16h25.44.190,MST_test,2024.2.0,60.01057386678229,2026-01-18 16h25.57.080770 +0530,
,,,,,,,,,,,,,,,,,,3.5468501000432298,3.5615731000434607,3.5615731000434607,22.945517600048333,space,19.376729500014335,None,,,,,,,,,,,,,,,,,,,,,,,,,,,,,,,,,,,,,,,,,,,,,,,,,,,,,,,,00051,001,2026-01-18_16h25.44.190,MST_test,2024.2.0,60.01057386678229,2026-01-18 16h25.57.080770 +0530,
,,,,,,,,,,,,,,,,,,,,,,,,,22.94554570002947,22.962435900000855,22.962435900000855,22.962435900000855,22.962435900000855,22.962435900000855,30.579027400002815,space,7.601157600001898,None,,,,,,,,,,,,,,,,,,,,,,,,,,,,,,,,,,,,,,,,,,,,,,00051,001,2026-01-18_16h25.44.190,MST_test,2024.2.0,60.01057386678229,2026-01-18 16h25.57.080770 +0530,
,,,,,,,,,,,,,,,,,,,,,,,,,,,,,,,,,,,30.57906080002431,30.595284500042908,30.595284500042908,30.595284500042908,30.595284500042908,30.595284500042908,113.04568270000163,space,82.44704380002804,None,,,,,,,,,,,,,,,,,,,,,,,,,,,,,,,,,,,,00051,001,2026-01-18_16h25.44.190,MST_test,2024.2.0,60.01057386678229,2026-01-18 16h25.57.080770 +0530,
,,,,,,,,,,,,,,,,,,,,,,,,,,,,,,,,,,,,,,,,,,,,,113.0457167000277,113.06157960003475,113.06157960003475,137.69552550005028,space,24.620272700034548,None,,,,,,,,,,,,,,,,,,,,,,,,,,,,,00051,001,2026-01-18_16h25.44.190,MST_test,2024.2.0,60.01057386678229,2026-01-18 16h25.57.080770 +0530,
,,,,,,,,,,,,,,,,,,,,,,,,,,,,,,,,,,,,,,,,,,,,,,,,,,,,137.69555550004588,137.71173730003648,137.71173730003648,162.0787009000196,space,24.354364500031807,None,,,,,,,,,,,,,,,,,,,,,,00051,001,2026-01-18_16h25.44.190,MST_test,2024.2.0,60.01057386678229,2026-01-18 16h25.57.080770 +0530,
0,0,1,o,7.23174169997219,None,1,0,0,162.09505260002334,,,,,,,,,,,,,,,,,,,,,,,,,,,,,,,,,,,,,,,,,,,,,,,,,,162.08280210004887,162.09505260002334,162.59508330002427,162.5786161000142,162.5886584999971,162.59508330002427,162.59508330002427,162.59508330002427,169.82919260003837,Objects\049a.jpg,mid,o,7.23174169997219,None,,,,,,,,00051,001,2026-01-18_16h25.44.190,MST_test,2024.2.0,60.01057386678229,2026-01-18 16h25.57.080770 +0530,
1,0,2,s,4.654117800004315,None,2,0,1,169.8450408000499,,,,,,,,,,,,,,,,,,,,,,,,,,,,,,,,,,,,,,,,,,,,,,,,,,169.8293040000135,169.8450408000499,170.34762680000858,170.3285372000537,170.34548670001095,170.34762680000858,170.34762680000858,170.34762680000858,175.01223020005273,Scenes\017b.jpg,pre,s,4.654117800004315,None,,,,,,,,00051,001,2026-01-18_16h25.44.190,MST_test,2024.2.0,60.01057386678229,2026-01-18 16h25.57.080770 +0530,
2,0,3,s,4.37819469999522,None,3,0,2,175.0283872000291,,,,,,,,,,,,,,,,,,,,,,,,,,,,,,,,,,,,,,,,,,,,,,,,,,175.01232120004715,175.0283872000291,175.52871949999826,175.5120057000313,175.5192050000187,175.52871949999826,175.52871949999826,175.52871949999826,179.9124949000543,Scenes\080a.jpg,pre,s,4.37819469999522,None,,,,,,,,00051,001,2026-01-18_16h25.44.190,MST_test,2024.2.0,60.01057386678229,2026-01-18 16h25.57.080770 +0530,
3,0,4,s,5.421923200017773,None,4,0,3,179.9284076000331,,,,,,,,,,,,,,,,,,,,,,,,,,,,,,,,,,,,,,,,,,,,,,,,,,179.91260340000736,179.9284076000331,180.4285276000155,180.4118843000033,180.42441320000216,180.4285276000155,180.4285276000155,180.4285276000155,185.86221980000846,Objects\137b.jpg,mid,s,5.421923200017773,None,,,,,,,,00051,001,2026-01-18_16h25.44.190,MST_test,2024.2.0,60.01057386678229,2026-01-18 16h25.57.080770 +0530,
4,0,5,o,2.1271683999802917,None,5,0,4,185.87836470000912,,,,,,,,,,,,,,,,,,,,,,,,,,,,,,,,,,,,,,,,,,,,,,,,,,185.8623123000143,185.87836470000912,186.37857970001642,186.3619672000059,186.37209150003036,186.37857970001642,186.37857970001642,186.37857970001642,188.51224560005357,Objects\073b.jpg,mid,o,2.1271683999802917,None,,,,,,,,00051,001,2026-01-18_16h25.44.190,MST_test,2024.2.0,60.01057386678229,2026-01-18 16h25.57.080770 +0530,
5,0,6,s,2.0852570999995805,None,6,0,5,188.52839230000973,,,,,,,,,,,,,,,,,,,,,,,,,,,,,,,,,,,,,,,,,,,,,,,,,,188.51234270003624,188.52839230000973,189.02865740004927,189.0120087999967,189.02200009999797,189.02865740004927,189.02865740004927,189.02865740004927,191.1290253000334,Objects\098b.jpg,post,s,2.0852570999995805,None,,,,,,,,00051,001,2026-01-18_16h25.44.190,MST_test,2024.2.0,60.01057386678229,2026-01-18 16h25.57.080770 +0530,
6,0,7,s,2.108942400023807,None,7,0,6,191.14501440001186,,,,,,,,,,,,,,,,,,,,,,,,,,,,,,,,,,,,,,,,,,,,,,,,,,191.12911630002782,191.14501440001186,191.64548730000388,191.62852920003934,191.63987760001328,191.64548730000388,191.64548730000388,191.64548730000388,193.76239520002855,Scenes\171a.jpg,post,s,2.108942400023807,None,,,,,,,,00051,001,2026-01-18_16h25.44.190,MST_test,2024.2.0,60.01057386678229,2026-01-18 16h25.57.080770 +0530,
7,0,8,o,2.155352799978573,None,8,0,7,193.77831750002224,,,,,,,,,,,,,,,,,,,,,,,,,,,,,,,,,,,,,,,,,,,,,,,,,,193.76249370002188,193.77831750002224,194.27922190004028,194.26201310002944,194.27312399999937,194.27922190004028,194.27922190004028,194.27922190004028,196.44567300000926,Scenes\094a.jpg,post,o,2.155352799978573,None,,,,,,,,00051,001,2026-01-18_16h25.44.190,MST_test,2024.2.0,60.01057386678229,2026-01-18 16h25.57.080770 +0530,
8,0,9,o,2.51957390003372,None,9,0,8,196.46170020004502,,,,,,,,,,,,,,,,,,,,,,,,,,,,,,,,,,,,,,,,,,,,,,,,,,196.44576480000978,196.46170020004502,196.9622702000197,196.9453138000099,196.95572560001165,196.9622702000197,196.9622702000197,196.9622702000197,199.49564870004542,Objects\085b.jpg,pre,o,2.51957390003372,None,,,,,,,,00051,001,2026-01-18_16h25.44.190,MST_test,2024.2.0,60.01057386678229,2026-01-18 16h25.57.080770 +0530,
9,0,10,n,2.1110783999902196,None,10,0,9,199.51165090000723,,,,,,,,,,,,,,,,,,,,,,,,,,,,,,,,,,,,,,,,,,,,,,,,,,199.49574100004975,199.51165090000723,200.01179050002247,199.99523070000578,200.00414860004093,200.01179050002247,200.01179050002247,200.01179050002247,202.12901810003677,Foils\010a.jpg,none,n,2.1110783999902196,None,,,,,,,,00051,001,2026-01-18_16h25.44.190,MST_test,2024.2.0,60.01057386678229,2026-01-18 16h25.57.080770 +0530,
10,0,11,s,2.2037137000006624,None,11,0,10,202.14496060000965,,,,,,,,,,,,,,,,,,,,,,,,,,,,,,,,,,,,,,,,,,,,,,,,,,202.12911570002325,202.14496060000965,202.64610030001495,202.62857960001566,202.64393910003128,202.64610030001495,202.64610030001495,202.64610030001495,204.86226230004104,Scenes\038b.jpg,mid,s,2.2037137000006624,None,,,,,,,,00051,001,2026-01-18_16h25.44.190,MST_test,2024.2.0,60.01057386678229,2026-01-18 16h25.57.080770 +0530,
11,0,12,o,3.9386874999618158,None,12,0,11,204.8782359000179,,,,,,,,,,,,,,,,,,,,,,,,,,,,,,,,,,,,,,,,,,,,,,,,,,204.86235720000695,204.8782359000179,205.38385189999826,205.36188070004573,205.38153510005213,205.38385189999826,205.38385189999826,205.38385189999826,209.32878540002275,Scenes\020b.jpg,post,o,3.9386874999618158,None,,,,,,,,00051,001,2026-01-18_16h25.44.190,MST_test,2024.2.0,60.01057386678229,2026-01-18 16h25.57.080770 +0530,
12,0,13,o,1.6858763999771327,None,13,0,12,209.34496180003043,,,,,,,,,,,,,,,,,,,,,,,,,,,,,,,,,,,,,,,,,,,,,,,,,,209.32887770002708,209.34496180003043,209.84564850002062,209.82830260001356,209.83860010001808,209.84564850002062,209.84564850002062,209.84564850002062,211.54553940001642,Scenes\010a.jpg,mid,o,1.6858763999771327,None,,,,,,,,00051,001,2026-01-18_16h25.44.190,MST_test,2024.2.0,60.01057386678229,2026-01-18 16h25.57.080770 +0530,
13,0,14,o,2.667736000032164,None,14,0,13,211.56159930001013,,,,,,,,,,,,,,,,,,,,,,,,,,,,,,,,,,,,,,,,,,,,,,,,,,211.54563250002684,211.56159930001013,212.0621036000084,212.0453281000373,212.04819110000972,212.0621036000084,212.0621036000084,212.0621036000084,214.74545330001274,Objects\077a.jpg,mid,o,2.667736000032164,None,,,,,,,,00051,001,2026-01-18_16h25.44.190,MST_test,2024.2.0,60.01057386678229,2026-01-18 16h25.57.080770 +0530,
14,0,15,n,2.155892300012056,None,15,0,14,214.76162669999758,,,,,,,,,,,,,,,,,,,,,,,,,,,,,,,,,,,,,,,,,,,,,,,,,,214.74554540001554,214.76162669999758,215.26212270004908,215.24519580003107,215.2531089000404,215.26212270004908,215.26212270004908,215.26212270004908,217.4287139000371,Scenes\126a.jpg,post,n,2.155892300012056,None,,,,,,,,00051,001,2026-01-18_16h25.44.190,MST_test,2024.2.0,60.01057386678229,2026-01-18 16h25.57.080770 +0530,
15,0,16,n,1.6251888000406325,None,16,0,15,217.44492410001112,,,,,,,,,,,,,,,,,,,,,,,,,,,,,,,,,,,,,,,,,,,,,,,,,,217.42880930000683,217.44492410001112,217.94541360001313,217.9283975000144,217.93143990001408,217.94541360001313,217.94541360001313,217.94541360001313,219.57891910005128,Foils\scenes14.jpg,none,n,1.6251888000406325,None,,,,,,,,00051,001,2026-01-18_16h25.44.190,MST_test,2024.2.0,60.01057386678229,2026-01-18 16h25.57.080770 +0530,
16,0,17,s,2.307017499988433,None,17,0,16,219.59496130002663,,,,,,,,,,,,,,,,,,,,,,,,,,,,,,,,,,,,,,,,,,,,,,,,,,219.5790119000012,219.59496130002663,220.09534540004097,220.07845090003684,220.09314840001753,220.09534540004097,220.09534540004097,220.09534540004097,222.41219300002558,Scenes\074b.jpg,mid,s,2.307017499988433,None,,,,,,,,00051,001,2026-01-18_16h25.44.190,MST_test,2024.2.0,60.01057386678229,2026-01-18 16h25.57.080770 +0530,
17,0,18,s,1.385015400010161,None,18,0,17,222.42813680000836,,,,,,,,,,,,,,,,,,,,,,,,,,,,,,,,,,,,,,,,,,,,,,,,,,222.41229680000106,222.42813680000836,222.92886620003264,222.91194030002225,222.92273160000332,222.92886620003264,222.92886620003264,222.92886620003264,224.32896090002032,Objects\069b.jpg,post,s,1.385015400010161,None,,,,,,,,00051,001,2026-01-18_16h25.44.190,MST_test,2024.2.0,60.01057386678229,2026-01-18 16h25.57.080770 +0530,
18,0,19,s,1.3872318000067025,None,19,0,18,224.34500290005235,,,,,,,,,,,,,,,,,,,,,,,,,,,,,,,,,,,,,,,,,,,,,,,,,,224.32906130002812,224.34500290005235,224.84691720001865,224.8283868000144,224.84486760001164,224.84691720001865,224.84691720001865,224.84691720001865,226.24578290001955,Scenes\178b.jpg,pre,s,1.3872318000067025,None,,,,,,,,00051,001,2026-01-18_16h25.44.190,MST_test,2024.2.0,60.01057386678229,2026-01-18 16h25.57.080770 +0530,
19,0,20,s,1.8887291999999434,None,20,0,19,226.26162980002118,,,,,,,,,,,,,,,,,,,,,,,,,,,,,,,,,,,,,,,,,,,,,,,,,,226.24588220001897,226.26162980002118,226.76207560003968,226.74530010001035,226.748321400024,226.76207560003968,226.76207560003968,226.76207560003968,228.6623226000229,Objects\018a.jpg,pre,s,1.8887291999999434,None,,,,,,,,00051,001,2026-01-18_16h25.44.190,MST_test,2024.2.0,60.01057386678229,2026-01-18 16h25.57.080770 +0530,
20,0,21,n,1.8079744999995455,None,21,0,20,228.67820330004906,,,,,,,,,,,,,,,,,,,,,,,,,,,,,,,,,,,,,,,,,,,,,,,,,,228.66242150001926,228.67820330004906,229.17835630004993,229.16187619999982,229.17120760004036,229.17835630004993,229.17835630004993,229.17835630004993,230.99575620004907,Foils\113a.jpg,none,n,1.8079744999995455,None,,,,,,,,00051,001,2026-01-18_16h25.44.190,MST_test,2024.2.0,60.01057386678229,2026-01-18 16h25.57.080770 +0530,
21,0,22,o,2.962006299989298,None,22,0,21,231.01160460000392,,,,,,,,,,,,,,,,,,,,,,,,,,,,,,,,,,,,,,,,,,,,,,,,,,230.9958524000249,231.01160460000392,231.51183710002806,231.4952865000232,231.49763520003762,231.51183710002806,231.51183710002806,231.51183710002806,234.48007849999703,Objects\067a.jpg,post,o,2.962006299989298,None,,,,,,,,00051,001,2026-01-18_16h25.44.190,MST_test,2024.2.0,60.01057386678229,2026-01-18 16h25.57.080770 +0530,
22,0,23,s,1.52714510000078,None,23,0,22,234.49497560004238,,,,,,,,,,,,,,,,,,,,,,,,,,,,,,,,,,,,,,,,,,,,,,,,,,234.48016900004586,234.49497560004238,234.99541920004413,234.97843090002425,234.9856350000482,234.99541920004413,234.99541920004413,234.99541920004413,236.52878940000664,Scenes\116a.jpg,post,s,1.52714510000078,None,,,,,,,,00051,001,2026-01-18_16h25.44.190,MST_test,2024.2.0,60.01057386678229,2026-01-18 16h25.57.080770 +0530,
23,0,24,n,2.1175035999622196,None,24,0,23,236.5449731000117,,,,,,,,,,,,,,,,,,,,,,,,,,,,,,,,,,,,,,,,,,,,,,,,,,236.52888490003534,236.5449731000117,237.04530470003374,237.028546800022,237.0424024000531,237.04530470003374,237.04530470003374,237.04530470003374,239.1789346000296,Scenes\160b.jpg,pre,n,2.1175035999622196,None,,,,,,,,00051,001,2026-01-18_16h25.44.190,MST_test,2024.2.0,60.01057386678229,2026-01-18 16h25.57.080770 +0530,
24,0,25,n,1.3063941999571398,None,25,0,24,239.19492290000198,,,,,,,,,,,,,,,,,,,,,,,,,,,,,,,,,,,,,,,,,,,,,,,,,,239.17902630002936,239.19492290000198,239.69542570004705,239.67846900003497,239.6883480999968,239.69542570004705,239.69542570004705,239.69542570004705,241.0121687000501,Foils\121a.jpg,none,n,1.3063941999571398,None,,,,,,,,00051,001,2026-01-18_16h25.44.190,MST_test,2024.2.0,60.01057386678229,2026-01-18 16h25.57.080770 +0530,
25,0,26,o,1.433665500022471,None,26,0,25,241.02816660003737,,,,,,,,,,,,,,,,,,,,,,,,,,,,,,,,,,,,,,,,,,,,,,,,,,241.01226320001297,241.02816660003737,241.5285047000507,241.51195050001843,241.5144817000255,241.5285047000507,241.5285047000507,241.5285047000507,242.9628653000109,Objects\100a.jpg,mid,o,1.433665500022471,None,,,,,,,,00051,001,2026-01-18_16h25.44.190,MST_test,2024.2.0,60.01057386678229,2026-01-18 16h25.57.080770 +0530,
26,0,27,n,6.067646700015757,None,27,0,26,242.97830080002313,,,,,,,,,,,,,,,,,,,,,,,,,,,,,,,,,,,,,,,,,,,,,,,,,,242.96296770003391,242.97830080002313,243.47846450004727,243.46198439999716,243.47364790004212,243.47846450004727,243.47846450004727,243.47846450004727,249.56232910003746,Objects\055b.jpg,mid,n,6.067646700015757,None,,,,,,,,00051,001,2026-01-18_16h25.44.190,MST_test,2024.2.0,60.01057386678229,2026-01-18 16h25.57.080770 +0530,
27,0,28,n,4.3953544000396505,None,28,0,27,249.57839239999885,,,,,,,,,,,,,,,,,,,,,,,,,,,,,,,,,,,,,,,,,,,,,,,,,,249.56243520003045,249.57839239999885,250.07860510004684,250.06180930003757,250.07373679999728,250.07860510004684,250.07860510004684,250.07860510004684,254.480251400033,Scenes\139b.jpg,mid,n,4.3953544000396505,None,,,,,,,,00051,001,2026-01-18_16h25.44.190,MST_test,2024.2.0,60.01057386678229,2026-01-18 16h25.57.080770 +0530,
28,0,29,n,1.0785782000166364,None,29,0,28,254.4949779000017,,,,,,,,,,,,,,,,,,,,,,,,,,,,,,,,,,,,,,,,,,,,,,,,,,254.48034290003125,254.4949779000017,254.99547630001325,254.97849940002197,254.9881408000365,254.99547630001325,254.99547630001325,254.99547630001325,256.078627400042,Foils\049a.jpg,none,n,1.0785782000166364,None,,,,,,,,00051,001,2026-01-18_16h25.44.190,MST_test,2024.2.0,60.01057386678229,2026-01-18 16h25.57.080770 +0530,
29,0,30,s,3.5911239000270143,None,30,0,29,256.09498250001343,,,,,,,,,,,,,,,,,,,,,,,,,,,,,,,,,,,,,,,,,,,,,,,,,,256.0787204000517,256.09498250001343,256.59530120005365,256.57842170004733,256.5876182000502,256.59530120005365,256.59530120005365,256.59530120005365,260.19563450000715,Objects\047b.jpg,pre,s,3.5911239000270143,None,,,,,,,,00051,001,2026-01-18_16h25.44.190,MST_test,2024.2.0,60.01057386678229,2026-01-18 16h25.57.080770 +0530,
30,0,31,n,4.106466199969873,None,31,0,30,260.21169050002936,,,,,,,,,,,,,,,,,,,,,,,,,,,,,,,,,,,,,,,,,,,,,,,,,,260.19573000003584,260.21169050002936,260.7119959000265,260.6953429999994,260.7051922000246,260.7119959000265,260.7119959000265,260.7119959000265,264.82898280001245,Objects\059b.jpg,pre,n,4.106466199969873,None,,,,,,,,00051,001,2026-01-18_16h25.44.190,MST_test,2024.2.0,60.01057386678229,2026-01-18 16h25.57.080770 +0530,
31,0,32,o,1.4811091999872588,None,32,0,31,264.8450364000164,,,,,,,,,,,,,,,,,,,,,,,,,,,,,,,,,,,,,,,,,,,,,,,,,,264.829075000016,264.8450364000164,265.34545600001,265.3288971000002,265.3331839000457,265.34545600001,265.34545600001,265.34545600001,266.8290041,Scenes\066a.jpg,pre,o,1.4811091999872588,None,,,,,,,,00051,001,2026-01-18_16h25.44.190,MST_test,2024.2.0,60.01057386678229,2026-01-18 16h25.57.080770 +0530,
32,0,33,o,1.1682628999697044,None,33,0,32,266.8450972000137,,,,,,,,,,,,,,,,,,,,,,,,,,,,,,,,,,,,,,,,,,,,,,,,,,266.8290957999998,266.8450972000137,267.3454258000129,267.3286223000032,267.33178770000814,267.3454258000129,267.3454258000129,267.3454258000129,268.5294637000188,Objects\001a.jpg,mid,o,1.1682628999697044,None,,,,,,,,00051,001,2026-01-18_16h25.44.190,MST_test,2024.2.0,60.01057386678229,2026-01-18 16h25.57.080770 +0530,
33,0,34,s,3.628354999993462,None,34,0,33,268.5451263000141,,,,,,,,,,,,,,,,,,,,,,,,,,,,,,,,,,,,,,,,,,,,,,,,,,268.52959530003136,268.5451263000141,269.04542290000245,269.0286518000066,269.037779700011,269.04542290000245,269.04542290000245,269.04542290000245,272.67902320000576,Objects\056b.jpg,post,s,3.628354999993462,None,,,,,,,,00051,001,2026-01-18_16h25.44.190,MST_test,2024.2.0,60.01057386678229,2026-01-18 16h25.57.080770 +0530,
34,0,35,s,1.2542214000131935,None,35,0,34,272.6950044000405,,,,,,,,,,,,,,,,,,,,,,,,,,,,,,,,,,,,,,,,,,,,,,,,,,272.67911690002074,272.6950044000405,273.1955782000441,273.17866770003457,273.19265680003446,273.1955782000441,273.1955782000441,273.1955782000441,274.4626213000156,Scenes\185b.jpg,mid,s,1.2542214000131935,None,,,,,,,,00051,001,2026-01-18_16h25.44.190,MST_test,2024.2.0,60.01057386678229,2026-01-18 16h25.57.080770 +0530,
35,0,36,n,6.294602999987546,None,36,0,35,274.47951160004595,,,,,,,,,,,,,,,,,,,,,,,,,,,,,,,,,,,,,,,,,,,,,,,,,,274.4627126000123,274.47951160004595,,274.97836410003947,274.9872976000188,274.9956309000263,274.9956309000263,274.9956309000263,281.29569670005003,Foils\scenes18.jpg,none,n,6.294602999987546,None,,,,,,,,00051,001,2026-01-18_16h25.44.190,MST_test,2024.2.0,60.01057386678229,2026-01-18 16h25.57.080770 +0530,
36,0,37,o,1.8456925999489613,None,37,0,36,281.3117676000111,,,,,,,,,,,,,,,,,,,,,,,,,,,,,,,,,,,,,,,,,,,,,,,,,,281.29578820004826,281.3117676000111,281.81211570004234,281.7952494000201,281.8043385000201,281.81211570004234,281.81211570004234,281.81211570004234,283.6623531000223,Scenes\040a.jpg,mid,o,1.8456925999489613,None,,,,,,,,00051,001,2026-01-18_16h25.44.190,MST_test,2024.2.0,60.01057386678229,2026-01-18 16h25.57.080770 +0530,
37,0,38,s,1.7026214000070468,None,38,0,37,283.67841340001905,,,,,,,,,,,,,,,,,,,,,,,,,,,,,,,,,,,,,,,,,,,,,,,,,,283.66244710003957,283.67841340001905,284.17910990002565,284.162067199999,284.1741513000452,284.17910990002565,284.17910990002565,284.17910990002565,285.89571510005044,Scenes\096b.jpg,post,s,1.7026214000070468,None,,,,,,,,00051,001,2026-01-18_16h25.44.190,MST_test,2024.2.0,60.01057386678229,2026-01-18 16h25.57.080770 +0530,
38,0,39,s,3.4863676999812014,None,39,0,38,285.911705000035,,,,,,,,,,,,,,,,,,,,,,,,,,,,,,,,,,,,,,,,,,,,,,,,,,285.8958071000525,285.911705000035,286.41232610004954,286.3953403000487,286.40560590004316,286.41232610004954,286.41232610004954,286.41232610004954,289.9122268000501,Objects\053b.jpg,mid,s,3.4863676999812014,None,,,,,,,,00051,001,2026-01-18_16h25.44.190,MST_test,2024.2.0,60.01057386678229,2026-01-18 16h25.57.080770 +0530,
39,0,40,o,1.4767700000084005,None,40,0,39,289.92841079999926,,,,,,,,,,,,,,,,,,,,,,,,,,,,,,,,,,,,,,,,,,,,,,,,,,289.91231720004,289.92841079999926,290.4291020000237,290.41203890001634,290.42337830003817,290.4291020000237,290.4291020000237,290.4291020000237,291.91275870002573,Scenes\159a.jpg,mid,o,1.4767700000084005,None,,,,,,,,00051,001,2026-01-18_16h25.44.190,MST_test,2024.2.0,60.01057386678229,2026-01-18 16h25.57.080770 +0530,
40,0,41,s,1.8943009999929927,None,41,0,40,291.9282242000336,,,,,,,,,,,,,,,,,,,,,,,,,,,,,,,,,,,,,,,,,,,,,,,,,,291.91285980003886,291.9282242000336,292.4289111000253,292.4121210000012,292.42321900004754,292.4289111000253,292.4289111000253,292.4289111000253,294.3289873000467,Objects\095b.jpg,post,s,1.8943009999929927,None,,,,,,,,00051,001,2026-01-18_16h25.44.190,MST_test,2024.2.0,60.01057386678229,2026-01-18 16h25.57.080770 +0530,
41,0,42,s,3.1087043000152335,None,42,0,41,294.3450967000099,,,,,,,,,,,,,,,,,,,,,,,,,,,,,,,,,,,,,,,,,,,,,,,,,,294.3290818000096,294.3450967000099,294.84532710001804,294.8286843000096,294.8381145000458,294.84532710001804,294.84532710001804,294.84532710001804,297.9624549000291,Objects\179b.jpg,pre,s,3.1087043000152335,None,,,,,,,,00051,001,2026-01-18_16h25.44.190,MST_test,2024.2.0,60.01057386678229,2026-01-18 16h25.57.080770 +0530,
42,0,43,n,3.6428661000099964,None,43,0,42,297.9784872000455,,,,,,,,,,,,,,,,,,,,,,,,,,,,,,,,,,,,,,,,,,,,,,,,,,297.9625486000441,297.9784872000455,298.4788359000231,298.4624127999996,298.4766632000101,298.4788359000231,298.4788359000231,298.4788359000231,302.12904740002705,Scenes\052b.jpg,mid,n,3.6428661000099964,None,,,,,,,,00051,001,2026-01-18_16h25.44.190,MST_test,2024.2.0,60.01057386678229,2026-01-18 16h25.57.080770 +0530,
43,0,44,o,3.6535943999770097,None,44,0,43,302.14504010003293,,,,,,,,,,,,,,,,,,,,,,,,,,,,,,,,,,,,,,,,,,,,,,,,,,302.12913950002985,302.14504010003293,302.6452671000152,302.62857550004264,302.63792380003724,302.6452671000152,302.6452671000152,302.6452671000152,306.3123813000275,Scenes\070a.jpg,pre,o,3.6535943999770097,None,,,,,,,,00051,001,2026-01-18_16h25.44.190,MST_test,2024.2.0,60.01057386678229,2026-01-18 16h25.57.080770 +0530,
44,0,45,s,1.5648199999704957,None,45,0,44,306.32829950004816,,,,,,,,,,,,,,,,,,,,,,,,,,,,,,,,,,,,,,,,,,,,,,,,,,306.31248070002766,306.32829950004816,306.8289175000391,306.81224220001604,306.8185795000172,306.8289175000391,306.8289175000391,306.8289175000391,308.3959584000404,Scenes\050a.jpg,post,s,1.5648199999704957,None,,,,,,,,00051,001,2026-01-18_16h25.44.190,MST_test,2024.2.0,60.01057386678229,2026-01-18 16h25.57.080770 +0530,
45,0,46,n,1.5295278000412509,None,46,0,45,308.41164639999624,,,,,,,,,,,,,,,,,,,,,,,,,,,,,,,,,,,,,,,,,,,,,,,,,,308.3960642000311,308.41164639999624,308.91224790003616,308.89534840005217,308.9016491000075,308.91224790003616,308.91224790003616,308.91224790003616,310.4455966000096,Scenes\179a.jpg,pre,n,1.5295278000412509,None,,,,,,,,00051,001,2026-01-18_16h25.44.190,MST_test,2024.2.0,60.01057386678229,2026-01-18 16h25.57.080770 +0530,
46,0,47,s,3.112187500053551,None,47,0,46,310.4617468000506,,,,,,,,,,,,,,,,,,,,,,,,,,,,,,,,,,,,,,,,,,,,,,,,,,310.44568750000326,310.4617468000506,310.96214280003915,310.94532840000466,310.95525290002115,310.96214280003915,310.96214280003915,310.96214280003915,314.079029000015,Scenes\068a.jpg,post,s,3.112187500053551,None,,,,,,,,00051,001,2026-01-18_16h25.44.190,MST_test,2024.2.0,60.01057386678229,2026-01-18 16h25.57.080770 +0530,
47,0,48,s,2.0301770999794826,None,48,0,47,314.09511049999855,,,,,,,,,,,,,,,,,,,,,,,,,,,,,,,,,,,,,,,,,,,,,,,,,,314.0791339999996,314.09511049999855,314.59561479999684,314.5786593000521,314.5890678000287,314.59561479999684,314.59561479999684,314.59561479999684,316.6290507000522,Foils\scenes4.jpg,none,s,2.0301770999794826,None,,,,,,,,00051,001,2026-01-18_16h25.44.190,MST_test,2024.2.0,60.01057386678229,2026-01-18 16h25.57.080770 +0530,
48,0,49,s,1.4727180000045337,None,49,0,48,316.6451338000479,,,,,,,,,,,,,,,,,,,,,,,,,,,,,,,,,,,,,,,,,,,,,,,,,,316.62914180004736,316.6451338000479,317.1452906000195,317.12865050003165,317.1390572000528,317.1452906000195,317.1452906000195,317.1452906000195,318.6289567000349,Foils\065a.jpg,none,s,1.4727180000045337,None,,,,,,,,00051,001,2026-01-18_16h25.44.190,MST_test,2024.2.0,60.01057386678229,2026-01-18 16h25.57.080770 +0530,
49,0,50,o,1.3849667999893427,None,50,0,49,318.6450026000384,,,,,,,,,,,,,,,,,,,,,,,,,,,,,,,,,,,,,,,,,,,,,,,,,,318.62905780004803,318.6450026000384,319.145242300001,319.1285311000538,319.13137100002496,319.145242300001,319.145242300001,319.145242300001,320.54554710001685,Objects\178a.jpg,pre,o,1.3849667999893427,None,,,,,,,,00051,001,2026-01-18_16h25.44.190,MST_test,2024.2.0,60.01057386678229,2026-01-18 16h25.57.080770 +0530,
50,0,51,n,1.5404324000119232,None,51,0,50,320.5616433999967,,,,,,,,,,,,,,,,,,,,,,,,,,,,,,,,,,,,,,,,,,,,,,,,,,320.5456386000151,320.5616433999967,321.06184970005415,321.0453242000076,321.0543395000277,321.06184970005415,321.06184970005415,321.06184970005415,322.6124526000349,Foils\042a.jpg,none,n,1.5404324000119232,None,,,,,,,,00051,001,2026-01-18_16h25.44.190,MST_test,2024.2.0,60.01057386678229,2026-01-18 16h25.57.080770 +0530,
51,0,52,s,1.3956047999672592,None,52,0,51,322.6282675000257,,,,,,,,,,,,,,,,,,,,,,,,,,,,,,,,,,,,,,,,,,,,,,,,,,322.6125633000047,322.6282675000257,323.1342300000251,323.11217560002115,323.131931800046,323.1342300000251,323.1342300000251,323.1342300000251,324.54546720004873,Scenes\114b.jpg,pre,s,1.3956047999672592,None,,,,,,,,00051,001,2026-01-18_16h25.44.190,MST_test,2024.2.0,60.01057386678229,2026-01-18 16h25.57.080770 +0530,
52,0,53,s,1.851783099991735,None,53,0,52,324.5616743999999,,,,,,,,,,,,,,,,,,,,,,,,,,,,,,,,,,,,,,,,,,,,,,,,,,324.54556110000703,324.5616743999999,325.0622094999999,325.0452437000349,325.0555912000127,325.0622094999999,325.0622094999999,325.0622094999999,326.9288404000108,Scenes\189a.jpg,pre,s,1.851783099991735,None,,,,,,,,00051,001,2026-01-18_16h25.44.190,MST_test,2024.2.0,60.01057386678229,2026-01-18 16h25.57.080770 +0530,
53,0,54,o,1.5895504000363871,None,54,0,53,326.945162900025,,,,,,,,,,,,,,,,,,,,,,,,,,,,,,,,,,,,,,,,,,,,,,,,,,326.9289427000331,326.945162900025,327.44556670001475,327.4284542000387,327.4353169000242,327.44556670001475,327.44556670001475,327.44556670001475,329.04560120002134,Scenes\073a.jpg,post,o,1.5895504000363871,None,,,,,,,,00051,001,2026-01-18_16h25.44.190,MST_test,2024.2.0,60.01057386678229,2026-01-18 16h25.57.080770 +0530,
54,0,55,s,1.464377099997364,None,55,0,54,329.06164710002486,,,,,,,,,,,,,,,,,,,,,,,,,,,,,,,,,,,,,,,,,,,,,,,,,,329.0456996000139,329.06164710002486,329.5621018000529,329.5453196000308,329.54829630005406,329.5621018000529,329.5621018000529,329.5621018000529,331.0287993000238,Objects\029a.jpg,pre,s,1.464377099997364,None,,,,,,,,00051,001,2026-01-18_16h25.44.190,MST_test,2024.2.0,60.01057386678229,2026-01-18 16h25.57.080770 +0530,
55,0,56,o,2.912389599950984,None,56,0,55,331.04499910003506,,,,,,,,,,,,,,,,,,,,,,,,,,,,,,,,,,,,,,,,,,,,,,,,,,331.02889470005175,331.04499910003506,331.54549150000094,331.52856090001296,331.537921500043,331.54549150000094,331.54549150000094,331.54549150000094,334.4623628000263,Scenes\122a.jpg,mid,o,2.912389599950984,None,,,,,,,,00051,001,2026-01-18_16h25.44.190,MST_test,2024.2.0,60.01057386678229,2026-01-18 16h25.57.080770 +0530,
56,0,57,o,1.7272308000246994,None,57,0,56,334.47949090000475,,,,,,,,,,,,,,,,,,,,,,,,,,,,,,,,,,,,,,,,,,,,,,,,,,334.4624560000375,334.47949090000475,,334.97833770001307,334.98800170002505,334.995572200045,334.995572200045,334.995572200045,336.7288921000436,Scenes\176a.jpg,pre,o,1.7272308000246994,None,,,,,,,,00051,001,2026-01-18_16h25.44.190,MST_test,2024.2.0,60.01057386678229,2026-01-18 16h25.57.080770 +0530,
57,0,58,s,4.436292200000025,None,58,0,57,336.74493820004864,,,,,,,,,,,,,,,,,,,,,,,,,,,,,,,,,,,,,,,,,,,,,,,,,,336.7289928000537,336.74493820004864,337.24543910002103,337.2285053000087,337.2370776000316,337.24543910002103,337.24543910002103,337.24543910002103,341.69602930004476,Foils\scenes3.jpg,none,s,4.436292200000025,None,,,,,,,,00051,001,2026-01-18_16h25.44.190,MST_test,2024.2.0,60.01057386678229,2026-01-18 16h25.57.080770 +0530,
58,0,59,s,1.822867699956987,None,59,0,58,341.71173370000906,,,,,,,,,,,,,,,,,,,,,,,,,,,,,,,,,,,,,,,,,,,,,,,,,,341.6961361000431,341.71173370000906,342.2119967000326,342.19525700004306,342.20542000001296,342.2119967000326,342.2119967000326,342.2119967000326,344.0455446999986,Objects\132b.jpg,mid,s,1.822867699956987,None,,,,,,,,00051,001,2026-01-18_16h25.44.190,MST_test,2024.2.0,60.01057386678229,2026-01-18 16h25.57.080770 +0530,
59,0,60,n,1.464152800035663,None,60,0,59,344.0616363000008,,,,,,,,,,,,,,,,,,,,,,,,,,,,,,,,,,,,,,,,,,,,,,,,,,344.0456525000045,344.0616363000008,344.561883700022,344.54527900001267,344.5547923000413,344.561883700022,344.561883700022,344.561883700022,346.02877900004387,Foils\090a.jpg,none,n,1.464152800035663,None,,,,,,,,00051,001,2026-01-18_16h25.44.190,MST_test,2024.2.0,60.01057386678229,2026-01-18 16h25.57.080770 +0530,
60,0,61,n,2.0485465999809094,None,61,0,60,346.0450010000495,,,,,,,,,,,,,,,,,,,,,,,,,,,,,,,,,,,,,,,,,,,,,,,,,,346.02887140004896,346.0450010000495,346.5453916999977,346.5285934000276,346.5378550000023,346.5453916999977,346.5453916999977,346.5453916999977,348.5956376999966,Foils\scenes30.jpg,none,n,2.0485465999809094,None,,,,,,,,00051,001,2026-01-18_16h25.44.190,MST_test,2024.2.0,60.01057386678229,2026-01-18 16h25.57.080770 +0530,
61,0,62,n,1.524769900017418,None,62,0,61,348.6116785000195,,,,,,,,,,,,,,,,,,,,,,,,,,,,,,,,,,,,,,,,,,,,,,,,,,348.5957370000542,348.6116785000195,349.1176185000222,349.09526650002226,349.1154476000229,349.1176185000222,349.1176185000222,349.1176185000222,350.6456536000478,Scenes\032b.jpg,post,n,1.524769900017418,None,,,,,,,,00051,001,2026-01-18_16h25.44.190,MST_test,2024.2.0,60.01057386678229,2026-01-18 16h25.57.080770 +0530,
62,0,63,s,2.8716016999678686,None,63,0,62,350.6616724000196,,,,,,,,,,,,,,,,,,,,,,,,,,,,,,,,,,,,,,,,,,,,,,,,,,350.6457467,350.6616724000196,351.1622631000355,351.1452326000435,351.15577850001864,351.1622631000355,351.1622631000355,351.1622631000355,354.04547210002784,Objects\146b.jpg,post,s,2.8716016999678686,None,,,,,,,,00051,001,2026-01-18_16h25.44.190,MST_test,2024.2.0,60.01057386678229,2026-01-18 16h25.57.080770 +0530,
63,0,64,o,1.5525909999851137,None,64,0,63,354.06166880001547,,,,,,,,,,,,,,,,,,,,,,,,,,,,,,,,,,,,,,,,,,,,,,,,,,354.04556650004815,354.06166880001547,354.5621243000496,354.54529590002494,354.55525240005227,354.5621243000496,354.5621243000496,354.5621243000496,356.1289490000345,Scenes\003a.jpg,mid,o,1.5525909999851137,None,,,,,,,,00051,001,2026-01-18_16h25.44.190,MST_test,2024.2.0,60.01057386678229,2026-01-18 16h25.57.080770 +0530,
64,0,65,o,1.076587199990172,None,65,0,64,356.1449620000203,,,,,,,,,,,,,,,,,,,,,,,,,,,,,,,,,,,,,,,,,,,,,,,,,,356.12904280005023,356.1449620000203,356.64549830002943,356.62850150000304,356.63162640004884,356.64549830002943,356.64549830002943,356.64549830002943,357.7286968000117,Objects\103a.jpg,pre,o,1.076587199990172,None,,,,,,,,00051,001,2026-01-18_16h25.44.190,MST_test,2024.2.0,60.01057386678229,2026-01-18 16h25.57.080770 +0530,
65,0,66,n,6.452116299944464,None,66,0,65,357.74501400004374,,,,,,,,,,,,,,,,,,,,,,,,,,,,,,,,,,,,,,,,,,,,,,,,,,357.7287893000175,357.74501400004374,358.24567420000676,358.228478700039,358.23829020000994,358.24567420000676,358.24567420000676,358.24567420000676,364.7123142000055,Scenes\161a.jpg,mid,n,6.452116299944464,None,,,,,,,,00051,001,2026-01-18_16h25.44.190,MST_test,2024.2.0,60.01057386678229,2026-01-18 16h25.57.080770 +0530,
66,0,67,n,2.2541935999761336,None,67,0,66,364.72827260004124,,,,,,,,,,,,,,,,,,,,,,,,,,,,,,,,,,,,,,,,,,,,,,,,,,364.7124057000037,364.72827260004124,365.22863810003037,365.21196630003396,365.2231900000479,365.22863810003037,365.22863810003037,365.22863810003037,367.4954984000069,Objects\038b.jpg,pre,n,2.2541935999761336,None,,,,,,,,00051,001,2026-01-18_16h25.44.190,MST_test,2024.2.0,60.01057386678229,2026-01-18 16h25.57.080770 +0530,
67,0,68,o,4.842336300003808,None,68,0,67,367.5116544000339,,,,,,,,,,,,,,,,,,,,,,,,,,,,,,,,,,,,,,,,,,,,,,,,,,367.4955906000105,367.5116544000339,368.0155394000467,367.99522610002896,368.0133738000295,368.0155394000467,368.0155394000467,368.0155394000467,372.8622989000287,Scenes\084b.jpg,pre,o,4.842336300003808,None,,,,,,,,00051,001,2026-01-18_16h25.44.190,MST_test,2024.2.0,60.01057386678229,2026-01-18 16h25.57.080770 +0530,
68,0,69,n,6.06806439999491,None,69,0,68,372.8782484999974,,,,,,,,,,,,,,,,,,,,,,,,,,,,,,,,,,,,,,,,,,,,,,,,,,372.8623904000269,372.8782484999974,373.3821670000325,373.36193140002433,373.38000669999747,373.3821670000325,373.3821670000325,373.3821670000325,379.46249720000196,Scenes\125b.jpg,post,n,6.06806439999491,None,,,,,,,,00051,001,2026-01-18_16h25.44.190,MST_test,2024.2.0,60.01057386678229,2026-01-18 16h25.57.080770 +0530,
69,0,70,o,1.4453205000027083,None,70,0,69,379.47923240001546,,,,,,,,,,,,,,,,,,,,,,,,,,,,,,,,,,,,,,,,,,,,,,,,,,379.46259120001923,379.47923240001546,379.9818333000294,379.9621047000401,379.97954440000467,379.9818333000294,379.9818333000294,379.9818333000294,381.4288867000141,Scenes\012b.jpg,post,o,1.4453205000027083,None,,,,,,,,00051,001,2026-01-18_16h25.44.190,MST_test,2024.2.0,60.01057386678229,2026-01-18 16h25.57.080770 +0530,
70,0,71,n,1.880941100011114,None,71,0,70,381.44499700004235,,,,,,,,,,,,,,,,,,,,,,,,,,,,,,,,,,,,,,,,,,,,,,,,,,381.4289850000059,381.44499700004235,381.9454794000485,381.928596200014,381.9394498000038,381.9454794000485,381.9454794000485,381.9454794000485,383.82883540005423,Foils\086a.jpg,none,n,1.880941100011114,None,,,,,,,,00051,001,2026-01-18_16h25.44.190,MST_test,2024.2.0,60.01057386678229,2026-01-18 16h25.57.080770 +0530,
71,0,72,n,2.8891270000021905,None,72,0,71,383.8450199000072,,,,,,,,,,,,,,,,,,,,,,,,,,,,,,,,,,,,,,,,,,,,,,,,,,383.8289377000183,383.8450199000072,384.3453327000025,384.3292272000108,384.3393211000366,384.3453327000025,384.3453327000025,384.3453327000025,387.2459706000518,Foils\097a.jpg,none,n,2.8891270000021905,None,,,,,,,,00051,001,2026-01-18_16h25.44.190,MST_test,2024.2.0,60.01057386678229,2026-01-18 16h25.57.080770 +0530,
72,0,73,o,2.3756305999704637,None,73,0,72,387.2618183000013,,,,,,,,,,,,,,,,,,,,,,,,,,,,,,,,,,,,,,,,,,,,,,,,,,387.24607220001053,387.2618183000013,387.7623913999996,387.7453523000004,387.75473149999743,387.7623913999996,387.7623913999996,387.7623913999996,390.14560670003993,Scenes\047a.jpg,mid,o,2.3756305999704637,None,,,,,,,,00051,001,2026-01-18_16h25.44.190,MST_test,2024.2.0,60.01057386678229,2026-01-18 16h25.57.080770 +0530,
73,0,74,s,1.3874035999760963,None,74,0,73,390.1618022000184,,,,,,,,,,,,,,,,,,,,,,,,,,,,,,,,,,,,,,,,,,,,,,,,,,390.145699100045,390.1618022000184,390.66238020005403,390.64533030003076,390.65853990003234,390.66238020005403,390.66238020005403,390.66238020005403,392.0625280000386,Scenes\140b.jpg,pre,s,1.3874035999760963,None,,,,,,,,00051,001,2026-01-18_16h25.44.190,MST_test,2024.2.0,60.01057386678229,2026-01-18 16h25.57.080770 +0530,
74,0,75,n,2.9433511999668553,None,75,0,74,392.0784564000205,,,,,,,,,,,,,,,,,,,,,,,,,,,,,,,,,,,,,,,,,,,,,,,,,,392.06263420003233,392.0784564000205,392.5784823000431,392.5620473000454,392.57277660002,392.5784823000431,392.5784823000431,392.5784823000431,395.5290951000061,Foils\scenes11.jpg,none,n,2.9433511999668553,None,,,,,,,,00051,001,2026-01-18_16h25.44.190,MST_test,2024.2.0,60.01057386678229,2026-01-18 16h25.57.080770 +0530,
75,0,76,o,2.789137899992056,None,76,0,75,395.5450520000304,,,,,,,,,,,,,,,,,,,,,,,,,,,,,,,,,,,,,,,,,,,,,,,,,,395.529190100031,395.5450520000304,396.0454665000434,396.0286901000072,396.03233680000994,396.0454665000434,396.0454665000434,396.0454665000434,398.8457342000329,Objects\101a.jpg,mid,o,2.789137899992056,None,,,,,,,,00051,001,2026-01-18_16h25.44.190,MST_test,2024.2.0,60.01057386678229,2026-01-18 16h25.57.080770 +0530,
76,0,77,o,6.117886999971233,None,77,0,76,398.86173730000155,,,,,,,,,,,,,,,,,,,,,,,,,,,,,,,,,,,,,,,,,,,,,,,,,,398.84582590003265,398.86173730000155,399.3646693000337,399.3452732000151,399.3624764000415,399.3646693000337,399.3646693000337,399.3646693000337,405.4956699000322,Scenes\085b.jpg,mid,o,6.117886999971233,None,,,,,,,,00051,001,2026-01-18_16h25.44.190,MST_test,2024.2.0,60.01057386678229,2026-01-18 16h25.57.080770 +0530,
77,0,78,s,1.765938600001391,None,78,0,77,405.51168370002415,,,,,,,,,,,,,,,,,,,,,,,,,,,,,,,,,,,,,,,,,,,,,,,,,,405.4957706000423,405.51168370002415,406.01227810001,405.99534000002313,406.00557490001665,406.01227810001,406.01227810001,406.01227810001,407.7789413999999,Objects\009b.jpg,mid,s,1.765938600001391,None,,,,,,,,00051,001,2026-01-18_16h25.44.190,MST_test,2024.2.0,60.01057386678229,2026-01-18 16h25.57.080770 +0530,
78,0,79,o,1.4274716000072658,None,79,0,78,407.7949975000229,,,,,,,,,,,,,,,,,,,,,,,,,,,,,,,,,,,,,,,,,,,,,,,,,,407.77903840004,407.7949975000229,408.2951809000224,408.27851180004654,408.2881158000091,408.2951809000224,408.2951809000224,408.2951809000224,409.7288336000056,Objects\118b.jpg,post,o,1.4274716000072658,None,,,,,,,,00051,001,2026-01-18_16h25.44.190,MST_test,2024.2.0,60.01057386678229,2026-01-18 16h25.57.080770 +0530,
79,0,80,s,1.76472570002079,None,80,0,79,409.7450296000461,,,,,,,,,,,,,,,,,,,,,,,,,,,,,,,,,,,,,,,,,,,,,,,,,,409.7289296000381,409.7450296000461,410.24523390003014,410.22858460003044,410.2385262000025,410.24523390003014,410.24523390003014,410.24523390003014,412.0122597000445,Objects\079b.jpg,mid,s,1.76472570002079,None,,,,,,,,00051,001,2026-01-18_16h25.44.190,MST_test,2024.2.0,60.01057386678229,2026-01-18 16h25.57.080770 +0530,
80,0,81,s,1.390699100040365,None,81,0,80,412.02822590002324,,,,,,,,,,,,,,,,,,,,,,,,,,,,,,,,,,,,,,,,,,,,,,,,,,412.0123560000211,412.02822590002324,412.5318973000394,412.51201570004923,412.52979140001116,412.5318973000394,412.5318973000394,412.5318973000394,413.92896160000237,Scenes\165b.jpg,pre,s,1.390699100040365,None,,,,,,,,00051,001,2026-01-18_16h25.44.190,MST_test,2024.2.0,60.01057386678229,2026-01-18 16h25.57.080770 +0530,
81,0,82,s,1.4130712000187486,None,82,0,81,413.9450282000471,,,,,,,,,,,,,,,,,,,,,,,,,,,,,,,,,,,,,,,,,,,,,,,,,,413.92905480001355,413.9450282000471,414.4455156000331,414.4285639000009,414.43896190001396,414.4455156000331,414.4455156000331,414.4455156000331,415.862182700017,Objects\063b.jpg,post,s,1.4130712000187486,None,,,,,,,,00051,001,2026-01-18_16h25.44.190,MST_test,2024.2.0,60.01057386678229,2026-01-18 16h25.57.080770 +0530,
82,0,83,n,1.471089500002563,None,83,0,82,415.8782996000373,,,,,,,,,,,,,,,,,,,,,,,,,,,,,,,,,,,,,,,,,,,,,,,,,,415.862274300016,415.8782996000373,416.3787272000336,416.3619421000476,416.3710084000486,416.3787272000336,416.3787272000336,416.3787272000336,417.86236700002337,Foils\009a.jpg,none,n,1.471089500002563,None,,,,,,,,00051,001,2026-01-18_16h25.44.190,MST_test,2024.2.0,60.01057386678229,2026-01-18 16h25.57.080770 +0530,
83,0,84,s,1.8159857999999076,None,84,0,83,417.8783218000317,,,,,,,,,,,,,,,,,,,,,,,,,,,,,,,,,,,,,,,,,,,,,,,,,,417.8624590000254,417.8783218000317,418.37883990001865,418.36195570003474,418.373271700053,418.37883990001865,418.37883990001865,418.37883990001865,420.1957226000377,Scenes\014b.jpg,post,s,1.8159857999999076,None,,,,,,,,00051,001,2026-01-18_16h25.44.190,MST_test,2024.2.0,60.01057386678229,2026-01-18 16h25.57.080770 +0530,
84,0,85,s,7.184737500036135,None,85,0,84,420.2117131000268,,,,,,,,,,,,,,,,,,,,,,,,,,,,,,,,,,,,,,,,,,,,,,,,,,420.1958165000542,420.2117131000268,420.7137194000534,420.6952726000454,420.7118078000494,420.7137194000534,420.7137194000534,420.7137194000534,427.9122388000251,Scenes\134b.jpg,post,s,7.184737500036135,None,,,,,,,,00051,001,2026-01-18_16h25.44.190,MST_test,2024.2.0,60.01057386678229,2026-01-18 16h25.57.080770 +0530,
85,0,86,n,3.4535820999881253,None,86,0,85,427.92820770002436,,,,,,,,,,,,,,,,,,,,,,,,,,,,,,,,,,,,,,,,,,,,,,,,,,427.91232970001874,427.92820770002436,428.4289496000274,428.41232610004954,428.4239652000251,428.4289496000274,428.4289496000274,428.4289496000274,431.8957527000457,Foils\066a.jpg,none,n,3.4535820999881253,None,,,,,,,,00051,001,2026-01-18_16h25.44.190,MST_test,2024.2.0,60.01057386678229,2026-01-18 16h25.57.080770 +0530,
86,0,87,o,3.5664877999806777,None,87,0,86,431.9117004,,,,,,,,,,,,,,,,,,,,,,,,,,,,,,,,,,,,,,,,,,,,,,,,,,431.89584870002,431.9117004,432.4118450000533,432.3952805000008,432.39773389999755,432.4118450000533,432.4118450000533,432.4118450000533,435.9790307000512,Objects\094a.jpg,post,o,3.5664877999806777,None,,,,,,,,00051,001,2026-01-18_16h25.44.190,MST_test,2024.2.0,60.01057386678229,2026-01-18 16h25.57.080770 +0530,
87,0,88,s,2.1466077000368387,None,88,0,87,435.99503830005415,,,,,,,,,,,,,,,,,,,,,,,,,,,,,,,,,,,,,,,,,,,,,,,,,,435.97912140004337,435.99503830005415,,436.479653300019,436.48252420005156,436.49517770000966,436.49517770000966,436.49517770000966,438.6456860000035,Objects\154a.jpg,mid,s,2.1466077000368387,None,,,,,,,,00051,001,2026-01-18_16h25.44.190,MST_test,2024.2.0,60.01057386678229,2026-01-18 16h25.57.080770 +0530,
88,0,89,s,5.317641099973116,None,89,0,88,438.66162780002924,,,,,,,,,,,,,,,,,,,,,,,,,,,,,,,,,,,,,,,,,,,,,,,,,,438.6457765000523,438.66162780002924,439.1644188000355,439.1452572999988,439.16241430002265,439.1644188000355,439.1644188000355,439.1644188000355,444.49580460001016,Scenes\174b.jpg,pre,s,5.317641099973116,None,,,,,,,,00051,001,2026-01-18_16h25.44.190,MST_test,2024.2.0,60.01057386678229,2026-01-18 16h25.57.080770 +0530,
89,0,90,n,2.5067284000106156,None,90,0,89,444.5116939000436,,,,,,,,,,,,,,,,,,,,,,,,,,,,,,,,,,,,,,,,,,,,,,,,,,444.4958987000282,444.5116939000436,445.03988330002176,444.9953831000021,445.03709560004063,445.03988330002176,445.03988330002176,445.03988330002176,447.5621786999982,Foils\scenes15.jpg,none,n,2.5067284000106156,None,,,,,,,,00051,001,2026-01-18_16h25.44.190,MST_test,2024.2.0,60.01057386678229,2026-01-18 16h25.57.080770 +0530,
90,0,91,s,2.4107659000437707,None,91,0,90,447.5783234999981,,,,,,,,,,,,,,,,,,,,,,,,,,,,,,,,,,,,,,,,,,,,,,,,,,447.56226910004625,447.5783234999981,448.07966400001897,448.0620516000199,448.0775476000272,448.07966400001897,448.07966400001897,448.07966400001897,450.4957196000032,Foils\scenes1.jpg,none,s,2.4107659000437707,None,,,,,,,,00051,001,2026-01-18_16h25.44.190,MST_test,2024.2.0,60.01057386678229,2026-01-18 16h25.57.080770 +0530,
91,0,92,n,4.069824999955017,None,92,0,91,450.5116279000067,,,,,,,,,,,,,,,,,,,,,,,,,,,,,,,,,,,,,,,,,,,,,,,,,,450.49580850003986,450.5116279000067,451.0119923000457,450.9952128000441,450.99858030001633,451.0119923000457,451.0119923000457,451.0119923000457,455.0955257000169,Objects\046a.jpg,post,n,4.069824999955017,None,,,,,,,,00051,001,2026-01-18_16h25.44.190,MST_test,2024.2.0,60.01057386678229,2026-01-18 16h25.57.080770 +0530,
92,0,93,o,2.822217700013425,None,93,0,92,455.11171330005163,,,,,,,,,,,,,,,,,,,,,,,,,,,,,,,,,,,,,,,,,,,,,,,,,,455.09561790002044,455.11171330005163,455.6118371000048,455.5952695000451,455.5979959000251,455.6118371000048,455.6118371000048,455.6118371000048,458.4457660000189,Objects\127a.jpg,post,o,2.822217700013425,None,,,,,,,,00051,001,2026-01-18_16h25.44.190,MST_test,2024.2.0,60.01057386678229,2026-01-18 16h25.57.080770 +0530,
93,0,94,s,2.3916768999770284,None,94,0,93,458.46170730004087,,,,,,,,,,,,,,,,,,,,,,,,,,,,,,,,,,,,,,,,,,,,,,,,,,458.4458620000514,458.46170730004087,458.96217640000395,458.94528210000135,458.9531794000068,458.96217640000395,458.96217640000395,458.96217640000395,461.3622958000051,Scenes\111a.jpg,post,s,2.3916768999770284,None,,,,,,,,00051,001,2026-01-18_16h25.44.190,MST_test,2024.2.0,60.01057386678229,2026-01-18 16h25.57.080770 +0530,
94,0,95,o,1.787773100018967,None,95,0,94,461.37831160001224,,,,,,,,,,,,,,,,,,,,,,,,,,,,,,,,,,,,,,,,,,,,,,,,,,461.36238600005163,461.37831160001224,461.8788615000085,461.8619897000026,461.87326670001494,461.8788615000085,461.8788615000085,461.8788615000085,463.6792870000354,Objects\133b.jpg,pre,o,1.787773100018967,None,,,,,,,,00051,001,2026-01-18_16h25.44.190,MST_test,2024.2.0,60.01057386678229,2026-01-18 16h25.57.080770 +0530,
95,0,96,s,3.374954800005071,None,96,0,95,463.695125200029,,,,,,,,,,,,,,,,,,,,,,,,,,,,,,,,,,,,,,,,,,,,,,,,,,463.67938440002035,463.695125200029,464.19525000004796,464.1784798000008,464.18772190000163,464.19525000004796,464.19525000004796,464.19525000004796,467.578750100045,Objects\134b.jpg,post,s,3.374954800005071,None,,,,,,,,00051,001,2026-01-18_16h25.44.190,MST_test,2024.2.0,60.01057386678229,2026-01-18 16h25.57.080770 +0530,
96,0,97,s,1.3870896000298671,None,97,0,96,467.5950264999992,,,,,,,,,,,,,,,,,,,,,,,,,,,,,,,,,,,,,,,,,,,,,,,,,,467.5788404000341,467.5950264999992,468.09549390000757,468.07862290000776,468.09172590001253,468.09549390000757,468.09549390000757,468.09549390000757,469.49579529999755,Scenes\152b.jpg,mid,s,1.3870896000298671,None,,,,,,,,00051,001,2026-01-18_16h25.44.190,MST_test,2024.2.0,60.01057386678229,2026-01-18 16h25.57.080770 +0530,
97,0,98,o,1.3026794000179507,None,98,0,97,469.511642700003,,,,,,,,,,,,,,,,,,,,,,,,,,,,,,,,,,,,,,,,,,,,,,,,,,469.495888800011,469.511642700003,470.0121139000403,469.99525850004284,469.9987374000484,470.0121139000403,470.0121139000403,470.0121139000403,471.32880480005406,Objects\124a.jpg,pre,o,1.3026794000179507,None,,,,,,,,00051,001,2026-01-18_16h25.44.190,MST_test,2024.2.0,60.01057386678229,2026-01-18 16h25.57.080770 +0530,
98,0,99,n,1.5412709999945946,None,99,0,98,471.3449639000464,,,,,,,,,,,,,,,,,,,,,,,,,,,,,,,,,,,,,,,,,,,,,,,,,,471.32890110003063,471.3449639000464,471.845418300014,471.8285447000526,471.8374430999975,471.845418300014,471.845418300014,471.845418300014,473.39626900001895,Foils\scenes29.jpg,none,n,1.5412709999945946,None,,,,,,,,00051,001,2026-01-18_16h25.44.190,MST_test,2024.2.0,60.01057386678229,2026-01-18 16h25.57.080770 +0530,
99,0,100,o,1.3856739000184461,None,100,0,99,473.4118362000445,,,,,,,,,,,,,,,,,,,,,,,,,,,,,,,,,,,,,,,,,,,,,,,,,,473.3963636000408,473.4118362000445,473.91220420005266,473.8953527000267,473.9065983000328,473.91220420005266,473.91220420005266,473.91220420005266,475.3123914000462,Scenes\089a.jpg,mid,o,1.3856739000184461,None,,,,,,,,00051,001,2026-01-18_16h25.44.190,MST_test,2024.2.0,60.01057386678229,2026-01-18 16h25.57.080770 +0530,
100,0,101,s,4.5738087999634445,None,101,0,100,475.3282688000472,,,,,,,,,,,,,,,,,,,,,,,,,,,,,,,,,,,,,,,,,,,,,,,,,,475.31249290000414,475.3282688000472,475.8287475000252,475.8119688000297,475.8145848000422,475.8287475000252,475.8287475000252,475.8287475000252,480.41225980001036,Objects\028a.jpg,pre,s,4.5738087999634445,None,,,,,,,,00051,001,2026-01-18_16h25.44.190,MST_test,2024.2.0,60.01057386678229,2026-01-18 16h25.57.080770 +0530,
101,0,102,o,2.2254721999634057,None,102,0,101,480.4282876000507,,,,,,,,,,,,,,,,,,,,,,,,,,,,,,,,,,,,,,,,,,,,,,,,,,480.4123516000109,480.4282876000507,480.9292810000479,480.91190570004983,480.9246025000466,480.9292810000479,480.9292810000479,480.9292810000479,483.1626051000203,Scenes\034a.jpg,pre,o,2.2254721999634057,None,,,,,,,,00051,001,2026-01-18_16h25.44.190,MST_test,2024.2.0,60.01057386678229,2026-01-18 16h25.57.080770 +0530,
102,0,103,o,1.315714999975171,None,103,0,102,483.1783212000155,,,,,,,,,,,,,,,,,,,,,,,,,,,,,,,,,,,,,,,,,,,,,,,,,,483.16273590002675,483.1783212000155,483.6790862000198,483.6620002000127,483.6703012000071,483.6790862000198,483.6790862000198,483.6790862000198,484.9955686000176,Scenes\177a.jpg,post,o,1.315714999975171,None,,,,,,,,00051,001,2026-01-18_16h25.44.190,MST_test,2024.2.0,60.01057386678229,2026-01-18 16h25.57.080770 +0530,
103,0,104,n,3.633592199999839,None,104,0,103,485.01171859999886,,,,,,,,,,,,,,,,,,,,,,,,,,,,,,,,,,,,,,,,,,,,,,,,,,484.99566030001733,485.01171859999886,485.5122331000166,485.4952977000503,485.50956840004073,485.5122331000166,485.5122331000166,485.5122331000166,489.1621780000278,Scenes\188b.jpg,mid,n,3.633592199999839,None,,,,,,,,00051,001,2026-01-18_16h25.44.190,MST_test,2024.2.0,60.01057386678229,2026-01-18 16h25.57.080770 +0530,
104,0,105,o,4.443575999990571,None,105,0,104,489.17830970004434,,,,,,,,,,,,,,,,,,,,,,,,,,,,,,,,,,,,,,,,,,,,,,,,,,489.16227660002187,489.17830970004434,489.67886179999914,489.6619189000339,489.67207700002473,489.67886179999914,489.67886179999914,489.67886179999914,494.12890560005326,Scenes\060a.jpg,mid,o,4.443575999990571,None,,,,,,,,00051,001,2026-01-18_16h25.44.190,MST_test,2024.2.0,60.01057386678229,2026-01-18 16h25.57.080770 +0530,
105,0,106,s,1.4862099000019953,None,106,0,105,494.1450723000453,,,,,,,,,,,,,,,,,,,,,,,,,,,,,,,,,,,,,,,,,,,,,,,,,,494.12899800000014,494.1450723000453,494.6455382000422,494.6284610000439,494.63940500002354,494.6455382000422,494.6455382000422,494.6455382000422,496.14557720004814,Objects\010b.jpg,mid,s,1.4862099000019953,None,,,,,,,,00051,001,2026-01-18_16h25.44.190,MST_test,2024.2.0,60.01057386678229,2026-01-18 16h25.57.080770 +0530,
106,0,107,o,2.148444799997378,None,107,0,106,496.1617385999998,,,,,,,,,,,,,,,,,,,,,,,,,,,,,,,,,,,,,,,,,,,,,,,,,,496.14568140002666,496.1617385999998,496.6622561000404,496.645205000008,496.65340050001396,496.6622561000404,496.6622561000404,496.6622561000404,498.81228820001706,Scenes\124a.jpg,pre,o,2.148444799997378,None,,,,,,,,00051,001,2026-01-18_16h25.44.190,MST_test,2024.2.0,60.01057386678229,2026-01-18 16h25.57.080770 +0530,
107,0,108,o,4.601351800025441,None,108,0,107,498.8284619000042,,,,,,,,,,,,,,,,,,,,,,,,,,,,,,,,,,,,,,,,,,,,,,,,,,498.8123781000031,498.8284619000042,499.3289744000067,499.3120941000525,499.31557870004326,499.3289744000067,499.3289744000067,499.3289744000067,503.945687200001,Objects\070a.jpg,post,o,4.601351800025441,None,,,,,,,,00051,001,2026-01-18_16h25.44.190,MST_test,2024.2.0,60.01057386678229,2026-01-18 16h25.57.080770 +0530,
108,0,109,n,1.6760894000180997,None,109,0,108,503.961916500004,,,,,,,,,,,,,,,,,,,,,,,,,,,,,,,,,,,,,,,,,,,,,,,,,,503.94578350003576,503.961916500004,504.46197440003743,504.4454618000309,504.45557170000393,504.46197440003743,504.46197440003743,504.46197440003743,506.1456728000194,Foils\020b.jpg,none,n,1.6760894000180997,None,,,,,,,,00051,001,2026-01-18_16h25.44.190,MST_test,2024.2.0,60.01057386678229,2026-01-18 16h25.57.080770 +0530,
109,0,110,n,2.8583121999981813,None,110,0,109,506.1618850000086,,,,,,,,,,,,,,,,,,,,,,,,,,,,,,,,,,,,,,,,,,,,,,,,,,506.14576270000543,506.1618850000086,506.67156650003744,506.645808900008,506.66920070000924,506.67156650003744,506.67156650003744,506.67156650003744,509.54569739999715,Foils\scenes23.jpg,none,n,2.8583121999981813,None,,,,,,,,00051,001,2026-01-18_16h25.44.190,MST_test,2024.2.0,60.01057386678229,2026-01-18 16h25.57.080770 +0530,
110,0,111,o,2.8915865000453778,None,111,0,110,509.5617883000523,,,,,,,,,,,,,,,,,,,,,,,,,,,,,,,,,,,,,,,,,,,,,,,,,,509.54580060002627,509.5617883000523,510.0624941000133,510.04541720001725,510.04875840002205,510.0624941000133,510.0624941000133,510.0624941000133,512.9624582000542,Objects\125a.jpg,pre,o,2.8915865000453778,None,,,,,,,,00051,001,2026-01-18_16h25.44.190,MST_test,2024.2.0,60.01057386678229,2026-01-18 16h25.57.080770 +0530,
111,0,112,s,3.4593633000040427,None,112,0,111,512.9785172000411,,,,,,,,,,,,,,,,,,,,,,,,,,,,,,,,,,,,,,,,,,,,,,,,,,512.962547400035,512.9785172000411,513.4796551000327,513.4620872000232,513.4714410000015,513.4796551000327,513.4796551000327,513.4796551000327,516.9458529000403,Objects\111b.jpg,mid,s,3.4593633000040427,None,,,,,,,,00051,001,2026-01-18_16h25.44.190,MST_test,2024.2.0,60.01057386678229,2026-01-18 16h25.57.080770 +0530,
112,0,113,n,4.131714800023474,None,113,0,112,516.9619319000049,,,,,,,,,,,,,,,,,,,,,,,,,,,,,,,,,,,,,,,,,,,,,,,,,,516.9459509000299,516.9619319000049,517.4622240000172,517.4454989000224,517.4543334000045,517.4622240000172,517.4622240000172,517.4622240000172,521.5958348000422,Foils\scenes5.jpg,none,n,4.131714800023474,None,,,,,,,,00051,001,2026-01-18_16h25.44.190,MST_test,2024.2.0,60.01057386678229,2026-01-18 16h25.57.080770 +0530,
113,0,114,s,2.4826451999833807,None,114,0,113,521.6117298000026,,,,,,,,,,,,,,,,,,,,,,,,,,,,,,,,,,,,,,,,,,,,,,,,,,521.5959420000436,521.6117298000026,522.112091100018,522.0956239000079,522.0993454999989,522.112091100018,522.112091100018,522.112091100018,524.5957915000035,Objects\005a.jpg,pre,s,2.4826451999833807,None,,,,,,,,00051,001,2026-01-18_16h25.44.190,MST_test,2024.2.0,60.01057386678229,2026-01-18 16h25.57.080770 +0530,
114,0,115,o,1.818557700025849,None,115,0,114,524.6117946000304,,,,,,,,,,,,,,,,,,,,,,,,,,,,,,,,,,,,,,,,,,,,,,,,,,524.5958811000455,524.6117946000304,525.1119554000325,525.0954882000224,525.0978440000326,525.1119554000325,525.1119554000325,525.1119554000325,526.9458698000526,Objects\105a.jpg,post,o,1.818557700025849,None,,,,,,,,00051,001,2026-01-18_16h25.44.190,MST_test,2024.2.0,60.01057386678229,2026-01-18 16h25.57.080770 +0530,
115,0,116,n,10.251702399982605,None,116,0,115,526.9617711000028,,,,,,,,,,,,,,,,,,,,,,,,,,,,,,,,,,,,,,,,,,,,,,,,,,526.9459644000162,526.9617711000028,527.4620509000379,527.4453183000442,527.4541066000238,527.4620509000379,527.4620509000379,527.4620509000379,537.7290615000529,Objects\121b.jpg,post,n,10.251702399982605,None,,,,,,,,00051,001,2026-01-18_16h25.44.190,MST_test,2024.2.0,60.01057386678229,2026-01-18 16h25.57.080770 +0530,
116,0,117,s,1.6765943999635056,None,117,0,116,537.7451715000207,,,,,,,,,,,,,,,,,,,,,,,,,,,,,,,,,,,,,,,,,,,,,,,,,,537.7291532000527,537.7451715000207,538.2452454000013,538.2287627000478,538.2384248000453,538.2452454000013,538.2452454000013,538.2452454000013,539.9290762000019,Objects\145b.jpg,mid,s,1.6765943999635056,None,,,,,,,,00051,001,2026-01-18_16h25.44.190,MST_test,2024.2.0,60.01057386678229,2026-01-18 16h25.57.080770 +0530,
117,0,118,s,1.3651308999978937,None,118,0,117,539.9451520000002,,,,,,,,,,,,,,,,,,,,,,,,,,,,,,,,,,,,,,,,,,,,,,,,,,539.9291668000515,539.9451520000002,540.4453635000391,540.4286178000038,540.4308757000254,540.4453635000391,540.4453635000391,540.4453635000391,541.812327200023,Objects\120a.jpg,pre,s,1.3651308999978937,None,,,,,,,,00051,001,2026-01-18_16h25.44.190,MST_test,2024.2.0,60.01057386678229,2026-01-18 16h25.57.080770 +0530,
118,0,119,s,4.345595299964771,None,119,0,118,541.8284117000294,,,,,,,,,,,,,,,,,,,,,,,,,,,,,,,,,,,,,,,,,,,,,,,,,,541.8124266000232,541.8284117000294,542.3288415000425,542.3120905000251,542.323364300013,542.3288415000425,542.3288415000425,542.3288415000425,546.6789894000394,Scenes\061b.jpg,post,s,4.345595299964771,None,,,,,,,,00051,001,2026-01-18_16h25.44.190,MST_test,2024.2.0,60.01057386678229,2026-01-18 16h25.57.080770 +0530,
119,0,120,n,3.7668788000009954,None,120,0,119,546.6950846000109,,,,,,,,,,,,,,,,,,,,,,,,,,,,,,,,,,,,,,,,,,,,,,,,,,546.6790796000278,546.6950846000109,547.1955758000258,547.1786721000099,547.1905247000395,547.1955758000258,547.1955758000258,547.1955758000258,550.9791675000452,Foils\081a.jpg,none,n,3.7668788000009954,None,,,,,,,,00051,001,2026-01-18_16h25.44.190,MST_test,2024.2.0,60.01057386678229,2026-01-18 16h25.57.080770 +0530,
120,0,121,s,2.555066299973987,None,121,0,120,550.9950364000397,,,,,,,,,,,,,,,,,,,,,,,,,,,,,,,,,,,,,,,,,,,,,,,,,,550.979261600005,550.9950364000397,,551.479441500036,551.4892148000072,551.4953638000297,551.4953638000297,551.4953638000297,554.0623101000092,Objects\177b.jpg,post,s,2.555066299973987,None,,,,,,,,00051,001,2026-01-18_16h25.44.190,MST_test,2024.2.0,60.01057386678229,2026-01-18 16h25.57.080770 +0530,
121,0,122,n,1.6802900999900885,None,122,0,121,554.0782314000535,,,,,,,,,,,,,,,,,,,,,,,,,,,,,,,,,,,,,,,,,,,,,,,,,,554.0624042000272,554.0782314000535,554.57875840005,554.5620969000156,554.5716433000052,554.57875840005,554.57875840005,554.57875840005,556.2626546000247,Objects\078b.jpg,pre,n,1.6802900999900885,None,,,,,,,,00051,001,2026-01-18_16h25.44.190,MST_test,2024.2.0,60.01057386678229,2026-01-18 16h25.57.080770 +0530,
122,0,123,s,4.127353299991228,None,123,0,122,556.2784816000494,,,,,,,,,,,,,,,,,,,,,,,,,,,,,,,,,,,,,,,,,,,,,,,,,,556.2627575000515,556.2784816000494,556.7785823000013,556.7621000000509,556.7645070000435,556.7785823000013,556.7785823000013,556.7785823000013,560.9122730000527,Objects\013a.jpg,mid,s,4.127353299991228,None,,,,,,,,00051,001,2026-01-18_16h25.44.190,MST_test,2024.2.0,60.01057386678229,2026-01-18 16h25.57.080770 +0530,
123,0,124,n,1.6187036999617703,None,124,0,123,560.9282518000109,,,,,,,,,,,,,,,,,,,,,,,,,,,,,,,,,,,,,,,,,,,,,,,,,,560.912364900054,560.9282518000109,561.4318189000478,561.4119054000475,561.4298875000095,561.4318189000478,561.4318189000478,561.4318189000478,563.0622022000025,Scenes\128b.jpg,post,n,1.6187036999617703,None,,,,,,,,00051,001,2026-01-18_16h25.44.190,MST_test,2024.2.0,60.01057386678229,2026-01-18 16h25.57.080770 +0530,
124,0,125,n,1.5099900999921374,None,125,0,124,563.0782571000163,,,,,,,,,,,,,,,,,,,,,,,,,,,,,,,,,,,,,,,,,,,,,,,,,,563.0622943000053,563.0782571000163,563.6445890000323,563.5619992000284,563.6406847000471,563.6445890000323,563.6445890000323,563.6445890000323,565.162330000021,Foils\scenes25.jpg,none,n,1.5099900999921374,None,,,,,,,,00051,001,2026-01-18_16h25.44.190,MST_test,2024.2.0,60.01057386678229,2026-01-18 16h25.57.080770 +0530,
125,0,126,s,1.9299063999787904,None,126,0,125,565.1782724000514,,,,,,,,,,,,,,,,,,,,,,,,,,,,,,,,,,,,,,,,,,,,,,,,,,565.1624238000368,565.1782724000514,565.6799564000103,565.6619958000374,565.6734463000321,565.6799564000103,565.6799564000103,565.6799564000103,567.6124729000148,Foils\scenes16.jpg,none,s,1.9299063999787904,None,,,,,,,,00051,001,2026-01-18_16h25.44.190,MST_test,2024.2.0,60.01057386678229,2026-01-18 16h25.57.080770 +0530,
126,0,127,o,2.297246600035578,None,127,0,126,567.6284591000294,,,,,,,,,,,,,,,,,,,,,,,,,,,,,,,,,,,,,,,,,,,,,,,,,,567.6125656000222,567.6284591000294,568.1287251000176,568.1119046000531,568.1205645000446,568.1287251000176,568.1287251000176,568.1287251000176,570.4288107000175,Scenes\131a.jpg,pre,o,2.297246600035578,None,,,,,,,,00051,001,2026-01-18_16h25.44.190,MST_test,2024.2.0,60.01057386678229,2026-01-18 16h25.57.080770 +0530,
127,0,128,s,2.8245060000335798,None,128,0,127,570.4450910000014,,,,,,,,,,,,,,,,,,,,,,,,,,,,,,,,,,,,,,,,,,,,,,,,,,570.4289022000157,570.4450910000014,570.9455716000521,570.9285206000204,570.9388054000447,570.9455716000521,570.9455716000521,570.9455716000521,573.7788487000507,Objects\035b.jpg,pre,s,2.8245060000335798,None,,,,,,,,00051,001,2026-01-18_16h25.44.190,MST_test,2024.2.0,60.01057386678229,2026-01-18 16h25.57.080770 +0530,
128,0,129,o,4.220058000006247,None,129,0,128,573.7950586000225,,,,,,,,,,,,,,,,,,,,,,,,,,,,,,,,,,,,,,,,,,,,,,,,,,573.7789454000304,573.7950586000225,574.2952190000215,574.2785414000391,574.2810969999991,574.2952190000215,574.2952190000215,574.2952190000215,578.5287819000077,Objects\039a.jpg,mid,o,4.220058000006247,None,,,,,,,,00051,001,2026-01-18_16h25.44.190,MST_test,2024.2.0,60.01057386678229,2026-01-18 16h25.57.080770 +0530,
129,0,130,o,1.1489978000172414,None,130,0,129,578.5450605000369,,,,,,,,,,,,,,,,,,,,,,,,,,,,,,,,,,,,,,,,,,,,,,,,,,578.5288739000098,578.5450605000369,579.0454127000412,579.0288281000103,579.0317138000391,579.0454127000412,579.0454127000412,579.0454127000412,580.1956895000185,Objects\003a.jpg,pre,o,1.1489978000172414,None,,,,,,,,00051,001,2026-01-18_16h25.44.190,MST_test,2024.2.0,60.01057386678229,2026-01-18 16h25.57.080770 +0530,
130,0,131,s,1.162476199970115,None,131,0,130,580.2116653000121,,,,,,,,,,,,,,,,,,,,,,,,,,,,,,,,,,,,,,,,,,,,,,,,,,580.1957804000122,580.2116653000121,580.7119523000438,580.6953034000471,580.6979482000461,580.7119523000438,580.7119523000438,580.7119523000438,581.878965400043,Objects\036a.jpg,post,s,1.162476199970115,None,,,,,,,,00051,001,2026-01-18_16h25.44.190,MST_test,2024.2.0,60.01057386678229,2026-01-18 16h25.57.080770 +0530,
131,0,132,n,3.711079000029713,None,132,0,131,581.8950767000206,,,,,,,,,,,,,,,,,,,,,,,,,,,,,,,,,,,,,,,,,,,,,,,,,,581.8790633000317,581.8950767000206,582.3952080000308,582.378532600007,582.3877976000076,582.3952080000308,582.3952080000308,582.3952080000308,586.1122784000472,Foils\073a.jpg,none,n,3.711079000029713,None,,,,,,,,00051,001,2026-01-18_16h25.44.190,MST_test,2024.2.0,60.01057386678229,2026-01-18 16h25.57.080770 +0530,
132,0,133,n,2.4142026000190526,None,133,0,132,586.1282401000499,,,,,,,,,,,,,,,,,,,,,,,,,,,,,,,,,,,,,,,,,,,,,,,,,,586.1123696000432,586.1282401000499,586.6286757000489,586.6122883000062,586.6232457000297,586.6286757000489,586.6286757000489,586.6286757000489,589.0455476000207,Foils\002a.jpg,none,n,2.4142026000190526,None,,,,,,,,00051,001,2026-01-18_16h25.44.190,MST_test,2024.2.0,60.01057386678229,2026-01-18 16h25.57.080770 +0530,
133,0,134,n,4.2484298999770544,None,134,0,133,589.0617451000144,,,,,,,,,,,,,,,,,,,,,,,,,,,,,,,,,,,,,,,,,,,,,,,,,,589.045637800009,589.0617451000144,589.5620930000441,589.5455420000362,589.5563089000061,589.5620930000441,589.5620930000441,589.5620930000441,593.8123456000467,Scenes\016b.jpg,pre,n,4.2484298999770544,None,,,,,,,,00051,001,2026-01-18_16h25.44.190,MST_test,2024.2.0,60.01057386678229,2026-01-18 16h25.57.080770 +0530,
134,0,135,s,1.401595500006806,None,135,0,134,593.8282743000309,,,,,,,,,,,,,,,,,,,,,,,,,,,,,,,,,,,,,,,,,,,,,,,,,,593.8124447000446,593.8282743000309,594.3285987999989,594.3119912000257,594.3203637000406,594.3285987999989,594.3285987999989,594.3285987999989,595.7456309000263,Foils\scenes13.jpg,none,s,1.401595500006806,None,,,,,,,,00051,001,2026-01-18_16h25.44.190,MST_test,2024.2.0,60.01057386678229,2026-01-18 16h25.57.080770 +0530,
135,0,136,n,2.4119592000497505,None,136,0,135,595.7617501000059,,,,,,,,,,,,,,,,,,,,,,,,,,,,,,,,,,,,,,,,,,,,,,,,,,595.7457219000207,595.7617501000059,596.2620167999994,596.2453071000054,596.2538792000269,596.2620167999994,596.2620167999994,596.2620167999994,598.6791475000209,Foils\scenes7.jpg,none,n,2.4119592000497505,None,,,,,,,,00051,001,2026-01-18_16h25.44.190,MST_test,2024.2.0,60.01057386678229,2026-01-18 16h25.57.080770 +0530,
136,0,137,n,1.334468899993226,None,137,0,136,598.6950864000246,,,,,,,,,,,,,,,,,,,,,,,,,,,,,,,,,,,,,,,,,,,,,,,,,,598.6792402000283,598.6950864000246,599.195462200034,599.178658400022,599.1893475000397,599.195462200034,599.195462200034,599.195462200034,600.5455456000054,Objects\171b.jpg,pre,n,1.334468899993226,None,,,,,,,,00051,001,2026-01-18_16h25.44.190,MST_test,2024.2.0,60.01057386678229,2026-01-18 16h25.57.080770 +0530,
137,0,138,s,1.8207754999748431,None,138,0,137,600.5617405000376,,,,,,,,,,,,,,,,,,,,,,,,,,,,,,,,,,,,,,,,,,,,,,,,,,600.545639900025,600.5617405000376,601.0620007000398,601.0452436000342,601.0477058000397,601.0620007000398,601.0620007000398,601.0620007000398,602.8956057000323,Objects\130a.jpg,pre,s,1.8207754999748431,None,,,,,,,,00051,001,2026-01-18_16h25.44.190,MST_test,2024.2.0,60.01057386678229,2026-01-18 16h25.57.080770 +0530,
138,0,139,n,4.790577300009318,None,139,0,138,602.9117643000209,,,,,,,,,,,,,,,,,,,,,,,,,,,,,,,,,,,,,,,,,,,,,,,,,,602.8957089000032,602.9117643000209,603.4119768000091,603.3952441000147,603.397669100028,603.4119768000091,603.4119768000091,603.4119768000091,608.212261800014,Objects\122a.jpg,post,n,4.790577300009318,None,,,,,,,,00051,001,2026-01-18_16h25.44.190,MST_test,2024.2.0,60.01057386678229,2026-01-18 16h25.57.080770 +0530,
139,0,140,o,2.194048300036229,None,140,0,139,608.228276800015,,,,,,,,,,,,,,,,,,,,,,,,,,,,,,,,,,,,,,,,,,,,,,,,,,608.2123581000487,608.228276800015,608.728654000035,608.7120071000536,608.7189190000063,608.728654000035,608.728654000035,608.728654000035,610.9290154000046,Scenes\192a.jpg,post,o,2.194048300036229,None,,,,,,,,00051,001,2026-01-18_16h25.44.190,MST_test,2024.2.0,60.01057386678229,2026-01-18 16h25.57.080770 +0530,
140,0,141,s,3.524661500006914,None,141,0,140,610.9450663000462,,,,,,,,,,,,,,,,,,,,,,,,,,,,,,,,,,,,,,,,,,,,,,,,,,610.9291082000127,610.9450663000462,611.4457090000506,611.4285215000273,611.4349236999988,611.4457090000506,611.4457090000506,611.4457090000506,614.9790890000295,Scenes\153a.jpg,mid,s,3.524661500006914,None,,,,,,,,00051,001,2026-01-18_16h25.44.190,MST_test,2024.2.0,60.01057386678229,2026-01-18 16h25.57.080770 +0530,
141,0,142,o,1.418297199998051,None,142,0,141,614.9951461000019,,,,,,,,,,,,,,,,,,,,,,,,,,,,,,,,,,,,,,,,,,,,,,,,,,614.9791929000057,614.9951461000019,,615.4798375000246,615.491658700048,615.4956495000515,615.4956495000515,615.4956495000515,616.9288866000134,Objects\152b.jpg,mid,o,1.418297199998051,None,,,,,,,,00051,001,2026-01-18_16h25.44.190,MST_test,2024.2.0,60.01057386678229,2026-01-18 16h25.57.080770 +0530,
142,0,143,o,2.299790800025221,None,143,0,142,616.9450343000353,,,,,,,,,,,,,,,,,,,,,,,,,,,,,,,,,,,,,,,,,,,,,,,,,,616.92897920002,616.9450343000353,617.4460283000371,617.4288291000412,617.4436670000432,617.4460283000371,617.4460283000371,617.4460283000371,619.7624017000198,Scenes\083b.jpg,mid,o,2.299790800025221,None,,,,,,,,00051,001,2026-01-18_16h25.44.190,MST_test,2024.2.0,60.01057386678229,2026-01-18 16h25.57.080770 +0530,
143,0,144,o,1.7472913999808952,None,144,0,143,619.7784637000295,,,,,,,,,,,,,,,,,,,,,,,,,,,,,,,,,,,,,,,,,,,,,,,,,,619.7624931000173,619.7784637000295,620.2790759000345,620.262121900043,620.2689167000353,620.2790759000345,620.2790759000345,620.2790759000345,622.0292177000083,Scenes\027a.jpg,mid,o,1.7472913999808952,None,,,,,,,,00051,001,2026-01-18_16h25.44.190,MST_test,2024.2.0,60.01057386678229,2026-01-18 16h25.57.080770 +0530,
144,0,145,o,2.0009125000215136,None,145,0,144,622.0451535000466,,,,,,,,,,,,,,,,,,,,,,,,,,,,,,,,,,,,,,,,,,,,,,,,,,622.029317700013,622.0451535000466,622.5455623000162,622.5286352999974,622.5321806000429,622.5455623000162,622.5455623000162,622.5455623000162,624.562412600033,Objects\015a.jpg,post,o,2.0009125000215136,None,,,,,,,,00051,001,2026-01-18_16h25.44.190,MST_test,2024.2.0,60.01057386678229,2026-01-18 16h25.57.080770 +0530,
145,0,146,o,5.147157999977935,None,146,0,145,624.5785289000487,,,,,,,,,,,,,,,,,,,,,,,,,,,,,,,,,,,,,,,,,,,,,,,,,,624.5625071999966,624.5785289000487,625.078705699998,625.0620073000318,625.0717833000235,625.078705699998,625.078705699998,625.078705699998,630.2293503000401,Objects\030b.jpg,post,o,5.147157999977935,None,,,,,,,,00051,001,2026-01-18_16h25.44.190,MST_test,2024.2.0,60.01057386678229,2026-01-18 16h25.57.080770 +0530,
146,0,147,o,1.104653300018981,None,147,0,146,630.2451275000349,,,,,,,,,,,,,,,,,,,,,,,,,,,,,,,,,,,,,,,,,,,,,,,,,,630.2294514000532,630.2451275000349,630.745367800002,630.7287130000186,630.7312576000113,630.745367800002,630.745367800002,630.745367800002,631.8624132000259,Objects\139a.jpg,mid,o,1.104653300018981,None,,,,,,,,00051,001,2026-01-18_16h25.44.190,MST_test,2024.2.0,60.01057386678229,2026-01-18 16h25.57.080770 +0530,
147,0,148,s,1.5884255000273697,None,148,0,147,631.8784794000094,,,,,,,,,,,,,,,,,,,,,,,,,,,,,,,,,,,,,,,,,,,,,,,,,,631.862507300044,631.8784794000094,632.3822928000009,632.3621156000299,632.379985800013,632.3822928000009,632.3822928000009,632.3822928000009,633.9790753000416,Scenes\102b.jpg,pre,s,1.5884255000273697,None,,,,,,,,00051,001,2026-01-18_16h25.44.190,MST_test,2024.2.0,60.01057386678229,2026-01-18 16h25.57.080770 +0530,
148,0,149,o,5.8670891000074334,None,149,0,148,633.9952049000422,,,,,,,,,,,,,,,,,,,,,,,,,,,,,,,,,,,,,,,,,,,,,,,,,,633.9791675000452,633.9952049000422,,634.4792923000059,634.49059880001,634.4957947000512,634.4957947000512,634.4957947000512,640.3792402000399,Scenes\011a.jpg,post,o,5.8670891000074334,None,,,,,,,,00051,001,2026-01-18_16h25.44.190,MST_test,2024.2.0,60.01057386678229,2026-01-18 16h25.57.080770 +0530,
149,0,150,s,2.2512749999877997,None,150,0,149,640.3951789000421,,,,,,,,,,,,,,,,,,,,,,,,,,,,,,,,,,,,,,,,,,,,,,,,,,640.3793470000383,640.3951789000421,640.8962559000356,640.8788148000021,640.8939857000369,640.8962559000356,640.8962559000356,640.8962559000356,643.1626668000245,Scenes\109b.jpg,pre,s,2.2512749999877997,None,,,,,,,,00051,001,2026-01-18_16h25.44.190,MST_test,2024.2.0,60.01057386678229,2026-01-18 16h25.57.080770 +0530,
,,,,,,,,,,,,,,,,,,,,,,,,,,,,,,,,,,,,,,,,,,,,,,,,,,,,,,,,,,,,,,,,,,,,,,,,,643.1627720000106,643.1784475000459,643.1784475000459,646.3455963000306,space,3.1594280999852344,None,00051,001,2026-01-18_16h25.44.190,MST_test,2024.2.0,60.01057386678229,2026-01-18 16h25.57.080770 +0530,
