thisN,thisTrialN,thisRepN,key_resp_3.keys,key_resp_3.rt,key_resp_3.duration,trials.thisRepN,trials.thisTrialN,trials.thisN,thisRow.t,notes,intro_page.started,text.started,key_resp.started,intro_page.stopped,key_resp.keys,key_resp.rt,key_resp.duration,instructions.started,text_2.started,key_resp_2.started,instructions.stopped,key_resp_2.keys,key_resp_2.rt,key_resp_2.duration,demo1.started,image_1.started,image_2.started,text_7.started,key_resp_6.started,text_9.started,demo1.stopped,key_resp_6.keys,key_resp_6.rt,key_resp_6.duration,demo2.started,image_5.started,image_6.started,text_11.started,text_12.started,key_resp_8.started,demo2.stopped,key_resp_8.keys,key_resp_8.rt,key_resp_8.duration,demo_conclusion.started,text_13.started,key_resp_9.started,demo_conclusion.stopped,key_resp_9.keys,key_resp_9.rt,key_resp_9.duration,start_test.started,text_6.started,key_resp_5.started,start_test.stopped,key_resp_5.keys,key_resp_5.rt,key_resp_5.duration,ISI.started,text_4.started,text_4.stopped,ISI.stopped,routine_1.started,image.started,text_3.started,key_resp_3.started,routine_1.stopped,image_path,position_of_stimuli,trials.key_resp_3.keys,trials.key_resp_3.rt,trials.key_resp_3.duration,End_page.started,text_5.started,key_resp_4.started,End_page.stopped,key_resp_4.keys,key_resp_4.rt,key_resp_4.duration,participant,session,date,expName,psychopyVersion,frameRate,expStart,
,,,,,,,,,,,0.0013450000551529229,0.0031349000055342913,0.0031349000055342913,3.202298000047449,space,3.1381394999916665,None,,,,,,,,,,,,,,,,,,,,,,,,,,,,,,,,,,,,,,,,,,,,,,,,,,,,,,,,,,,,,,,00054,001,2026-01-18_18h26.51.352,MST_test,2024.2.0,59.9509960665318,2026-01-18 18h27.00.079641 +0530,
,,,,,,,,,,,,,,,,,,3.2023413000279106,3.214313500036951,3.214313500036951,32.18696750001982,space,28.959080900007393,None,,,,,,,,,,,,,,,,,,,,,,,,,,,,,,,,,,,,,,,,,,,,,,,,,,,,,,,,00054,001,2026-01-18_18h26.51.352,MST_test,2024.2.0,59.9509960665318,2026-01-18 18h27.00.079641 +0530,
,,,,,,,,,,,,,,,,,,,,,,,,,32.186996200005524,32.20370730001014,32.20370730001014,32.20370730001014,32.20370730001014,32.20370730001014,38.0370103000314,space,5.816658099996857,None,,,,,,,,,,,,,,,,,,,,,,,,,,,,,,,,,,,,,,,,,,,,,,00054,001,2026-01-18_18h26.51.352,MST_test,2024.2.0,59.9509960665318,2026-01-18 18h27.00.079641 +0530,
,,,,,,,,,,,,,,,,,,,,,,,,,,,,,,,,,,,38.037038500013296,38.05364440003177,38.05364440003177,38.05364440003177,38.05364440003177,38.05364440003177,41.73740360001102,space,3.6792959000449628,None,,,,,,,,,,,,,,,,,,,,,,,,,,,,,,,,,,,,00054,001,2026-01-18_18h26.51.352,MST_test,2024.2.0,59.9509960665318,2026-01-18 18h27.00.079641 +0530,
,,,,,,,,,,,,,,,,,,,,,,,,,,,,,,,,,,,,,,,,,,,,,41.737436300027184,41.75336850003805,41.75336850003805,57.48697050003102,space,15.731510399957187,None,,,,,,,,,,,,,,,,,,,,,,,,,,,,,00054,001,2026-01-18_18h26.51.352,MST_test,2024.2.0,59.9509960665318,2026-01-18 18h27.00.079641 +0530,
,,,,,,,,,,,,,,,,,,,,,,,,,,,,,,,,,,,,,,,,,,,,,,,,,,,,57.48700010002358,57.50330969999777,57.50330969999777,88.67082410003059,space,31.156883800053038,None,,,,,,,,,,,,,,,,,,,,,,00054,001,2026-01-18_18h26.51.352,MST_test,2024.2.0,59.9509960665318,2026-01-18 18h27.00.079641 +0530,
0,0,1,o,3.078720899997279,None,1,0,0,88.68654340005014,,,,,,,,,,,,,,,,,,,,,,,,,,,,,,,,,,,,,,,,,,,,,,,,,,88.67513870005496,88.68654340005014,89.18943490000675,89.17039870005101,89.18701530003455,89.18943490000675,89.18943490000675,89.18943490000675,92.27069210004993,Objects\108a.jpg,pre,o,3.078720899997279,None,,,,,,,,00054,001,2026-01-18_18h26.51.352,MST_test,2024.2.0,59.9509960665318,2026-01-18 18h27.00.079641 +0530,
1,0,2,o,1.8154647999908775,None,2,0,1,92.28673890000209,,,,,,,,,,,,,,,,,,,,,,,,,,,,,,,,,,,,,,,,,,,,,,,,,,92.27078730001813,92.28673890000209,92.78922210005112,92.77038370002992,92.78723010001704,92.78922210005112,92.78922210005112,92.78922210005112,94.62100300000748,Scenes\146a.jpg,post,o,1.8154647999908775,None,,,,,,,,00054,001,2026-01-18_18h26.51.352,MST_test,2024.2.0,59.9509960665318,2026-01-18 18h27.00.079641 +0530,
2,0,3,s,4.77918969996972,None,3,0,2,94.63661149999825,,,,,,,,,,,,,,,,,,,,,,,,,,,,,,,,,,,,,,,,,,,,,,,,,,94.62110270000994,94.63661149999825,95.13683610002045,95.12041810003575,95.13115850003669,95.13683610002045,95.13683610002045,95.13683610002045,99.92076340003405,Foils\scenes1.jpg,none,s,4.77918969996972,None,,,,,,,,00054,001,2026-01-18_18h26.51.352,MST_test,2024.2.0,59.9509960665318,2026-01-18 18h27.00.079641 +0530,
3,0,4,s,1.4308031999971718,None,4,0,3,99.93665550003061,,,,,,,,,,,,,,,,,,,,,,,,,,,,,,,,,,,,,,,,,,,,,,,,,,99.92088920000242,99.93665550003061,100.43725150002865,100.42054910003208,100.4317030000384,100.43725150002865,100.43725150002865,100.43725150002865,101.87058580003213,Objects\154b.jpg,mid,s,1.4308031999971718,None,,,,,,,,00054,001,2026-01-18_18h26.51.352,MST_test,2024.2.0,59.9509960665318,2026-01-18 18h27.00.079641 +0530,
4,0,5,o,1.794071200012695,None,5,0,4,101.88673280004878,,,,,,,,,,,,,,,,,,,,,,,,,,,,,,,,,,,,,,,,,,,,,,,,,,101.87067580001894,101.88673280004878,102.38690330000827,102.37039000005461,102.38012490002438,102.38690330000827,102.38690330000827,102.38690330000827,104.18740340002114,Objects\058b.jpg,pre,o,1.794071200012695,None,,,,,,,,00054,001,2026-01-18_18h26.51.352,MST_test,2024.2.0,59.9509960665318,2026-01-18 18h27.00.079641 +0530,
5,0,6,n,1.3569715000339784,None,6,0,5,104.20344450004632,,,,,,,,,,,,,,,,,,,,,,,,,,,,,,,,,,,,,,,,,,,,,,,,,,104.1874982000445,104.20344450004632,104.70365380001022,104.68685840000398,104.69592530000955,104.70365380001022,104.70365380001022,104.70365380001022,106.07093800004805,Foils\scenes5.jpg,none,n,1.3569715000339784,None,,,,,,,,00054,001,2026-01-18_18h26.51.352,MST_test,2024.2.0,59.9509960665318,2026-01-18 18h27.00.079641 +0530,
6,0,7,o,1.4814106000121683,None,7,0,6,106.08656630001497,,,,,,,,,,,,,,,,,,,,,,,,,,,,,,,,,,,,,,,,,,,,,,,,,,106.07103869999992,106.08656630001497,106.58702550001908,106.57025460002478,106.5803058000165,106.58702550001908,106.58702550001908,106.58702550001908,108.07077960000606,Objects\084b.jpg,mid,o,1.4814106000121683,None,,,,,,,,00054,001,2026-01-18_18h26.51.352,MST_test,2024.2.0,59.9509960665318,2026-01-18 18h27.00.079641 +0530,
7,0,8,o,1.279711299983319,None,8,0,7,108.08686000003945,,,,,,,,,,,,,,,,,,,,,,,,,,,,,,,,,,,,,,,,,,,,,,,,,,108.07087400002638,108.08686000003945,108.58965320000425,108.57024090003688,108.58748480002396,108.58965320000425,108.58965320000425,108.58965320000425,109.87088800000492,Scenes\119a.jpg,post,o,1.279711299983319,None,,,,,,,,00054,001,2026-01-18_18h26.51.352,MST_test,2024.2.0,59.9509960665318,2026-01-18 18h27.00.079641 +0530,
8,0,9,o,3.5834613000042737,None,9,0,8,109.88647310005035,,,,,,,,,,,,,,,,,,,,,,,,,,,,,,,,,,,,,,,,,,,,,,,,,,109.87098360003438,109.88647310005035,110.38940120005282,110.37032840005122,110.38688340003137,110.38940120005282,110.38940120005282,110.38940120005282,113.98724530002801,Scenes\124b.jpg,mid,o,3.5834613000042737,None,,,,,,,,00054,001,2026-01-18_18h26.51.352,MST_test,2024.2.0,59.9509960665318,2026-01-18 18h27.00.079641 +0530,
9,0,10,n,1.8009858999866992,None,10,0,9,114.00344140001107,,,,,,,,,,,,,,,,,,,,,,,,,,,,,,,,,,,,,,,,,,,,,,,,,,113.98733870004071,114.00344140001107,114.5078821000061,114.48693880002247,114.50547820003703,114.5078821000061,114.5078821000061,114.5078821000061,116.3206385000376,Scenes\076a.jpg,post,n,1.8009858999866992,None,,,,,,,,00054,001,2026-01-18_18h26.51.352,MST_test,2024.2.0,59.9509960665318,2026-01-18 18h27.00.079641 +0530,
10,0,11,s,2.0761639999691397,None,11,0,10,116.33663960004924,,,,,,,,,,,,,,,,,,,,,,,,,,,,,,,,,,,,,,,,,,,,,,,,,,116.32073950004997,116.33663960004924,116.84005660004914,116.82033490005415,116.83770550001645,116.84005660004914,116.84005660004914,116.84005660004914,118.92063110001618,Scenes\082a.jpg,post,s,2.0761639999691397,None,,,,,,,,00054,001,2026-01-18_18h26.51.352,MST_test,2024.2.0,59.9509960665318,2026-01-18 18h27.00.079641 +0530,
11,0,12,n,6.071448500035331,None,12,0,11,118.93680470000254,,,,,,,,,,,,,,,,,,,,,,,,,,,,,,,,,,,,,,,,,,,,,,,,,,118.92072520003421,118.93680470000254,119.4370902000228,119.42027470003814,119.42979320004815,119.4370902000228,119.4370902000228,119.4370902000228,125.52071330003673,Foils\scenes29.jpg,none,n,6.071448500035331,None,,,,,,,,00054,001,2026-01-18_18h26.51.352,MST_test,2024.2.0,59.9509960665318,2026-01-18 18h27.00.079641 +0530,
12,0,13,o,1.6825579999713227,None,13,0,12,125.53665340004954,,,,,,,,,,,,,,,,,,,,,,,,,,,,,,,,,,,,,,,,,,,,,,,,,,125.52080640004715,125.53665340004954,126.04193639999721,126.02030260005267,126.03980780002894,126.04193639999721,126.04193639999721,126.04193639999721,127.73723389999941,Scenes\060b.jpg,pre,o,1.6825579999713227,None,,,,,,,,00054,001,2026-01-18_18h26.51.352,MST_test,2024.2.0,59.9509960665318,2026-01-18 18h27.00.079641 +0530,
13,0,14,n,1.504560599976685,None,14,0,13,127.75342780002393,,,,,,,,,,,,,,,,,,,,,,,,,,,,,,,,,,,,,,,,,,,,,,,,,,127.73732569999993,127.75342780002393,128.3235052000382,128.23696790001122,128.32025080005405,128.3235052000382,128.3235052000382,128.3235052000382,129.83729390002554,Foils\scenes25.jpg,none,n,1.504560599976685,None,,,,,,,,00054,001,2026-01-18_18h26.51.352,MST_test,2024.2.0,59.9509960665318,2026-01-18 18h27.00.079641 +0530,
14,0,15,s,1.587410899985116,None,15,0,14,129.85340320004616,,,,,,,,,,,,,,,,,,,,,,,,,,,,,,,,,,,,,,,,,,,,,,,,,,129.83738700003596,129.85340320004616,130.36141020001378,130.3369988000486,130.3594736000523,130.36141020001378,130.36141020001378,130.36141020001378,131.95404160005273,Objects\018a.jpg,mid,s,1.587410899985116,None,,,,,,,,00054,001,2026-01-18_18h26.51.352,MST_test,2024.2.0,59.9509960665318,2026-01-18 18h27.00.079641 +0530,
15,0,16,o,2.2918153000064194,None,16,0,15,131.9700894000125,,,,,,,,,,,,,,,,,,,,,,,,,,,,,,,,,,,,,,,,,,,,,,,,,,131.9541431000107,131.9700894000125,132.47271830000682,132.45371110003907,132.47031130001415,132.47271830000682,132.47271830000682,132.47271830000682,134.77055820001988,Scenes\100a.jpg,post,o,2.2918153000064194,None,,,,,,,,00054,001,2026-01-18_18h26.51.352,MST_test,2024.2.0,59.9509960665318,2026-01-18 18h27.00.079641 +0530,
16,0,17,o,1.485518499976024,None,17,0,16,134.78648150002118,,,,,,,,,,,,,,,,,,,,,,,,,,,,,,,,,,,,,,,,,,,,,,,,,,134.77064800000517,134.78648150002118,135.28695320000406,135.2703359000152,135.28190110001015,135.28695320000406,135.28695320000406,135.28695320000406,136.78751950000878,Objects\141b.jpg,post,o,1.485518499976024,None,,,,,,,,00054,001,2026-01-18_18h26.51.352,MST_test,2024.2.0,59.9509960665318,2026-01-18 18h27.00.079641 +0530,
17,0,18,o,2.976660299987998,None,18,0,17,136.80349690001458,,,,,,,,,,,,,,,,,,,,,,,,,,,,,,,,,,,,,,,,,,,,,,,,,,136.78762340004323,136.80349690001458,137.30741440004203,137.28692420001607,137.30519500002265,137.30741440004203,137.30741440004203,137.30741440004203,140.28712600003928,Scenes\085b.jpg,post,o,2.976660299987998,None,,,,,,,,00054,001,2026-01-18_18h26.51.352,MST_test,2024.2.0,59.9509960665318,2026-01-18 18h27.00.079641 +0530,
18,0,19,n,1.5448810000088997,None,19,0,18,140.30327680002665,,,,,,,,,,,,,,,,,,,,,,,,,,,,,,,,,,,,,,,,,,,,,,,,,,140.28722030000063,140.30327680002665,140.80383180000354,140.78675379999913,140.79747480002698,140.80383180000354,140.80383180000354,140.80383180000354,142.35399420000613,Foils\002a.jpg,none,n,1.5448810000088997,None,,,,,,,,00054,001,2026-01-18_18h26.51.352,MST_test,2024.2.0,59.9509960665318,2026-01-18 18h27.00.079641 +0530,
19,0,20,o,0.870876400033012,None,20,0,19,142.36993810004788,,,,,,,,,,,,,,,,,,,,,,,,,,,,,,,,,,,,,,,,,,,,,,,,,,142.35408630000893,142.36993810004788,142.87022240000078,142.85364900005516,142.86324080004124,142.87022240000078,142.87022240000078,142.87022240000078,143.7537913999986,Objects\100b.jpg,post,o,0.870876400033012,None,,,,,,,,00054,001,2026-01-18_18h26.51.352,MST_test,2024.2.0,59.9509960665318,2026-01-18 18h27.00.079641 +0530,
20,0,21,o,1.0223054999951273,None,21,0,20,143.76992440002505,,,,,,,,,,,,,,,,,,,,,,,,,,,,,,,,,,,,,,,,,,,,,,,,,,143.75388340000063,143.76992440002505,144.2703662000131,144.2535971000325,144.2633371000411,144.2703662000131,144.2703662000131,144.2703662000131,145.30388990003848,Objects\168a.jpg,mid,o,1.0223054999951273,None,,,,,,,,00054,001,2026-01-18_18h26.51.352,MST_test,2024.2.0,59.9509960665318,2026-01-18 18h27.00.079641 +0530,
21,0,22,o,0.9076724000042304,None,22,0,21,145.31993070000317,,,,,,,,,,,,,,,,,,,,,,,,,,,,,,,,,,,,,,,,,,,,,,,,,,145.30398419999983,145.31993070000317,145.82447220000904,145.8035786000546,145.82226320001064,145.82447220000904,145.82447220000904,145.82447220000904,146.7372914000298,Scenes\001b.jpg,pre,o,0.9076724000042304,None,,,,,,,,00054,001,2026-01-18_18h26.51.352,MST_test,2024.2.0,59.9509960665318,2026-01-18 18h27.00.079641 +0530,
22,0,23,n,2.774880300043151,None,23,0,22,146.75356690003537,,,,,,,,,,,,,,,,,,,,,,,,,,,,,,,,,,,,,,,,,,,,,,,,,,146.73738370003412,146.75356690003537,147.2537875000271,147.23687390005216,147.24706290004542,147.2537875000271,147.2537875000271,147.2537875000271,150.03704429999925,Foils\010a.jpg,none,n,2.774880300043151,None,,,,,,,,00054,001,2026-01-18_18h26.51.352,MST_test,2024.2.0,59.9509960665318,2026-01-18 18h27.00.079641 +0530,
23,0,24,o,2.683424999995623,None,24,0,23,150.05330790003063,,,,,,,,,,,,,,,,,,,,,,,,,,,,,,,,,,,,,,,,,,,,,,,,,,150.03713930002414,150.05330790003063,150.55359610001324,150.53675770002883,150.5462724000099,150.55359610001324,150.55359610001324,150.55359610001324,153.253797100042,Objects\133b.jpg,mid,o,2.683424999995623,None,,,,,,,,00054,001,2026-01-18_18h26.51.352,MST_test,2024.2.0,59.9509960665318,2026-01-18 18h27.00.079641 +0530,
24,0,25,o,1.0025667999871075,None,25,0,24,153.26997970003868,,,,,,,,,,,,,,,,,,,,,,,,,,,,,,,,,,,,,,,,,,,,,,,,,,153.2538933000178,153.26997970003868,153.77022290002787,153.75362850003876,153.76335590000963,153.77022290002787,153.77022290002787,153.77022290002787,154.78708490001736,Objects\175b.jpg,pre,o,1.0025667999871075,None,,,,,,,,00054,001,2026-01-18_18h26.51.352,MST_test,2024.2.0,59.9509960665318,2026-01-18 18h27.00.079641 +0530,
25,0,26,o,1.1494151999941096,None,26,0,25,154.8033129000105,,,,,,,,,,,,,,,,,,,,,,,,,,,,,,,,,,,,,,,,,,,,,,,,,,154.78718060004758,154.8033129000105,155.30355320003582,155.28685000003316,155.2963405000046,155.30355320003582,155.30355320003582,155.30355320003582,156.4539320000331,Objects\109b.jpg,mid,o,1.1494151999941096,None,,,,,,,,00054,001,2026-01-18_18h26.51.352,MST_test,2024.2.0,59.9509960665318,2026-01-18 18h27.00.079641 +0530,
26,0,27,o,0.9299311999930069,None,27,0,26,156.4700209000148,,,,,,,,,,,,,,,,,,,,,,,,,,,,,,,,,,,,,,,,,,,,,,,,,,156.45402660005493,156.4700209000148,156.97020930005237,156.95374660001835,156.9639431000105,156.97020930005237,156.97020930005237,156.97020930005237,157.90383980004117,Objects\112a.jpg,mid,o,0.9299311999930069,None,,,,,,,,00054,001,2026-01-18_18h26.51.352,MST_test,2024.2.0,59.9509960665318,2026-01-18 18h27.00.079641 +0530,
27,0,28,s,1.6879677000106312,None,28,0,27,157.92002210003557,,,,,,,,,,,,,,,,,,,,,,,,,,,,,,,,,,,,,,,,,,,,,,,,,,157.9039352000109,157.92002210003557,158.4202197000268,158.40358840004774,158.41333430004306,158.4202197000268,158.4202197000268,158.4202197000268,160.12053450004896,Objects\033b.jpg,pre,s,1.6879677000106312,None,,,,,,,,00054,001,2026-01-18_18h26.51.352,MST_test,2024.2.0,59.9509960665318,2026-01-18 18h27.00.079641 +0530,
28,0,29,o,1.591683299979195,None,29,0,28,160.13658410002245,,,,,,,,,,,,,,,,,,,,,,,,,,,,,,,,,,,,,,,,,,,,,,,,,,160.1206268000533,160.13658410002245,160.637238299998,160.62029440002516,160.63498360000085,160.637238299998,160.637238299998,160.637238299998,162.23725390003528,Scenes\042a.jpg,pre,o,1.591683299979195,None,,,,,,,,00054,001,2026-01-18_18h26.51.352,MST_test,2024.2.0,59.9509960665318,2026-01-18 18h27.00.079641 +0530,
29,0,30,n,1.600292699993588,None,30,0,29,162.25333410000894,,,,,,,,,,,,,,,,,,,,,,,,,,,,,,,,,,,,,,,,,,,,,,,,,,162.23735380003927,162.25333410000894,162.75671650003642,162.73683910002,162.75463700003456,162.75671650003642,162.75671650003642,162.75671650003642,164.37059620005311,Scenes\128b.jpg,post,n,1.600292699993588,None,,,,,,,,00054,001,2026-01-18_18h26.51.352,MST_test,2024.2.0,59.9509960665318,2026-01-18 18h27.00.079641 +0530,
30,0,31,o,2.590215799980797,None,31,0,30,164.38659340003505,,,,,,,,,,,,,,,,,,,,,,,,,,,,,,,,,,,,,,,,,,,,,,,,,,164.3706891000038,164.38659340003505,164.88710570003605,164.87023490003776,164.8811761000543,164.88710570003605,164.88710570003605,164.88710570003605,167.48725920001743,Objects\072a.jpg,pre,o,2.590215799980797,None,,,,,,,,00054,001,2026-01-18_18h26.51.352,MST_test,2024.2.0,59.9509960665318,2026-01-18 18h27.00.079641 +0530,
31,0,32,o,2.080496500013396,None,32,0,31,167.50336850003805,,,,,,,,,,,,,,,,,,,,,,,,,,,,,,,,,,,,,,,,,,,,,,,,,,167.48736750002718,167.50336850003805,168.00406750000548,167.98666250001406,168.00183580000885,168.00406750000548,168.00406750000548,168.00406750000548,170.0871116000344,Scenes\182b.jpg,pre,o,2.080496500013396,None,,,,,,,,00054,001,2026-01-18_18h26.51.352,MST_test,2024.2.0,59.9509960665318,2026-01-18 18h27.00.079641 +0530,
32,0,33,s,1.3452976999687962,None,33,0,32,170.10357310000109,,,,,,,,,,,,,,,,,,,,,,,,,,,,,,,,,,,,,,,,,,,,,,,,,,170.0872040000395,170.10357310000109,170.60372980003012,170.58689730003243,170.59590930002742,170.60372980003012,170.60372980003012,170.60372980003012,171.95391820004443,Foils\scenes7.jpg,none,s,1.3452976999687962,None,,,,,,,,00054,001,2026-01-18_18h26.51.352,MST_test,2024.2.0,59.9509960665318,2026-01-18 18h27.00.079641 +0530,
33,0,34,n,1.1588133000186644,None,34,0,33,171.96999470004812,,,,,,,,,,,,,,,,,,,,,,,,,,,,,,,,,,,,,,,,,,,,,,,,,,171.95405790000223,171.96999470004812,172.47025550005492,172.45361370005412,172.46280960005242,172.47025550005492,172.47025550005492,172.47025550005492,173.63722050003707,Foils\scenes4.jpg,none,n,1.1588133000186644,None,,,,,,,,00054,001,2026-01-18_18h26.51.352,MST_test,2024.2.0,59.9509960665318,2026-01-18 18h27.00.079641 +0530,
34,0,35,s,1.571047599951271,None,35,0,34,173.6532563000219,,,,,,,,,,,,,,,,,,,,,,,,,,,,,,,,,,,,,,,,,,,,,,,,,,173.63731170003302,173.6532563000219,174.15364600002067,174.13673850003397,174.14721490000375,174.15364600002067,174.15364600002067,174.15364600002067,175.7371955999988,Objects\090b.jpg,post,s,1.571047599951271,None,,,,,,,,00054,001,2026-01-18_18h26.51.352,MST_test,2024.2.0,59.9509960665318,2026-01-18 18h27.00.079641 +0530,
35,0,36,o,1.4225415000109933,None,36,0,35,175.7533360000234,,,,,,,,,,,,,,,,,,,,,,,,,,,,,,,,,,,,,,,,,,,,,,,,,,175.7372901000199,175.7533360000234,176.2546286000288,176.23686750000343,176.2526359000476,176.2546286000288,176.2546286000288,176.2546286000288,177.68746960000135,Scenes\092a.jpg,mid,o,1.4225415000109933,None,,,,,,,,00054,001,2026-01-18_18h26.51.352,MST_test,2024.2.0,59.9509960665318,2026-01-18 18h27.00.079641 +0530,
36,0,37,o,1.57486809999682,None,37,0,36,177.70347940002102,,,,,,,,,,,,,,,,,,,,,,,,,,,,,,,,,,,,,,,,,,,,,,,,,,177.68756890000077,177.70347940002102,178.2065539000323,178.1868333000457,178.20449530001497,178.2065539000323,178.2065539000323,178.2065539000323,179.7870615000138,Scenes\059b.jpg,mid,o,1.57486809999682,None,,,,,,,,00054,001,2026-01-18_18h26.51.352,MST_test,2024.2.0,59.9509960665318,2026-01-18 18h27.00.079641 +0530,
37,0,38,s,1.6922333000111394,None,38,0,37,179.803338000027,,,,,,,,,,,,,,,,,,,,,,,,,,,,,,,,,,,,,,,,,,,,,,,,,,179.78715380001813,179.803338000027,180.30393160000676,180.28710580000188,180.297449900012,180.30393160000676,180.30393160000676,180.30393160000676,182.00381890003337,Foils\scenes18.jpg,none,s,1.6922333000111394,None,,,,,,,,00054,001,2026-01-18_18h26.51.352,MST_test,2024.2.0,59.9509960665318,2026-01-18 18h27.00.079641 +0530,
38,0,39,o,1.4278030999703333,None,39,0,38,182.01999370002886,,,,,,,,,,,,,,,,,,,,,,,,,,,,,,,,,,,,,,,,,,,,,,,,,,182.0039099000278,182.01999370002886,182.52031950000674,182.5035526000429,182.5135953000281,182.52031950000674,182.52031950000674,182.52031950000674,183.95387850003317,Objects\071b.jpg,post,o,1.4278030999703333,None,,,,,,,,00054,001,2026-01-18_18h26.51.352,MST_test,2024.2.0,59.9509960665318,2026-01-18 18h27.00.079641 +0530,
39,0,40,o,1.0350084000383504,None,40,0,39,183.96999200002756,,,,,,,,,,,,,,,,,,,,,,,,,,,,,,,,,,,,,,,,,,,,,,,,,,183.95397020003293,183.96999200002756,184.4733432000503,184.45361360005336,184.4712545000366,184.4733432000503,184.4733432000503,184.4733432000503,185.52069720003055,Scenes\040b.jpg,pre,o,1.0350084000383504,None,,,,,,,,00054,001,2026-01-18_18h26.51.352,MST_test,2024.2.0,59.9509960665318,2026-01-18 18h27.00.079641 +0530,
40,0,41,n,2.863631099986378,None,41,0,40,185.53654970001662,,,,,,,,,,,,,,,,,,,,,,,,,,,,,,,,,,,,,,,,,,,,,,,,,,185.5207933000056,185.53654970001662,186.03712300001644,186.02019740000833,186.0298684000154,186.03712300001644,186.03712300001644,186.03712300001644,188.90399560000515,Foils\018a.jpg,none,n,2.863631099986378,None,,,,,,,,00054,001,2026-01-18_18h26.51.352,MST_test,2024.2.0,59.9509960665318,2026-01-18 18h27.00.079641 +0530,
41,0,42,s,2.5845099999569356,None,42,0,41,188.9199353000149,,,,,,,,,,,,,,,,,,,,,,,,,,,,,,,,,,,,,,,,,,,,,,,,,,188.90408870001556,188.9199353000149,189.42021340003703,189.4035955000436,189.41274830000475,189.42021340003703,189.42021340003703,189.42021340003703,192.02098230004776,Objects\123b.jpg,mid,s,2.5845099999569356,None,,,,,,,,00054,001,2026-01-18_18h26.51.352,MST_test,2024.2.0,59.9509960665318,2026-01-18 18h27.00.079641 +0530,
42,0,43,o,1.531850499974098,None,43,0,42,192.03660340001807,,,,,,,,,,,,,,,,,,,,,,,,,,,,,,,,,,,,,,,,,,,,,,,,,,192.02108660002705,192.03660340001807,192.53679930005455,192.52027600002475,192.5300195000018,192.53679930005455,192.53679930005455,192.53679930005455,194.0707177000004,Objects\049a.jpg,mid,o,1.531850499974098,None,,,,,,,,00054,001,2026-01-18_18h26.51.352,MST_test,2024.2.0,59.9509960665318,2026-01-18 18h27.00.079641 +0530,
43,0,44,o,1.3494082000106573,None,44,0,43,194.08660520002013,,,,,,,,,,,,,,,,,,,,,,,,,,,,,,,,,,,,,,,,,,,,,,,,,,194.07081280002603,194.08660520002013,194.59136540000327,194.57033390004653,194.58913130004657,194.59136540000327,194.59136540000327,194.59136540000327,195.95405970001593,Scenes\021b.jpg,post,o,1.3494082000106573,None,,,,,,,,00054,001,2026-01-18_18h26.51.352,MST_test,2024.2.0,59.9509960665318,2026-01-18 18h27.00.079641 +0530,
44,0,45,o,1.4913770999992266,None,45,0,44,195.9700193000026,,,,,,,,,,,,,,,,,,,,,,,,,,,,,,,,,,,,,,,,,,,,,,,,,,195.95415210002102,195.9700193000026,196.4727253000019,196.45367410004837,196.47046860004775,196.4727253000019,196.4727253000019,196.4727253000019,197.97077760001412,Scenes\101a.jpg,pre,o,1.4913770999992266,None,,,,,,,,00054,001,2026-01-18_18h26.51.352,MST_test,2024.2.0,59.9509960665318,2026-01-18 18h27.00.079641 +0530,
45,0,46,n,1.1251313999528065,None,46,0,45,197.98676990001695,,,,,,,,,,,,,,,,,,,,,,,,,,,,,,,,,,,,,,,,,,,,,,,,,,197.97086940001464,197.98676990001695,198.4872491999995,198.4704361000331,198.4804165000096,198.4872491999995,198.4872491999995,198.4872491999995,199.62066020001657,Foils\097a.jpg,none,n,1.1251313999528065,None,,,,,,,,00054,001,2026-01-18_18h26.51.352,MST_test,2024.2.0,59.9509960665318,2026-01-18 18h27.00.079641 +0530,
46,0,47,o,1.2511877000215463,None,47,0,46,199.63653060002252,,,,,,,,,,,,,,,,,,,,,,,,,,,,,,,,,,,,,,,,,,,,,,,,,,199.62076270004036,199.63653060002252,200.1368846000405,200.1203561000293,200.12980580003932,200.1368846000405,200.1368846000405,200.1368846000405,201.40420930000255,Objects\053b.jpg,post,o,1.2511877000215463,None,,,,,,,,00054,001,2026-01-18_18h26.51.352,MST_test,2024.2.0,59.9509960665318,2026-01-18 18h27.00.079641 +0530,
47,0,48,s,1.7788937000441365,None,48,0,47,201.42021420004312,,,,,,,,,,,,,,,,,,,,,,,,,,,,,,,,,,,,,,,,,,,,,,,,,,201.40430650004419,201.42021420004312,201.92118930001743,201.90369530004682,201.9191303999978,201.92118930001743,201.92118930001743,201.92118930001743,203.70390010002302,Scenes\126b.jpg,pre,s,1.7788937000441365,None,,,,,,,,00054,001,2026-01-18_18h26.51.352,MST_test,2024.2.0,59.9509960665318,2026-01-18 18h27.00.079641 +0530,
48,0,49,o,3.2724041999899782,None,49,0,48,203.7200656000059,,,,,,,,,,,,,,,,,,,,,,,,,,,,,,,,,,,,,,,,,,,,,,,,,,203.70399180002278,203.7200656000059,204.22047590004513,204.2038042000495,204.2146109000314,204.22047590004513,204.22047590004513,204.22047590004513,207.50414670002647,Objects\144b.jpg,post,o,3.2724041999899782,None,,,,,,,,00054,001,2026-01-18_18h26.51.352,MST_test,2024.2.0,59.9509960665318,2026-01-18 18h27.00.079641 +0530,
49,0,50,o,1.093358599988278,None,50,0,49,207.52002430002904,,,,,,,,,,,,,,,,,,,,,,,,,,,,,,,,,,,,,,,,,,,,,,,,,,207.50423880002927,207.52002430002904,208.02271940000355,208.00364140002057,208.02057430002606,208.02271940000355,208.02271940000355,208.02271940000355,209.12148580001667,Scenes\165a.jpg,mid,o,1.093358599988278,None,,,,,,,,00054,001,2026-01-18_18h26.51.352,MST_test,2024.2.0,59.9509960665318,2026-01-18 18h27.00.079641 +0530,
50,0,51,s,3.7096026000217535,None,51,0,50,209.13677400001325,,,,,,,,,,,,,,,,,,,,,,,,,,,,,,,,,,,,,,,,,,,,,,,,,,209.12157750001643,209.13677400001325,209.6470443000435,209.62049020000268,209.64441390003776,209.6470443000435,209.6470443000435,209.6470443000435,213.37069619999966,Foils\scenes23.jpg,none,s,3.7096026000217535,None,,,,,,,,00054,001,2026-01-18_18h26.51.352,MST_test,2024.2.0,59.9509960665318,2026-01-18 18h27.00.079641 +0530,
51,0,52,o,1.1807964000036009,None,52,0,51,213.38667100004386,,,,,,,,,,,,,,,,,,,,,,,,,,,,,,,,,,,,,,,,,,,,,,,,,,213.3707876999979,213.38667100004386,213.887461300008,213.87035530002322,213.88018140004715,213.887461300008,213.887461300008,213.887461300008,215.07079900003737,Objects\174a.jpg,pre,o,1.1807964000036009,None,,,,,,,,00054,001,2026-01-18_18h26.51.352,MST_test,2024.2.0,59.9509960665318,2026-01-18 18h27.00.079641 +0530,
52,0,53,o,1.0064449000055902,None,53,0,52,215.08699480001815,,,,,,,,,,,,,,,,,,,,,,,,,,,,,,,,,,,,,,,,,,,,,,,,,,215.07089030003408,215.08699480001815,215.59090770001058,215.5703578000539,215.5886562000378,215.59090770001058,215.59090770001058,215.59090770001058,216.60414140002104,Scenes\009b.jpg,mid,o,1.0064449000055902,None,,,,,,,,00054,001,2026-01-18_18h26.51.352,MST_test,2024.2.0,59.9509960665318,2026-01-18 18h27.00.079641 +0530,
53,0,54,o,0.8043211000040174,None,54,0,53,216.62004380003782,,,,,,,,,,,,,,,,,,,,,,,,,,,,,,,,,,,,,,,,,,,,,,,,,,216.60425860004034,216.62004380003782,217.12067030003527,217.10375820001354,217.11399179999717,217.12067030003527,217.12067030003527,217.12067030003527,217.93731440004194,Objects\054a.jpg,mid,o,0.8043211000040174,None,,,,,,,,00054,001,2026-01-18_18h26.51.352,MST_test,2024.2.0,59.9509960665318,2026-01-18 18h27.00.079641 +0530,
54,0,55,o,0.6944434000179172,None,55,0,54,217.953595900035,,,,,,,,,,,,,,,,,,,,,,,,,,,,,,,,,,,,,,,,,,,,,,,,,,217.9374128000345,217.953595900035,218.45367650000844,218.43701839999994,218.44625070004258,218.45367650000844,218.45367650000844,218.45367650000844,219.1541132000275,Objects\169b.jpg,post,o,0.6944434000179172,None,,,,,,,,00054,001,2026-01-18_18h26.51.352,MST_test,2024.2.0,59.9509960665318,2026-01-18 18h27.00.079641 +0530,
55,0,56,o,0.9022672999999486,None,56,0,55,219.17006970004877,,,,,,,,,,,,,,,,,,,,,,,,,,,,,,,,,,,,,,,,,,,,,,,,,,219.15420820005238,219.17006970004877,219.67063730000518,219.65372230001958,219.66479090001667,219.67063730000518,219.67063730000518,219.67063730000518,220.58732190000592,Scenes\008b.jpg,post,o,0.9022672999999486,None,,,,,,,,00054,001,2026-01-18_18h26.51.352,MST_test,2024.2.0,59.9509960665318,2026-01-18 18h27.00.079641 +0530,
56,0,57,o,0.8006873999838717,None,57,0,56,220.60345270001562,,,,,,,,,,,,,,,,,,,,,,,,,,,,,,,,,,,,,,,,,,,,,,,,,,220.58741390000796,220.60345270001562,221.10734080005204,221.0873921000166,221.1052403000067,221.10734080005204,221.10734080005204,221.10734080005204,221.92064780002693,Scenes\066b.jpg,post,o,0.8006873999838717,None,,,,,,,,00054,001,2026-01-18_18h26.51.352,MST_test,2024.2.0,59.9509960665318,2026-01-18 18h27.00.079641 +0530,
57,0,58,n,1.40239920001477,None,58,0,57,221.93675090000033,,,,,,,,,,,,,,,,,,,,,,,,,,,,,,,,,,,,,,,,,,,,,,,,,,221.9207410000381,221.93675090000033,222.4430034000543,222.42029800004093,222.44050440000137,222.4430034000543,222.4430034000543,222.4430034000543,223.8543247000198,Foils\scenes28.jpg,none,n,1.40239920001477,None,,,,,,,,00054,001,2026-01-18_18h26.51.352,MST_test,2024.2.0,59.9509960665318,2026-01-18 18h27.00.079641 +0530,
58,0,59,s,1.3774107999633998,None,59,0,58,223.87005670001963,,,,,,,,,,,,,,,,,,,,,,,,,,,,,,,,,,,,,,,,,,,,,,,,,,223.8544261000352,223.87005670001963,224.37084500002675,224.35371600004146,224.36547130002873,224.37084500002675,224.37084500002675,224.37084500002675,225.75391900003888,Scenes\096b.jpg,mid,s,1.3774107999633998,None,,,,,,,,00054,001,2026-01-18_18h26.51.352,MST_test,2024.2.0,59.9509960665318,2026-01-18 18h27.00.079641 +0530,
59,0,60,n,1.2134949999745004,None,60,0,59,225.77011380001204,,,,,,,,,,,,,,,,,,,,,,,,,,,,,,,,,,,,,,,,,,,,,,,,,,225.75401350000175,225.77011380001204,226.27050050004618,226.25364110001829,226.262698800012,226.27050050004618,226.27050050004618,226.27050050004618,227.4873258000007,Foils\scenes12.jpg,none,n,1.2134949999745004,None,,,,,,,,00054,001,2026-01-18_18h26.51.352,MST_test,2024.2.0,59.9509960665318,2026-01-18 18h27.00.079641 +0530,
60,0,61,s,1.6571647999808192,None,61,0,60,227.50345680001192,,,,,,,,,,,,,,,,,,,,,,,,,,,,,,,,,,,,,,,,,,,,,,,,,,227.48742010002024,227.50345680001192,228.00372090004385,227.98702420003247,227.99782430002233,228.00372090004385,228.00372090004385,228.00372090004385,229.6707063000067,Objects\110b.jpg,mid,s,1.6571647999808192,None,,,,,,,,00054,001,2026-01-18_18h26.51.352,MST_test,2024.2.0,59.9509960665318,2026-01-18 18h27.00.079641 +0530,
61,0,62,o,2.145583399978932,None,62,0,61,229.68678320001345,,,,,,,,,,,,,,,,,,,,,,,,,,,,,,,,,,,,,,,,,,,,,,,,,,229.67081130004954,229.68678320001345,230.1869771000347,230.17027070000768,230.17960560001666,230.1869771000347,230.1869771000347,230.1869771000347,232.33702400000766,Objects\124b.jpg,pre,o,2.145583399978932,None,,,,,,,,00054,001,2026-01-18_18h26.51.352,MST_test,2024.2.0,59.9509960665318,2026-01-18 18h27.00.079641 +0530,
62,0,63,o,0.9796369000105187,None,63,0,62,232.35345160000725,,,,,,,,,,,,,,,,,,,,,,,,,,,,,,,,,,,,,,,,,,,,,,,,,,232.3371181000257,232.35345160000725,232.85758680000436,232.83702710003126,232.85542380000697,232.85758680000436,232.85758680000436,232.85758680000436,233.854041100014,Scenes\086b.jpg,pre,o,0.9796369000105187,None,,,,,,,,00054,001,2026-01-18_18h26.51.352,MST_test,2024.2.0,59.9509960665318,2026-01-18 18h27.00.079641 +0530,
63,0,64,o,1.399261100043077,None,64,0,63,233.87006310001016,,,,,,,,,,,,,,,,,,,,,,,,,,,,,,,,,,,,,,,,,,,,,,,,,,233.85413620003965,233.87006310001016,234.37416270002723,234.35372670000652,234.3718588000047,234.37416270002723,234.37416270002723,234.37416270002723,235.78734140004963,Scenes\025a.jpg,mid,o,1.399261100043077,None,,,,,,,,00054,001,2026-01-18_18h26.51.352,MST_test,2024.2.0,59.9509960665318,2026-01-18 18h27.00.079641 +0530,
64,0,65,s,1.388076799979899,None,65,0,64,235.80342920002295,,,,,,,,,,,,,,,,,,,,,,,,,,,,,,,,,,,,,,,,,,,,,,,,,,235.78743550000945,235.80342920002295,236.30394920002436,236.2869412000291,236.3017445000005,236.30394920002436,236.30394920002436,236.30394920002436,237.70404020004207,Scenes\116b.jpg,post,s,1.388076799979899,None,,,,,,,,00054,001,2026-01-18_18h26.51.352,MST_test,2024.2.0,59.9509960665318,2026-01-18 18h27.00.079641 +0530,
65,0,66,o,0.84848869999405,None,66,0,65,237.72006960003637,,,,,,,,,,,,,,,,,,,,,,,,,,,,,,,,,,,,,,,,,,,,,,,,,,237.70413230004488,237.72006960003637,238.22041290003108,238.20354190003127,238.21346460003406,238.22041290003108,238.22041290003108,238.22041290003108,239.07074850000208,Objects\107a.jpg,mid,o,0.84848869999405,None,,,,,,,,00054,001,2026-01-18_18h26.51.352,MST_test,2024.2.0,59.9509960665318,2026-01-18 18h27.00.079641 +0530,
66,0,67,s,1.353205399995204,None,67,0,66,239.08674070000416,,,,,,,,,,,,,,,,,,,,,,,,,,,,,,,,,,,,,,,,,,,,,,,,,,239.07084430003306,239.08674070000416,239.5869970000349,239.57037190004485,239.5801617000252,239.5869970000349,239.5869970000349,239.5869970000349,240.95391520002158,Objects\013b.jpg,pre,s,1.353205399995204,None,,,,,,,,00054,001,2026-01-18_18h26.51.352,MST_test,2024.2.0,59.9509960665318,2026-01-18 18h27.00.079641 +0530,
67,0,68,s,0.8622422000044025,None,68,0,67,240.9700651000021,,,,,,,,,,,,,,,,,,,,,,,,,,,,,,,,,,,,,,,,,,,,,,,,,,240.95400770002743,240.9700651000021,241.47034470003564,241.45374330005143,241.46303980000084,241.47034470003564,241.47034470003564,241.47034470003564,242.3372438000515,Objects\146b.jpg,pre,s,0.8622422000044025,None,,,,,,,,00054,001,2026-01-18_18h26.51.352,MST_test,2024.2.0,59.9509960665318,2026-01-18 18h27.00.079641 +0530,
68,0,69,s,1.791114599967841,None,69,0,68,242.35347820003517,,,,,,,,,,,,,,,,,,,,,,,,,,,,,,,,,,,,,,,,,,,,,,,,,,242.33733550005127,242.35347820003517,242.85367900005076,242.83694480004488,242.846334700007,242.85367900005076,242.85367900005076,242.85367900005076,244.65413200005423,Objects\081a.jpg,post,s,1.791114599967841,None,,,,,,,,00054,001,2026-01-18_18h26.51.352,MST_test,2024.2.0,59.9509960665318,2026-01-18 18h27.00.079641 +0530,
69,0,70,n,1.6502483999938704,None,70,0,69,244.67004820000147,,,,,,,,,,,,,,,,,,,,,,,,,,,,,,,,,,,,,,,,,,,,,,,,,,244.65423380001448,244.67004820000147,245.1705252000247,245.1537388000288,245.16589770000428,245.1705252000247,245.1705252000247,245.1705252000247,246.8372878000373,Scenes\123b.jpg,mid,n,1.6502483999938704,None,,,,,,,,00054,001,2026-01-18_18h26.51.352,MST_test,2024.2.0,59.9509960665318,2026-01-18 18h27.00.079641 +0530,
70,0,71,s,2.898251600039657,None,71,0,70,246.85335010004928,,,,,,,,,,,,,,,,,,,,,,,,,,,,,,,,,,,,,,,,,,,,,,,,,,246.8373861000291,246.85335010004928,247.3539446000359,247.3370252000168,247.3468547000084,247.3539446000359,247.3539446000359,247.3539446000359,250.25400810001884,Objects\176b.jpg,post,s,2.898251600039657,None,,,,,,,,00054,001,2026-01-18_18h26.51.352,MST_test,2024.2.0,59.9509960665318,2026-01-18 18h27.00.079641 +0530,
71,0,72,n,3.25048109999625,None,72,0,71,250.27006920002168,,,,,,,,,,,,,,,,,,,,,,,,,,,,,,,,,,,,,,,,,,,,,,,,,,250.25410130003002,250.27006920002168,250.770249000052,250.75368150003487,250.76336540002376,250.770249000052,250.770249000052,250.770249000052,254.03730690001976,Foils\017a.jpg,none,n,3.25048109999625,None,,,,,,,,00054,001,2026-01-18_18h26.51.352,MST_test,2024.2.0,59.9509960665318,2026-01-18 18h27.00.079641 +0530,
72,0,73,s,1.5151558999787085,None,73,0,72,254.05345770000713,,,,,,,,,,,,,,,,,,,,,,,,,,,,,,,,,,,,,,,,,,,,,,,,,,254.03739830001723,254.05345770000713,254.55355140002212,254.53684900002554,254.546071400051,254.55355140002212,254.55355140002212,254.55355140002212,256.0706325000501,Objects\150a.jpg,pre,s,1.5151558999787085,None,,,,,,,,00054,001,2026-01-18_18h26.51.352,MST_test,2024.2.0,59.9509960665318,2026-01-18 18h27.00.079641 +0530,
73,0,74,o,0.9509759999928065,None,74,0,73,256.08651800005464,,,,,,,,,,,,,,,,,,,,,,,,,,,,,,,,,,,,,,,,,,,,,,,,,,256.0707288000267,256.08651800005464,256.5900375000201,256.57020710001234,256.58808300003875,256.5900375000201,256.5900375000201,256.5900375000201,257.55429180001374,Scenes\058a.jpg,pre,o,0.9509759999928065,None,,,,,,,,00054,001,2026-01-18_18h26.51.352,MST_test,2024.2.0,59.9509960665318,2026-01-18 18h27.00.079641 +0530,
74,0,75,o,0.8304338000016287,None,75,0,74,257.5700946000288,,,,,,,,,,,,,,,,,,,,,,,,,,,,,,,,,,,,,,,,,,,,,,,,,,257.5544035000494,257.5700946000288,258.07094130001497,258.0537431000266,258.0685384000535,258.07094130001497,258.07094130001497,258.07094130001497,258.9039372000261,Scenes\077a.jpg,pre,o,0.8304338000016287,None,,,,,,,,00054,001,2026-01-18_18h26.51.352,MST_test,2024.2.0,59.9509960665318,2026-01-18 18h27.00.079641 +0530,
75,0,76,s,2.0961628000368364,None,76,0,75,258.92003790003946,,,,,,,,,,,,,,,,,,,,,,,,,,,,,,,,,,,,,,,,,,,,,,,,,,258.90403050003806,258.92003790003946,259.42060200002743,259.40374259999953,259.41292300005443,259.42060200002743,259.42060200002743,259.42060200002743,261.52056910004467,Foils\scenes16.jpg,none,s,2.0961628000368364,None,,,,,,,,00054,001,2026-01-18_18h26.51.352,MST_test,2024.2.0,59.9509960665318,2026-01-18 18h27.00.079641 +0530,
76,0,77,o,1.2393228000146337,None,77,0,76,261.536576100043,,,,,,,,,,,,,,,,,,,,,,,,,,,,,,,,,,,,,,,,,,,,,,,,,,261.52067210001405,261.536576100043,262.0370620000176,262.02027190005174,262.03304130001925,262.0370620000176,262.0370620000176,262.0370620000176,263.2869752999977,Scenes\080a.jpg,mid,o,1.2393228000146337,None,,,,,,,,00054,001,2026-01-18_18h26.51.352,MST_test,2024.2.0,59.9509960665318,2026-01-18 18h27.00.079641 +0530,
77,0,78,n,1.2169985999935307,None,78,0,77,263.3033610000275,,,,,,,,,,,,,,,,,,,,,,,,,,,,,,,,,,,,,,,,,,,,,,,,,,263.2870708000264,263.3033610000275,263.80347760004224,263.78679830004694,263.79760480002733,263.80347760004224,263.80347760004224,263.80347760004224,265.03746650001267,Foils\scenes11.jpg,none,n,1.2169985999935307,None,,,,,,,,00054,001,2026-01-18_18h26.51.352,MST_test,2024.2.0,59.9509960665318,2026-01-18 18h27.00.079641 +0530,
78,0,79,n,4.710355799994431,None,79,0,78,265.0533429000061,,,,,,,,,,,,,,,,,,,,,,,,,,,,,,,,,,,,,,,,,,,,,,,,,,265.03756360005355,265.0533429000061,265.55775230005383,265.5368819000432,265.55572570004733,265.55775230005383,265.55775230005383,265.55775230005383,270.2708107000217,Scenes\054a.jpg,pre,n,4.710355799994431,None,,,,,,,,00054,001,2026-01-18_18h26.51.352,MST_test,2024.2.0,59.9509960665318,2026-01-18 18h27.00.079641 +0530,
79,0,80,o,1.3618587999953888,None,80,0,79,270.2865237000515,,,,,,,,,,,,,,,,,,,,,,,,,,,,,,,,,,,,,,,,,,,,,,,,,,270.2709100000211,270.2865237000515,270.78708410001127,270.7703010000405,270.78037560003577,270.78708410001127,270.78708410001127,270.78708410001127,272.15416790003655,Objects\173a.jpg,post,o,1.3618587999953888,None,,,,,,,,00054,001,2026-01-18_18h26.51.352,MST_test,2024.2.0,59.9509960665318,2026-01-18 18h27.00.079641 +0530,
80,0,81,o,1.1250802000286058,None,81,0,80,272.16997740004444,,,,,,,,,,,,,,,,,,,,,,,,,,,,,,,,,,,,,,,,,,,,,,,,,,272.1542814000277,272.16997740004444,272.67113180004526,272.65363980003167,272.6689124000259,272.67113180004526,272.67113180004526,272.67113180004526,273.8038751000422,Scenes\107a.jpg,mid,o,1.1250802000286058,None,,,,,,,,00054,001,2026-01-18_18h26.51.352,MST_test,2024.2.0,59.9509960665318,2026-01-18 18h27.00.079641 +0530,
81,0,82,s,2.6694927999633364,None,82,0,81,273.8200328000239,,,,,,,,,,,,,,,,,,,,,,,,,,,,,,,,,,,,,,,,,,,,,,,,,,273.803967200045,273.8200328000239,274.32046920002904,274.3036358000245,274.31318860000465,274.32046920002904,274.32046920002904,274.32046920002904,277.0039352000458,Objects\160b.jpg,pre,s,2.6694927999633364,None,,,,,,,,00054,001,2026-01-18_18h26.51.352,MST_test,2024.2.0,59.9509960665318,2026-01-18 18h27.00.079641 +0530,
82,0,83,o,1.0843027000082657,None,83,0,82,277.02000120002776,,,,,,,,,,,,,,,,,,,,,,,,,,,,,,,,,,,,,,,,,,,,,,,,,,277.00402980000945,277.02000120002776,277.52056550001726,277.5036670000409,277.51731409999775,277.52056550001726,277.52056550001726,277.52056550001726,278.620653400023,Scenes\050a.jpg,pre,o,1.0843027000082657,None,,,,,,,,00054,001,2026-01-18_18h26.51.352,MST_test,2024.2.0,59.9509960665318,2026-01-18 18h27.00.079641 +0530,
83,0,84,o,0.9870975000085309,None,84,0,83,278.6365657999995,,,,,,,,,,,,,,,,,,,,,,,,,,,,,,,,,,,,,,,,,,,,,,,,,,278.62076040002285,278.6365657999995,279.13726119999774,279.1202967000427,279.13387260003947,279.13726119999774,279.13726119999774,279.13726119999774,280.1371012000018,Scenes\095a.jpg,pre,o,0.9870975000085309,None,,,,,,,,00054,001,2026-01-18_18h26.51.352,MST_test,2024.2.0,59.9509960665318,2026-01-18 18h27.00.079641 +0530,
84,0,85,s,2.5510299999732524,None,85,0,84,280.1533766000066,,,,,,,,,,,,,,,,,,,,,,,,,,,,,,,,,,,,,,,,,,,,,,,,,,280.13719130004756,280.1533766000066,280.65379350003786,280.6367872999981,280.64661980001256,280.65379350003786,280.65379350003786,280.65379350003786,283.22070010000607,Objects\091b.jpg,pre,s,2.5510299999732524,None,,,,,,,,00054,001,2026-01-18_18h26.51.352,MST_test,2024.2.0,59.9509960665318,2026-01-18 18h27.00.079641 +0530,
85,0,86,s,1.2040074999677017,None,86,0,85,283.23654250003165,,,,,,,,,,,,,,,,,,,,,,,,,,,,,,,,,,,,,,,,,,,,,,,,,,283.220790899999,283.23654250003165,283.73684260004666,283.72019590000855,283.72942980000516,283.73684260004666,283.73684260004666,283.73684260004666,284.9541028000531,Objects\153b.jpg,pre,s,1.2040074999677017,None,,,,,,,,00054,001,2026-01-18_18h26.51.352,MST_test,2024.2.0,59.9509960665318,2026-01-18 18h27.00.079641 +0530,
86,0,87,n,2.1832023999886587,None,87,0,86,284.97008340002503,,,,,,,,,,,,,,,,,,,,,,,,,,,,,,,,,,,,,,,,,,,,,,,,,,284.95420450001257,284.97008340002503,285.4702501000138,285.4536226000055,285.463197300036,285.4702501000138,285.4702501000138,285.4702501000138,287.6541536000441,Foils\082a.jpg,none,n,2.1832023999886587,None,,,,,,,,00054,001,2026-01-18_18h26.51.352,MST_test,2024.2.0,59.9509960665318,2026-01-18 18h27.00.079641 +0530,
87,0,88,o,1.1544340000255033,None,88,0,87,287.6700332000037,,,,,,,,,,,,,,,,,,,,,,,,,,,,,,,,,,,,,,,,,,,,,,,,,,287.6542451000423,287.6700332000037,288.1702823000378,288.1535709000309,288.1629088000045,288.1702823000378,288.1702823000378,288.1702823000378,289.33708950004075,Objects\038a.jpg,post,o,1.1544340000255033,None,,,,,,,,00054,001,2026-01-18_18h26.51.352,MST_test,2024.2.0,59.9509960665318,2026-01-18 18h27.00.079641 +0530,
88,0,89,o,0.9590462999767624,None,89,0,88,289.3533536000177,,,,,,,,,,,,,,,,,,,,,,,,,,,,,,,,,,,,,,,,,,,,,,,,,,289.3371794000268,289.3533536000177,289.8538013000507,289.83682330005104,289.8513721000054,289.8538013000507,289.8538013000507,289.8538013000507,290.82050490000984,Scenes\073a.jpg,mid,o,0.9590462999767624,None,,,,,,,,00054,001,2026-01-18_18h26.51.352,MST_test,2024.2.0,59.9509960665318,2026-01-18 18h27.00.079641 +0530,
89,0,90,o,0.9712781999842264,None,90,0,89,290.8365734000108,,,,,,,,,,,,,,,,,,,,,,,,,,,,,,,,,,,,,,,,,,,,,,,,,,290.82059750001645,290.8365734000108,291.33708610001486,291.3202491000411,291.3303977000178,291.33708610001486,291.33708610001486,291.33708610001486,292.32059670001036,Objects\170a.jpg,mid,o,0.9712781999842264,None,,,,,,,,00054,001,2026-01-18_18h26.51.352,MST_test,2024.2.0,59.9509960665318,2026-01-18 18h27.00.079641 +0530,
90,0,91,s,1.7278292999835685,None,91,0,90,292.33658760000253,,,,,,,,,,,,,,,,,,,,,,,,,,,,,,,,,,,,,,,,,,,,,,,,,,292.32069140003296,292.33658760000253,292.8367931000539,292.8202012000256,292.8299121000455,292.8367931000539,292.8367931000539,292.8367931000539,294.5707995000412,Foils\065a.jpg,none,s,1.7278292999835685,None,,,,,,,,00054,001,2026-01-18_18h26.51.352,MST_test,2024.2.0,59.9509960665318,2026-01-18 18h27.00.079641 +0530,
91,0,92,s,1.4587950000423007,None,92,0,91,294.5866190000088,,,,,,,,,,,,,,,,,,,,,,,,,,,,,,,,,,,,,,,,,,,,,,,,,,294.57089630002156,294.5866190000088,295.08953029999975,295.0702688000165,295.0873176000314,295.08953029999975,295.08953029999975,295.08953029999975,296.55393420002656,Scenes\164b.jpg,mid,s,1.4587950000423007,None,,,,,,,,00054,001,2026-01-18_18h26.51.352,MST_test,2024.2.0,59.9509960665318,2026-01-18 18h27.00.079641 +0530,
92,0,93,o,4.877545600000303,None,93,0,92,296.5700269000372,,,,,,,,,,,,,,,,,,,,,,,,,,,,,,,,,,,,,,,,,,,,,,,,,,296.5540244000149,296.5700269000372,297.0705474000424,297.0537075000466,297.06331310002133,297.0705474000424,297.0705474000424,297.0705474000424,301.95395049999934,Objects\029a.jpg,pre,o,4.877545600000303,None,,,,,,,,00054,001,2026-01-18_18h26.51.352,MST_test,2024.2.0,59.9509960665318,2026-01-18 18h27.00.079641 +0530,
93,0,94,s,1.1978938999818638,None,94,0,93,301.9700385000324,,,,,,,,,,,,,,,,,,,,,,,,,,,,,,,,,,,,,,,,,,,,,,,,,,301.9540468000341,301.9700385000324,302.47025200002827,302.4536580000422,302.4635043000453,302.47025200002827,302.47025200002827,302.47025200002827,303.67058200004976,Objects\102b.jpg,mid,s,1.1978938999818638,None,,,,,,,,00054,001,2026-01-18_18h26.51.352,MST_test,2024.2.0,59.9509960665318,2026-01-18 18h27.00.079641 +0530,
94,0,95,o,1.2017847999813966,None,95,0,94,303.6866560000344,,,,,,,,,,,,,,,,,,,,,,,,,,,,,,,,,,,,,,,,,,,,,,,,,,303.6706763000111,303.6866560000344,304.18685510003706,304.1701977000339,304.17934250005055,304.18685510003706,304.18685510003706,304.18685510003706,305.4039390000398,Objects\021a.jpg,post,o,1.2017847999813966,None,,,,,,,,00054,001,2026-01-18_18h26.51.352,MST_test,2024.2.0,59.9509960665318,2026-01-18 18h27.00.079641 +0530,
95,0,96,n,1.1646435000002384,None,96,0,95,305.4200282000238,,,,,,,,,,,,,,,,,,,,,,,,,,,,,,,,,,,,,,,,,,,,,,,,,,305.4040317000472,305.4200282000238,305.9202544,305.90361810004106,305.912560900033,305.9202544,305.9202544,305.9202544,307.0873447000049,Foils\042a.jpg,none,n,1.1646435000002384,None,,,,,,,,00054,001,2026-01-18_18h26.51.352,MST_test,2024.2.0,59.9509960665318,2026-01-18 18h27.00.079641 +0530,
96,0,97,n,1.1374809000408277,None,97,0,96,307.1033490000409,,,,,,,,,,,,,,,,,,,,,,,,,,,,,,,,,,,,,,,,,,,,,,,,,,307.0874399000313,307.1033490000409,307.6036201000097,307.5868795000133,307.59713040001225,307.6036201000097,307.6036201000097,307.6036201000097,308.75387580000097,Objects\002b.jpg,post,n,1.1374809000408277,None,,,,,,,,00054,001,2026-01-18_18h26.51.352,MST_test,2024.2.0,59.9509960665318,2026-01-18 18h27.00.079641 +0530,
97,0,98,o,1.2065659000072628,None,98,0,97,308.7700370000093,,,,,,,,,,,,,,,,,,,,,,,,,,,,,,,,,,,,,,,,,,,,,,,,,,308.7539672999992,308.7700370000093,309.2704516000231,309.2536403000122,309.2634013000061,309.2704516000231,309.2704516000231,309.2704516000231,310.48731120000593,Objects\099a.jpg,post,o,1.2065659000072628,None,,,,,,,,00054,001,2026-01-18_18h26.51.352,MST_test,2024.2.0,59.9509960665318,2026-01-18 18h27.00.079641 +0530,
98,0,99,o,2.464913700008765,None,99,0,98,310.50338170002215,,,,,,,,,,,,,,,,,,,,,,,,,,,,,,,,,,,,,,,,,,,,,,,,,,310.48740530002397,310.50338170002215,311.0035436000326,310.9867525000009,310.9966640000348,311.0035436000326,311.0035436000326,311.0035436000326,313.47086370002944,Objects\025b.jpg,post,o,2.464913700008765,None,,,,,,,,00054,001,2026-01-18_18h26.51.352,MST_test,2024.2.0,59.9509960665318,2026-01-18 18h27.00.079641 +0530,
99,0,100,o,1.194144100008998,None,100,0,99,313.4866073000012,,,,,,,,,,,,,,,,,,,,,,,,,,,,,,,,,,,,,,,,,,,,,,,,,,313.4709626000258,313.4866073000012,313.98673210002016,313.9702682000352,313.9797073000227,313.98673210002016,313.98673210002016,313.98673210002016,315.1873233000515,Objects\030a.jpg,post,o,1.194144100008998,None,,,,,,,,00054,001,2026-01-18_18h26.51.352,MST_test,2024.2.0,59.9509960665318,2026-01-18 18h27.00.079641 +0530,
100,0,101,n,0.9804696000064723,None,101,0,100,315.2035095000174,,,,,,,,,,,,,,,,,,,,,,,,,,,,,,,,,,,,,,,,,,,,,,,,,,315.1874193000258,315.2035095000174,315.70374120003544,315.6868535000249,315.69898270000704,315.70374120003544,315.70374120003544,315.70374120003544,316.6874258000171,Foils\scenes30.jpg,none,n,0.9804696000064723,None,,,,,,,,00054,001,2026-01-18_18h26.51.352,MST_test,2024.2.0,59.9509960665318,2026-01-18 18h27.00.079641 +0530,
101,0,102,s,1.1006984999985434,None,102,0,101,316.7033715000143,,,,,,,,,,,,,,,,,,,,,,,,,,,,,,,,,,,,,,,,,,,,,,,,,,316.68751750001684,316.7033715000143,317.232277800038,317.18703370000003,317.2297156000277,317.232277800038,317.232277800038,317.232277800038,318.337358400051,Foils\scenes15.jpg,none,s,1.1006984999985434,None,,,,,,,,00054,001,2026-01-18_18h26.51.352,MST_test,2024.2.0,59.9509960665318,2026-01-18 18h27.00.079641 +0530,
102,0,103,s,2.9102077999850735,None,103,0,102,318.3535221000202,,,,,,,,,,,,,,,,,,,,,,,,,,,,,,,,,,,,,,,,,,,,,,,,,,318.33744990004925,318.3535221000202,318.8546626000316,318.8367892000242,318.84774930001004,318.8546626000316,318.8546626000316,318.8546626000316,321.77061669999966,Objects\190b.jpg,pre,s,2.9102077999850735,None,,,,,,,,00054,001,2026-01-18_18h26.51.352,MST_test,2024.2.0,59.9509960665318,2026-01-18 18h27.00.079641 +0530,
103,0,104,s,1.317879099980928,None,104,0,103,321.78680860000895,,,,,,,,,,,,,,,,,,,,,,,,,,,,,,,,,,,,,,,,,,,,,,,,,,321.7707080000546,321.78680860000895,322.2870824999991,322.2705794000067,322.2834494000417,322.2870824999991,322.2870824999991,322.2870824999991,323.62058889999753,Scenes\132b.jpg,mid,s,1.317879099980928,None,,,,,,,,00054,001,2026-01-18_18h26.51.352,MST_test,2024.2.0,59.9509960665318,2026-01-18 18h27.00.079641 +0530,
104,0,105,n,1.4269125999999233,None,105,0,104,323.63678460003575,,,,,,,,,,,,,,,,,,,,,,,,,,,,,,,,,,,,,,,,,,,,,,,,,,323.62067940004636,323.63678460003575,324.1372784000123,324.1203877000371,324.1301623000181,324.1372784000123,324.1372784000123,324.1372784000123,325.5707153000403,Foils\106a.jpg,none,n,1.4269125999999233,None,,,,,,,,00054,001,2026-01-18_18h26.51.352,MST_test,2024.2.0,59.9509960665318,2026-01-18 18h27.00.079641 +0530,
105,0,106,n,1.1820117000024766,None,106,0,105,325.58681390003767,,,,,,,,,,,,,,,,,,,,,,,,,,,,,,,,,,,,,,,,,,,,,,,,,,325.57080660003703,325.58681390003767,326.08683780004503,326.0704048000043,326.08133050001925,326.08683780004503,326.08683780004503,326.08683780004503,327.2706471999991,Foils\105a.jpg,none,n,1.1820117000024766,None,,,,,,,,00054,001,2026-01-18_18h26.51.352,MST_test,2024.2.0,59.9509960665318,2026-01-18 18h27.00.079641 +0530,
106,0,107,s,1.478311399987433,None,107,0,106,327.2868520000484,,,,,,,,,,,,,,,,,,,,,,,,,,,,,,,,,,,,,,,,,,,,,,,,,,327.27074350003386,327.2868520000484,327.7911078000325,327.77032880001934,327.7889116000151,327.7911078000325,327.7911078000325,327.7911078000325,329.2707920000539,Scenes\189b.jpg,pre,s,1.478311399987433,None,,,,,,,,00054,001,2026-01-18_18h26.51.352,MST_test,2024.2.0,59.9509960665318,2026-01-18 18h27.00.079641 +0530,
107,0,108,s,0.9604716000030749,None,108,0,107,329.286890300049,,,,,,,,,,,,,,,,,,,,,,,,,,,,,,,,,,,,,,,,,,,,,,,,,,329.2708888000343,329.286890300049,329.78797240002314,329.770409400051,329.78593410004396,329.78797240002314,329.78797240002314,329.78797240002314,330.75405490002595,Scenes\143b.jpg,mid,s,0.9604716000030749,None,,,,,,,,00054,001,2026-01-18_18h26.51.352,MST_test,2024.2.0,59.9509960665318,2026-01-18 18h27.00.079641 +0530,
108,0,109,o,1.406230200023856,None,109,0,108,330.77014430001145,,,,,,,,,,,,,,,,,,,,,,,,,,,,,,,,,,,,,,,,,,,,,,,,,,330.754146900028,330.77014430001145,331.2707271000254,331.2537300999975,331.2678444000194,331.2707271000254,331.2707271000254,331.2707271000254,332.6873487000121,Scenes\049a.jpg,post,o,1.406230200023856,None,,,,,,,,00054,001,2026-01-18_18h26.51.352,MST_test,2024.2.0,59.9509960665318,2026-01-18 18h27.00.079641 +0530,
109,0,110,s,1.3451174999936484,None,110,0,109,332.7035146999988,,,,,,,,,,,,,,,,,,,,,,,,,,,,,,,,,,,,,,,,,,,,,,,,,,332.6874428000301,332.7035146999988,333.2043330000015,333.1870438000187,333.20222120004473,333.2043330000015,333.2043330000015,333.2043330000015,334.55403510003816,Scenes\184b.jpg,pre,s,1.3451174999936484,None,,,,,,,,00054,001,2026-01-18_18h26.51.352,MST_test,2024.2.0,59.9509960665318,2026-01-18 18h27.00.079641 +0530,
110,0,111,o,1.5423771999776363,None,111,0,110,334.5701747999992,,,,,,,,,,,,,,,,,,,,,,,,,,,,,,,,,,,,,,,,,,,,,,,,,,334.55412830004934,334.5701747999992,335.07059519999893,335.0536863000016,335.0637051000376,335.07059519999893,335.07059519999893,335.07059519999893,336.62063489999855,Objects\179a.jpg,post,o,1.5423771999776363,None,,,,,,,,00054,001,2026-01-18_18h26.51.352,MST_test,2024.2.0,59.9509960665318,2026-01-18 18h27.00.079641 +0530,
111,0,112,o,1.0515432000393048,None,112,0,111,336.6367966000107,,,,,,,,,,,,,,,,,,,,,,,,,,,,,,,,,,,,,,,,,,,,,,,,,,336.62072649999755,336.6367966000107,337.13728240004275,337.12043150002137,337.1323867000174,337.13728240004275,337.13728240004275,337.13728240004275,338.20406200003345,Scenes\166a.jpg,pre,o,1.0515432000393048,None,,,,,,,,00054,001,2026-01-18_18h26.51.352,MST_test,2024.2.0,59.9509960665318,2026-01-18 18h27.00.079641 +0530,
112,0,113,o,2.5801594999502413,None,113,0,112,338.22014650003985,,,,,,,,,,,,,,,,,,,,,,,,,,,,,,,,,,,,,,,,,,,,,,,,,,338.20415280002635,338.22014650003985,338.720672400028,338.7036727000377,338.71513500000583,338.720672400028,338.720672400028,338.720672400028,341.3041328000254,Scenes\087a.jpg,mid,o,2.5801594999502413,None,,,,,,,,00054,001,2026-01-18_18h26.51.352,MST_test,2024.2.0,59.9509960665318,2026-01-18 18h27.00.079641 +0530,
113,0,114,n,1.4965154999517836,None,114,0,113,341.32005780003965,,,,,,,,,,,,,,,,,,,,,,,,,,,,,,,,,,,,,,,,,,,,,,,,,,341.3042228000122,341.32005780003965,341.82053950004047,341.80387860001065,341.81506310001714,341.82053950004047,341.82053950004047,341.82053950004047,343.3207304000389,Foils\081a.jpg,none,n,1.4965154999517836,None,,,,,,,,00054,001,2026-01-18_18h26.51.352,MST_test,2024.2.0,59.9509960665318,2026-01-18 18h27.00.079641 +0530,
114,0,115,o,1.036878600018099,None,115,0,114,343.33662870002445,,,,,,,,,,,,,,,,,,,,,,,,,,,,,,,,,,,,,,,,,,,,,,,,,,343.3208261000109,343.33662870002445,343.8400067000184,343.82049500005087,343.8378386000404,343.8400067000184,343.8400067000184,343.8400067000184,344.8872108000214,Scenes\004a.jpg,post,o,1.036878600018099,None,,,,,,,,00054,001,2026-01-18_18h26.51.352,MST_test,2024.2.0,59.9509960665318,2026-01-18 18h27.00.079641 +0530,
115,0,116,o,1.2749799999874085,None,116,0,115,344.9033662000438,,,,,,,,,,,,,,,,,,,,,,,,,,,,,,,,,,,,,,,,,,,,,,,,,,344.88730340002803,344.9033662000438,345.4091765000485,345.38702620001277,345.40670940000564,345.4091765000485,345.4091765000485,345.4091765000485,346.68713120004395,Scenes\015b.jpg,mid,o,1.2749799999874085,None,,,,,,,,00054,001,2026-01-18_18h26.51.352,MST_test,2024.2.0,59.9509960665318,2026-01-18 18h27.00.079641 +0530,
116,0,117,s,3.265471199993044,None,117,0,116,346.7033258000156,,,,,,,,,,,,,,,,,,,,,,,,,,,,,,,,,,,,,,,,,,,,,,,,,,346.6872338000103,346.7033258000156,347.20392100000754,347.18675370002165,347.20003340003313,347.20392100000754,347.20392100000754,347.20392100000754,350.4706887000357,Scenes\163b.jpg,post,s,3.265471199993044,None,,,,,,,,00054,001,2026-01-18_18h26.51.352,MST_test,2024.2.0,59.9509960665318,2026-01-18 18h27.00.079641 +0530,
117,0,118,o,0.9838444999768399,None,118,0,117,350.4865105000208,,,,,,,,,,,,,,,,,,,,,,,,,,,,,,,,,,,,,,,,,,,,,,,,,,350.4707888000412,350.4865105000208,350.988538500038,350.9702198000159,350.986445800052,350.988538500038,350.988538500038,350.988538500038,351.9873607000336,Scenes\084a.jpg,mid,o,0.9838444999768399,None,,,,,,,,00054,001,2026-01-18_18h26.51.352,MST_test,2024.2.0,59.9509960665318,2026-01-18 18h27.00.079641 +0530,
118,0,119,n,2.4443168999860063,None,119,0,118,352.0034310000483,,,,,,,,,,,,,,,,,,,,,,,,,,,,,,,,,,,,,,,,,,,,,,,,,,351.987465800019,352.0034310000483,352.5038036000333,352.48683070001425,352.49723510001786,352.5038036000333,352.5038036000333,352.5038036000333,354.95393000001786,Objects\004a.jpg,pre,n,2.4443168999860063,None,,,,,,,,00054,001,2026-01-18_18h26.51.352,MST_test,2024.2.0,59.9509960665318,2026-01-18 18h27.00.079641 +0530,
119,0,120,s,1.9819676000042818,None,120,0,119,354.97008460003417,,,,,,,,,,,,,,,,,,,,,,,,,,,,,,,,,,,,,,,,,,,,,,,,,,354.9540733000031,354.97008460003417,355.47026520001236,355.45363670005463,355.46409410005435,355.47026520001236,355.47026520001236,355.47026520001236,357.4539050000021,Objects\048b.jpg,pre,s,1.9819676000042818,None,,,,,,,,00054,001,2026-01-18_18h26.51.352,MST_test,2024.2.0,59.9509960665318,2026-01-18 18h27.00.079641 +0530,
120,0,121,o,1.1802828999934718,None,121,0,120,357.4700359000126,,,,,,,,,,,,,,,,,,,,,,,,,,,,,,,,,,,,,,,,,,,,,,,,,,357.45399890001863,357.4700359000126,357.9703715000069,357.9536173000233,357.96372070000507,357.9703715000069,357.9703715000069,357.9703715000069,359.1539518000209,Objects\063a.jpg,mid,o,1.1802828999934718,None,,,,,,,,00054,001,2026-01-18_18h26.51.352,MST_test,2024.2.0,59.9509960665318,2026-01-18 18h27.00.079641 +0530,
121,0,122,o,0.9553092000423931,None,122,0,121,359.1700515000266,,,,,,,,,,,,,,,,,,,,,,,,,,,,,,,,,,,,,,,,,,,,,,,,,,359.15404790005414,359.1700515000266,359.67281300004106,359.65363490005257,359.67076340003405,359.67281300004106,359.67281300004106,359.67281300004106,360.63720120000653,Scenes\103a.jpg,post,o,0.9553092000423931,None,,,,,,,,00054,001,2026-01-18_18h26.51.352,MST_test,2024.2.0,59.9509960665318,2026-01-18 18h27.00.079641 +0530,
122,0,123,o,1.5228441000217572,None,123,0,122,360.6533391000121,,,,,,,,,,,,,,,,,,,,,,,,,,,,,,,,,,,,,,,,,,,,,,,,,,360.63729380001314,360.6533391000121,361.1538977000164,361.1368430000148,361.1511190000456,361.1538977000164,361.1538977000164,361.1538977000164,362.68735630001174,Scenes\006a.jpg,pre,o,1.5228441000217572,None,,,,,,,,00054,001,2026-01-18_18h26.51.352,MST_test,2024.2.0,59.9509960665318,2026-01-18 18h27.00.079641 +0530,
123,0,124,o,2.656304700009059,None,124,0,123,362.70336460002,,,,,,,,,,,,,,,,,,,,,,,,,,,,,,,,,,,,,,,,,,,,,,,,,,362.6874601000454,362.70336460002,363.2038107000408,363.1870232000365,363.19873220002046,363.2038107000408,363.2038107000408,363.2038107000408,365.870634699997,Objects\121b.jpg,mid,o,2.656304700009059,None,,,,,,,,00054,001,2026-01-18_18h26.51.352,MST_test,2024.2.0,59.9509960665318,2026-01-18 18h27.00.079641 +0530,
124,0,125,n,1.0977867000037804,None,125,0,124,365.8866595000145,,,,,,,,,,,,,,,,,,,,,,,,,,,,,,,,,,,,,,,,,,,,,,,,,,365.8707265999983,365.8866595000145,366.38721460005036,366.37034410005435,366.3795979000279,366.38721460005036,366.38721460005036,366.38721460005036,367.4873416000046,Foils\scenes13.jpg,none,n,1.0977867000037804,None,,,,,,,,00054,001,2026-01-18_18h26.51.352,MST_test,2024.2.0,59.9509960665318,2026-01-18 18h27.00.079641 +0530,
125,0,126,s,1.2323182999971323,None,126,0,125,367.5035200000275,,,,,,,,,,,,,,,,,,,,,,,,,,,,,,,,,,,,,,,,,,,,,,,,,,367.48744670004817,367.5035200000275,368.0037599000498,367.98683380003786,367.99734460003674,368.0037599000498,368.0037599000498,368.0037599000498,369.23734200000763,Objects\137a.jpg,post,s,1.2323182999971323,None,,,,,,,,00054,001,2026-01-18_18h26.51.352,MST_test,2024.2.0,59.9509960665318,2026-01-18 18h27.00.079641 +0530,
126,0,127,o,1.19431439996697,None,127,0,126,369.253384700045,,,,,,,,,,,,,,,,,,,,,,,,,,,,,,,,,,,,,,,,,,,,,,,,,,369.2374342000112,369.253384700045,369.75379280000925,369.73685990000376,369.74995750002563,369.75379280000925,369.75379280000925,369.75379280000925,370.95401960000163,Scenes\172a.jpg,post,o,1.19431439996697,None,,,,,,,,00054,001,2026-01-18_18h26.51.352,MST_test,2024.2.0,59.9509960665318,2026-01-18 18h27.00.079641 +0530,
127,0,128,s,1.09156410000287,None,128,0,127,370.97006710001733,,,,,,,,,,,,,,,,,,,,,,,,,,,,,,,,,,,,,,,,,,,,,,,,,,370.95411580003565,370.97006710001733,371.47364390001167,371.4536310000112,371.4714024999994,371.47364390001167,371.47364390001167,371.47364390001167,372.5707943000016,Scenes\055b.jpg,post,s,1.09156410000287,None,,,,,,,,00054,001,2026-01-18_18h26.51.352,MST_test,2024.2.0,59.9509960665318,2026-01-18 18h27.00.079641 +0530,
128,0,129,o,2.4012579999980517,None,129,0,128,372.586700200045,,,,,,,,,,,,,,,,,,,,,,,,,,,,,,,,,,,,,,,,,,,,,,,,,,372.5709013000014,372.586700200045,373.090946500015,373.07025080005405,373.08867000002647,373.090946500015,373.090946500015,373.090946500015,375.50387590000173,Scenes\031a.jpg,mid,o,2.4012579999980517,None,,,,,,,,00054,001,2026-01-18_18h26.51.352,MST_test,2024.2.0,59.9509960665318,2026-01-18 18h27.00.079641 +0530,
129,0,130,o,0.9603188000037335,None,130,0,129,375.520265500003,,,,,,,,,,,,,,,,,,,,,,,,,,,,,,,,,,,,,,,,,,,,,,,,,,375.50397469999734,375.520265500003,376.02047760004643,376.00363530003233,376.01544430002104,376.02047760004643,376.02047760004643,376.02047760004643,376.98712980002165,Objects\061a.jpg,post,o,0.9603188000037335,None,,,,,,,,00054,001,2026-01-18_18h26.51.352,MST_test,2024.2.0,59.9509960665318,2026-01-18 18h27.00.079641 +0530,
130,0,131,n,1.693490700039547,None,131,0,130,377.0033860000549,,,,,,,,,,,,,,,,,,,,,,,,,,,,,,,,,,,,,,,,,,,,,,,,,,376.9872223000275,377.0033860000549,377.5036005000002,377.48688300000504,377.49793270003283,377.5036005000002,377.5036005000002,377.5036005000002,379.20394480001414,Foils\058a.jpg,none,n,1.693490700039547,None,,,,,,,,00054,001,2026-01-18_18h26.51.352,MST_test,2024.2.0,59.9509960665318,2026-01-18 18h27.00.079641 +0530,
131,0,132,o,0.9726731000118889,None,132,0,131,379.22005230002105,,,,,,,,,,,,,,,,,,,,,,,,,,,,,,,,,,,,,,,,,,,,,,,,,,379.2040463000303,379.22005230002105,379.72022800002014,379.70355980005115,379.71340490004513,379.72022800002014,379.72022800002014,379.72022800002014,380.7039636000409,Objects\183a.jpg,mid,o,0.9726731000118889,None,,,,,,,,00054,001,2026-01-18_18h26.51.352,MST_test,2024.2.0,59.9509960665318,2026-01-18 18h27.00.079641 +0530,
132,0,133,n,4.5841985999722965,None,133,0,132,380.7199829000165,,,,,,,,,,,,,,,,,,,,,,,,,,,,,,,,,,,,,,,,,,,,,,,,,,380.7040562000475,380.7199829000165,381.22022230003495,381.2036291999975,381.21305200003553,381.22022230003495,381.22022230003495,381.22022230003495,385.82103550003376,Foils\121a.jpg,none,n,4.5841985999722965,None,,,,,,,,00054,001,2026-01-18_18h26.51.352,MST_test,2024.2.0,59.9509960665318,2026-01-18 18h27.00.079641 +0530,
133,0,134,o,3.6277231000130996,None,134,0,133,385.83662350004306,,,,,,,,,,,,,,,,,,,,,,,,,,,,,,,,,,,,,,,,,,,,,,,,,,385.8211384000024,385.83662350004306,386.3368935000035,386.3203244000324,386.33002420002595,386.3368935000035,386.3368935000035,386.3368935000035,389.9706020000158,Objects\191a.jpg,mid,o,3.6277231000130996,None,,,,,,,,00054,001,2026-01-18_18h26.51.352,MST_test,2024.2.0,59.9509960665318,2026-01-18 18h27.00.079641 +0530,
134,0,135,o,1.094156600011047,None,135,0,134,389.98655980004696,,,,,,,,,,,,,,,,,,,,,,,,,,,,,,,,,,,,,,,,,,,,,,,,,,389.97069710004143,389.98655980004696,390.48684540000977,390.47029760002624,390.48069700005,390.48684540000977,390.48684540000977,390.48684540000977,391.58727580000414,Objects\135a.jpg,pre,o,1.094156600011047,None,,,,,,,,00054,001,2026-01-18_18h26.51.352,MST_test,2024.2.0,59.9509960665318,2026-01-18 18h27.00.079641 +0530,
135,0,136,o,0.9014179999940097,None,136,0,135,391.6033188000438,,,,,,,,,,,,,,,,,,,,,,,,,,,,,,,,,,,,,,,,,,,,,,,,,,391.5873722000397,391.6033188000438,392.10378920001676,392.0870133000426,392.0997289000079,392.10378920001676,392.10378920001676,392.10378920001676,393.0207649000222,Scenes\051a.jpg,post,o,0.9014179999940097,None,,,,,,,,00054,001,2026-01-18_18h26.51.352,MST_test,2024.2.0,59.9509960665318,2026-01-18 18h27.00.079641 +0530,
136,0,137,o,0.7310823000152595,None,137,0,136,393.0367515000398,,,,,,,,,,,,,,,,,,,,,,,,,,,,,,,,,,,,,,,,,,,,,,,,,,393.0208720000228,393.0367515000398,393.5372646000469,393.52024490002077,393.5335012000287,393.5372646000469,393.5372646000469,393.5372646000469,394.2707230000524,Scenes\140a.jpg,post,o,0.7310823000152595,None,,,,,,,,00054,001,2026-01-18_18h26.51.352,MST_test,2024.2.0,59.9509960665318,2026-01-18 18h27.00.079641 +0530,
137,0,138,o,1.1377581999986432,None,138,0,137,394.28652840002906,,,,,,,,,,,,,,,,,,,,,,,,,,,,,,,,,,,,,,,,,,,,,,,,,,394.2708252000157,394.28652840002906,394.7872064000112,394.7702562000486,394.78352380002616,394.7872064000112,394.7872064000112,394.7872064000112,395.93727430002764,Scenes\169a.jpg,pre,o,1.1377581999986432,None,,,,,,,,00054,001,2026-01-18_18h26.51.352,MST_test,2024.2.0,59.9509960665318,2026-01-18 18h27.00.079641 +0530,
138,0,139,o,1.1696482000406832,None,139,0,138,395.9533842000528,,,,,,,,,,,,,,,,,,,,,,,,,,,,,,,,,,,,,,,,,,,,,,,,,,395.9373658000259,395.9533842000528,396.4584889000398,396.43686000001617,396.4562510000542,396.4584889000398,396.4584889000398,396.4584889000398,397.6373081000056,Scenes\026b.jpg,pre,o,1.1696482000406832,None,,,,,,,,00054,001,2026-01-18_18h26.51.352,MST_test,2024.2.0,59.9509960665318,2026-01-18 18h27.00.079641 +0530,
139,0,140,s,1.0581968000042252,None,140,0,139,397.65333710005507,,,,,,,,,,,,,,,,,,,,,,,,,,,,,,,,,,,,,,,,,,,,,,,,,,397.63739990000613,397.65333710005507,398.1539504000102,398.13685680000344,398.14750490000006,398.1539504000102,398.1539504000102,398.1539504000102,399.2206796000246,Objects\147b.jpg,mid,s,1.0581968000042252,None,,,,,,,,00054,001,2026-01-18_18h26.51.352,MST_test,2024.2.0,59.9509960665318,2026-01-18 18h27.00.079641 +0530,
140,0,141,s,1.2755905000376515,None,141,0,140,399.2366066000541,,,,,,,,,,,,,,,,,,,,,,,,,,,,,,,,,,,,,,,,,,,,,,,,,,399.22077960002935,399.2366066000541,399.73676660005003,399.7203583000228,399.72988290002104,399.73676660005003,399.73676660005003,399.73676660005003,401.0206314000534,Foils\050a.jpg,none,s,1.2755905000376515,None,,,,,,,,00054,001,2026-01-18_18h26.51.352,MST_test,2024.2.0,59.9509960665318,2026-01-18 18h27.00.079641 +0530,
141,0,142,s,1.1461808999883942,None,142,0,141,401.03658120002365,,,,,,,,,,,,,,,,,,,,,,,,,,,,,,,,,,,,,,,,,,,,,,,,,,401.0207236999995,401.03658120002365,401.5384543000255,401.5202930000378,401.5364224000368,401.5384543000255,401.5384543000255,401.5384543000255,402.6871246000519,Scenes\136b.jpg,post,s,1.1461808999883942,None,,,,,,,,00054,001,2026-01-18_18h26.51.352,MST_test,2024.2.0,59.9509960665318,2026-01-18 18h27.00.079641 +0530,
142,0,143,o,1.1846133000217378,None,143,0,142,402.7033814000315,,,,,,,,,,,,,,,,,,,,,,,,,,,,,,,,,,,,,,,,,,,,,,,,,,402.6872157000471,402.7033814000315,403.2038924000226,403.18700000003446,403.1983261000132,403.2038924000226,403.2038924000226,403.2038924000226,404.40413219999755,Objects\113b.jpg,post,o,1.1846133000217378,None,,,,,,,,00054,001,2026-01-18_18h26.51.352,MST_test,2024.2.0,59.9509960665318,2026-01-18 18h27.00.079641 +0530,
143,0,144,o,1.3318957000155933,None,144,0,143,404.42008030001307,,,,,,,,,,,,,,,,,,,,,,,,,,,,,,,,,,,,,,,,,,,,,,,,,,404.404229900043,404.42008030001307,404.9202852000017,404.9036946000415,404.9137445000233,404.9202852000017,404.9202852000017,404.9202852000017,406.25389160000486,Objects\023a.jpg,pre,o,1.3318957000155933,None,,,,,,,,00054,001,2026-01-18_18h26.51.352,MST_test,2024.2.0,59.9509960665318,2026-01-18 18h27.00.079641 +0530,
144,0,145,o,1.026000900019426,None,145,0,144,406.27004960004706,,,,,,,,,,,,,,,,,,,,,,,,,,,,,,,,,,,,,,,,,,,,,,,,,,406.2539838000084,406.27004960004706,406.7708055000403,406.75371570000425,406.76851070002886,406.7708055000403,406.7708055000403,406.7708055000403,407.8039750000462,Scenes\005b.jpg,mid,o,1.026000900019426,None,,,,,,,,00054,001,2026-01-18_18h26.51.352,MST_test,2024.2.0,59.9509960665318,2026-01-18 18h27.00.079641 +0530,
145,0,146,o,0.6837349999696016,None,146,0,145,407.81999410002027,,,,,,,,,,,,,,,,,,,,,,,,,,,,,,,,,,,,,,,,,,,,,,,,,,407.8040676000528,407.81999410002027,408.3205306000309,408.30372360005276,408.313345600036,408.3205306000309,408.3205306000309,408.3205306000309,409.02089720004005,Objects\067a.jpg,pre,o,0.6837349999696016,None,,,,,,,,00054,001,2026-01-18_18h26.51.352,MST_test,2024.2.0,59.9509960665318,2026-01-18 18h27.00.079641 +0530,
146,0,147,o,0.6199798000161536,None,147,0,146,409.03658770001493,,,,,,,,,,,,,,,,,,,,,,,,,,,,,,,,,,,,,,,,,,,,,,,,,,409.0209954000311,409.03658770001493,409.5368982000509,409.5202671000152,409.52940180001315,409.5368982000509,409.5368982000509,409.5368982000509,410.17056800000137,Foils\066a.jpg,none,o,0.6199798000161536,None,,,,,,,,00054,001,2026-01-18_18h26.51.352,MST_test,2024.2.0,59.9509960665318,2026-01-18 18h27.00.079641 +0530,
147,0,148,s,1.610858800006099,None,148,0,147,410.18659610004397,,,,,,,,,,,,,,,,,,,,,,,,,,,,,,,,,,,,,,,,,,,,,,,,,,410.1706597000011,410.18659610004397,410.689926400024,410.6702663000324,410.68781600001967,410.689926400024,410.689926400024,410.689926400024,412.303998300049,Scenes\102a.jpg,mid,s,1.610858800006099,None,,,,,,,,00054,001,2026-01-18_18h26.51.352,MST_test,2024.2.0,59.9509960665318,2026-01-18 18h27.00.079641 +0530,
148,0,149,o,1.5585929999942891,None,149,0,148,412.3199907000526,,,,,,,,,,,,,,,,,,,,,,,,,,,,,,,,,,,,,,,,,,,,,,,,,,412.3040898000472,412.3199907000526,412.8222400000086,412.80363620002754,412.82035400002496,412.8222400000086,412.8222400000086,412.8222400000086,414.38716410001507,Scenes\176a.jpg,pre,o,1.5585929999942891,None,,,,,,,,00054,001,2026-01-18_18h26.51.352,MST_test,2024.2.0,59.9509960665318,2026-01-18 18h27.00.079641 +0530,
149,0,150,s,2.4214745000354014,None,150,0,149,414.4033963000402,,,,,,,,,,,,,,,,,,,,,,,,,,,,,,,,,,,,,,,,,,,,,,,,,,414.38725760002853,414.4033963000402,414.9039800000028,414.8869351000176,414.8971560000209,414.9039800000028,414.9039800000028,414.9039800000028,417.33753170003183,Objects\103b.jpg,mid,s,2.4214745000354014,None,,,,,,,,00054,001,2026-01-18_18h26.51.352,MST_test,2024.2.0,59.9509960665318,2026-01-18 18h27.00.079641 +0530,
,,,,,,,,,,,,,,,,,,,,,,,,,,,,,,,,,,,,,,,,,,,,,,,,,,,,,,,,,,,,,,,,,,,,,,,,,417.3376040000003,417.3535244000377,417.3535244000377,421.20385910000186,space,3.843930699978955,None,00054,001,2026-01-18_18h26.51.352,MST_test,2024.2.0,59.9509960665318,2026-01-18 18h27.00.079641 +0530,
