thisN,thisTrialN,thisRepN,key_resp_3.keys,key_resp_3.rt,key_resp_3.duration,trials.thisRepN,trials.thisTrialN,trials.thisN,thisRow.t,notes,intro_page.started,text.started,key_resp.started,intro_page.stopped,key_resp.keys,key_resp.rt,key_resp.duration,instructions.started,text_2.started,key_resp_2.started,instructions.stopped,key_resp_2.keys,key_resp_2.rt,key_resp_2.duration,demo1.started,image_1.started,image_2.started,text_7.started,key_resp_6.started,text_9.started,demo1.stopped,key_resp_6.keys,key_resp_6.rt,key_resp_6.duration,demo2.started,image_5.started,image_6.started,text_11.started,text_12.started,key_resp_8.started,demo2.stopped,key_resp_8.keys,key_resp_8.rt,key_resp_8.duration,demo_conclusion.started,text_13.started,key_resp_9.started,demo_conclusion.stopped,key_resp_9.keys,key_resp_9.rt,key_resp_9.duration,start_test.started,text_6.started,key_resp_5.started,start_test.stopped,key_resp_5.keys,key_resp_5.rt,key_resp_5.duration,ISI.started,text_4.started,ISI.stopped,routine_1.started,image.started,text_3.started,key_resp_3.started,routine_1.stopped,image_path,position_of_stimuli,trials.key_resp_3.keys,trials.key_resp_3.rt,trials.key_resp_3.duration,text_4.stopped,End_page.started,text_5.started,key_resp_4.started,End_page.stopped,key_resp_4.keys,key_resp_4.rt,key_resp_4.duration,participant,session,date,expName,psychopyVersion,frameRate,expStart,
,,,,,,,,,,,0.009613000031094998,0.025881100038532168,0.025881100038532168,3.6099040000117384,space,3.5788330999785103,None,,,,,,,,,,,,,,,,,,,,,,,,,,,,,,,,,,,,,,,,,,,,,,,,,,,,,,,,,,,,,,,00059,001,2026-01-19_15h22.33.265,MST_test,2024.2.0,59.82245889869538,2026-01-19 15h22.47.333286 +0530,
,,,,,,,,,,,,,,,,,,3.6099395000492223,3.640183400013484,3.640183400013484,14.99725660000695,space,11.355778399971314,None,,,,,,,,,,,,,,,,,,,,,,,,,,,,,,,,,,,,,,,,,,,,,,,,,,,,,,,,00059,001,2026-01-19_15h22.33.265,MST_test,2024.2.0,59.82245889869538,2026-01-19 15h22.47.333286 +0530,
,,,,,,,,,,,,,,,,,,,,,,,,,14.997286500001792,15.013406300044153,15.013406300044153,15.013406300044153,15.013406300044153,15.013406300044153,20.065298500005156,space,5.046941400039941,None,,,,,,,,,,,,,,,,,,,,,,,,,,,,,,,,,,,,,,,,,,,,,,00059,001,2026-01-19_15h22.33.265,MST_test,2024.2.0,59.82245889869538,2026-01-19 15h22.47.333286 +0530,
,,,,,,,,,,,,,,,,,,,,,,,,,,,,,,,,,,,20.065330200013705,20.081261800020002,20.081261800020002,20.081261800020002,20.081261800020002,20.081261800020002,21.95495080004912,space,1.8587320999940857,None,,,,,,,,,,,,,,,,,,,,,,,,,,,,,,,,,,,,00059,001,2026-01-19_15h22.33.265,MST_test,2024.2.0,59.82245889869538,2026-01-19 15h22.47.333286 +0530,
,,,,,,,,,,,,,,,,,,,,,,,,,,,,,,,,,,,,,,,,,,,,,21.95497990003787,21.971074000000954,21.971074000000954,86.38063030003104,space,64.40130460000364,None,,,,,,,,,,,,,,,,,,,,,,,,,,,,,00059,001,2026-01-19_15h22.33.265,MST_test,2024.2.0,59.82245889869538,2026-01-19 15h22.47.333286 +0530,
,,,,,,,,,,,,,,,,,,,,,,,,,,,,,,,,,,,,,,,,,,,,,,,,,,,,86.38066750002326,86.39681520004524,86.39681520004524,102.60422770003788,space,16.19945519999601,None,,,,,,,,,,,,,,,,,,,,,,00059,001,2026-01-19_15h22.33.265,MST_test,2024.2.0,59.82245889869538,2026-01-19 15h22.47.333286 +0530,
0,0,1,n,4.432133900001645,None,1,0,0,102.6204234000179,,,,,,,,,,,,,,,,,,,,,,,,,,,,,,,,,,,,,,,,,,,,,,,,,,102.60736920003546,102.6204234000179,103.10526250000112,103.13294969999697,103.15551710000727,103.15551710000727,103.15551710000727,107.5883941000211,Scenes\185b.jpg,mid,n,4.432133900001645,None,,,,,,,,,00059,001,2026-01-19_15h22.33.265,MST_test,2024.2.0,59.82245889869538,2026-01-19 15h22.47.333286 +0530,
1,0,2,s,3.1378383000264876,None,2,0,1,107.60430230002385,,,,,,,,,,,,,,,,,,,,,,,,,,,,,,,,,,,,,,,,,,,,,,,,,,107.58849100000225,107.60430230002385,108.08953620004468,108.1073228000314,108.12289090000559,108.12289090000559,108.12289090000559,111.26788060000399,Foils\scenes6.jpg,none,s,3.1378383000264876,None,,,,,,,,,00059,001,2026-01-19_15h22.33.265,MST_test,2024.2.0,59.82245889869538,2026-01-19 15h22.47.333286 +0530,
2,0,3,o,4.632675000000745,None,3,0,2,111.28386190003948,,,,,,,,,,,,,,,,,,,,,,,,,,,,,,,,,,,,,,,,,,,,,,,,,,111.2679745000205,111.28386190003948,111.76923190004891,111.7868310000049,111.80333070002962,111.80333070002962,111.80333070002962,116.45261440001195,Objects\149a.jpg,post,o,4.632675000000745,None,,,,,,,,,00059,001,2026-01-19_15h22.33.265,MST_test,2024.2.0,59.82245889869538,2026-01-19 15h22.47.333286 +0530,
3,0,4,o,1.3184859000029974,None,4,0,3,116.46878809999907,,,,,,,,,,,,,,,,,,,,,,,,,,,,,,,,,,,,,,,,,,,,,,,,,,116.45289130002493,116.46878809999907,116.95395900000585,116.97560520004481,117.00550140003907,117.00550140003907,117.00550140003907,118.32599129999289,Scenes\130a.jpg,mid,o,1.3184859000029974,None,,,,,,,,,00059,001,2026-01-19_15h22.33.265,MST_test,2024.2.0,59.82245889869538,2026-01-19 15h22.47.333286 +0530,
4,0,5,o,1.8473943999852054,None,5,0,4,118.34212330001174,,,,,,,,,,,,,,,,,,,,,,,,,,,,,,,,,,,,,,,,,,,,,,,,,,118.32608700002311,118.34212330001174,118.82702590001281,118.84443890000694,118.86136959999567,118.86136959999567,118.86136959999567,120.71758350002347,Scenes\183a.jpg,mid,o,1.8473943999852054,None,,,,,,,,,00059,001,2026-01-19_15h22.33.265,MST_test,2024.2.0,59.82245889869538,2026-01-19 15h22.47.333286 +0530,
5,0,6,n,1.7263163999887183,None,6,0,5,120.7336203000159,,,,,,,,,,,,,,,,,,,,,,,,,,,,,,,,,,,,,,,,,,,,,,,,,,120.71768290002365,120.7336203000159,121.21883060003165,121.24546270002611,121.2698275000439,121.2698275000439,121.2698275000439,123.00891239999328,Foils\033a.jpg,none,n,1.7263163999887183,None,,,,,,,,,00059,001,2026-01-19_15h22.33.265,MST_test,2024.2.0,59.82245889869538,2026-01-19 15h22.47.333286 +0530,
6,0,7,o,2.076149099972099,None,7,0,6,123.02507430000696,,,,,,,,,,,,,,,,,,,,,,,,,,,,,,,,,,,,,,,,,,,,,,,,,,123.00900830002502,123.02507430000696,123.51007760001812,123.52606629999354,123.54430760000832,123.54430760000832,123.54430760000832,125.63473190000514,Scenes\097a.jpg,post,o,2.076149099972099,None,,,,,,,,,00059,001,2026-01-19_15h22.33.265,MST_test,2024.2.0,59.82245889869538,2026-01-19 15h22.47.333286 +0530,
7,0,8,n,2.1067753999959677,None,8,0,7,125.65097469999455,,,,,,,,,,,,,,,,,,,,,,,,,,,,,,,,,,,,,,,,,,,,,,,,,,125.63484230003087,125.65097469999455,126.13608180003939,126.1592484000139,126.1695519000059,126.1695519000059,126.1695519000059,128.27818950003712,Foils\049a.jpg,none,n,2.1067753999959677,None,,,,,,,,,00059,001,2026-01-19_15h22.33.265,MST_test,2024.2.0,59.82245889869538,2026-01-19 15h22.47.333286 +0530,
8,0,9,s,2.5927549000480212,None,9,0,8,128.29355020000366,,,,,,,,,,,,,,,,,,,,,,,,,,,,,,,,,,,,,,,,,,,,,,,,,,128.27829660003772,128.29355020000366,128.7786309000221,128.80014060001122,128.81196900003124,128.81196900003124,128.81196900003124,131.42172760004178,Objects\085b.jpg,pre,s,2.5927549000480212,None,,,,,,,,,00059,001,2026-01-19_15h22.33.265,MST_test,2024.2.0,59.82245889869538,2026-01-19 15h22.47.333286 +0530,
9,0,10,o,2.1434709999593906,None,10,0,9,131.43792100000428,,,,,,,,,,,,,,,,,,,,,,,,,,,,,,,,,,,,,,,,,,,,,,,,,,131.4218222000054,131.43792100000428,131.9228618000052,131.93922900001053,131.9563499999931,131.9563499999931,131.9563499999931,134.11458880000282,Objects\066a.jpg,mid,o,2.1434709999593906,None,,,,,,,,,00059,001,2026-01-19_15h22.33.265,MST_test,2024.2.0,59.82245889869538,2026-01-19 15h22.47.333286 +0530,
10,0,11,s,2.407414500019513,None,11,0,10,134.1307657000143,,,,,,,,,,,,,,,,,,,,,,,,,,,,,,,,,,,,,,,,,,,,,,,,,,134.11469090002356,134.1307657000143,134.61561939999228,134.69101860001683,134.7167048000265,134.7167048000265,134.7167048000265,137.12518490001094,Foils\scenes15.jpg,none,s,2.407414500019513,None,,,,,,,,,00059,001,2026-01-19_15h22.33.265,MST_test,2024.2.0,59.82245889869538,2026-01-19 15h22.47.333286 +0530,
11,0,12,s,1.391976099985186,None,12,0,11,137.1411849000142,,,,,,,,,,,,,,,,,,,,,,,,,,,,,,,,,,,,,,,,,,,,,,,,,,137.12527600000612,137.1411849000142,137.62620960001368,137.6545163000119,137.677175800025,137.677175800025,137.677175800025,139.08211489999667,Scenes\152a.jpg,post,s,1.391976099985186,None,,,,,,,,,00059,001,2026-01-19_15h22.33.265,MST_test,2024.2.0,59.82245889869538,2026-01-19 15h22.47.333286 +0530,
12,0,13,o,2.131491100008134,None,13,0,12,139.09804830001667,,,,,,,,,,,,,,,,,,,,,,,,,,,,,,,,,,,,,,,,,,,,,,,,,,139.08221100002993,139.09804830001667,139.58315740001854,139.6002024000045,139.6174033000134,139.6174033000134,139.6174033000134,141.7579579000012,Objects\098a.jpg,mid,o,2.131491100008134,None,,,,,,,,,00059,001,2026-01-19_15h22.33.265,MST_test,2024.2.0,59.82245889869538,2026-01-19 15h22.47.333286 +0530,
13,0,14,o,1.319085199967958,None,14,0,13,141.77406710002106,,,,,,,,,,,,,,,,,,,,,,,,,,,,,,,,,,,,,,,,,,,,,,,,,,141.75805170001695,141.77406710002106,142.259060100012,142.27520190004725,142.29262630001176,142.29262630001176,142.29262630001176,143.6145414999919,Objects\139a.jpg,mid,o,1.319085199967958,None,,,,,,,,,00059,001,2026-01-19_15h22.33.265,MST_test,2024.2.0,59.82245889869538,2026-01-19 15h22.47.333286 +0530,
14,0,15,o,1.3733821000205353,None,15,0,14,143.63058080000337,,,,,,,,,,,,,,,,,,,,,,,,,,,,,,,,,,,,,,,,,,,,,,,,,,143.6146357000107,143.63058080000337,144.11556070001097,144.14939760003472,144.16674390004482,144.16674390004482,144.16674390004482,145.55430860002525,Scenes\018b.jpg,post,o,1.3733821000205353,None,,,,,,,,,00059,001,2026-01-19_15h22.33.265,MST_test,2024.2.0,59.82245889869538,2026-01-19 15h22.47.333286 +0530,
15,0,16,o,1.3294802000164054,None,16,0,15,145.57079160003923,,,,,,,,,,,,,,,,,,,,,,,,,,,,,,,,,,,,,,,,,,,,,,,,,,145.55441750003956,145.57079160003923,146.05575689999387,146.08947340003215,146.10680410003988,146.10680410003988,146.10680410003988,147.4451780000236,Scenes\029a.jpg,pre,o,1.3294802000164054,None,,,,,,,,,00059,001,2026-01-19_15h22.33.265,MST_test,2024.2.0,59.82245889869538,2026-01-19 15h22.47.333286 +0530,
16,0,17,n,4.4244428999954835,None,17,0,16,147.46066470001824,,,,,,,,,,,,,,,,,,,,,,,,,,,,,,,,,,,,,,,,,,,,,,,,,,147.4452745000017,147.46066470001824,147.94578920002095,147.97040809999453,147.97987790004117,147.97987790004117,147.97987790004117,152.41178940003738,Foils\018a.jpg,none,n,4.4244428999954835,None,,,,,,,,,00059,001,2026-01-19_15h22.33.265,MST_test,2024.2.0,59.82245889869538,2026-01-19 15h22.47.333286 +0530,
17,0,18,o,2.633789599989541,None,18,0,17,152.42804600001546,,,,,,,,,,,,,,,,,,,,,,,,,,,,,,,,,,,,,,,,,,,,,,,,,,152.41188410000177,152.42804600001546,152.9132998000132,152.93817680003121,152.9465354999993,152.9465354999993,152.9465354999993,155.58981780003523,Objects\124b.jpg,post,o,2.633789599989541,None,,,,,,,,,00059,001,2026-01-19_15h22.33.265,MST_test,2024.2.0,59.82245889869538,2026-01-19 15h22.47.333286 +0530,
18,0,19,s,2.4397570000146516,None,19,0,18,155.60593230003724,,,,,,,,,,,,,,,,,,,,,,,,,,,,,,,,,,,,,,,,,,,,,,,,,,155.58991219999734,155.60593230003724,156.09098920004908,156.110308000003,156.1253665999975,156.1253665999975,156.1253665999975,158.56692880002083,Scenes\061a.jpg,post,s,2.4397570000146516,None,,,,,,,,,00059,001,2026-01-19_15h22.33.265,MST_test,2024.2.0,59.82245889869538,2026-01-19 15h22.47.333286 +0530,
19,0,20,o,2.0787292000022717,None,20,0,19,158.58294270001352,,,,,,,,,,,,,,,,,,,,,,,,,,,,,,,,,,,,,,,,,,,,,,,,,,158.56702250003582,158.58294270001352,159.06802240002435,159.0828817000147,159.10140610003145,159.10140610003145,159.10140610003145,161.19243530003587,Objects\002a.jpg,post,o,2.0787292000022717,None,,,,,,,,,00059,001,2026-01-19_15h22.33.265,MST_test,2024.2.0,59.82245889869538,2026-01-19 15h22.47.333286 +0530,
20,0,21,o,1.2437692999956198,None,21,0,20,161.20878950000042,,,,,,,,,,,,,,,,,,,,,,,,,,,,,,,,,,,,,,,,,,,,,,,,,,161.19253240001854,161.20878950000042,161.69376150000608,161.7208095000242,161.7447686000378,161.7447686000378,161.7447686000378,162.99908780003898,Scenes\136a.jpg,mid,o,1.2437692999956198,None,,,,,,,,,00059,001,2026-01-19_15h22.33.265,MST_test,2024.2.0,59.82245889869538,2026-01-19 15h22.47.333286 +0530,
21,0,22,s,2.4539458000217564,None,22,0,21,163.01511939999182,,,,,,,,,,,,,,,,,,,,,,,,,,,,,,,,,,,,,,,,,,,,,,,,,,162.9991951000411,163.01511939999182,163.50024780002423,163.52454050001688,163.53371139999945,163.53371139999945,163.53371139999945,165.99288490001345,Objects\032b.jpg,pre,s,2.4539458000217564,None,,,,,,,,,00059,001,2026-01-19_15h22.33.265,MST_test,2024.2.0,59.82245889869538,2026-01-19 15h22.47.333286 +0530,
22,0,23,o,4.972641800006386,None,23,0,22,166.00905779999448,,,,,,,,,,,,,,,,,,,,,,,,,,,,,,,,,,,,,,,,,,,,,,,,,,165.99297850002768,166.00905779999448,166.49390970001696,166.51911789999576,166.52747930004261,166.52747930004261,166.52747930004261,171.5120673000347,Objects\181b.jpg,mid,o,4.972641800006386,None,,,,,,,,,00059,001,2026-01-19_15h22.33.265,MST_test,2024.2.0,59.82245889869538,2026-01-19 15h22.47.333286 +0530,
23,0,24,s,2.172431500046514,None,24,0,23,171.52815250004642,,,,,,,,,,,,,,,,,,,,,,,,,,,,,,,,,,,,,,,,,,,,,,,,,,171.5121744000353,171.52815250004642,172.01338580000447,172.03002579999156,172.04765110003063,172.04765110003063,172.04765110003063,174.22211380000226,Foils\scenes18.jpg,none,s,2.172431500046514,None,,,,,,,,,00059,001,2026-01-19_15h22.33.265,MST_test,2024.2.0,59.82245889869538,2026-01-19 15h22.47.333286 +0530,
24,0,25,n,1.4560571999754757,None,25,0,24,174.23775900003966,,,,,,,,,,,,,,,,,,,,,,,,,,,,,,,,,,,,,,,,,,,,,,,,,,174.22220750001725,174.23775900003966,174.722740600002,174.74555400002282,174.7563618000131,174.7563618000131,174.7563618000131,176.22861750004813,Foils\066a.jpg,none,n,1.4560571999754757,None,,,,,,,,,00059,001,2026-01-19_15h22.33.265,MST_test,2024.2.0,59.82245889869538,2026-01-19 15h22.47.333286 +0530,
25,0,26,s,2.3604443999938667,None,26,0,25,176.24465170002077,,,,,,,,,,,,,,,,,,,,,,,,,,,,,,,,,,,,,,,,,,,,,,,,,,176.2287143000285,176.24465170002077,176.72989270003745,176.76381380000385,176.78098800004227,176.78098800004227,176.78098800004227,179.15573190001305,Scenes\138b.jpg,post,s,2.3604443999938667,None,,,,,,,,,00059,001,2026-01-19_15h22.33.265,MST_test,2024.2.0,59.82245889869538,2026-01-19 15h22.47.333286 +0530,
26,0,27,s,1.8006788000348024,None,27,0,26,179.17169920000015,,,,,,,,,,,,,,,,,,,,,,,,,,,,,,,,,,,,,,,,,,,,,,,,,,179.15582630003337,179.17169920000015,179.6566609000438,179.6988351000473,179.70772290002787,179.70772290002787,179.70772290002787,181.51410780003062,Scenes\002b.jpg,pre,s,1.8006788000348024,None,,,,,,,,,00059,001,2026-01-19_15h22.33.265,MST_test,2024.2.0,59.82245889869538,2026-01-19 15h22.47.333286 +0530,
27,0,28,s,1.2104481999995187,None,28,0,27,181.5300767000299,,,,,,,,,,,,,,,,,,,,,,,,,,,,,,,,,,,,,,,,,,,,,,,,,,181.51420229999349,181.5300767000299,182.0153411999927,182.06551810004748,182.08192770002643,182.08192770002643,182.08192770002643,183.3030544000212,Scenes\165b.jpg,pre,s,1.2104481999995187,None,,,,,,,,,00059,001,2026-01-19_15h22.33.265,MST_test,2024.2.0,59.82245889869538,2026-01-19 15h22.47.333286 +0530,
28,0,29,s,3.853011199971661,None,29,0,28,183.31914040003903,,,,,,,,,,,,,,,,,,,,,,,,,,,,,,,,,,,,,,,,,,,,,,,,,,183.303146500024,183.31914040003903,183.80444840004202,183.8283897000365,183.83899690001272,183.83899690001272,183.83899690001272,187.70222340000328,Objects\179b.jpg,post,s,3.853011199971661,None,,,,,,,,,00059,001,2026-01-19_15h22.33.265,MST_test,2024.2.0,59.82245889869538,2026-01-19 15h22.47.333286 +0530,
29,0,30,s,1.4786735999514349,None,30,0,29,187.71851080004126,,,,,,,,,,,,,,,,,,,,,,,,,,,,,,,,,,,,,,,,,,,,,,,,,,187.7023346000351,187.71851080004126,188.20317150000483,188.24286470003426,188.25337530003162,188.25337530003162,188.25337530003162,189.74239490000764,Scenes\164b.jpg,mid,s,1.4786735999514349,None,,,,,,,,,00059,001,2026-01-19_15h22.33.265,MST_test,2024.2.0,59.82245889869538,2026-01-19 15h22.47.333286 +0530,
30,0,31,o,1.359214800002519,None,31,0,30,189.75860880000982,,,,,,,,,,,,,,,,,,,,,,,,,,,,,,,,,,,,,,,,,,,,,,,,,,189.74248960003024,189.75860880000982,190.243622900045,190.2724608000135,190.29415670002345,190.29415670002345,190.29415670002345,191.66567240003496,Scenes\071a.jpg,pre,o,1.359214800002519,None,,,,,,,,,00059,001,2026-01-19_15h22.33.265,MST_test,2024.2.0,59.82245889869538,2026-01-19 15h22.47.333286 +0530,
31,0,32,o,1.1072739000082947,None,32,0,31,191.6818947000429,,,,,,,,,,,,,,,,,,,,,,,,,,,,,,,,,,,,,,,,,,,,,,,,,,191.66591969999718,191.6818947000429,192.16700130002573,192.19527070003096,192.21692800003802,192.21692800003802,192.21692800003802,193.33806590002496,Scenes\184a.jpg,mid,o,1.1072739000082947,None,,,,,,,,,00059,001,2026-01-19_15h22.33.265,MST_test,2024.2.0,59.82245889869538,2026-01-19 15h22.47.333286 +0530,
32,0,33,s,1.8272067000507377,None,33,0,32,193.3544106000336,,,,,,,,,,,,,,,,,,,,,,,,,,,,,,,,,,,,,,,,,,,,,,,,,,193.33816220000153,193.3544106000336,193.83942400000524,193.86346950003644,193.87355330004357,193.87355330004357,193.87355330004357,195.71334320004098,Objects\059b.jpg,post,s,1.8272067000507377,None,,,,,,,,,00059,001,2026-01-19_15h22.33.265,MST_test,2024.2.0,59.82245889869538,2026-01-19 15h22.47.333286 +0530,
33,0,34,s,2.508394100004807,None,34,0,33,195.72939079999924,,,,,,,,,,,,,,,,,,,,,,,,,,,,,,,,,,,,,,,,,,,,,,,,,,195.71344439999666,195.72939079999924,196.2143555000075,196.2364182000165,196.24796960002277,196.24796960002277,196.24796960002277,198.75718060001964,Objects\019b.jpg,pre,s,2.508394100004807,None,,,,,,,,,00059,001,2026-01-19_15h22.33.265,MST_test,2024.2.0,59.82245889869538,2026-01-19 15h22.47.333286 +0530,
34,0,35,s,3.4493603999726474,None,35,0,34,198.77326889999676,,,,,,,,,,,,,,,,,,,,,,,,,,,,,,,,,,,,,,,,,,,,,,,,,,198.75728330004495,198.77326889999676,199.2587716000271,199.28050970000913,199.29171740001766,199.29171740001766,199.29171740001766,202.7545259000035,Objects\116b.jpg,pre,s,3.4493603999726474,None,,,,,,,,,00059,001,2026-01-19_15h22.33.265,MST_test,2024.2.0,59.82245889869538,2026-01-19 15h22.47.333286 +0530,
35,0,36,o,2.513516900013201,None,36,0,35,202.77072240004782,,,,,,,,,,,,,,,,,,,,,,,,,,,,,,,,,,,,,,,,,,,,,,,,,,202.75462210003752,202.77072240004782,203.2558074000408,203.28574580000713,203.30674240004737,203.30674240004737,203.30674240004737,205.8320274000289,Scenes\154b.jpg,post,o,2.513516900013201,None,,,,,,,,,00059,001,2026-01-19_15h22.33.265,MST_test,2024.2.0,59.82245889869538,2026-01-19 15h22.47.333286 +0530,
36,0,37,n,1.4619675999856554,None,37,0,36,205.84802690002834,,,,,,,,,,,,,,,,,,,,,,,,,,,,,,,,,,,,,,,,,,,,,,,,,,205.8321200000355,205.84802690002834,206.33355320000555,206.3547560000443,206.36647330003325,206.36647330003325,206.36647330003325,207.8389742000145,Foils\113a.jpg,none,n,1.4619675999856554,None,,,,,,,,,00059,001,2026-01-19_15h22.33.265,MST_test,2024.2.0,59.82245889869538,2026-01-19 15h22.47.333286 +0530,
37,0,38,n,0.823059500020463,None,38,0,37,207.85517350002192,,,,,,,,,,,,,,,,,,,,,,,,,,,,,,,,,,,,,,,,,,,,,,,,,,207.83908580004936,207.85517350002192,208.34015020000516,208.36133929999778,208.37362680002116,208.37362680002116,208.37362680002116,209.2114213000168,Foils\026a.jpg,none,n,0.823059500020463,None,,,,,,,,,00059,001,2026-01-19_15h22.33.265,MST_test,2024.2.0,59.82245889869538,2026-01-19 15h22.47.333286 +0530,
38,0,39,s,3.4572176999645308,None,39,0,38,209.2265483000083,,,,,,,,,,,,,,,,,,,,,,,,,,,,,,,,,,,,,,,,,,,,,,,,,,209.21152440004516,209.2265483000083,209.71191360004013,209.75565980002284,209.77917100000195,209.77917100000195,209.77917100000195,213.24172079999698,Scenes\045b.jpg,pre,s,3.4572176999645308,None,,,,,,,,,00059,001,2026-01-19_15h22.33.265,MST_test,2024.2.0,59.82245889869538,2026-01-19 15h22.47.333286 +0530,
39,0,40,o,1.659984199970495,None,40,0,39,213.25797410000814,,,,,,,,,,,,,,,,,,,,,,,,,,,,,,,,,,,,,,,,,,,,,,,,,,213.24182160000782,213.25797410000814,213.7424993000459,213.7586297999951,213.77620010002283,213.77620010002283,213.77620010002283,215.4490620000288,Objects\191a.jpg,post,o,1.659984199970495,None,,,,,,,,,00059,001,2026-01-19_15h22.33.265,MST_test,2024.2.0,59.82245889869538,2026-01-19 15h22.47.333286 +0530,
40,0,41,o,1.0289346000063233,None,41,0,40,215.4657126000384,,,,,,,,,,,,,,,,,,,,,,,,,,,,,,,,,,,,,,,,,,,,,,,,,,215.44916530000046,215.4657126000384,215.9501503999927,215.96663500001887,215.9836096999934,215.9836096999934,215.9836096999934,217.02122660004534,Objects\049a.jpg,post,o,1.0289346000063233,None,,,,,,,,,00059,001,2026-01-19_15h22.33.265,MST_test,2024.2.0,59.82245889869538,2026-01-19 15h22.47.333286 +0530,
41,0,42,o,1.032775599975139,None,42,0,41,217.0372195999953,,,,,,,,,,,,,,,,,,,,,,,,,,,,,,,,,,,,,,,,,,,,,,,,,,217.02132180001354,217.0372195999953,217.5227100000484,217.53746350004803,217.5556766000227,217.5556766000227,217.5556766000227,218.5936333000427,Objects\148a.jpg,pre,o,1.032775599975139,None,,,,,,,,,00059,001,2026-01-19_15h22.33.265,MST_test,2024.2.0,59.82245889869538,2026-01-19 15h22.47.333286 +0530,
42,0,43,o,2.93237280001631,None,43,0,42,218.60949900001287,,,,,,,,,,,,,,,,,,,,,,,,,,,,,,,,,,,,,,,,,,,,,,,,,,218.59372860001167,218.60949900001287,219.09451280004578,219.11799050000263,219.12824019999243,219.12824019999243,219.12824019999243,222.07225690002088,Objects\015b.jpg,post,o,2.93237280001631,None,,,,,,,,,00059,001,2026-01-19_15h22.33.265,MST_test,2024.2.0,59.82245889869538,2026-01-19 15h22.47.333286 +0530,
43,0,44,s,1.6847728000138886,None,44,0,43,222.08824599999934,,,,,,,,,,,,,,,,,,,,,,,,,,,,,,,,,,,,,,,,,,,,,,,,,,222.07235080003738,222.08824599999934,222.57353729999159,222.5974925000337,222.606911400042,222.606911400042,222.606911400042,224.2965040000272,Objects\118b.jpg,mid,s,1.6847728000138886,None,,,,,,,,,00059,001,2026-01-19_15h22.33.265,MST_test,2024.2.0,59.82245889869538,2026-01-19 15h22.47.333286 +0530,
44,0,45,o,1.484496399993077,None,45,0,44,224.31268510001246,,,,,,,,,,,,,,,,,,,,,,,,,,,,,,,,,,,,,,,,,,,,,,,,,,224.2965951000224,224.31268510001246,224.7978987999959,224.812633500027,224.83113460004097,224.83113460004097,224.83113460004097,226.32067220000317,Objects\030a.jpg,pre,o,1.484496399993077,None,,,,,,,,,00059,001,2026-01-19_15h22.33.265,MST_test,2024.2.0,59.82245889869538,2026-01-19 15h22.47.333286 +0530,
45,0,46,n,2.045247199945152,None,46,0,45,226.33643940003822,,,,,,,,,,,,,,,,,,,,,,,,,,,,,,,,,,,,,,,,,,,,,,,,,,226.32076850003796,226.33643940003822,226.8217632000451,226.8427345000091,226.85487750003813,226.85487750003813,226.85487750003813,228.91289840004174,Foils\086a.jpg,none,n,2.045247199945152,None,,,,,,,,,00059,001,2026-01-19_15h22.33.265,MST_test,2024.2.0,59.82245889869538,2026-01-19 15h22.47.333286 +0530,
46,0,47,o,1.2928491000202484,None,47,0,46,228.92896420002216,,,,,,,,,,,,,,,,,,,,,,,,,,,,,,,,,,,,,,,,,,,,,,,,,,228.91299000004074,228.92896420002216,229.4141347000259,229.42868980002822,229.447555700026,229.447555700026,229.447555700026,230.75262770004338,Objects\130a.jpg,post,o,1.2928491000202484,None,,,,,,,,,00059,001,2026-01-19_15h22.33.265,MST_test,2024.2.0,59.82245889869538,2026-01-19 15h22.47.333286 +0530,
47,0,48,s,1.5084667000337504,None,48,0,47,230.76863440003945,,,,,,,,,,,,,,,,,,,,,,,,,,,,,,,,,,,,,,,,,,,,,,,,,,230.7527226000093,230.76863440003945,231.2538443999947,231.27765930001624,231.28789060004056,231.28789060004056,231.28789060004056,232.81006010004785,Scenes\126a.jpg,pre,s,1.5084667000337504,None,,,,,,,,,00059,001,2026-01-19_15h22.33.265,MST_test,2024.2.0,59.82245889869538,2026-01-19 15h22.47.333286 +0530,
48,0,49,s,1.9154483000165783,None,49,0,48,232.8258402000065,,,,,,,,,,,,,,,,,,,,,,,,,,,,,,,,,,,,,,,,,,,,,,,,,,232.81015330000082,232.8258402000065,233.31121870002244,233.34941389999585,233.3610151000321,233.3610151000321,233.3610151000321,235.28525570000056,Scenes\043b.jpg,post,s,1.9154483000165783,None,,,,,,,,,00059,001,2026-01-19_15h22.33.265,MST_test,2024.2.0,59.82245889869538,2026-01-19 15h22.47.333286 +0530,
49,0,50,n,4.096865799976513,None,50,0,49,235.3011735000182,,,,,,,,,,,,,,,,,,,,,,,,,,,,,,,,,,,,,,,,,,,,,,,,,,235.28535280004144,235.3011735000182,235.78650170000037,235.8090628000209,235.8196222000406,235.8196222000406,235.8196222000406,239.91823220002698,Foils\090a.jpg,none,n,4.096865799976513,None,,,,,,,,,00059,001,2026-01-19_15h22.33.265,MST_test,2024.2.0,59.82245889869538,2026-01-19 15h22.47.333286 +0530,
50,0,51,s,2.0209329000208527,None,51,0,50,239.9340591999935,,,,,,,,,,,,,,,,,,,,,,,,,,,,,,,,,,,,,,,,,,,,,,,,,,239.91832420002902,239.9340591999935,240.41958420001902,240.4632754000486,240.48723379999865,240.48723379999865,240.48723379999865,242.51049270003568,Scenes\015a.jpg,post,s,2.0209329000208527,None,,,,,,,,,00059,001,2026-01-19_15h22.33.265,MST_test,2024.2.0,59.82245889869538,2026-01-19 15h22.47.333286 +0530,
51,0,52,o,1.1973859000136144,None,52,0,51,242.52648290002253,,,,,,,,,,,,,,,,,,,,,,,,,,,,,,,,,,,,,,,,,,,,,,,,,,242.51058699999703,242.52648290002253,243.01251299999421,243.03998780000256,243.0627758000046,243.0627758000046,243.0627758000046,244.26653020002414,Scenes\079a.jpg,post,o,1.1973859000136144,None,,,,,,,,,00059,001,2026-01-19_15h22.33.265,MST_test,2024.2.0,59.82245889869538,2026-01-19 15h22.47.333286 +0530,
52,0,53,o,1.560396600048989,None,53,0,52,244.28274719999172,,,,,,,,,,,,,,,,,,,,,,,,,,,,,,,,,,,,,,,,,,,,,,,,,,244.26662619999843,244.28274719999172,244.76771530002588,244.8079710000311,244.81944310001563,244.81944310001563,244.81944310001563,246.39068470004713,Scenes\171a.jpg,pre,o,1.560396600048989,None,,,,,,,,,00059,001,2026-01-19_15h22.33.265,MST_test,2024.2.0,59.82245889869538,2026-01-19 15h22.47.333286 +0530,
53,0,54,o,0.982777500001248,None,54,0,53,246.40700560004916,,,,,,,,,,,,,,,,,,,,,,,,,,,,,,,,,,,,,,,,,,,,,,,,,,246.3907870000112,246.40700560004916,246.89193660003366,246.92340220004553,246.9427982000052,246.9427982000052,246.9427982000052,247.92945350002265,Scenes\128a.jpg,post,o,0.982777500001248,None,,,,,,,,,00059,001,2026-01-19_15h22.33.265,MST_test,2024.2.0,59.82245889869538,2026-01-19 15h22.47.333286 +0530,
54,0,55,o,1.4189146000426263,None,55,0,54,247.94557080004597,,,,,,,,,,,,,,,,,,,,,,,,,,,,,,,,,,,,,,,,,,,,,,,,,,247.9295447000186,247.94557080004597,248.43085780000547,248.46967500000028,248.48135830002138,248.48135830002138,248.48135830002138,249.90295390004758,Scenes\085b.jpg,mid,o,1.4189146000426263,None,,,,,,,,,00059,001,2026-01-19_15h22.33.265,MST_test,2024.2.0,59.82245889869538,2026-01-19 15h22.47.333286 +0530,
55,0,56,o,6.341401399986353,None,56,0,55,249.91902730002766,,,,,,,,,,,,,,,,,,,,,,,,,,,,,,,,,,,,,,,,,,,,,,,,,,249.90305359999184,249.91902730002766,250.40478340000845,250.43469160003588,250.45462239999324,250.45462239999324,250.45462239999324,256.8103745999979,Scenes\168b.jpg,post,o,6.341401399986353,None,,,,,,,,,00059,001,2026-01-19_15h22.33.265,MST_test,2024.2.0,59.82245889869538,2026-01-19 15h22.47.333286 +0530,
56,0,57,o,1.8581127999932505,None,57,0,56,256.8266844000318,,,,,,,,,,,,,,,,,,,,,,,,,,,,,,,,,,,,,,,,,,,,,,,,,,256.8104708000319,256.8266844000318,257.3116522000055,257.3287159000174,257.34585080004763,257.34585080004763,257.34585080004763,259.21893720002845,Objects\090a.jpg,mid,o,1.8581127999932505,None,,,,,,,,,00059,001,2026-01-19_15h22.33.265,MST_test,2024.2.0,59.82245889869538,2026-01-19 15h22.47.333286 +0530,
57,0,58,o,1.211433099990245,None,58,0,57,259.23498320003273,,,,,,,,,,,,,,,,,,,,,,,,,,,,,,,,,,,,,,,,,,,,,,,,,,259.21903710003244,259.23498320003273,259.72036800003843,259.73501290002605,259.7534379000426,259.7534379000426,259.7534379000426,260.9751155000413,Objects\100a.jpg,mid,o,1.211433099990245,None,,,,,,,,,00059,001,2026-01-19_15h22.33.265,MST_test,2024.2.0,59.82245889869538,2026-01-19 15h22.47.333286 +0530,
58,0,59,s,1.646332300035283,None,59,0,58,260.9911390999914,,,,,,,,,,,,,,,,,,,,,,,,,,,,,,,,,,,,,,,,,,,,,,,,,,260.97521550004603,260.9911390999914,261.47633810003754,261.51532659999793,261.5262111000484,261.5262111000484,261.5262111000484,263.1830077000195,Scenes\072b.jpg,pre,s,1.646332300035283,None,,,,,,,,,00059,001,2026-01-19_15h22.33.265,MST_test,2024.2.0,59.82245889869538,2026-01-19 15h22.47.333286 +0530,
59,0,60,n,1.6622641999856569,None,60,0,59,263.1988724000403,,,,,,,,,,,,,,,,,,,,,,,,,,,,,,,,,,,,,,,,,,,,,,,,,,263.1831033999915,263.1988724000403,263.6839518000488,263.70546970004216,263.7174282000051,263.7174282000051,263.7174282000051,265.39053610002156,Foils\057a.jpg,none,n,1.6622641999856569,None,,,,,,,,,00059,001,2026-01-19_15h22.33.265,MST_test,2024.2.0,59.82245889869538,2026-01-19 15h22.47.333286 +0530,
60,0,61,o,1.488522500032559,None,61,0,60,265.4067141000414,,,,,,,,,,,,,,,,,,,,,,,,,,,,,,,,,,,,,,,,,,,,,,,,,,265.3906319999951,265.4067141000414,265.8919550999999,265.90764829999534,265.925045400043,265.925045400043,265.925045400043,267.4143782000174,Objects\038a.jpg,pre,o,1.488522500032559,None,,,,,,,,,00059,001,2026-01-19_15h22.33.265,MST_test,2024.2.0,59.82245889869538,2026-01-19 15h22.47.333286 +0530,
61,0,62,s,3.750616099976469,None,62,0,61,267.43035260000033,,,,,,,,,,,,,,,,,,,,,,,,,,,,,,,,,,,,,,,,,,,,,,,,,,267.4144723000354,267.43035260000033,267.91575650003506,267.955291100021,267.9655764999916,267.9655764999916,267.9655764999916,271.72958169999765,Scenes\041b.jpg,mid,s,3.750616099976469,None,,,,,,,,,00059,001,2026-01-19_15h22.33.265,MST_test,2024.2.0,59.82245889869538,2026-01-19 15h22.47.333286 +0530,
62,0,63,n,1.7477709999657236,None,63,0,62,271.7454573000432,,,,,,,,,,,,,,,,,,,,,,,,,,,,,,,,,,,,,,,,,,,,,,,,,,271.7296799000469,271.7454573000432,272.2307189000421,272.26302780001424,272.28062760003377,272.28062760003377,272.28062760003377,274.03813620004803,Scenes\179b.jpg,mid,n,1.7477709999657236,None,,,,,,,,,00059,001,2026-01-19_15h22.33.265,MST_test,2024.2.0,59.82245889869538,2026-01-19 15h22.47.333286 +0530,
63,0,64,s,1.5685086000012234,None,64,0,63,274.05354720004834,,,,,,,,,,,,,,,,,,,,,,,,,,,,,,,,,,,,,,,,,,,,,,,,,,274.0382330000284,274.05354720004834,274.5387530000298,274.560942400014,274.5721076000482,274.5721076000482,274.5721076000482,276.14497590000974,Foils\105a.jpg,none,s,1.5685086000012234,None,,,,,,,,,00059,001,2026-01-19_15h22.33.265,MST_test,2024.2.0,59.82245889869538,2026-01-19 15h22.47.333286 +0530,
64,0,65,o,2.0272593999980018,None,65,0,64,276.16104999999516,,,,,,,,,,,,,,,,,,,,,,,,,,,,,,,,,,,,,,,,,,,,,,,,,,276.14507260004757,276.16104999999516,276.64612180000404,276.67448180000065,276.69650790002197,276.69650790002197,276.69650790002197,278.73734819999663,Scenes\145a.jpg,post,o,2.0272593999980018,None,,,,,,,,,00059,001,2026-01-19_15h22.33.265,MST_test,2024.2.0,59.82245889869538,2026-01-19 15h22.47.333286 +0530,
65,0,66,s,1.6921279999660328,None,66,0,65,278.7533342000097,,,,,,,,,,,,,,,,,,,,,,,,,,,,,,,,,,,,,,,,,,,,,,,,,,278.7374392999918,278.7533342000097,279.2386546000489,279.25927650002996,279.2717767000431,279.2717767000431,279.2717767000431,280.97838200000115,Objects\156b.jpg,mid,s,1.6921279999660328,None,,,,,,,,,00059,001,2026-01-19_15h22.33.265,MST_test,2024.2.0,59.82245889869538,2026-01-19 15h22.47.333286 +0530,
66,0,67,o,1.9054795999545604,None,67,0,66,280.9947194000124,,,,,,,,,,,,,,,,,,,,,,,,,,,,,,,,,,,,,,,,,,,,,,,,,,280.97847900004126,280.9947194000124,281.48000660003163,281.5274750000099,281.5471990000224,281.5471990000224,281.5471990000224,283.4537895999965,Scenes\046b.jpg,pre,o,1.9054795999545604,None,,,,,,,,,00059,001,2026-01-19_15h22.33.265,MST_test,2024.2.0,59.82245889869538,2026-01-19 15h22.47.333286 +0530,
67,0,68,o,1.2636949999723583,None,68,0,67,283.46997700002976,,,,,,,,,,,,,,,,,,,,,,,,,,,,,,,,,,,,,,,,,,,,,,,,,,283.45388480002293,283.46997700002976,283.9549270000425,283.9771015000297,283.98919520003255,283.98919520003255,283.98919520003255,285.25999520003097,Scenes\157a.jpg,pre,o,1.2636949999723583,None,,,,,,,,,00059,001,2026-01-19_15h22.33.265,MST_test,2024.2.0,59.82245889869538,2026-01-19 15h22.47.333286 +0530,
68,0,69,n,1.3525732000125572,None,69,0,68,285.27618040004745,,,,,,,,,,,,,,,,,,,,,,,,,,,,,,,,,,,,,,,,,,,,,,,,,,285.26009180000983,285.27618040004745,285.7614028000389,285.7844663000433,285.79540070000803,285.79540070000803,285.79540070000803,287.1500784000382,Foils\034a.jpg,none,n,1.3525732000125572,None,,,,,,,,,00059,001,2026-01-19_15h22.33.265,MST_test,2024.2.0,59.82245889869538,2026-01-19 15h22.47.333286 +0530,
69,0,70,o,1.213958400010597,None,70,0,69,287.1661165000405,,,,,,,,,,,,,,,,,,,,,,,,,,,,,,,,,,,,,,,,,,,,,,,,,,287.15017189999344,287.1661165000405,287.65163390000816,287.6818458000198,287.70217300002696,287.70217300002696,287.70217300002696,288.92318510002224,Scenes\040a.jpg,post,o,1.213958400010597,None,,,,,,,,,00059,001,2026-01-19_15h22.33.265,MST_test,2024.2.0,59.82245889869538,2026-01-19 15h22.47.333286 +0530,
70,0,71,o,3.1392804000061005,None,71,0,70,288.93900330003817,,,,,,,,,,,,,,,,,,,,,,,,,,,,,,,,,,,,,,,,,,,,,,,,,,288.923276800022,288.93900330003817,289.42427560000215,289.44802250002977,289.4574436999974,289.4574436999974,289.4574436999974,292.60254110000096,Objects\078b.jpg,mid,o,3.1392804000061005,None,,,,,,,,,00059,001,2026-01-19_15h22.33.265,MST_test,2024.2.0,59.82245889869538,2026-01-19 15h22.47.333286 +0530,
71,0,72,o,1.522562999976799,None,72,0,71,292.6186750000343,,,,,,,,,,,,,,,,,,,,,,,,,,,,,,,,,,,,,,,,,,,,,,,,,,292.60263999999734,292.6186750000343,293.10367330000736,293.1270132000209,293.13724180002464,293.13724180002464,293.13724180002464,294.67638090002583,Objects\039b.jpg,post,o,1.522562999976799,None,,,,,,,,,00059,001,2026-01-19_15h22.33.265,MST_test,2024.2.0,59.82245889869538,2026-01-19 15h22.47.333286 +0530,
72,0,73,s,1.9273004000424407,None,73,0,72,294.6926016000216,,,,,,,,,,,,,,,,,,,,,,,,,,,,,,,,,,,,,,,,,,,,,,,,,,294.67647790000774,294.6926016000216,295.1775595000363,295.2156706000096,295.2286533000297,295.2286533000297,295.2286533000297,297.1684721999918,Scenes\032a.jpg,mid,s,1.9273004000424407,None,,,,,,,,,00059,001,2026-01-19_15h22.33.265,MST_test,2024.2.0,59.82245889869538,2026-01-19 15h22.47.333286 +0530,
73,0,74,n,1.3965105999959633,None,74,0,73,297.1845480000484,,,,,,,,,,,,,,,,,,,,,,,,,,,,,,,,,,,,,,,,,,,,,,,,,,297.16856419999385,297.1845480000484,297.66972490004264,297.6866173000308,297.7038192000473,297.7038192000473,297.7038192000473,299.1086017000489,Foils\scenes2.jpg,none,n,1.3965105999959633,None,,,,,,,,,00059,001,2026-01-19_15h22.33.265,MST_test,2024.2.0,59.82245889869538,2026-01-19 15h22.47.333286 +0530,
74,0,75,n,1.112430699984543,None,75,0,74,299.12467150000157,,,,,,,,,,,,,,,,,,,,,,,,,,,,,,,,,,,,,,,,,,,,,,,,,,299.10869550000643,299.12467150000157,299.61004830000456,299.633256000001,299.6438887999975,299.6438887999975,299.6438887999975,300.76428520004265,Foils\002a.jpg,none,n,1.112430699984543,None,,,,,,,,,00059,001,2026-01-19_15h22.33.265,MST_test,2024.2.0,59.82245889869538,2026-01-19 15h22.47.333286 +0530,
75,0,76,s,3.281229300017003,None,76,0,75,300.7806241000071,,,,,,,,,,,,,,,,,,,,,,,,,,,,,,,,,,,,,,,,,,,,,,,,,,300.7643767000409,300.7806241000071,301.2656803000136,301.2885279000038,301.298914300045,301.298914300045,301.298914300045,304.5950187999988,Objects\136b.jpg,post,s,3.281229300017003,None,,,,,,,,,00059,001,2026-01-19_15h22.33.265,MST_test,2024.2.0,59.82245889869538,2026-01-19 15h22.47.333286 +0530,
76,0,77,o,1.1687511000200175,None,77,0,76,304.61109260004014,,,,,,,,,,,,,,,,,,,,,,,,,,,,,,,,,,,,,,,,,,,,,,,,,,304.59512320003705,304.61109260004014,305.09722460003104,305.1267772000283,305.1476688000257,305.1476688000257,305.1476688000257,306.3171779999975,Scenes\008b.jpg,post,o,1.1687511000200175,None,,,,,,,,,00059,001,2026-01-19_15h22.33.265,MST_test,2024.2.0,59.82245889869538,2026-01-19 15h22.47.333286 +0530,
77,0,78,n,1.3209998999955133,None,78,0,77,306.33349580003414,,,,,,,,,,,,,,,,,,,,,,,,,,,,,,,,,,,,,,,,,,,,,,,,,,306.31727160001174,306.33349580003414,306.8185363000375,306.84143319999566,306.8517170000123,306.8517170000123,306.8517170000123,308.1736793000018,Foils\074a.jpg,none,n,1.3209998999955133,None,,,,,,,,,00059,001,2026-01-19_15h22.33.265,MST_test,2024.2.0,59.82245889869538,2026-01-19 15h22.47.333286 +0530,
78,0,79,o,1.2882339999778196,None,79,0,78,308.18987320002634,,,,,,,,,,,,,,,,,,,,,,,,,,,,,,,,,,,,,,,,,,,,,,,,,,308.17377370002214,308.18987320002634,308.6748364000232,308.6894161000382,308.70830820000265,308.70830820000265,308.70830820000265,310.01340940000955,Objects\141a.jpg,pre,o,1.2882339999778196,None,,,,,,,,,00059,001,2026-01-19_15h22.33.265,MST_test,2024.2.0,59.82245889869538,2026-01-19 15h22.47.333286 +0530,
79,0,80,n,2.6415600000182167,None,80,0,79,310.02952810004354,,,,,,,,,,,,,,,,,,,,,,,,,,,,,,,,,,,,,,,,,,,,,,,,,,310.01350150001235,310.02952810004354,310.5147417000262,310.5315527000348,310.54796330002137,310.54796330002137,310.54796330002137,313.1912939000176,Foils\scenes11.jpg,none,n,2.6415600000182167,None,,,,,,,,,00059,001,2026-01-19_15h22.33.265,MST_test,2024.2.0,59.82245889869538,2026-01-19 15h22.47.333286 +0530,
80,0,81,s,2.0779572000028566,None,81,0,80,313.20759050000925,,,,,,,,,,,,,,,,,,,,,,,,,,,,,,,,,,,,,,,,,,,,,,,,,,313.19138570001815,313.20759050000925,313.69243140000617,313.71429820003686,313.7257595999981,313.7257595999981,313.7257595999981,315.8171305000433,Objects\082b.jpg,mid,s,2.0779572000028566,None,,,,,,,,,00059,001,2026-01-19_15h22.33.265,MST_test,2024.2.0,59.82245889869538,2026-01-19 15h22.47.333286 +0530,
81,0,82,s,1.9892358999932185,None,82,0,81,315.8331943000085,,,,,,,,,,,,,,,,,,,,,,,,,,,,,,,,,,,,,,,,,,,,,,,,,,315.81722160003847,315.8331943000085,316.3184697999968,316.3412645999924,316.3517323000124,316.3517323000124,316.3517323000124,318.34265910001704,Objects\184b.jpg,pre,s,1.9892358999932185,None,,,,,,,,,00059,001,2026-01-19_15h22.33.265,MST_test,2024.2.0,59.82245889869538,2026-01-19 15h22.47.333286 +0530,
82,0,83,n,1.3744793999940157,None,83,0,82,318.35881210002117,,,,,,,,,,,,,,,,,,,,,,,,,,,,,,,,,,,,,,,,,,,,,,,,,,318.3427506000153,318.35881210002117,318.8438867999939,318.86493570002494,318.87726420001127,318.87726420001127,318.87726420001127,320.2659629000118,Foils\093b.jpg,none,n,1.3744793999940157,None,,,,,,,,,00059,001,2026-01-19_15h22.33.265,MST_test,2024.2.0,59.82245889869538,2026-01-19 15h22.47.333286 +0530,
83,0,84,o,1.435652999964077,None,84,0,83,320.28232510003727,,,,,,,,,,,,,,,,,,,,,,,,,,,,,,,,,,,,,,,,,,,,,,,,,,320.26605460001156,320.28232510003727,320.7692556999973,320.78418200003216,320.8006553000305,320.8006553000305,320.8006553000305,322.2397707000491,Objects\155a.jpg,pre,o,1.435652999964077,None,,,,,,,,,00059,001,2026-01-19_15h22.33.265,MST_test,2024.2.0,59.82245889869538,2026-01-19 15h22.47.333286 +0530,
84,0,85,o,1.6231818000087515,None,85,0,84,322.25566970004,,,,,,,,,,,,,,,,,,,,,,,,,,,,,,,,,,,,,,,,,,,,,,,,,,322.2398618000443,322.25566970004,322.74101920000976,322.7556586000137,322.7741208000225,322.7741208000225,322.7741208000225,324.4137427000096,Objects\052a.jpg,post,o,1.6231818000087515,None,,,,,,,,,00059,001,2026-01-19_15h22.33.265,MST_test,2024.2.0,59.82245889869538,2026-01-19 15h22.47.333286 +0530,
85,0,86,o,1.1121285000117496,None,86,0,85,324.4300624000025,,,,,,,,,,,,,,,,,,,,,,,,,,,,,,,,,,,,,,,,,,,,,,,,,,324.4138372000307,324.4300624000025,324.91504450002685,324.92933810001705,324.94851750001544,324.94851750001544,324.94851750001544,326.06958850001683,Objects\069a.jpg,pre,o,1.1121285000117496,None,,,,,,,,,00059,001,2026-01-19_15h22.33.265,MST_test,2024.2.0,59.82245889869538,2026-01-19 15h22.47.333286 +0530,
86,0,87,s,1.9519417000119574,None,87,0,86,326.08586620003916,,,,,,,,,,,,,,,,,,,,,,,,,,,,,,,,,,,,,,,,,,,,,,,,,,326.0696830000379,326.08586620003916,326.57095270004356,326.5941922000493,326.60433080000803,326.60433080000803,326.60433080000803,328.56176850001793,Objects\013b.jpg,mid,s,1.9519417000119574,None,,,,,,,,,00059,001,2026-01-19_15h22.33.265,MST_test,2024.2.0,59.82245889869538,2026-01-19 15h22.47.333286 +0530,
87,0,88,o,1.3320513000362553,None,88,0,87,328.5780117000104,,,,,,,,,,,,,,,,,,,,,,,,,,,,,,,,,,,,,,,,,,,,,,,,,,328.5618591000093,328.5780117000104,329.06288929999573,329.07693760003895,329.0963691000361,329.0963691000361,329.0963691000361,330.4351878000307,Objects\132a.jpg,mid,o,1.3320513000362553,None,,,,,,,,,00059,001,2026-01-19_15h22.33.265,MST_test,2024.2.0,59.82245889869538,2026-01-19 15h22.47.333286 +0530,
88,0,89,s,1.8989058000152,None,89,0,88,330.4510381,,,,,,,,,,,,,,,,,,,,,,,,,,,,,,,,,,,,,,,,,,,,,,,,,,330.43527640000684,330.4510381,330.936244200042,330.9575718000415,330.9694739000406,330.9694739000406,330.9694739000406,332.8767329000402,Objects\133b.jpg,mid,s,1.8989058000152,None,,,,,,,,,00059,001,2026-01-19_15h22.33.265,MST_test,2024.2.0,59.82245889869538,2026-01-19 15h22.47.333286 +0530,
89,0,90,n,1.296925199974794,None,90,0,89,332.8930446000304,,,,,,,,,,,,,,,,,,,,,,,,,,,,,,,,,,,,,,,,,,,,,,,,,,332.87682720000157,332.8930446000304,333.3782320000464,333.39506750000874,333.4113963000127,333.4113963000127,333.4113963000127,334.7168926000013,Foils\scenes3.jpg,none,n,1.296925199974794,None,,,,,,,,,00059,001,2026-01-19_15h22.33.265,MST_test,2024.2.0,59.82245889869538,2026-01-19 15h22.47.333286 +0530,
90,0,91,n,4.833549099974334,None,91,0,90,334.73270380002214,,,,,,,,,,,,,,,,,,,,,,,,,,,,,,,,,,,,,,,,,,,,,,,,,,334.7169920000015,334.73270380002214,335.21786480001174,335.2360811000108,335.25126170000294,335.25126170000294,335.25126170000294,340.08556660002796,Scenes\113a.jpg,mid,n,4.833549099974334,None,,,,,,,,,00059,001,2026-01-19_15h22.33.265,MST_test,2024.2.0,59.82245889869538,2026-01-19 15h22.47.333286 +0530,
91,0,92,s,2.1512654999969527,None,92,0,91,340.101610600017,,,,,,,,,,,,,,,,,,,,,,,,,,,,,,,,,,,,,,,,,,,,,,,,,,340.0856666000327,340.101610600017,340.5866430000169,340.60916710004676,340.62090140004875,340.62090140004875,340.62090140004875,342.77829760004533,Scenes\118a.jpg,mid,s,2.1512654999969527,None,,,,,,,,,00059,001,2026-01-19_15h22.33.265,MST_test,2024.2.0,59.82245889869538,2026-01-19 15h22.47.333286 +0530,
92,0,93,s,3.3789243000210263,None,93,0,92,342.79439190000994,,,,,,,,,,,,,,,,,,,,,,,,,,,,,,,,,,,,,,,,,,,,,,,,,,342.77838840003824,342.79439190000994,343.2794503000332,343.30236790003255,343.3128645000397,343.3128645000397,343.3128645000397,346.7084472000133,Objects\029b.jpg,post,s,3.3789243000210263,None,,,,,,,,,00059,001,2026-01-19_15h22.33.265,MST_test,2024.2.0,59.82245889869538,2026-01-19 15h22.47.333286 +0530,
93,0,94,n,1.4814785000053234,None,94,0,93,346.724692400021,,,,,,,,,,,,,,,,,,,,,,,,,,,,,,,,,,,,,,,,,,,,,,,,,,346.7085474000196,346.724692400021,347.2098861000268,347.22422740003094,347.2431321000331,347.2431321000331,347.2431321000331,348.73241680004867,Objects\134a.jpg,mid,n,1.4814785000053234,None,,,,,,,,,00059,001,2026-01-19_15h22.33.265,MST_test,2024.2.0,59.82245889869538,2026-01-19 15h22.47.333286 +0530,
94,0,95,o,1.193403799959924,None,95,0,94,348.74861390003935,,,,,,,,,,,,,,,,,,,,,,,,,,,,,,,,,,,,,,,,,,,,,,,,,,348.7325081000454,348.74861390003935,349.23363990004873,349.24930860003224,349.26689060003264,349.26689060003264,349.26689060003264,350.4718167000101,Objects\041a.jpg,mid,o,1.193403799959924,None,,,,,,,,,00059,001,2026-01-19_15h22.33.265,MST_test,2024.2.0,59.82245889869538,2026-01-19 15h22.47.333286 +0530,
95,0,96,s,1.5738997999578714,None,96,0,95,350.4879796000314,,,,,,,,,,,,,,,,,,,,,,,,,,,,,,,,,,,,,,,,,,,,,,,,,,350.4719207000453,350.4879796000314,350.97295490000397,350.99320930003887,351.00642460002564,351.00642460002564,351.00642460002564,352.5960213000071,Objects\014b.jpg,pre,s,1.5738997999578714,None,,,,,,,,,00059,001,2026-01-19_15h22.33.265,MST_test,2024.2.0,59.82245889869538,2026-01-19 15h22.47.333286 +0530,
96,0,97,s,2.000250499986578,None,97,0,96,352.6119851000258,,,,,,,,,,,,,,,,,,,,,,,,,,,,,,,,,,,,,,,,,,,,,,,,,,352.5961134000099,352.6119851000258,353.0984193000477,353.12581430003047,353.14788960001897,353.14788960001897,353.14788960001897,355.1547183000366,Objects\043b.jpg,pre,s,2.000250499986578,None,,,,,,,,,00059,001,2026-01-19_15h22.33.265,MST_test,2024.2.0,59.82245889869538,2026-01-19 15h22.47.333286 +0530,
97,0,98,o,2.090121899964288,None,98,0,97,355.17105830000946,,,,,,,,,,,,,,,,,,,,,,,,,,,,,,,,,,,,,,,,,,,,,,,,,,355.15481730003376,355.17105830000946,355.6560246000299,355.67913470003987,355.6894889000105,355.6894889000105,355.6894889000105,357.78063720004866,Objects\096b.jpg,mid,o,2.090121899964288,None,,,,,,,,,00059,001,2026-01-19_15h22.33.265,MST_test,2024.2.0,59.82245889869538,2026-01-19 15h22.47.333286 +0530,
98,0,99,n,1.3211145999957807,None,99,0,98,357.79721950000385,,,,,,,,,,,,,,,,,,,,,,,,,,,,,,,,,,,,,,,,,,,,,,,,,,357.78072830004385,357.79721950000385,358.2820399000193,358.3022454000311,358.3155429000035,358.3155429000035,358.3155429000035,359.63728760002414,Foils\097a.jpg,none,n,1.3211145999957807,None,,,,,,,,,00059,001,2026-01-19_15h22.33.265,MST_test,2024.2.0,59.82245889869538,2026-01-19 15h22.47.333286 +0530,
99,0,100,s,1.5037404000177048,None,100,0,99,359.65358810004545,,,,,,,,,,,,,,,,,,,,,,,,,,,,,,,,,,,,,,,,,,,,,,,,,,359.63738170004217,359.65358810004545,360.1385530999978,360.1604199000285,360.17199360002996,360.17199360002996,360.17199360002996,361.67760390002513,Objects\144b.jpg,pre,s,1.5037404000177048,None,,,,,,,,,00059,001,2026-01-19_15h22.33.265,MST_test,2024.2.0,59.82245889869538,2026-01-19 15h22.47.333286 +0530,
100,0,101,s,1.928554099984467,None,101,0,100,361.6939503000467,,,,,,,,,,,,,,,,,,,,,,,,,,,,,,,,,,,,,,,,,,,,,,,,,,361.67770220001694,361.6939503000467,362.1791734000435,362.2052769000293,362.2117494000122,362.2117494000122,362.2117494000122,364.1530517000356,Scenes\115a.jpg,pre,s,1.928554099984467,None,,,,,,,,,00059,001,2026-01-19_15h22.33.265,MST_test,2024.2.0,59.82245889869538,2026-01-19 15h22.47.333286 +0530,
101,0,102,n,1.4268251999747008,None,102,0,101,364.1692316000117,,,,,,,,,,,,,,,,,,,,,,,,,,,,,,,,,,,,,,,,,,,,,,,,,,364.1531476000091,364.1692316000117,364.6541985000367,364.69237760000397,364.7051593000069,364.7051593000069,364.7051593000069,366.1433108000201,Scenes\167b.jpg,mid,n,1.4268251999747008,None,,,,,,,,,00059,001,2026-01-19_15h22.33.265,MST_test,2024.2.0,59.82245889869538,2026-01-19 15h22.47.333286 +0530,
102,0,103,n,0.8227945000398904,None,103,0,102,366.15958249999676,,,,,,,,,,,,,,,,,,,,,,,,,,,,,,,,,,,,,,,,,,,,,,,,,,366.1434009000077,366.15958249999676,366.64493710000534,366.669375700003,366.6787970000296,366.6787970000296,366.6787970000296,367.51495300000533,Foils\020b.jpg,none,n,0.8227945000398904,None,,,,,,,,,00059,001,2026-01-19_15h22.33.265,MST_test,2024.2.0,59.82245889869538,2026-01-19 15h22.47.333286 +0530,
103,0,104,s,1.6182010000338778,None,104,0,103,367.5313206000137,,,,,,,,,,,,,,,,,,,,,,,,,,,,,,,,,,,,,,,,,,,,,,,,,,367.5150556000299,367.5313206000137,368.0159835999948,368.0297491000383,368.04957390000345,368.04957390000345,368.04957390000345,369.6725306000444,Objects\143a.jpg,mid,s,1.6182010000338778,None,,,,,,,,,00059,001,2026-01-19_15h22.33.265,MST_test,2024.2.0,59.82245889869538,2026-01-19 15h22.47.333286 +0530,
104,0,105,n,1.6842551999725401,None,105,0,104,369.68855700001586,,,,,,,,,,,,,,,,,,,,,,,,,,,,,,,,,,,,,,,,,,,,,,,,,,369.6726206000312,369.68855700001586,370.1735301000299,370.2065125000081,370.2237137000193,370.2237137000193,370.2237137000193,371.91362690000096,Scenes\105a.jpg,pre,n,1.6842551999725401,None,,,,,,,,,00059,001,2026-01-19_15h22.33.265,MST_test,2024.2.0,59.82245889869538,2026-01-19 15h22.47.333286 +0530,
105,0,106,n,2.2836291000130586,None,106,0,105,371.92973319999874,,,,,,,,,,,,,,,,,,,,,,,,,,,,,,,,,,,,,,,,,,,,,,,,,,371.9137183999992,371.92973319999874,372.41479770001024,372.43228730000556,372.4489742000005,372.4489742000005,372.4489742000005,374.7400284000323,Foils\scenes5.jpg,none,n,2.2836291000130586,None,,,,,,,,,00059,001,2026-01-19_15h22.33.265,MST_test,2024.2.0,59.82245889869538,2026-01-19 15h22.47.333286 +0530,
106,0,107,n,1.855986699985806,None,107,0,106,374.7562896000454,,,,,,,,,,,,,,,,,,,,,,,,,,,,,,,,,,,,,,,,,,,,,,,,,,374.7401250000112,374.7562896000454,375.2414512000396,375.26486990001285,375.2757760999957,375.2757760999957,375.2757760999957,377.148460299999,Foils\050a.jpg,none,n,1.855986699985806,None,,,,,,,,,00059,001,2026-01-19_15h22.33.265,MST_test,2024.2.0,59.82245889869538,2026-01-19 15h22.47.333286 +0530,
107,0,108,o,1.5843072999850847,None,108,0,107,377.16472699999576,,,,,,,,,,,,,,,,,,,,,,,,,,,,,,,,,,,,,,,,,,,,,,,,,,377.1485534000094,377.16472699999576,377.65032380004413,377.6886627000058,377.6997663000366,377.6997663000366,377.6997663000366,379.2895091000246,Scenes\094b.jpg,mid,o,1.5843072999850847,None,,,,,,,,,00059,001,2026-01-19_15h22.33.265,MST_test,2024.2.0,59.82245889869538,2026-01-19 15h22.47.333286 +0530,
108,0,109,s,1.6767513999948278,None,109,0,108,379.3055622000247,,,,,,,,,,,,,,,,,,,,,,,,,,,,,,,,,,,,,,,,,,,,,,,,,,379.28960439999355,379.3055622000247,379.7906590999919,379.82956780004315,379.84060200001113,379.84060200001113,379.84060200001113,381.5304540999932,Scenes\054b.jpg,mid,s,1.6767513999948278,None,,,,,,,,,00059,001,2026-01-19_15h22.33.265,MST_test,2024.2.0,59.82245889869538,2026-01-19 15h22.47.333286 +0530,
109,0,110,s,3.5473162999842316,None,110,0,109,381.5466243000119,,,,,,,,,,,,,,,,,,,,,,,,,,,,,,,,,,,,,,,,,,,,,,,,,,381.5305520000402,381.5466243000119,382.0318293000455,382.0566005000146,382.06506670004455,382.06506670004455,382.06506670004455,385.62830149999354,Objects\091b.jpg,mid,s,3.5473162999842316,None,,,,,,,,,00059,001,2026-01-19_15h22.33.265,MST_test,2024.2.0,59.82245889869538,2026-01-19 15h22.47.333286 +0530,
110,0,111,s,1.6793181999819353,None,111,0,110,385.64447630004724,,,,,,,,,,,,,,,,,,,,,,,,,,,,,,,,,,,,,,,,,,,,,,,,,,385.628399200039,385.64447630004724,386.1296848000493,386.17989260004833,386.19715250004083,386.19715250004083,386.19715250004083,387.8861366000492,Scenes\034b.jpg,pre,s,1.6793181999819353,None,,,,,,,,,00059,001,2026-01-19_15h22.33.265,MST_test,2024.2.0,59.82245889869538,2026-01-19 15h22.47.333286 +0530,
111,0,112,n,4.711078400025144,None,112,0,111,387.9024995000218,,,,,,,,,,,,,,,,,,,,,,,,,,,,,,,,,,,,,,,,,,,,,,,,,,387.8862274000421,387.9024995000218,388.3874732000404,388.40656920004403,388.4214020000072,388.4214020000072,388.4214020000072,393.1379519000184,Foils\scenes7.jpg,none,n,4.711078400025144,None,,,,,,,,,00059,001,2026-01-19_15h22.33.265,MST_test,2024.2.0,59.82245889869538,2026-01-19 15h22.47.333286 +0530,
112,0,113,o,1.8740245000226423,None,113,0,112,393.1542289000354,,,,,,,,,,,,,,,,,,,,,,,,,,,,,,,,,,,,,,,,,,,,,,,,,,393.1380455000326,393.1542289000354,393.63903010002105,393.67442670004675,393.6899905000464,393.6899905000464,393.6899905000464,395.5807906000409,Scenes\111b.jpg,pre,o,1.8740245000226423,None,,,,,,,,,00059,001,2026-01-19_15h22.33.265,MST_test,2024.2.0,59.82245889869538,2026-01-19 15h22.47.333286 +0530,
113,0,114,o,1.6891348999924958,None,114,0,113,395.5964457000373,,,,,,,,,,,,,,,,,,,,,,,,,,,,,,,,,,,,,,,,,,,,,,,,,,395.5808949000202,395.5964457000373,396.0809671000461,396.10285730002215,396.1151412000181,396.1151412000181,396.1151412000181,397.82101270003477,Objects\107b.jpg,post,o,1.6891348999924958,None,,,,,,,,,00059,001,2026-01-19_15h22.33.265,MST_test,2024.2.0,59.82245889869538,2026-01-19 15h22.47.333286 +0530,
114,0,115,s,1.3503783000051044,None,115,0,114,397.8370035000262,,,,,,,,,,,,,,,,,,,,,,,,,,,,,,,,,,,,,,,,,,,,,,,,,,397.8211094000144,397.8370035000262,398.3222470000037,398.35218200000236,398.3734075000393,398.3734075000393,398.3734075000393,399.727666700026,Scenes\047a.jpg,mid,s,1.3503783000051044,None,,,,,,,,,00059,001,2026-01-19_15h22.33.265,MST_test,2024.2.0,59.82245889869538,2026-01-19 15h22.47.333286 +0530,
115,0,116,o,1.1489772000350058,None,116,0,115,399.74368620000314,,,,,,,,,,,,,,,,,,,,,,,,,,,,,,,,,,,,,,,,,,,,,,,,,,399.7277637000079,399.74368620000314,400.2288860999979,400.26185130001977,400.2788459000294,400.2788459000294,400.2788459000294,401.4349466999993,Scenes\091b.jpg,mid,o,1.1489772000350058,None,,,,,,,,,00059,001,2026-01-19_15h22.33.265,MST_test,2024.2.0,59.82245889869538,2026-01-19 15h22.47.333286 +0530,
116,0,117,n,1.257866500003729,None,117,0,116,401.44966340000974,,,,,,,,,,,,,,,,,,,,,,,,,,,,,,,,,,,,,,,,,,,,,,,,,,401.43504640000174,401.44966340000974,401.935186000017,401.9833967000013,402.0023634000099,402.0023634000099,402.0023634000099,403.2731889000279,Scenes\088b.jpg,pre,n,1.257866500003729,None,402.0023634000099,,,,,,,,00059,001,2026-01-19_15h22.33.265,MST_test,2024.2.0,59.82245889869538,2026-01-19 15h22.47.333286 +0530,
117,0,118,s,2.0110548000084236,None,118,0,117,403.28955030004727,,,,,,,,,,,,,,,,,,,,,,,,,,,,,,,,,,,,,,,,,,,,,,,,,,403.2732830000459,403.28955030004727,403.7745824000449,403.80741820001276,403.8247039000271,403.8247039000271,403.8247039000271,405.84912850003457,Scenes\050b.jpg,mid,s,2.0110548000084236,None,,,,,,,,,00059,001,2026-01-19_15h22.33.265,MST_test,2024.2.0,59.82245889869538,2026-01-19 15h22.47.333286 +0530,
118,0,119,o,1.3331759000429884,None,119,0,118,405.8651221000473,,,,,,,,,,,,,,,,,,,,,,,,,,,,,,,,,,,,,,,,,,,,,,,,,,405.84922219999135,405.8651221000473,406.35052150004776,406.3798266000231,406.4002833000268,406.4002833000268,406.4002833000268,407.7389791000169,Scenes\176a.jpg,pre,o,1.3331759000429884,None,,,,,,,,,00059,001,2026-01-19_15h22.33.265,MST_test,2024.2.0,59.82245889869538,2026-01-19 15h22.47.333286 +0530,
119,0,120,n,1.6876600999967195,None,120,0,119,407.75519719999284,,,,,,,,,,,,,,,,,,,,,,,,,,,,,,,,,,,,,,,,,,,,,,,,,,407.7390735000372,407.75519719999284,408.240205100039,408.296292300045,408.30812250002054,408.30812250002054,408.30812250002054,409.9970864999923,Foils\scenes28.jpg,none,n,1.6876600999967195,None,,,,,,,,,00059,001,2026-01-19_15h22.33.265,MST_test,2024.2.0,59.82245889869538,2026-01-19 15h22.47.333286 +0530,
120,0,121,o,2.39283870003419,None,121,0,120,410.0131131000235,,,,,,,,,,,,,,,,,,,,,,,,,,,,,,,,,,,,,,,,,,,,,,,,,,409.99717950000195,410.0131131000235,410.4982949999976,410.5231170000043,410.5326842000359,410.5326842000359,410.5326842000359,412.9405683000223,Objects\094b.jpg,post,o,2.39283870003419,None,,,,,,,,,00059,001,2026-01-19_15h22.33.265,MST_test,2024.2.0,59.82245889869538,2026-01-19 15h22.47.333286 +0530,
121,0,122,n,1.7349979000282474,None,122,0,121,412.9567290000268,,,,,,,,,,,,,,,,,,,,,,,,,,,,,,,,,,,,,,,,,,,,,,,,,,412.9406641999958,412.9567290000268,413.441890600021,413.48014749999857,413.49256820004666,413.49256820004666,413.49256820004666,415.2321740000043,Scenes\125b.jpg,post,n,1.7349979000282474,None,,,,,,,,,00059,001,2026-01-19_15h22.33.265,MST_test,2024.2.0,59.82245889869538,2026-01-19 15h22.47.333286 +0530,
122,0,123,s,1.3398070000112057,None,123,0,122,415.24812440003734,,,,,,,,,,,,,,,,,,,,,,,,,,,,,,,,,,,,,,,,,,,,,,,,,,415.23227430001134,415.24812440003734,415.7333605000167,415.7681768000475,415.78436779999174,415.78436779999174,415.78436779999174,417.13859650003724,Scenes\038a.jpg,post,s,1.3398070000112057,None,,,,,,,,,00059,001,2026-01-19_15h22.33.265,MST_test,2024.2.0,59.82245889869538,2026-01-19 15h22.47.333286 +0530,
123,0,124,o,1.8664830999914557,None,124,0,123,417.15465969999786,,,,,,,,,,,,,,,,,,,,,,,,,,,,,,,,,,,,,,,,,,,,,,,,,,417.1386933000176,417.15465969999786,417.6404077000334,417.6704942000215,417.6898185000173,417.6898185000173,417.6898185000173,419.56363980000606,Scenes\019a.jpg,mid,o,1.8664830999914557,None,,,,,,,,,00059,001,2026-01-19_15h22.33.265,MST_test,2024.2.0,59.82245889869538,2026-01-19 15h22.47.333286 +0530,
124,0,125,s,7.169364999979734,None,125,0,124,419.57990980002796,,,,,,,,,,,,,,,,,,,,,,,,,,,,,,,,,,,,,,,,,,,,,,,,,,419.56373580003856,419.57990980002796,420.06490630004555,420.0820258000167,420.09916040004464,420.09916040004464,420.09916040004464,427.2741743000224,Objects\016a.jpg,post,s,7.169364999979734,None,,,,,,,,,00059,001,2026-01-19_15h22.33.265,MST_test,2024.2.0,59.82245889869538,2026-01-19 15h22.47.333286 +0530,
125,0,126,s,3.4438328000251204,None,126,0,125,427.2901547999936,,,,,,,,,,,,,,,,,,,,,,,,,,,,,,,,,,,,,,,,,,,,,,,,,,427.274270599999,427.2901547999936,427.77536510000937,427.79796769999666,427.80857809999725,427.80857809999725,427.80857809999725,431.2548458999954,Objects\188b.jpg,pre,s,3.4438328000251204,None,,,,,,,,,00059,001,2026-01-19_15h22.33.265,MST_test,2024.2.0,59.82245889869538,2026-01-19 15h22.47.333286 +0530,
126,0,127,o,4.82998439995572,None,127,0,126,431.2709938000189,,,,,,,,,,,,,,,,,,,,,,,,,,,,,,,,,,,,,,,,,,,,,,,,,,431.2549454999971,431.2709938000189,431.7558579000179,431.78719460003776,431.80606170004467,431.80606170004467,431.80606170004467,436.64028670004336,Scenes\122a.jpg,pre,o,4.82998439995572,None,,,,,,,,,00059,001,2026-01-19_15h22.33.265,MST_test,2024.2.0,59.82245889869538,2026-01-19 15h22.47.333286 +0530,
127,0,128,o,1.4456351000117138,None,128,0,127,436.6563995000324,,,,,,,,,,,,,,,,,,,,,,,,,,,,,,,,,,,,,,,,,,,,,,,,,,436.6403872999945,436.6563995000324,437.1413678000099,437.16452580003534,437.1748413000023,437.1748413000023,437.1748413000023,438.6304425999988,Objects\095b.jpg,post,o,1.4456351000117138,None,,,,,,,,,00059,001,2026-01-19_15h22.33.265,MST_test,2024.2.0,59.82245889869538,2026-01-19 15h22.47.333286 +0530,
128,0,129,n,1.1340067000128329,None,129,0,128,438.6467018999974,,,,,,,,,,,,,,,,,,,,,,,,,,,,,,,,,,,,,,,,,,,,,,,,,,438.630533699994,438.6467018999974,439.1316655999981,439.150016300031,439.16626600001473,439.16626600001473,439.16626600001473,440.3030299000093,Foils\scenes20.jpg,none,n,1.1340067000128329,None,,,,,,,,,00059,001,2026-01-19_15h22.33.265,MST_test,2024.2.0,59.82245889869538,2026-01-19 15h22.47.333286 +0530,
129,0,130,o,1.50236899999436,None,130,0,129,440.3191053000046,,,,,,,,,,,,,,,,,,,,,,,,,,,,,,,,,,,,,,,,,,,,,,,,,,440.3031245000311,440.3191053000046,440.80698540003505,440.8226146000088,440.83756140002515,440.83756140002515,440.83756140002515,442.3434299000073,Objects\186a.jpg,pre,o,1.50236899999436,None,,,,,,,,,00059,001,2026-01-19_15h22.33.265,MST_test,2024.2.0,59.82245889869538,2026-01-19 15h22.47.333286 +0530,
130,0,131,o,2.1007561999722384,None,131,0,130,442.35970010003075,,,,,,,,,,,,,,,,,,,,,,,,,,,,,,,,,,,,,,,,,,,,,,,,,,442.3435268000467,442.35970010003075,442.84477730002254,442.88350709999213,442.8957449000445,442.8957449000445,442.8957449000445,445.00369530002354,Scenes\010b.jpg,post,o,2.1007561999722384,None,,,,,,,,,00059,001,2026-01-19_15h22.33.265,MST_test,2024.2.0,59.82245889869538,2026-01-19 15h22.47.333286 +0530,
131,0,132,o,2.13750800001435,None,132,0,131,445.018893200031,,,,,,,,,,,,,,,,,,,,,,,,,,,,,,,,,,,,,,,,,,,,,,,,,,445.00379770004656,445.018893200031,445.5042243000353,445.5362398000434,445.5544816000038,445.5544816000038,445.5544816000038,447.6968157000374,Scenes\007b.jpg,mid,o,2.13750800001435,None,,,,,,,,,00059,001,2026-01-19_15h22.33.265,MST_test,2024.2.0,59.82245889869538,2026-01-19 15h22.47.333286 +0530,
132,0,133,o,2.605426499969326,None,133,0,132,447.71193550003227,,,,,,,,,,,,,,,,,,,,,,,,,,,,,,,,,,,,,,,,,,,,,,,,,,447.69693770003505,447.71193550003227,448.196914500033,448.23875560000306,448.24707080004737,448.24707080004737,448.24707080004737,450.8568530000048,Scenes\090b.jpg,pre,o,2.605426499969326,None,,,,,,,,,00059,001,2026-01-19_15h22.33.265,MST_test,2024.2.0,59.82245889869538,2026-01-19 15h22.47.333286 +0530,
133,0,134,n,1.1323633000138216,None,134,0,133,450.8727379000047,,,,,,,,,,,,,,,,,,,,,,,,,,,,,,,,,,,,,,,,,,,,,,,,,,450.8569492000388,450.8727379000047,451.35801090003224,451.3750667000422,451.3920987000456,451.3920987000456,451.3920987000456,452.5293837999925,Foils\scenes17.jpg,none,n,1.1323633000138216,None,,,,,,,,,00059,001,2026-01-19_15h22.33.265,MST_test,2024.2.0,59.82245889869538,2026-01-19 15h22.47.333286 +0530,
134,0,135,n,1.4596546000102535,None,135,0,134,452.5453700000071,,,,,,,,,,,,,,,,,,,,,,,,,,,,,,,,,,,,,,,,,,,,,,,,,,452.52948540000943,452.5453700000071,453.03046360000735,453.0466691000038,453.06458800000837,453.06458800000837,453.06458800000837,454.5361006000312,Objects\111a.jpg,pre,n,1.4596546000102535,None,,,,,,,,,00059,001,2026-01-19_15h22.33.265,MST_test,2024.2.0,59.82245889869538,2026-01-19 15h22.47.333286 +0530,
135,0,136,o,1.4695096000214107,None,136,0,135,454.55238760000793,,,,,,,,,,,,,,,,,,,,,,,,,,,,,,,,,,,,,,,,,,,,,,,,,,454.5361919000279,454.55238760000793,455.0373422999983,455.0520958999987,455.0708421000163,455.0708421000163,455.0708421000163,456.5433599000098,Objects\108a.jpg,pre,o,1.4695096000214107,None,,,,,,,,,00059,001,2026-01-19_15h22.33.265,MST_test,2024.2.0,59.82245889869538,2026-01-19 15h22.47.333286 +0530,
136,0,137,o,1.1989900000044145,None,137,0,136,456.5593957999954,,,,,,,,,,,,,,,,,,,,,,,,,,,,,,,,,,,,,,,,,,,,,,,,,,456.5434557000408,456.5593957999954,457.0446520000114,457.0609325999976,457.0778419999988,457.0778419999988,457.0778419999988,458.2830828000442,Objects\160a.jpg,mid,o,1.1989900000044145,None,,,,,,,,,00059,001,2026-01-19_15h22.33.265,MST_test,2024.2.0,59.82245889869538,2026-01-19 15h22.47.333286 +0530,
137,0,138,o,1.0192270999541506,None,138,0,137,458.2989562000148,,,,,,,,,,,,,,,,,,,,,,,,,,,,,,,,,,,,,,,,,,,,,,,,,,458.2831775000086,458.2989562000148,458.7838403999922,458.81006859999616,458.81665290001547,458.81665290001547,458.81665290001547,459.838395400031,Scenes\144a.jpg,pre,o,1.0192270999541506,None,,,,,,,,,00059,001,2026-01-19_15h22.33.265,MST_test,2024.2.0,59.82245889869538,2026-01-19 15h22.47.333286 +0530,
138,0,139,n,3.038074999989476,None,139,0,138,459.8542982999934,,,,,,,,,,,,,,,,,,,,,,,,,,,,,,,,,,,,,,,,,,,,,,,,,,459.8384905999992,459.8542982999934,460.3392657000222,460.3809815000277,460.3902217000141,460.3902217000141,460.3902217000141,463.4339983999962,Scenes\060b.jpg,post,n,3.038074999989476,None,,,,,,,,,00059,001,2026-01-19_15h22.33.265,MST_test,2024.2.0,59.82245889869538,2026-01-19 15h22.47.333286 +0530,
139,0,140,n,1.2107245000079274,None,140,0,139,463.45028789999196,,,,,,,,,,,,,,,,,,,,,,,,,,,,,,,,,,,,,,,,,,,,,,,,,,463.43408830004046,463.45028789999196,463.9354272999917,463.95325710001634,463.9693195000291,463.9693195000291,463.9693195000291,465.1901426000404,Foils\scenes12.jpg,none,n,1.2107245000079274,None,,,,,,,,,00059,001,2026-01-19_15h22.33.265,MST_test,2024.2.0,59.82245889869538,2026-01-19 15h22.47.333286 +0530,
140,0,141,n,3.1670611000154167,None,141,0,140,465.20625129999826,,,,,,,,,,,,,,,,,,,,,,,,,,,,,,,,,,,,,,,,,,,,,,,,,,465.19023460004246,465.20625129999826,465.6914528000052,465.7101970000076,465.72494380001444,465.72494380001444,465.72494380001444,468.90322070004186,Foils\scenes8.jpg,none,n,3.1670611000154167,None,,,,,,,,,00059,001,2026-01-19_15h22.33.265,MST_test,2024.2.0,59.82245889869538,2026-01-19 15h22.47.333286 +0530,
141,0,142,n,1.4939492999692447,None,142,0,141,468.9193421000382,,,,,,,,,,,,,,,,,,,,,,,,,,,,,,,,,,,,,,,,,,,,,,,,,,468.90331950003747,468.9193421000382,469.4043549000053,469.42051339999307,469.43893300002674,469.43893300002674,469.43893300002674,470.943817100022,Objects\165a.jpg,post,n,1.4939492999692447,None,,,,,,,,,00059,001,2026-01-19_15h22.33.265,MST_test,2024.2.0,59.82245889869538,2026-01-19 15h22.47.333286 +0530,
142,0,143,s,2.3183604999794625,None,143,0,142,470.95972500002244,,,,,,,,,,,,,,,,,,,,,,,,,,,,,,,,,,,,,,,,,,,,,,,,,,470.9439113000408,470.95972500002244,471.44492610002635,471.4672005000175,471.47817810002016,471.47817810002016,471.47817810002016,473.8037541999947,Objects\035b.jpg,pre,s,2.3183604999794625,None,,,,,,,,,00059,001,2026-01-19_15h22.33.265,MST_test,2024.2.0,59.82245889869538,2026-01-19 15h22.47.333286 +0530,
143,0,144,o,1.2574971000431105,None,144,0,143,473.8197379000485,,,,,,,,,,,,,,,,,,,,,,,,,,,,,,,,,,,,,,,,,,,,,,,,,,473.8038515000371,473.8197379000485,474.30504730000393,474.33487170003355,474.3549859999912,474.3549859999912,474.3549859999912,475.6265371000045,Scenes\003a.jpg,pre,o,1.2574971000431105,None,,,,,,,,,00059,001,2026-01-19_15h22.33.265,MST_test,2024.2.0,59.82245889869538,2026-01-19 15h22.47.333286 +0530,
144,0,145,o,1.5145475000026636,None,145,0,144,475.6429124000133,,,,,,,,,,,,,,,,,,,,,,,,,,,,,,,,,,,,,,,,,,,,,,,,,,475.62663060001796,475.6429124000133,476.12788700003875,476.1430321999942,476.1613534000353,476.1613534000353,476.1613534000353,477.6839029000257,Objects\131a.jpg,post,o,1.5145475000026636,None,,,,,,,,,00059,001,2026-01-19_15h22.33.265,MST_test,2024.2.0,59.82245889869538,2026-01-19 15h22.47.333286 +0530,
145,0,146,o,1.3626091000041924,None,146,0,145,477.70012260001386,,,,,,,,,,,,,,,,,,,,,,,,,,,,,,,,,,,,,,,,,,,,,,,,,,477.68399650003994,477.70012260001386,478.1853906000033,478.2012759000063,478.2185112000443,478.2185112000443,478.2185112000443,479.5905156999943,Objects\003a.jpg,mid,o,1.3626091000041924,None,,,,,,,,,00059,001,2026-01-19_15h22.33.265,MST_test,2024.2.0,59.82245889869538,2026-01-19 15h22.47.333286 +0530,
146,0,147,s,1.6714562000124715,None,147,0,146,479.6068038000376,,,,,,,,,,,,,,,,,,,,,,,,,,,,,,,,,,,,,,,,,,,,,,,,,,479.5906074999948,479.6068038000376,480.09176179999486,480.112290900026,480.12523639999563,480.12523639999563,480.12523639999563,481.7984561000485,Objects\115b.jpg,pre,s,1.6714562000124715,None,,,,,,,,,00059,001,2026-01-19_15h22.33.265,MST_test,2024.2.0,59.82245889869538,2026-01-19 15h22.47.333286 +0530,
147,0,148,s,1.7659599999897182,None,148,0,147,481.8144078000332,,,,,,,,,,,,,,,,,,,,,,,,,,,,,,,,,,,,,,,,,,,,,,,,,,481.7985474000452,481.8144078000332,482.29978510004,482.3113932000124,482.33401859999867,482.33401859999867,482.33401859999867,484.10636560001876,Scenes\053a.jpg,post,s,1.7659599999897182,None,,,,,,,,,00059,001,2026-01-19_15h22.33.265,MST_test,2024.2.0,59.82245889869538,2026-01-19 15h22.47.333286 +0530,
148,0,149,o,1.3608602999593131,None,149,0,148,484.12260719999904,,,,,,,,,,,,,,,,,,,,,,,,,,,,,,,,,,,,,,,,,,,,,,,,,,484.10646909999195,484.12260719999904,484.6077618999989,484.6319114000071,484.64296710002236,484.64296710002236,484.64296710002236,486.01315590000013,Scenes\124a.jpg,post,o,1.3608602999593131,None,,,,,,,,,00059,001,2026-01-19_15h22.33.265,MST_test,2024.2.0,59.82245889869538,2026-01-19 15h22.47.333286 +0530,
149,0,150,s,1.5136768000083975,None,150,0,149,486.0292795000132,,,,,,,,,,,,,,,,,,,,,,,,,,,,,,,,,,,,,,,,,,,,,,,,,,486.013250900025,486.0292795000132,486.51438220002456,486.5352214000304,486.54760350001743,486.54760350001743,486.54760350001743,488.07145730004413,Objects\154b.jpg,post,s,1.5136768000083975,None,,,,,,,,,00059,001,2026-01-19_15h22.33.265,MST_test,2024.2.0,59.82245889869538,2026-01-19 15h22.47.333286 +0530,
,,,,,,,,,,,,,,,,,,,,,,,,,,,,,,,,,,,,,,,,,,,,,,,,,,,,,,,,,,,,,,,,,,,,,,,,,488.07152560004033,488.08647189999465,488.08647189999465,506.2845273000421,space,18.19726119999541,None,00059,001,2026-01-19_15h22.33.265,MST_test,2024.2.0,59.82245889869538,2026-01-19 15h22.47.333286 +0530,
