Sl_no,image_path,thisN,thisTrialN,thisRepN,key_resp_5.keys,key_resp_7.keys,key_resp_7.rt,key_resp_7.duration,key_resp_5.rt,key_resp_5.duration,key_resp_9.keys,key_resp_9.rt,key_resp_9.duration,key_resp_8.keys,key_resp_8.rt,key_resp_8.duration,practice.thisRepN,practice.thisTrialN,practice.thisN,trials.thisRepN,trials.thisTrialN,trials.thisN,thisRow.t,notes,welcome_page.started,text.started,key_resp.started,welcome_page.stopped,key_resp.keys,key_resp.rt,key_resp.duration,instructions.started,ins.started,key_resp_2.started,instructions.stopped,key_resp_2.keys,key_resp_2.rt,key_resp_2.duration,instructions_2.started,text_10.started,key_resp_10.started,instructions_2.stopped,key_resp_10.keys,key_resp_10.rt,key_resp_10.duration,objects_only_instruction.started,text_3.started,key_resp_3.started,objects_only_instruction.stopped,key_resp_3.keys,key_resp_3.rt,key_resp_3.duration,ISI.started,text_4.started,ISI.stopped,practice_block.started,image.started,text_5.started,key_resp_5.started,practice_block.stopped,practice.key_resp_5.keys,indoor_outdoor.started,text_7.started,key_resp_7.started,indoor_outdoor.stopped,practice.key_resp_7.keys,practice.key_resp_7.rt,practice.key_resp_7.duration,text_4.stopped,image.stopped,text_5.stopped,key_resp_5.stopped,practice.key_resp_5.rt,practice.key_resp_5.duration,practice_to_main.started,text_2.started,key_resp_4.started,practice_to_main.stopped,key_resp_4.keys,key_resp_4.rt,key_resp_4.duration,objects.started,image_2.started,text_9.started,key_resp_9.started,objects.stopped,trials.key_resp_9.keys,trials.key_resp_9.rt,trials.key_resp_9.duration,encoding_task.started,encoding_task.stopped,trials.key_resp_8.keys,image_2.stopped,text_9.stopped,key_resp_9.stopped,text_8.started,key_resp_8.started,trials.key_resp_8.rt,trials.key_resp_8.duration,end_experiment.started,text_6.started,key_resp_6.started,end_experiment.stopped,key_resp_6.keys,key_resp_6.rt,key_resp_6.duration,list_of_stimuli,encoding_task_accuracy,participant,session,date,expName,psychopyVersion,frameRate,expStart,
,,,,,,,,,,,,,,,,,,,,,,,,,0.001200700004119426,0.0027307000127620995,0.0027307000127620995,19.158391600009054,space,19.094222099985927,None,,,,,,,,,,,,,,,,,,,,,,,,,,,,,,,,,,,,,,,,,,,,,,,,,,,,,,,,,,,,,,,,,,,,,,,,,,,,,,00051,001,2026-01-18_15h58.48.144,MST_task,2024.2.0,60.1334481421908,2026-01-18 15h59.01.144819 +0530,
,,,,,,,,,,,,,,,,,,,,,,,,,,,,,,,,19.15843200002564,19.171185899991542,19.171185899991542,44.5957616000087,space,25.422816700011026,None,,,,,,,,,,,,,,,,,,,,,,,,,,,,,,,,,,,,,,,,,,,,,,,,,,,,,,,,,,,,,,,,,,,,,,,00051,001,2026-01-18_15h58.48.144,MST_task,2024.2.0,60.1334481421908,2026-01-18 15h59.01.144819 +0530,
,,,,,,,,,,,,,,,,,,,,,,,,,,,,,,,,,,,,,,,44.59579320001649,44.611916700028814,44.611916700028814,145.59545409999555,space,100.97313280001981,None,,,,,,,,,,,,,,,,,,,,,,,,,,,,,,,,,,,,,,,,,,,,,,,,,,,,,,,,,,,,,,,,00051,001,2026-01-18_15h58.48.144,MST_task,2024.2.0,60.1334481421908,2026-01-18 15h59.01.144819 +0530,
,,,,,,,,,,,,,,,,,,,,,,,,,,,,,,,,,,,,,,,,,,,,,,145.5954839999904,145.61188330000732,145.61188330000732,162.24557480000658,space,16.620518600044306,None,,,,,,,,,,,,,,,,,,,,,,,,,,,,,,,,,,,,,,,,,,,,,,,,,,,,,,,,,00051,001,2026-01-18_15h58.48.144,MST_task,2024.2.0,60.1334481421908,2026-01-18 15h59.01.144819 +0530,
6,practice_images/158a.jpg,0,0,1,None,j,0.22249759995611385,None,,,,,,,,,1,0,0,,,,162.26641209999798,,,,,,,,,,,,,,,,,,,,,,,,,,,,,,162.2641093999846,162.26641209999798,162.76192050002282,162.7756716000149,162.78602260001935,162.78602260001935,162.78602260001935,165.76216619997285,None,165.76398940000217,165.77857119997498,165.77857119997498,166.01229069998953,j,0.22249759995611385,None,,,,,,,,,,,,,,,,,,,,,,,,,,,,,,,,,,,,,,,,,00051,001,2026-01-18_15h58.48.144,MST_task,2024.2.0,60.1334481421908,2026-01-18 15h59.01.144819 +0530,
5,practice_images/139a.jpg,1,1,1,None,f,1.0650643999688327,None,,,,,,,,,1,1,1,,,,166.02855990000535,,,,,,,,,,,,,,,,,,,,,,,,,,,,,,166.0123753999942,166.02855990000535,166.51216510002268,166.52001099998597,166.5287635999848,166.5287635999848,166.5287635999848,169.51234130002558,None,169.51238010003,169.5285413999809,169.5285413999809,170.59554589999607,f,1.0650643999688327,None,166.5287635999848,169.5285413999809,169.5285413999809,169.5285413999809,,,,,,,,,,,,,,,,,,,,,,,,,,,,,,,,,,,,,00051,001,2026-01-18_15h58.48.144,MST_task,2024.2.0,60.1334481421908,2026-01-18 15h59.01.144819 +0530,
3,practice_images/037a.jpg,2,2,1,f,None,,,2.144953800016083,0.16834799997741356,,,,,,,1,2,2,,,,170.61181859998032,,,,,,,,,,,,,,,,,,,,,,,,,,,,,,170.59563220001291,170.61181859998032,171.09542229998624,171.10436330002267,171.11205400002655,171.11205400002655,171.11205400002655,174.09555740002543,f,174.09559669997543,,,174.0956095000147,None,,,171.11205400002655,174.1118215000024,174.1118215000024,174.1118215000024,2.144953800016083,0.16834799997741356,,,,,,,,,,,,,,,,,,,,,,,,,,,,,,,,,,,00051,001,2026-01-18_15h58.48.144,MST_task,2024.2.0,60.1334481421908,2026-01-18 15h59.01.144819 +0530,
7,practice_images/166a.jpg,3,3,1,f,None,,,2.16453409998212,0.20133319997694343,,,,,,,1,3,3,,,,174.1118215000024,,,,,,,,,,,,,,,,,,,,,,,,,,,,,,174.09568339999532,174.1118215000024,174.59540599997854,174.60331159998896,174.61201500002062,174.61201500002062,174.61201500002062,177.595542999974,f,177.59558129997458,,,177.5955942000146,None,,,174.61201500002062,177.61182709998684,177.61182709998684,177.61182709998684,2.16453409998212,0.20133319997694343,,,,,,,,,,,,,,,,,,,,,,,,,,,,,,,,,,,00051,001,2026-01-18_15h58.48.144,MST_task,2024.2.0,60.1334481421908,2026-01-18 15h59.01.144819 +0530,
4,practice_images/002b.jpg,4,4,1,None,j,2.409116399998311,None,,,,,,,,,1,4,4,,,,177.61182709998684,,,,,,,,,,,,,,,,,,,,,,,,,,,,,,177.5956563000218,177.61182709998684,178.09540539997397,178.10358150000684,178.1121184999938,178.1121184999938,178.1121184999938,181.09566190000623,None,181.09570090001216,181.1119109999854,181.1119109999854,183.52920410002116,j,2.409116399998311,None,178.1121184999938,181.1119109999854,181.1119109999854,181.1119109999854,,,,,,,,,,,,,,,,,,,,,,,,,,,,,,,,,,,,,00051,001,2026-01-18_15h58.48.144,MST_task,2024.2.0,60.1334481421908,2026-01-18 15h59.01.144819 +0530,
1,practice_images/013a.jpg,5,5,1,None,j,None,None,,,,,,,,,1,5,5,,,,183.54510779998964,,,,,,,,,,,,,,,,,,,,,,,,,,,,,,183.52929129998665,183.54510779998964,184.02882000000682,184.04091590002645,184.04533100000117,184.04533100000117,184.04533100000117,187.02911399997538,None,187.03189739998197,187.0450595000293,187.0450595000293,187.19548549997853,j,None,None,184.04533100000117,187.0450595000293,187.0450595000293,187.0450595000293,,,,,,,,,,,,,,,,,,,,,,,,,,,,,,,,,,,,,00051,001,2026-01-18_15h58.48.144,MST_task,2024.2.0,60.1334481421908,2026-01-18 15h59.01.144819 +0530,
2,practice_images/031a.jpg,6,6,1,None,f,0.9054608999867924,None,,,,,,,,,1,6,6,,,,187.21190340002067,,,,,,,,,,,,,,,,,,,,,,,,,,,,,,187.19557169999462,187.21190340002067,187.69534909998765,187.70350389997475,187.71203110000351,187.71203110000351,187.71203110000351,190.69565389998024,None,190.6956895000185,190.71192179998616,190.71192179998616,191.62891650001984,f,0.9054608999867924,None,187.71203110000351,190.71192179998616,190.71192179998616,190.71192179998616,,,,,,,,,,,,,,,,,,,,,,,,,,,,,,,,,,,,,00051,001,2026-01-18_15h58.48.144,MST_task,2024.2.0,60.1334481421908,2026-01-18 15h59.01.144819 +0530,
10,practice_images/182a.jpg,7,7,1,f,None,,,1.519889100047294,0.19195919996127486,,,,,,,1,7,7,,,,191.64511119999224,,,,,,,,,,,,,,,,,,,,,,,,,,,,,,191.62900060001994,191.64511119999224,192.12873639998725,192.13693630002672,192.14540129998932,192.14540129998932,192.14540129998932,195.12909010000294,f,195.12913070002105,,,195.12914340000134,None,,,192.14540129998932,195.145361199975,195.145361199975,195.145361199975,1.519889100047294,0.19195919996127486,,,,,,,,,,,,,,,,,,,,,,,,,,,,,,,,,,,00051,001,2026-01-18_15h58.48.144,MST_task,2024.2.0,60.1334481421908,2026-01-18 15h59.01.144819 +0530,
9,practice_images/180a.jpg,8,8,1,j,None,,,1.547601600002963,0.19944729999406263,,,,,,,1,8,8,,,,195.145361199975,,,,,,,,,,,,,,,,,,,,,,,,,,,,,,195.12920660001691,195.145361199975,195.6290385000175,195.63710870000068,195.64528420002898,195.64528420002898,195.64528420002898,198.62910189997638,j,198.62913850002224,,,198.62915039999643,None,,,195.64528420002898,198.64534589997493,198.64534589997493,198.64534589997493,1.547601600002963,0.19944729999406263,,,,,,,,,,,,,,,,,,,,,,,,,,,,,,,,,,,00051,001,2026-01-18_15h58.48.144,MST_task,2024.2.0,60.1334481421908,2026-01-18 15h59.01.144819 +0530,
8,practice_images/178a.jpg,9,9,1,f,None,,,1.6236873000161722,0.19197109999367967,,,,,,,1,9,9,,,,198.64534589997493,,,,,,,,,,,,,,,,,,,,,,,,,,,,,,198.6292131000082,198.64534589997493,199.12897850002628,199.13776830001734,199.14544990001014,199.14544990001014,199.14544990001014,202.1289336999762,f,202.12896980001824,,,202.12898239999777,None,,,199.14544990001014,202.14506120001897,202.14506120001897,202.14506120001897,1.6236873000161722,0.19197109999367967,,,,,,,,,,,,,,,,,,,,,,,,,,,,,,,,,,,00051,001,2026-01-18_15h58.48.144,MST_task,2024.2.0,60.1334481421908,2026-01-18 15h59.01.144819 +0530,
,,,,,,,,,,,,,,,,,,,,,,,,,,,,,,,,,,,,,,,,,,,,,,,,,,,,,,,,,,,,,,,,,,,,,,,,,,,202.1290249999729,202.14506120001897,202.14506120001897,221.82924430002458,space,19.68001389998244,None,,,,,,,,,,,,,,,,,,,,,,,,,,,,00051,001,2026-01-18_15h58.48.144,MST_task,2024.2.0,60.1334481421908,2026-01-18 15h59.01.144819 +0530,
,Objects\127a.jpg,0,0,1,,,,,,,f,2.1749702999950387,0.17546470003435388,None,,,,,,1,0,0,221.84521200001473,,,,,,,,,,,,,,,,,,,,,,,,,,,,,,221.8300150000141,221.84521200001473,222.3288846000214,,,,,,,,,,,,,,222.34634819999337,,,,,,,,,,,,,222.3429618999944,222.34634819999337,222.34634819999337,222.34634819999337,225.34542490000604,f,2.1749702999950387,0.17546470003435388,225.3487027999945,225.34872210002504,None,,,,,,,,,,,,,,,,,00051,001,2026-01-18_15h58.48.144,MST_task,2024.2.0,60.1334481421908,2026-01-18 15h59.01.144819 +0530,
,Objects\066a.jpg,1,0,2,,,,,,,None,,,j,0.7944625000236556,None,,,,2,0,1,225.36183270002948,,,,,,,,,,,,,,,,,,,,,,,,,,,,,,225.34879239997827,225.36183270002948,225.8455963000306,,,,,,,,,,,,,,225.8622220000252,,,,,,,,,,,,,225.8553147999919,225.8622220000252,225.8622220000252,225.8622220000252,228.84577070001978,None,,,228.84580930002267,229.66255290003028,j,228.86190110002644,228.86190110002644,228.86190110002644,228.86190110002644,228.86190110002644,0.7944625000236556,None,,,,,,,,,,00051,001,2026-01-18_15h58.48.144,MST_task,2024.2.0,60.1334481421908,2026-01-18 15h59.01.144819 +0530,
,Objects\022a.jpg,2,0,3,,,,,,,f,1.7259040999924764,0.21623919997364283,None,,,,,,3,0,2,229.6785214000265,,,,,,,,,,,,,,,,,,,,,,,,,,,,,,229.66264059999958,229.6785214000265,230.16221480001695,,,,,,,,,,,,,,230.1789283999824,,,,,,,,,,,,,230.17141409998294,230.1789283999824,230.1789283999824,230.1789283999824,233.16248569998425,f,1.7259040999924764,0.21623919997364283,233.16252910002368,233.16254059999483,None,233.1785820000223,233.1785820000223,233.1785820000223,,,,,,,,,,,,,,00051,001,2026-01-18_15h58.48.144,MST_task,2024.2.0,60.1334481421908,2026-01-18 15h59.01.144819 +0530,
,Objects\100a.jpg,3,0,4,,,,,,,f,2.481644299987238,0.1931219999678433,None,,,,,,4,0,3,233.1785820000223,,,,,,,,,,,,,,,,,,,,,,,,,,,,,,233.16260500001954,233.1785820000223,233.66221540002152,,,,,,,,,,,,,,233.67880100000184,,,,,,,,,,,,,233.6713828999782,233.67880100000184,233.67880100000184,233.67880100000184,236.66242750000674,f,2.481644299987238,0.1931219999678433,236.662473400007,236.662485799985,None,236.6785442000255,236.6785442000255,236.6785442000255,,,,,,,,,,,,,,00051,001,2026-01-18_15h58.48.144,MST_task,2024.2.0,60.1334481421908,2026-01-18 15h59.01.144819 +0530,
,Objects\181a.jpg,4,0,5,,,,,,,j,2.1661781999864615,0.18368640000699088,None,,,,,,5,0,4,236.6785442000255,,,,,,,,,,,,,,,,,,,,,,,,,,,,,,236.66255170002114,236.6785442000255,237.16220740001881,,,,,,,,,,,,,,237.1788624000037,,,,,,,,,,,,,237.17167150002206,237.1788624000037,237.1788624000037,237.1788624000037,240.162461000029,j,2.1661781999864615,0.18368640000699088,240.16250660002697,240.1625184000004,None,240.17858960002195,240.17858960002195,240.17858960002195,,,,,,,,,,,,,,00051,001,2026-01-18_15h58.48.144,MST_task,2024.2.0,60.1334481421908,2026-01-18 15h59.01.144819 +0530,
,Objects\150a.jpg,5,0,6,,,,,,,f,2.94564970000647,None,None,,,,,,6,0,5,240.17858960002195,,,,,,,,,,,,,,,,,,,,,,,,,,,,,,240.16258689999813,240.17858960002195,240.66231749998406,,,,,,,,,,,,,,240.67880539997714,,,,,,,,,,,,,240.67204079998191,240.67880539997714,240.67880539997714,240.67880539997714,243.6625668000197,f,2.94564970000647,None,243.66260759998113,243.66261850000592,None,243.67855279997457,243.67855279997457,243.67855279997457,,,,,,,,,,,,,,00051,001,2026-01-18_15h58.48.144,MST_task,2024.2.0,60.1334481421908,2026-01-18 15h59.01.144819 +0530,
,Objects\003a.jpg,6,0,7,,,,,,,j,2.302032500039786,0.1845696999807842,None,,,,,,7,0,6,243.67855279997457,,,,,,,,,,,,,,,,,,,,,,,,,,,,,,243.6626804000116,243.67855279997457,244.16225619998295,,,,,,,,,,,,,,244.17882959998678,,,,,,,,,,,,,244.17135800002143,244.17882959998678,244.17882959998678,244.17882959998678,247.16246730001876,j,2.302032500039786,0.1845696999807842,247.16251310001826,247.16252419998636,None,247.1785822000238,247.1785822000238,247.1785822000238,,,,,,,,,,,,,,00051,001,2026-01-18_15h58.48.144,MST_task,2024.2.0,60.1334481421908,2026-01-18 15h59.01.144819 +0530,
,Scenes\068a.jpg,7,0,8,,,,,,,j,2.598113599990029,0.1752509999787435,None,,,,,,8,0,7,247.1785822000238,,,,,,,,,,,,,,,,,,,,,,,,,,,,,,247.16258860001108,247.1785822000238,247.66219150001416,,,,,,,,,,,,,,247.68317759997444,,,,,,,,,,,,,247.68050730001414,247.68317759997444,247.68317759997444,247.68317759997444,250.67879320000065,j,2.598113599990029,0.1752509999787435,250.68049070000416,250.68050880002556,None,,,,,,,,,,,,,,,,,00051,001,2026-01-18_15h58.48.144,MST_task,2024.2.0,60.1334481421908,2026-01-18 15h59.01.144819 +0530,
,Scenes\136a.jpg,8,0,9,,,,,,,j,2.108983199985232,0.1917740000062622,None,,,,,,9,0,8,250.6951970999944,,,,,,,,,,,,,,,,,,,,,,,,,,,,,,250.6806127000018,250.6951970999944,251.1788091000053,,,,,,,,,,,,,,251.195760099974,,,,,,,,,,,,,251.19192309997743,251.195760099974,251.195760099974,251.195760099974,254.17906639998546,j,2.108983199985232,0.1917740000062622,254.17910740000661,254.17911889997777,None,254.19518370000878,254.19518370000878,254.19518370000878,,,,,,,,,,,,,,00051,001,2026-01-18_15h58.48.144,MST_task,2024.2.0,60.1334481421908,2026-01-18 15h59.01.144819 +0530,
,Scenes\033a.jpg,9,0,10,,,,,,,j,2.2811460999655537,0.18399990000762045,None,,,,,,10,0,9,254.19518370000878,,,,,,,,,,,,,,,,,,,,,,,,,,,,,,254.17921460000798,254.19518370000878,254.67881650000345,,,,,,,,,,,,,,254.69522019999567,,,,,,,,,,,,,254.69086969998898,254.69522019999567,254.69522019999567,254.69522019999567,257.67913419997785,j,2.2811460999655537,0.18399990000762045,257.67917540000053,257.6791872999747,None,257.69512069999473,257.69512069999473,257.69512069999473,,,,,,,,,,,,,,00051,001,2026-01-18_15h58.48.144,MST_task,2024.2.0,60.1334481421908,2026-01-18 15h59.01.144819 +0530,
,Scenes\010a.jpg,10,0,11,,,,,,,f,1.5052019999711774,0.2246339000412263,None,,,,,,11,0,10,257.69512069999473,,,,,,,,,,,,,,,,,,,,,,,,,,,,,,257.67925139999716,257.69512069999473,258.1791093000211,,,,,,,,,,,,,,258.1999527000007,,,,,,,,,,,,,258.19751730002463,258.1999527000007,258.1999527000007,258.1999527000007,261.1954267999972,f,1.5052019999711774,0.2246339000412263,261.19547069998225,261.19548310001846,None,,,,,,,,,,,,,,,,,00051,001,2026-01-18_15h58.48.144,MST_task,2024.2.0,60.1334481421908,2026-01-18 15h59.01.144819 +0530,
,Scenes\154a.jpg,11,0,12,,,,,,,j,1.352395499998238,0.18404030002420768,None,,,,,,12,0,11,261.21185660001356,,,,,,,,,,,,,,,,,,,,,,,,,,,,,,261.19558140001027,261.21185660001356,261.6954190999968,,,,,,,,,,,,,,261.71246770001017,,,,,,,,,,,,,261.70848570001544,261.71246770001017,261.71246770001017,261.71246770001017,264.69558429997414,j,1.352395499998238,0.18404030002420768,264.6956295000273,264.69564200000605,None,,,,,,,,,,,,,,,,,00051,001,2026-01-18_15h58.48.144,MST_task,2024.2.0,60.1334481421908,2026-01-18 15h59.01.144819 +0530,
,Scenes\082a.jpg,12,0,13,,,,,,,f,1.6177077000029385,0.21493860002374277,None,,,,,,13,0,12,264.7119261000189,,,,,,,,,,,,,,,,,,,,,,,,,,,,,,264.6957460999838,264.7119261000189,265.19530229998054,,,,,,,,,,,,,,265.2157660999801,,,,,,,,,,,,,265.21346410003025,265.2157660999801,265.2157660999801,265.2157660999801,268.21214199997485,f,1.6177077000029385,0.21493860002374277,268.212187200028,268.2121995000052,None,,,,,,,,,,,,,,,,,00051,001,2026-01-18_15h58.48.144,MST_task,2024.2.0,60.1334481421908,2026-01-18 15h59.01.144819 +0530,
,Scenes\114a.jpg,13,0,14,,,,,,,f,2.5903877000091597,0.20689929998479784,None,,,,,,14,0,13,268.2285569999949,,,,,,,,,,,,,,,,,,,,,,,,,,,,,,268.21230780001497,268.2285569999949,268.7121826999937,,,,,,,,,,,,,,268.7315420000232,,,,,,,,,,,,,268.7294246000238,268.7315420000232,268.7315420000232,268.7315420000232,271.7288271000143,f,2.5903877000091597,0.20689929998479784,271.72886919998564,271.7288812000188,None,,,,,,,,,,,,,,,,,00051,001,2026-01-18_15h58.48.144,MST_task,2024.2.0,60.1334481421908,2026-01-18 15h59.01.144819 +0530,
,Objects\030a.jpg,14,0,15,,,,,,,f,2.2989146999898367,0.19194560003234074,None,,,,,,15,0,14,271.7451128999819,,,,,,,,,,,,,,,,,,,,,,,,,,,,,,271.72897759999614,271.7451128999819,272.228828500025,,,,,,,,,,,,,,272.245532299974,,,,,,,,,,,,,272.2410221999744,272.245532299974,272.245532299974,272.245532299974,275.22944199998165,f,2.2989146999898367,0.19194560003234074,275.23171800002456,275.2317378000007,None,275.24530920002144,275.24530920002144,275.24530920002144,,,,,,,,,,,,,,00051,001,2026-01-18_15h58.48.144,MST_task,2024.2.0,60.1334481421908,2026-01-18 15h59.01.144819 +0530,
,Objects\109a.jpg,15,0,16,,,,,,,j,1.8707321000401862,0.17691779998131096,None,,,,,,16,0,15,275.24530920002144,,,,,,,,,,,,,,,,,,,,,,,,,,,,,,275.2318653999828,275.24530920002144,275.7288820000249,,,,,,,,,,,,,,275.745634699997,,,,,,,,,,,,,275.7387856999994,275.745634699997,275.745634699997,275.745634699997,278.7290887000272,j,1.8707321000401862,0.17691779998131096,278.72913559997687,278.72914650000166,None,278.7451974999858,278.7451974999858,278.7451974999858,,,,,,,,,,,,,,00051,001,2026-01-18_15h58.48.144,MST_task,2024.2.0,60.1334481421908,2026-01-18 15h59.01.144819 +0530,
,Objects\131a.jpg,16,0,17,,,,,,,f,2.4995464999810793,0.20801890001166612,None,,,,,,17,0,16,278.7451974999858,,,,,,,,,,,,,,,,,,,,,,,,,,,,,,278.72924180002883,278.7451974999858,279.22896849998506,,,,,,,,,,,,,,279.24547989998246,,,,,,,,,,,,,279.2384823000175,279.24547989998246,279.24547989998246,279.24547989998246,282.2292146999971,f,2.4995464999810793,0.20801890001166612,282.22926370002097,282.22927609999897,None,282.2450906999875,282.2450906999875,282.2450906999875,,,,,,,,,,,,,,00051,001,2026-01-18_15h58.48.144,MST_task,2024.2.0,60.1334481421908,2026-01-18 15h59.01.144819 +0530,
,Objects\145a.jpg,17,0,18,,,,,,,f,2.5996104999794625,0.20764679997228086,None,,,,,,18,0,17,282.2450906999875,,,,,,,,,,,,,,,,,,,,,,,,,,,,,,282.2293447999982,282.2450906999875,282.72887589997845,,,,,,,,,,,,,,282.7455653999932,,,,,,,,,,,,,282.7399961000192,282.7455653999932,282.7455653999932,282.7455653999932,285.72938430000795,f,2.5996104999794625,0.20764679997228086,285.7294278999907,285.7294388000155,None,285.74527840001974,285.74527840001974,285.74527840001974,,,,,,,,,,,,,,00051,001,2026-01-18_15h58.48.144,MST_task,2024.2.0,60.1334481421908,2026-01-18 15h59.01.144819 +0530,
,Objects\189a.jpg,18,0,19,,,,,,,j,1.5478315000073053,0.18317299999762326,None,,,,,,19,0,18,285.74527840001974,,,,,,,,,,,,,,,,,,,,,,,,,,,,,,285.72953509999206,285.74527840001974,286.2288799000089,,,,,,,,,,,,,,286.2454354999936,,,,,,,,,,,,,286.2383795999922,286.2454354999936,286.2454354999936,286.2454354999936,289.2292846000055,j,1.5478315000073053,0.18317299999762326,289.2293271999806,289.2293389000115,None,289.2451157000032,289.2451157000032,289.2451157000032,,,,,,,,,,,,,,00051,001,2026-01-18_15h58.48.144,MST_task,2024.2.0,60.1334481421908,2026-01-18 15h59.01.144819 +0530,
,Objects\144a.jpg,19,0,20,,,,,,,None,,,j,0.13517969998065382,None,,,,20,0,19,289.2451157000032,,,,,,,,,,,,,,,,,,,,,,,,,,,,,,289.2294353999896,289.2451157000032,289.72889399999985,,,,,,,,,,,,,,289.74531169998227,,,,,,,,,,,,,289.7392420999822,289.74531169998227,289.74531169998227,289.74531169998227,292.72906119999243,None,,,292.7291049999767,292.8957574000233,j,292.74519460002193,292.74519460002193,292.74519460002193,292.74519460002193,292.74519460002193,0.13517969998065382,None,,,,,,,,,,00051,001,2026-01-18_15h58.48.144,MST_task,2024.2.0,60.1334481421908,2026-01-18 15h59.01.144819 +0530,
,Objects\125a.jpg,20,0,21,,,,,,,j,2.053621600032784,0.26391350000631064,None,,,,,,21,0,20,292.91196070000296,,,,,,,,,,,,,,,,,,,,,,,,,,,,,,292.89588369999547,292.91196070000296,293.39539159997366,,,,,,,,,,,,,,293.41216200002236,,,,,,,,,,,,,293.40444990003016,293.41216200002236,293.41216200002236,293.41216200002236,296.39567940001143,j,2.053621600032784,0.26391350000631064,296.3957210999797,296.3957335000159,None,296.412281500001,296.412281500001,296.412281500001,,,,,,,,,,,,,,00051,001,2026-01-18_15h58.48.144,MST_task,2024.2.0,60.1334481421908,2026-01-18 15h59.01.144819 +0530,
,Scenes\096a.jpg,21,0,22,,,,,,,j,1.368537800037302,0.16812379995826632,None,,,,,,22,0,21,296.412281500001,,,,,,,,,,,,,,,,,,,,,,,,,,,,,,296.3958282999811,296.412281500001,296.8955561000039,,,,,,,,,,,,,,296.9124324999866,,,,,,,,,,,,,296.908480699989,296.9124324999866,296.9124324999866,296.9124324999866,299.8960289999959,j,1.368537800037302,0.16812379995826632,299.89769020001404,299.89770849997876,None,299.91197140002623,299.91197140002623,299.91197140002623,,,,,,,,,,,,,,00051,001,2026-01-18_15h58.48.144,MST_task,2024.2.0,60.1334481421908,2026-01-18 15h59.01.144819 +0530,
,Scenes\121a.jpg,22,0,23,,,,,,,j,1.4660261000390165,0.17682509997393936,None,,,,,,23,0,22,299.91197140002623,,,,,,,,,,,,,,,,,,,,,,,,,,,,,,299.8978157999809,299.91197140002623,300.39541210001335,,,,,,,,,,,,,,300.4146460000193,,,,,,,,,,,,,300.4123338999925,300.4146460000193,300.4146460000193,300.4146460000193,303.41218530002516,j,1.4660261000390165,0.17682509997393936,303.41222639998887,303.41223860002356,None,,,,,,,,,,,,,,,,,00051,001,2026-01-18_15h58.48.144,MST_task,2024.2.0,60.1334481421908,2026-01-18 15h59.01.144819 +0530,
,Scenes\147a.jpg,23,0,24,,,,,,,j,1.383989299996756,0.17576810001628473,None,,,,,,24,0,23,303.42862299998524,,,,,,,,,,,,,,,,,,,,,,,,,,,,,,303.41233479999937,303.42862299998524,303.9121705000289,,,,,,,,,,,,,,303.92916599998716,,,,,,,,,,,,,303.92478549998486,303.92916599998716,303.92916599998716,303.92916599998716,306.9126091999933,j,1.383989299996756,0.17576810001628473,306.91265279997606,306.91266400000313,None,306.9286302999826,306.9286302999826,306.9286302999826,,,,,,,,,,,,,,00051,001,2026-01-18_15h58.48.144,MST_task,2024.2.0,60.1334481421908,2026-01-18 15h59.01.144819 +0530,
,Scenes\122a.jpg,24,0,25,,,,,,,f,1.1375847000163049,0.21592969994526356,None,,,,,,25,0,24,306.9286302999826,,,,,,,,,,,,,,,,,,,,,,,,,,,,,,306.9127695999923,306.9286302999826,307.4122200999991,,,,,,,,,,,,,,307.4315508999862,,,,,,,,,,,,,307.4292255999753,307.4315508999862,307.4315508999862,307.4315508999862,310.42893009999534,f,1.1375847000163049,0.21592969994526356,310.42897639999865,310.42898830003105,None,,,,,,,,,,,,,,,,,00051,001,2026-01-18_15h58.48.144,MST_task,2024.2.0,60.1334481421908,2026-01-18 15h59.01.144819 +0530,
,Scenes\157a.jpg,25,0,26,,,,,,,j,1.1515204000170343,0.18400170002132654,None,,,,,,26,0,25,310.4451362999971,,,,,,,,,,,,,,,,,,,,,,,,,,,,,,310.42908640002133,310.4451362999971,310.92883689998416,,,,,,,,,,,,,,310.9456186000025,,,,,,,,,,,,,310.9431184999994,310.9456186000025,310.9456186000025,310.9456186000025,313.9293152000173,j,1.1515204000170343,0.18400170002132654,313.9293585999985,313.92936970002484,None,313.9453783999779,313.9453783999779,313.9453783999779,,,,,,,,,,,,,,00051,001,2026-01-18_15h58.48.144,MST_task,2024.2.0,60.1334481421908,2026-01-18 15h59.01.144819 +0530,
,Scenes\104a.jpg,26,0,27,,,,,,,j,2.02585919998819,0.18422100000316277,None,,,,,,27,0,26,313.9453783999779,,,,,,,,,,,,,,,,,,,,,,,,,,,,,,313.929466600006,313.9453783999779,314.42897379997885,,,,,,,,,,,,,,314.4467823000159,,,,,,,,,,,,,314.44445289997384,314.4467823000159,314.4467823000159,314.4467823000159,317.44554470002186,j,2.02585919998819,0.18422100000316277,317.44558689999394,317.44559930003015,None,,,,,,,,,,,,,,,,,00051,001,2026-01-18_15h58.48.144,MST_task,2024.2.0,60.1334481421908,2026-01-18 15h59.01.144819 +0530,
,Scenes\140a.jpg,27,0,28,,,,,,,j,0.911067400011234,0.18397499999264255,None,,,,,,28,0,27,317.462033400021,,,,,,,,,,,,,,,,,,,,,,,,,,,,,,317.4456726000062,317.462033400021,317.9456544999848,,,,,,,,,,,,,,317.962599600025,,,,,,,,,,,,,317.9585879999795,317.962599600025,317.962599600025,317.962599600025,320.9459082999965,j,0.911067400011234,0.18397499999264255,320.94595119997393,320.9459620999987,None,320.9620520999888,320.9620520999888,320.9620520999888,,,,,,,,,,,,,,00051,001,2026-01-18_15h58.48.144,MST_task,2024.2.0,60.1334481421908,2026-01-18 15h59.01.144819 +0530,
,Objects\015a.jpg,28,0,29,,,,,,,f,1.6739332000142895,0.20799940003780648,None,,,,,,29,0,28,320.9620520999888,,,,,,,,,,,,,,,,,,,,,,,,,,,,,,320.9460591999814,320.9620520999888,321.44555509998463,,,,,,,,,,,,,,321.46248899999773,,,,,,,,,,,,,321.4585975999944,321.46248899999773,321.46248899999773,321.46248899999773,324.44615600002,f,1.6739332000142895,0.20799940003780648,324.4481901000254,324.44820669997716,None,324.46196059999056,324.46196059999056,324.46196059999056,,,,,,,,,,,,,,00051,001,2026-01-18_15h58.48.144,MST_task,2024.2.0,60.1334481421908,2026-01-18 15h59.01.144819 +0530,
,Objects\016a.jpg,29,0,30,,,,,,,f,1.21430789999431,0.20027470000786707,None,,,,,,30,0,29,324.46196059999056,,,,,,,,,,,,,,,,,,,,,,,,,,,,,,324.44830869999714,324.46196059999056,324.945768399979,,,,,,,,,,,,,,324.96221909997985,,,,,,,,,,,,,324.9550220000092,324.96221909997985,324.96221909997985,324.96221909997985,327.9459673999809,f,1.21430789999431,0.20027470000786707,327.9460098000127,327.94602079998003,None,327.9621122999815,327.9621122999815,327.9621122999815,,,,,,,,,,,,,,00051,001,2026-01-18_15h58.48.144,MST_task,2024.2.0,60.1334481421908,2026-01-18 15h59.01.144819 +0530,
,Objects\148a.jpg,30,0,31,,,,,,,f,2.57879940001294,0.192062399990391,None,,,,,,31,0,30,327.9621122999815,,,,,,,,,,,,,,,,,,,,,,,,,,,,,,327.9461189000285,327.9621122999815,328.4456099999952,,,,,,,,,,,,,,328.4623633000301,,,,,,,,,,,,,328.4548685000045,328.4623633000301,328.4623633000301,328.4623633000301,331.4460502000293,f,2.57879940001294,0.192062399990391,331.44609169999603,331.44610280002235,None,331.46200900000986,331.46200900000986,331.46200900000986,,,,,,,,,,,,,,00051,001,2026-01-18_15h58.48.144,MST_task,2024.2.0,60.1334481421908,2026-01-18 15h59.01.144819 +0530,
,Objects\137a.jpg,31,0,32,,,,,,,f,2.8307711000088602,None,None,,,,,,32,0,31,331.46200900000986,,,,,,,,,,,,,,,,,,,,,,,,,,,,,,331.44616749999113,331.46200900000986,331.9455128000118,,,,,,,,,,,,,,331.9623162000207,,,,,,,,,,,,,331.95454840001184,331.9623162000207,331.9623162000207,331.9623162000207,334.94589430000633,f,2.8307711000088602,None,334.94593769998755,334.9459489000146,None,334.9619634000119,334.9619634000119,334.9619634000119,,,,,,,,,,,,,,00051,001,2026-01-18_15h58.48.144,MST_task,2024.2.0,60.1334481421908,2026-01-18 15h59.01.144819 +0530,
,Objects\151a.jpg,32,0,33,,,,,,,f,2.779686399968341,None,None,,,,,,33,0,32,334.9619634000119,,,,,,,,,,,,,,,,,,,,,,,,,,,,,,334.9460666999803,334.9619634000119,335.4455989000271,,,,,,,,,,,,,,335.4624130000011,,,,,,,,,,,,,335.45521639997605,335.4624130000011,335.4624130000011,335.4624130000011,338.4460488000186,f,2.779686399968341,None,338.44610150001245,338.4461124999798,None,338.4621278999839,338.4621278999839,338.4621278999839,,,,,,,,,,,,,,00051,001,2026-01-18_15h58.48.144,MST_task,2024.2.0,60.1334481421908,2026-01-18 15h59.01.144819 +0530,
,Objects\169a.jpg,33,0,34,,,,,,,j,2.526098100002855,0.18399410002166405,None,,,,,,34,0,33,338.4621278999839,,,,,,,,,,,,,,,,,,,,,,,,,,,,,,338.446185400011,338.4621278999839,338.9461362999864,,,,,,,,,,,,,,338.9622900999966,,,,,,,,,,,,,338.9553824000177,338.9622900999966,338.9622900999966,338.9622900999966,341.94604820001405,j,2.526098100002855,0.18399410002166405,341.9460914999945,341.94610280002235,None,341.9620145999943,341.9620145999943,341.9620145999943,,,,,,,,,,,,,,00051,001,2026-01-18_15h58.48.144,MST_task,2024.2.0,60.1334481421908,2026-01-18 15h59.01.144819 +0530,
,Objects\124a.jpg,34,0,35,,,,,,,j,2.394789199985098,0.20801380003103986,None,,,,,,35,0,34,341.9620145999943,,,,,,,,,,,,,,,,,,,,,,,,,,,,,,341.9461689000018,341.9620145999943,342.4458161999937,,,,,,,,,,,,,,342.46222270000726,,,,,,,,,,,,,342.4588177999831,342.46222270000726,342.46222270000726,342.46222270000726,345.4456863999949,j,2.394789199985098,0.20801380003103986,345.4457365000271,345.4457481999998,None,345.46195389999775,345.46195389999775,345.46195389999775,,,,,,,,,,,,,,00051,001,2026-01-18_15h58.48.144,MST_task,2024.2.0,60.1334481421908,2026-01-18 15h59.01.144819 +0530,
,Scenes\012a.jpg,35,0,36,,,,,,,j,2.153076599992346,0.21530989999882877,None,,,,,,36,0,35,345.46195389999775,,,,,,,,,,,,,,,,,,,,,,,,,,,,,,345.4458553000004,345.46195389999775,345.94562030001543,,,,,,,,,,,,,,345.9685694000218,,,,,,,,,,,,,345.9662388000288,345.9685694000218,345.9685694000218,345.9685694000218,348.9623286999995,j,2.153076599992346,0.21530989999882877,348.96420609997585,348.96422989998246,None,,,,,,,,,,,,,,,,,00051,001,2026-01-18_15h58.48.144,MST_task,2024.2.0,60.1334481421908,2026-01-18 15h59.01.144819 +0530,
,Scenes\127a.jpg,36,0,37,,,,,,,j,1.6241353999939747,0.2092831000336446,None,,,,,,37,0,36,348.9787182,,,,,,,,,,,,,,,,,,,,,,,,,,,,,,348.9643571000197,348.9787182,349.46232160000363,,,,,,,,,,,,,,349.48075290001,,,,,,,,,,,,,349.47842749999836,349.48075290001,349.48075290001,349.48075290001,352.4789372999803,j,1.6241353999939747,0.2092831000336446,352.47898920002626,352.4790009999997,None,,,,,,,,,,,,,,,,,00051,001,2026-01-18_15h58.48.144,MST_task,2024.2.0,60.1334481421908,2026-01-18 15h59.01.144819 +0530,
,Scenes\123a.jpg,37,0,38,,,,,,,j,0.9972744000260718,0.1996250000083819,None,,,,,,38,0,37,352.49523890001,,,,,,,,,,,,,,,,,,,,,,,,,,,,,,352.47915069997543,352.49523890001,352.97896749997744,,,,,,,,,,,,,,352.9959713999997,,,,,,,,,,,,,352.9910828000284,352.9959713999997,352.9959713999997,352.9959713999997,355.97922129998915,j,0.9972744000260718,0.1996250000083819,355.97926480002934,355.979276500002,None,355.99536330002593,355.99536330002593,355.99536330002593,,,,,,,,,,,,,,00051,001,2026-01-18_15h58.48.144,MST_task,2024.2.0,60.1334481421908,2026-01-18 15h59.01.144819 +0530,
,Scenes\139a.jpg,38,0,39,,,,,,,j,1.1538736000075005,0.21478659997228533,None,,,,,,39,0,38,355.99536330002593,,,,,,,,,,,,,,,,,,,,,,,,,,,,,,355.9793761000037,355.99536330002593,356.47899769997457,,,,,,,,,,,,,,356.4956684000208,,,,,,,,,,,,,356.49032510002144,356.4956684000208,356.4956684000208,356.4956684000208,359.47928780002985,j,1.1538736000075005,0.21478659997228533,359.4793298000004,359.47934080002597,None,359.4953683000058,359.4953683000058,359.4953683000058,,,,,,,,,,,,,,00051,001,2026-01-18_15h58.48.144,MST_task,2024.2.0,60.1334481421908,2026-01-18 15h59.01.144819 +0530,
,Scenes\105a.jpg,39,0,40,,,,,,,j,2.041638499998953,0.26415270002325997,None,,,,,,40,0,39,359.4953683000058,,,,,,,,,,,,,,,,,,,,,,,,,,,,,,359.4794355999911,359.4953683000058,359.97912660002476,,,,,,,,,,,,,,359.99907520000124,,,,,,,,,,,,,359.9965237000142,359.99907520000124,359.99907520000124,359.99907520000124,362.9954280999955,j,2.041638499998953,0.26415270002325997,362.9954789999756,362.9954920000164,None,,,,,,,,,,,,,,,,,00051,001,2026-01-18_15h58.48.144,MST_task,2024.2.0,60.1334481421908,2026-01-18 15h59.01.144819 +0530,
,Scenes\158a.jpg,40,0,41,,,,,,,j,2.598327000043355,0.2320731999934651,None,,,,,,41,0,40,363.01202500000363,,,,,,,,,,,,,,,,,,,,,,,,,,,,,,362.9956055000075,363.01202500000363,363.49556399998255,,,,,,,,,,,,,,363.5147372999927,,,,,,,,,,,,,363.51229969999986,363.5147372999927,363.5147372999927,363.5147372999927,366.51219290000154,j,2.598327000043355,0.2320731999934651,366.51224050001474,366.512252799992,None,,,,,,,,,,,,,,,,,00051,001,2026-01-18_15h58.48.144,MST_task,2024.2.0,60.1334481421908,2026-01-18 15h59.01.144819 +0530,
,Scenes\179a.jpg,41,0,42,,,,,,,j,1.132021400029771,0.24756509996950626,None,,,,,,42,0,41,366.5287434000056,,,,,,,,,,,,,,,,,,,,,,,,,,,,,,366.51232400001027,366.5287434000056,367.0122955000261,,,,,,,,,,,,,,367.02927090000594,,,,,,,,,,,,,367.02581329998793,367.02927090000594,367.02927090000594,367.02927090000594,370.0127091999748,j,1.132021400029771,0.24756509996950626,370.0127566999872,370.01276850001886,None,370.028707200021,370.028707200021,370.028707200021,,,,,,,,,,,,,,00051,001,2026-01-18_15h58.48.144,MST_task,2024.2.0,60.1334481421908,2026-01-18 15h59.01.144819 +0530,
,Objects\121a.jpg,42,0,43,,,,,,,f,2.4470494999550283,0.2013709000311792,None,,,,,,43,0,42,370.028707200021,,,,,,,,,,,,,,,,,,,,,,,,,,,,,,370.0128525000182,370.028707200021,370.5123017000151,,,,,,,,,,,,,,370.529256800015,,,,,,,,,,,,,370.5243008999969,370.529256800015,370.529256800015,370.529256800015,373.5125261999783,f,2.4470494999550283,0.2013709000311792,373.51453250000486,373.5145500000217,None,373.5286286000046,373.5286286000046,373.5286286000046,,,,,,,,,,,,,,00051,001,2026-01-18_15h58.48.144,MST_task,2024.2.0,60.1334481421908,2026-01-18 15h59.01.144819 +0530,
,Objects\147a.jpg,43,0,44,,,,,,,f,2.052399299980607,0.21594080002978444,None,,,,,,44,0,43,373.5286286000046,,,,,,,,,,,,,,,,,,,,,,,,,,,,,,373.5146203999757,373.5286286000046,374.01220320002176,,,,,,,,,,,,,,374.02888410002925,,,,,,,,,,,,,374.02103529998567,374.02888410002925,374.02888410002925,374.02888410002925,377.01260760001605,f,2.052399299980607,0.21594080002978444,377.0126540000201,377.01266529998975,None,377.02871540002525,377.02871540002525,377.02871540002525,,,,,,,,,,,,,,00051,001,2026-01-18_15h58.48.144,MST_task,2024.2.0,60.1334481421908,2026-01-18 15h59.01.144819 +0530,
,Objects\188a.jpg,44,0,45,,,,,,,f,1.4076919000362977,0.1999954999773763,None,,,,,,45,0,44,377.02871540002525,,,,,,,,,,,,,,,,,,,,,,,,,,,,,,377.0127316000289,377.02871540002525,377.51240940002026,,,,,,,,,,,,,,377.52879459998803,,,,,,,,,,,,,377.52133130002767,377.52879459998803,377.52879459998803,377.52879459998803,380.5124751999974,f,1.4076919000362977,0.1999954999773763,380.5125592999975,380.51257139997324,None,380.52870269998675,380.52870269998675,380.52870269998675,,,,,,,,,,,,,,00051,001,2026-01-18_15h58.48.144,MST_task,2024.2.0,60.1334481421908,2026-01-18 15h59.01.144819 +0530,
,Objects\039a.jpg,45,0,46,,,,,,,j,1.5482682999572717,0.18416340003022924,None,,,,,,46,0,45,380.52870269998675,,,,,,,,,,,,,,,,,,,,,,,,,,,,,,380.5126696000225,380.52870269998675,381.0121858000057,,,,,,,,,,,,,,381.0288687000284,,,,,,,,,,,,,381.02189410000574,381.0288687000284,381.0288687000284,381.0288687000284,384.0125219000038,j,1.5482682999572717,0.18416340003022924,384.01256539998576,384.01257680001436,None,384.02856150001753,384.02856150001753,384.02856150001753,,,,,,,,,,,,,,00051,001,2026-01-18_15h58.48.144,MST_task,2024.2.0,60.1334481421908,2026-01-18 15h59.01.144819 +0530,
,Objects\187a.jpg,46,0,47,,,,,,,f,1.0724131999886595,0.19193959998665377,None,,,,,,47,0,46,384.02856150001753,,,,,,,,,,,,,,,,,,,,,,,,,,,,,,384.0126928000245,384.02856150001753,384.51218800002243,,,,,,,,,,,,,,384.52885050000623,,,,,,,,,,,,,384.52148370002396,384.52885050000623,384.52885050000623,384.52885050000623,387.5124971999903,f,1.0724131999886595,0.19193959998665377,387.5125397000229,387.51255069999024,None,387.5286199999973,387.5286199999973,387.5286199999973,,,,,,,,,,,,,,00051,001,2026-01-18_15h58.48.144,MST_task,2024.2.0,60.1334481421908,2026-01-18 15h59.01.144819 +0530,
,Objects\185a.jpg,47,0,48,,,,,,,f,1.9637091000331566,0.1931137999636121,None,,,,,,48,0,47,387.5286199999973,,,,,,,,,,,,,,,,,,,,,,,,,,,,,,387.51264620001893,387.5286199999973,388.01233669999056,,,,,,,,,,,,,,388.0289007999818,,,,,,,,,,,,,388.02191170002334,388.0289007999818,388.0289007999818,388.0289007999818,391.0125369000016,f,1.9637091000331566,0.1931137999636121,391.0125791999744,391.01259050000226,None,391.0286174999783,391.0286174999783,391.0286174999783,,,,,,,,,,,,,,00051,001,2026-01-18_15h58.48.144,MST_task,2024.2.0,60.1334481421908,2026-01-18 15h59.01.144819 +0530,
,Objects\028a.jpg,48,0,49,,,,,,,j,1.4404993999633007,0.20770000002812594,None,,,,,,49,0,48,391.0286174999783,,,,,,,,,,,,,,,,,,,,,,,,,,,,,,391.0126878999872,391.0286174999783,391.51234630000545,,,,,,,,,,,,,,391.5288146000239,,,,,,,,,,,,,391.52154400001746,391.5288146000239,391.5288146000239,391.5288146000239,394.5126225000131,j,1.4404993999633007,0.20770000002812594,394.5126638999791,394.51267430000007,None,394.52857439999934,394.52857439999934,394.52857439999934,,,,,,,,,,,,,,00051,001,2026-01-18_15h58.48.144,MST_task,2024.2.0,60.1334481421908,2026-01-18 15h59.01.144819 +0530,
,Scenes\134a.jpg,49,0,50,,,,,,,j,1.6866271999897435,0.17607460002182052,None,,,,,,50,0,49,394.52857439999934,,,,,,,,,,,,,,,,,,,,,,,,,,,,,,394.51277710002614,394.52857439999934,395.01224509999156,,,,,,,,,,,,,,395.03422680002404,,,,,,,,,,,,,395.03173889999744,395.03422680002404,395.03422680002404,395.03422680002404,398.0287951999926,j,1.6866271999897435,0.17607460002182052,398.03047709999373,398.0304955000174,None,,,,,,,,,,,,,,,,,00051,001,2026-01-18_15h58.48.144,MST_task,2024.2.0,60.1334481421908,2026-01-18 15h59.01.144819 +0530,
,Scenes\162a.jpg,50,0,51,,,,,,,j,1.2867422999697737,0.21721059997798875,None,,,,,,51,0,50,398.0451894000289,,,,,,,,,,,,,,,,,,,,,,,,,,,,,,398.0305971999769,398.0451894000289,398.5290180000011,,,,,,,,,,,,,,398.5457780000288,,,,,,,,,,,,,398.5421845000237,398.5457780000288,398.5457780000288,398.5457780000288,401.5291602999787,j,1.2867422999697737,0.21721059997798875,401.52920180000365,401.5292130000307,None,401.54521980002755,401.54521980002755,401.54521980002755,,,,,,,,,,,,,,00051,001,2026-01-18_15h58.48.144,MST_task,2024.2.0,60.1334481421908,2026-01-18 15h59.01.144819 +0530,
,Scenes\006a.jpg,51,0,52,,,,,,,f,2.2347732999478467,0.18423900002380833,None,,,,,,52,0,51,401.54521980002755,,,,,,,,,,,,,,,,,,,,,,,,,,,,,,401.5293085000012,401.54521980002755,402.02879920002306,,,,,,,,,,,,,,402.04578049998963,,,,,,,,,,,,,402.0413339000079,402.04578049998963,402.04578049998963,402.04578049998963,405.0291242999956,f,2.2347732999478467,0.18423900002380833,405.0291677999776,405.02917900000466,None,405.0452374999877,405.0452374999877,405.0452374999877,,,,,,,,,,,,,,00051,001,2026-01-18_15h58.48.144,MST_task,2024.2.0,60.1334481421908,2026-01-18 15h59.01.144819 +0530,
,Scenes\152a.jpg,52,0,53,,,,,,,j,1.551550500036683,0.19926009996561334,None,,,,,,53,0,52,405.0452374999877,,,,,,,,,,,,,,,,,,,,,,,,,,,,,,405.02924350003013,405.0452374999877,405.5287830000161,,,,,,,,,,,,,,405.5456090000225,,,,,,,,,,,,,405.54306130000623,405.5456090000225,405.5456090000225,405.5456090000225,408.529138199985,j,1.551550500036683,0.19926009996561334,408.52918080001837,408.52919169998495,None,408.54513420001604,408.54513420001604,408.54513420001604,,,,,,,,,,,,,,00051,001,2026-01-18_15h58.48.144,MST_task,2024.2.0,60.1334481421908,2026-01-18 15h59.01.144819 +0530,
,Scenes\055a.jpg,53,0,54,,,,,,,j,2.049942600016948,0.1999783999635838,None,,,,,,54,0,53,408.54513420001604,,,,,,,,,,,,,,,,,,,,,,,,,,,,,,408.5292884000228,408.54513420001604,409.02896040002815,,,,,,,,,,,,,,409.04745620000176,,,,,,,,,,,,,409.0449671000242,409.04745620000176,409.04745620000176,409.04745620000176,412.0454561000224,j,2.049942600016948,0.1999783999635838,412.0454975999892,412.0455094000208,None,,,,,,,,,,,,,,,,,00051,001,2026-01-18_15h58.48.144,MST_task,2024.2.0,60.1334481421908,2026-01-18 15h59.01.144819 +0530,
,Scenes\175a.jpg,54,0,55,,,,,,,j,1.0226979000144638,0.2160262999823317,None,,,,,,55,0,54,412.0618894000072,,,,,,,,,,,,,,,,,,,,,,,,,,,,,,412.0455745999934,412.0618894000072,412.545475299994,,,,,,,,,,,,,,412.56250820000423,,,,,,,,,,,,,412.5577505999827,412.56250820000423,412.56250820000423,412.56250820000423,415.54587640002137,j,1.0226979000144638,0.2160262999823317,415.54592330002924,415.54593520000344,None,415.56195220001973,415.56195220001973,415.56195220001973,,,,,,,,,,,,,,00051,001,2026-01-18_15h58.48.144,MST_task,2024.2.0,60.1334481421908,2026-01-18 15h59.01.144819 +0530,
,Scenes\131a.jpg,55,0,56,,,,,,,j,1.6102500999695621,0.20904310001060367,None,,,,,,56,0,55,415.56195220001973,,,,,,,,,,,,,,,,,,,,,,,,,,,,,,415.54600119998213,415.56195220001973,416.0453360999818,,,,,,,,,,,,,,416.06257389998063,,,,,,,,,,,,,416.06026030000066,416.06257389998063,416.06257389998063,416.06257389998063,419.0461380999768,j,1.6102500999695621,0.20904310001060367,419.04619080002885,419.0462028000038,None,419.0620442000218,419.0620442000218,419.0620442000218,,,,,,,,,,,,,,00051,001,2026-01-18_15h58.48.144,MST_task,2024.2.0,60.1334481421908,2026-01-18 15h59.01.144819 +0530,
,Objects\069a.jpg,56,0,57,,,,,,,j,1.6788820000365376,0.21599589998368174,None,,,,,,57,0,56,419.0620442000218,,,,,,,,,,,,,,,,,,,,,,,,,,,,,,419.0462754999753,419.0620442000218,419.54545550001785,,,,,,,,,,,,,,419.5624123000307,,,,,,,,,,,,,419.55838980001863,419.5624123000307,419.5624123000307,419.5624123000307,422.54599050001707,j,1.6788820000365376,0.21599589998368174,422.5480593999964,422.54807740001706,None,422.56201009999495,422.56201009999495,422.56201009999495,,,,,,,,,,,,,,00051,001,2026-01-18_15h58.48.144,MST_task,2024.2.0,60.1334481421908,2026-01-18 15h59.01.144819 +0530,
,Objects\135a.jpg,57,0,58,,,,,,,f,1.2587788000237197,0.21606189996236935,None,,,,,,58,0,57,422.56201009999495,,,,,,,,,,,,,,,,,,,,,,,,,,,,,,422.54818919999525,422.56201009999495,423.0455508999876,,,,,,,,,,,,,,423.0622883000178,,,,,,,,,,,,,423.0551698000054,423.0622883000178,423.0622883000178,423.0622883000178,426.0456787000294,f,1.2587788000237197,0.21606189996236935,426.04572069999995,426.0457314000232,None,426.06196640001144,426.06196640001144,426.06196640001144,,,,,,,,,,,,,,00051,001,2026-01-18_15h58.48.144,MST_task,2024.2.0,60.1334481421908,2026-01-18 15h59.01.144819 +0530,
,Objects\042a.jpg,58,0,59,,,,,,,j,1.7744981999858283,0.19256470003165305,None,,,,,,59,0,58,426.06196640001144,,,,,,,,,,,,,,,,,,,,,,,,,,,,,,426.0458303000196,426.06196640001144,426.5455015000189,,,,,,,,,,,,,,426.56214799999725,,,,,,,,,,,,,426.55477659997996,426.56214799999725,426.56214799999725,426.56214799999725,429.5457782000303,j,1.7744981999858283,0.19256470003165305,429.54582060000394,429.5458315000287,None,429.56195730000036,429.56195730000036,429.56195730000036,,,,,,,,,,,,,,00051,001,2026-01-18_15h58.48.144,MST_task,2024.2.0,60.1334481421908,2026-01-18 15h59.01.144819 +0530,
,Objects\049a.jpg,59,0,60,,,,,,,j,2.434256400039885,0.20923290000064299,None,,,,,,60,0,59,429.56195730000036,,,,,,,,,,,,,,,,,,,,,,,,,,,,,,429.5458951999899,429.56195730000036,430.04552019998664,,,,,,,,,,,,,,430.06215860001976,,,,,,,,,,,,,430.0555645999848,430.06215860001976,430.06215860001976,430.06215860001976,433.0456923000165,j,2.434256400039885,0.20923290000064299,433.0457347999909,433.04574610001873,None,433.0619730000035,433.0619730000035,433.0619730000035,,,,,,,,,,,,,,00051,001,2026-01-18_15h58.48.144,MST_task,2024.2.0,60.1334481421908,2026-01-18 15h59.01.144819 +0530,
,Objects\115a.jpg,60,0,61,,,,,,,j,1.6702919999952428,0.20799999998416752,None,,,,,,61,0,60,433.0619730000035,,,,,,,,,,,,,,,,,,,,,,,,,,,,,,433.0458121999982,433.0619730000035,433.5456485999748,,,,,,,,,,,,,,433.5622514000279,,,,,,,,,,,,,433.5548971000244,433.5622514000279,433.5622514000279,433.5622514000279,436.5459366000141,j,1.6702919999952428,0.20799999998416752,436.5459784999839,436.5459896000102,None,436.5620821000193,436.5620821000193,436.5620821000193,,,,,,,,,,,,,,00051,001,2026-01-18_15h58.48.144,MST_task,2024.2.0,60.1334481421908,2026-01-18 15h59.01.144819 +0530,
,Objects\129a.jpg,61,0,62,,,,,,,f,2.7945288999471813,None,None,,,,,,62,0,61,436.5620821000193,,,,,,,,,,,,,,,,,,,,,,,,,,,,,,436.5460845999769,436.5620821000193,437.0456386000151,,,,,,,,,,,,,,437.06239719997393,,,,,,,,,,,,,437.0552670999896,437.06239719997393,437.06239719997393,437.06239719997393,440.04612509999424,f,2.7945288999471813,None,440.0461669000215,440.0461777999881,None,440.06214049999835,440.06214049999835,440.06214049999835,,,,,,,,,,,,,,00051,001,2026-01-18_15h58.48.144,MST_task,2024.2.0,60.1334481421908,2026-01-18 15h59.01.144819 +0530,
,Objects\179a.jpg,62,0,63,,,,,,,f,1.3516076999949291,0.21454459999222308,None,,,,,,63,0,62,440.06214049999835,,,,,,,,,,,,,,,,,,,,,,,,,,,,,,440.04627310001524,440.06214049999835,440.5457928000251,,,,,,,,,,,,,,440.5623384999926,,,,,,,,,,,,,440.55492929997854,440.5623384999926,440.5623384999926,440.5623384999926,443.5464551000041,f,1.3516076999949291,0.21454459999222308,443.54650330002187,443.5465148999938,None,443.56198529998073,443.56198529998073,443.56198529998073,,,,,,,,,,,,,,00051,001,2026-01-18_15h58.48.144,MST_task,2024.2.0,60.1334481421908,2026-01-18 15h59.01.144819 +0530,
,Scenes\061a.jpg,63,0,64,,,,,,,j,1.6030193000333384,0.21506989997578785,None,,,,,,64,0,63,443.56198529998073,,,,,,,,,,,,,,,,,,,,,,,,,,,,,,443.54662749997806,443.56198529998073,444.04570459999377,,,,,,,,,,,,,,444.0626643000287,,,,,,,,,,,,,444.0590853000176,444.0626643000287,444.0626643000287,444.0626643000287,447.0462754999753,j,1.6030193000333384,0.21506989997578785,447.04819880001014,447.04821640002774,None,447.0620544999838,447.0620544999838,447.0620544999838,,,,,,,,,,,,,,00051,001,2026-01-18_15h58.48.144,MST_task,2024.2.0,60.1334481421908,2026-01-18 15h59.01.144819 +0530,
,Scenes\181a.jpg,64,0,65,,,,,,,f,2.4031251999549568,0.1920005000429228,None,,,,,,65,0,64,447.0620544999838,,,,,,,,,,,,,,,,,,,,,,,,,,,,,,447.04832549998537,447.0620544999838,447.54557289998047,,,,,,,,,,,,,,447.56528869998874,,,,,,,,,,,,,447.56265099998564,447.56528869998874,447.56528869998874,447.56528869998874,450.5623829999822,f,2.4031251999549568,0.1920005000429228,450.5624240000034,450.56243569997605,None,,,,,,,,,,,,,,,,,00051,001,2026-01-18_15h58.48.144,MST_task,2024.2.0,60.1334481421908,2026-01-18 15h59.01.144819 +0530,
,Scenes\028a.jpg,65,0,66,,,,,,,j,1.624317699985113,0.20744079997530207,None,,,,,,66,0,65,450.5787472000229,,,,,,,,,,,,,,,,,,,,,,,,,,,,,,450.56250120000914,450.5787472000229,451.0623217999819,,,,,,,,,,,,,,451.0807884000242,,,,,,,,,,,,,451.07807930000126,451.0807884000242,451.0807884000242,451.0807884000242,454.0789776999736,j,1.624317699985113,0.20744079997530207,454.0790199000039,454.0790317999781,None,,,,,,,,,,,,,,,,,00051,001,2026-01-18_15h58.48.144,MST_task,2024.2.0,60.1334481421908,2026-01-18 15h59.01.144819 +0530,
,Scenes\083a.jpg,66,0,67,,,,,,,j,1.2931676000007428,0.1993827000260353,None,,,,,,67,0,66,454.09535499999765,,,,,,,,,,,,,,,,,,,,,,,,,,,,,,454.07912980002584,454.09535499999765,454.5789302000194,,,,,,,,,,,,,,454.595976600016,,,,,,,,,,,,,454.5929705000017,454.595976600016,454.595976600016,454.595976600016,457.57925080001587,j,1.2931676000007428,0.1993827000260353,457.579291299975,457.5793027000036,None,457.5954384999932,457.5954384999932,457.5954384999932,,,,,,,,,,,,,,00051,001,2026-01-18_15h58.48.144,MST_task,2024.2.0,60.1334481421908,2026-01-18 15h59.01.144819 +0530,
,Scenes\173a.jpg,67,0,68,,,,,,,j,0.841689300024882,0.20755729998927563,None,,,,,,68,0,67,457.5954384999932,,,,,,,,,,,,,,,,,,,,,,,,,,,,,,457.5793996999855,457.5954384999932,458.07900040003005,,,,,,,,,,,,,,458.09588520001853,,,,,,,,,,,,,458.0930518999812,458.09588520001853,458.09588520001853,458.09588520001853,461.07934860000387,j,0.841689300024882,0.20755729998927563,461.07939010002883,461.07940139999846,None,461.09526420000475,461.09526420000475,461.09526420000475,,,,,,,,,,,,,,00051,001,2026-01-18_15h58.48.144,MST_task,2024.2.0,60.1334481421908,2026-01-18 15h59.01.144819 +0530,
,Scenes\183a.jpg,68,0,69,,,,,,,f,1.2115187000017613,0.20800390001386404,None,,,,,,69,0,68,461.09526420000475,,,,,,,,,,,,,,,,,,,,,,,,,,,,,,461.0794658000232,461.09526420000475,461.57894709997345,,,,,,,,,,,,,,461.59760949999327,,,,,,,,,,,,,461.59509730001446,461.59760949999327,461.59760949999327,461.59760949999327,464.5956853000098,f,1.2115187000017613,0.20800390001386404,464.5957274999819,464.5957393000135,None,,,,,,,,,,,,,,,,,00051,001,2026-01-18_15h58.48.144,MST_task,2024.2.0,60.1334481421908,2026-01-18 15h59.01.144819 +0530,
,Scenes\017a.jpg,69,0,70,,,,,,,f,1.108202999981586,0.20857070002239197,None,,,,,,70,0,69,464.6120997000253,,,,,,,,,,,,,,,,,,,,,,,,,,,,,,464.5958362999954,464.6120997000253,465.0956593999872,,,,,,,,,,,,,,465.11635660001775,,,,,,,,,,,,,465.1137729000184,465.11635660001775,465.11635660001775,465.11635660001775,468.1123035000055,f,1.108202999981586,0.20857070002239197,468.11235260003014,468.11236440000357,None,,,,,,,,,,,,,,,,,00051,001,2026-01-18_15h58.48.144,MST_task,2024.2.0,60.1334481421908,2026-01-18 15h59.01.144819 +0530,
,Objects\067a.jpg,70,0,71,,,,,,,f,2.1719935000292026,0.2165724000078626,None,,,,,,71,0,70,468.12875139998505,,,,,,,,,,,,,,,,,,,,,,,,,,,,,,468.1124754999764,468.12875139998505,468.6123179999995,,,,,,,,,,,,,,468.6291576999938,,,,,,,,,,,,,468.62433959997725,468.6291576999938,468.6291576999938,468.6291576999938,471.61282189999474,f,2.1719935000292026,0.2165724000078626,471.6148998999852,471.61491699999897,None,471.628759299987,471.628759299987,471.628759299987,,,,,,,,,,,,,,00051,001,2026-01-18_15h58.48.144,MST_task,2024.2.0,60.1334481421908,2026-01-18 15h59.01.144819 +0530,
,Objects\168a.jpg,71,0,72,,,,,,,j,2.0961840000236407,0.20794940000632778,None,,,,,,72,0,71,471.628759299987,,,,,,,,,,,,,,,,,,,,,,,,,,,,,,471.61498479999136,471.628759299987,472.1123411000008,,,,,,,,,,,,,,472.1290099999751,,,,,,,,,,,,,472.1221405999968,472.1290099999751,472.1290099999751,472.1290099999751,475.1125711000059,j,2.0961840000236407,0.20794940000632778,475.1126120000263,475.1126230999944,None,475.1287519999896,475.1287519999896,475.1287519999896,,,,,,,,,,,,,,00051,001,2026-01-18_15h58.48.144,MST_task,2024.2.0,60.1334481421908,2026-01-18 15h59.01.144819 +0530,
,Objects\090a.jpg,72,0,73,,,,,,,j,1.2114644999965094,0.20051590004004538,None,,,,,,73,0,72,475.1287519999896,,,,,,,,,,,,,,,,,,,,,,,,,,,,,,475.1127172000124,475.1287519999896,475.61241360002896,,,,,,,,,,,,,,475.6289566999767,,,,,,,,,,,,,475.62257639999734,475.6289566999767,475.6289566999767,475.6289566999767,478.61265959998127,j,1.2114644999965094,0.20051590004004538,478.61270050000167,478.61271170002874,None,478.62866520002717,478.62866520002717,478.62866520002717,,,,,,,,,,,,,,00051,001,2026-01-18_15h58.48.144,MST_task,2024.2.0,60.1334481421908,2026-01-18 15h59.01.144819 +0530,
,Objects\132a.jpg,73,0,74,,,,,,,f,0.8561944999964908,0.20020439999643713,None,,,,,,74,0,73,478.62866520002717,,,,,,,,,,,,,,,,,,,,,,,,,,,,,,478.6127773000044,478.62866520002717,479.11260270001367,,,,,,,,,,,,,,479.1289086000179,,,,,,,,,,,,,479.12297199998284,479.1289086000179,479.1289086000179,479.1289086000179,482.11260400002357,f,0.8561944999964908,0.20020439999643713,482.11264850001317,482.11265909997746,None,482.12862720002886,482.12862720002886,482.12862720002886,,,,,,,,,,,,,,00051,001,2026-01-18_15h58.48.144,MST_task,2024.2.0,60.1334481421908,2026-01-18 15h59.01.144819 +0530,
,Objects\141a.jpg,74,0,75,,,,,,,j,1.0200146999559365,0.20799429999897256,None,,,,,,75,0,74,482.12862720002886,,,,,,,,,,,,,,,,,,,,,,,,,,,,,,482.11276160000125,482.12862720002886,482.612382900028,,,,,,,,,,,,,,482.62901560001774,,,,,,,,,,,,,482.6216202999931,482.62901560001774,482.62901560001774,482.62901560001774,485.6126586999744,j,1.0200146999559365,0.20799429999897256,485.6127035000245,485.6127159000025,None,485.6287217999925,485.6287217999925,485.6287217999925,,,,,,,,,,,,,,00051,001,2026-01-18_15h58.48.144,MST_task,2024.2.0,60.1334481421908,2026-01-18 15h59.01.144819 +0530,
,Objects\119a.jpg,75,0,76,,,,,,,j,2.5750994000118226,0.2719436999759637,None,,,,,,76,0,75,485.6287217999925,,,,,,,,,,,,,,,,,,,,,,,,,,,,,,485.6127908999915,485.6287217999925,486.11259600002086,,,,,,,,,,,,,,486.1293523000204,,,,,,,,,,,,,486.12253470002906,486.1293523000204,486.1293523000204,486.1293523000204,489.11256959999446,j,2.5750994000118226,0.2719436999759637,489.11261329997797,489.1126244000043,None,489.12874070002,489.12874070002,489.12874070002,,,,,,,,,,,,,,00051,001,2026-01-18_15h58.48.144,MST_task,2024.2.0,60.1334481421908,2026-01-18 15h59.01.144819 +0530,
,Objects\133a.jpg,76,0,77,,,,,,,j,1.5713856000220403,0.20798700000159442,None,,,,,,77,0,76,489.12874070002,,,,,,,,,,,,,,,,,,,,,,,,,,,,,,489.11272819997976,489.12874070002,489.6124915999826,,,,,,,,,,,,,,489.62902250001207,,,,,,,,,,,,,489.62262709997594,489.62902250001207,489.62902250001207,489.62902250001207,492.6127801000257,j,1.5713856000220403,0.20798700000159442,492.6128206999856,492.6128316000104,None,492.6286844999995,492.6286844999995,492.6286844999995,,,,,,,,,,,,,,00051,001,2026-01-18_15h58.48.144,MST_task,2024.2.0,60.1334481421908,2026-01-18 15h59.01.144819 +0530,
,Scenes\177a.jpg,77,0,78,,,,,,,j,1.7425297999870963,0.19974530005129054,None,,,,,,78,0,77,492.6286844999995,,,,,,,,,,,,,,,,,,,,,,,,,,,,,,492.612896799983,492.6286844999995,493.11225160001777,,,,,,,,,,,,,,493.13047430000734,,,,,,,,,,,,,493.1280354000046,493.13047430000734,493.13047430000734,493.13047430000734,496.1290345999878,j,1.7425297999870963,0.19974530005129054,496.13099069998134,496.1310129999765,None,,,,,,,,,,,,,,,,,00051,001,2026-01-18_15h58.48.144,MST_task,2024.2.0,60.1334481421908,2026-01-18 15h59.01.144819 +0530,
,Scenes\015a.jpg,78,0,79,,,,,,,j,2.0860712000285275,0.191991199972108,None,,,,,,79,0,78,496.14577950001694,,,,,,,,,,,,,,,,,,,,,,,,,,,,,,496.13109799998347,496.14577950001694,496.62893150001764,,,,,,,,,,,,,,496.6504084999906,,,,,,,,,,,,,496.64802030002465,496.6504084999906,496.6504084999906,496.6504084999906,499.64548429998104,j,2.0860712000285275,0.191991199972108,499.64553029998206,499.6455426000175,None,,,,,,,,,,,,,,,,,00051,001,2026-01-18_15h58.48.144,MST_task,2024.2.0,60.1334481421908,2026-01-18 15h59.01.144819 +0530,
,Scenes\091a.jpg,79,0,80,,,,,,,j,1.094245599990245,0.2090767999761738,None,,,,,,80,0,79,499.66197439999087,,,,,,,,,,,,,,,,,,,,,,,,,,,,,,499.64564000000246,499.66197439999087,500.14547059999313,,,,,,,,,,,,,,500.1625898000202,,,,,,,,,,,,,500.1577904000296,500.1625898000202,500.1625898000202,500.1625898000202,503.1458061999874,j,1.094245599990245,0.2090767999761738,503.14585010003066,503.14586639998015,None,503.16200710000703,503.16200710000703,503.16200710000703,,,,,,,,,,,,,,00051,001,2026-01-18_15h58.48.144,MST_task,2024.2.0,60.1334481421908,2026-01-18 15h59.01.144819 +0530,
,Scenes\153a.jpg,80,0,81,,,,,,,j,1.8263297000085004,0.18409889994654804,None,,,,,,81,0,80,503.16200710000703,,,,,,,,,,,,,,,,,,,,,,,,,,,,,,503.1459700000123,503.16200710000703,503.64533780002967,,,,,,,,,,,,,,503.6626537999837,,,,,,,,,,,,,503.6581721000257,503.6626537999837,503.6626537999837,503.6626537999837,506.6457124000299,j,1.8263297000085004,0.18409889994654804,506.64575229998445,506.6457630000077,None,506.66199019999476,506.66199019999476,506.66199019999476,,,,,,,,,,,,,,00051,001,2026-01-18_15h58.48.144,MST_task,2024.2.0,60.1334481421908,2026-01-18 15h59.01.144819 +0530,
,Scenes\100a.jpg,81,0,82,,,,,,,j,2.1179235000163317,0.21500969998305663,None,,,,,,82,0,81,506.66199019999476,,,,,,,,,,,,,,,,,,,,,,,,,,,,,,506.6458575000288,506.66199019999476,507.1455171999987,,,,,,,,,,,,,,507.1642129999818,,,,,,,,,,,,,507.16178460000083,507.1642129999818,507.1642129999818,507.1642129999818,510.16225649998523,j,2.1179235000163317,0.21500969998305663,510.16229810001096,510.1623100999859,None,,,,,,,,,,,,,,,,,00051,001,2026-01-18_15h58.48.144,MST_task,2024.2.0,60.1334481421908,2026-01-18 15h59.01.144819 +0530,
,Scenes\168a.jpg,82,0,83,,,,,,,j,1.258165899955202,0.23231089999899268,None,,,,,,83,0,82,510.1785937999957,,,,,,,,,,,,,,,,,,,,,,,,,,,,,,510.1624096999876,510.1785937999957,510.6622780999751,,,,,,,,,,,,,,510.679160700005,,,,,,,,,,,,,510.67440810002154,510.679160700005,510.679160700005,510.679160700005,513.6626516000251,j,1.258165899955202,0.23231089999899268,513.6626910999767,513.6627020000014,None,513.6786614999874,513.6786614999874,513.6786614999874,,,,,,,,,,,,,,00051,001,2026-01-18_15h58.48.144,MST_task,2024.2.0,60.1334481421908,2026-01-18 15h59.01.144819 +0530,
,Scenes\160a.jpg,83,0,84,,,,,,,j,0.6625912999734282,0.16665389999980107,None,,,,,,84,0,83,513.6786614999874,,,,,,,,,,,,,,,,,,,,,,,,,,,,,,513.6627683999832,513.6786614999874,514.1623225000221,,,,,,,,,,,,,,514.1792681000079,,,,,,,,,,,,,514.1768497999874,514.1792681000079,514.1792681000079,514.1792681000079,517.1625937999925,j,0.6625912999734282,0.16665389999980107,517.1626369000296,517.1626476999954,None,517.1786569000105,517.1786569000105,517.1786569000105,,,,,,,,,,,,,,00051,001,2026-01-18_15h58.48.144,MST_task,2024.2.0,60.1334481421908,2026-01-18 15h59.01.144819 +0530,
,Objects\118a.jpg,84,0,85,,,,,,,f,1.6252528000040911,0.20875649998197332,None,,,,,,85,0,84,517.1786569000105,,,,,,,,,,,,,,,,,,,,,,,,,,,,,,517.1627494000131,517.1786569000105,517.6624100999907,,,,,,,,,,,,,,517.679200500017,,,,,,,,,,,,,517.674615899974,517.679200500017,517.679200500017,517.679200500017,520.662858799973,f,1.6252528000040911,0.20875649998197332,520.6648748000152,520.6648918000283,None,520.6787038000184,520.6787038000184,520.6787038000184,,,,,,,,,,,,,,00051,001,2026-01-18_15h58.48.144,MST_task,2024.2.0,60.1334481421908,2026-01-18 15h59.01.144819 +0530,
,Objects\116a.jpg,85,0,86,,,,,,,f,1.2781949000200257,0.19300639996072277,None,,,,,,86,0,85,520.6787038000184,,,,,,,,,,,,,,,,,,,,,,,,,,,,,,520.664959900023,520.6787038000184,521.1622950999881,,,,,,,,,,,,,,521.1788971999777,,,,,,,,,,,,,521.1715540000005,521.1788971999777,521.1788971999777,521.1788971999777,524.16283570003,f,1.2781949000200257,0.19300639996072277,524.1628844999941,524.1628954000189,None,524.1787162999972,524.1787162999972,524.1787162999972,,,,,,,,,,,,,,00051,001,2026-01-18_15h58.48.144,MST_task,2024.2.0,60.1334481421908,2026-01-18 15h59.01.144819 +0530,
,Objects\113a.jpg,86,0,87,,,,,,,f,1.9055268000229262,0.20002410002052784,None,,,,,,87,0,86,524.1787162999972,,,,,,,,,,,,,,,,,,,,,,,,,,,,,,524.1630035000271,524.1787162999972,524.6622371000121,,,,,,,,,,,,,,524.6789602999925,,,,,,,,,,,,,524.6735112000024,524.6789602999925,524.6789602999925,524.6789602999925,527.6626379999798,f,1.9055268000229262,0.20002410002052784,527.6626785999979,527.6626897000242,None,527.6786674999748,527.6786674999748,527.6786674999748,,,,,,,,,,,,,,00051,001,2026-01-18_15h58.48.144,MST_task,2024.2.0,60.1334481421908,2026-01-18 15h59.01.144819 +0530,
,Objects\009a.jpg,87,0,88,,,,,,,f,1.7495646000024863,0.20828869997058064,None,,,,,,88,0,87,527.6786674999748,,,,,,,,,,,,,,,,,,,,,,,,,,,,,,527.6627541999915,527.6786674999748,528.1623682000209,,,,,,,,,,,,,,528.1789085000055,,,,,,,,,,,,,528.1719886999927,528.1789085000055,528.1789085000055,528.1789085000055,531.1625979000237,f,1.7495646000024863,0.20828869997058064,531.1626415000064,531.162652399973,None,531.1786601999775,531.1786601999775,531.1786601999775,,,,,,,,,,,,,,00051,001,2026-01-18_15h58.48.144,MST_task,2024.2.0,60.1334481421908,2026-01-18 15h59.01.144819 +0530,
,Objects\034a.jpg,88,0,89,,,,,,,f,1.8261663000448607,0.18400219996692613,None,,,,,,89,0,88,531.1786601999775,,,,,,,,,,,,,,,,,,,,,,,,,,,,,,531.1627165999962,531.1786601999775,531.6624945999938,,,,,,,,,,,,,,531.6789548000088,,,,,,,,,,,,,531.6723543999833,531.6789548000088,531.6789548000088,531.6789548000088,534.6625847999821,f,1.8261663000448607,0.18400219996692613,534.6626261000056,534.6626370000304,None,534.6786606999813,534.6786606999813,534.6786606999813,,,,,,,,,,,,,,00051,001,2026-01-18_15h58.48.144,MST_task,2024.2.0,60.1334481421908,2026-01-18 15h59.01.144819 +0530,
,Objects\112a.jpg,89,0,90,,,,,,,f,1.1020639999769628,0.1926067000022158,None,,,,,,90,0,89,534.6786606999813,,,,,,,,,,,,,,,,,,,,,,,,,,,,,,534.6627312999917,534.6786606999813,535.1623283000081,,,,,,,,,,,,,,535.1789306999999,,,,,,,,,,,,,535.1721446000156,535.1789306999999,535.1789306999999,535.1789306999999,538.1625949000008,f,1.1020639999769628,0.1926067000022158,538.1626353000174,538.162645799981,None,538.1786605999805,538.1786605999805,538.1786605999805,,,,,,,,,,,,,,00051,001,2026-01-18_15h58.48.144,MST_task,2024.2.0,60.1334481421908,2026-01-18 15h59.01.144819 +0530,
,Objects\018a.jpg,90,0,91,,,,,,,f,1.4816201000357978,0.19202039996162057,None,,,,,,91,0,90,538.1786605999805,,,,,,,,,,,,,,,,,,,,,,,,,,,,,,538.1627103000064,538.1786605999805,538.6623343999963,,,,,,,,,,,,,,538.6789038000279,,,,,,,,,,,,,538.6716259000241,538.6789038000279,538.6789038000279,538.6789038000279,541.6626372999744,f,1.4816201000357978,0.19202039996162057,541.6626786999987,541.6626899000257,None,541.6786054000258,541.6786054000258,541.6786054000258,,,,,,,,,,,,,,00051,001,2026-01-18_15h58.48.144,MST_task,2024.2.0,60.1334481421908,2026-01-18 15h59.01.144819 +0530,
,Scenes\011a.jpg,91,0,92,,,,,,,j,1.903241500025615,0.1991402999847196,None,,,,,,92,0,91,541.6786054000258,,,,,,,,,,,,,,,,,,,,,,,,,,,,,,541.66275399999,541.6786054000258,542.162321300013,,,,,,,,,,,,,,542.1861352000269,,,,,,,,,,,,,542.1834708999959,542.1861352000269,542.1861352000269,542.1861352000269,545.1788798000198,j,1.903241500025615,0.1991402999847196,545.1805527000106,545.1805735999951,None,,,,,,,,,,,,,,,,,00051,001,2026-01-18_15h58.48.144,MST_task,2024.2.0,60.1334481421908,2026-01-18 15h59.01.144819 +0530,
,Scenes\170a.jpg,92,0,93,,,,,,,j,1.7637238000170328,0.19229939999058843,None,,,,,,93,0,92,545.1952567999833,,,,,,,,,,,,,,,,,,,,,,,,,,,,,,545.1806913000182,545.1952567999833,545.6789320000098,,,,,,,,,,,,,,545.7013555000303,,,,,,,,,,,,,545.6987169000204,545.7013555000303,545.7013555000303,545.7013555000303,548.6954421999981,j,1.7637238000170328,0.19229939999058843,548.6954926999751,548.6955045000068,None,,,,,,,,,,,,,,,,,00051,001,2026-01-18_15h58.48.144,MST_task,2024.2.0,60.1334481421908,2026-01-18 15h59.01.144819 +0530,
,Scenes\009a.jpg,93,0,94,,,,,,,f,1.6903862999752164,0.19195970002328977,None,,,,,,94,0,93,548.7119615999982,,,,,,,,,,,,,,,,,,,,,,,,,,,,,,548.695574900019,548.7119615999982,549.195531299978,,,,,,,,,,,,,,549.2145004000049,,,,,,,,,,,,,549.2119950000197,549.2145004000049,549.2145004000049,549.2145004000049,552.2122131999931,f,1.6903862999752164,0.19195970002328977,552.2122577999835,552.2122698000167,None,,,,,,,,,,,,,,,,,00051,001,2026-01-18_15h58.48.144,MST_task,2024.2.0,60.1334481421908,2026-01-18 15h59.01.144819 +0530,
,Scenes\003a.jpg,94,0,95,,,,,,,f,1.244157500041183,0.1990982999559492,None,,,,,,95,0,94,552.2286441000178,,,,,,,,,,,,,,,,,,,,,,,,,,,,,,552.2123395000235,552.2286441000178,552.7122590999934,,,,,,,,,,,,,,552.7331393000204,,,,,,,,,,,,,552.7306556000258,552.7331393000204,552.7331393000204,552.7331393000204,555.7123710999731,f,1.244157500041183,0.1990982999559492,555.7124141000095,555.7124263999867,None,,,,,,,,,,,,,,,,,00051,001,2026-01-18_15h58.48.144,MST_task,2024.2.0,60.1334481421908,2026-01-18 15h59.01.144819 +0530,
,Scenes\059a.jpg,95,0,96,,,,,,,j,1.3698149000410922,0.19128849997650832,None,,,,,,96,0,95,555.7286919999751,,,,,,,,,,,,,,,,,,,,,,,,,,,,,,555.7125241999747,555.7286919999751,556.2123633000301,,,,,,,,,,,,,,556.2318556000246,,,,,,,,,,,,,556.2295175999752,556.2318556000246,556.2318556000246,556.2318556000246,559.2125378000201,j,1.3698149000410922,0.19128849997650832,559.2125788999838,559.2125908000162,None,,,,,,,,,,,,,,,,,00051,001,2026-01-18_15h58.48.144,MST_task,2024.2.0,60.1334481421908,2026-01-18 15h59.01.144819 +0530,
,Scenes\142a.jpg,96,0,97,,,,,,,j,1.8856220000307076,0.1997556000133045,None,,,,,,97,0,96,559.2287792999996,,,,,,,,,,,,,,,,,,,,,,,,,,,,,,559.2126897000126,559.2287792999996,559.7125135000097,,,,,,,,,,,,,,559.7318899999955,,,,,,,,,,,,,559.7293550000177,559.7318899999955,559.7318899999955,559.7318899999955,562.7290715000127,j,1.8856220000307076,0.1997556000133045,562.7291127999779,562.7291247000103,None,,,,,,,,,,,,,,,,,00051,001,2026-01-18_15h58.48.144,MST_task,2024.2.0,60.1334481421908,2026-01-18 15h59.01.144819 +0530,
,Scenes\080a.jpg,97,0,98,,,,,,,j,1.0346650999854319,0.20000310003524646,None,,,,,,98,0,97,562.7453161000158,,,,,,,,,,,,,,,,,,,,,,,,,,,,,,562.7292336000246,562.7453161000158,563.2290859000059,,,,,,,,,,,,,,563.2457996000303,,,,,,,,,,,,,563.2434167999891,563.2457996000303,563.2457996000303,563.2457996000303,566.2293547000154,j,1.0346650999854319,0.20000310003524646,566.2293956999783,566.2294064000016,None,566.2455627000309,566.2455627000309,566.2455627000309,,,,,,,,,,,,,,00051,001,2026-01-18_15h58.48.144,MST_task,2024.2.0,60.1334481421908,2026-01-18 15h59.01.144819 +0530,
,Objects\063a.jpg,98,0,99,,,,,,,f,2.2712576999911107,0.20001410000259057,None,,,,,,99,0,98,566.2455627000309,,,,,,,,,,,,,,,,,,,,,,,,,,,,,,566.2295004000189,566.2455627000309,566.7290782000055,,,,,,,,,,,,,,566.7457838000264,,,,,,,,,,,,,566.7413070999901,566.7457838000264,566.7457838000264,566.7457838000264,569.7295593000017,f,2.2712576999911107,0.20001410000259057,569.731600900006,569.7316189000267,None,569.7453663999913,569.7453663999913,569.7453663999913,,,,,,,,,,,,,,00051,001,2026-01-18_15h58.48.144,MST_task,2024.2.0,60.1334481421908,2026-01-18 15h59.01.144819 +0530,
,Objects\072a.jpg,99,0,100,,,,,,,f,1.5876114999991842,0.19135500001721084,None,,,,,,100,0,99,569.7453663999913,,,,,,,,,,,,,,,,,,,,,,,,,,,,,,569.7317195999785,569.7453663999913,570.229057700024,,,,,,,,,,,,,,570.2456349999993,,,,,,,,,,,,,570.2387751999777,570.2456349999993,570.2456349999993,570.2456349999993,573.2295950999833,f,1.5876114999991842,0.19135500001721084,573.2296607000171,573.2296727999928,None,573.2453760000062,573.2453760000062,573.2453760000062,,,,,,,,,,,,,,00051,001,2026-01-18_15h58.48.144,MST_task,2024.2.0,60.1334481421908,2026-01-18 15h59.01.144819 +0530,
,Objects\088a.jpg,100,0,101,,,,,,,j,2.247337000037078,0.18409140000585467,None,,,,,,101,0,100,573.2453760000062,,,,,,,,,,,,,,,,,,,,,,,,,,,,,,573.2297416999936,573.2453760000062,573.7290632000077,,,,,,,,,,,,,,573.7454249000293,,,,,,,,,,,,,573.7416184999747,573.7454249000293,573.7454249000293,573.7454249000293,576.7292943000211,j,2.247337000037078,0.18409140000585467,576.7293371999986,576.7293481000233,None,576.745497099997,576.745497099997,576.745497099997,,,,,,,,,,,,,,00051,001,2026-01-18_15h58.48.144,MST_task,2024.2.0,60.1334481421908,2026-01-18 15h59.01.144819 +0530,
,Objects\101a.jpg,101,0,102,,,,,,,f,2.275895999977365,0.1908934999955818,None,,,,,,102,0,101,576.745497099997,,,,,,,,,,,,,,,,,,,,,,,,,,,,,,576.7294428999885,576.745497099997,577.2289988999837,,,,,,,,,,,,,,577.2456354000024,,,,,,,,,,,,,577.2381601000088,577.2456354000024,577.2456354000024,577.2456354000024,580.2294087000191,f,2.275895999977365,0.1908934999955818,580.2294525000034,580.2294635000289,None,580.2452137999935,580.2452137999935,580.2452137999935,,,,,,,,,,,,,,00051,001,2026-01-18_15h58.48.144,MST_task,2024.2.0,60.1334481421908,2026-01-18 15h59.01.144819 +0530,
,Objects\019a.jpg,102,0,103,,,,,,,j,2.3751979999942705,0.19985879998421296,None,,,,,,103,0,102,580.2452137999935,,,,,,,,,,,,,,,,,,,,,,,,,,,,,,580.229530600016,580.2452137999935,580.7289736000239,,,,,,,,,,,,,,580.7456001000246,,,,,,,,,,,,,580.7385706999921,580.7456001000246,580.7456001000246,580.7456001000246,583.7291423000279,j,2.3751979999942705,0.19985879998421296,583.7291864000144,583.7291977999848,None,583.7452249000198,583.7452249000198,583.7452249000198,,,,,,,,,,,,,,00051,001,2026-01-18_15h58.48.144,MST_task,2024.2.0,60.1334481421908,2026-01-18 15h59.01.144819 +0530,
,Objects\165a.jpg,103,0,104,,,,,,,f,1.2517574000521563,0.20000339997932315,None,,,,,,104,0,103,583.7452249000198,,,,,,,,,,,,,,,,,,,,,,,,,,,,,,583.7292636000202,583.7452249000198,584.2289198000217,,,,,,,,,,,,,,584.2455299000139,,,,,,,,,,,,,584.2406185999862,584.2455299000139,584.2455299000139,584.2455299000139,587.2293345999788,f,1.2517574000521563,0.20000339997932315,587.2293759000022,587.2293866000255,None,587.2451823999872,587.2451823999872,587.2451823999872,,,,,,,,,,,,,,00051,001,2026-01-18_15h58.48.144,MST_task,2024.2.0,60.1334481421908,2026-01-18 15h59.01.144819 +0530,
,Objects\029a.jpg,104,0,105,,,,,,,f,1.2957116000470705,0.18369189999066293,None,,,,,,105,0,104,587.2451823999872,,,,,,,,,,,,,,,,,,,,,,,,,,,,,,587.2294825999998,587.2451823999872,587.7288833999773,,,,,,,,,,,,,,587.7455190999899,,,,,,,,,,,,,587.7398425000138,587.7455190999899,587.7455190999899,587.7455190999899,590.7292861000169,f,1.2957116000470705,0.18369189999066293,590.7293262999738,590.7293374000001,None,590.7452216999955,590.7452216999955,590.7452216999955,,,,,,,,,,,,,,00051,001,2026-01-18_15h58.48.144,MST_task,2024.2.0,60.1334481421908,2026-01-18 15h59.01.144819 +0530,
,Scenes\116a.jpg,105,0,106,,,,,,,j,1.3865541000268422,0.17591059999540448,None,,,,,,106,0,105,590.7452216999955,,,,,,,,,,,,,,,,,,,,,,,,,,,,,,590.7294316000189,590.7452216999955,591.22897440003,,,,,,,,,,,,,,591.2459705999936,,,,,,,,,,,,,591.2434831000282,591.2459705999936,591.2459705999936,591.2459705999936,594.2292702000123,j,1.3865541000268422,0.17591059999540448,594.2309070000192,594.2309245999786,None,594.2451866000192,594.2451866000192,594.2451866000192,,,,,,,,,,,,,,00051,001,2026-01-18_15h58.48.144,MST_task,2024.2.0,60.1334481421908,2026-01-18 15h59.01.144819 +0530,
,Scenes\145a.jpg,106,0,107,,,,,,,j,1.044106199988164,0.17599870002595708,None,,,,,,107,0,106,594.2451866000192,,,,,,,,,,,,,,,,,,,,,,,,,,,,,,594.2310269000009,594.2451866000192,594.7290399000049,,,,,,,,,,,,,,594.7485997999902,,,,,,,,,,,,,594.7459950000048,594.7485997999902,594.7485997999902,594.7485997999902,597.7455341999885,j,1.044106199988164,0.17599870002595708,597.7455801999895,597.7455922000227,None,,,,,,,,,,,,,,,,,00051,001,2026-01-18_15h58.48.144,MST_task,2024.2.0,60.1334481421908,2026-01-18 15h59.01.144819 +0530,
,Scenes\117a.jpg,107,0,108,,,,,,,j,0.9870974000077695,0.19908789999317378,None,,,,,,108,0,107,597.7619646000094,,,,,,,,,,,,,,,,,,,,,,,,,,,,,,597.7457026999909,597.7619646000094,598.2455414999858,,,,,,,,,,,,,,598.2626500999904,,,,,,,,,,,,,598.2577593000024,598.2626500999904,598.2626500999904,598.2626500999904,601.245909099991,j,0.9870974000077695,0.19908789999317378,601.2459507000167,601.2459624999901,None,601.2620060999761,601.2620060999761,601.2620060999761,,,,,,,,,,,,,,00051,001,2026-01-18_15h58.48.144,MST_task,2024.2.0,60.1334481421908,2026-01-18 15h59.01.144819 +0530,
,Scenes\161a.jpg,108,0,109,,,,,,,j,0.8116078000166453,0.19137409998802468,None,,,,,,109,0,108,601.2620060999761,,,,,,,,,,,,,,,,,,,,,,,,,,,,,,601.246059200028,601.2620060999761,601.7455407999805,,,,,,,,,,,,,,601.765416899987,,,,,,,,,,,,,601.7628210000112,601.765416899987,601.765416899987,601.765416899987,604.7623488000245,j,0.8116078000166453,0.19137409998802468,604.7623966999818,604.7624094000203,None,,,,,,,,,,,,,,,,,00051,001,2026-01-18_15h58.48.144,MST_task,2024.2.0,60.1334481421908,2026-01-18 15h59.01.144819 +0530,
,Scenes\119a.jpg,109,0,110,,,,,,,j,1.1123074000352062,0.20698759995866567,None,,,,,,110,0,109,604.7786932999734,,,,,,,,,,,,,,,,,,,,,,,,,,,,,,604.7626098999754,604.7786932999734,605.2622351999744,,,,,,,,,,,,,,605.2812484999886,,,,,,,,,,,,,605.2786980000092,605.2812484999886,605.2812484999886,605.2812484999886,608.278930200031,j,1.1123074000352062,0.20698759995866567,608.2789704999886,608.2789821000188,None,,,,,,,,,,,,,,,,,00051,001,2026-01-18_15h58.48.144,MST_task,2024.2.0,60.1334481421908,2026-01-18 15h59.01.144819 +0530,
,Scenes\046a.jpg,110,0,111,,,,,,,j,0.9591293999692425,0.19199710001703352,None,,,,,,111,0,110,608.2951973999734,,,,,,,,,,,,,,,,,,,,,,,,,,,,,,608.2790922999848,608.2951973999734,608.7790959000122,,,,,,,,,,,,,,608.8013308999944,,,,,,,,,,,,,608.7989740999765,608.8013308999944,608.8013308999944,608.8013308999944,611.7954022000195,j,0.9591293999692425,0.19199710001703352,611.7954490000266,611.795461200003,None,,,,,,,,,,,,,,,,,00051,001,2026-01-18_15h58.48.144,MST_task,2024.2.0,60.1334481421908,2026-01-18 15h59.01.144819 +0530,
,Scenes\066a.jpg,111,0,112,,,,,,,j,0.9998210000339895,0.19996130000799894,None,,,,,,112,0,111,611.8119947999949,,,,,,,,,,,,,,,,,,,,,,,,,,,,,,611.7955691000097,611.8119947999949,612.2954349999782,,,,,,,,,,,,,,612.3126396000152,,,,,,,,,,,,,612.3060467999894,612.3126396000152,612.3126396000152,612.3126396000152,615.2958027999848,j,0.9998210000339895,0.19996130000799894,615.2958432000014,615.2958540000254,None,615.3120241999859,615.3120241999859,615.3120241999859,,,,,,,,,,,,,,00051,001,2026-01-18_15h58.48.144,MST_task,2024.2.0,60.1334481421908,2026-01-18 15h59.01.144819 +0530,
,Objects\098a.jpg,112,0,113,,,,,,,f,1.2766201000194997,0.19200009998166934,None,,,,,,113,0,112,615.3120241999859,,,,,,,,,,,,,,,,,,,,,,,,,,,,,,615.2959508000058,615.3120241999859,615.7954512999859,,,,,,,,,,,,,,615.8124126999755,,,,,,,,,,,,,615.8069759000209,615.8124126999755,615.8124126999755,615.8124126999755,618.7963260000106,f,1.2766201000194997,0.19200009998166934,618.7983769000275,618.7983937999816,None,618.8120801000041,618.8120801000041,618.8120801000041,,,,,,,,,,,,,,00051,001,2026-01-18_15h58.48.144,MST_task,2024.2.0,60.1334481421908,2026-01-18 15h59.01.144819 +0530,
,Objects\011a.jpg,113,0,114,,,,,,,f,1.832357699982822,0.20821240002987906,None,,,,,,114,0,113,618.8120801000041,,,,,,,,,,,,,,,,,,,,,,,,,,,,,,618.7984969000099,618.8120801000041,619.2954368999926,,,,,,,,,,,,,,619.3121908999747,,,,,,,,,,,,,619.3047283000196,619.3121908999747,619.3121908999747,619.3121908999747,622.2957749000052,f,1.832357699982822,0.20821240002987906,622.295817199978,622.2958286000066,None,622.3120371000259,622.3120371000259,622.3120371000259,,,,,,,,,,,,,,00051,001,2026-01-18_15h58.48.144,MST_task,2024.2.0,60.1334481421908,2026-01-18 15h59.01.144819 +0530,
,Objects\184a.jpg,114,0,115,,,,,,,j,2.308769700000994,0.1841290000011213,None,,,,,,115,0,114,622.3120371000259,,,,,,,,,,,,,,,,,,,,,,,,,,,,,,622.2958947999869,622.3120371000259,622.7954848000081,,,,,,,,,,,,,,622.812262899999,,,,,,,,,,,,,622.8046697999816,622.812262899999,622.812262899999,622.812262899999,625.7958486999851,j,2.308769700000994,0.1841290000011213,625.7959045000025,625.7959165999782,None,625.8120328999939,625.8120328999939,625.8120328999939,,,,,,,,,,,,,,00051,001,2026-01-18_15h58.48.144,MST_task,2024.2.0,60.1334481421908,2026-01-18 15h59.01.144819 +0530,
,Objects\013a.jpg,115,0,116,,,,,,,j,2.3286871999735013,0.1680033000302501,None,,,,,,116,0,115,625.8120328999939,,,,,,,,,,,,,,,,,,,,,,,,,,,,,,625.7960148000275,625.8120328999939,626.2956242000218,,,,,,,,,,,,,,626.3123228999902,,,,,,,,,,,,,626.3052274999791,626.3123228999902,626.3123228999902,626.3123228999902,629.2959988000221,j,2.3286871999735013,0.1680033000302501,629.2960457000299,629.2960564999958,None,629.3121844999841,629.3121844999841,629.3121844999841,,,,,,,,,,,,,,00051,001,2026-01-18_15h58.48.144,MST_task,2024.2.0,60.1334481421908,2026-01-18 15h59.01.144819 +0530,
,Objects\155a.jpg,116,0,117,,,,,,,f,2.0043105999939144,0.17599419999169186,None,,,,,,117,0,116,629.3121844999841,,,,,,,,,,,,,,,,,,,,,,,,,,,,,,629.2961262000026,629.3121844999841,629.7954660999821,,,,,,,,,,,,,,629.8122906999779,,,,,,,,,,,,,629.8053340999759,629.8122906999779,629.8122906999779,629.8122906999779,632.7957798999851,f,2.0043105999939144,0.17599419999169186,632.7958240000298,632.7958352999995,None,632.8119513000129,632.8119513000129,632.8119513000129,,,,,,,,,,,,,,00051,001,2026-01-18_15h58.48.144,MST_task,2024.2.0,60.1334481421908,2026-01-18 15h59.01.144819 +0530,
,Objects\027a.jpg,117,0,118,,,,,,,f,0.9362150999950245,0.19255440001143143,None,,,,,,118,0,117,632.8119513000129,,,,,,,,,,,,,,,,,,,,,,,,,,,,,,632.7959324999829,632.8119513000129,633.2955371999997,,,,,,,,,,,,,,633.3122673999751,,,,,,,,,,,,,633.3050671999808,633.3122673999751,633.3122673999751,633.3122673999751,636.2960355000105,f,0.9362150999950245,0.19255440001143143,636.2960789999925,636.2960899000173,None,636.3120333999977,636.3120333999977,636.3120333999977,,,,,,,,,,,,,,00051,001,2026-01-18_15h58.48.144,MST_task,2024.2.0,60.1334481421908,2026-01-18 15h59.01.144819 +0530,
,Objects\120a.jpg,118,0,119,,,,,,,f,1.556281899975147,0.20861950004473329,None,,,,,,119,0,118,636.3120333999977,,,,,,,,,,,,,,,,,,,,,,,,,,,,,,636.2961559999967,636.3120333999977,636.795551999996,,,,,,,,,,,,,,636.8122669000295,,,,,,,,,,,,,636.8044899000088,636.8122669000295,636.8122669000295,636.8122669000295,639.7959920000285,f,1.556281899975147,0.20861950004473329,639.7960383999743,639.7960496000014,None,639.8119509000098,639.8119509000098,639.8119509000098,,,,,,,,,,,,,,00051,001,2026-01-18_15h58.48.144,MST_task,2024.2.0,60.1334481421908,2026-01-18 15h59.01.144819 +0530,
,Scenes\050a.jpg,119,0,120,,,,,,,j,1.3432031000265852,0.19890829996438697,None,,,,,,120,0,119,639.8119509000098,,,,,,,,,,,,,,,,,,,,,,,,,,,,,,639.7961146000307,639.8119509000098,640.2955265999772,,,,,,,,,,,,,,640.3144010999822,,,,,,,,,,,,,640.3119919999735,640.3144010999822,640.3144010999822,640.3144010999822,643.3122770999908,j,1.3432031000265852,0.19890829996438697,643.3140652999864,643.314086599974,None,,,,,,,,,,,,,,,,,00051,001,2026-01-18_15h58.48.144,MST_task,2024.2.0,60.1334481421908,2026-01-18 15h59.01.144819 +0530,
,Scenes\087a.jpg,120,0,121,,,,,,,j,1.0760964000364766,0.17529290000675246,None,,,,,,121,0,120,643.3286782000214,,,,,,,,,,,,,,,,,,,,,,,,,,,,,,643.314203499991,643.3286782000214,643.8123795000138,,,,,,,,,,,,,,643.8292325999937,,,,,,,,,,,,,643.8260865000193,643.8292325999937,643.8292325999937,643.8292325999937,646.8124811000307,j,1.0760964000364766,0.17529290000675246,646.8125205999822,646.8125312000047,None,646.8286907000002,646.8286907000002,646.8286907000002,,,,,,,,,,,,,,00051,001,2026-01-18_15h58.48.144,MST_task,2024.2.0,60.1334481421908,2026-01-18 15h59.01.144819 +0530,
,Scenes\190a.jpg,121,0,122,,,,,,,j,0.866590499994345,0.19184169999789447,None,,,,,,122,0,121,646.8286907000002,,,,,,,,,,,,,,,,,,,,,,,,,,,,,,646.8125956000295,646.8286907000002,647.3121965000173,,,,,,,,,,,,,,647.3341266000061,,,,,,,,,,,,,647.3315391999786,647.3341266000061,647.3341266000061,647.3341266000061,650.3289631999796,j,0.866590499994345,0.19184169999789447,650.3290081000305,650.3290205000085,None,,,,,,,,,,,,,,,,,00051,001,2026-01-18_15h58.48.144,MST_task,2024.2.0,60.1334481421908,2026-01-18 15h59.01.144819 +0530,
,Scenes\052a.jpg,122,0,123,,,,,,,None,,,j,1.355407600000035,None,,,,123,0,122,650.3452592000249,,,,,,,,,,,,,,,,,,,,,,,,,,,,,,650.3290875999955,650.3452592000249,650.8289019999793,,,,,,,,,,,,,,650.8474335999927,,,,,,,,,,,,,650.8450405999902,650.8474335999927,650.8474335999927,650.8474335999927,653.8454291999806,None,,,653.8454680999857,655.2290576000232,j,,,,653.8620375000173,653.8620375000173,1.355407600000035,None,,,,,,,,,,00051,001,2026-01-18_15h58.48.144,MST_task,2024.2.0,60.1334481421908,2026-01-18 15h59.01.144819 +0530,
,Scenes\067a.jpg,123,0,124,,,,,,,f,1.1567374999867752,0.239648999995552,None,,,,,,124,0,123,655.2451884999755,,,,,,,,,,,,,,,,,,,,,,,,,,,,,,655.2291432999773,655.2451884999755,655.729076699994,,,,,,,,,,,,,,655.7483263000031,,,,,,,,,,,,,655.7459650000092,655.7483263000031,655.7483263000031,655.7483263000031,658.7455078000203,f,1.1567374999867752,0.239648999995552,658.7455555999768,658.7455687000183,None,,,,,,,,,,,,,,,,,00051,001,2026-01-18_15h58.48.144,MST_task,2024.2.0,60.1334481421908,2026-01-18 15h59.01.144819 +0530,
,Scenes\169a.jpg,124,0,125,,,,,,,j,0.9949494999600574,0.19928700005402789,None,,,,,,125,0,124,658.7620260000112,,,,,,,,,,,,,,,,,,,,,,,,,,,,,,658.7456710999832,658.7620260000112,659.245457699988,,,,,,,,,,,,,,659.2623087000102,,,,,,,,,,,,,659.2578280000016,659.2623087000102,659.2623087000102,659.2623087000102,662.2458399999887,j,0.9949494999600574,0.19928700005402789,662.2458830000251,662.2458940999932,None,662.2620439999737,662.2620439999737,662.2620439999737,,,,,,,,,,,,,,00051,001,2026-01-18_15h58.48.144,MST_task,2024.2.0,60.1334481421908,2026-01-18 15h59.01.144819 +0530,
,Scenes\070a.jpg,125,0,126,,,,,,,j,1.764115599973593,0.17608430003747344,None,,,,,,126,0,125,662.2620439999737,,,,,,,,,,,,,,,,,,,,,,,,,,,,,,662.2459600000293,662.2620439999737,662.7455653999932,,,,,,,,,,,,,,662.7651863999781,,,,,,,,,,,,,662.7627946999855,662.7651863999781,662.7651863999781,662.7651863999781,665.7623408000218,j,1.764115599973593,0.17608430003747344,665.7623919000034,665.762409500021,None,,,,,,,,,,,,,,,,,00051,001,2026-01-18_15h58.48.144,MST_task,2024.2.0,60.1334481421908,2026-01-18 15h59.01.144819 +0530,
,Objects\122a.jpg,126,0,127,,,,,,,f,1.5857483000145294,0.2239625999936834,None,,,,,,127,0,126,665.7787567999912,,,,,,,,,,,,,,,,,,,,,,,,,,,,,,665.7625309000141,665.7787567999912,666.2622749999864,,,,,,,,,,,,,,666.2792022000067,,,,,,,,,,,,,666.2757179000182,666.2792022000067,666.2792022000067,666.2792022000067,669.2629975000164,f,1.5857483000145294,0.2239625999936834,669.2651875999873,669.2652066000155,None,669.2787491999916,669.2787491999916,669.2787491999916,,,,,,,,,,,,,,00051,001,2026-01-18_15h58.48.144,MST_task,2024.2.0,60.1334481421908,2026-01-18 15h59.01.144819 +0530,
,Objects\004a.jpg,127,0,128,,,,,,,f,2.046422599989455,0.2319914000108838,None,,,,,,128,0,127,669.2787491999916,,,,,,,,,,,,,,,,,,,,,,,,,,,,,,669.2652797999908,669.2787491999916,669.7622667999822,,,,,,,,,,,,,,669.7788936999859,,,,,,,,,,,,,669.7712458000169,669.7788936999859,669.7788936999859,669.7788936999859,672.7625772000174,f,2.046422599989455,0.2319914000108838,672.7626240000245,672.7626350999926,None,672.7786273999955,672.7786273999955,672.7786273999955,,,,,,,,,,,,,,00051,001,2026-01-18_15h58.48.144,MST_task,2024.2.0,60.1334481421908,2026-01-18 15h59.01.144819 +0530,
,Objects\082a.jpg,128,0,129,,,,,,,j,1.329850299982354,0.17625620000762865,None,,,,,,129,0,128,672.7786273999955,,,,,,,,,,,,,,,,,,,,,,,,,,,,,,672.7626997000189,672.7786273999955,673.2623958999757,,,,,,,,,,,,,,673.2791256000055,,,,,,,,,,,,,673.2725072000176,673.2791256000055,673.2791256000055,673.2791256000055,676.2625788000296,j,1.329850299982354,0.17625620000762865,676.2626202999963,676.2626310000196,None,676.2788270000019,676.2788270000019,676.2788270000019,,,,,,,,,,,,,,00051,001,2026-01-18_15h58.48.144,MST_task,2024.2.0,60.1334481421908,2026-01-18 15h59.01.144819 +0530,
,Objects\152a.jpg,129,0,130,,,,,,,j,1.8301708999788389,0.1833065000246279,None,,,,,,130,0,129,676.2788270000019,,,,,,,,,,,,,,,,,,,,,,,,,,,,,,676.2627291000099,676.2788270000019,676.7624149000039,,,,,,,,,,,,,,676.7791297999793,,,,,,,,,,,,,676.7725872999872,676.7791297999793,676.7791297999793,676.7791297999793,679.7628949999926,j,1.8301708999788389,0.1833065000246279,679.7629439000157,679.7629567999975,None,679.7788661000086,679.7788661000086,679.7788661000086,,,,,,,,,,,,,,00051,001,2026-01-18_15h58.48.144,MST_task,2024.2.0,60.1334481421908,2026-01-18 15h59.01.144819 +0530,
,Objects\021a.jpg,130,0,131,,,,,,,j,1.9941481000278145,0.1839936999604106,None,,,,,,131,0,130,679.7788661000086,,,,,,,,,,,,,,,,,,,,,,,,,,,,,,679.7630788999959,679.7788661000086,680.2624840000062,,,,,,,,,,,,,,680.2791202000226,,,,,,,,,,,,,680.2713328999816,680.2791202000226,680.2791202000226,680.2791202000226,683.2627363000065,j,1.9941481000278145,0.1839936999604106,683.2627953999909,683.2628063000157,None,683.2788986000232,683.2788986000232,683.2788986000232,,,,,,,,,,,,,,00051,001,2026-01-18_15h58.48.144,MST_task,2024.2.0,60.1334481421908,2026-01-18 15h59.01.144819 +0530,
,Objects\008a.jpg,131,0,132,,,,,,,f,1.2780785000068136,0.2079465000424534,None,,,,,,132,0,131,683.2788986000232,,,,,,,,,,,,,,,,,,,,,,,,,,,,,,683.2628740000073,683.2788986000232,683.7622976999846,,,,,,,,,,,,,,683.7790340000065,,,,,,,,,,,,,683.771515200031,683.7790340000065,683.7790340000065,683.7790340000065,686.7627521000104,f,1.2780785000068136,0.2079465000424534,686.7628081000294,686.7628192999982,None,686.7787752000149,686.7787752000149,686.7787752000149,,,,,,,,,,,,,,00051,001,2026-01-18_15h58.48.144,MST_task,2024.2.0,60.1334481421908,2026-01-18 15h59.01.144819 +0530,
,Objects\005a.jpg,132,0,133,,,,,,,f,1.4744989000028,0.19931080000242218,None,,,,,,133,0,132,686.7787752000149,,,,,,,,,,,,,,,,,,,,,,,,,,,,,,686.7629264999996,686.7787752000149,687.2624066999997,,,,,,,,,,,,,,687.2790349000134,,,,,,,,,,,,,687.2719054999761,687.2790349000134,687.2790349000134,687.2790349000134,690.2627116999938,f,1.4744989000028,0.19931080000242218,690.2627543000272,690.262765499996,None,690.2787188999937,690.2787188999937,690.2787188999937,,,,,,,,,,,,,,00051,001,2026-01-18_15h58.48.144,MST_task,2024.2.0,60.1334481421908,2026-01-18 15h59.01.144819 +0530,
,Scenes\192a.jpg,133,0,134,,,,,,,j,1.8052727000322193,0.20000319997780025,None,,,,,,134,0,133,690.2787188999937,,,,,,,,,,,,,,,,,,,,,,,,,,,,,,690.2628615000285,690.2787188999937,690.7623500999762,,,,,,,,,,,,,,690.7798188999877,,,,,,,,,,,,,690.7773517000023,690.7798188999877,690.7798188999877,690.7798188999877,693.7626002000179,j,1.8052727000322193,0.20000319997780025,693.7641899000155,693.7642076999764,None,693.7788232999737,693.7788232999737,693.7788232999737,,,,,,,,,,,,,,00051,001,2026-01-18_15h58.48.144,MST_task,2024.2.0,60.1334481421908,2026-01-18 15h59.01.144819 +0530,
,Scenes\167a.jpg,134,0,135,,,,,,,f,1.2787780999788083,0.18299840000690892,None,,,,,,135,0,134,693.7788232999737,,,,,,,,,,,,,,,,,,,,,,,,,,,,,,693.764277099981,693.7788232999737,694.2623937000171,,,,,,,,,,,,,,694.2827465999871,,,,,,,,,,,,,694.2802588000195,694.2827465999871,694.2827465999871,694.2827465999871,697.2790187000064,f,1.2787780999788083,0.18299840000690892,697.2790614999831,697.2790735000162,None,,,,,,,,,,,,,,,,,00051,001,2026-01-18_15h58.48.144,MST_task,2024.2.0,60.1334481421908,2026-01-18 15h59.01.144819 +0530,
,Scenes\182a.jpg,135,0,136,,,,,,,f,2.204880499979481,0.1999989000032656,None,,,,,,136,0,135,697.2953818999813,,,,,,,,,,,,,,,,,,,,,,,,,,,,,,697.2791716000065,697.2953818999813,697.7790225999779,,,,,,,,,,,,,,697.7963249000022,,,,,,,,,,,,,697.7937780999928,697.7963249000022,697.7963249000022,697.7963249000022,700.7796532000066,f,2.204880499979481,0.1999989000032656,700.7797009000205,700.7797124999925,None,700.7955220000003,700.7955220000003,700.7955220000003,,,,,,,,,,,,,,00051,001,2026-01-18_15h58.48.144,MST_task,2024.2.0,60.1334481421908,2026-01-18 15h59.01.144819 +0530,
,Scenes\159a.jpg,136,0,137,,,,,,,j,1.2846876999828964,0.19200000003911555,None,,,,,,137,0,136,700.7955220000003,,,,,,,,,,,,,,,,,,,,,,,,,,,,,,700.779781499994,700.7955220000003,701.2790510000195,,,,,,,,,,,,,,701.2998685999773,,,,,,,,,,,,,701.2973091999884,701.2998685999773,701.2998685999773,701.2998685999773,704.2957674000063,j,1.2846876999828964,0.19200000003911555,704.2958113999921,704.2958238000283,None,,,,,,,,,,,,,,,,,00051,001,2026-01-18_15h58.48.144,MST_task,2024.2.0,60.1334481421908,2026-01-18 15h59.01.144819 +0530,
,Scenes\039a.jpg,137,0,138,,,,,,,j,1.3002098000142723,0.19979719998082146,None,,,,,,138,0,137,704.3120908000274,,,,,,,,,,,,,,,,,,,,,,,,,,,,,,704.2959356000065,704.3120908000274,704.7957535000169,,,,,,,,,,,,,,704.8127544000163,,,,,,,,,,,,,704.808217999991,704.8127544000163,704.8127544000163,704.8127544000163,707.7959450000199,j,1.3002098000142723,0.19979719998082146,707.7959865999874,707.7959983000183,None,707.8121732000145,707.8121732000145,707.8121732000145,,,,,,,,,,,,,,00051,001,2026-01-18_15h58.48.144,MST_task,2024.2.0,60.1334481421908,2026-01-18 15h59.01.144819 +0530,
,Scenes\065a.jpg,138,0,139,,,,,,,j,1.0545085000339895,0.16000269999494776,None,,,,,,139,0,138,707.8121732000145,,,,,,,,,,,,,,,,,,,,,,,,,,,,,,707.7960947999964,707.8121732000145,708.2956720999791,,,,,,,,,,,,,,708.3140706000268,,,,,,,,,,,,,708.3118231000262,708.3140706000268,708.3140706000268,708.3140706000268,711.3123663000297,j,1.0545085000339895,0.16000269999494776,711.31241090002,711.3124223999912,None,,,,,,,,,,,,,,,,,00051,001,2026-01-18_15h58.48.144,MST_task,2024.2.0,60.1334481421908,2026-01-18 15h59.01.144819 +0530,
,Scenes\174a.jpg,139,0,140,,,,,,,j,2.000542299996596,0.199998099997174,None,,,,,,140,0,139,711.3288232000195,,,,,,,,,,,,,,,,,,,,,,,,,,,,,,711.3125245000119,711.3288232000195,711.8123762999894,,,,,,,,,,,,,,711.8321470000083,,,,,,,,,,,,,711.8297137999907,711.8321470000083,711.8321470000083,711.8321470000083,714.8290279000066,j,2.000542299996596,0.199998099997174,714.8290677000186,714.829079099989,None,,,,,,,,,,,,,,,,,00051,001,2026-01-18_15h58.48.144,MST_task,2024.2.0,60.1334481421908,2026-01-18 15h59.01.144819 +0530,
,Objects\070a.jpg,140,0,141,,,,,,,f,2.286789499979932,0.22397569997701794,None,,,,,,141,0,140,714.845478400006,,,,,,,,,,,,,,,,,,,,,,,,,,,,,,714.8291441000183,714.845478400006,715.3291831000242,,,,,,,,,,,,,,715.3459834000096,,,,,,,,,,,,,715.3413373000221,715.3459834000096,715.3459834000096,715.3459834000096,718.3296690999996,f,2.286789499979932,0.22397569997701794,718.3317793000024,718.3317982000299,None,718.345268199977,718.345268199977,718.345268199977,,,,,,,,,,,,,,00051,001,2026-01-18_15h58.48.144,MST_task,2024.2.0,60.1334481421908,2026-01-18 15h59.01.144819 +0530,
,Objects\192a.jpg,141,0,142,,,,,,,f,1.1394552999990992,0.20800310000777245,None,,,,,,142,0,141,718.345268199977,,,,,,,,,,,,,,,,,,,,,,,,,,,,,,718.3318767999881,718.345268199977,718.8290500000003,,,,,,,,,,,,,,718.8455896999803,,,,,,,,,,,,,718.838201400009,718.8455896999803,718.8455896999803,718.8455896999803,721.8293442000286,f,1.1394552999990992,0.20800310000777245,721.8293865000014,721.8293977000285,None,721.845526900026,721.845526900026,721.845526900026,,,,,,,,,,,,,,00051,001,2026-01-18_15h58.48.144,MST_task,2024.2.0,60.1334481421908,2026-01-18 15h59.01.144819 +0530,
,Objects\183a.jpg,142,0,143,,,,,,,j,1.102663700003177,0.19313790003070608,None,,,,,,143,0,142,721.845526900026,,,,,,,,,,,,,,,,,,,,,,,,,,,,,,721.8294606999843,721.845526900026,722.3290822000126,,,,,,,,,,,,,,722.3457675999962,,,,,,,,,,,,,722.3385237000184,722.3457675999962,722.3457675999962,722.3457675999962,725.3293097999995,j,1.102663700003177,0.19313790003070608,725.3293607999803,725.3293720000074,None,725.3452815000201,725.3452815000201,725.3452815000201,,,,,,,,,,,,,,00051,001,2026-01-18_15h58.48.144,MST_task,2024.2.0,60.1334481421908,2026-01-18 15h59.01.144819 +0530,
,Objects\139a.jpg,143,0,144,,,,,,,f,1.059348199982196,0.19208680000156164,None,,,,,,144,0,143,725.3452815000201,,,,,,,,,,,,,,,,,,,,,,,,,,,,,,725.3294752999791,725.3452815000201,725.8290880999994,,,,,,,,,,,,,,725.8455754999886,,,,,,,,,,,,,725.8382219999912,725.8455754999886,725.8455754999886,725.8455754999886,728.8294420000166,f,1.059348199982196,0.19208680000156164,728.8294851999963,728.8294965000241,None,728.8454967000289,728.8454967000289,728.8454967000289,,,,,,,,,,,,,,00051,001,2026-01-18_15h58.48.144,MST_task,2024.2.0,60.1334481421908,2026-01-18 15h59.01.144819 +0530,
,Objects\191a.jpg,144,0,145,,,,,,,f,0.8872689999989234,0.19962169998325408,None,,,,,,145,0,144,728.8454967000289,,,,,,,,,,,,,,,,,,,,,,,,,,,,,,728.8295604999876,728.8454967000289,729.3290510000079,,,,,,,,,,,,,,729.3455824999837,,,,,,,,,,,,,729.3385054999962,729.3455824999837,729.3455824999837,729.3455824999837,732.3294083999936,f,0.8872689999989234,0.19962169998325408,732.3294553000014,732.3294662000262,None,732.3454419000191,732.3454419000191,732.3454419000191,,,,,,,,,,,,,,00051,001,2026-01-18_15h58.48.144,MST_task,2024.2.0,60.1334481421908,2026-01-18 15h59.01.144819 +0530,
,Objects\106a.jpg,145,0,146,,,,,,,f,1.507824000029359,0.20829839998623356,None,,,,,,146,0,145,732.3454419000191,,,,,,,,,,,,,,,,,,,,,,,,,,,,,,732.329564500018,732.3454419000191,732.8291399999871,,,,,,,,,,,,,,732.8454515999765,,,,,,,,,,,,,732.8381930000032,732.8454515999765,732.8454515999765,732.8454515999765,735.8292635999969,f,1.507824000029359,0.20829839998623356,735.8293044000166,735.8293152999831,None,735.8453182000085,735.8453182000085,735.8453182000085,,,,,,,,,,,,,,00051,001,2026-01-18_15h58.48.144,MST_task,2024.2.0,60.1334481421908,2026-01-18 15h59.01.144819 +0530,
,Objects\130a.jpg,146,0,147,,,,,,,j,1.823798600002192,0.19195149996085092,None,,,,,,147,0,146,735.8453182000085,,,,,,,,,,,,,,,,,,,,,,,,,,,,,,735.8294098000042,735.8453182000085,736.3291782999877,,,,,,,,,,,,,,736.345633400022,,,,,,,,,,,,,736.3392719000112,736.345633400022,736.345633400022,736.345633400022,739.3293692999869,j,1.823798600002192,0.19195149996085092,739.3294117000187,739.329422699986,None,739.3452215000289,739.3452215000289,739.3452215000289,,,,,,,,,,,,,,00051,001,2026-01-18_15h58.48.144,MST_task,2024.2.0,60.1334481421908,2026-01-18 15h59.01.144819 +0530,
,Scenes\111a.jpg,147,0,148,,,,,,,j,1.8260821999865584,0.19253900001058355,None,,,,,,148,0,147,739.3452215000289,,,,,,,,,,,,,,,,,,,,,,,,,,,,,,739.3294878000161,739.3452215000289,739.8290775999776,,,,,,,,,,,,,,739.8468601999921,,,,,,,,,,,,,739.8444352999795,739.8468601999921,739.8468601999921,739.8468601999921,742.845633000019,j,1.8260821999865584,0.19253900001058355,742.8473935999791,742.8474177999888,None,,,,,,,,,,,,,,,,,00051,001,2026-01-18_15h58.48.144,MST_task,2024.2.0,60.1334481421908,2026-01-18 15h59.01.144819 +0530,
,Scenes\063a.jpg,148,0,149,,,,,,,j,1.5332233000081033,0.20005859999218956,None,,,,,,149,0,148,742.8620658,,,,,,,,,,,,,,,,,,,,,,,,,,,,,,742.8474938999861,742.8620658,743.3456609999994,,,,,,,,,,,,,,743.3635036000051,,,,,,,,,,,,,743.3612690999871,743.3635036000051,743.3635036000051,743.3635036000051,746.3622439000173,j,1.5332233000081033,0.20005859999218956,746.3622858999879,746.3622980000218,None,,,,,,,,,,,,,,,,,00051,001,2026-01-18_15h58.48.144,MST_task,2024.2.0,60.1334481421908,2026-01-18 15h59.01.144819 +0530,
,Scenes\088a.jpg,149,0,150,,,,,,,j,1.1488524999585934,0.18399849999696016,None,,,,,,150,0,149,746.378709200013,,,,,,,,,,,,,,,,,,,,,,,,,,,,,,746.3623966000159,746.378709200013,746.8623030000017,,,,,,,,,,,,,,746.8843397999881,,,,,,,,,,,,,746.8818141000229,746.8843397999881,746.8843397999881,746.8843397999881,749.8790251999744,j,1.1488524999585934,0.18399849999696016,749.8790689000161,749.8790806999896,None,,,,,,,,,,,,,,,,,00051,001,2026-01-18_15h58.48.144,MST_task,2024.2.0,60.1334481421908,2026-01-18 15h59.01.144819 +0530,
,Scenes\038a.jpg,150,0,151,,,,,,,j,0.930717299983371,0.20001339999726042,None,,,,,,151,0,150,749.8953225000296,,,,,,,,,,,,,,,,,,,,,,,,,,,,,,749.8791798999882,749.8953225000296,750.3789501999854,,,,,,,,,,,,,,750.3979619999882,,,,,,,,,,,,,750.3954191000084,750.3979619999882,750.3979619999882,750.3979619999882,753.3955701999948,j,0.930717299983371,0.20001339999726042,753.3956177000073,753.3956302999868,None,,,,,,,,,,,,,,,,,00051,001,2026-01-18_15h58.48.144,MST_task,2024.2.0,60.1334481421908,2026-01-18 15h59.01.144819 +0530,
,Scenes\008a.jpg,151,0,152,,,,,,,j,2.5514226999948733,0.19229510001605377,None,,,,,,152,0,151,753.4120095000253,,,,,,,,,,,,,,,,,,,,,,,,,,,,,,753.3957424000255,753.4120095000253,753.8957142999861,,,,,,,,,,,,,,753.9136806000024,,,,,,,,,,,,,753.9110564999864,753.9136806000024,753.9136806000024,753.9136806000024,756.9123699999764,j,2.5514226999948733,0.19229510001605377,756.9124171999865,756.9124354000087,None,,,,,,,,,,,,,,,,,00051,001,2026-01-18_15h58.48.144,MST_task,2024.2.0,60.1334481421908,2026-01-18 15h59.01.144819 +0530,
,Scenes\110a.jpg,152,0,153,,,,,,,j,1.643273399968166,0.20830260001821443,None,,,,,,153,0,152,756.9287020000047,,,,,,,,,,,,,,,,,,,,,,,,,,,,,,756.9125080999802,756.9287020000047,757.412263199978,,,,,,,,,,,,,,757.4296225000289,,,,,,,,,,,,,757.4273588000215,757.4296225000289,757.4296225000289,757.4296225000289,760.4126908999751,j,1.643273399968166,0.20830260001821443,760.412736200029,760.4127472999971,None,760.4287396,760.4287396,760.4287396,,,,,,,,,,,,,,00051,001,2026-01-18_15h58.48.144,MST_task,2024.2.0,60.1334481421908,2026-01-18 15h59.01.144819 +0530,
,Scenes\016a.jpg,153,0,154,,,,,,,j,0.7125084999715909,0.215122000023257,None,,,,,,154,0,153,760.4287396,,,,,,,,,,,,,,,,,,,,,,,,,,,,,,760.412851799978,760.4287396,760.9123790999874,,,,,,,,,,,,,,760.9291729999823,,,,,,,,,,,,,760.9232415999868,760.9291729999823,760.9291729999823,760.9291729999823,763.9126640000031,j,0.7125084999715909,0.215122000023257,763.9127040000167,763.9127152999863,None,763.9286476999987,763.9286476999987,763.9286476999987,,,,,,,,,,,,,,00051,001,2026-01-18_15h58.48.144,MST_task,2024.2.0,60.1334481421908,2026-01-18 15h59.01.144819 +0530,
,Objects\177a.jpg,154,0,155,,,,,,,j,2.461008900019806,0.19841779995476827,None,,,,,,155,0,154,763.9286476999987,,,,,,,,,,,,,,,,,,,,,,,,,,,,,,763.9128114000196,763.9286476999987,764.4123898000107,,,,,,,,,,,,,,764.4291295000003,,,,,,,,,,,,,764.4238383999909,764.4291295000003,764.4291295000003,764.4291295000003,767.4127939000027,j,2.461008900019806,0.19841779995476827,767.4148678000201,767.4148846999742,None,767.4286608999828,767.4286608999828,767.4286608999828,,,,,,,,,,,,,,00051,001,2026-01-18_15h58.48.144,MST_task,2024.2.0,60.1334481421908,2026-01-18 15h59.01.144819 +0530,
,Objects\160a.jpg,155,0,156,,,,,,,f,1.4487062999978662,0.19095479999668896,None,,,,,,156,0,155,767.4286608999828,,,,,,,,,,,,,,,,,,,,,,,,,,,,,,767.4149861999904,767.4286608999828,767.9123391999747,,,,,,,,,,,,,,767.9289795000223,,,,,,,,,,,,,767.9235177999944,767.9289795000223,767.9289795000223,767.9289795000223,770.9127086999943,f,1.4487062999978662,0.19095479999668896,770.9127495000139,770.9127603999805,None,770.9286576000159,770.9286576000159,770.9286576000159,,,,,,,,,,,,,,00051,001,2026-01-18_15h58.48.144,MST_task,2024.2.0,60.1334481421908,2026-01-18 15h59.01.144819 +0530,
,Objects\023a.jpg,156,0,157,,,,,,,f,1.7564227999537252,0.21616870001889765,None,,,,,,157,0,156,770.9286576000159,,,,,,,,,,,,,,,,,,,,,,,,,,,,,,770.9128246000037,770.9286576000159,771.4123262999929,,,,,,,,,,,,,,771.4288965999731,,,,,,,,,,,,,771.421537199989,771.4288965999731,771.4288965999731,771.4288965999731,774.412582000019,f,1.7564227999537252,0.21616870001889765,774.4126244999934,774.4126351000159,None,774.4287407000083,774.4287407000083,774.4287407000083,,,,,,,,,,,,,,00051,001,2026-01-18_15h58.48.144,MST_task,2024.2.0,60.1334481421908,2026-01-18 15h59.01.144819 +0530,
,Objects\077a.jpg,157,0,158,,,,,,,j,1.9929577999864705,0.16687940002884716,None,,,,,,158,0,157,774.4287407000083,,,,,,,,,,,,,,,,,,,,,,,,,,,,,,774.41269810003,774.4287407000083,774.9122800999903,,,,,,,,,,,,,,774.9289823999861,,,,,,,,,,,,,774.9217922000098,774.9289823999861,774.9289823999861,774.9289823999861,777.9126561000012,j,1.9929577999864705,0.16687940002884716,777.9126973000239,777.9127078999882,None,777.9287220999831,777.9287220999831,777.9287220999831,,,,,,,,,,,,,,00051,001,2026-01-18_15h58.48.144,MST_task,2024.2.0,60.1334481421908,2026-01-18 15h59.01.144819 +0530,
,Objects\064a.jpg,158,0,159,,,,,,,f,1.4443254999932833,0.18400340003427118,None,,,,,,159,0,158,777.9287220999831,,,,,,,,,,,,,,,,,,,,,,,,,,,,,,777.9128067999845,777.9287220999831,778.4122752000112,,,,,,,,,,,,,,778.42896629998,,,,,,,,,,,,,778.4215261000209,778.42896629998,778.42896629998,778.42896629998,781.4128323000041,f,1.4443254999932833,0.18400340003427118,781.4128772999975,781.4128886000253,None,781.4287191000185,781.4287191000185,781.4287191000185,,,,,,,,,,,,,,00051,001,2026-01-18_15h58.48.144,MST_task,2024.2.0,60.1334481421908,2026-01-18 15h59.01.144819 +0530,
,Objects\159a.jpg,159,0,160,,,,,,,f,2.335635999974329,0.2013958000461571,None,,,,,,160,0,159,781.4287191000185,,,,,,,,,,,,,,,,,,,,,,,,,,,,,,781.4129949000198,781.4287191000185,781.9124197000056,,,,,,,,,,,,,,781.9290049999836,,,,,,,,,,,,,781.9235196000081,781.9290049999836,781.9290049999836,781.9290049999836,784.9125611999771,f,2.335635999974329,0.2013958000461571,784.9126010999898,784.9126121000154,None,784.9287384999916,784.9287384999916,784.9287384999916,,,,,,,,,,,,,,00051,001,2026-01-18_15h58.48.144,MST_task,2024.2.0,60.1334481421908,2026-01-18 15h59.01.144819 +0530,
