thisN,thisTrialN,thisRepN,key_resp_3.keys,key_resp_3.rt,key_resp_3.duration,trials.thisRepN,trials.thisTrialN,trials.thisN,thisRow.t,notes,intro_page.started,text.started,key_resp.started,intro_page.stopped,key_resp.keys,key_resp.rt,key_resp.duration,instructions.started,text_2.started,key_resp_2.started,instructions.stopped,key_resp_2.keys,key_resp_2.rt,key_resp_2.duration,demo1.started,image_1.started,image_2.started,text_7.started,key_resp_6.started,text_9.started,demo1.stopped,key_resp_6.keys,key_resp_6.rt,key_resp_6.duration,demo2.started,image_5.started,image_6.started,text_11.started,text_12.started,key_resp_8.started,demo2.stopped,key_resp_8.keys,key_resp_8.rt,key_resp_8.duration,demo_conclusion.started,text_13.started,key_resp_9.started,demo_conclusion.stopped,key_resp_9.keys,key_resp_9.rt,key_resp_9.duration,start_test.started,text_6.started,key_resp_5.started,start_test.stopped,key_resp_5.keys,key_resp_5.rt,key_resp_5.duration,ISI.started,text_4.started,text_4.stopped,ISI.stopped,routine_1.started,image.started,text_3.started,key_resp_3.started,routine_1.stopped,image_path,position_of_stimuli,trials.key_resp_3.keys,trials.key_resp_3.rt,trials.key_resp_3.duration,End_page.started,text_5.started,key_resp_4.started,End_page.stopped,key_resp_4.keys,key_resp_4.rt,key_resp_4.duration,participant,session,date,expName,psychopyVersion,frameRate,expStart,
,,,,,,,,,,,0.0013078000047244132,0.002899400016758591,0.002899400016758591,2.830778800009284,space,2.8213720000348985,None,,,,,,,,,,,,,,,,,,,,,,,,,,,,,,,,,,,,,,,,,,,,,,,,,,,,,,,,,,,,,,,00052,001,2026-01-18_17h03.51.417,MST_test,2024.2.0,59.98778648445751,2026-01-18 17h04.03.098799 +0530,
,,,,,,,,,,,,,,,,,,2.830809400009457,2.845543799980078,2.845543799980078,7.262791600020137,space,4.410942799993791,None,,,,,,,,,,,,,,,,,,,,,,,,,,,,,,,,,,,,,,,,,,,,,,,,,,,,,,,,00052,001,2026-01-18_17h03.51.417,MST_test,2024.2.0,59.98778648445751,2026-01-18 17h04.03.098799 +0530,
,,,,,,,,,,,,,,,,,,,,,,,,,7.262820100004319,7.279417600017041,7.279417600017041,7.279417600017041,7.279417600017041,7.279417600017041,18.880227699992247,space,11.600162699993234,None,,,,,,,,,,,,,,,,,,,,,,,,,,,,,,,,,,,,,,,,,,,,,,00052,001,2026-01-18_17h03.51.417,MST_test,2024.2.0,59.98778648445751,2026-01-18 17h04.03.098799 +0530,
,,,,,,,,,,,,,,,,,,,,,,,,,,,,,,,,,,,18.880258099990897,18.896192700020038,18.896192700020038,18.896192700020038,18.896192700020038,18.896192700020038,24.34650220000185,space,5.448283200035803,None,,,,,,,,,,,,,,,,,,,,,,,,,,,,,,,,,,,,00052,001,2026-01-18_17h03.51.417,MST_test,2024.2.0,59.98778648445751,2026-01-18 17h04.03.098799 +0530,
,,,,,,,,,,,,,,,,,,,,,,,,,,,,,,,,,,,,,,,,,,,,,24.346530099981464,24.362442500016186,24.362442500016186,36.31560430000536,space,11.949829699995462,None,,,,,,,,,,,,,,,,,,,,,,,,,,,,,00052,001,2026-01-18_17h03.51.417,MST_test,2024.2.0,59.98778648445751,2026-01-18 17h04.03.098799 +0530,
,,,,,,,,,,,,,,,,,,,,,,,,,,,,,,,,,,,,,,,,,,,,,,,,,,,,36.31563600001391,36.329102299991064,36.329102299991064,88.84619150002254,space,52.51111109997146,None,,,,,,,,,,,,,,,,,,,,,,00052,001,2026-01-18_17h03.51.417,MST_test,2024.2.0,59.98778648445751,2026-01-18 17h04.03.098799 +0530,
0,0,1,o,2.237218499998562,None,1,0,0,88.86223859997699,,,,,,,,,,,,,,,,,,,,,,,,,,,,,,,,,,,,,,,,,,,,,,,,,,88.8509500999935,88.86223859997699,89.36255730001722,89.34586659999331,89.35641549999127,89.36255730001722,89.36255730001722,89.36255730001722,91.61290970002301,Objects\036a.jpg,mid,o,2.237218499998562,None,,,,,,,,00052,001,2026-01-18_17h03.51.417,MST_test,2024.2.0,59.98778648445751,2026-01-18 17h04.03.098799 +0530,
1,0,2,o,0.7102613000315614,None,2,0,1,91.62881959998049,,,,,,,,,,,,,,,,,,,,,,,,,,,,,,,,,,,,,,,,,,,,,,,,,,91.6130030999775,91.62881959998049,92.12948160001542,92.11255120002897,92.12229829997523,92.12948160001542,92.12948160001542,92.12948160001542,92.84634619997814,Scenes\017a.jpg,pre,o,0.7102613000315614,None,,,,,,,,00052,001,2026-01-18_17h03.51.417,MST_test,2024.2.0,59.98778648445751,2026-01-18 17h04.03.098799 +0530,
2,0,3,o,1.1260711000068113,None,3,0,2,92.86233350000111,,,,,,,,,,,,,,,,,,,,,,,,,,,,,,,,,,,,,,,,,,,,,,,,,,92.84643909998704,92.86233350000111,93.36259470001096,93.34589749999577,93.35152000002563,93.36259470001096,93.36259470001096,93.36259470001096,94.49645640002564,Scenes\096b.jpg,post,o,1.1260711000068113,None,,,,,,,,00052,001,2026-01-18_17h03.51.417,MST_test,2024.2.0,59.98778648445751,2026-01-18 17h04.03.098799 +0530,
3,0,4,o,0.8147830000380054,None,4,0,3,94.51227960002143,,,,,,,,,,,,,,,,,,,,,,,,,,,,,,,,,,,,,,,,,,,,,,,,,,94.49655640003039,94.51227960002143,95.01791579998098,94.99590590002481,95.01577200001338,95.01791579998098,95.01791579998098,95.01791579998098,95.84618049999699,Scenes\094b.jpg,pre,o,0.8147830000380054,None,,,,,,,,00052,001,2026-01-18_17h03.51.417,MST_test,2024.2.0,59.98778648445751,2026-01-18 17h04.03.098799 +0530,
4,0,5,n,2.3606290000025183,None,5,0,4,95.86232000001473,,,,,,,,,,,,,,,,,,,,,,,,,,,,,,,,,,,,,,,,,,,,,,,,,,95.84627270000055,95.86232000001473,96.5918361999793,96.3459131999989,96.58769020001637,96.5918361999793,96.5918361999793,96.5918361999793,98.96294080000371,Foils\scenes26.jpg,none,n,2.3606290000025183,None,,,,,,,,00052,001,2026-01-18_17h03.51.417,MST_test,2024.2.0,59.98778648445751,2026-01-18 17h04.03.098799 +0530,
5,0,6,o,1.0298407999798656,None,6,0,5,98.97892690001754,,,,,,,,,,,,,,,,,,,,,,,,,,,,,,,,,,,,,,,,,,,,,,,,,,98.96303430001717,98.97892690001754,99.49899089999963,99.46261480002431,99.49715900002047,99.49899089999963,99.49899089999963,99.49899089999963,100.52963200001977,Foils\scenes1.jpg,none,o,1.0298407999798656,None,,,,,,,,00052,001,2026-01-18_17h03.51.417,MST_test,2024.2.0,59.98778648445751,2026-01-18 17h04.03.098799 +0530,
6,0,7,o,0.8664178000180982,None,7,0,6,100.54565159999765,,,,,,,,,,,,,,,,,,,,,,,,,,,,,,,,,,,,,,,,,,,,,,,,,,100.52973160002148,100.54565159999765,101.04603030002909,101.02913490001811,101.0361601000186,101.04603030002909,101.04603030002909,101.04603030002909,101.91338919999544,Scenes\069a.jpg,post,o,0.8664178000180982,None,,,,,,,,00052,001,2026-01-18_17h03.51.417,MST_test,2024.2.0,59.98778648445751,2026-01-18 17h04.03.098799 +0530,
7,0,8,o,0.8110914999851957,None,8,0,7,101.92888850002782,,,,,,,,,,,,,,,,,,,,,,,,,,,,,,,,,,,,,,,,,,,,,,,,,,101.9134883999941,101.92888850002782,102.42928939999547,102.41274080000585,102.41634870000416,102.42928939999547,102.42928939999547,102.42928939999547,103.24621730000945,Objects\187a.jpg,pre,o,0.8110914999851957,None,,,,,,,,00052,001,2026-01-18_17h03.51.417,MST_test,2024.2.0,59.98778648445751,2026-01-18 17h04.03.098799 +0530,
8,0,9,o,1.0865871999994852,None,9,0,8,103.26232229999732,,,,,,,,,,,,,,,,,,,,,,,,,,,,,,,,,,,,,,,,,,,,,,,,,,103.24631000001682,103.26232229999732,103.7626102999784,103.74590470001567,103.75620380003238,103.7626102999784,103.7626102999784,103.7626102999784,104.86301999998977,Objects\060b.jpg,mid,o,1.0865871999994852,None,,,,,,,,00052,001,2026-01-18_17h03.51.417,MST_test,2024.2.0,59.98778648445751,2026-01-18 17h04.03.098799 +0530,
9,0,10,n,1.8290797999943607,None,10,0,9,104.87888259999454,,,,,,,,,,,,,,,,,,,,,,,,,,,,,,,,,,,,,,,,,,,,,,,,,,104.86311580002075,104.87888259999454,105.37897110002814,105.36261060001561,105.36616909998702,105.37897110002814,105.37897110002814,105.37897110002814,107.21295409998856,Objects\177b.jpg,mid,n,1.8290797999943607,None,,,,,,,,00052,001,2026-01-18_17h03.51.417,MST_test,2024.2.0,59.98778648445751,2026-01-18 17h04.03.098799 +0530,
10,0,11,o,1.50131370004965,None,11,0,10,107.22881940001389,,,,,,,,,,,,,,,,,,,,,,,,,,,,,,,,,,,,,,,,,,,,,,,,,,107.21305660001235,107.22881940001389,107.73141150001902,107.71258099999977,107.72914220002713,107.73141150001902,107.73141150001902,107.73141150001902,109.24621270003263,Scenes\127b.jpg,post,o,1.50131370004965,None,,,,,,,,00052,001,2026-01-18_17h03.51.417,MST_test,2024.2.0,59.98778648445751,2026-01-18 17h04.03.098799 +0530,
11,0,12,o,1.5010684999870136,None,12,0,11,109.26231349998852,,,,,,,,,,,,,,,,,,,,,,,,,,,,,,,,,,,,,,,,,,,,,,,,,,109.2463053999818,109.26231349998852,109.76281809998909,109.74585970002227,109.74868680001236,109.76281809998909,109.76281809998909,109.76281809998909,111.27941890002694,Scenes\097a.jpg,post,o,1.5010684999870136,None,,,,,,,,00052,001,2026-01-18_17h03.51.417,MST_test,2024.2.0,59.98778648445751,2026-01-18 17h04.03.098799 +0530,
12,0,13,s,3.1571847000159323,None,13,0,12,111.29565879999427,,,,,,,,,,,,,,,,,,,,,,,,,,,,,,,,,,,,,,,,,,,,,,,,,,111.27951080002822,111.29565879999427,111.79620169999544,111.77901880000718,111.79003650002414,111.79620169999544,111.79620169999544,111.79620169999544,114.96305359998951,Scenes\159a.jpg,pre,s,3.1571847000159323,None,,,,,,,,00052,001,2026-01-18_17h03.51.417,MST_test,2024.2.0,59.98778648445751,2026-01-18 17h04.03.098799 +0530,
13,0,14,n,2.884122399962507,None,14,0,13,114.97888900001999,,,,,,,,,,,,,,,,,,,,,,,,,,,,,,,,,,,,,,,,,,,,,,,,,,114.96316129999468,114.97888900001999,115.48358599998755,115.4626006000326,115.48146989999805,115.48358599998755,115.48358599998755,115.48358599998755,118.37942329997895,Scenes\025b.jpg,mid,n,2.884122399962507,None,,,,,,,,00052,001,2026-01-18_17h03.51.417,MST_test,2024.2.0,59.98778648445751,2026-01-18 17h04.03.098799 +0530,
14,0,15,o,1.4553291999618523,None,15,0,14,118.39566330000525,,,,,,,,,,,,,,,,,,,,,,,,,,,,,,,,,,,,,,,,,,,,,,,,,,118.37951469997643,118.39566330000525,118.89637530001346,118.8790902000037,118.88875019998522,118.89637530001346,118.89637530001346,118.89637530001346,120.36289360001683,Scenes\085b.jpg,mid,o,1.4553291999618523,None,,,,,,,,00052,001,2026-01-18_17h03.51.417,MST_test,2024.2.0,59.98778648445751,2026-01-18 17h04.03.098799 +0530,
15,0,16,o,1.936856499989517,None,16,0,15,120.37886430002982,,,,,,,,,,,,,,,,,,,,,,,,,,,,,,,,,,,,,,,,,,,,,,,,,,120.36298600002192,120.37886430002982,120.87947819998953,120.86260880000191,120.8738787000184,120.87947819998953,120.87947819998953,120.87947819998953,122.82953779998934,Objects\015b.jpg,pre,o,1.936856499989517,None,,,,,,,,00052,001,2026-01-18_17h03.51.417,MST_test,2024.2.0,59.98778648445751,2026-01-18 17h04.03.098799 +0530,
16,0,17,n,2.0944666999857873,None,17,0,16,122.84561830002349,,,,,,,,,,,,,,,,,,,,,,,,,,,,,,,,,,,,,,,,,,,,,,,,,,122.82962899998529,122.84561830002349,123.34621819999302,123.32910640002228,123.33544200001052,123.34621819999302,123.34621819999302,123.34621819999302,125.44622480001999,Scenes\191a.jpg,pre,n,2.0944666999857873,None,,,,,,,,00052,001,2026-01-18_17h03.51.417,MST_test,2024.2.0,59.98778648445751,2026-01-18 17h04.03.098799 +0530,
17,0,18,o,1.4689199000131339,None,18,0,17,125.46233319997555,,,,,,,,,,,,,,,,,,,,,,,,,,,,,,,,,,,,,,,,,,,,,,,,,,125.44631909998134,125.46233319997555,125.96282840002095,125.94586650002748,125.95634249999421,125.96282840002095,125.96282840002095,125.96282840002095,127.44623669999419,Objects\072b.jpg,pre,o,1.4689199000131339,None,,,,,,,,00052,001,2026-01-18_17h03.51.417,MST_test,2024.2.0,59.98778648445751,2026-01-18 17h04.03.098799 +0530,
18,0,19,o,0.7668102000025101,None,19,0,18,127.46232869999949,,,,,,,,,,,,,,,,,,,,,,,,,,,,,,,,,,,,,,,,,,,,,,,,,,127.44632769998861,127.46232869999949,127.96254320000298,127.94593909999821,127.9484876000206,127.96254320000298,127.96254320000298,127.96254320000298,128.7461799000157,Objects\038a.jpg,post,o,0.7668102000025101,None,,,,,,,,00052,001,2026-01-18_17h03.51.417,MST_test,2024.2.0,59.98778648445751,2026-01-18 17h04.03.098799 +0530,
19,0,20,n,1.1292767000268213,None,20,0,19,128.76234570000088,,,,,,,,,,,,,,,,,,,,,,,,,,,,,,,,,,,,,,,,,,,,,,,,,,128.7462702000048,128.76234570000088,129.26256669999566,129.24594579997938,129.2557970000198,129.26256669999566,129.26256669999566,129.26256669999566,130.3962654999923,Foils\034a.jpg,none,n,1.1292767000268213,None,,,,,,,,00052,001,2026-01-18_17h03.51.417,MST_test,2024.2.0,59.98778648445751,2026-01-18 17h04.03.098799 +0530,
20,0,21,o,0.8714183000265621,None,21,0,20,130.41232870001113,,,,,,,,,,,,,,,,,,,,,,,,,,,,,,,,,,,,,,,,,,,,,,,,,,130.39635769999586,130.41232870001113,130.91249950003112,130.89586560003227,130.89834289997816,130.91249950003112,130.91249950003112,130.91249950003112,131.79648630000884,Objects\061a.jpg,pre,o,0.8714183000265621,None,,,,,,,,00052,001,2026-01-18_17h03.51.417,MST_test,2024.2.0,59.98778648445751,2026-01-18 17h04.03.098799 +0530,
21,0,22,o,0.6708758000168018,None,22,0,21,131.81244339997647,,,,,,,,,,,,,,,,,,,,,,,,,,,,,,,,,,,,,,,,,,,,,,,,,,131.79658020002535,131.81244339997647,132.31272009998793,132.29590780002763,132.29851679998683,132.31272009998793,132.31272009998793,132.31272009998793,132.99636089999694,Objects\148a.jpg,post,o,0.6708758000168018,None,,,,,,,,00052,001,2026-01-18_17h03.51.417,MST_test,2024.2.0,59.98778648445751,2026-01-18 17h04.03.098799 +0530,
22,0,23,o,0.6708015999756753,None,23,0,22,133.01243760000216,,,,,,,,,,,,,,,,,,,,,,,,,,,,,,,,,,,,,,,,,,,,,,,,,,132.996465299977,133.01243760000216,133.5130121000111,133.49591719999444,133.50207049999153,133.5130121000111,133.5130121000111,133.5130121000111,134.19641789997695,Scenes\117a.jpg,pre,o,0.6708015999756753,None,,,,,,,,00052,001,2026-01-18_17h03.51.417,MST_test,2024.2.0,59.98778648445751,2026-01-18 17h04.03.098799 +0530,
23,0,24,o,0.5994672000524588,None,24,0,23,134.21240219997708,,,,,,,,,,,,,,,,,,,,,,,,,,,,,,,,,,,,,,,,,,,,,,,,,,134.19651239999803,134.21240219997708,134.71303300000727,134.69640990003245,134.70620940002846,134.71303300000727,134.71303300000727,134.71303300000727,135.3132974000182,Scenes\154a.jpg,mid,o,0.5994672000524588,None,,,,,,,,00052,001,2026-01-18_17h03.51.417,MST_test,2024.2.0,59.98778648445751,2026-01-18 17h04.03.098799 +0530,
24,0,25,o,0.9939721000264399,None,25,0,24,135.32911270001205,,,,,,,,,,,,,,,,,,,,,,,,,,,,,,,,,,,,,,,,,,,,,,,,,,135.3133987999754,135.32911270001205,135.8296964999754,135.81281919998582,135.8245660000248,135.8296964999754,135.8296964999754,135.8296964999754,136.82967030000873,Objects\189b.jpg,pre,o,0.9939721000264399,None,,,,,,,,00052,001,2026-01-18_17h03.51.417,MST_test,2024.2.0,59.98778648445751,2026-01-18 17h04.03.098799 +0530,
25,0,26,o,0.6137995999888517,None,26,0,25,136.8457109000301,,,,,,,,,,,,,,,,,,,,,,,,,,,,,,,,,,,,,,,,,,,,,,,,,,136.8297630000161,136.8457109000301,137.34597880003275,137.32933769997908,137.33179239998572,137.34597880003275,137.34597880003275,137.34597880003275,137.9631063999841,Objects\003a.jpg,mid,o,0.6137995999888517,None,,,,,,,,00052,001,2026-01-18_17h03.51.417,MST_test,2024.2.0,59.98778648445751,2026-01-18 17h04.03.098799 +0530,
26,0,27,o,0.5931119000306353,None,27,0,26,137.97898970003007,,,,,,,,,,,,,,,,,,,,,,,,,,,,,,,,,,,,,,,,,,,,,,,,,,137.9631974999793,137.97898970003007,138.47911499999464,138.4628050000174,138.46539660001872,138.47911499999464,138.47911499999464,138.47911499999464,139.0796612999984,Objects\156a.jpg,post,o,0.5931119000306353,None,,,,,,,,00052,001,2026-01-18_17h03.51.417,MST_test,2024.2.0,59.98778648445751,2026-01-18 17h04.03.098799 +0530,
27,0,28,o,0.6513067000196315,None,28,0,27,139.09579380002106,,,,,,,,,,,,,,,,,,,,,,,,,,,,,,,,,,,,,,,,,,,,,,,,,,139.07975309999892,139.09579380002106,139.59629800001858,139.579380900017,139.58953050000127,139.59629800001858,139.59629800001858,139.59629800001858,140.26296989998082,Scenes\114b.jpg,post,o,0.6513067000196315,None,,,,,,,,00052,001,2026-01-18_17h03.51.417,MST_test,2024.2.0,59.98778648445751,2026-01-18 17h04.03.098799 +0530,
28,0,29,o,1.998490700032562,None,29,0,28,140.27911210001912,,,,,,,,,,,,,,,,,,,,,,,,,,,,,,,,,,,,,,,,,,,,,,,,,,140.2630605000304,140.27911210001912,140.78533079999033,140.7628538000281,140.78296500002034,140.78533079999033,140.78533079999033,140.78533079999033,142.79640940000536,Foils\scenes23.jpg,none,o,1.998490700032562,None,,,,,,,,00052,001,2026-01-18_17h03.51.417,MST_test,2024.2.0,59.98778648445751,2026-01-18 17h04.03.098799 +0530,
29,0,30,o,0.7186164999729954,None,30,0,29,142.81240410002647,,,,,,,,,,,,,,,,,,,,,,,,,,,,,,,,,,,,,,,,,,,,,,,,,,142.79652089998126,142.81240410002647,143.31315270002233,143.2959847000311,143.29854909999995,143.31315270002233,143.31315270002233,143.31315270002233,144.0463313999935,Foils\scenes29.jpg,none,o,0.7186164999729954,None,,,,,,,,00052,001,2026-01-18_17h03.51.417,MST_test,2024.2.0,59.98778648445751,2026-01-18 17h04.03.098799 +0530,
30,0,31,o,0.9011863000341691,None,31,0,30,144.06245510000736,,,,,,,,,,,,,,,,,,,,,,,,,,,,,,,,,,,,,,,,,,,,,,,,,,144.04642470000545,144.06245510000736,144.56275290000485,144.54605710000033,144.54931000003126,144.56275290000485,144.56275290000485,144.56275290000485,145.47959429997718,Objects\108a.jpg,mid,o,0.9011863000341691,None,,,,,,,,00052,001,2026-01-18_17h03.51.417,MST_test,2024.2.0,59.98778648445751,2026-01-18 17h04.03.098799 +0530,
31,0,32,o,0.8597456000279635,None,32,0,31,145.49572850001277,,,,,,,,,,,,,,,,,,,,,,,,,,,,,,,,,,,,,,,,,,,,,,,,,,145.4797001000261,145.49572850001277,145.99588880001102,145.97950910002692,145.98972559999675,145.99588880001102,145.99588880001102,145.99588880001102,146.86301099997945,Objects\020b.jpg,mid,o,0.8597456000279635,None,,,,,,,,00052,001,2026-01-18_17h03.51.417,MST_test,2024.2.0,59.98778648445751,2026-01-18 17h04.03.098799 +0530,
32,0,33,o,0.8128983000060543,None,33,0,32,146.8791081000236,,,,,,,,,,,,,,,,,,,,,,,,,,,,,,,,,,,,,,,,,,,,,,,,,,146.86310150002828,146.8791081000236,147.37924219999695,147.36292929999763,147.3657366000116,147.37924219999695,147.37924219999695,147.37924219999695,148.19645119999768,Objects\126a.jpg,mid,o,0.8128983000060543,None,,,,,,,,00052,001,2026-01-18_17h03.51.417,MST_test,2024.2.0,59.98778648445751,2026-01-18 17h04.03.098799 +0530,
33,0,34,o,0.7043128000223078,None,34,0,33,148.21242759999586,,,,,,,,,,,,,,,,,,,,,,,,,,,,,,,,,,,,,,,,,,,,,,,,,,148.19655330001842,148.21242759999586,148.7129705999978,148.69603470002767,148.70576460001757,148.7129705999978,148.7129705999978,148.7129705999978,149.4298037000117,Scenes\003a.jpg,post,o,0.7043128000223078,None,,,,,,,,00052,001,2026-01-18_17h03.51.417,MST_test,2024.2.0,59.98778648445751,2026-01-18 17h04.03.098799 +0530,
34,0,35,n,1.1494088000035845,None,35,0,34,149.445781300019,,,,,,,,,,,,,,,,,,,,,,,,,,,,,,,,,,,,,,,,,,,,,,,,,,149.42989560001297,149.445781300019,149.9462979999953,149.92933080001967,149.93244599999161,149.9462979999953,149.9462979999953,149.9462979999953,151.09645880002063,Foils\020b.jpg,none,n,1.1494088000035845,None,,,,,,,,00052,001,2026-01-18_17h03.51.417,MST_test,2024.2.0,59.98778648445751,2026-01-18 17h04.03.098799 +0530,
35,0,36,o,0.8748204000294209,None,36,0,35,151.1124813000206,,,,,,,,,,,,,,,,,,,,,,,,,,,,,,,,,,,,,,,,,,,,,,,,,,151.0969961999799,151.1124813000206,151.61283150000963,151.59614530002,151.5995953999809,151.61283150000963,151.61283150000963,151.61283150000963,152.49635410000337,Scenes\022a.jpg,pre,o,0.8748204000294209,None,,,,,,,,00052,001,2026-01-18_17h03.51.417,MST_test,2024.2.0,59.98778648445751,2026-01-18 17h04.03.098799 +0530,
36,0,37,s,1.0569405000424013,None,37,0,36,152.5124797000317,,,,,,,,,,,,,,,,,,,,,,,,,,,,,,,,,,,,,,,,,,,,,,,,,,152.49645640002564,152.5124797000317,153.01539650000632,152.99596470000688,153.01304180000443,153.01539650000632,153.01539650000632,153.01539650000632,154.07963110000128,Scenes\106b.jpg,post,s,1.0569405000424013,None,,,,,,,,00052,001,2026-01-18_17h03.51.417,MST_test,2024.2.0,59.98778648445751,2026-01-18 17h04.03.098799 +0530,
37,0,38,s,1.3313224000157788,None,38,0,37,154.0958020000253,,,,,,,,,,,,,,,,,,,,,,,,,,,,,,,,,,,,,,,,,,,,,,,,,,154.07972879998852,154.0958020000253,154.5963497000048,154.5793616999872,154.58903269999428,154.5963497000048,154.5963497000048,154.5963497000048,155.92967360001057,Objects\135b.jpg,post,s,1.3313224000157788,None,,,,,,,,00052,001,2026-01-18_17h03.51.417,MST_test,2024.2.0,59.98778648445751,2026-01-18 17h04.03.098799 +0530,
38,0,39,s,3.786196300003212,None,39,0,38,155.94572580000386,,,,,,,,,,,,,,,,,,,,,,,,,,,,,,,,,,,,,,,,,,,,,,,,,,155.92976600001566,155.94572580000386,156.44603300001472,156.4294389000279,156.43256149999797,156.44603300001472,156.44603300001472,156.44603300001472,160.2463125999784,Objects\118b.jpg,post,s,3.786196300003212,None,,,,,,,,00052,001,2026-01-18_17h03.51.417,MST_test,2024.2.0,59.98778648445751,2026-01-18 17h04.03.098799 +0530,
39,0,40,n,1.7968271999852732,None,40,0,39,160.26236340001924,,,,,,,,,,,,,,,,,,,,,,,,,,,,,,,,,,,,,,,,,,,,,,,,,,160.24640900001395,160.26236340001924,160.7635367999901,160.74611250002636,160.76145029999316,160.7635367999901,160.7635367999901,160.7635367999901,162.56298079999397,Scenes\187b.jpg,pre,n,1.7968271999852732,None,,,,,,,,00052,001,2026-01-18_17h03.51.417,MST_test,2024.2.0,59.98778648445751,2026-01-18 17h04.03.098799 +0530,
40,0,41,n,1.2569448999711312,None,41,0,40,162.57909250003286,,,,,,,,,,,,,,,,,,,,,,,,,,,,,,,,,,,,,,,,,,,,,,,,,,162.56307370000286,162.57909250003286,163.07958439999493,163.06272270000773,163.07740140001988,163.07958439999493,163.07958439999493,163.07958439999493,164.3462792999926,Scenes\173b.jpg,pre,n,1.2569448999711312,None,,,,,,,,00052,001,2026-01-18_17h03.51.417,MST_test,2024.2.0,59.98778648445751,2026-01-18 17h04.03.098799 +0530,
41,0,42,o,0.9526670000050217,None,42,0,41,164.36250360001577,,,,,,,,,,,,,,,,,,,,,,,,,,,,,,,,,,,,,,,,,,,,,,,,,,164.34637590002967,164.36250360001577,164.86296840000432,164.846057799994,164.85290380002698,164.86296840000432,164.86296840000432,164.86296840000432,165.82964960002573,Scenes\188a.jpg,pre,o,0.9526670000050217,None,,,,,,,,00052,001,2026-01-18_17h03.51.417,MST_test,2024.2.0,59.98778648445751,2026-01-18 17h04.03.098799 +0530,
42,0,43,n,1.9814362000324763,None,43,0,42,165.84571520000463,,,,,,,,,,,,,,,,,,,,,,,,,,,,,,,,,,,,,,,,,,,,,,,,,,165.82974760001525,165.84571520000463,166.34626890002983,166.32937140000286,166.34008069999982,166.34626890002983,166.34626890002983,166.34626890002983,168.32956899999408,Foils\026a.jpg,none,n,1.9814362000324763,None,,,,,,,,00052,001,2026-01-18_17h03.51.417,MST_test,2024.2.0,59.98778648445751,2026-01-18 17h04.03.098799 +0530,
43,0,44,o,0.91456190001918,None,44,0,43,168.34577259997604,,,,,,,,,,,,,,,,,,,,,,,,,,,,,,,,,,,,,,,,,,,,,,,,,,168.32966869999655,168.34577259997604,168.84590150002623,168.829322399979,168.83201299997745,168.84590150002623,168.84590150002623,168.84590150002623,169.7629526000237,Objects\190a.jpg,mid,o,0.91456190001918,None,,,,,,,,00052,001,2026-01-18_17h03.51.417,MST_test,2024.2.0,59.98778648445751,2026-01-18 17h04.03.098799 +0530,
44,0,45,s,1.344433799968101,None,45,0,44,169.77912459999789,,,,,,,,,,,,,,,,,,,,,,,,,,,,,,,,,,,,,,,,,,,,,,,,,,169.76304390002042,169.77912459999789,170.2792388999951,170.2627599000116,170.27223970001796,170.2792388999951,170.2792388999951,170.2792388999951,171.6296606999822,Objects\124b.jpg,post,s,1.344433799968101,None,,,,,,,,00052,001,2026-01-18_17h03.51.417,MST_test,2024.2.0,59.98778648445751,2026-01-18 17h04.03.098799 +0530,
45,0,46,o,1.189683199976571,None,46,0,45,171.64575869997498,,,,,,,,,,,,,,,,,,,,,,,,,,,,,,,,,,,,,,,,,,,,,,,,,,171.6297532999888,171.64575869997498,172.14594349998515,172.12930189998588,172.13824719999684,172.14594349998515,172.14594349998515,172.14594349998515,173.3464115000097,Foils\074a.jpg,none,o,1.189683199976571,None,,,,,,,,00052,001,2026-01-18_17h03.51.417,MST_test,2024.2.0,59.98778648445751,2026-01-18 17h04.03.098799 +0530,
46,0,47,n,1.0498987999744713,None,47,0,46,173.36242000001948,,,,,,,,,,,,,,,,,,,,,,,,,,,,,,,,,,,,,,,,,,,,,,,,,,173.3465106000076,173.36242000001948,173.86267230001977,173.84596509998664,173.85579519998282,173.86267230001977,173.86267230001977,173.86267230001977,174.91317419998813,Foils\098a.jpg,none,n,1.0498987999744713,None,,,,,,,,00052,001,2026-01-18_17h03.51.417,MST_test,2024.2.0,59.98778648445751,2026-01-18 17h04.03.098799 +0530,
47,0,48,o,2.515047999972012,None,48,0,47,174.92889859998832,,,,,,,,,,,,,,,,,,,,,,,,,,,,,,,,,,,,,,,,,,,,,,,,,,174.91327740001725,174.92889859998832,175.42937309999252,175.412731599994,175.42108579998603,175.42937309999252,175.42937309999252,175.42937309999252,177.94663130003028,Scenes\052b.jpg,mid,o,2.515047999972012,None,,,,,,,,00052,001,2026-01-18_17h03.51.417,MST_test,2024.2.0,59.98778648445751,2026-01-18 17h04.03.098799 +0530,
48,0,49,n,7.312719999987166,None,49,0,48,177.9624336999841,,,,,,,,,,,,,,,,,,,,,,,,,,,,,,,,,,,,,,,,,,,,,,,,,,177.9467323999852,177.9624336999841,178.4629707999993,178.4459980999818,178.4602811000077,178.4629707999993,178.4629707999993,178.4629707999993,185.77975390001666,Scenes\155b.jpg,post,n,7.312719999987166,None,,,,,,,,00052,001,2026-01-18_17h03.51.417,MST_test,2024.2.0,59.98778648445751,2026-01-18 17h04.03.098799 +0530,
49,0,50,n,0.9532175000058487,None,50,0,49,185.79574740002863,,,,,,,,,,,,,,,,,,,,,,,,,,,,,,,,,,,,,,,,,,,,,,,,,,185.7798477000324,185.79574740002863,186.29624290001811,186.2795636000228,186.2908172000316,186.29624290001811,186.29624290001811,186.29624290001811,187.2629336999962,Objects\102b.jpg,post,n,0.9532175000058487,None,,,,,,,,00052,001,2026-01-18_17h03.51.417,MST_test,2024.2.0,59.98778648445751,2026-01-18 17h04.03.098799 +0530,
50,0,51,s,2.1887844000011683,None,51,0,50,187.2790688999812,,,,,,,,,,,,,,,,,,,,,,,,,,,,,,,,,,,,,,,,,,,,,,,,,,187.26302780001424,187.2790688999812,187.77922460000264,187.76272100000642,187.77401669998653,187.77922460000264,187.77922460000264,187.77922460000264,189.97953210002743,Objects\163b.jpg,post,s,2.1887844000011683,None,,,,,,,,00052,001,2026-01-18_17h03.51.417,MST_test,2024.2.0,59.98778648445751,2026-01-18 17h04.03.098799 +0530,
51,0,52,n,2.208371500018984,None,52,0,51,189.99580610002158,,,,,,,,,,,,,,,,,,,,,,,,,,,,,,,,,,,,,,,,,,,,,,,,,,189.97962469997583,189.99580610002158,190.496109300002,190.47926809999626,190.48201510001672,190.496109300002,190.496109300002,190.496109300002,192.71293009998044,Foils\049a.jpg,none,n,2.208371500018984,None,,,,,,,,00052,001,2026-01-18_17h03.51.417,MST_test,2024.2.0,59.98778648445751,2026-01-18 17h04.03.098799 +0530,
52,0,53,n,1.9310523999738507,None,53,0,52,192.72897130000638,,,,,,,,,,,,,,,,,,,,,,,,,,,,,,,,,,,,,,,,,,,,,,,,,,192.71302249998553,192.72897130000638,193.22956050001085,193.21266439999454,193.22358540003188,193.22956050001085,193.22956050001085,193.22956050001085,195.16301209997619,Scenes\010a.jpg,mid,n,1.9310523999738507,None,,,,,,,,00052,001,2026-01-18_17h03.51.417,MST_test,2024.2.0,59.98778648445751,2026-01-18 17h04.03.098799 +0530,
53,0,54,n,1.048380799998995,None,54,0,53,195.17894750001142,,,,,,,,,,,,,,,,,,,,,,,,,,,,,,,,,,,,,,,,,,,,,,,,,,195.16310270002577,195.17894750001142,195.6793902000063,195.6630775000085,195.6664653000189,195.6793902000063,195.6793902000063,195.6793902000063,196.72989090002375,Objects\059b.jpg,post,n,1.048380799998995,None,,,,,,,,00052,001,2026-01-18_17h03.51.417,MST_test,2024.2.0,59.98778648445751,2026-01-18 17h04.03.098799 +0530,
54,0,55,o,2.7457667000126094,None,55,0,54,196.74574049998773,,,,,,,,,,,,,,,,,,,,,,,,,,,,,,,,,,,,,,,,,,,,,,,,,,196.73000139999203,196.74574049998773,197.2459560999996,197.22922320000362,197.23208550002892,197.2459560999996,197.2459560999996,197.2459560999996,199.99625239998568,Objects\099a.jpg,pre,o,2.7457667000126094,None,,,,,,,,00052,001,2026-01-18_17h03.51.417,MST_test,2024.2.0,59.98778648445751,2026-01-18 17h04.03.098799 +0530,
55,0,56,n,0.8077075000037439,None,56,0,55,200.01230030000443,,,,,,,,,,,,,,,,,,,,,,,,,,,,,,,,,,,,,,,,,,,,,,,,,,199.99634459998924,200.01230030000443,200.51258189999498,200.49598409997998,200.4987973999814,200.51258189999498,200.51258189999498,200.51258189999498,201.329541300016,Foils\090a.jpg,none,n,0.8077075000037439,None,,,,,,,,00052,001,2026-01-18_17h03.51.417,MST_test,2024.2.0,59.98778648445751,2026-01-18 17h04.03.098799 +0530,
56,0,57,o,0.8579639000236057,None,57,0,56,201.3456876000273,,,,,,,,,,,,,,,,,,,,,,,,,,,,,,,,,,,,,,,,,,,,,,,,,,201.32963480002945,201.3456876000273,201.8459418999846,201.82921960001113,201.83192510000663,201.8459418999846,201.8459418999846,201.8459418999846,202.7129672000301,Objects\070a.jpg,pre,o,0.8579639000236057,None,,,,,,,,00052,001,2026-01-18_17h03.51.417,MST_test,2024.2.0,59.98778648445751,2026-01-18 17h04.03.098799 +0530,
57,0,58,s,1.2900058000232093,None,58,0,57,202.7289520999766,,,,,,,,,,,,,,,,,,,,,,,,,,,,,,,,,,,,,,,,,,,,,,,,,,202.7130593000329,202.7289520999766,203.22973999998067,203.21262170001864,203.22774190001655,203.22973999998067,203.22973999998067,203.22973999998067,204.52950320002856,Scenes\132b.jpg,pre,s,1.2900058000232093,None,,,,,,,,00052,001,2026-01-18_17h03.51.417,MST_test,2024.2.0,59.98778648445751,2026-01-18 17h04.03.098799 +0530,
58,0,59,n,0.8654624999617226,None,59,0,58,204.54571610002313,,,,,,,,,,,,,,,,,,,,,,,,,,,,,,,,,,,,,,,,,,,,,,,,,,204.52959599997848,204.54571610002313,205.0462850999902,205.0291277000215,205.03986100002658,205.0462850999902,205.0462850999902,205.0462850999902,205.91302019997966,Scenes\043a.jpg,mid,n,0.8654624999617226,None,,,,,,,,00052,001,2026-01-18_17h03.51.417,MST_test,2024.2.0,59.98778648445751,2026-01-18 17h04.03.098799 +0530,
59,0,60,s,1.586169800022617,None,60,0,59,205.9288927000016,,,,,,,,,,,,,,,,,,,,,,,,,,,,,,,,,,,,,,,,,,,,,,,,,,205.91311090003,205.9288927000016,206.42958410002757,206.41271850001067,206.42272400000365,206.42958410002757,206.42958410002757,206.42958410002757,208.02937040000688,Objects\192b.jpg,mid,s,1.586169800022617,None,,,,,,,,00052,001,2026-01-18_17h03.51.417,MST_test,2024.2.0,59.98778648445751,2026-01-18 17h04.03.098799 +0530,
60,0,61,s,1.4378942999755964,None,61,0,60,208.04568420001306,,,,,,,,,,,,,,,,,,,,,,,,,,,,,,,,,,,,,,,,,,,,,,,,,,208.02946310001425,208.04568420001306,208.54588160000276,208.52919869998004,208.5320689000073,208.54588160000276,208.54588160000276,208.54588160000276,209.99626159999752,Objects\069b.jpg,mid,s,1.4378942999755964,None,,,,,,,,00052,001,2026-01-18_17h03.51.417,MST_test,2024.2.0,59.98778648445751,2026-01-18 17h04.03.098799 +0530,
61,0,62,n,1.92037419998087,None,62,0,61,210.01248139998643,,,,,,,,,,,,,,,,,,,,,,,,,,,,,,,,,,,,,,,,,,,,,,,,,,209.99635239999043,210.01248139998643,210.51249629998347,210.49586879997514,210.49823889997788,210.51249629998347,210.51249629998347,210.51249629998347,212.44643810001435,Foils\113a.jpg,none,n,1.92037419998087,None,,,,,,,,00052,001,2026-01-18_17h03.51.417,MST_test,2024.2.0,59.98778648445751,2026-01-18 17h04.03.098799 +0530,
62,0,63,s,2.8645019000396132,None,63,0,62,212.46235180000076,,,,,,,,,,,,,,,,,,,,,,,,,,,,,,,,,,,,,,,,,,,,,,,,,,212.44652960001258,212.46235180000076,212.96789189998526,212.9461214999901,212.96579400001792,212.96789189998526,212.96789189998526,212.96789189998526,215.8464741000207,Scenes\088b.jpg,pre,s,2.8645019000396132,None,,,,,,,,00052,001,2026-01-18_17h03.51.417,MST_test,2024.2.0,59.98778648445751,2026-01-18 17h04.03.098799 +0530,
63,0,64,s,1.0134084000019357,None,64,0,63,215.86242040002253,,,,,,,,,,,,,,,,,,,,,,,,,,,,,,,,,,,,,,,,,,,,,,,,,,215.8465757999802,215.86242040002253,216.3629232000094,216.34588430001168,216.34900540002855,216.3629232000094,216.3629232000094,216.3629232000094,217.3800448999973,Objects\091a.jpg,mid,s,1.0134084000019357,None,,,,,,,,00052,001,2026-01-18_17h03.51.417,MST_test,2024.2.0,59.98778648445751,2026-01-18 17h04.03.098799 +0530,
64,0,65,o,2.033571000036318,None,65,0,64,217.39583430002676,,,,,,,,,,,,,,,,,,,,,,,,,,,,,,,,,,,,,,,,,,,,,,,,,,217.3801450000028,217.39583430002676,217.89593270001933,217.87913820001995,217.88867790001677,217.89593270001933,217.89593270001933,217.89593270001933,219.94618869997794,Objects\018b.jpg,pre,o,2.033571000036318,None,,,,,,,,00052,001,2026-01-18_17h03.51.417,MST_test,2024.2.0,59.98778648445751,2026-01-18 17h04.03.098799 +0530,
65,0,66,o,0.7296907000127248,None,66,0,65,219.96236499998486,,,,,,,,,,,,,,,,,,,,,,,,,,,,,,,,,,,,,,,,,,,,,,,,,,219.94627800001763,219.96236499998486,220.46298409998417,220.4459257000126,220.4489611000172,220.46298409998417,220.46298409998417,220.46298409998417,221.19626290001906,Foils\scenes11.jpg,none,o,0.7296907000127248,None,,,,,,,,00052,001,2026-01-18_17h03.51.417,MST_test,2024.2.0,59.98778648445751,2026-01-18 17h04.03.098799 +0530,
66,0,67,s,1.6639203000231646,None,67,0,66,221.21236060000956,,,,,,,,,,,,,,,,,,,,,,,,,,,,,,,,,,,,,,,,,,,,,,,,,,221.19635809998726,221.21236060000956,221.71274950000225,221.69594679999864,221.7053942999919,221.71274950000225,221.71274950000225,221.71274950000225,223.3796726000146,Objects\013b.jpg,post,s,1.6639203000231646,None,,,,,,,,00052,001,2026-01-18_17h03.51.417,MST_test,2024.2.0,59.98778648445751,2026-01-18 17h04.03.098799 +0530,
67,0,68,n,3.0402305999887176,None,68,0,67,223.3957363999798,,,,,,,,,,,,,,,,,,,,,,,,,,,,,,,,,,,,,,,,,,,,,,,,,,223.3797735000262,223.3957363999798,223.89608069998212,223.87919479998527,223.88786060002167,223.89608069998212,223.89608069998212,223.89608069998212,226.94628760003252,Foils\scenes17.jpg,none,n,3.0402305999887176,None,,,,,,,,00052,001,2026-01-18_17h03.51.417,MST_test,2024.2.0,59.98778648445751,2026-01-18 17h04.03.098799 +0530,
68,0,69,o,1.0899494999903254,None,69,0,68,226.9623750000028,,,,,,,,,,,,,,,,,,,,,,,,,,,,,,,,,,,,,,,,,,,,,,,,,,226.94637939997483,226.9623750000028,227.462761999981,227.44609600002877,227.45515980001073,227.462761999981,227.462761999981,227.462761999981,228.56291650002822,Scenes\021a.jpg,post,o,1.0899494999903254,None,,,,,,,,00052,001,2026-01-18_17h03.51.417,MST_test,2024.2.0,59.98778648445751,2026-01-18 17h04.03.098799 +0530,
69,0,70,o,3.2645420000189915,None,70,0,69,228.57890229998156,,,,,,,,,,,,,,,,,,,,,,,,,,,,,,,,,,,,,,,,,,,,,,,,,,228.56300899997586,228.57890229998156,229.0793943000026,229.0626189999748,229.06646180001553,229.0793943000026,229.0793943000026,229.0793943000026,232.34636109997518,Foils\002a.jpg,none,o,3.2645420000189915,None,,,,,,,,00052,001,2026-01-18_17h03.51.417,MST_test,2024.2.0,59.98778648445751,2026-01-18 17h04.03.098799 +0530,
70,0,71,o,1.2014821999473497,None,71,0,70,232.36229070002446,,,,,,,,,,,,,,,,,,,,,,,,,,,,,,,,,,,,,,,,,,,,,,,,,,232.34645650000311,232.36229070002446,232.86264669999946,232.8460289000068,232.85576210002182,232.86264669999946,232.86264669999946,232.86264669999946,234.0794890000252,Objects\130b.jpg,post,o,1.2014821999473497,None,,,,,,,,00052,001,2026-01-18_17h03.51.417,MST_test,2024.2.0,59.98778648445751,2026-01-18 17h04.03.098799 +0530,
71,0,72,o,0.8678931000176817,None,72,0,71,234.09569580003154,,,,,,,,,,,,,,,,,,,,,,,,,,,,,,,,,,,,,,,,,,,,,,,,,,234.07958399999188,234.09569580003154,234.59589699999196,234.5792065000278,234.58178579999367,234.59589699999196,234.59589699999196,234.59589699999196,235.47966559999622,Objects\145b.jpg,pre,o,0.8678931000176817,None,,,,,,,,00052,001,2026-01-18_17h03.51.417,MST_test,2024.2.0,59.98778648445751,2026-01-18 17h04.03.098799 +0530,
72,0,73,o,1.9707013999577612,None,73,0,72,235.49571460002335,,,,,,,,,,,,,,,,,,,,,,,,,,,,,,,,,,,,,,,,,,,,,,,,,,235.4797706999816,235.49571460002335,235.99715070001548,235.97927770001115,235.99474120000377,235.99715070001548,235.99715070001548,235.99715070001548,237.97968109999783,Scenes\137b.jpg,pre,o,1.9707013999577612,None,,,,,,,,00052,001,2026-01-18_17h03.51.417,MST_test,2024.2.0,59.98778648445751,2026-01-18 17h04.03.098799 +0530,
73,0,74,s,1.917692499991972,None,74,0,73,237.99600699997973,,,,,,,,,,,,,,,,,,,,,,,,,,,,,,,,,,,,,,,,,,,,,,,,,,237.97977979999268,237.99600699997973,238.49858339998173,238.47947169997497,238.49644710001303,238.49858339998173,238.49858339998173,238.49858339998173,240.42958390002605,Scenes\072b.jpg,post,s,1.917692499991972,None,,,,,,,,00052,001,2026-01-18_17h03.51.417,MST_test,2024.2.0,59.98778648445751,2026-01-18 17h04.03.098799 +0530,
74,0,75,o,1.790312500030268,None,75,0,74,240.44570310000563,,,,,,,,,,,,,,,,,,,,,,,,,,,,,,,,,,,,,,,,,,,,,,,,,,240.42967990000034,240.44570310000563,240.9462120999815,240.92913479998242,240.93856709997635,240.9462120999815,240.9462120999815,240.9462120999815,242.7462900999817,Scenes\004a.jpg,post,o,1.790312500030268,None,,,,,,,,00052,001,2026-01-18_17h03.51.417,MST_test,2024.2.0,59.98778648445751,2026-01-18 17h04.03.098799 +0530,
75,0,76,n,1.3530234000063501,None,76,0,75,242.76234239997575,,,,,,,,,,,,,,,,,,,,,,,,,,,,,,,,,,,,,,,,,,,,,,,,,,242.7463864000165,242.76234239997575,243.2629768999759,243.2459387999843,243.24836600001436,243.2629768999759,243.2629768999759,243.2629768999759,244.62943059997633,Foils\scenes3.jpg,none,n,1.3530234000063501,None,,,,,,,,00052,001,2026-01-18_17h03.51.417,MST_test,2024.2.0,59.98778648445751,2026-01-18 17h04.03.098799 +0530,
76,0,77,s,1.7586481000180356,None,77,0,76,244.64564180001616,,,,,,,,,,,,,,,,,,,,,,,,,,,,,,,,,,,,,,,,,,,,,,,,,,244.6295224999776,244.64564180001616,245.14607630000683,245.1295194000122,245.14042559999507,245.14607630000683,245.14607630000683,245.14607630000683,246.91309170000022,Objects\138b.jpg,post,s,1.7586481000180356,None,,,,,,,,00052,001,2026-01-18_17h03.51.417,MST_test,2024.2.0,59.98778648445751,2026-01-18 17h04.03.098799 +0530,
77,0,78,o,1.7946184999891557,None,78,0,77,246.92884180002147,,,,,,,,,,,,,,,,,,,,,,,,,,,,,,,,,,,,,,,,,,,,,,,,,,246.9131852000137,246.92884180002147,247.42947730002925,247.41293049999513,247.4171115999925,247.42947730002925,247.42947730002925,247.42947730002925,249.22962639998877,Scenes\061b.jpg,mid,o,1.7946184999891557,None,,,,,,,,00052,001,2026-01-18_17h03.51.417,MST_test,2024.2.0,59.98778648445751,2026-01-18 17h04.03.098799 +0530,
78,0,79,n,1.796711100032553,None,79,0,78,249.2457110999967,,,,,,,,,,,,,,,,,,,,,,,,,,,,,,,,,,,,,,,,,,,,,,,,,,249.22972320002737,249.2457110999967,249.7471064000274,249.7292799000279,249.74518790002912,249.7471064000274,249.7471064000274,249.7471064000274,251.54633470001863,Scenes\131b.jpg,pre,n,1.796711100032553,None,,,,,,,,00052,001,2026-01-18_17h03.51.417,MST_test,2024.2.0,59.98778648445751,2026-01-18 17h04.03.098799 +0530,
79,0,80,o,0.841583899979014,None,80,0,79,251.56249759998173,,,,,,,,,,,,,,,,,,,,,,,,,,,,,,,,,,,,,,,,,,,,,,,,,,251.54642849997617,251.56249759998173,252.06291300000157,252.04616389999865,252.04939930001274,252.06291300000157,252.06291300000157,252.06291300000157,252.9131116999779,Objects\073a.jpg,post,o,0.841583899979014,None,,,,,,,,00052,001,2026-01-18_17h03.51.417,MST_test,2024.2.0,59.98778648445751,2026-01-18 17h04.03.098799 +0530,
80,0,81,o,1.2108019000152126,None,81,0,80,252.92915500001982,,,,,,,,,,,,,,,,,,,,,,,,,,,,,,,,,,,,,,,,,,,,,,,,,,252.91321189998416,252.92915500001982,253.42928240000037,253.41305550001562,253.41573599999538,253.42928240000037,253.42928240000037,253.42928240000037,254.64660719997482,Objects\173a.jpg,post,o,1.2108019000152126,None,,,,,,,,00052,001,2026-01-18_17h03.51.417,MST_test,2024.2.0,59.98778648445751,2026-01-18 17h04.03.098799 +0530,
81,0,82,n,2.181579900032375,None,82,0,81,254.66244119999465,,,,,,,,,,,,,,,,,,,,,,,,,,,,,,,,,,,,,,,,,,,,,,,,,,254.64669870003127,254.66244119999465,255.16287980001653,255.14603579998948,255.15681830001995,255.16287980001653,255.16287980001653,255.16287980001653,257.3463560999953,Foils\scenes20.jpg,none,n,2.181579900032375,None,,,,,,,,00052,001,2026-01-18_17h03.51.417,MST_test,2024.2.0,59.98778648445751,2026-01-18 17h04.03.098799 +0530,
82,0,83,o,2.360867600014899,None,83,0,82,257.3623811000143,,,,,,,,,,,,,,,,,,,,,,,,,,,,,,,,,,,,,,,,,,,,,,,,,,257.3464646000066,257.3623811000143,257.86282680003205,257.84597860003123,257.8559185999911,257.86282680003205,257.86282680003205,257.86282680003205,260.2297621999751,Scenes\084a.jpg,mid,o,2.360867600014899,None,,,,,,,,00052,001,2026-01-18_17h03.51.417,MST_test,2024.2.0,59.98778648445751,2026-01-18 17h04.03.098799 +0530,
83,0,84,o,1.301435399975162,None,84,0,83,260.2457710999879,,,,,,,,,,,,,,,,,,,,,,,,,,,,,,,,,,,,,,,,,,,,,,,,,,260.22985539998626,260.2457710999879,260.74628429999575,260.7294703000225,260.74012020003283,260.74628429999575,260.74628429999575,260.74628429999575,262.0630712999846,Objects\084b.jpg,pre,o,1.301435399975162,None,,,,,,,,00052,001,2026-01-18_17h03.51.417,MST_test,2024.2.0,59.98778648445751,2026-01-18 17h04.03.098799 +0530,
84,0,85,o,0.8848110000253655,None,85,0,84,262.0789441000088,,,,,,,,,,,,,,,,,,,,,,,,,,,,,,,,,,,,,,,,,,,,,,,,,,262.0631729000015,262.0789441000088,262.57907620002516,262.5627326000249,262.5652459000121,262.57907620002516,262.57907620002516,262.57907620002516,263.479540499975,Objects\106a.jpg,pre,o,0.8848110000253655,None,,,,,,,,00052,001,2026-01-18_17h03.51.417,MST_test,2024.2.0,59.98778648445751,2026-01-18 17h04.03.098799 +0530,
85,0,86,o,2.516139800020028,None,86,0,85,263.4959041000111,,,,,,,,,,,,,,,,,,,,,,,,,,,,,,,,,,,,,,,,,,,,,,,,,,263.4796300000162,263.4959041000111,263.99596550001297,263.97913769999286,263.98162620002404,263.99596550001297,263.99596550001297,263.99596550001297,266.5130159999826,Objects\172a.jpg,post,o,2.516139800020028,None,,,,,,,,00052,001,2026-01-18_17h03.51.417,MST_test,2024.2.0,59.98778648445751,2026-01-18 17h04.03.098799 +0530,
86,0,87,o,0.7796022999682464,None,87,0,86,266.52906289999373,,,,,,,,,,,,,,,,,,,,,,,,,,,,,,,,,,,,,,,,,,,,,,,,,,266.51312120002694,266.52906289999373,267.0291725000134,267.0128388000303,267.0155558999977,267.0291725000134,267.0291725000134,267.0291725000134,267.8130315000308,Objects\119a.jpg,mid,o,0.7796022999682464,None,,,,,,,,00052,001,2026-01-18_17h03.51.417,MST_test,2024.2.0,59.98778648445751,2026-01-18 17h04.03.098799 +0530,
87,0,88,n,1.2629809000063688,None,88,0,87,267.82913079997525,,,,,,,,,,,,,,,,,,,,,,,,,,,,,,,,,,,,,,,,,,,,,,,,,,267.8131227000267,267.82913079997525,268.32938539999304,268.31272420001915,268.315205699997,268.32938539999304,268.32938539999304,268.32938539999304,269.59664920001524,Foils\042a.jpg,none,n,1.2629809000063688,None,,,,,,,,00052,001,2026-01-18_17h03.51.417,MST_test,2024.2.0,59.98778648445751,2026-01-18 17h04.03.098799 +0530,
88,0,89,n,1.847779800009448,None,89,0,88,269.6123503000126,,,,,,,,,,,,,,,,,,,,,,,,,,,,,,,,,,,,,,,,,,,,,,,,,,269.5967733000289,269.6123503000126,270.1129878999782,270.09606940002413,270.1062185000046,270.1129878999782,270.1129878999782,270.1129878999782,271.963101500005,Scenes\128a.jpg,post,n,1.847779800009448,None,,,,,,,,00052,001,2026-01-18_17h03.51.417,MST_test,2024.2.0,59.98778648445751,2026-01-18 17h04.03.098799 +0530,
89,0,90,o,0.8641668999916874,None,90,0,89,271.9789726000163,,,,,,,,,,,,,,,,,,,,,,,,,,,,,,,,,,,,,,,,,,,,,,,,,,271.96319630002836,271.9789726000163,272.47949739999603,272.46277640003245,272.47345819999464,272.47949739999603,272.47949739999603,272.47949739999603,273.34630640002433,Objects\123b.jpg,pre,o,0.8641668999916874,None,,,,,,,,00052,001,2026-01-18_17h03.51.417,MST_test,2024.2.0,59.98778648445751,2026-01-18 17h04.03.098799 +0530,
90,0,91,o,0.8656731999944896,None,91,0,90,273.3624200000195,,,,,,,,,,,,,,,,,,,,,,,,,,,,,,,,,,,,,,,,,,,,,,,,,,273.3463975000195,273.3624200000195,273.8627643000218,273.84604500001296,273.855486400018,273.8627643000218,273.8627643000218,273.8627643000218,274.7296310000238,Objects\075b.jpg,mid,o,0.8656731999944896,None,,,,,,,,00052,001,2026-01-18_17h03.51.417,MST_test,2024.2.0,59.98778648445751,2026-01-18 17h04.03.098799 +0530,
91,0,92,n,0.9698664000025019,None,92,0,91,274.7456623999751,,,,,,,,,,,,,,,,,,,,,,,,,,,,,,,,,,,,,,,,,,,,,,,,,,274.72972350002965,274.7456623999751,275.24631409998983,275.2293743999908,275.23530469997786,275.24631409998983,275.24631409998983,275.24631409998983,276.2297170999809,Scenes\175a.jpg,mid,n,0.9698664000025019,None,,,,,,,,00052,001,2026-01-18_17h03.51.417,MST_test,2024.2.0,59.98778648445751,2026-01-18 17h04.03.098799 +0530,
92,0,93,o,0.7657593000330962,None,93,0,92,276.24584340001456,,,,,,,,,,,,,,,,,,,,,,,,,,,,,,,,,,,,,,,,,,,,,,,,,,276.2298109999974,276.24584340001456,276.7462463999982,276.72933360002935,276.73232090001693,276.7462463999982,276.7462463999982,276.7462463999982,277.51299469999503,Objects\092a.jpg,mid,o,0.7657593000330962,None,,,,,,,,00052,001,2026-01-18_17h03.51.417,MST_test,2024.2.0,59.98778648445751,2026-01-18 17h04.03.098799 +0530,
93,0,94,o,0.8103834000066854,None,94,0,93,277.52907609997783,,,,,,,,,,,,,,,,,,,,,,,,,,,,,,,,,,,,,,,,,,,,,,,,,,277.5130882000085,277.52907609997783,278.0294134999858,278.01265260000946,278.01904679997824,278.0294134999858,278.0294134999858,278.0294134999858,278.8462860999862,Scenes\179a.jpg,post,o,0.8103834000066854,None,,,,,,,,00052,001,2026-01-18_17h03.51.417,MST_test,2024.2.0,59.98778648445751,2026-01-18 17h04.03.098799 +0530,
94,0,95,n,2.9974196000257507,None,95,0,94,278.86270210001385,,,,,,,,,,,,,,,,,,,,,,,,,,,,,,,,,,,,,,,,,,,,,,,,,,278.8463756000274,278.86270210001385,279.3629342999775,279.3460601000115,279.36085009999806,279.3629342999775,279.3629342999775,279.3629342999775,282.3629627000191,Scenes\050b.jpg,pre,n,2.9974196000257507,None,,,,,,,,00052,001,2026-01-18_17h03.51.417,MST_test,2024.2.0,59.98778648445751,2026-01-18 17h04.03.098799 +0530,
95,0,96,o,0.9126672000274993,None,96,0,95,282.37898690003203,,,,,,,,,,,,,,,,,,,,,,,,,,,,,,,,,,,,,,,,,,,,,,,,,,282.3630551000242,282.37898690003203,282.8795918999822,282.8627834999934,282.87277560000075,282.8795918999822,282.8795918999822,282.8795918999822,283.79636650002794,Objects\008b.jpg,post,o,0.9126672000274993,None,,,,,,,,00052,001,2026-01-18_17h03.51.417,MST_test,2024.2.0,59.98778648445751,2026-01-18 17h04.03.098799 +0530,
96,0,97,o,2.0318284000386484,None,97,0,96,283.8123414000147,,,,,,,,,,,,,,,,,,,,,,,,,,,,,,,,,,,,,,,,,,,,,,,,,,283.79645570000866,283.8123414000147,284.31271800003015,284.29631730000256,284.3064786000177,284.31271800003015,284.31271800003015,284.31271800003015,286.34623550000833,Objects\185b.jpg,mid,o,2.0318284000386484,None,,,,,,,,00052,001,2026-01-18_17h03.51.417,MST_test,2024.2.0,59.98778648445751,2026-01-18 17h04.03.098799 +0530,
97,0,98,o,1.3450237000361085,None,98,0,97,286.3623459999799,,,,,,,,,,,,,,,,,,,,,,,,,,,,,,,,,,,,,,,,,,,,,,,,,,286.3463266000035,286.3623459999799,286.86269149999134,286.845995199983,286.8483990000095,286.86269149999134,286.86269149999134,286.86269149999134,288.2129944000044,Scenes\053a.jpg,pre,o,1.3450237000361085,None,,,,,,,,00052,001,2026-01-18_17h03.51.417,MST_test,2024.2.0,59.98778648445751,2026-01-18 17h04.03.098799 +0530,
98,0,99,o,0.7514508999884129,None,99,0,98,288.2289778999984,,,,,,,,,,,,,,,,,,,,,,,,,,,,,,,,,,,,,,,,,,,,,,,,,,288.213084899995,288.2289778999984,288.72931959998095,288.7125871999888,288.719512199983,288.72931959998095,288.72931959998095,288.72931959998095,289.4962182000163,Scenes\079a.jpg,post,o,0.7514508999884129,None,,,,,,,,00052,001,2026-01-18_17h03.51.417,MST_test,2024.2.0,59.98778648445751,2026-01-18 17h04.03.098799 +0530,
99,0,100,o,0.6750153999892063,None,100,0,99,289.512388299976,,,,,,,,,,,,,,,,,,,,,,,,,,,,,,,,,,,,,,,,,,,,,,,,,,289.49630790000083,289.512388299976,290.01313749997644,289.9959577000118,290.00530070002424,290.01313749997644,290.01313749997644,290.01313749997644,290.69633619999513,Scenes\013a.jpg,mid,o,0.6750153999892063,None,,,,,,,,00052,001,2026-01-18_17h03.51.417,MST_test,2024.2.0,59.98778648445751,2026-01-18 17h04.03.098799 +0530,
100,0,101,o,0.6191329000284895,None,101,0,100,290.71234969998477,,,,,,,,,,,,,,,,,,,,,,,,,,,,,,,,,,,,,,,,,,,,,,,,,,290.6964337999816,290.71234969998477,291.2129595000297,291.19596570002614,291.20616750000045,291.2129595000297,291.2129595000297,291.2129595000297,291.8463170999894,Objects\100b.jpg,pre,o,0.6191329000284895,None,,,,,,,,00052,001,2026-01-18_17h03.51.417,MST_test,2024.2.0,59.98778648445751,2026-01-18 17h04.03.098799 +0530,
101,0,102,o,1.7655023999977857,None,102,0,101,291.8623249999946,,,,,,,,,,,,,,,,,,,,,,,,,,,,,,,,,,,,,,,,,,,,,,,,,,291.8464076999808,291.8623249999946,292.36281979997875,292.3460650999914,292.3549735000124,292.36281979997875,292.36281979997875,292.36281979997875,294.1296273000189,Foils\scenes2.jpg,none,o,1.7655023999977857,None,,,,,,,,00052,001,2026-01-18_17h03.51.417,MST_test,2024.2.0,59.98778648445751,2026-01-18 17h04.03.098799 +0530,
102,0,103,o,0.6343224999727681,None,103,0,102,294.14571609999985,,,,,,,,,,,,,,,,,,,,,,,,,,,,,,,,,,,,,,,,,,,,,,,,,,294.12971800001105,294.14571609999985,294.6461154000135,294.62915140000405,294.63180979999015,294.6461154000135,294.6461154000135,294.6461154000135,295.2965694000013,Objects\168a.jpg,post,o,0.6343224999727681,None,,,,,,,,00052,001,2026-01-18_17h03.51.417,MST_test,2024.2.0,59.98778648445751,2026-01-18 17h04.03.098799 +0530,
103,0,104,s,3.4596734000369906,None,104,0,103,295.3123237999971,,,,,,,,,,,,,,,,,,,,,,,,,,,,,,,,,,,,,,,,,,,,,,,,,,295.2966604999965,295.3123237999971,295.8126557000214,295.7960692999768,295.8054453000077,295.8126557000214,295.8126557000214,295.8126557000214,299.27951359999133,Objects\076b.jpg,pre,s,3.4596734000369906,None,,,,,,,,00052,001,2026-01-18_17h03.51.417,MST_test,2024.2.0,59.98778648445751,2026-01-18 17h04.03.098799 +0530,
104,0,105,o,1.5233593000448309,None,105,0,104,299.2957923000213,,,,,,,,,,,,,,,,,,,,,,,,,,,,,,,,,,,,,,,,,,,,,,,,,,299.27960700000403,299.2957923000213,299.79634810000425,299.77925199997844,299.78963359998306,299.79634810000425,299.79634810000425,299.79634810000425,301.3295090000029,Objects\051b.jpg,post,o,1.5233593000448309,None,,,,,,,,00052,001,2026-01-18_17h03.51.417,MST_test,2024.2.0,59.98778648445751,2026-01-18 17h04.03.098799 +0530,
105,0,106,o,1.3932461999938823,None,106,0,105,301.3457464000094,,,,,,,,,,,,,,,,,,,,,,,,,,,,,,,,,,,,,,,,,,,,,,,,,,301.3295999999973,301.3457464000094,301.8463986000279,301.82911839999724,301.83701780001866,301.8463986000279,301.8463986000279,301.8463986000279,303.24625040002866,Scenes\178b.jpg,mid,o,1.3932461999938823,None,,,,,,,,00052,001,2026-01-18_17h03.51.417,MST_test,2024.2.0,59.98778648445751,2026-01-18 17h04.03.098799 +0530,
106,0,107,n,1.0367655000300147,None,107,0,106,303.26240710000275,,,,,,,,,,,,,,,,,,,,,,,,,,,,,,,,,,,,,,,,,,,,,,,,,,303.2463409000193,303.26240710000275,303.7629523000214,303.7460621999926,303.7497883000178,303.7629523000214,303.7629523000214,303.7629523000214,304.81296040001325,Objects\133b.jpg,post,n,1.0367655000300147,None,,,,,,,,00052,001,2026-01-18_17h03.51.417,MST_test,2024.2.0,59.98778648445751,2026-01-18 17h04.03.098799 +0530,
107,0,108,o,1.1118769000167958,None,108,0,107,304.82900530000916,,,,,,,,,,,,,,,,,,,,,,,,,,,,,,,,,,,,,,,,,,,,,,,,,,304.81305150000844,304.82900530000916,305.32946889998857,305.3126650999766,305.3185927000013,305.32946889998857,305.32946889998857,305.32946889998857,306.4463504999876,Scenes\007a.jpg,post,o,1.1118769000167958,None,,,,,,,,00052,001,2026-01-18_17h03.51.417,MST_test,2024.2.0,59.98778648445751,2026-01-18 17h04.03.098799 +0530,
108,0,109,n,4.34889949997887,None,109,0,108,306.46238420001464,,,,,,,,,,,,,,,,,,,,,,,,,,,,,,,,,,,,,,,,,,,,,,,,,,306.4464423999889,306.46238420001464,306.9628738000174,306.9459784000064,306.9481835999759,306.9628738000174,306.9628738000174,306.9628738000174,311.3130253999843,Foils\scenes18.jpg,none,n,4.34889949997887,None,,,,,,,,00052,001,2026-01-18_17h03.51.417,MST_test,2024.2.0,59.98778648445751,2026-01-18 17h04.03.098799 +0530,
109,0,110,s,1.2589424999896437,None,110,0,109,311.3289934999775,,,,,,,,,,,,,,,,,,,,,,,,,,,,,,,,,,,,,,,,,,,,,,,,,,311.31311769998865,311.3289934999775,311.82927829999244,311.81266830000095,311.82131099997787,311.82927829999244,311.82927829999244,311.82927829999244,313.0964638000005,Scenes\078a.jpg,post,s,1.2589424999896437,None,,,,,,,,00052,001,2026-01-18_17h03.51.417,MST_test,2024.2.0,59.98778648445751,2026-01-18 17h04.03.098799 +0530,
110,0,111,o,1.3720024999929592,None,111,0,110,313.1123578000115,,,,,,,,,,,,,,,,,,,,,,,,,,,,,,,,,,,,,,,,,,,,,,,,,,313.0965615999885,313.1123578000115,313.6128631000174,313.5959293000051,313.6056976999971,313.6128631000174,313.6128631000174,313.6128631000174,314.9962898999802,Objects\058b.jpg,mid,o,1.3720024999929592,None,,,,,,,,00052,001,2026-01-18_17h03.51.417,MST_test,2024.2.0,59.98778648445751,2026-01-18 17h04.03.098799 +0530,
111,0,112,o,1.1308009999920614,None,112,0,111,315.0123751999927,,,,,,,,,,,,,,,,,,,,,,,,,,,,,,,,,,,,,,,,,,,,,,,,,,314.99638179998146,315.0123751999927,315.5173072000034,315.4960934999981,315.51522930001374,315.5173072000034,315.5173072000034,315.5173072000034,316.6631712000235,Scenes\105b.jpg,mid,o,1.1308009999920614,None,,,,,,,,00052,001,2026-01-18_17h03.51.417,MST_test,2024.2.0,59.98778648445751,2026-01-18 17h04.03.098799 +0530,
112,0,113,n,1.4742961000301875,None,113,0,112,316.6790780000156,,,,,,,,,,,,,,,,,,,,,,,,,,,,,,,,,,,,,,,,,,,,,,,,,,316.663274999999,316.6790780000156,317.18239829997765,317.1627042000182,317.1803330000257,317.18239829997765,317.18239829997765,317.18239829997765,318.663043699984,Scenes\011b.jpg,mid,n,1.4742961000301875,None,,,,,,,,00052,001,2026-01-18_17h03.51.417,MST_test,2024.2.0,59.98778648445751,2026-01-18 17h04.03.098799 +0530,
113,0,114,s,2.8695373000227846,None,114,0,113,318.67894740001066,,,,,,,,,,,,,,,,,,,,,,,,,,,,,,,,,,,,,,,,,,,,,,,,,,318.66313529998297,318.67894740001066,319.17954640003154,319.1627355000237,319.17134940001415,319.17954640003154,319.17954640003154,319.17954640003154,322.0629258999834,Scenes\058a.jpg,pre,s,2.8695373000227846,None,,,,,,,,00052,001,2026-01-18_17h03.51.417,MST_test,2024.2.0,59.98778648445751,2026-01-18 17h04.03.098799 +0530,
114,0,115,o,1.6360539000015706,None,115,0,114,322.0790006000316,,,,,,,,,,,,,,,,,,,,,,,,,,,,,,,,,,,,,,,,,,,,,,,,,,322.0630164000322,322.0790006000316,322.57988420000765,322.5626333000255,322.5779193000053,322.57988420000765,322.57988420000765,322.57988420000765,324.22957209998276,Scenes\067b.jpg,mid,o,1.6360539000015706,None,,,,,,,,00052,001,2026-01-18_17h03.51.417,MST_test,2024.2.0,59.98778648445751,2026-01-18 17h04.03.098799 +0530,
115,0,116,n,0.853625500050839,None,116,0,115,324.2457209000131,,,,,,,,,,,,,,,,,,,,,,,,,,,,,,,,,,,,,,,,,,,,,,,,,,324.2296640999848,324.2457209000131,324.74617280001985,324.72928179998416,324.74052460002713,324.74617280001985,324.74617280001985,324.74617280001985,325.61298069998156,Scenes\112b.jpg,mid,n,0.853625500050839,None,,,,,,,,00052,001,2026-01-18_17h03.51.417,MST_test,2024.2.0,59.98778648445751,2026-01-18 17h04.03.098799 +0530,
116,0,117,o,1.3743118999991566,None,117,0,116,325.62893250002526,,,,,,,,,,,,,,,,,,,,,,,,,,,,,,,,,,,,,,,,,,,,,,,,,,325.6130719999783,325.62893250002526,326.12950009998167,326.11268189997645,326.1267936999793,326.12950009998167,326.12950009998167,326.12950009998167,327.51310260000173,Scenes\044b.jpg,post,o,1.3743118999991566,None,,,,,,,,00052,001,2026-01-18_17h03.51.417,MST_test,2024.2.0,59.98778648445751,2026-01-18 17h04.03.098799 +0530,
117,0,118,s,2.363052600005176,None,118,0,117,327.52891639998415,,,,,,,,,,,,,,,,,,,,,,,,,,,,,,,,,,,,,,,,,,,,,,,,,,327.5131934999954,327.52891639998415,328.0293497000239,328.01256439997815,328.0158162000007,328.0293497000239,328.0293497000239,328.0293497000239,330.396304599999,Objects\121b.jpg,pre,s,2.363052600005176,None,,,,,,,,00052,001,2026-01-18_17h03.51.417,MST_test,2024.2.0,59.98778648445751,2026-01-18 17h04.03.098799 +0530,
118,0,119,o,4.471888499974739,None,119,0,118,330.4124059000169,,,,,,,,,,,,,,,,,,,,,,,,,,,,,,,,,,,,,,,,,,,,,,,,,,330.3963960999972,330.4124059000169,330.91288329998497,330.8960737999878,330.9016309999861,330.91288329998497,330.91288329998497,330.91288329998497,335.39630159997614,Scenes\118a.jpg,post,o,4.471888499974739,None,,,,,,,,00052,001,2026-01-18_17h03.51.417,MST_test,2024.2.0,59.98778648445751,2026-01-18 17h04.03.098799 +0530,
119,0,120,n,1.4549354999908246,None,120,0,119,335.4124123000074,,,,,,,,,,,,,,,,,,,,,,,,,,,,,,,,,,,,,,,,,,,,,,,,,,335.3963972000056,335.4124123000074,335.91283159999875,335.8960088000167,335.89821299997857,335.91283159999875,335.91283159999875,335.91283159999875,337.3795388999861,Foils\scenes16.jpg,none,n,1.4549354999908246,None,,,,,,,,00052,001,2026-01-18_17h03.51.417,MST_test,2024.2.0,59.98778648445751,2026-01-18 17h04.03.098799 +0530,
120,0,121,n,2.7447167000500485,None,121,0,120,337.3957159999991,,,,,,,,,,,,,,,,,,,,,,,,,,,,,,,,,,,,,,,,,,,,,,,,,,337.37964430003194,337.3957159999991,337.8960681000026,337.8791630999767,337.88939820003,337.8960681000026,337.8960681000026,337.8960681000026,340.6464383000275,Foils\105a.jpg,none,n,2.7447167000500485,None,,,,,,,,00052,001,2026-01-18_17h03.51.417,MST_test,2024.2.0,59.98778648445751,2026-01-18 17h04.03.098799 +0530,
121,0,122,o,1.2612634000252,None,122,0,121,340.66249940003036,,,,,,,,,,,,,,,,,,,,,,,,,,,,,,,,,,,,,,,,,,,,,,,,,,340.64654069999233,340.66249940003036,341.16269239998655,341.1460490000318,341.148701899976,341.16269239998655,341.16269239998655,341.16269239998655,342.429587599996,Objects\096a.jpg,mid,o,1.2612634000252,None,,,,,,,,00052,001,2026-01-18_17h03.51.417,MST_test,2024.2.0,59.98778648445751,2026-01-18 17h04.03.098799 +0530,
122,0,123,o,0.997876199951861,None,123,0,122,342.4457375999773,,,,,,,,,,,,,,,,,,,,,,,,,,,,,,,,,,,,,,,,,,,,,,,,,,342.4296810000087,342.4457375999773,342.94603940000525,342.9295169999823,342.9388104000245,342.94603940000525,342.94603940000525,342.94603940000525,343.9463890999905,Objects\161b.jpg,mid,o,0.997876199951861,None,,,,,,,,00052,001,2026-01-18_17h03.51.417,MST_test,2024.2.0,59.98778648445751,2026-01-18 17h04.03.098799 +0530,
123,0,124,o,0.7057963000261225,None,124,0,123,343.96239739999874,,,,,,,,,,,,,,,,,,,,,,,,,,,,,,,,,,,,,,,,,,,,,,,,,,343.94648029998643,343.96239739999874,344.46259240002837,344.44641219999176,344.45617289998336,344.46259240002837,344.46259240002837,344.46259240002837,345.17956030002097,Objects\031b.jpg,pre,o,0.7057963000261225,None,,,,,,,,00052,001,2026-01-18_17h03.51.417,MST_test,2024.2.0,59.98778648445751,2026-01-18 17h04.03.098799 +0530,
124,0,125,n,1.0485588000155985,None,125,0,124,345.19570590002695,,,,,,,,,,,,,,,,,,,,,,,,,,,,,,,,,,,,,,,,,,,,,,,,,,345.1796518000192,345.19570590002695,345.69593280000845,345.6791542000137,345.68168059998425,345.69593280000845,345.69593280000845,345.69593280000845,346.7462423000252,Foils\073a.jpg,none,n,1.0485588000155985,None,,,,,,,,00052,001,2026-01-18_17h03.51.417,MST_test,2024.2.0,59.98778648445751,2026-01-18 17h04.03.098799 +0530,
125,0,126,n,3.8019174999790266,None,126,0,125,346.76239310001256,,,,,,,,,,,,,,,,,,,,,,,,,,,,,,,,,,,,,,,,,,,,,,,,,,346.74633629998425,346.76239310001256,347.2625536000123,347.2460795000079,347.25579020002624,347.2625536000123,347.2625536000123,347.2625536000123,351.07957479998004,Foils\050a.jpg,none,n,3.8019174999790266,None,,,,,,,,00052,001,2026-01-18_17h03.51.417,MST_test,2024.2.0,59.98778648445751,2026-01-18 17h04.03.098799 +0530,
126,0,127,n,0.6598475000355393,None,127,0,126,351.09567170002265,,,,,,,,,,,,,,,,,,,,,,,,,,,,,,,,,,,,,,,,,,,,,,,,,,351.0796666999813,351.09567170002265,351.59616299998015,351.57927899999777,351.58465229999274,351.59616299998015,351.59616299998015,351.59616299998015,352.26295380003285,Scenes\051a.jpg,mid,n,0.6598475000355393,None,,,,,,,,00052,001,2026-01-18_17h03.51.417,MST_test,2024.2.0,59.98778648445751,2026-01-18 17h04.03.098799 +0530,
127,0,128,n,1.7964395000017248,None,128,0,127,352.27889000001596,,,,,,,,,,,,,,,,,,,,,,,,,,,,,,,,,,,,,,,,,,,,,,,,,,352.2630584000144,352.27889000001596,352.7793419000227,352.76257500000065,352.7662475000252,352.7793419000227,352.7793419000227,352.7793419000227,354.57955899997614,Foils\009a.jpg,none,n,1.7964395000017248,None,,,,,,,,00052,001,2026-01-18_17h03.51.417,MST_test,2024.2.0,59.98778648445751,2026-01-18 17h04.03.098799 +0530,
128,0,129,n,1.4959671999677084,None,129,0,128,354.5957662999863,,,,,,,,,,,,,,,,,,,,,,,,,,,,,,,,,,,,,,,,,,,,,,,,,,354.579651499982,354.5957662999863,355.09596070001135,355.0791664000135,355.0886863999767,355.09596070001135,355.09596070001135,355.09596070001135,356.5963274000096,Foils\082a.jpg,none,n,1.4959671999677084,None,,,,,,,,00052,001,2026-01-18_17h03.51.417,MST_test,2024.2.0,59.98778648445751,2026-01-18 17h04.03.098799 +0530,
129,0,130,o,1.056159200030379,None,130,0,129,356.6123806000105,,,,,,,,,,,,,,,,,,,,,,,,,,,,,,,,,,,,,,,,,,,,,,,,,,356.59642690001056,356.6123806000105,357.1127098000143,357.09662850003224,357.0998194999993,357.1127098000143,357.1127098000143,357.1127098000143,358.179377500026,Objects\182a.jpg,pre,o,1.056159200030379,None,,,,,,,,00052,001,2026-01-18_17h03.51.417,MST_test,2024.2.0,59.98778648445751,2026-01-18 17h04.03.098799 +0530,
130,0,131,o,0.8086345999618061,None,131,0,130,358.1957400999963,,,,,,,,,,,,,,,,,,,,,,,,,,,,,,,,,,,,,,,,,,,,,,,,,,358.17946750001283,358.1957400999963,358.6959420000203,358.679250199988,358.6816145000048,358.6959420000203,358.6959420000203,358.6959420000203,359.51297420001356,Objects\064a.jpg,pre,o,0.8086345999618061,None,,,,,,,,00052,001,2026-01-18_17h03.51.417,MST_test,2024.2.0,59.98778648445751,2026-01-18 17h04.03.098799 +0530,
131,0,132,n,1.2352150999940932,None,132,0,131,359.52904220001074,,,,,,,,,,,,,,,,,,,,,,,,,,,,,,,,,,,,,,,,,,,,,,,,,,359.51306869997643,359.52904220001074,360.0293411000166,360.0126403000322,360.01682930003153,360.0293411000166,360.0293411000166,360.0293411000166,361.27959819999523,Scenes\113a.jpg,mid,n,1.2352150999940932,None,,,,,,,,00052,001,2026-01-18_17h03.51.417,MST_test,2024.2.0,59.98778648445751,2026-01-18 17h04.03.098799 +0530,
132,0,133,s,1.3956618999945931,None,133,0,132,361.295675100002,,,,,,,,,,,,,,,,,,,,,,,,,,,,,,,,,,,,,,,,,,,,,,,,,,361.27968999999575,361.295675100002,361.7961809000117,361.7792378999875,361.78993760002777,361.7961809000117,361.7961809000117,361.7961809000117,363.1963456000085,Scenes\054a.jpg,mid,s,1.3956618999945931,None,,,,,,,,00052,001,2026-01-18_17h03.51.417,MST_test,2024.2.0,59.98778648445751,2026-01-18 17h04.03.098799 +0530,
133,0,134,o,1.4238823999767192,None,134,0,133,363.2124016000307,,,,,,,,,,,,,,,,,,,,,,,,,,,,,,,,,,,,,,,,,,,,,,,,,,363.1964405000326,363.2124016000307,363.71281549998093,363.6959005999961,363.6992050000117,363.71281549998093,363.71281549998093,363.71281549998093,365.146254900028,Objects\050a.jpg,post,o,1.4238823999767192,None,,,,,,,,00052,001,2026-01-18_17h03.51.417,MST_test,2024.2.0,59.98778648445751,2026-01-18 17h04.03.098799 +0530,
134,0,135,n,1.3028293000534177,None,135,0,134,365.16240829997696,,,,,,,,,,,,,,,,,,,,,,,,,,,,,,,,,,,,,,,,,,,,,,,,,,365.14634530001786,365.16240829997696,365.6657311000163,365.64598329999717,365.6635391000309,365.6657311000163,365.6657311000163,365.6657311000163,366.9796383000212,Foils\scenes22.jpg,none,n,1.3028293000534177,None,,,,,,,,00052,001,2026-01-18_17h03.51.417,MST_test,2024.2.0,59.98778648445751,2026-01-18 17h04.03.098799 +0530,
135,0,136,n,4.4242402000236325,None,136,0,135,366.99567239999305,,,,,,,,,,,,,,,,,,,,,,,,,,,,,,,,,,,,,,,,,,,,,,,,,,366.9797395999776,366.99567239999305,367.4964086000109,367.4792690000031,367.49381890002405,367.4964086000109,367.4964086000109,367.4964086000109,371.92995329998666,Scenes\049b.jpg,pre,n,4.4242402000236325,None,,,,,,,,00052,001,2026-01-18_17h03.51.417,MST_test,2024.2.0,59.98778648445751,2026-01-18 17h04.03.098799 +0530,
136,0,137,n,3.4812904999707825,None,137,0,136,371.9457735000178,,,,,,,,,,,,,,,,,,,,,,,,,,,,,,,,,,,,,,,,,,,,,,,,,,371.93005060002906,371.9457735000178,372.4464090000256,372.4294158000266,372.43906699999934,372.4464090000256,372.4464090000256,372.4464090000256,375.93002059997525,Scenes\174a.jpg,mid,n,3.4812904999707825,None,,,,,,,,00052,001,2026-01-18_17h03.51.417,MST_test,2024.2.0,59.98778648445751,2026-01-18 17h04.03.098799 +0530,
137,0,138,n,2.0177801999961957,None,138,0,137,375.94577520003077,,,,,,,,,,,,,,,,,,,,,,,,,,,,,,,,,,,,,,,,,,,,,,,,,,375.9301283999812,375.94577520003077,376.4466284000082,376.42946020001546,376.43686519999756,376.4466284000082,376.4466284000082,376.4466284000082,378.4797974000103,Scenes\126a.jpg,pre,n,2.0177801999961957,None,,,,,,,,00052,001,2026-01-18_17h03.51.417,MST_test,2024.2.0,59.98778648445751,2026-01-18 17h04.03.098799 +0530,
138,0,139,o,1.099251399980858,None,139,0,138,378.4958334999974,,,,,,,,,,,,,,,,,,,,,,,,,,,,,,,,,,,,,,,,,,,,,,,,,,378.47989279998,378.4958334999974,378.99646639998537,378.97935660002986,378.9863233999931,378.99646639998537,378.99646639998537,378.99646639998537,380.0964468999882,Scenes\095a.jpg,post,o,1.099251399980858,None,,,,,,,,00052,001,2026-01-18_17h03.51.417,MST_test,2024.2.0,59.98778648445751,2026-01-18 17h04.03.098799 +0530,
139,0,140,o,0.7067475999938324,None,140,0,139,380.1125073999865,,,,,,,,,,,,,,,,,,,,,,,,,,,,,,,,,,,,,,,,,,,,,,,,,,380.09653759998037,380.1125073999865,380.612986800028,380.59609010000713,380.5992825999856,380.612986800028,380.612986800028,380.612986800028,381.32975410000654,Objects\181a.jpg,pre,o,0.7067475999938324,None,,,,,,,,00052,001,2026-01-18_17h03.51.417,MST_test,2024.2.0,59.98778648445751,2026-01-18 17h04.03.098799 +0530,
140,0,141,o,0.7616595000145026,None,141,0,140,381.34582300001057,,,,,,,,,,,,,,,,,,,,,,,,,,,,,,,,,,,,,,,,,,,,,,,,,,381.3298409000272,381.34582300001057,381.8460775000276,381.82940039999085,381.8317756000324,381.8460775000276,381.8460775000276,381.8460775000276,382.6131920000189,Objects\159a.jpg,pre,o,0.7616595000145026,None,,,,,,,,00052,001,2026-01-18_17h03.51.417,MST_test,2024.2.0,59.98778648445751,2026-01-18 17h04.03.098799 +0530,
141,0,142,o,0.5269838999956846,None,142,0,141,382.62917979998747,,,,,,,,,,,,,,,,,,,,,,,,,,,,,,,,,,,,,,,,,,,,,,,,,,382.6132830000133,382.62917979998747,383.12939740001457,383.11266969999997,383.1150847999961,383.12939740001457,383.12939740001457,383.12939740001457,383.66300860000774,Objects\001a.jpg,mid,o,0.5269838999956846,None,,,,,,,,00052,001,2026-01-18_17h03.51.417,MST_test,2024.2.0,59.98778648445751,2026-01-18 17h04.03.098799 +0530,
142,0,143,o,0.4933378000278026,None,143,0,142,383.67915719997836,,,,,,,,,,,,,,,,,,,,,,,,,,,,,,,,,,,,,,,,,,,,,,,,,,383.66309859999456,383.67915719997836,384.1792370000039,384.16286520002177,384.1653149999911,384.1792370000039,384.1792370000039,384.1792370000039,384.67973129998427,Foils\066a.jpg,none,o,0.4933378000278026,None,,,,,,,,00052,001,2026-01-18_17h03.51.417,MST_test,2024.2.0,59.98778648445751,2026-01-18 17h04.03.098799 +0530,
143,0,144,n,3.5232440000399947,None,144,0,143,384.69587150000734,,,,,,,,,,,,,,,,,,,,,,,,,,,,,,,,,,,,,,,,,,,,,,,,,,384.67982419999316,384.69587150000734,385.1964825000032,385.1793485999806,385.19356980000157,385.1964825000032,385.1964825000032,385.1964825000032,388.7298259999952,Scenes\018b.jpg,post,n,3.5232440000399947,None,,,,,,,,00052,001,2026-01-18_17h03.51.417,MST_test,2024.2.0,59.98778648445751,2026-01-18 17h04.03.098799 +0530,
144,0,145,s,1.3932445999816991,None,145,0,144,388.745895,,,,,,,,,,,,,,,,,,,,,,,,,,,,,,,,,,,,,,,,,,,,,,,,,,388.72991569997976,388.745895,389.24657999997726,389.2295269999886,389.23637150001014,389.24657999997726,389.24657999997726,389.24657999997726,390.6464140000171,Scenes\074b.jpg,mid,s,1.3932445999816991,None,,,,,,,,00052,001,2026-01-18_17h03.51.417,MST_test,2024.2.0,59.98778648445751,2026-01-18 17h04.03.098799 +0530,
145,0,146,o,1.284914799965918,None,146,0,145,390.6625015999889,,,,,,,,,,,,,,,,,,,,,,,,,,,,,,,,,,,,,,,,,,,,,,,,,,390.64650680002524,390.6625015999889,391.16302119998727,391.14615200000117,391.14951110002585,391.16302119998727,391.16302119998727,391.16302119998727,392.4631006999989,Objects\056b.jpg,mid,o,1.284914799965918,None,,,,,,,,00052,001,2026-01-18_17h03.51.417,MST_test,2024.2.0,59.98778648445751,2026-01-18 17h04.03.098799 +0530,
146,0,147,s,1.8285049999831244,None,147,0,146,392.47918770002434,,,,,,,,,,,,,,,,,,,,,,,,,,,,,,,,,,,,,,,,,,,,,,,,,,392.46319320000475,392.47918770002434,392.979324200016,392.962761999981,392.9723070000182,392.979324200016,392.979324200016,392.979324200016,394.81336349999765,Foils\033a.jpg,none,s,1.8285049999831244,None,,,,,,,,00052,001,2026-01-18_17h03.51.417,MST_test,2024.2.0,59.98778648445751,2026-01-18 17h04.03.098799 +0530,
147,0,148,s,0.8865147000178695,None,148,0,147,394.8289960999973,,,,,,,,,,,,,,,,,,,,,,,,,,,,,,,,,,,,,,,,,,,,,,,,,,394.81346079998184,394.8289960999973,395.32944569998654,395.3127709000255,395.3227743000025,395.32944569998654,395.32944569998654,395.32944569998654,396.229590700008,Scenes\125a.jpg,pre,s,0.8865147000178695,None,,,,,,,,00052,001,2026-01-18_17h03.51.417,MST_test,2024.2.0,59.98778648445751,2026-01-18 17h04.03.098799 +0530,
148,0,149,n,0.9346712999977171,None,149,0,148,396.24585250002565,,,,,,,,,,,,,,,,,,,,,,,,,,,,,,,,,,,,,,,,,,,,,,,,,,396.22968160000164,396.24585250002565,396.7463346000295,396.72945550002623,396.7328571000253,396.7463346000295,396.7463346000295,396.7463346000295,397.6963753000018,Foils\010a.jpg,none,n,0.9346712999977171,None,,,,,,,,00052,001,2026-01-18_17h03.51.417,MST_test,2024.2.0,59.98778648445751,2026-01-18 17h04.03.098799 +0530,
149,0,150,s,1.4671102999709547,None,150,0,149,397.71250959997997,,,,,,,,,,,,,,,,,,,,,,,,,,,,,,,,,,,,,,,,,,,,,,,,,,397.6964688000153,397.71250959997997,398.21302989998367,398.1963105999748,398.2031769999885,398.21302989998367,398.21302989998367,398.21302989998367,399.6964648999856,Scenes\138a.jpg,pre,s,1.4671102999709547,None,,,,,,,,00052,001,2026-01-18_17h03.51.417,MST_test,2024.2.0,59.98778648445751,2026-01-18 17h04.03.098799 +0530,
,,,,,,,,,,,,,,,,,,,,,,,,,,,,,,,,,,,,,,,,,,,,,,,,,,,,,,,,,,,,,,,,,,,,,,,,,399.69652920000954,399.71261930000037,399.71261930000037,402.4129125000327,space,2.6877177000278607,None,00052,001,2026-01-18_17h03.51.417,MST_test,2024.2.0,59.98778648445751,2026-01-18 17h04.03.098799 +0530,
