thisN,thisTrialN,thisRepN,key_resp_3.keys,key_resp_3.rt,key_resp_3.duration,trials.thisRepN,trials.thisTrialN,trials.thisN,thisRow.t,notes,intro_page.started,text.started,key_resp.started,intro_page.stopped,key_resp.keys,key_resp.rt,key_resp.duration,instructions.started,text_2.started,key_resp_2.started,instructions.stopped,key_resp_2.keys,key_resp_2.rt,key_resp_2.duration,demo1.started,image_1.started,image_2.started,text_7.started,key_resp_6.started,text_9.started,demo1.stopped,key_resp_6.keys,key_resp_6.rt,key_resp_6.duration,demo2.started,image_5.started,image_6.started,text_11.started,text_12.started,key_resp_8.started,demo2.stopped,key_resp_8.keys,key_resp_8.rt,key_resp_8.duration,demo_conclusion.started,text_13.started,key_resp_9.started,demo_conclusion.stopped,key_resp_9.keys,key_resp_9.rt,key_resp_9.duration,start_test.started,text_6.started,key_resp_5.started,start_test.stopped,key_resp_5.keys,key_resp_5.rt,key_resp_5.duration,ISI.started,text_4.started,text_4.stopped,ISI.stopped,routine_1.started,image.started,text_3.started,key_resp_3.started,routine_1.stopped,image_path,position_of_stimuli,trials.key_resp_3.keys,trials.key_resp_3.rt,trials.key_resp_3.duration,End_page.started,text_5.started,key_resp_4.started,End_page.stopped,key_resp_4.keys,key_resp_4.rt,key_resp_4.duration,participant,session,date,expName,psychopyVersion,frameRate,expStart,
,,,,,,,,,,,0.0012040000292472541,0.002761300012934953,0.002761300012934953,2.3500075000338256,space,2.343558300053701,None,,,,,,,,,,,,,,,,,,,,,,,,,,,,,,,,,,,,,,,,,,,,,,,,,,,,,,,,,,,,,,,00050,001,2026-01-18_15h27.16.543,MST_test,2024.2.0,60.00765697944809,2026-01-18 15h27.23.607047 +0530,
,,,,,,,,,,,,,,,,,,2.350039499986451,2.3646214000182226,2.3646214000182226,12.181759300001431,space,9.813360700034536,None,,,,,,,,,,,,,,,,,,,,,,,,,,,,,,,,,,,,,,,,,,,,,,,,,,,,,,,,00050,001,2026-01-18_15h27.16.543,MST_test,2024.2.0,60.00765697944809,2026-01-18 15h27.23.607047 +0530,
,,,,,,,,,,,,,,,,,,,,,,,,,12.1817863000324,12.198560899996664,12.198560899996664,12.198560899996664,12.198560899996664,12.198560899996664,14.44876130000921,space,2.2429536000126973,None,,,,,,,,,,,,,,,,,,,,,,,,,,,,,,,,,,,,,,,,,,,,,,00050,001,2026-01-18_15h27.16.543,MST_test,2024.2.0,60.00765697944809,2026-01-18 15h27.23.607047 +0530,
,,,,,,,,,,,,,,,,,,,,,,,,,,,,,,,,,,,14.448790800001007,14.465158100007102,14.465158100007102,14.465158100007102,14.465158100007102,14.465158100007102,18.048832000000402,space,3.5682894000201486,None,,,,,,,,,,,,,,,,,,,,,,,,,,,,,,,,,,,,00050,001,2026-01-18_15h27.16.543,MST_test,2024.2.0,60.00765697944809,2026-01-18 15h27.23.607047 +0530,
,,,,,,,,,,,,,,,,,,,,,,,,,,,,,,,,,,,,,,,,,,,,,18.048861899995245,18.06471639999654,18.06471639999654,30.231748900027014,space,12.153159899986349,None,,,,,,,,,,,,,,,,,,,,,,,,,,,,,00050,001,2026-01-18_15h27.16.543,MST_test,2024.2.0,60.00765697944809,2026-01-18 15h27.23.607047 +0530,
,,,,,,,,,,,,,,,,,,,,,,,,,,,,,,,,,,,,,,,,,,,,,,,,,,,,30.231776800006628,30.248009200033266,30.248009200033266,83.91522710002027,space,53.65759000001708,None,,,,,,,,,,,,,,,,,,,,,,00050,001,2026-01-18_15h27.16.543,MST_test,2024.2.0,60.00765697944809,2026-01-18 15h27.23.607047 +0530,
0,0,1,s,8.274602300021797,None,1,0,0,83.9314572000294,,,,,,,,,,,,,,,,,,,,,,,,,,,,,,,,,,,,,,,,,,,,,,,,,,83.91940230003092,83.9314572000294,84.4314422000316,84.41508629999589,84.42549829999916,84.4314422000316,84.4314422000316,84.4314422000316,92.71558610000648,Foils\057a.jpg,none,s,8.274602300021797,None,,,,,,,,00050,001,2026-01-18_15h27.16.543,MST_test,2024.2.0,60.00765697944809,2026-01-18 15h27.23.607047 +0530,
1,0,2,o,7.769286499998998,None,2,0,1,92.73144330002833,,,,,,,,,,,,,,,,,,,,,,,,,,,,,,,,,,,,,,,,,,,,,,,,,,92.71568349999143,92.73144330002833,93.23215649998747,93.21512690000236,93.22184030001517,93.23215649998747,93.23215649998747,93.23215649998747,101.01545679999981,Scenes\153a.jpg,pre,o,7.769286499998998,None,,,,,,,,00050,001,2026-01-18_15h27.16.543,MST_test,2024.2.0,60.00765697944809,2026-01-18 15h27.23.607047 +0530,
2,0,3,s,3.587917600001674,None,3,0,2,101.03141930000857,,,,,,,,,,,,,,,,,,,,,,,,,,,,,,,,,,,,,,,,,,,,,,,,,,101.01555020001251,101.03141930000857,101.53377849998651,101.51521059998777,101.53160089999437,101.53377849998651,101.53377849998651,101.53377849998651,105.13209379999898,Scenes\093b.jpg,pre,s,3.587917600001674,None,,,,,,,,00050,001,2026-01-18_15h27.16.543,MST_test,2024.2.0,60.00765697944809,2026-01-18 15h27.23.607047 +0530,
3,0,4,o,8.553524300048593,None,4,0,3,105.14825720002409,,,,,,,,,,,,,,,,,,,,,,,,,,,,,,,,,,,,,,,,,,,,,,,,,,105.13218499999493,105.14825720002409,105.64841359999264,105.63174949999666,105.63591549999546,105.64841359999264,105.64841359999264,105.64841359999264,114.21539790002862,Objects\181a.jpg,post,o,8.553524300048593,None,,,,,,,,00050,001,2026-01-18_15h27.16.543,MST_test,2024.2.0,60.00765697944809,2026-01-18 15h27.23.607047 +0530,
4,0,5,o,3.062231799995061,None,5,0,4,114.2312685000361,,,,,,,,,,,,,,,,,,,,,,,,,,,,,,,,,,,,,,,,,,,,,,,,,,114.2154928999953,114.2312685000361,114.73189530003583,114.71501210000133,114.72221800003899,114.73189530003583,114.73189530003583,114.73189530003583,117.79891930002486,Scenes\073a.jpg,post,o,3.062231799995061,None,,,,,,,,00050,001,2026-01-18_15h27.16.543,MST_test,2024.2.0,60.00765697944809,2026-01-18 15h27.23.607047 +0530,
5,0,6,s,1.4545021000085399,None,6,0,5,117.81480910000391,,,,,,,,,,,,,,,,,,,,,,,,,,,,,,,,,,,,,,,,,,,,,,,,,,117.79901860002428,117.81480910000391,118.31527760002064,118.29841610003496,118.30924360000063,118.31527760002064,118.31527760002064,118.31527760002064,119.78192730003502,Objects\115b.jpg,pre,s,1.4545021000085399,None,,,,,,,,00050,001,2026-01-18_15h27.16.543,MST_test,2024.2.0,60.00765697944809,2026-01-18 15h27.23.607047 +0530,
6,0,7,o,1.327285400009714,None,7,0,6,119.79802079999354,,,,,,,,,,,,,,,,,,,,,,,,,,,,,,,,,,,,,,,,,,,,,,,,,,119.78201890003402,119.79802079999354,120.29863159998786,120.28152930003125,120.28980120003689,120.29863159998786,120.29863159998786,120.29863159998786,121.63212050002767,Scenes\156a.jpg,post,o,1.327285400009714,None,,,,,,,,00050,001,2026-01-18_15h27.16.543,MST_test,2024.2.0,60.00765697944809,2026-01-18 15h27.23.607047 +0530,
7,0,8,o,1.0702602000092156,None,8,0,7,121.64806929999031,,,,,,,,,,,,,,,,,,,,,,,,,,,,,,,,,,,,,,,,,,,,,,,,,,121.63221250002971,121.64806929999031,122.14867070002947,122.1318803000031,122.13512890000129,122.14867070002947,122.14867070002947,122.14867070002947,123.23193930002162,Objects\015a.jpg,pre,o,1.0702602000092156,None,,,,,,,,00050,001,2026-01-18_15h27.16.543,MST_test,2024.2.0,60.00765697944809,2026-01-18 15h27.23.607047 +0530,
8,0,9,s,3.9178702000062913,None,9,0,8,123.2480210000067,,,,,,,,,,,,,,,,,,,,,,,,,,,,,,,,,,,,,,,,,,,,,,,,,,123.23203469999135,123.2480210000067,123.74823870003456,123.73171369999181,123.7341248000157,123.74823870003456,123.74823870003456,123.74823870003456,127.68189880001592,Objects\032a.jpg,post,s,3.9178702000062913,None,,,,,,,,00050,001,2026-01-18_15h27.16.543,MST_test,2024.2.0,60.00765697944809,2026-01-18 15h27.23.607047 +0530,
9,0,10,s,5.891081399982795,None,10,0,9,127.69810869998764,,,,,,,,,,,,,,,,,,,,,,,,,,,,,,,,,,,,,,,,,,,,,,,,,,127.6820008000359,127.69810869998764,128.19863050000276,128.1815295999986,128.18808699998772,128.19863050000276,128.19863050000276,128.19863050000276,134.0986472000368,Scenes\163b.jpg,mid,s,5.891081399982795,None,,,,,,,,00050,001,2026-01-18_15h27.16.543,MST_test,2024.2.0,60.00765697944809,2026-01-18 15h27.23.607047 +0530,
10,0,11,o,1.7225999999791384,None,11,0,10,134.114761200035,,,,,,,,,,,,,,,,,,,,,,,,,,,,,,,,,,,,,,,,,,,,,,,,,,134.09875500004273,134.114761200035,134.6152328000171,134.59843170002569,134.6092873000307,134.6152328000171,134.6152328000171,134.6152328000171,136.3486269999994,Scenes\003a.jpg,mid,o,1.7225999999791384,None,,,,,,,,00050,001,2026-01-18_15h27.16.543,MST_test,2024.2.0,60.00765697944809,2026-01-18 15h27.23.607047 +0530,
11,0,12,s,3.145014000008814,None,12,0,11,136.36477510002442,,,,,,,,,,,,,,,,,,,,,,,,,,,,,,,,,,,,,,,,,,,,,,,,,,136.3487191000022,136.36477510002442,136.86529350001365,136.84825610002736,136.85504759999458,136.86529350001365,136.86529350001365,136.86529350001365,140.01536379999015,Scenes\160a.jpg,mid,s,3.145014000008814,None,,,,,,,,00050,001,2026-01-18_15h27.16.543,MST_test,2024.2.0,60.00765697944809,2026-01-18 15h27.23.607047 +0530,
12,0,13,s,1.2298764999723062,None,13,0,12,140.03125729999738,,,,,,,,,,,,,,,,,,,,,,,,,,,,,,,,,,,,,,,,,,,,,,,,,,140.0154545000405,140.03125729999738,140.5317309999955,140.51512610004283,140.52709210000467,140.5317309999955,140.5317309999955,140.5317309999955,141.765287599992,Objects\169b.jpg,pre,s,1.2298764999723062,None,,,,,,,,00050,001,2026-01-18_15h27.16.543,MST_test,2024.2.0,60.00765697944809,2026-01-18 15h27.23.607047 +0530,
13,0,14,s,1.7843038000282831,None,14,0,13,141.78143199998885,,,,,,,,,,,,,,,,,,,,,,,,,,,,,,,,,,,,,,,,,,,,,,,,,,141.76538270001765,141.78143199998885,142.2818852000055,142.2650227000122,142.27226719999453,142.2818852000055,142.2818852000055,142.2818852000055,144.08201890002238,Scenes\095a.jpg,pre,s,1.7843038000282831,None,,,,,,,,00050,001,2026-01-18_15h27.16.543,MST_test,2024.2.0,60.00765697944809,2026-01-18 15h27.23.607047 +0530,
14,0,15,n,2.906338400032837,None,15,0,14,144.09810040000593,,,,,,,,,,,,,,,,,,,,,,,,,,,,,,,,,,,,,,,,,,,,,,,,,,144.08215319999726,144.09810040000593,144.8312106000376,144.58164049999323,144.82704720000038,144.8312106000376,144.8312106000376,144.8312106000376,147.74864980002167,Foils\scenes26.jpg,none,n,2.906338400032837,None,,,,,,,,00050,001,2026-01-18_15h27.16.543,MST_test,2024.2.0,60.00765697944809,2026-01-18 15h27.23.607047 +0530,
15,0,16,o,1.2895598000031896,None,16,0,15,147.7647455999977,,,,,,,,,,,,,,,,,,,,,,,,,,,,,,,,,,,,,,,,,,,,,,,,,,147.74874629999977,147.7647455999977,148.28855120000662,148.2482585000107,148.28661980002653,148.28855120000662,148.28855120000662,148.28855120000662,149.58203089999733,Objects\038a.jpg,pre,o,1.2895598000031896,None,,,,,,,,00050,001,2026-01-18_15h27.16.543,MST_test,2024.2.0,60.00765697944809,2026-01-18 15h27.23.607047 +0530,
16,0,17,n,4.590568899991922,None,17,0,16,149.59791579999728,,,,,,,,,,,,,,,,,,,,,,,,,,,,,,,,,,,,,,,,,,,,,,,,,,149.58212199999252,149.59791579999728,150.10014070000034,150.08185499999672,150.0980048000347,150.10014070000034,150.10014070000034,150.10014070000034,154.69863330002408,Scenes\172b.jpg,mid,n,4.590568899991922,None,,,,,,,,00050,001,2026-01-18_15h27.16.543,MST_test,2024.2.0,60.00765697944809,2026-01-18 15h27.23.607047 +0530,
17,0,18,o,2.272611299995333,None,18,0,17,154.7147998000146,,,,,,,,,,,,,,,,,,,,,,,,,,,,,,,,,,,,,,,,,,,,,,,,,,154.6987352000433,154.7147998000146,155.21878990001278,155.19828070001677,155.21688050002558,155.21878990001278,155.21878990001278,155.21878990001278,157.49864519998664,Scenes\029b.jpg,post,o,2.272611299995333,None,,,,,,,,00050,001,2026-01-18_15h27.16.543,MST_test,2024.2.0,60.00765697944809,2026-01-18 15h27.23.607047 +0530,
18,0,19,n,1.7708900999859907,None,19,0,18,157.51475780003238,,,,,,,,,,,,,,,,,,,,,,,,,,,,,,,,,,,,,,,,,,,,,,,,,,157.49874140002066,157.51475780003238,158.01526710001053,157.99835170002189,158.00894190004328,158.01526710001053,158.01526710001053,158.01526710001053,159.79871330002788,Foils\017a.jpg,none,n,1.7708900999859907,None,,,,,,,,00050,001,2026-01-18_15h27.16.543,MST_test,2024.2.0,60.00765697944809,2026-01-18 15h27.23.607047 +0530,
19,0,20,s,4.815539299976081,None,20,0,19,159.81475020002108,,,,,,,,,,,,,,,,,,,,,,,,,,,,,,,,,,,,,,,,,,,,,,,,,,159.79880910000065,159.81475020002108,160.31495620001806,160.29806699999608,160.30812320002588,160.31495620001806,160.31495620001806,160.31495620001806,165.13211300002877,Objects\033b.jpg,post,s,4.815539299976081,None,,,,,,,,00050,001,2026-01-18_15h27.16.543,MST_test,2024.2.0,60.00765697944809,2026-01-18 15h27.23.607047 +0530,
20,0,21,s,2.1025901999673806,None,21,0,20,165.1480357000255,,,,,,,,,,,,,,,,,,,,,,,,,,,,,,,,,,,,,,,,,,,,,,,,,,165.13220610003918,165.1480357000255,165.6518033000175,165.63196219998645,165.649774599995,165.6518033000175,165.6518033000175,165.6518033000175,167.76533409999683,Scenes\043b.jpg,post,s,2.1025901999673806,None,,,,,,,,00050,001,2026-01-18_15h27.16.543,MST_test,2024.2.0,60.00765697944809,2026-01-18 15h27.23.607047 +0530,
21,0,22,o,1.0324519000132568,None,22,0,21,167.78143700002693,,,,,,,,,,,,,,,,,,,,,,,,,,,,,,,,,,,,,,,,,,,,,,,,,,167.76542880001944,167.78143700002693,168.28192340000533,168.26500650000526,168.26886670000385,168.28192340000533,168.28192340000533,168.28192340000533,169.3153307000175,Objects\042a.jpg,mid,o,1.0324519000132568,None,,,,,,,,00050,001,2026-01-18_15h27.16.543,MST_test,2024.2.0,60.00765697944809,2026-01-18 15h27.23.607047 +0530,
22,0,23,o,1.0820807000272907,None,23,0,22,169.33147690002806,,,,,,,,,,,,,,,,,,,,,,,,,,,,,,,,,,,,,,,,,,,,,,,,,,169.31543479999527,169.33147690002806,169.8320293999859,169.81513840000844,169.82200829999056,169.8320293999859,169.8320293999859,169.8320293999859,170.9155867000227,Scenes\141a.jpg,mid,o,1.0820807000272907,None,,,,,,,,00050,001,2026-01-18_15h27.16.543,MST_test,2024.2.0,60.00765697944809,2026-01-18 15h27.23.607047 +0530,
23,0,24,o,0.9943580999970436,None,24,0,23,170.93158740003128,,,,,,,,,,,,,,,,,,,,,,,,,,,,,,,,,,,,,,,,,,,,,,,,,,170.91568400000688,170.93158740003128,171.43192430003546,171.4150537000387,171.41867109999293,171.43192430003546,171.43192430003546,171.43192430003546,172.4322044000146,Objects\103a.jpg,mid,o,0.9943580999970436,None,,,,,,,,00050,001,2026-01-18_15h27.16.543,MST_test,2024.2.0,60.00765697944809,2026-01-18 15h27.23.607047 +0530,
24,0,25,n,1.3527691999915987,None,25,0,24,172.44820240000263,,,,,,,,,,,,,,,,,,,,,,,,,,,,,,,,,,,,,,,,,,,,,,,,,,172.4323035000125,172.44820240000263,172.9532474000007,172.9316983000026,172.95089460001327,172.9532474000007,172.9532474000007,172.9532474000007,174.31546559999697,Foils\scenes23.jpg,none,n,1.3527691999915987,None,,,,,,,,00050,001,2026-01-18_15h27.16.543,MST_test,2024.2.0,60.00765697944809,2026-01-18 15h27.23.607047 +0530,
25,0,26,n,1.3226995000150055,None,26,0,25,174.3315247000428,,,,,,,,,,,,,,,,,,,,,,,,,,,,,,,,,,,,,,,,,,,,,,,,,,174.3155579000013,174.3315247000428,174.83159690001048,174.8152948000352,174.82797889999347,174.83159690001048,174.83159690001048,174.83159690001048,176.16587220004294,Foils\scenes17.jpg,none,n,1.3226995000150055,None,,,,,,,,00050,001,2026-01-18_15h27.16.543,MST_test,2024.2.0,60.00765697944809,2026-01-18 15h27.23.607047 +0530,
26,0,27,s,1.7043282999657094,None,27,0,26,176.18164700001944,,,,,,,,,,,,,,,,,,,,,,,,,,,,,,,,,,,,,,,,,,,,,,,,,,176.16597249999177,176.18164700001944,176.6818078000215,176.66534150001826,176.67859740002314,176.6818078000215,176.6818078000215,176.6818078000215,178.39896240003873,Scenes\191b.jpg,mid,s,1.7043282999657094,None,,,,,,,,00050,001,2026-01-18_15h27.16.543,MST_test,2024.2.0,60.00765697944809,2026-01-18 15h27.23.607047 +0530,
27,0,28,s,1.786668799992185,None,28,0,27,178.41488590004155,,,,,,,,,,,,,,,,,,,,,,,,,,,,,,,,,,,,,,,,,,,,,,,,,,178.3990592000191,178.41488590004155,178.91961000004085,178.89833500003442,178.91732470004354,178.91961000004085,178.91961000004085,178.91961000004085,180.7157140999916,Scenes\102b.jpg,post,s,1.786668799992185,None,,,,,,,,00050,001,2026-01-18_15h27.16.543,MST_test,2024.2.0,60.00765697944809,2026-01-18 15h27.23.607047 +0530,
28,0,29,n,4.033342799986713,None,29,0,28,180.7314624999999,,,,,,,,,,,,,,,,,,,,,,,,,,,,,,,,,,,,,,,,,,,,,,,,,,180.71580760000506,180.7314624999999,181.2321163000306,181.21527939999942,181.2186415999895,181.2321163000306,181.2321163000306,181.2321163000306,185.28220140002668,Objects\174b.jpg,mid,n,4.033342799986713,None,,,,,,,,00050,001,2026-01-18_15h27.16.543,MST_test,2024.2.0,60.00765697944809,2026-01-18 15h27.23.607047 +0530,
29,0,30,o,0.931212300027255,None,30,0,29,185.29821010003798,,,,,,,,,,,,,,,,,,,,,,,,,,,,,,,,,,,,,,,,,,,,,,,,,,185.28229030000512,185.29821010003798,185.79831400001422,185.78184459998738,185.79385030001868,185.79831400001422,185.79831400001422,185.79831400001422,186.73208829999203,Objects\099b.jpg,mid,o,0.931212300027255,None,,,,,,,,00050,001,2026-01-18_15h27.16.543,MST_test,2024.2.0,60.00765697944809,2026-01-18 15h27.23.607047 +0530,
30,0,31,n,1.9112060999614187,None,31,0,30,186.74819449998904,,,,,,,,,,,,,,,,,,,,,,,,,,,,,,,,,,,,,,,,,,,,,,,,,,186.73217850003857,186.74819449998904,187.2509177000029,187.23179140000138,187.2487617000006,187.2509177000029,187.2509177000029,187.2509177000029,189.16577000002144,Scenes\183b.jpg,post,n,1.9112060999614187,None,,,,,,,,00050,001,2026-01-18_15h27.16.543,MST_test,2024.2.0,60.00765697944809,2026-01-18 15h27.23.607047 +0530,
31,0,32,o,0.8320733000291511,None,32,0,31,189.18171219999203,,,,,,,,,,,,,,,,,,,,,,,,,,,,,,,,,,,,,,,,,,,,,,,,,,189.16586960002314,189.18171219999203,189.6820926000364,189.6652088999981,189.66814369999338,189.6820926000364,189.6820926000364,189.6820926000364,190.51550139999017,Objects\059a.jpg,post,o,0.8320733000291511,None,,,,,,,,00050,001,2026-01-18_15h27.16.543,MST_test,2024.2.0,60.00765697944809,2026-01-18 15h27.23.607047 +0530,
32,0,33,s,1.2023896999889985,None,33,0,32,190.53146229998674,,,,,,,,,,,,,,,,,,,,,,,,,,,,,,,,,,,,,,,,,,,,,,,,,,190.51559220004128,190.53146229998674,191.03174150001723,191.0151588000008,191.02548910002224,191.03174150001723,191.03174150001723,191.03174150001723,192.24875870003598,Objects\182b.jpg,mid,s,1.2023896999889985,None,,,,,,,,00050,001,2026-01-18_15h27.16.543,MST_test,2024.2.0,60.00765697944809,2026-01-18 15h27.23.607047 +0530,
33,0,34,s,1.0523372000316158,None,34,0,33,192.2648920000065,,,,,,,,,,,,,,,,,,,,,,,,,,,,,,,,,,,,,,,,,,,,,,,,,,192.24885070003802,192.2648920000065,192.76551639998797,192.74853079998866,192.7550356000429,192.76551639998797,192.76551639998797,192.76551639998797,193.8321516000433,Scenes\154a.jpg,mid,s,1.0523372000316158,None,,,,,,,,00050,001,2026-01-18_15h27.16.543,MST_test,2024.2.0,60.00765697944809,2026-01-18 15h27.23.607047 +0530,
34,0,35,s,2.6416596000199206,None,35,0,34,193.8482684000046,,,,,,,,,,,,,,,,,,,,,,,,,,,,,,,,,,,,,,,,,,,,,,,,,,193.8322438999894,193.8482684000046,194.3525656000129,194.33179440000094,194.3503799000173,194.3525656000129,194.3525656000129,194.3525656000129,196.9986880000215,Scenes\190b.jpg,mid,s,2.6416596000199206,None,,,,,,,,00050,001,2026-01-18_15h27.16.543,MST_test,2024.2.0,60.00765697944809,2026-01-18 15h27.23.607047 +0530,
35,0,36,s,2.3901595000061207,None,36,0,35,197.01488590001827,,,,,,,,,,,,,,,,,,,,,,,,,,,,,,,,,,,,,,,,,,,,,,,,,,196.99878130003344,197.01488590001827,197.5154610000318,197.49844900000608,197.5077240000246,197.5154610000318,197.5154610000318,197.5154610000318,199.91566150001017,Scenes\112a.jpg,post,s,2.3901595000061207,None,,,,,,,,00050,001,2026-01-18_15h27.16.543,MST_test,2024.2.0,60.00765697944809,2026-01-18 15h27.23.607047 +0530,
36,0,37,o,1.0423233000328764,None,37,0,36,199.93155640002806,,,,,,,,,,,,,,,,,,,,,,,,,,,,,,,,,,,,,,,,,,,,,,,,,,199.91575929999817,199.93155640002806,200.43202450004173,200.41510029998608,200.41834360000212,200.43202450004173,200.43202450004173,200.43202450004173,201.48216230003163,Objects\156a.jpg,pre,o,1.0423233000328764,None,,,,,,,,00050,001,2026-01-18_15h27.16.543,MST_test,2024.2.0,60.00765697944809,2026-01-18 15h27.23.607047 +0530,
37,0,38,s,1.243296000000555,None,38,0,37,201.4980188999907,,,,,,,,,,,,,,,,,,,,,,,,,,,,,,,,,,,,,,,,,,,,,,,,,,201.48226409999188,201.4980188999907,201.99901670002146,201.98181910003768,201.99688200000674,201.99901670002146,201.99901670002146,201.99901670002146,203.24881810002262,Scenes\083b.jpg,post,s,1.243296000000555,None,,,,,,,,00050,001,2026-01-18_15h27.16.543,MST_test,2024.2.0,60.00765697944809,2026-01-18 15h27.23.607047 +0530,
38,0,39,o,0.7887392999837175,None,39,0,38,203.26475730002858,,,,,,,,,,,,,,,,,,,,,,,,,,,,,,,,,,,,,,,,,,,,,,,,,,203.24891590001062,203.26475730002858,203.7653577000019,203.74867860000813,203.75149870000314,203.7653577000019,203.7653577000019,203.7653577000019,204.56550940003945,Objects\040a.jpg,pre,o,0.7887392999837175,None,,,,,,,,00050,001,2026-01-18_15h27.16.543,MST_test,2024.2.0,60.00765697944809,2026-01-18 15h27.23.607047 +0530,
39,0,40,s,1.4247387999785133,None,40,0,39,204.5815877999994,,,,,,,,,,,,,,,,,,,,,,,,,,,,,,,,,,,,,,,,,,,,,,,,,,204.56560120003996,204.5815877999994,205.08171320002293,205.06513190001715,205.07440899999347,205.08171320002293,205.08171320002293,205.08171320002293,206.51545559999067,Objects\127b.jpg,post,s,1.4247387999785133,None,,,,,,,,00050,001,2026-01-18_15h27.16.543,MST_test,2024.2.0,60.00765697944809,2026-01-18 15h27.23.607047 +0530,
40,0,41,o,0.817902100039646,None,41,0,40,206.53147089999402,,,,,,,,,,,,,,,,,,,,,,,,,,,,,,,,,,,,,,,,,,,,,,,,,,206.51555579999695,206.53147089999402,207.03167880000547,207.015194000036,207.01791180000873,207.03167880000547,207.03167880000547,207.03167880000547,207.8653552000178,Objects\128b.jpg,mid,o,0.817902100039646,None,,,,,,,,00050,001,2026-01-18_15h27.16.543,MST_test,2024.2.0,60.00765697944809,2026-01-18 15h27.23.607047 +0530,
41,0,42,o,0.9882976999506354,None,42,0,41,207.88140150002437,,,,,,,,,,,,,,,,,,,,,,,,,,,,,,,,,,,,,,,,,,,,,,,,,,207.86545829998795,207.88140150002437,208.38207170000533,208.36512380000204,208.37159600004088,208.38207170000533,208.38207170000533,208.38207170000533,209.3822469000006,Scenes\116a.jpg,pre,o,0.9882976999506354,None,,,,,,,,00050,001,2026-01-18_15h27.16.543,MST_test,2024.2.0,60.00765697944809,2026-01-18 15h27.23.607047 +0530,
42,0,43,s,2.5909609000082128,None,43,0,42,209.39809140004218,,,,,,,,,,,,,,,,,,,,,,,,,,,,,,,,,,,,,,,,,,,,,,,,,,209.3823411000194,209.39809140004218,209.89871089998633,209.8818239000393,209.89171930000884,209.89871089998633,209.89871089998633,209.89871089998633,212.4989395000157,Objects\065b.jpg,pre,s,2.5909609000082128,None,,,,,,,,00050,001,2026-01-18_15h27.16.543,MST_test,2024.2.0,60.00765697944809,2026-01-18 15h27.23.607047 +0530,
43,0,44,o,1.3625417999573983,None,44,0,43,212.51492829999188,,,,,,,,,,,,,,,,,,,,,,,,,,,,,,,,,,,,,,,,,,,,,,,,,,212.49903679999989,212.51492829999188,213.0150020000292,212.99833660002332,213.00762610003585,213.0150020000292,213.0150020000292,213.0150020000292,214.38213680003537,Objects\121b.jpg,mid,o,1.3625417999573983,None,,,,,,,,00050,001,2026-01-18_15h27.16.543,MST_test,2024.2.0,60.00765697944809,2026-01-18 15h27.23.607047 +0530,
44,0,45,n,4.3040318000130355,None,45,0,44,214.39822840003762,,,,,,,,,,,,,,,,,,,,,,,,,,,,,,,,,,,,,,,,,,,,,,,,,,214.3822300999891,214.39822840003762,214.89828319998924,214.8818476999877,214.89146750001237,214.89828319998924,214.89828319998924,214.89828319998924,219.21548610000173,Objects\109b.jpg,pre,n,4.3040318000130355,None,,,,,,,,00050,001,2026-01-18_15h27.16.543,MST_test,2024.2.0,60.00765697944809,2026-01-18 15h27.23.607047 +0530,
45,0,46,n,1.6298332000151277,None,46,0,45,219.23146780004026,,,,,,,,,,,,,,,,,,,,,,,,,,,,,,,,,,,,,,,,,,,,,,,,,,219.21558300004108,219.23146780004026,219.7320289000054,219.71512569999322,219.7267201000359,219.7320289000054,219.7320289000054,219.7320289000054,221.36542420001933,Scenes\061b.jpg,post,n,1.6298332000151277,None,,,,,,,,00050,001,2026-01-18_15h27.16.543,MST_test,2024.2.0,60.00765697944809,2026-01-18 15h27.23.607047 +0530,
46,0,47,o,0.8477275000186637,None,47,0,46,221.38156920002075,,,,,,,,,,,,,,,,,,,,,,,,,,,,,,,,,,,,,,,,,,,,,,,,,,221.36551620002137,221.38156920002075,221.88195850001648,221.86518299998716,221.86827949999133,221.88195850001648,221.88195850001648,221.88195850001648,222.73219930002233,Objects\120a.jpg,pre,o,0.8477275000186637,None,,,,,,,,00050,001,2026-01-18_15h27.16.543,MST_test,2024.2.0,60.00765697944809,2026-01-18 15h27.23.607047 +0530,
47,0,48,s,1.007308500004001,None,48,0,47,222.74821900000097,,,,,,,,,,,,,,,,,,,,,,,,,,,,,,,,,,,,,,,,,,,,,,,,,,222.73230020003393,222.74821900000097,223.2504203999997,223.23178450000705,223.2484484000015,223.2504203999997,223.2504203999997,223.2504203999997,224.26536120002856,Scenes\120b.jpg,post,s,1.007308500004001,None,,,,,,,,00050,001,2026-01-18_15h27.16.543,MST_test,2024.2.0,60.00765697944809,2026-01-18 15h27.23.607047 +0530,
48,0,49,o,1.1726214999798685,None,49,0,48,224.28155820001848,,,,,,,,,,,,,,,,,,,,,,,,,,,,,,,,,,,,,,,,,,,,,,,,,,224.26545300002908,224.28155820001848,224.78204260003986,224.76510820002295,224.7678286000155,224.78204260003986,224.78204260003986,224.78204260003986,225.96566839999286,Objects\029a.jpg,mid,o,1.1726214999798685,None,,,,,,,,00050,001,2026-01-18_15h27.16.543,MST_test,2024.2.0,60.00765697944809,2026-01-18 15h27.23.607047 +0530,
49,0,50,o,1.032038500008639,None,50,0,49,225.98153140000068,,,,,,,,,,,,,,,,,,,,,,,,,,,,,,,,,,,,,,,,,,,,,,,,,,225.96577780001098,225.98153140000068,226.48206840001512,226.46513339999365,226.47089050000068,226.48206840001512,226.48206840001512,226.48206840001512,227.51545030000852,Scenes\147a.jpg,post,o,1.032038500008639,None,,,,,,,,00050,001,2026-01-18_15h27.16.543,MST_test,2024.2.0,60.00765697944809,2026-01-18 15h27.23.607047 +0530,
50,0,51,s,1.1777175999595784,None,51,0,50,227.5316580000217,,,,,,,,,,,,,,,,,,,,,,,,,,,,,,,,,,,,,,,,,,,,,,,,,,227.51554410002427,227.5316580000217,228.0321791000315,228.01525260001654,228.02020999998786,228.0321791000315,228.0321791000315,228.0321791000315,229.2155188000179,Scenes\113b.jpg,pre,s,1.1777175999595784,None,,,,,,,,00050,001,2026-01-18_15h27.16.543,MST_test,2024.2.0,60.00765697944809,2026-01-18 15h27.23.607047 +0530,
51,0,52,o,1.2303562000161037,None,52,0,51,229.23161950003123,,,,,,,,,,,,,,,,,,,,,,,,,,,,,,,,,,,,,,,,,,,,,,,,,,229.21563019999303,229.23161950003123,229.73186170001281,229.71519389998866,229.7182649000315,229.73186170001281,229.73186170001281,229.73186170001281,230.96551220002584,Objects\079a.jpg,post,o,1.2303562000161037,None,,,,,,,,00050,001,2026-01-18_15h27.16.543,MST_test,2024.2.0,60.00765697944809,2026-01-18 15h27.23.607047 +0530,
52,0,53,o,0.8167079999693669,None,53,0,52,230.98146989999805,,,,,,,,,,,,,,,,,,,,,,,,,,,,,,,,,,,,,,,,,,,,,,,,,,230.96560500003397,230.98146989999805,231.48162530001719,231.4650378000224,231.47478520002915,231.48162530001719,231.48162530001719,231.48162530001719,232.29894060001243,Objects\062b.jpg,post,o,0.8167079999693669,None,,,,,,,,00050,001,2026-01-18_15h27.16.543,MST_test,2024.2.0,60.00765697944809,2026-01-18 15h27.23.607047 +0530,
53,0,54,n,1.427225100051146,None,54,0,53,232.3147908000392,,,,,,,,,,,,,,,,,,,,,,,,,,,,,,,,,,,,,,,,,,,,,,,,,,232.29904579999857,232.3147908000392,232.81492999999318,232.7982755000121,232.80093510000734,232.81492999999318,232.81492999999318,232.81492999999318,234.24868960003369,Objects\160b.jpg,post,n,1.427225100051146,None,,,,,,,,00050,001,2026-01-18_15h27.16.543,MST_test,2024.2.0,60.00765697944809,2026-01-18 15h27.23.607047 +0530,
54,0,55,o,3.3806080000358634,None,55,0,54,234.26478349999525,,,,,,,,,,,,,,,,,,,,,,,,,,,,,,,,,,,,,,,,,,,,,,,,,,234.24878150003497,234.26478349999525,234.76501580001786,234.74840760004008,234.75788500002818,234.76501580001786,234.76501580001786,234.76501580001786,238.1486085000215,Objects\175b.jpg,pre,o,3.3806080000358634,None,,,,,,,,00050,001,2026-01-18_15h27.16.543,MST_test,2024.2.0,60.00765697944809,2026-01-18 15h27.23.607047 +0530,
55,0,56,o,0.8819509000168182,None,56,0,55,238.16473270003917,,,,,,,,,,,,,,,,,,,,,,,,,,,,,,,,,,,,,,,,,,,,,,,,,,238.14870310004335,238.16473270003917,238.665106200031,238.64855750004062,238.65878080000402,238.665106200031,238.665106200031,238.665106200031,239.54876169998897,Objects\136b.jpg,post,o,0.8819509000168182,None,,,,,,,,00050,001,2026-01-18_15h27.16.543,MST_test,2024.2.0,60.00765697944809,2026-01-18 15h27.23.607047 +0530,
56,0,57,n,1.2557542999857105,None,57,0,56,239.56483340001432,,,,,,,,,,,,,,,,,,,,,,,,,,,,,,,,,,,,,,,,,,,,,,,,,,239.54885900003137,239.56483340001432,240.06586900004186,240.04821800003992,240.05091119999997,240.06586900004186,240.06586900004186,240.06586900004186,241.33202600001823,Foils\074a.jpg,none,n,1.2557542999857105,None,,,,,,,,00050,001,2026-01-18_15h27.16.543,MST_test,2024.2.0,60.00765697944809,2026-01-18 15h27.23.607047 +0530,
57,0,58,s,4.250336199998856,None,58,0,57,241.34806280001067,,,,,,,,,,,,,,,,,,,,,,,,,,,,,,,,,,,,,,,,,,,,,,,,,,241.33211800002027,241.34806280001067,241.87965489999624,241.83195770002203,241.87687030003872,241.87965489999624,241.87965489999624,241.87965489999624,246.13212230004137,Foils\scenes15.jpg,none,s,4.250336199998856,None,,,,,,,,00050,001,2026-01-18_15h27.16.543,MST_test,2024.2.0,60.00765697944809,2026-01-18 15h27.23.607047 +0530,
58,0,59,n,1.184257599990815,None,59,0,58,246.1479653000133,,,,,,,,,,,,,,,,,,,,,,,,,,,,,,,,,,,,,,,,,,,,,,,,,,246.13221190002514,246.1479653000133,246.70600200002082,246.6318612000323,246.70212520001223,246.70600200002082,246.70600200002082,246.70600200002082,247.89876439998625,Foils\scenes25.jpg,none,n,1.184257599990815,None,,,,,,,,00050,001,2026-01-18_15h27.16.543,MST_test,2024.2.0,60.00765697944809,2026-01-18 15h27.23.607047 +0530,
59,0,60,o,1.218185400008224,None,60,0,59,247.9147876999923,,,,,,,,,,,,,,,,,,,,,,,,,,,,,,,,,,,,,,,,,,,,,,,,,,247.89886070002103,247.9147876999923,248.41641659999732,248.39837499998976,248.40362320002168,248.41641659999732,248.41641659999732,248.41641659999732,249.6487260000431,Objects\061a.jpg,post,o,1.218185400008224,None,,,,,,,,00050,001,2026-01-18_15h27.16.543,MST_test,2024.2.0,60.00765697944809,2026-01-18 15h27.23.607047 +0530,
60,0,61,o,0.972877399995923,None,61,0,60,249.6647180999862,,,,,,,,,,,,,,,,,,,,,,,,,,,,,,,,,,,,,,,,,,,,,,,,,,249.6488176000421,249.6647180999862,250.1653054000344,250.14830490003806,250.15942370000994,250.1653054000344,250.1653054000344,250.1653054000344,251.14865980000468,Scenes\017a.jpg,post,o,0.972877399995923,None,,,,,,,,00050,001,2026-01-18_15h27.16.543,MST_test,2024.2.0,60.00765697944809,2026-01-18 15h27.23.607047 +0530,
61,0,62,o,1.8165683000115678,None,62,0,61,251.1647898000083,,,,,,,,,,,,,,,,,,,,,,,,,,,,,,,,,,,,,,,,,,,,,,,,,,251.14875250001205,251.1647898000083,251.66548120003426,251.64856990001863,251.6578623999958,251.66548120003426,251.66548120003426,251.66548120003426,253.4987764999969,Scenes\038a.jpg,pre,o,1.8165683000115678,None,,,,,,,,00050,001,2026-01-18_15h27.16.543,MST_test,2024.2.0,60.00765697944809,2026-01-18 15h27.23.607047 +0530,
62,0,63,o,0.730708799965214,None,63,0,62,253.51479600003222,,,,,,,,,,,,,,,,,,,,,,,,,,,,,,,,,,,,,,,,,,,,,,,,,,253.49886590003734,253.51479600003222,254.0152682000189,253.9984567000065,254.00148700003047,254.0152682000189,254.0152682000189,254.0152682000189,254.74868160003098,Objects\100a.jpg,mid,o,0.730708799965214,None,,,,,,,,00050,001,2026-01-18_15h27.16.543,MST_test,2024.2.0,60.00765697944809,2026-01-18 15h27.23.607047 +0530,
63,0,64,n,1.7053492999984883,None,64,0,63,254.76478269998915,,,,,,,,,,,,,,,,,,,,,,,,,,,,,,,,,,,,,,,,,,,,,,,,,,254.74877250002464,254.76478269998915,255.26516980002634,255.24845419998746,255.25790520000737,255.26516980002634,255.26516980002634,255.26516980002634,256.98189699999057,Foils\scenes3.jpg,none,n,1.7053492999984883,None,,,,,,,,00050,001,2026-01-18_15h27.16.543,MST_test,2024.2.0,60.00765697944809,2026-01-18 15h27.23.607047 +0530,
64,0,65,s,1.0953276000218466,None,65,0,64,256.9981281000073,,,,,,,,,,,,,,,,,,,,,,,,,,,,,,,,,,,,,,,,,,,,,,,,,,256.9819873000379,256.9981281000073,257.498459000024,257.48156750004273,257.4915278000408,257.498459000024,257.498459000024,257.498459000024,258.59877869999036,Objects\037b.jpg,pre,s,1.0953276000218466,None,,,,,,,,00050,001,2026-01-18_15h27.16.543,MST_test,2024.2.0,60.00765697944809,2026-01-18 15h27.23.607047 +0530,
65,0,66,o,1.2952211999800056,None,66,0,65,258.6148646000074,,,,,,,,,,,,,,,,,,,,,,,,,,,,,,,,,,,,,,,,,,,,,,,,,,258.59887270000763,258.6148646000074,259.11527900001965,259.0983747999999,259.1069981000037,259.11527900001965,259.11527900001965,259.11527900001965,260.41534489998594,Scenes\005a.jpg,post,o,1.2952211999800056,None,,,,,,,,00050,001,2026-01-18_15h27.16.543,MST_test,2024.2.0,60.00765697944809,2026-01-18 15h27.23.607047 +0530,
66,0,67,n,1.7027629999793135,None,67,0,66,260.4313561000163,,,,,,,,,,,,,,,,,,,,,,,,,,,,,,,,,,,,,,,,,,,,,,,,,,260.41543749999255,260.4313561000163,260.93189020000864,260.9150609000353,260.91797820001375,260.93189020000864,260.93189020000864,260.93189020000864,262.6486923000193,Objects\104a.jpg,post,n,1.7027629999793135,None,,,,,,,,00050,001,2026-01-18_15h27.16.543,MST_test,2024.2.0,60.00765697944809,2026-01-18 15h27.23.607047 +0530,
67,0,68,n,0.8445722999749705,None,68,0,67,262.6648024999886,,,,,,,,,,,,,,,,,,,,,,,,,,,,,,,,,,,,,,,,,,,,,,,,,,262.64878410001984,262.6648024999886,263.165178700001,263.14836420002393,263.1579899000353,263.165178700001,263.165178700001,263.165178700001,264.01540500001283,Foils\093b.jpg,none,n,0.8445722999749705,None,,,,,,,,00050,001,2026-01-18_15h27.16.543,MST_test,2024.2.0,60.00765697944809,2026-01-18 15h27.23.607047 +0530,
68,0,69,s,1.2776968000107445,None,69,0,68,264.03139060002286,,,,,,,,,,,,,,,,,,,,,,,,,,,,,,,,,,,,,,,,,,,,,,,,,,264.01549710001564,264.03139060002286,264.53197820001515,264.5150672000018,264.52236310002627,264.53197820001515,264.53197820001515,264.53197820001515,265.81529699999373,Scenes\079b.jpg,pre,s,1.2776968000107445,None,,,,,,,,00050,001,2026-01-18_15h27.16.543,MST_test,2024.2.0,60.00765697944809,2026-01-18 15h27.23.607047 +0530,
69,0,70,n,1.3505326000158675,None,70,0,69,265.83122420002474,,,,,,,,,,,,,,,,,,,,,,,,,,,,,,,,,,,,,,,,,,,,,,,,,,265.81538960000034,265.83122420002474,266.33186040003784,266.3149784000125,266.3237584999879,266.33186040003784,266.33186040003784,266.33186040003784,267.69870350003475,Foils\scenes4.jpg,none,n,1.3505326000158675,None,,,,,,,,00050,001,2026-01-18_15h27.16.543,MST_test,2024.2.0,60.00765697944809,2026-01-18 15h27.23.607047 +0530,
70,0,71,n,1.0671075999853201,None,71,0,70,267.7147255000309,,,,,,,,,,,,,,,,,,,,,,,,,,,,,,,,,,,,,,,,,,,,,,,,,,267.6987934000208,267.7147255000309,268.21510470000794,268.1983890000265,268.20203899999615,268.21510470000794,268.21510470000794,268.21510470000794,269.2987001000438,Foils\033a.jpg,none,n,1.0671075999853201,None,,,,,,,,00050,001,2026-01-18_15h27.16.543,MST_test,2024.2.0,60.00765697944809,2026-01-18 15h27.23.607047 +0530,
71,0,72,n,1.4193338999757543,None,72,0,71,269.314797500032,,,,,,,,,,,,,,,,,,,,,,,,,,,,,,,,,,,,,,,,,,,,,,,,,,269.298791600042,269.314797500032,269.81502430001274,269.7983736000024,269.80825930001447,269.81502430001274,269.81502430001274,269.81502430001274,271.2488353000372,Objects\161b.jpg,mid,n,1.4193338999757543,None,,,,,,,,00050,001,2026-01-18_15h27.16.543,MST_test,2024.2.0,60.00765697944809,2026-01-18 15h27.23.607047 +0530,
72,0,73,n,3.557766799989622,None,73,0,72,271.2647968000383,,,,,,,,,,,,,,,,,,,,,,,,,,,,,,,,,,,,,,,,,,,,,,,,,,271.2489266000339,271.2647968000383,271.7649603000027,271.74833959998796,271.75816010002745,271.7649603000027,271.7649603000027,271.7649603000027,275.33195120003074,Foils\082a.jpg,none,n,3.557766799989622,None,,,,,,,,00050,001,2026-01-18_15h27.16.543,MST_test,2024.2.0,60.00765697944809,2026-01-18 15h27.23.607047 +0530,
73,0,74,s,1.0013041000347584,None,74,0,73,275.34812989999773,,,,,,,,,,,,,,,,,,,,,,,,,,,,,,,,,,,,,,,,,,,,,,,,,,275.33204200002365,275.34812989999773,275.84860279998975,275.83172379998723,275.8344319000025,275.84860279998975,275.84860279998975,275.84860279998975,276.86537090002093,Foils\scenes29.jpg,none,s,1.0013041000347584,None,,,,,,,,00050,001,2026-01-18_15h27.16.543,MST_test,2024.2.0,60.00765697944809,2026-01-18 15h27.23.607047 +0530,
74,0,75,s,1.5484739000094123,None,75,0,74,276.88132939999923,,,,,,,,,,,,,,,,,,,,,,,,,,,,,,,,,,,,,,,,,,,,,,,,,,276.8654701000196,276.88132939999923,277.3820154000423,277.36533070000587,277.37512979999883,277.3820154000423,277.3820154000423,277.3820154000423,278.93203790002735,Scenes\143a.jpg,mid,s,1.5484739000094123,None,,,,,,,,00050,001,2026-01-18_15h27.16.543,MST_test,2024.2.0,60.00765697944809,2026-01-18 15h27.23.607047 +0530,
75,0,76,o,1.1209902000264265,None,76,0,75,278.94813720003003,,,,,,,,,,,,,,,,,,,,,,,,,,,,,,,,,,,,,,,,,,,,,,,,,,278.93213080003625,278.94813720003003,279.44855130004,279.4316104000318,279.43483990000095,279.44855130004,279.44855130004,279.44855130004,280.5818694999907,Objects\165a.jpg,mid,o,1.1209902000264265,None,,,,,,,,00050,001,2026-01-18_15h27.16.543,MST_test,2024.2.0,60.00765697944809,2026-01-18 15h27.23.607047 +0530,
76,0,77,o,1.0960423999931663,None,77,0,76,280.59811280004214,,,,,,,,,,,,,,,,,,,,,,,,,,,,,,,,,,,,,,,,,,,,,,,,,,280.58197260001907,280.59811280004214,281.09826150001027,281.08172090002336,281.0845755999908,281.09826150001027,281.09826150001027,281.09826150001027,282.19957950001117,Objects\107a.jpg,post,o,1.0960423999931663,None,,,,,,,,00050,001,2026-01-18_15h27.16.543,MST_test,2024.2.0,60.00765697944809,2026-01-18 15h27.23.607047 +0530,
77,0,78,n,1.095525600016117,None,78,0,77,282.2152362000197,,,,,,,,,,,,,,,,,,,,,,,,,,,,,,,,,,,,,,,,,,,,,,,,,,282.1996833999874,282.2152362000197,282.7149817000027,282.6983072999865,282.7012712000287,282.7149817000027,282.7149817000027,282.7149817000027,283.815563799988,Foils\049a.jpg,none,n,1.095525600016117,None,,,,,,,,00050,001,2026-01-18_15h27.16.543,MST_test,2024.2.0,60.00765697944809,2026-01-18 15h27.23.607047 +0530,
78,0,79,s,1.3339993999688886,None,79,0,78,283.83146920002764,,,,,,,,,,,,,,,,,,,,,,,,,,,,,,,,,,,,,,,,,,,,,,,,,,283.8156711999909,283.83146920002764,284.331722300034,284.3151673999964,284.3248783000163,284.331722300034,284.331722300034,284.331722300034,285.6819847000297,Objects\110b.jpg,pre,s,1.3339993999688886,None,,,,,,,,00050,001,2026-01-18_15h27.16.543,MST_test,2024.2.0,60.00765697944809,2026-01-18 15h27.23.607047 +0530,
79,0,80,o,1.1791880000382662,None,80,0,79,285.6980913000298,,,,,,,,,,,,,,,,,,,,,,,,,,,,,,,,,,,,,,,,,,,,,,,,,,285.6820763000287,285.6980913000298,286.1985895000398,286.1816256000311,286.1941095000366,286.1985895000398,286.1985895000398,286.1985895000398,287.3820593000273,Scenes\134b.jpg,pre,o,1.1791880000382662,None,,,,,,,,00050,001,2026-01-18_15h27.16.543,MST_test,2024.2.0,60.00765697944809,2026-01-18 15h27.23.607047 +0530,
80,0,81,o,1.1030436999863014,None,81,0,80,287.39806400000816,,,,,,,,,,,,,,,,,,,,,,,,,,,,,,,,,,,,,,,,,,,,,,,,,,287.38215960003436,287.39806400000816,287.8988664000062,287.881669000024,287.89601050002966,287.8988664000062,287.8988664000062,287.8988664000062,289.0153816000093,Scenes\152b.jpg,mid,o,1.1030436999863014,None,,,,,,,,00050,001,2026-01-18_15h27.16.543,MST_test,2024.2.0,60.00765697944809,2026-01-18 15h27.23.607047 +0530,
81,0,82,o,0.8262412999756634,None,82,0,81,289.0314006000408,,,,,,,,,,,,,,,,,,,,,,,,,,,,,,,,,,,,,,,,,,,,,,,,,,289.01547300000675,289.0314006000408,289.5357625000179,289.5150566000375,289.5335946000414,289.5357625000179,289.5357625000179,289.5357625000179,290.36560860002646,Scenes\066b.jpg,pre,o,0.8262412999756634,None,,,,,,,,00050,001,2026-01-18_15h27.16.543,MST_test,2024.2.0,60.00765697944809,2026-01-18 15h27.23.607047 +0530,
82,0,83,o,0.6801694000023417,None,83,0,82,290.38151000003563,,,,,,,,,,,,,,,,,,,,,,,,,,,,,,,,,,,,,,,,,,,,,,,,,,290.36571730003925,290.38151000003563,290.8822143000434,290.8651871000184,290.86855220003054,290.8822143000434,290.8822143000434,290.8822143000434,291.5655670000124,Objects\067a.jpg,mid,o,0.6801694000023417,None,,,,,,,,00050,001,2026-01-18_15h27.16.543,MST_test,2024.2.0,60.00765697944809,2026-01-18 15h27.23.607047 +0530,
83,0,84,s,1.4879602000000887,None,84,0,83,291.58157209999627,,,,,,,,,,,,,,,,,,,,,,,,,,,,,,,,,,,,,,,,,,,,,,,,,,291.5656588000129,291.58157209999627,292.081572199997,292.06517850002274,292.0747328000143,292.081572199997,292.081572199997,292.081572199997,293.58225279999897,Objects\162b.jpg,mid,s,1.4879602000000887,None,,,,,,,,00050,001,2026-01-18_15h27.16.543,MST_test,2024.2.0,60.00765697944809,2026-01-18 15h27.23.607047 +0530,
84,0,85,s,1.8840810999972746,None,85,0,84,293.5982534000068,,,,,,,,,,,,,,,,,,,,,,,,,,,,,,,,,,,,,,,,,,,,,,,,,,293.5823480000254,293.5982534000068,294.1014768999885,294.0816930999863,294.0992666000384,294.1014768999885,294.1014768999885,294.1014768999885,295.99882909998996,Scenes\105b.jpg,pre,s,1.8840810999972746,None,,,,,,,,00050,001,2026-01-18_15h27.16.543,MST_test,2024.2.0,60.00765697944809,2026-01-18 15h27.23.607047 +0530,
85,0,86,n,1.9829293999937363,None,86,0,85,296.01483709999593,,,,,,,,,,,,,,,,,,,,,,,,,,,,,,,,,,,,,,,,,,,,,,,,,,295.9989240000141,296.01483709999593,296.51553660002537,296.49885530001484,296.50966620002873,296.51553660002537,296.51553660002537,296.51553660002537,298.4991402000305,Scenes\025a.jpg,post,n,1.9829293999937363,None,,,,,,,,00050,001,2026-01-18_15h27.16.543,MST_test,2024.2.0,60.00765697944809,2026-01-18 15h27.23.607047 +0530,
86,0,87,s,1.8662443999783136,None,87,0,86,298.5148170000175,,,,,,,,,,,,,,,,,,,,,,,,,,,,,,,,,,,,,,,,,,,,,,,,,,298.49923900002614,298.5148170000175,299.01542509999126,298.9986915999907,299.0025377999991,299.01542509999126,299.01542509999126,299.01542509999126,300.88236940000206,Objects\096a.jpg,post,s,1.8662443999783136,None,,,,,,,,00050,001,2026-01-18_15h27.16.543,MST_test,2024.2.0,60.00765697944809,2026-01-18 15h27.23.607047 +0530,
87,0,88,o,0.970967200002633,None,88,0,87,300.89825470000505,,,,,,,,,,,,,,,,,,,,,,,,,,,,,,,,,,,,,,,,,,,,,,,,,,300.88246079999954,300.89825470000505,301.3987219000119,301.3818492999999,301.38537090003956,301.3987219000119,301.3987219000119,301.3987219000119,302.3825757000013,Scenes\022a.jpg,mid,o,0.970967200002633,None,,,,,,,,00050,001,2026-01-18_15h27.16.543,MST_test,2024.2.0,60.00765697944809,2026-01-18 15h27.23.607047 +0530,
88,0,89,s,1.1889577000401914,None,89,0,88,302.3981801000191,,,,,,,,,,,,,,,,,,,,,,,,,,,,,,,,,,,,,,,,,,,,,,,,,,302.38267940003425,302.3981801000191,302.90108540002257,302.881825199991,302.8989736000076,302.90108540002257,302.90108540002257,302.90108540002257,304.0987153000315,Scenes\184b.jpg,post,s,1.1889577000401914,None,,,,,,,,00050,001,2026-01-18_15h27.16.543,MST_test,2024.2.0,60.00765697944809,2026-01-18 15h27.23.607047 +0530,
89,0,90,s,1.2414760999963619,None,90,0,89,304.11489760002587,,,,,,,,,,,,,,,,,,,,,,,,,,,,,,,,,,,,,,,,,,,,,,,,,,304.09880720003275,304.11489760002587,304.616221400036,304.59838859998854,304.61439440003596,304.616221400036,304.616221400036,304.616221400036,305.8655201999936,Scenes\149b.jpg,mid,s,1.2414760999963619,None,,,,,,,,00050,001,2026-01-18_15h27.16.543,MST_test,2024.2.0,60.00765697944809,2026-01-18 15h27.23.607047 +0530,
90,0,91,n,3.0278808000148274,None,91,0,90,305.8815675000078,,,,,,,,,,,,,,,,,,,,,,,,,,,,,,,,,,,,,,,,,,,,,,,,,,305.86561249999795,305.8815675000078,306.3820016999962,306.3650450000423,306.36765520001063,306.3820016999962,306.3820016999962,306.3820016999962,309.41565410001203,Foils\scenes7.jpg,none,n,3.0278808000148274,None,,,,,,,,00050,001,2026-01-18_15h27.16.543,MST_test,2024.2.0,60.00765697944809,2026-01-18 15h27.23.607047 +0530,
91,0,92,o,1.2224926000344567,None,92,0,91,309.43137629999546,,,,,,,,,,,,,,,,,,,,,,,,,,,,,,,,,,,,,,,,,,,,,,,,,,309.4157523000031,309.43137629999546,309.9320075000287,309.91505100001814,309.92561189999105,309.9320075000287,309.9320075000287,309.9320075000287,311.1654170000111,Objects\023b.jpg,mid,o,1.2224926000344567,None,,,,,,,,00050,001,2026-01-18_15h27.16.543,MST_test,2024.2.0,60.00765697944809,2026-01-18 15h27.23.607047 +0530,
92,0,93,n,2.584256500005722,None,93,0,92,311.18148910003947,,,,,,,,,,,,,,,,,,,,,,,,,,,,,,,,,,,,,,,,,,,,,,,,,,311.1655088000116,311.18148910003947,311.6817655999912,311.6651794000063,311.6675641000038,311.6817655999912,311.6817655999912,311.6817655999912,314.28200410003774,Objects\064a.jpg,mid,n,2.584256500005722,None,,,,,,,,00050,001,2026-01-18_15h27.16.543,MST_test,2024.2.0,60.00765697944809,2026-01-18 15h27.23.607047 +0530,
93,0,94,n,1.6802882999763824,None,94,0,93,314.2981213000021,,,,,,,,,,,,,,,,,,,,,,,,,,,,,,,,,,,,,,,,,,,,,,,,,,314.28209799999604,314.2981213000021,314.8022726000054,314.78176079998957,314.80004709999776,314.8022726000054,314.8022726000054,314.8022726000054,316.4988952000276,Scenes\012b.jpg,post,n,1.6802882999763824,None,,,,,,,,00050,001,2026-01-18_15h27.16.543,MST_test,2024.2.0,60.00765697944809,2026-01-18 15h27.23.607047 +0530,
94,0,95,s,1.794275899999775,None,95,0,94,316.51483550004195,,,,,,,,,,,,,,,,,,,,,,,,,,,,,,,,,,,,,,,,,,,,,,,,,,316.4989876000327,316.51483550004195,317.01542280003196,316.99844830000075,317.008489800035,317.01542280003196,317.01542280003196,317.01542280003196,318.81546539999545,Objects\021b.jpg,post,s,1.794275899999775,None,,,,,,,,00050,001,2026-01-18_15h27.16.543,MST_test,2024.2.0,60.00765697944809,2026-01-18 15h27.23.607047 +0530,
95,0,96,o,0.9580970000242814,None,96,0,95,318.8315561999916,,,,,,,,,,,,,,,,,,,,,,,,,,,,,,,,,,,,,,,,,,,,,,,,,,318.81556110002566,318.8315561999916,319.33152609999524,319.3153874000418,319.32513250003103,319.33152609999524,319.33152609999524,319.33152609999524,320.29883270000573,Objects\164b.jpg,mid,o,0.9580970000242814,None,,,,,,,,00050,001,2026-01-18_15h27.16.543,MST_test,2024.2.0,60.00765697944809,2026-01-18 15h27.23.607047 +0530,
96,0,97,n,1.2106113000190817,None,97,0,96,320.314841000014,,,,,,,,,,,,,,,,,,,,,,,,,,,,,,,,,,,,,,,,,,,,,,,,,,320.29892239999026,320.314841000014,320.81499400001485,320.7983344999957,320.8017549000215,320.81499400001485,320.81499400001485,320.81499400001485,322.0320653000381,Foils\009a.jpg,none,n,1.2106113000190817,None,,,,,,,,00050,001,2026-01-18_15h27.16.543,MST_test,2024.2.0,60.00765697944809,2026-01-18 15h27.23.607047 +0530,
97,0,98,s,1.0772765000001527,None,98,0,97,322.0481443000026,,,,,,,,,,,,,,,,,,,,,,,,,,,,,,,,,,,,,,,,,,,,,,,,,,322.03215620003175,322.0481443000026,322.54884970001876,322.53210469998885,322.5465928000049,322.54884970001876,322.54884970001876,322.54884970001876,323.63193680002587,Scenes\069b.jpg,mid,s,1.0772765000001527,None,,,,,,,,00050,001,2026-01-18_15h27.16.543,MST_test,2024.2.0,60.00765697944809,2026-01-18 15h27.23.607047 +0530,
98,0,99,o,2.9257017000345513,None,99,0,98,323.64817890000995,,,,,,,,,,,,,,,,,,,,,,,,,,,,,,,,,,,,,,,,,,,,,,,,,,323.6320377000375,323.64817890000995,324.1486251000315,324.13177000003634,324.1346523000393,324.1486251000315,324.1486251000315,324.1486251000315,327.08204720000504,Objects\130a.jpg,pre,o,2.9257017000345513,None,,,,,,,,00050,001,2026-01-18_15h27.16.543,MST_test,2024.2.0,60.00765697944809,2026-01-18 15h27.23.607047 +0530,
99,0,100,n,1.7558301000390202,None,100,0,99,327.09818319999613,,,,,,,,,,,,,,,,,,,,,,,,,,,,,,,,,,,,,,,,,,,,,,,,,,327.0821425000322,327.09818319999613,327.5985658999998,327.58165180002106,327.58422000001883,327.5985658999998,327.5985658999998,327.5985658999998,329.3657974000089,Foils\scenes12.jpg,none,n,1.7558301000390202,None,,,,,,,,00050,001,2026-01-18_15h27.16.543,MST_test,2024.2.0,60.00765697944809,2026-01-18 15h27.23.607047 +0530,
100,0,101,s,1.031333499995526,None,101,0,100,329.3814958999865,,,,,,,,,,,,,,,,,,,,,,,,,,,,,,,,,,,,,,,,,,,,,,,,,,329.3658937999862,329.3814958999865,329.8822305999929,329.8650243000011,329.8757406999939,329.8822305999929,329.8822305999929,329.8822305999929,330.9153044000268,Scenes\082a.jpg,pre,s,1.031333499995526,None,,,,,,,,00050,001,2026-01-18_15h27.16.543,MST_test,2024.2.0,60.00765697944809,2026-01-18 15h27.23.607047 +0530,
101,0,102,o,1.1618264999706298,None,102,0,101,330.9313916999963,,,,,,,,,,,,,,,,,,,,,,,,,,,,,,,,,,,,,,,,,,,,,,,,,,330.9153944000136,330.9313916999963,331.43190570001025,331.41513020003913,331.4221625000355,331.43190570001025,331.43190570001025,331.43190570001025,332.5987005000352,Scenes\091a.jpg,mid,o,1.1618264999706298,None,,,,,,,,00050,001,2026-01-18_15h27.16.543,MST_test,2024.2.0,60.00765697944809,2026-01-18 15h27.23.607047 +0530,
102,0,103,n,1.1104239000123926,None,103,0,102,332.6148527000332,,,,,,,,,,,,,,,,,,,,,,,,,,,,,,,,,,,,,,,,,,,,,,,,,,332.5988020999939,332.6148527000332,333.11531630001264,333.09831219998887,333.102020899998,333.11531630001264,333.11531630001264,333.11531630001264,334.23206140002003,Foils\106a.jpg,none,n,1.1104239000123926,None,,,,,,,,00050,001,2026-01-18_15h27.16.543,MST_test,2024.2.0,60.00765697944809,2026-01-18 15h27.23.607047 +0530,
103,0,104,n,1.6937332999659702,None,104,0,103,334.2481012000353,,,,,,,,,,,,,,,,,,,,,,,,,,,,,,,,,,,,,,,,,,,,,,,,,,334.23215370002436,334.2481012000353,334.74860270001227,334.73159410001244,334.74027100001695,334.74860270001227,334.74860270001227,334.74860270001227,336.44897409999976,Foils\scenes14.jpg,none,n,1.6937332999659702,None,,,,,,,,00050,001,2026-01-18_15h27.16.543,MST_test,2024.2.0,60.00765697944809,2026-01-18 15h27.23.607047 +0530,
104,0,105,n,1.2603904000134207,None,105,0,104,336.46488789998693,,,,,,,,,,,,,,,,,,,,,,,,,,,,,,,,,,,,,,,,,,,,,,,,,,336.44907500001136,336.46488789998693,336.96526040002936,336.94841010001255,336.9588880999945,336.96526040002936,336.96526040002936,336.96526040002936,338.2320100000361,Foils\105a.jpg,none,n,1.2603904000134207,None,,,,,,,,00050,001,2026-01-18_15h27.16.543,MST_test,2024.2.0,60.00765697944809,2026-01-18 15h27.23.607047 +0530,
105,0,106,o,1.0457678000093438,None,106,0,105,338.2481503000017,,,,,,,,,,,,,,,,,,,,,,,,,,,,,,,,,,,,,,,,,,,,,,,,,,338.23210200003814,338.2481503000017,338.7483693000395,338.73190970002906,338.7345814,338.7483693000395,338.7483693000395,338.7483693000395,339.7987304000417,Objects\083a.jpg,post,o,1.0457678000093438,None,,,,,,,,00050,001,2026-01-18_15h27.16.543,MST_test,2024.2.0,60.00765697944809,2026-01-18 15h27.23.607047 +0530,
106,0,107,n,1.2470814000116661,None,107,0,106,339.8149025000166,,,,,,,,,,,,,,,,,,,,,,,,,,,,,,,,,,,,,,,,,,,,,,,,,,339.79881970002316,339.8149025000166,340.31503230001545,340.2984013000387,340.30140230001416,340.31503230001545,340.31503230001545,340.31503230001545,341.56608040002175,Foils\121a.jpg,none,n,1.2470814000116661,None,,,,,,,,00050,001,2026-01-18_15h27.16.543,MST_test,2024.2.0,60.00765697944809,2026-01-18 15h27.23.607047 +0530,
107,0,108,s,2.5679667000076734,None,108,0,107,341.58162650000304,,,,,,,,,,,,,,,,,,,,,,,,,,,,,,,,,,,,,,,,,,,,,,,,,,341.56619500002125,341.58162650000304,342.0820501000271,342.06511950003915,342.07627700001467,342.0820501000271,342.0820501000271,342.0820501000271,344.6654089000076,Scenes\015b.jpg,post,s,2.5679667000076734,None,,,,,,,,00050,001,2026-01-18_15h27.16.543,MST_test,2024.2.0,60.00765697944809,2026-01-18 15h27.23.607047 +0530,
108,0,109,s,0.7073914999491535,None,109,0,108,344.6814299999969,,,,,,,,,,,,,,,,,,,,,,,,,,,,,,,,,,,,,,,,,,,,,,,,,,344.6654984999914,344.6814299999969,345.18225060001714,345.16510169999674,345.1791696000146,345.18225060001714,345.18225060001714,345.18225060001714,345.89916650002124,Scenes\109a.jpg,mid,s,0.7073914999491535,None,,,,,,,,00050,001,2026-01-18_15h27.16.543,MST_test,2024.2.0,60.00765697944809,2026-01-18 15h27.23.607047 +0530,
109,0,110,o,2.0823101999703795,None,110,0,109,345.9148431000067,,,,,,,,,,,,,,,,,,,,,,,,,,,,,,,,,,,,,,,,,,,,,,,,,,345.8992611000431,345.9148431000067,346.41535650001606,346.3985720000346,346.4094851000118,346.41535650001606,346.41535650001606,346.41535650001606,348.49895849998575,Objects\071b.jpg,pre,o,2.0823101999703795,None,,,,,,,,00050,001,2026-01-18_15h27.16.543,MST_test,2024.2.0,60.00765697944809,2026-01-18 15h27.23.607047 +0530,
110,0,111,n,1.3789708000258543,None,111,0,110,348.5148341000313,,,,,,,,,,,,,,,,,,,,,,,,,,,,,,,,,,,,,,,,,,,,,,,,,,348.4990509999916,348.5148341000313,349.0152800999931,348.9985469999956,349.0081232000375,349.0152800999931,349.0152800999931,349.0152800999931,350.3987831000122,Scenes\188a.jpg,post,n,1.3789708000258543,None,,,,,,,,00050,001,2026-01-18_15h27.16.543,MST_test,2024.2.0,60.00765697944809,2026-01-18 15h27.23.607047 +0530,
111,0,112,n,1.8472900999477133,None,112,0,111,350.414885300037,,,,,,,,,,,,,,,,,,,,,,,,,,,,,,,,,,,,,,,,,,,,,,,,,,350.398876900028,350.414885300037,350.9153577000252,350.89849920000415,350.9015880000079,350.9153577000252,350.9153577000252,350.9153577000252,352.7656454000389,Foils\018a.jpg,none,n,1.8472900999477133,None,,,,,,,,00050,001,2026-01-18_15h27.16.543,MST_test,2024.2.0,60.00765697944809,2026-01-18 15h27.23.607047 +0530,
112,0,113,o,0.9605513999704272,None,113,0,112,352.78135720000137,,,,,,,,,,,,,,,,,,,,,,,,,,,,,,,,,,,,,,,,,,,,,,,,,,352.765741900017,352.78135720000137,353.28158519999124,353.2649886000436,353.2677456000238,353.28158519999124,353.28158519999124,353.28158519999124,354.2487111000228,Objects\045a.jpg,pre,o,0.9605513999704272,None,,,,,,,,00050,001,2026-01-18_15h27.16.543,MST_test,2024.2.0,60.00765697944809,2026-01-18 15h27.23.607047 +0530,
113,0,114,o,1.6204309000167996,None,114,0,113,354.26481870003045,,,,,,,,,,,,,,,,,,,,,,,,,,,,,,,,,,,,,,,,,,,,,,,,,,354.24880150001263,354.26481870003045,354.76529579999624,354.7484403999988,354.7562084000092,354.76529579999624,354.76529579999624,354.76529579999624,356.39873469999293,Scenes\138a.jpg,pre,o,1.6204309000167996,None,,,,,,,,00050,001,2026-01-18_15h27.16.543,MST_test,2024.2.0,60.00765697944809,2026-01-18 15h27.23.607047 +0530,
114,0,115,n,1.182427000021562,None,115,0,114,356.4148472000379,,,,,,,,,,,,,,,,,,,,,,,,,,,,,,,,,,,,,,,,,,,,,,,,,,356.3988284000079,356.4148472000379,356.91533009998966,356.8984657000401,356.901082700002,356.91533009998966,356.91533009998966,356.91533009998966,358.09872980002547,Foils\scenes5.jpg,none,n,1.182427000021562,None,,,,,,,,00050,001,2026-01-18_15h27.16.543,MST_test,2024.2.0,60.00765697944809,2026-01-18 15h27.23.607047 +0530,
115,0,116,s,1.0349958000006154,None,116,0,115,358.11477270000614,,,,,,,,,,,,,,,,,,,,,,,,,,,,,,,,,,,,,,,,,,,,,,,,,,358.09882330003893,358.11477270000614,358.61515920003876,358.598759000015,358.6085655000061,358.61515920003876,358.61515920003876,358.61515920003876,359.66539720003493,Scenes\097b.jpg,pre,s,1.0349958000006154,None,,,,,,,,00050,001,2026-01-18_15h27.16.543,MST_test,2024.2.0,60.00765697944809,2026-01-18 15h27.23.607047 +0530,
116,0,117,s,1.948384299990721,None,117,0,116,359.6813469000044,,,,,,,,,,,,,,,,,,,,,,,,,,,,,,,,,,,,,,,,,,,,,,,,,,359.6654863000149,359.6813469000044,360.1816929000197,360.16506490000756,360.16745060001267,360.1816929000197,360.1816929000197,360.1816929000197,362.13194560003467,Foils\scenes19.jpg,none,s,1.948384299990721,None,,,,,,,,00050,001,2026-01-18_15h27.16.543,MST_test,2024.2.0,60.00765697944809,2026-01-18 15h27.23.607047 +0530,
117,0,118,o,0.9377416000352241,None,118,0,117,362.1481177000096,,,,,,,,,,,,,,,,,,,,,,,,,,,,,,,,,,,,,,,,,,,,,,,,,,362.13204960001167,362.1481177000096,362.6485307000112,362.63174310000613,362.6345035000122,362.6485307000112,362.6485307000112,362.6485307000112,363.598715500033,Objects\190a.jpg,post,o,0.9377416000352241,None,,,,,,,,00050,001,2026-01-18_15h27.16.543,MST_test,2024.2.0,60.00765697944809,2026-01-18 15h27.23.607047 +0530,
118,0,119,n,1.4626768000307493,None,119,0,118,363.6148232000414,,,,,,,,,,,,,,,,,,,,,,,,,,,,,,,,,,,,,,,,,,,,,,,,,,363.59880720003275,363.6148232000414,364.1152491000248,364.09838520002086,364.101106600021,364.1152491000248,364.1152491000248,364.1152491000248,365.58201100002043,Foils\scenes2.jpg,none,n,1.4626768000307493,None,,,,,,,,00050,001,2026-01-18_15h27.16.543,MST_test,2024.2.0,60.00765697944809,2026-01-18 15h27.23.607047 +0530,
119,0,120,o,1.1274365999852307,None,120,0,119,365.59807940002065,,,,,,,,,,,,,,,,,,,,,,,,,,,,,,,,,,,,,,,,,,,,,,,,,,365.58210250001866,365.59807940002065,366.0985155000235,366.0816620000405,366.0888322000392,366.0985155000235,366.0985155000235,366.0985155000235,367.23212579998653,Scenes\136a.jpg,post,o,1.1274365999852307,None,,,,,,,,00050,001,2026-01-18_15h27.16.543,MST_test,2024.2.0,60.00765697944809,2026-01-18 15h27.23.607047 +0530,
120,0,121,s,1.797166100004688,None,121,0,120,367.2481351000024,,,,,,,,,,,,,,,,,,,,,,,,,,,,,,,,,,,,,,,,,,,,,,,,,,367.23222740000347,367.2481351000024,367.74865369999316,367.7316700000083,367.74389630003134,367.74865369999316,367.74865369999316,367.74865369999316,369.5489533999935,Objects\137b.jpg,post,s,1.797166100004688,None,,,,,,,,00050,001,2026-01-18_15h27.16.543,MST_test,2024.2.0,60.00765697944809,2026-01-18 15h27.23.607047 +0530,
121,0,122,o,0.9689009999856353,None,122,0,121,369.56490210001357,,,,,,,,,,,,,,,,,,,,,,,,,,,,,,,,,,,,,,,,,,,,,,,,,,369.54906240000855,369.56490210001357,370.065018000023,370.0484945999924,370.0583934999886,370.065018000023,370.065018000023,370.065018000023,371.0486837000353,Objects\018b.jpg,pre,o,0.9689009999856353,None,,,,,,,,00050,001,2026-01-18_15h27.16.543,MST_test,2024.2.0,60.00765697944809,2026-01-18 15h27.23.607047 +0530,
122,0,123,s,1.1177882999763824,None,123,0,122,371.06482170004165,,,,,,,,,,,,,,,,,,,,,,,,,,,,,,,,,,,,,,,,,,,,,,,,,,371.04877180000767,371.06482170004165,371.56503330002306,371.54837259999476,371.55084500001976,371.56503330002306,371.56503330002306,371.56503330002306,372.6987080000108,Objects\101a.jpg,pre,s,1.1177882999763824,None,,,,,,,,00050,001,2026-01-18_15h27.16.543,MST_test,2024.2.0,60.00765697944809,2026-01-18 15h27.23.607047 +0530,
123,0,124,o,3.618635400023777,None,124,0,123,372.714855200029,,,,,,,,,,,,,,,,,,,,,,,,,,,,,,,,,,,,,,,,,,,,,,,,,,372.6988035000395,372.714855200029,373.21495640004287,373.19840699998895,373.2008888000273,373.21495640004287,373.21495640004287,373.21495640004287,376.8487439000164,Objects\123a.jpg,mid,o,3.618635400023777,None,,,,,,,,00050,001,2026-01-18_15h27.16.543,MST_test,2024.2.0,60.00765697944809,2026-01-18 15h27.23.607047 +0530,
124,0,125,n,1.3571953000500798,None,125,0,124,376.86475639999844,,,,,,,,,,,,,,,,,,,,,,,,,,,,,,,,,,,,,,,,,,,,,,,,,,376.84883329999866,376.86475639999844,377.3652965000365,377.34838600002695,377.36280870001065,377.3652965000365,377.3652965000365,377.3652965000365,378.7321340999915,Scenes\169b.jpg,mid,n,1.3571953000500798,None,,,,,,,,00050,001,2026-01-18_15h27.16.543,MST_test,2024.2.0,60.00765697944809,2026-01-18 15h27.23.607047 +0530,
125,0,126,n,1.1611677999608219,None,126,0,125,378.7481972000096,,,,,,,,,,,,,,,,,,,,,,,,,,,,,,,,,,,,,,,,,,,,,,,,,,378.732248299988,378.7481972000096,379.24866610002937,379.231675499992,379.2462998999981,379.24866610002937,379.24866610002937,379.24866610002937,380.4154474000097,Scenes\176b.jpg,mid,n,1.1611677999608219,None,,,,,,,,00050,001,2026-01-18_15h27.16.543,MST_test,2024.2.0,60.00765697944809,2026-01-18 15h27.23.607047 +0530,
126,0,127,s,1.4370049000135623,None,127,0,126,380.43142730003456,,,,,,,,,,,,,,,,,,,,,,,,,,,,,,,,,,,,,,,,,,,,,,,,,,380.41553920001024,380.43142730003456,380.93351940001594,380.9151614999864,380.93143789999885,380.93351940001594,380.93351940001594,380.93351940001594,382.38196450000396,Scenes\052b.jpg,pre,s,1.4370049000135623,None,,,,,,,,00050,001,2026-01-18_15h27.16.543,MST_test,2024.2.0,60.00765697944809,2026-01-18 15h27.23.607047 +0530,
127,0,128,n,1.863820599974133,None,128,0,127,382.3981599000399,,,,,,,,,,,,,,,,,,,,,,,,,,,,,,,,,,,,,,,,,,,,,,,,,,382.3820615999866,382.3981599000399,382.89865180000197,382.881687599991,382.8920072999899,382.89865180000197,382.89865180000197,382.89865180000197,384.76555630000075,Foils\010a.jpg,none,n,1.863820599974133,None,,,,,,,,00050,001,2026-01-18_15h27.16.543,MST_test,2024.2.0,60.00765697944809,2026-01-18 15h27.23.607047 +0530,
128,0,129,s,0.9609100000234321,None,129,0,128,384.7814445000258,,,,,,,,,,,,,,,,,,,,,,,,,,,,,,,,,,,,,,,,,,,,,,,,,,384.7656488000066,384.7814445000258,385.281702200009,385.26516430004267,385.2679199000122,385.281702200009,385.281702200009,385.281702200009,386.2487499000272,Objects\016a.jpg,mid,s,0.9609100000234321,None,,,,,,,,00050,001,2026-01-18_15h27.16.543,MST_test,2024.2.0,60.00765697944809,2026-01-18 15h27.23.607047 +0530,
129,0,130,s,0.78082159999758,None,130,0,129,386.2647585000377,,,,,,,,,,,,,,,,,,,,,,,,,,,,,,,,,,,,,,,,,,,,,,,,,,386.24884569999995,386.2647585000377,386.76503190002404,386.7485541999922,386.75143529998604,386.76503190002404,386.76503190002404,386.76503190002404,387.5486920000403,Objects\133a.jpg,post,s,0.78082159999758,None,,,,,,,,00050,001,2026-01-18_15h27.16.543,MST_test,2024.2.0,60.00765697944809,2026-01-18 15h27.23.607047 +0530,
130,0,131,n,1.3854964000056498,None,131,0,130,387.56484190002084,,,,,,,,,,,,,,,,,,,,,,,,,,,,,,,,,,,,,,,,,,,,,,,,,,387.5487821000279,387.56484190002084,388.06517379998695,388.04834879998816,388.0576599999913,388.06517379998695,388.06517379998695,388.06517379998695,389.46544619998895,Foils\scenes13.jpg,none,n,1.3854964000056498,None,,,,,,,,00050,001,2026-01-18_15h27.16.543,MST_test,2024.2.0,60.00765697944809,2026-01-18 15h27.23.607047 +0530,
131,0,132,n,1.0920448999968357,None,132,0,131,389.48129920003703,,,,,,,,,,,,,,,,,,,,,,,,,,,,,,,,,,,,,,,,,,,,,,,,,,389.46554529998684,389.48129920003703,389.98166960000526,389.96530229999917,389.97479400003795,389.98166960000526,389.98166960000526,389.98166960000526,391.0820418000221,Foils\scenes18.jpg,none,n,1.0920448999968357,None,,,,,,,,00050,001,2026-01-18_15h27.16.543,MST_test,2024.2.0,60.00765697944809,2026-01-18 15h27.23.607047 +0530,
132,0,133,n,1.0274635000387207,None,133,0,132,391.098086300015,,,,,,,,,,,,,,,,,,,,,,,,,,,,,,,,,,,,,,,,,,,,,,,,,,391.08213410002645,391.098086300015,391.5984901000047,391.5816884000087,391.5943127000355,391.5984901000047,391.5984901000047,391.5984901000047,392.63196299999254,Scenes\139b.jpg,post,n,1.0274635000387207,None,,,,,,,,00050,001,2026-01-18_15h27.16.543,MST_test,2024.2.0,60.00765697944809,2026-01-18 15h27.23.607047 +0530,
133,0,134,o,2.029237299982924,None,134,0,133,392.6481576000224,,,,,,,,,,,,,,,,,,,,,,,,,,,,,,,,,,,,,,,,,,,,,,,,,,392.63205850002123,392.6481576000224,393.1486433999962,393.13165980001213,393.1419714000076,393.1486433999962,393.1486433999962,393.1486433999962,395.1820015000412,Objects\147b.jpg,pre,o,2.029237299982924,None,,,,,,,,00050,001,2026-01-18_15h27.16.543,MST_test,2024.2.0,60.00765697944809,2026-01-18 15h27.23.607047 +0530,
134,0,135,s,1.6229900000034831,None,135,0,134,395.19811210001353,,,,,,,,,,,,,,,,,,,,,,,,,,,,,,,,,,,,,,,,,,,,,,,,,,395.18209100002423,395.19811210001353,395.69867350003915,395.6816544000176,395.6916948000435,395.69867350003915,395.69867350003915,395.69867350003915,397.33203789999243,Scenes\009a.jpg,pre,s,1.6229900000034831,None,,,,,,,,00050,001,2026-01-18_15h27.16.543,MST_test,2024.2.0,60.00765697944809,2026-01-18 15h27.23.607047 +0530,
135,0,136,o,2.5130900000222027,None,136,0,135,397.34817950002616,,,,,,,,,,,,,,,,,,,,,,,,,,,,,,,,,,,,,,,,,,,,,,,,,,397.33213019999675,397.34817950002616,397.84881960001076,397.8316750000231,397.8393609999912,397.84881960001076,397.84881960001076,397.84881960001076,400.36566300003324,Scenes\044a.jpg,pre,o,2.5130900000222027,None,,,,,,,,00050,001,2026-01-18_15h27.16.543,MST_test,2024.2.0,60.00765697944809,2026-01-18 15h27.23.607047 +0530,
136,0,137,o,1.177087800053414,None,137,0,136,400.3814850000199,,,,,,,,,,,,,,,,,,,,,,,,,,,,,,,,,,,,,,,,,,,,,,,,,,400.365769200027,400.3814850000199,400.88170660001924,400.8650106000132,400.8716968999943,400.88170660001924,400.88170660001924,400.88170660001924,402.06541570002446,Scenes\006a.jpg,pre,o,1.177087800053414,None,,,,,,,,00050,001,2026-01-18_15h27.16.543,MST_test,2024.2.0,60.00765697944809,2026-01-18 15h27.23.607047 +0530,
137,0,138,o,1.1237729000276886,None,138,0,137,402.0813542000251,,,,,,,,,,,,,,,,,,,,,,,,,,,,,,,,,,,,,,,,,,,,,,,,,,402.06550650001736,402.0813542000251,402.58193799998844,402.5653876999859,402.57422980002593,402.58193799998844,402.58193799998844,402.58193799998844,403.71564800001215,Scenes\127a.jpg,mid,o,1.1237729000276886,None,,,,,,,,00050,001,2026-01-18_15h27.16.543,MST_test,2024.2.0,60.00765697944809,2026-01-18 15h27.23.607047 +0530,
138,0,139,n,1.1059380999649875,None,139,0,138,403.73155450000195,,,,,,,,,,,,,,,,,,,,,,,,,,,,,,,,,,,,,,,,,,,,,,,,,,403.7157464000047,403.73155450000195,404.231911400042,404.21505480003543,404.2255946000223,404.231911400042,404.231911400042,404.231911400042,405.3486666000099,Objects\126b.jpg,post,n,1.1059380999649875,None,,,,,,,,00050,001,2026-01-18_15h27.16.543,MST_test,2024.2.0,60.00765697944809,2026-01-18 15h27.23.607047 +0530,
139,0,140,s,1.9699597000144422,None,140,0,139,405.3648494000081,,,,,,,,,,,,,,,,,,,,,,,,,,,,,,,,,,,,,,,,,,,,,,,,,,405.3487581000081,405.3648494000081,405.86521920002997,405.84842530003516,405.8571927000303,405.86521920002997,405.86521920002997,405.86521920002997,407.84869900002377,Scenes\131a.jpg,pre,s,1.9699597000144422,None,,,,,,,,00050,001,2026-01-18_15h27.16.543,MST_test,2024.2.0,60.00765697944809,2026-01-18 15h27.23.607047 +0530,
140,0,141,s,0.9083412000327371,None,141,0,140,407.8648414000054,,,,,,,,,,,,,,,,,,,,,,,,,,,,,,,,,,,,,,,,,,,,,,,,,,407.84878960001515,407.8648414000054,408.36528800003,408.348436100001,408.3582974000019,408.36528800003,408.36528800003,408.36528800003,409.2825734000071,Objects\027b.jpg,post,s,0.9083412000327371,None,,,,,,,,00050,001,2026-01-18_15h27.16.543,MST_test,2024.2.0,60.00765697944809,2026-01-18 15h27.23.607047 +0530,
141,0,142,o,1.4110780999762937,None,142,0,141,409.2981625000248,,,,,,,,,,,,,,,,,,,,,,,,,,,,,,,,,,,,,,,,,,,,,,,,,,409.2826636999962,409.2981625000248,409.7986399999936,409.7816808000207,409.78901040001074,409.7986399999936,409.7986399999936,409.7986399999936,411.2156752999872,Scenes\049a.jpg,mid,o,1.4110780999762937,None,,,,,,,,00050,001,2026-01-18_15h27.16.543,MST_test,2024.2.0,60.00765697944809,2026-01-18 15h27.23.607047 +0530,
142,0,143,n,1.9573799000354484,None,143,0,142,411.2317062999937,,,,,,,,,,,,,,,,,,,,,,,,,,,,,,,,,,,,,,,,,,,,,,,,,,411.2157721000258,411.2317062999937,411.73215110000456,411.71519320004154,411.7248073000228,411.73215110000456,411.73215110000456,411.73215110000456,413.6988587999949,Objects\116b.jpg,pre,n,1.9573799000354484,None,,,,,,,,00050,001,2026-01-18_15h27.16.543,MST_test,2024.2.0,60.00765697944809,2026-01-18 15h27.23.607047 +0530,
143,0,144,s,1.25063379999483,None,144,0,143,413.7149529000162,,,,,,,,,,,,,,,,,,,,,,,,,,,,,,,,,,,,,,,,,,,,,,,,,,413.6989506999962,413.7149529000162,414.215253100032,414.198488700029,414.2081797000137,414.215253100032,414.215253100032,414.215253100032,415.4823755000252,Objects\013b.jpg,mid,s,1.25063379999483,None,,,,,,,,00050,001,2026-01-18_15h27.16.543,MST_test,2024.2.0,60.00765697944809,2026-01-18 15h27.23.607047 +0530,
144,0,145,o,1.3952785999863409,None,145,0,144,415.4982488999958,,,,,,,,,,,,,,,,,,,,,,,,,,,,,,,,,,,,,,,,,,,,,,,,,,415.48247350001475,415.4982488999958,415.998700199998,415.9818830000004,415.98894710000604,415.998700199998,415.998700199998,415.998700199998,417.3987577999942,Scenes\111a.jpg,pre,o,1.3952785999863409,None,,,,,,,,00050,001,2026-01-18_15h27.16.543,MST_test,2024.2.0,60.00765697944809,2026-01-18 15h27.23.607047 +0530,
145,0,146,s,1.214737200003583,None,146,0,145,417.4149244000437,,,,,,,,,,,,,,,,,,,,,,,,,,,,,,,,,,,,,,,,,,,,,,,,,,417.39884690003237,417.4149244000437,417.91549179999856,417.8986403000308,417.91306660004193,417.91549179999856,417.91549179999856,417.91549179999856,419.13209160004044,Scenes\123b.jpg,pre,s,1.214737200003583,None,,,,,,,,00050,001,2026-01-18_15h27.16.543,MST_test,2024.2.0,60.00765697944809,2026-01-18 15h27.23.607047 +0530,
146,0,147,n,1.3697981999721378,None,147,0,146,419.1482494000229,,,,,,,,,,,,,,,,,,,,,,,,,,,,,,,,,,,,,,,,,,,,,,,,,,419.13219450000906,419.1482494000229,419.64885130000766,419.63184550002916,419.6346112000174,419.64885130000766,419.64885130000766,419.64885130000766,421.0321047999896,Foils\scenes6.jpg,none,n,1.3697981999721378,None,,,,,,,,00050,001,2026-01-18_15h27.16.543,MST_test,2024.2.0,60.00765697944809,2026-01-18 15h27.23.607047 +0530,
147,0,148,o,1.1345155999879353,None,148,0,147,421.04826300003333,,,,,,,,,,,,,,,,,,,,,,,,,,,,,,,,,,,,,,,,,,,,,,,,,,421.0321963999886,421.04826300003333,421.5485735000111,421.5317049000296,421.5347877999884,421.5485735000111,421.5485735000111,421.5485735000111,422.69873820000794,Objects\177a.jpg,pre,o,1.1345155999879353,None,,,,,,,,00050,001,2026-01-18_15h27.16.543,MST_test,2024.2.0,60.00765697944809,2026-01-18 15h27.23.607047 +0530,
148,0,149,s,1.4183714999817312,None,149,0,148,422.71494010003516,,,,,,,,,,,,,,,,,,,,,,,,,,,,,,,,,,,,,,,,,,,,,,,,,,422.6988307000138,422.71494010003516,423.21523269999307,423.1988035000395,423.2096542000072,423.21523269999307,423.21523269999307,423.21523269999307,424.6488398000365,Objects\141b.jpg,mid,s,1.4183714999817312,None,,,,,,,,00050,001,2026-01-18_15h27.16.543,MST_test,2024.2.0,60.00765697944809,2026-01-18 15h27.23.607047 +0530,
149,0,150,s,1.3724542999989353,None,150,0,149,424.66496150003513,,,,,,,,,,,,,,,,,,,,,,,,,,,,,,,,,,,,,,,,,,,,,,,,,,424.64893180003855,424.66496150003513,425.16549240000313,425.148483099998,425.1583120000432,425.16549240000313,425.16549240000313,425.16549240000313,426.54890719999094,Scenes\026a.jpg,mid,s,1.3724542999989353,None,,,,,,,,00050,001,2026-01-18_15h27.16.543,MST_test,2024.2.0,60.00765697944809,2026-01-18 15h27.23.607047 +0530,
,,,,,,,,,,,,,,,,,,,,,,,,,,,,,,,,,,,,,,,,,,,,,,,,,,,,,,,,,,,,,,,,,,,,,,,,,426.54897320002783,426.56494300003396,426.56494300003396,428.03210880002007,space,1.4525782000273466,None,00050,001,2026-01-18_15h27.16.543,MST_test,2024.2.0,60.00765697944809,2026-01-18 15h27.23.607047 +0530,
