Sl_no,image_path,thisN,thisTrialN,thisRepN,key_resp_5.keys,key_resp_5.rt,key_resp_5.duration,key_resp_7.keys,key_resp_7.rt,key_resp_7.duration,key_resp_9.keys,key_resp_9.rt,key_resp_9.duration,key_resp_8.keys,key_resp_8.rt,key_resp_8.duration,practice.thisRepN,practice.thisTrialN,practice.thisN,trials.thisRepN,trials.thisTrialN,trials.thisN,thisRow.t,notes,welcome_page.started,text.started,key_resp.started,welcome_page.stopped,key_resp.keys,key_resp.rt,key_resp.duration,instructions.started,ins.started,key_resp_2.started,instructions.stopped,key_resp_2.keys,key_resp_2.rt,key_resp_2.duration,instructions_2.started,text_10.started,key_resp_10.started,instructions_2.stopped,key_resp_10.keys,key_resp_10.rt,key_resp_10.duration,objects_only_instruction.started,text_3.started,key_resp_3.started,objects_only_instruction.stopped,key_resp_3.keys,key_resp_3.rt,key_resp_3.duration,ISI.started,text_4.started,text_4.stopped,ISI.stopped,practice_block.started,image.started,text_5.started,key_resp_5.started,image.stopped,text_5.stopped,key_resp_5.stopped,practice_block.stopped,practice.key_resp_5.keys,practice.key_resp_5.rt,practice.key_resp_5.duration,indoor_outdoor.started,indoor_outdoor.stopped,practice.key_resp_7.keys,text_7.started,key_resp_7.started,practice.key_resp_7.rt,practice.key_resp_7.duration,practice_to_main.started,text_2.started,key_resp_4.started,practice_to_main.stopped,key_resp_4.keys,key_resp_4.rt,key_resp_4.duration,objects.started,image_2.started,text_9.started,key_resp_9.started,image_2.stopped,text_9.stopped,key_resp_9.stopped,objects.stopped,trials.key_resp_9.keys,trials.key_resp_9.rt,trials.key_resp_9.duration,encoding_task.started,encoding_task.stopped,trials.key_resp_8.keys,text_8.started,key_resp_8.started,trials.key_resp_8.rt,trials.key_resp_8.duration,end_experiment.started,text_6.started,key_resp_6.started,end_experiment.stopped,key_resp_6.keys,key_resp_6.rt,key_resp_6.duration,list_of_stimuli,encoding_task_accuracy,participant,session,date,expName,psychopyVersion,frameRate,expStart,
,,,,,,,,,,,,,,,,,,,,,,,,,0.001211299968417734,0.0026962999836541712,0.0026962999836541712,25.038841400004458,space,25.033876899979077,None,,,,,,,,,,,,,,,,,,,,,,,,,,,,,,,,,,,,,,,,,,,,,,,,,,,,,,,,,,,,,,,,,,,,,,,,,,,,,,00053,001,2026-01-18_17h18.33.436,MST_task,2024.2.0,59.85343091717774,2026-01-18 17h18.40.559418 +0530,
,,,,,,,,,,,,,,,,,,,,,,,,,,,,,,,,25.038876199978404,25.05332449998241,25.05332449998241,43.32031239999924,space,18.26355789997615,None,,,,,,,,,,,,,,,,,,,,,,,,,,,,,,,,,,,,,,,,,,,,,,,,,,,,,,,,,,,,,,,,,,,,,,,00053,001,2026-01-18_17h18.33.436,MST_task,2024.2.0,59.85343091717774,2026-01-18 17h18.40.559418 +0530,
,,,,,,,,,,,,,,,,,,,,,,,,,,,,,,,,,,,,,,,43.320338499965146,43.336685099988244,43.336685099988244,143.37033639999572,space,100.01992360001896,None,,,,,,,,,,,,,,,,,,,,,,,,,,,,,,,,,,,,,,,,,,,,,,,,,,,,,,,,,,,,,,,,00053,001,2026-01-18_17h18.33.436,MST_task,2024.2.0,59.85343091717774,2026-01-18 17h18.40.559418 +0530,
,,,,,,,,,,,,,,,,,,,,,,,,,,,,,,,,,,,,,,,,,,,,,,143.37036719999742,143.38666169997305,143.38666169997305,174.65395800000988,space,31.26572630001465,None,,,,,,,,,,,,,,,,,,,,,,,,,,,,,,,,,,,,,,,,,,,,,,,,,,,,,,,,,00053,001,2026-01-18_17h18.33.436,MST_task,2024.2.0,59.85343091717774,2026-01-18 17h18.40.559418 +0530,
3,practice_images/037a.jpg,0,0,1,f,2.288644900021609,0.16830279998248443,None,,,,,,,,,1,0,0,,,,174.66993829997955,,,,,,,,,,,,,,,,,,,,,,,,,,,,,,174.6576778999879,174.66993829997955,175.17104029998882,175.1535630999715,175.16073200001847,175.17104029998882,175.17104029998882,175.17104029998882,178.16985369997565,178.16985369997565,178.16985369997565,178.15376069996273,f,2.288644900021609,0.16830279998248443,178.1555521999835,178.15557120001176,None,,,,,,,,,,,,,,,,,,,,,,,,,,,,,,,,,,,,,,,00053,001,2026-01-18_17h18.33.436,MST_task,2024.2.0,59.85343091717774,2026-01-18 17h18.40.559418 +0530,
5,practice_images/139a.jpg,1,1,1,None,,,f,1.3100480999564752,None,,,,,,,1,1,1,,,,178.16985369997565,,,,,,,,,,,,,,,,,,,,,,,,,,,,,,178.15563779999502,178.16985369997565,178.6700885000173,178.65367949998472,178.65539199998602,178.6700885000173,178.6700885000173,178.6700885000173,181.66992349998327,181.66992349998327,181.66992349998327,181.6537382999668,None,,,181.65377249999437,182.98721589997876,f,181.66992349998327,181.66992349998327,1.3100480999564752,None,,,,,,,,,,,,,,,,,,,,,,,,,,,,,,,,,,,00053,001,2026-01-18_17h18.33.436,MST_task,2024.2.0,59.85343091717774,2026-01-18 17h18.40.559418 +0530,
10,practice_images/182a.jpg,2,2,1,None,,,f,0.26970739994430915,None,,,,,,,1,2,2,,,,183.0033605999779,,,,,,,,,,,,,,,,,,,,,,,,,,,,,,182.98730520001845,183.0033605999779,183.50344920001226,183.48694299999624,183.48839529999532,183.50344920001226,183.50344920001226,183.50344920001226,186.5033926999895,186.5033926999895,186.5033926999895,186.4872248999891,None,,,186.48726739996346,186.78717109997524,f,186.5033926999895,186.5033926999895,0.26970739994430915,None,,,,,,,,,,,,,,,,,,,,,,,,,,,,,,,,,,,00053,001,2026-01-18_17h18.33.436,MST_task,2024.2.0,59.85343091717774,2026-01-18 17h18.40.559418 +0530,
9,practice_images/180a.jpg,3,3,1,j,1.948351300030481,0.12001099996268749,None,,,,,,,,,1,3,3,,,,186.80326929996954,,,,,,,,,,,,,,,,,,,,,,,,,,,,,,186.7872614999651,186.80326929996954,187.30352199997287,187.2869199999841,187.2883276999928,187.30352199997287,187.30352199997287,187.30352199997287,190.30331099999603,190.30331099999603,190.30331099999603,190.28715940000257,j,1.948351300030481,0.12001099996268749,190.28720229997998,190.28721679997398,None,,,,,,,,,,,,,,,,,,,,,,,,,,,,,,,,,,,,,,,00053,001,2026-01-18_17h18.33.436,MST_task,2024.2.0,59.85343091717774,2026-01-18 17h18.40.559418 +0530,
6,practice_images/158a.jpg,4,4,1,j,1.2723640000331216,0.1199985999846831,None,,,,,,,,,1,4,4,,,,190.30331099999603,,,,,,,,,,,,,,,,,,,,,,,,,,,,,,190.28728079999564,190.30331099999603,190.80353649996687,190.78710359998513,190.7886342999991,190.80353649996687,190.80353649996687,190.80353649996687,193.80335339996964,193.80335339996964,193.80335339996964,193.78706419997616,j,1.2723640000331216,0.1199985999846831,193.78710069996305,193.78711279999698,None,,,,,,,,,,,,,,,,,,,,,,,,,,,,,,,,,,,,,,,00053,001,2026-01-18_17h18.33.436,MST_task,2024.2.0,59.85343091717774,2026-01-18 17h18.40.559418 +0530,
1,practice_images/013a.jpg,5,5,1,j,1.1003569000167772,0.11997409997275099,None,,,,,,,,,1,5,5,,,,193.80335339996964,,,,,,,,,,,,,,,,,,,,,,,,,,,,,,193.7871759000118,193.80335339996964,194.30340849998174,194.28684219997376,194.29226539999945,194.30340849998174,194.30340849998174,194.30340849998174,197.30343899998115,197.30343899998115,197.30343899998115,197.28707580000628,j,1.1003569000167772,0.11997409997275099,197.289841299993,197.28985970001668,None,,,,,,,,,,,,,,,,,,,,,,,,,,,,,,,,,,,,,,,00053,001,2026-01-18_17h18.33.436,MST_task,2024.2.0,59.85343091717774,2026-01-18 17h18.40.559418 +0530,
4,practice_images/002b.jpg,6,6,1,None,,,j,0.24988529999973252,None,,,,,,,1,6,6,,,,197.30343899998115,,,,,,,,,,,,,,,,,,,,,,,,,,,,,,197.28992660000222,197.30343899998115,197.8034856999875,197.786850399978,197.7884777999716,197.8034856999875,197.8034856999875,197.8034856999875,200.803279499989,200.803279499989,200.803279499989,200.78714939998463,None,,,200.78718250000384,201.0539904999896,j,200.803279499989,200.803279499989,0.24988529999973252,None,,,,,,,,,,,,,,,,,,,,,,,,,,,,,,,,,,,00053,001,2026-01-18_17h18.33.436,MST_task,2024.2.0,59.85343091717774,2026-01-18 17h18.40.559418 +0530,
7,practice_images/166a.jpg,7,7,1,f,2.114017900021281,0.15967289998661727,None,,,,,,,,,1,7,7,,,,201.0698846000014,,,,,,,,,,,,,,,,,,,,,,,,,,,,,,201.05433080001967,201.0698846000014,201.57012350001605,201.55361419997644,201.5550592999789,201.57012350001605,201.57012350001605,201.57012350001605,204.56978889997117,204.56978889997117,204.56978889997117,204.55374589998974,f,2.114017900021281,0.15967289998661727,204.5537824999774,204.55379609996453,None,,,,,,,,,,,,,,,,,,,,,,,,,,,,,,,,,,,,,,,00053,001,2026-01-18_17h18.33.436,MST_task,2024.2.0,59.85343091717774,2026-01-18 17h18.40.559418 +0530,
2,practice_images/031a.jpg,8,8,1,f,1.2945795999839902,0.13568649999797344,None,,,,,,,,,1,8,8,,,,204.56978889997117,,,,,,,,,,,,,,,,,,,,,,,,,,,,,,204.5538697000011,204.56978889997117,205.0700553000206,205.05353550001746,205.05487900000298,205.0700553000206,205.0700553000206,205.0700553000206,208.069908400008,208.069908400008,208.069908400008,208.05393290001666,f,1.2945795999839902,0.13568649999797344,208.05397199996514,208.0539853000082,None,,,,,,,,,,,,,,,,,,,,,,,,,,,,,,,,,,,,,,,00053,001,2026-01-18_17h18.33.436,MST_task,2024.2.0,59.85343091717774,2026-01-18 17h18.40.559418 +0530,
8,practice_images/178a.jpg,9,9,1,f,1.345993799972348,0.11235080001642928,None,,,,,,,,,1,9,9,,,,208.069908400008,,,,,,,,,,,,,,,,,,,,,,,,,,,,,,208.05404899996938,208.069908400008,208.57012899999972,208.55353440000908,208.55493189999834,208.57012899999972,208.57012899999972,208.57012899999972,211.57003319996875,211.57003319996875,211.57003319996875,211.55370859999675,f,1.345993799972348,0.11235080001642928,211.55374529998517,211.5537578999647,None,,,,,,,,,,,,,,,,,,,,,,,,,,,,,,,,,,,,,,,00053,001,2026-01-18_17h18.33.436,MST_task,2024.2.0,59.85343091717774,2026-01-18 17h18.40.559418 +0530,
,,,,,,,,,,,,,,,,,,,,,,,,,,,,,,,,,,,,,,,,,,,,,,,,,,,,,,,,,,,,,,,,,,,,,,,,,,,211.5538014000049,211.57003319996875,211.57003319996875,232.17061570001533,space,20.586390700016636,None,,,,,,,,,,,,,,,,,,,,,,,,,,,,00053,001,2026-01-18_17h18.33.436,MST_task,2024.2.0,59.85343091717774,2026-01-18 17h18.40.559418 +0530,
,Objects\169a.jpg,0,0,1,,,,,,,f,2.669240200018976,0.13596980000147596,None,,,,,,1,0,0,232.18679329997394,,,,,,,,,,,,,,,,,,,,,,,,,,,,,,232.17140089999884,232.18679329997394,232.6870806000079,232.67040040000575,,,,,,,,,,,,,,,,,,,,,,,,,,232.6764132999815,232.6870806000079,232.6870806000079,232.6870806000079,235.68678659998113,235.68678659998113,235.68678659998113,235.67072950000875,f,2.669240200018976,0.13596980000147596,235.67388389998814,235.67390200000955,None,,,,,,,,,,,,,,00053,001,2026-01-18_17h18.33.436,MST_task,2024.2.0,59.85343091717774,2026-01-18 17h18.40.559418 +0530,
,Objects\056a.jpg,1,0,2,,,,,,,f,2.0809541000053287,0.1360067999921739,None,,,,,,2,0,1,235.68678659998113,,,,,,,,,,,,,,,,,,,,,,,,,,,,,,235.67397080000956,235.68678659998113,236.1869818000123,236.17043539998122,,,,,,,,,,,,,,,,,,,,,,,,,,236.17307879996952,236.1869818000123,236.1869818000123,236.1869818000123,239.18670919997385,239.18670919997385,239.18670919997385,239.1707701999694,f,2.0809541000053287,0.1360067999921739,239.17081219999818,239.1708228000207,None,,,,,,,,,,,,,,00053,001,2026-01-18_17h18.33.436,MST_task,2024.2.0,59.85343091717774,2026-01-18 17h18.40.559418 +0530,
,Objects\163a.jpg,2,0,3,,,,,,,j,2.469331400003284,0.1280034999945201,None,,,,,,3,0,2,239.18670919997385,,,,,,,,,,,,,,,,,,,,,,,,,,,,,,239.17088619997958,239.18670919997385,239.68702459998894,239.67046459997073,,,,,,,,,,,,,,,,,,,,,,,,,,239.67304139997577,239.68702459998894,239.68702459998894,239.68702459998894,242.68679040001007,242.68679040001007,242.68679040001007,242.6705697000143,j,2.469331400003284,0.1280034999945201,242.67061430000467,242.67062579997582,None,,,,,,,,,,,,,,00053,001,2026-01-18_17h18.33.436,MST_task,2024.2.0,59.85343091717774,2026-01-18 17h18.40.559418 +0530,
,Objects\099a.jpg,3,0,4,,,,,,,j,1.313591699989047,0.15209670003969222,None,,,,,,4,0,3,242.68679040001007,,,,,,,,,,,,,,,,,,,,,,,,,,,,,,242.67069040000206,242.68679040001007,243.18702299997676,243.17031600000337,,,,,,,,,,,,,,,,,,,,,,,,,,243.17314979998628,243.18702299997676,243.18702299997676,243.18702299997676,246.18678029999137,246.18678029999137,246.18678029999137,246.1705947999726,j,1.313591699989047,0.15209670003969222,246.17063939996297,246.17065079999156,None,,,,,,,,,,,,,,00053,001,2026-01-18_17h18.33.436,MST_task,2024.2.0,59.85343091717774,2026-01-18 17h18.40.559418 +0530,
,Objects\047a.jpg,4,0,5,,,,,,,f,0.9173068999662064,0.19206169998506084,None,,,,,,5,0,4,246.18678029999137,,,,,,,,,,,,,,,,,,,,,,,,,,,,,,246.1707158999634,246.18678029999137,246.68702690000646,246.67045169998892,,,,,,,,,,,,,,,,,,,,,,,,,,246.6729226000025,246.68702690000646,246.68702690000646,246.68702690000646,249.686715000018,249.686715000018,249.686715000018,249.6705903999973,f,0.9173068999662064,0.19206169998506084,249.67063249996863,249.67064359999495,None,,,,,,,,,,,,,,00053,001,2026-01-18_17h18.33.436,MST_task,2024.2.0,59.85343091717774,2026-01-18 17h18.40.559418 +0530,
,Objects\011a.jpg,5,0,6,,,,,,,f,1.2569995999801904,0.15200300002470613,None,,,,,,6,0,5,249.686715000018,,,,,,,,,,,,,,,,,,,,,,,,,,,,,,249.67073439998785,249.686715000018,250.18704900000012,250.17037329997402,,,,,,,,,,,,,,,,,,,,,,,,,,250.17283300001873,250.18704900000012,250.18704900000012,250.18704900000012,253.18668390001403,253.18668390001403,253.18668390001403,253.1704747999902,f,1.2569995999801904,0.15200300002470613,253.17051709996304,253.17052869999316,None,,,,,,,,,,,,,,00053,001,2026-01-18_17h18.33.436,MST_task,2024.2.0,59.85343091717774,2026-01-18 17h18.40.559418 +0530,
,Objects\017a.jpg,6,0,7,,,,,,,f,1.925416900019627,0.15973389998544008,None,,,,,,7,0,6,253.18668390001403,,,,,,,,,,,,,,,,,,,,,,,,,,,,,,253.1705942999688,253.18668390001403,253.6869828000199,253.670466999989,,,,,,,,,,,,,,,,,,,,,,,,,,253.67311340000015,253.6869828000199,253.6869828000199,253.6869828000199,256.6867781999754,256.6867781999754,256.6867781999754,256.6705081000109,f,1.925416900019627,0.15973389998544008,256.67054989997996,256.6705609000055,None,,,,,,,,,,,,,,00053,001,2026-01-18_17h18.33.436,MST_task,2024.2.0,59.85343091717774,2026-01-18 17h18.40.559418 +0530,
,Scenes\158a.jpg,7,0,8,,,,,,,j,2.9370392999844626,None,None,,,,,,8,0,7,256.6867781999754,,,,,,,,,,,,,,,,,,,,,,,,,,,,,,256.67062549997354,256.6867781999754,257.1871856999933,257.1703303999966,,,,,,,,,,,,,,,,,,,,,,,,,,257.18149350001477,257.1871856999933,257.1871856999933,257.1871856999933,260.18681659997674,260.18681659997674,260.18681659997674,260.1707213000045,j,2.9370392999844626,None,260.1725320999976,260.1725543999928,None,,,,,,,,,,,,,,00053,001,2026-01-18_17h18.33.436,MST_task,2024.2.0,59.85343091717774,2026-01-18 17h18.40.559418 +0530,
,Scenes\046a.jpg,8,0,9,,,,,,,j,1.3816654999973252,0.12720859999535605,None,,,,,,9,0,8,260.18681659997674,,,,,,,,,,,,,,,,,,,,,,,,,,,,,,260.1726298999856,260.18681659997674,260.68724629998906,260.6707527000108,,,,,,,,,,,,,,,,,,,,,,,,,,260.683148799988,260.68724629998906,260.68724629998906,260.68724629998906,263.68680359999416,263.68680359999416,263.68680359999416,263.6706203999929,j,1.3816654999973252,0.12720859999535605,263.6706643999787,263.670675100002,None,,,,,,,,,,,,,,00053,001,2026-01-18_17h18.33.436,MST_task,2024.2.0,59.85343091717774,2026-01-18 17h18.40.559418 +0530,
,Scenes\093a.jpg,9,0,10,,,,,,,f,1.3331387999933213,0.17632039997261018,None,,,,,,10,0,9,263.68680359999416,,,,,,,,,,,,,,,,,,,,,,,,,,,,,,263.6707720999839,263.68680359999416,264.1905139000155,264.1702133999788,,,,,,,,,,,,,,,,,,,,,,,,,,264.1880554999807,264.1905139000155,264.1905139000155,264.1905139000155,,,,267.18705489998683,f,1.3331387999933213,0.17632039997261018,267.1870971000171,267.18710939999437,None,,,,,,,,,,,,,,00053,001,2026-01-18_17h18.33.436,MST_task,2024.2.0,59.85343091717774,2026-01-18 17h18.40.559418 +0530,
,Scenes\054a.jpg,10,0,11,,,,,,,j,1.2039858999778517,0.1360209999838844,None,,,,,,11,0,10,267.20347050001146,,,,,,,,,,,,,,,,,,,,,,,,,,,,,,267.18720799998846,267.20347050001146,267.7036879999796,267.6871553999954,,,,,,,,,,,,,,,,,,,,,,,,,,267.6978051000042,267.7036879999796,267.7036879999796,267.7036879999796,,,,270.6872596999747,j,1.2039858999778517,0.1360209999838844,270.68731080001453,270.68732339999406,None,,,,,,,,,,,,,,00053,001,2026-01-18_17h18.33.436,MST_task,2024.2.0,59.85343091717774,2026-01-18 17h18.40.559418 +0530,
,Scenes\124a.jpg,11,0,12,,,,,,,j,1.0873679000069387,0.11278679996030405,None,,,,,,12,0,11,270.70356290001655,,,,,,,,,,,,,,,,,,,,,,,,,,,,,,270.6874420999666,270.70356290001655,271.2043421000126,271.1871342000086,,,,,,,,,,,,,,,,,,,,,,,,,,271.194060800015,271.2043421000126,271.2043421000126,271.2043421000126,274.2033006999991,274.2033006999991,274.2033006999991,274.1872954000137,j,1.0873679000069387,0.11278679996030405,274.18733639997663,274.18734720000066,None,,,,,,,,,,,,,,00053,001,2026-01-18_17h18.33.436,MST_task,2024.2.0,59.85343091717774,2026-01-18 17h18.40.559418 +0530,
,Scenes\083a.jpg,12,0,13,,,,,,,j,1.0839351000031456,0.1280106999911368,None,,,,,,13,0,12,274.2033006999991,,,,,,,,,,,,,,,,,,,,,,,,,,,,,,274.18744219996734,274.2033006999991,274.7039484999841,274.6870058000204,,,,,,,,,,,,,,,,,,,,,,,,,,274.6955781999859,274.7039484999841,274.7039484999841,274.7039484999841,277.70336499996483,277.70336499996483,277.70336499996483,277.6873922999948,j,1.0839351000031456,0.1280106999911368,277.68743649998214,277.68744760000845,None,,,,,,,,,,,,,,00053,001,2026-01-18_17h18.33.436,MST_task,2024.2.0,59.85343091717774,2026-01-18 17h18.40.559418 +0530,
,Scenes\089a.jpg,13,0,14,,,,,,,j,1.815839400049299,0.1207293999614194,None,,,,,,14,0,13,277.70336499996483,,,,,,,,,,,,,,,,,,,,,,,,,,,,,,277.68754379998427,277.70336499996483,278.20393650000915,278.18703739997,,,,,,,,,,,,,,,,,,,,,,,,,,278.19849729997804,278.20393650000915,278.20393650000915,278.20393650000915,281.20352739997907,281.20352739997907,281.20352739997907,281.18750060000457,j,1.815839400049299,0.1207293999614194,281.187548100017,281.1875596999889,None,,,,,,,,,,,,,,00053,001,2026-01-18_17h18.33.436,MST_task,2024.2.0,59.85343091717774,2026-01-18 17h18.40.559418 +0530,
,Objects\091a.jpg,14,0,15,,,,,,,None,,,f,0.5652584999916144,None,,,,15,0,14,281.20352739997907,,,,,,,,,,,,,,,,,,,,,,,,,,,,,,281.1876287999912,281.20352739997907,281.7037027999759,281.68720799998846,,,,,,,,,,,,,,,,,,,,,,,,,,281.6938213999965,281.7037027999759,281.7037027999759,281.7037027999759,284.70339909999166,284.70339909999166,284.70339909999166,284.68741549999686,None,,,284.68953109998256,285.27024859999074,f,284.70339909999166,284.70339909999166,0.5652584999916144,None,,,,,,,,,,00053,001,2026-01-18_17h18.33.436,MST_task,2024.2.0,59.85343091717774,2026-01-18 17h18.40.559418 +0530,
,Objects\066a.jpg,15,0,16,,,,,,,None,,,f,0.47356090001994744,None,,,,16,0,15,285.2866853000014,,,,,,,,,,,,,,,,,,,,,,,,,,,,,,285.2703710999922,285.2866853000014,285.7868523999932,285.7701881999965,,,,,,,,,,,,,,,,,,,,,,,,,,285.77368759998353,285.7868523999932,285.7868523999932,285.7868523999932,288.7867092000088,288.7867092000088,288.7867092000088,288.77052259998163,None,,,288.77056059997994,289.2703676999663,f,288.7867092000088,288.7867092000088,0.47356090001994744,None,,,,,,,,,,00053,001,2026-01-18_17h18.33.436,MST_task,2024.2.0,59.85343091717774,2026-01-18 17h18.40.559418 +0530,
,Objects\052a.jpg,16,0,17,,,,,,,f,2.873228200012818,None,None,,,,,,17,0,16,289.28669530001935,,,,,,,,,,,,,,,,,,,,,,,,,,,,,,289.2704538999824,289.28669530001935,289.7869148000027,289.7703537999769,,,,,,,,,,,,,,,,,,,,,,,,,,289.77306320000207,289.7869148000027,289.7869148000027,289.7869148000027,292.78663089999463,292.78663089999463,292.78663089999463,292.7704977999674,f,2.873228200012818,None,292.77054329996463,292.7705552999978,None,,,,,,,,,,,,,,00053,001,2026-01-18_17h18.33.436,MST_task,2024.2.0,59.85343091717774,2026-01-18 17h18.40.559418 +0530,
,Objects\078a.jpg,17,0,18,,,,,,,f,0.8848498999723233,0.1609497000463307,None,,,,,,18,0,17,292.78663089999463,,,,,,,,,,,,,,,,,,,,,,,,,,,,,,292.7706222999841,292.78663089999463,293.28691859997343,293.27029309998034,,,,,,,,,,,,,,,,,,,,,,,,,,293.27299339999445,293.28691859997343,293.28691859997343,293.28691859997343,296.286723600002,296.286723600002,296.286723600002,296.27088189998176,f,0.8848498999723233,0.1609497000463307,296.2709242000128,296.2709353999817,None,,,,,,,,,,,,,,00053,001,2026-01-18_17h18.33.436,MST_task,2024.2.0,59.85343091717774,2026-01-18 17h18.40.559418 +0530,
,Objects\086a.jpg,18,0,19,,,,,,,j,2.2249816000112332,0.12089510000078008,None,,,,,,19,0,18,296.286723600002,,,,,,,,,,,,,,,,,,,,,,,,,,,,,,296.2710431999876,296.286723600002,296.7870905000018,296.77065939997556,,,,,,,,,,,,,,,,,,,,,,,,,,296.7737882999936,296.7870905000018,296.7870905000018,296.7870905000018,299.7867014000076,299.7867014000076,299.7867014000076,299.7704948000028,j,2.2249816000112332,0.12089510000078008,299.770538199984,299.77054950001184,None,,,,,,,,,,,,,,00053,001,2026-01-18_17h18.33.436,MST_task,2024.2.0,59.85343091717774,2026-01-18 17h18.40.559418 +0530,
,Objects\138a.jpg,19,0,20,,,,,,,j,1.077582199999597,0.12724170001456514,None,,,,,,20,0,19,299.7867014000076,,,,,,,,,,,,,,,,,,,,,,,,,,,,,,299.7706474000006,299.7867014000076,300.28691859997343,300.27030699996976,,,,,,,,,,,,,,,,,,,,,,,,,,300.27307960001053,300.28691859997343,300.28691859997343,300.28691859997343,303.28671030001715,303.28671030001715,303.28671030001715,303.2704227999784,j,1.077582199999597,0.12724170001456514,303.2704639000003,303.2704745999654,None,,,,,,,,,,,,,,00053,001,2026-01-18_17h18.33.436,MST_task,2024.2.0,59.85343091717774,2026-01-18 17h18.40.559418 +0530,
,Objects\085a.jpg,20,0,21,,,,,,,j,0.9459839999908581,0.14291670004604384,None,,,,,,21,0,20,303.28671030001715,,,,,,,,,,,,,,,,,,,,,,,,,,,,,,303.27057069999864,303.28671030001715,303.7868941000197,303.77011559996754,,,,,,,,,,,,,,,,,,,,,,,,,,303.7729716000031,303.7868941000197,303.7868941000197,303.7868941000197,306.78668409999227,306.78668409999227,306.78668409999227,306.7705786000006,j,0.9459839999908581,0.14291670004604384,306.77062580001075,306.7706372999819,None,,,,,,,,,,,,,,00053,001,2026-01-18_17h18.33.436,MST_task,2024.2.0,59.85343091717774,2026-01-18 17h18.40.559418 +0530,
,Scenes\164a.jpg,21,0,22,,,,,,,j,1.5415108000161126,0.15200040000490844,None,,,,,,22,0,21,306.78668409999227,,,,,,,,,,,,,,,,,,,,,,,,,,,,,,306.7707464999985,306.78668409999227,307.28721249999944,307.27026099996874,,,,,,,,,,,,,,,,,,,,,,,,,,307.2796469000168,307.28721249999944,307.28721249999944,307.28721249999944,310.28671060001943,310.28671060001943,310.28671060001943,310.2704934999929,j,1.5415108000161126,0.15200040000490844,310.2722120999824,310.27223040000536,None,,,,,,,,,,,,,,00053,001,2026-01-18_17h18.33.436,MST_task,2024.2.0,59.85343091717774,2026-01-18 17h18.40.559418 +0530,
,Scenes\067a.jpg,22,0,23,,,,,,,f,1.488901500008069,0.16846620000433177,None,,,,,,23,0,22,310.28671060001943,,,,,,,,,,,,,,,,,,,,,,,,,,,,,,310.2723024999723,310.28671060001943,310.7872712999815,310.7701329999836,,,,,,,,,,,,,,,,,,,,,,,,,,310.77771359996404,310.7872712999815,310.7872712999815,310.7872712999815,313.78663400001824,313.78663400001824,313.78663400001824,313.7705263000098,f,1.488901500008069,0.16846620000433177,313.7705694999895,313.770580100012,None,,,,,,,,,,,,,,00053,001,2026-01-18_17h18.33.436,MST_task,2024.2.0,59.85343091717774,2026-01-18 17h18.40.559418 +0530,
,Scenes\044a.jpg,23,0,24,,,,,,,j,2.7176428000093438,0.1120929999742657,None,,,,,,24,0,23,313.78663400001824,,,,,,,,,,,,,,,,,,,,,,,,,,,,,,313.77067419997184,313.78663400001824,314.28694989997894,314.27020849997643,,,,,,,,,,,,,,,,,,,,,,,,,,314.2758286999888,314.28694989997894,314.28694989997894,314.28694989997894,317.2867033999646,317.2867033999646,317.2867033999646,317.2703599999659,j,2.7176428000093438,0.1120929999742657,317.2704012999893,317.27041290001944,None,,,,,,,,,,,,,,00053,001,2026-01-18_17h18.33.436,MST_task,2024.2.0,59.85343091717774,2026-01-18 17h18.40.559418 +0530,
,Scenes\100a.jpg,24,0,25,,,,,,,f,1.4965391000150703,0.16791369998827577,None,,,,,,25,0,24,317.2867033999646,,,,,,,,,,,,,,,,,,,,,,,,,,,,,,317.2704789999989,317.2867033999646,317.7872645999887,317.7702055000118,,,,,,,,,,,,,,,,,,,,,,,,,,317.7789247999899,317.7872645999887,317.7872645999887,317.7872645999887,320.7867954999674,320.7867954999674,320.7867954999674,320.7707570999628,f,1.4965391000150703,0.16791369998827577,320.7708066999912,320.7708182000206,None,,,,,,,,,,,,,,00053,001,2026-01-18_17h18.33.436,MST_task,2024.2.0,59.85343091717774,2026-01-18 17h18.40.559418 +0530,
,Scenes\180a.jpg,25,0,26,,,,,,,j,0.9823469000402838,0.12705509999068454,None,,,,,,26,0,25,320.7867954999674,,,,,,,,,,,,,,,,,,,,,,,,,,,,,,320.7709189999732,320.7867954999674,321.2872048999998,321.2703884000075,,,,,,,,,,,,,,,,,,,,,,,,,,321.2773406999768,321.2872048999998,321.2872048999998,321.2872048999998,324.2867111999658,324.2867111999658,324.2867111999658,324.2707194999675,j,0.9823469000402838,0.12705509999068454,324.27076290000696,324.27077379997354,None,,,,,,,,,,,,,,00053,001,2026-01-18_17h18.33.436,MST_task,2024.2.0,59.85343091717774,2026-01-18 17h18.40.559418 +0530,
,Scenes\143a.jpg,26,0,27,,,,,,,j,2.857904199976474,None,None,,,,,,27,0,26,324.2867111999658,,,,,,,,,,,,,,,,,,,,,,,,,,,,,,324.270840400015,324.2867111999658,324.78728360001696,324.77029070002027,,,,,,,,,,,,,,,,,,,,,,,,,,324.7799091999768,324.78728360001696,324.78728360001696,324.78728360001696,327.7867064999882,327.7867064999882,327.7867064999882,327.77046199998586,j,2.857904199976474,None,327.7705043000169,327.77051529998425,None,,,,,,,,,,,,,,00053,001,2026-01-18_17h18.33.436,MST_task,2024.2.0,59.85343091717774,2026-01-18 17h18.40.559418 +0530,
,Scenes\187a.jpg,27,0,28,,,,,,,j,1.1168229999602772,0.11208819999592379,None,,,,,,28,0,27,327.7867064999882,,,,,,,,,,,,,,,,,,,,,,,,,,,,,,327.7706129999715,327.7867064999882,328.2872407999821,328.2703141999664,,,,,,,,,,,,,,,,,,,,,,,,,,328.2788991999696,328.2872407999821,328.2872407999821,328.2872407999821,331.2866814999725,331.2866814999725,331.2866814999725,331.2705705999979,j,1.1168229999602772,0.11208819999592379,331.27061409997987,331.2706252000062,None,,,,,,,,,,,,,,00053,001,2026-01-18_17h18.33.436,MST_task,2024.2.0,59.85343091717774,2026-01-18 17h18.40.559418 +0530,
,Objects\160a.jpg,28,0,29,,,,,,,f,2.4805697999545373,0.14466600003652275,None,,,,,,29,0,28,331.2866814999725,,,,,,,,,,,,,,,,,,,,,,,,,,,,,,331.27069279999705,331.2866814999725,331.7872009999701,331.770361199975,,,,,,,,,,,,,,,,,,,,,,,,,,331.77620129997376,331.7872009999701,331.7872009999701,331.7872009999701,334.7868088000105,334.7868088000105,334.7868088000105,334.77065419999417,f,2.4805697999545373,0.14466600003652275,334.77272589999484,334.7727428000071,None,,,,,,,,,,,,,,00053,001,2026-01-18_17h18.33.436,MST_task,2024.2.0,59.85343091717774,2026-01-18 17h18.40.559418 +0530,
,Objects\018a.jpg,29,0,30,,,,,,,None,,,f,1.4457009000470862,None,,,,30,0,29,334.7868088000105,,,,,,,,,,,,,,,,,,,,,,,,,,,,,,334.77281280001625,334.7868088000105,335.287035699992,335.27045680000447,,,,,,,,,,,,,,,,,,,,,,,,,,335.2733255000203,335.287035699992,335.287035699992,335.287035699992,338.28682749997824,338.28682749997824,338.28682749997824,338.2707277999725,None,,,338.27077790000476,339.7371391999768,f,338.28682749997824,338.28682749997824,1.4457009000470862,None,,,,,,,,,,00053,001,2026-01-18_17h18.33.436,MST_task,2024.2.0,59.85343091717774,2026-01-18 17h18.40.559418 +0530,
,Objects\155a.jpg,30,0,31,,,,,,,f,0.7671356999780983,0.15098640002543107,None,,,,,,31,0,30,339.7535194999655,,,,,,,,,,,,,,,,,,,,,,,,,,,,,,339.7372269000043,339.7535194999655,340.2537155000027,340.23718569998164,,,,,,,,,,,,,,,,,,,,,,,,,,340.2401615999988,340.2537155000027,340.2537155000027,340.2537155000027,343.2535136999795,343.2535136999795,343.2535136999795,343.2373296999722,f,0.7671356999780983,0.15098640002543107,343.2373737000162,343.23738489998505,None,,,,,,,,,,,,,,00053,001,2026-01-18_17h18.33.436,MST_task,2024.2.0,59.85343091717774,2026-01-18 17h18.40.559418 +0530,
,Objects\105a.jpg,31,0,32,,,,,,,f,0.9621515000471845,0.15187739999964833,None,,,,,,32,0,31,343.2535136999795,,,,,,,,,,,,,,,,,,,,,,,,,,,,,,343.23748369998066,343.2535136999795,343.7537155000027,343.7371274000034,,,,,,,,,,,,,,,,,,,,,,,,,,343.739711000002,343.7537155000027,343.7537155000027,343.7537155000027,346.75350170000456,346.75350170000456,346.75350170000456,346.7372890000115,f,0.9621515000471845,0.15187739999964833,346.7373371999711,346.73734870000044,None,,,,,,,,,,,,,,00053,001,2026-01-18_17h18.33.436,MST_task,2024.2.0,59.85343091717774,2026-01-18 17h18.40.559418 +0530,
,Objects\126a.jpg,32,0,33,,,,,,,None,,,j,0.5428251000121236,None,,,,33,0,32,346.75350170000456,,,,,,,,,,,,,,,,,,,,,,,,,,,,,,346.7374144999776,346.75350170000456,347.25383890001103,347.2370237999712,,,,,,,,,,,,,,,,,,,,,,,,,,347.2398414000054,347.25383890001103,347.25383890001103,347.25383890001103,350.25345949997427,350.25345949997427,350.25345949997427,350.2374895999674,None,,,350.2375335000106,350.8038009000011,j,350.25345949997427,350.25345949997427,0.5428251000121236,None,,,,,,,,,,00053,001,2026-01-18_17h18.33.436,MST_task,2024.2.0,59.85343091717774,2026-01-18 17h18.40.559418 +0530,
,Objects\179a.jpg,33,0,34,,,,,,,f,1.443938700016588,0.15974289999576285,None,,,,,,34,0,33,350.8199872999685,,,,,,,,,,,,,,,,,,,,,,,,,,,,,,350.8038889999734,350.8199872999685,351.3204391999752,351.3038935000077,,,,,,,,,,,,,,,,,,,,,,,,,,351.306930599967,351.3204391999752,351.3204391999752,351.3204391999752,354.32019080000464,354.32019080000464,354.32019080000464,354.30412980000256,f,1.443938700016588,0.15974289999576285,354.3041801999789,354.304191800009,None,,,,,,,,,,,,,,00053,001,2026-01-18_17h18.33.436,MST_task,2024.2.0,59.85343091717774,2026-01-18 17h18.40.559418 +0530,
,Objects\121a.jpg,34,0,35,,,,,,,None,,,j,0.1533540000091307,None,,,,35,0,34,354.32019080000464,,,,,,,,,,,,,,,,,,,,,,,,,,,,,,354.3042925000191,354.32019080000464,354.8203714999836,354.80373370001325,,,,,,,,,,,,,,,,,,,,,,,,,,354.8064235000056,354.8203714999836,354.8203714999836,354.8203714999836,357.82017159997486,357.82017159997486,357.82017159997486,357.80411319999257,None,,,357.80415390001144,357.9875475000008,j,357.82017159997486,357.82017159997486,0.1533540000091307,None,,,,,,,,,,00053,001,2026-01-18_17h18.33.436,MST_task,2024.2.0,59.85343091717774,2026-01-18 17h18.40.559418 +0530,
,Scenes\063a.jpg,35,0,36,,,,,,,j,2.5401468999916688,0.10400230000959709,None,,,,,,36,0,35,358.00359540001955,,,,,,,,,,,,,,,,,,,,,,,,,,,,,,357.98764130001655,358.00359540001955,358.5039969999925,358.4870654999977,,,,,,,,,,,,,,,,,,,,,,,,,,358.49788450001506,358.5039969999925,358.5039969999925,358.5039969999925,361.5035014000023,361.5035014000023,361.5035014000023,361.48736809997354,j,2.5401468999916688,0.10400230000959709,361.4890498999739,361.48906759999227,None,,,,,,,,,,,,,,00053,001,2026-01-18_17h18.33.436,MST_task,2024.2.0,59.85343091717774,2026-01-18 17h18.40.559418 +0530,
,Scenes\043a.jpg,36,0,37,,,,,,,None,,,j,0.720459500036668,None,,,,37,0,36,361.5035014000023,,,,,,,,,,,,,,,,,,,,,,,,,,,,,,361.4891719999723,361.5035014000023,362.0039550999645,361.98717460001353,,,,,,,,,,,,,,,,,,,,,,,,,,361.99844230001327,362.0039550999645,362.0039550999645,362.0039550999645,365.0034919999889,365.0034919999889,365.0034919999889,364.98746609996306,None,,,364.9875038000173,365.7372454999713,j,365.0034919999889,365.0034919999889,0.720459500036668,None,,,,,,,,,,00053,001,2026-01-18_17h18.33.436,MST_task,2024.2.0,59.85343091717774,2026-01-18 17h18.40.559418 +0530,
,Scenes\147a.jpg,37,0,38,,,,,,,j,1.398342800035607,0.13608849997399375,None,,,,,,38,0,37,365.7534890999668,,,,,,,,,,,,,,,,,,,,,,,,,,,,,,365.7373656000127,365.7534890999668,366.25401999999303,366.2371841999702,,,,,,,,,,,,,,,,,,,,,,,,,,366.2433602999663,366.25401999999303,366.25401999999303,366.25401999999303,369.2535206999746,369.2535206999746,369.2535206999746,369.2373381999787,j,1.398342800035607,0.13608849997399375,369.2373799000052,369.23739079997176,None,,,,,,,,,,,,,,00053,001,2026-01-18_17h18.33.436,MST_task,2024.2.0,59.85343091717774,2026-01-18 17h18.40.559418 +0530,
,Scenes\146a.jpg,38,0,39,,,,,,,None,,,j,None,None,,,,39,0,38,369.2535206999746,,,,,,,,,,,,,,,,,,,,,,,,,,,,,,369.2374902999727,369.2535206999746,369.75391099997796,369.7370004999684,,,,,,,,,,,,,,,,,,,,,,,,,,369.746471499966,369.75391099997796,369.75391099997796,369.75391099997796,372.7535193999647,372.7535193999647,372.7535193999647,372.73732149996795,None,,,372.73736059997464,372.8873011000105,j,372.7535193999647,372.7535193999647,None,None,,,,,,,,,,00053,001,2026-01-18_17h18.33.436,MST_task,2024.2.0,59.85343091717774,2026-01-18 17h18.40.559418 +0530,
,Scenes\060a.jpg,39,0,40,,,,,,,None,,,j,0.8886392000131309,None,,,,40,0,39,372.90343209996354,,,,,,,,,,,,,,,,,,,,,,,,,,,,,,372.887429800001,372.90343209996354,373.4040911999764,373.3870043999632,,,,,,,,,,,,,,,,,,,,,,,,,,373.39761559996987,373.4040911999764,373.4040911999764,373.4040911999764,376.40348769997945,376.40348769997945,376.40348769997945,376.3875386000145,None,,,376.38757660001284,377.3041297000018,j,376.40348769997945,376.40348769997945,0.8886392000131309,None,,,,,,,,,,00053,001,2026-01-18_17h18.33.436,MST_task,2024.2.0,59.85343091717774,2026-01-18 17h18.40.559418 +0530,
,Scenes\070a.jpg,40,0,41,,,,,,,f,2.5030812000040896,0.17599060002248734,None,,,,,,41,0,40,377.3201301000081,,,,,,,,,,,,,,,,,,,,,,,,,,,,,,377.3042698999634,377.3201301000081,377.8206633999944,377.80376270000124,,,,,,,,,,,,,,,,,,,,,,,,,,377.81336039997404,377.8206633999944,377.8206633999944,377.8206633999944,380.8200400000205,380.8200400000205,380.8200400000205,380.8041092000203,f,2.5030812000040896,0.17599060002248734,380.80415079998784,380.8041625000187,None,,,,,,,,,,,,,,00053,001,2026-01-18_17h18.33.436,MST_task,2024.2.0,59.85343091717774,2026-01-18 17h18.40.559418 +0530,
,Scenes\052a.jpg,41,0,42,,,,,,,j,2.2604454000247642,0.13488470000447705,None,,,,,,42,0,41,380.8200400000205,,,,,,,,,,,,,,,,,,,,,,,,,,,,,,380.8042623999645,380.8200400000205,381.32045960001415,381.3037679999834,,,,,,,,,,,,,,,,,,,,,,,,,,381.31122899998445,381.32045960001415,381.32045960001415,381.32045960001415,384.31996049999725,384.31996049999725,384.31996049999725,384.30419110000366,j,2.2604454000247642,0.13488470000447705,384.3042384000146,384.30424909997964,None,,,,,,,,,,,,,,00053,001,2026-01-18_17h18.33.436,MST_task,2024.2.0,59.85343091717774,2026-01-18 17h18.40.559418 +0530,
,Objects\090a.jpg,42,0,43,,,,,,,j,2.1431559000047855,0.1525559999863617,None,,,,,,43,0,42,384.31996049999725,,,,,,,,,,,,,,,,,,,,,,,,,,,,,,384.3043172999751,384.31996049999725,384.82064789999276,384.80368710000766,,,,,,,,,,,,,,,,,,,,,,,,,,384.809374000004,384.82064789999276,384.82064789999276,384.82064789999276,387.82013050001115,387.82013050001115,387.82013050001115,387.80456829996547,j,2.1431559000047855,0.1525559999863617,387.8067764000152,387.8067966999952,None,,,,,,,,,,,,,,00053,001,2026-01-18_17h18.33.436,MST_task,2024.2.0,59.85343091717774,2026-01-18 17h18.40.559418 +0530,
,Objects\006a.jpg,43,0,44,,,,,,,f,2.700087099976372,0.1439947000471875,None,,,,,,44,0,43,387.82013050001115,,,,,,,,,,,,,,,,,,,,,,,,,,,,,,387.80687719996786,387.82013050001115,388.3201708999695,388.3039299999946,,,,,,,,,,,,,,,,,,,,,,,,,,388.3067596000037,388.3201708999695,388.3201708999695,388.3201708999695,391.3199986999971,391.3199986999971,391.3199986999971,391.3040585999843,f,2.700087099976372,0.1439947000471875,391.30410569999367,391.30411690002074,None,,,,,,,,,,,,,,00053,001,2026-01-18_17h18.33.436,MST_task,2024.2.0,59.85343091717774,2026-01-18 17h18.40.559418 +0530,
,Objects\188a.jpg,44,0,45,,,,,,,f,0.9921139000216499,0.16809709998779,None,,,,,,45,0,44,391.3199986999971,,,,,,,,,,,,,,,,,,,,,,,,,,,,,,391.3041837000055,391.3199986999971,391.8204151999671,391.8037135999766,,,,,,,,,,,,,,,,,,,,,,,,,,391.80622389999917,391.8204151999671,391.8204151999671,391.8204151999671,394.8199550000136,394.8199550000136,394.8199550000136,394.80404800002,f,0.9921139000216499,0.16809709998779,394.80409639998106,394.80410830001347,None,,,,,,,,,,,,,,00053,001,2026-01-18_17h18.33.436,MST_task,2024.2.0,59.85343091717774,2026-01-18 17h18.40.559418 +0530,
,Objects\068a.jpg,45,0,46,,,,,,,f,0.6279440999496728,0.1365926000289619,None,,,,,,46,0,45,394.8199550000136,,,,,,,,,,,,,,,,,,,,,,,,,,,,,,394.80421339999884,394.8199550000136,395.3202172999736,395.3037028000108,,,,,,,,,,,,,,,,,,,,,,,,,,395.3060652000131,395.3202172999736,395.3202172999736,395.3202172999736,398.31990669999504,398.31990669999504,398.31990669999504,398.3040471000131,f,0.6279440999496728,0.1365926000289619,398.3040890999837,398.3040999000077,None,,,,,,,,,,,,,,00053,001,2026-01-18_17h18.33.436,MST_task,2024.2.0,59.85343091717774,2026-01-18 17h18.40.559418 +0530,
,Objects\120a.jpg,46,0,47,,,,,,,f,1.264261499978602,0.15999390004435554,None,,,,,,47,0,46,398.31990669999504,,,,,,,,,,,,,,,,,,,,,,,,,,,,,,398.30416469997726,398.31990669999504,398.8201237000176,398.8036951000104,,,,,,,,,,,,,,,,,,,,,,,,,,398.80630539997946,398.8201237000176,398.8201237000176,398.8201237000176,401.8199234000058,401.8199234000058,401.8199234000058,401.8039682999952,f,1.264261499978602,0.15999390004435554,401.80401029996574,401.8040214999928,None,,,,,,,,,,,,,,00053,001,2026-01-18_17h18.33.436,MST_task,2024.2.0,59.85343091717774,2026-01-18 17h18.40.559418 +0530,
,Objects\147a.jpg,47,0,48,,,,,,,f,1.324407100037206,0.15998170000966638,None,,,,,,48,0,47,401.8199234000058,,,,,,,,,,,,,,,,,,,,,,,,,,,,,,401.8040866999654,401.8199234000058,402.32024739996996,402.3037164999987,,,,,,,,,,,,,,,,,,,,,,,,,,402.3064488999662,402.32024739996996,402.32024739996996,402.32024739996996,405.3199440999888,405.3199440999888,405.3199440999888,405.30423800001154,f,1.324407100037206,0.15998170000966638,405.30428189999657,405.3042929999647,None,,,,,,,,,,,,,,00053,001,2026-01-18_17h18.33.436,MST_task,2024.2.0,59.85343091717774,2026-01-18 17h18.40.559418 +0530,
,Objects\174a.jpg,48,0,49,,,,,,,f,0.8476694999844767,0.16819380002561957,None,,,,,,49,0,48,405.3199440999888,,,,,,,,,,,,,,,,,,,,,,,,,,,,,,405.30435900000157,405.3199440999888,405.82024899998214,405.8035788999987,,,,,,,,,,,,,,,,,,,,,,,,,,405.8060034000082,405.82024899998214,405.82024899998214,405.82024899998214,408.8200058999937,408.8200058999937,408.8200058999937,408.8038766999962,f,0.8476694999844767,0.16819380002561957,408.80392079998273,408.80393190000905,None,,,,,,,,,,,,,,00053,001,2026-01-18_17h18.33.436,MST_task,2024.2.0,59.85343091717774,2026-01-18 17h18.40.559418 +0530,
,Scenes\172a.jpg,49,0,50,,,,,,,j,0.9880092000239529,0.08799999998882413,None,,,,,,50,0,49,408.8200058999937,,,,,,,,,,,,,,,,,,,,,,,,,,,,,,408.8040284999879,408.8200058999937,409.320501899987,409.30365869996604,,,,,,,,,,,,,,,,,,,,,,,,,,409.3123171000043,409.320501899987,409.320501899987,409.320501899987,412.31993230001535,412.31993230001535,412.31993230001535,412.30388759996276,j,0.9880092000239529,0.08799999998882413,412.3055280999979,412.30554510001093,None,,,,,,,,,,,,,,00053,001,2026-01-18_17h18.33.436,MST_task,2024.2.0,59.85343091717774,2026-01-18 17h18.40.559418 +0530,
,Scenes\106a.jpg,50,0,51,,,,,,,j,1.9598629999672994,0.12000960001023486,None,,,,,,51,0,50,412.31993230001535,,,,,,,,,,,,,,,,,,,,,,,,,,,,,,412.30561310000485,412.31993230001535,412.8205450999667,412.80357049999293,,,,,,,,,,,,,,,,,,,,,,,,,,412.8136233999976,412.8205450999667,412.8205450999667,412.8205450999667,415.8199405000196,415.8199405000196,415.8199405000196,415.8040226000012,j,1.9598629999672994,0.12000960001023486,415.8040689000045,415.8040801999741,None,,,,,,,,,,,,,,00053,001,2026-01-18_17h18.33.436,MST_task,2024.2.0,59.85343091717774,2026-01-18 17h18.40.559418 +0530,
,Scenes\082a.jpg,51,0,52,,,,,,,f,1.34806910000043,0.13701780000701547,None,,,,,,52,0,51,415.8199405000196,,,,,,,,,,,,,,,,,,,,,,,,,,,,,,415.80418029997963,415.8199405000196,416.3204312999733,416.3037797000143,,,,,,,,,,,,,,,,,,,,,,,,,,416.3144628999871,416.3204312999733,416.3204312999733,416.3204312999733,419.31990880001104,419.31990880001104,419.31990880001104,419.3039556000149,f,1.34806910000043,0.13701780000701547,419.30400800000643,419.30401989998063,None,,,,,,,,,,,,,,00053,001,2026-01-18_17h18.33.436,MST_task,2024.2.0,59.85343091717774,2026-01-18 17h18.40.559418 +0530,
,Scenes\104a.jpg,52,0,53,,,,,,,None,,,j,0.25710250000702217,None,,,,53,0,52,419.31990880001104,,,,,,,,,,,,,,,,,,,,,,,,,,,,,,419.30412200000137,419.31990880001104,419.82056329998886,419.8036785000004,,,,,,,,,,,,,,,,,,,,,,,,,,419.8136392000015,419.82056329998886,419.82056329998886,419.82056329998886,422.8199652999756,422.8199652999756,422.8199652999756,422.80430289998185,None,,,422.80434759997297,423.08731430000626,j,422.8199652999756,422.8199652999756,0.25710250000702217,None,,,,,,,,,,00053,001,2026-01-18_17h18.33.436,MST_task,2024.2.0,59.85343091717774,2026-01-18 17h18.40.559418 +0530,
,Scenes\038a.jpg,53,0,54,,,,,,,j,0.6642252000165172,0.12002179998671636,None,,,,,,54,0,53,423.10336720000487,,,,,,,,,,,,,,,,,,,,,,,,,,,,,,423.08740489999764,423.10336720000487,423.6041372999898,423.5869061999838,,,,,,,,,,,,,,,,,,,,,,,,,,423.5962913999683,423.6041372999898,423.6041372999898,423.6041372999898,426.60341669997433,426.60341669997433,426.60341669997433,426.5871998000075,j,0.6642252000165172,0.12002179998671636,426.58724439999787,426.58725609997055,None,,,,,,,,,,,,,,00053,001,2026-01-18_17h18.33.436,MST_task,2024.2.0,59.85343091717774,2026-01-18 17h18.40.559418 +0530,
,Scenes\126a.jpg,54,0,55,,,,,,,j,1.2286565999966115,0.11200349999126047,None,,,,,,55,0,54,426.60341669997433,,,,,,,,,,,,,,,,,,,,,,,,,,,,,,426.5873530000099,426.60341669997433,427.10407299996587,427.08699939999497,,,,,,,,,,,,,,,,,,,,,,,,,,427.0945783999632,427.10407299996587,427.10407299996587,427.10407299996587,430.1034210000071,430.1034210000071,430.1034210000071,430.08731380000245,j,1.2286565999966115,0.11200349999126047,430.0873552999692,430.0873664999963,None,,,,,,,,,,,,,,00053,001,2026-01-18_17h18.33.436,MST_task,2024.2.0,59.85343091717774,2026-01-18 17h18.40.559418 +0530,
,Scenes\113a.jpg,55,0,56,,,,,,,j,0.6723016999894753,0.1200121000292711,None,,,,,,56,0,55,430.1034210000071,,,,,,,,,,,,,,,,,,,,,,,,,,,,,,430.08746409998275,430.1034210000071,430.60389919998124,430.5869751999853,,,,,,,,,,,,,,,,,,,,,,,,,,430.5916814999655,430.60389919998124,430.60389919998124,430.60389919998124,433.60334470000817,433.60334470000817,433.60334470000817,433.58728789997986,j,0.6723016999894753,0.1200121000292711,433.5873281999957,433.5873391000205,None,,,,,,,,,,,,,,00053,001,2026-01-18_17h18.33.436,MST_task,2024.2.0,59.85343091717774,2026-01-18 17h18.40.559418 +0530,
,Objects\096a.jpg,56,0,57,,,,,,,j,2.2200001000310294,0.1441995999775827,None,,,,,,57,0,56,433.60334470000817,,,,,,,,,,,,,,,,,,,,,,,,,,,,,,433.5874329999788,433.60334470000817,434.1038516999688,434.08697870001197,,,,,,,,,,,,,,,,,,,,,,,,,,434.09242339996854,434.1038516999688,434.1038516999688,434.1038516999688,437.1034273999976,437.1034273999976,437.1034273999976,437.08734329999425,j,2.2200001000310294,0.1441995999775827,437.0893935000058,437.08941000001505,None,,,,,,,,,,,,,,00053,001,2026-01-18_17h18.33.436,MST_task,2024.2.0,59.85343091717774,2026-01-18 17h18.40.559418 +0530,
,Objects\004a.jpg,57,0,58,,,,,,,None,,,f,1.2326748000341468,None,,,,58,0,57,437.1034273999976,,,,,,,,,,,,,,,,,,,,,,,,,,,,,,437.0894798999652,437.1034273999976,437.60364250000566,437.5870461000013,,,,,,,,,,,,,,,,,,,,,,,,,,437.58978280000156,437.60364250000566,437.60364250000566,437.60364250000566,440.6034297000151,440.6034297000151,440.6034297000151,440.58722430001944,None,,,440.58726309996564,441.83728199999314,f,440.6034297000151,440.6034297000151,1.2326748000341468,None,,,,,,,,,,00053,001,2026-01-18_17h18.33.436,MST_task,2024.2.0,59.85343091717774,2026-01-18 17h18.40.559418 +0530,
,Objects\055a.jpg,58,0,59,,,,,,,f,0.9307830999605358,0.17599300004076213,None,,,,,,59,0,58,441.8533725999878,,,,,,,,,,,,,,,,,,,,,,,,,,,,,,441.8373696000199,441.8533725999878,442.3537821000209,442.33719940000447,,,,,,,,,,,,,,,,,,,,,,,,,,442.34025469998596,442.3537821000209,442.3537821000209,442.3537821000209,445.35357649996877,445.35357649996877,445.35357649996877,445.3375492999912,f,0.9307830999605358,0.17599300004076213,445.33759790001204,445.3376093999832,None,,,,,,,,,,,,,,00053,001,2026-01-18_17h18.33.436,MST_task,2024.2.0,59.85343091717774,2026-01-18 17h18.40.559418 +0530,
,Objects\041a.jpg,59,0,60,,,,,,,f,0.7196610000100918,0.1589372000307776,None,,,,,,60,0,59,445.35357649996877,,,,,,,,,,,,,,,,,,,,,,,,,,,,,,445.33767759997863,445.35357649996877,445.85364609997487,445.83701189997373,,,,,,,,,,,,,,,,,,,,,,,,,,445.83959569997387,445.85364609997487,445.85364609997487,445.85364609997487,448.8534120999975,448.8534120999975,448.8534120999975,448.83724630001234,f,0.7196610000100918,0.1589372000307776,448.83728869998595,448.837299900013,None,,,,,,,,,,,,,,00053,001,2026-01-18_17h18.33.436,MST_task,2024.2.0,59.85343091717774,2026-01-18 17h18.40.559418 +0530,
,Objects\088a.jpg,60,0,61,,,,,,,f,0.7150220000185072,0.18355149996932596,None,,,,,,61,0,60,448.8534120999975,,,,,,,,,,,,,,,,,,,,,,,,,,,,,,448.8373945999774,448.8534120999975,449.35356899996987,449.336989399977,,,,,,,,,,,,,,,,,,,,,,,,,,449.33978460001526,449.35356899996987,449.35356899996987,449.35356899996987,452.35342800000217,452.35342800000217,452.35342800000217,452.33730650000507,f,0.7150220000185072,0.18355149996932596,452.33734849997563,452.33735960000195,None,,,,,,,,,,,,,,00053,001,2026-01-18_17h18.33.436,MST_task,2024.2.0,59.85343091717774,2026-01-18 17h18.40.559418 +0530,
,Objects\111a.jpg,61,0,62,,,,,,,j,2.0382427999866195,0.11205479997443035,None,,,,,,62,0,61,452.35342800000217,,,,,,,,,,,,,,,,,,,,,,,,,,,,,,452.33745639998233,452.35342800000217,452.85364440002013,452.8370167000103,,,,,,,,,,,,,,,,,,,,,,,,,,452.8395562999649,452.85364440002013,452.85364440002013,452.85364440002013,455.85348009999143,455.85348009999143,455.85348009999143,455.837376600015,j,2.0382427999866195,0.11205479997443035,455.83741809998173,455.83742890000576,None,,,,,,,,,,,,,,00053,001,2026-01-18_17h18.33.436,MST_task,2024.2.0,59.85343091717774,2026-01-18 17h18.40.559418 +0530,
,Objects\137a.jpg,62,0,63,,,,,,,None,,,j,1.458297399978619,None,,,,63,0,62,455.85348009999143,,,,,,,,,,,,,,,,,,,,,,,,,,,,,,455.83752699999604,455.85348009999143,456.3537792999996,456.33710040000733,,,,,,,,,,,,,,,,,,,,,,,,,,456.3396786999656,456.3537792999996,456.3537792999996,456.3537792999996,459.35342130000936,459.35342130000936,459.35342130000936,459.33740590000525,None,,,459.3374465999659,460.82063139998354,j,459.35342130000936,459.35342130000936,1.458297399978619,None,,,,,,,,,,00053,001,2026-01-18_17h18.33.436,MST_task,2024.2.0,59.85343091717774,2026-01-18 17h18.40.559418 +0530,
,Scenes\188a.jpg,63,0,64,,,,,,,j,1.4349546000012197,0.1279221999575384,None,,,,,,64,0,63,460.83676249999553,,,,,,,,,,,,,,,,,,,,,,,,,,,,,,460.8207220999757,460.83676249999553,461.3372942999704,461.3203518000082,,,,,,,,,,,,,,,,,,,,,,,,,,461.32871989998966,461.3372942999704,461.3372942999704,461.3372942999704,464.33677100000205,464.33677100000205,464.33677100000205,464.32067069999175,j,1.4349546000012197,0.1279221999575384,464.3223607999971,464.3223794999649,None,,,,,,,,,,,,,,00053,001,2026-01-18_17h18.33.436,MST_task,2024.2.0,59.85343091717774,2026-01-18 17h18.40.559418 +0530,
,Scenes\001a.jpg,64,0,65,,,,,,,f,0.895559000025969,0.20811810001032427,None,,,,,,65,0,64,464.33677100000205,,,,,,,,,,,,,,,,,,,,,,,,,,,,,,464.32244999997783,464.33677100000205,464.83735669997986,464.82041579997167,,,,,,,,,,,,,,,,,,,,,,,,,,464.83108189998893,464.83735669997986,464.83735669997986,464.83735669997986,467.83686649997253,467.83686649997253,467.83686649997253,467.8207250999985,f,0.895559000025969,0.20811810001032427,467.82076879998203,467.8207803000114,None,,,,,,,,,,,,,,00053,001,2026-01-18_17h18.33.436,MST_task,2024.2.0,59.85343091717774,2026-01-18 17h18.40.559418 +0530,
,Scenes\103a.jpg,65,0,66,,,,,,,j,1.0540603999979794,0.11904890002915636,None,,,,,,66,0,65,467.83686649997253,,,,,,,,,,,,,,,,,,,,,,,,,,,,,,467.82089350000024,467.83686649997253,468.3426007999806,468.32031649997225,,,,,,,,,,,,,,,,,,,,,,,,,,468.3401179999928,468.3426007999806,468.3426007999806,468.3426007999806,,,,471.33699009998236,j,1.0540603999979794,0.11904890002915636,471.3370362999849,471.33704860002035,None,,,,,,,,,,,,,,00053,001,2026-01-18_17h18.33.436,MST_task,2024.2.0,59.85343091717774,2026-01-18 17h18.40.559418 +0530,
,Scenes\077a.jpg,66,0,67,,,,,,,j,2.2697805000352673,0.11990269995294511,None,,,,,,67,0,66,471.3534069000161,,,,,,,,,,,,,,,,,,,,,,,,,,,,,,471.3371602999978,471.3534069000161,471.85408570000436,471.8370890999795,,,,,,,,,,,,,,,,,,,,,,,,,,471.8445774000138,471.85408570000436,471.85408570000436,471.85408570000436,474.8535476999823,474.8535476999823,474.8535476999823,474.83737999998266,j,2.2697805000352673,0.11990269995294511,474.8374216000084,474.83743279997725,None,,,,,,,,,,,,,,00053,001,2026-01-18_17h18.33.436,MST_task,2024.2.0,59.85343091717774,2026-01-18 17h18.40.559418 +0530,
,Scenes\117a.jpg,67,0,68,,,,,,,j,0.7784683000063524,0.14394959999481216,None,,,,,,68,0,67,474.8535476999823,,,,,,,,,,,,,,,,,,,,,,,,,,,,,,474.8374995000195,474.8535476999823,475.354074199975,475.33707189996494,,,,,,,,,,,,,,,,,,,,,,,,,,475.34265050000977,475.354074199975,475.354074199975,475.354074199975,478.35356149997097,478.35356149997097,478.35356149997097,478.3374413999845,j,0.7784683000063524,0.14394959999481216,478.3374829000095,478.3374934999738,None,,,,,,,,,,,,,,00053,001,2026-01-18_17h18.33.436,MST_task,2024.2.0,59.85343091717774,2026-01-18 17h18.40.559418 +0530,
,Scenes\191a.jpg,68,0,69,,,,,,,j,0.7338140999781899,0.12006879999535158,None,,,,,,69,0,68,478.35356149997097,,,,,,,,,,,,,,,,,,,,,,,,,,,,,,478.33759289997397,478.35356149997097,478.8538829999743,478.8370988999959,,,,,,,,,,,,,,,,,,,,,,,,,,478.8434930999647,478.8538829999743,478.8538829999743,478.8538829999743,481.8535337999929,481.8535337999929,481.8535337999929,481.83734540001024,j,0.7338140999781899,0.12006879999535158,481.8373873999808,481.8373982000048,None,,,,,,,,,,,,,,00053,001,2026-01-18_17h18.33.436,MST_task,2024.2.0,59.85343091717774,2026-01-18 17h18.40.559418 +0530,
,Scenes\007a.jpg,69,0,70,,,,,,,f,2.145721000037156,0.16828450001776218,None,,,,,,70,0,69,481.8535337999929,,,,,,,,,,,,,,,,,,,,,,,,,,,,,,481.8374629999744,481.8535337999929,482.354053499992,482.33709569997154,,,,,,,,,,,,,,,,,,,,,,,,,,482.34311159997014,482.354053499992,482.354053499992,482.354053499992,485.35346369998297,485.35346369998297,485.35346369998297,485.3373110999819,f,2.145721000037156,0.16828450001776218,485.33736190001946,485.3373733999906,None,,,,,,,,,,,,,,00053,001,2026-01-18_17h18.33.436,MST_task,2024.2.0,59.85343091717774,2026-01-18 17h18.40.559418 +0530,
,Objects\125a.jpg,70,0,71,,,,,,,j,1.575185900030192,0.12843889999203384,None,,,,,,71,0,70,485.35346369998297,,,,,,,,,,,,,,,,,,,,,,,,,,,,,,485.3374414999853,485.35346369998297,485.85391860001255,485.8370509999804,,,,,,,,,,,,,,,,,,,,,,,,,,485.8423494999879,485.85391860001255,485.85391860001255,485.85391860001255,488.85344540001824,488.85344540001824,488.85344540001824,488.83733959996607,j,1.575185900030192,0.12843889999203384,488.8393903999822,488.8394079999998,None,,,,,,,,,,,,,,00053,001,2026-01-18_17h18.33.436,MST_task,2024.2.0,59.85343091717774,2026-01-18 17h18.40.559418 +0530,
,Objects\182a.jpg,71,0,72,,,,,,,f,0.99429100000998,0.16800280002644286,None,,,,,,72,0,71,488.85344540001824,,,,,,,,,,,,,,,,,,,,,,,,,,,,,,488.83950940001523,488.85344540001824,489.3536197000067,489.33712179999566,,,,,,,,,,,,,,,,,,,,,,,,,,489.34011469996767,489.3536197000067,489.3536197000067,489.3536197000067,492.35377350001363,492.35377350001363,492.35377350001363,492.33725350000896,f,0.99429100000998,0.16800280002644286,492.33729539997876,492.33730630000355,None,,,,,,,,,,,,,,00053,001,2026-01-18_17h18.33.436,MST_task,2024.2.0,59.85343091717774,2026-01-18 17h18.40.559418 +0530,
,Objects\045a.jpg,72,0,73,,,,,,,j,0.6628848999971524,0.13599710003472865,None,,,,,,73,0,72,492.35377350001363,,,,,,,,,,,,,,,,,,,,,,,,,,,,,,492.3373712999746,492.35377350001363,492.8536170999869,492.83694609999657,,,,,,,,,,,,,,,,,,,,,,,,,,492.83990239998093,492.8536170999869,492.8536170999869,492.8536170999869,495.85344410000835,495.85344410000835,495.85344410000835,495.8373037999845,j,0.6628848999971524,0.13599710003472865,495.8373468000209,495.8373583999928,None,,,,,,,,,,,,,,00053,001,2026-01-18_17h18.33.436,MST_task,2024.2.0,59.85343091717774,2026-01-18 17h18.40.559418 +0530,
,Objects\109a.jpg,73,0,74,,,,,,,j,0.9623644999810494,0.13582080003106967,None,,,,,,74,0,73,495.85344410000835,,,,,,,,,,,,,,,,,,,,,,,,,,,,,,495.8374545999686,495.85344410000835,496.353586799989,496.3369459999958,,,,,,,,,,,,,,,,,,,,,,,,,,496.33937479997985,496.353586799989,496.353586799989,496.353586799989,499.35343399998965,499.35343399998965,499.35343399998965,499.3372699000174,j,0.9623644999810494,0.13582080003106967,499.3373105999781,499.3373217000044,None,,,,,,,,,,,,,,00053,001,2026-01-18_17h18.33.436,MST_task,2024.2.0,59.85343091717774,2026-01-18 17h18.40.559418 +0530,
,Objects\152a.jpg,74,0,75,,,,,,,f,0.9986700000008568,0.17618040001252666,None,,,,,,75,0,74,499.35343399998965,,,,,,,,,,,,,,,,,,,,,,,,,,,,,,499.33741619996727,499.35343399998965,499.8536509000114,499.8371230000048,,,,,,,,,,,,,,,,,,,,,,,,,,499.83992509997915,499.8536509000114,499.8536509000114,499.8536509000114,502.8535275000031,502.8535275000031,502.8535275000031,502.83728330000304,f,0.9986700000008568,0.17618040001252666,502.8373257999774,502.8373369000037,None,,,,,,,,,,,,,,00053,001,2026-01-18_17h18.33.436,MST_task,2024.2.0,59.85343091717774,2026-01-18 17h18.40.559418 +0530,
,Objects\060a.jpg,75,0,76,,,,,,,None,,,f,0.058598500036168844,None,,,,76,0,75,502.8535275000031,,,,,,,,,,,,,,,,,,,,,,,,,,,,,,502.8374465999659,502.8535275000031,503.3536183999968,503.3371010000119,,,,,,,,,,,,,,,,,,,,,,,,,,503.33994530001655,503.3536183999968,503.3536183999968,503.3536183999968,506.3534012999735,506.3534012999735,506.3534012999735,506.3374408999807,None,,,506.3374771999661,506.42047959996853,f,506.3534012999735,506.3534012999735,0.058598500036168844,None,,,,,,,,,,00053,001,2026-01-18_17h18.33.436,MST_task,2024.2.0,59.85343091717774,2026-01-18 17h18.40.559418 +0530,
,Objects\037a.jpg,76,0,77,,,,,,,f,0.9951854000100866,0.1119137000059709,None,,,,,,77,0,76,506.43677829997614,,,,,,,,,,,,,,,,,,,,,,,,,,,,,,506.42056679999223,506.43677829997614,506.9370359000168,506.9203465000028,,,,,,,,,,,,,,,,,,,,,,,,,,506.9234274000046,506.9370359000168,506.9370359000168,506.9370359000168,509.93688230001135,509.93688230001135,509.93688230001135,509.9206094999681,f,0.9951854000100866,0.1119137000059709,509.9206548999646,509.92066659999546,None,,,,,,,,,,,,,,00053,001,2026-01-18_17h18.33.436,MST_task,2024.2.0,59.85343091717774,2026-01-18 17h18.40.559418 +0530,
,Scenes\008a.jpg,77,0,78,,,,,,,f,1.759469499986153,0.12763689999701455,None,,,,,,78,0,77,509.93688230001135,,,,,,,,,,,,,,,,,,,,,,,,,,,,,,509.92076469998574,509.93688230001135,510.43716219998896,510.4203122999752,,,,,,,,,,,,,,,,,,,,,,,,,,510.4292504999903,510.43716219998896,510.43716219998896,510.43716219998896,513.436719099991,513.436719099991,513.436719099991,513.4205700000166,f,1.759469499986153,0.12763689999701455,513.4222191000008,513.4222365000169,None,,,,,,,,,,,,,,00053,001,2026-01-18_17h18.33.436,MST_task,2024.2.0,59.85343091717774,2026-01-18 17h18.40.559418 +0530,
,Scenes\071a.jpg,78,0,79,,,,,,,j,1.620563900039997,0.10311719996389002,None,,,,,,79,0,78,513.436719099991,,,,,,,,,,,,,,,,,,,,,,,,,,,,,,513.4223131000181,513.436719099991,513.9372228999855,513.9202048999723,,,,,,,,,,,,,,,,,,,,,,,,,,513.9289766000002,513.9372228999855,513.9372228999855,513.9372228999855,516.9367860999773,516.9367860999773,516.9367860999773,516.9210115000024,j,1.620563900039997,0.10311719996389002,516.9210645999992,516.9210763999727,None,,,,,,,,,,,,,,00053,001,2026-01-18_17h18.33.436,MST_task,2024.2.0,59.85343091717774,2026-01-18 17h18.40.559418 +0530,
,Scenes\092a.jpg,79,0,80,,,,,,,f,0.943767899996601,0.1745845999685116,None,,,,,,80,0,79,516.9367860999773,,,,,,,,,,,,,,,,,,,,,,,,,,,,,,516.9211499000085,516.9367860999773,517.4373720000149,517.4203122999752,,,,,,,,,,,,,,,,,,,,,,,,,,517.4283100999892,517.4373720000149,517.4373720000149,517.4373720000149,520.4367803999921,520.4367803999921,520.4367803999921,520.4208136000088,f,0.943767899996601,0.1745845999685116,520.4208553999779,520.4208662000019,None,,,,,,,,,,,,,,00053,001,2026-01-18_17h18.33.436,MST_task,2024.2.0,59.85343091717774,2026-01-18 17h18.40.559418 +0530,
,Scenes\178a.jpg,80,0,81,,,,,,,j,1.3148886999697424,0.11972280003828928,None,,,,,,81,0,80,520.4367803999921,,,,,,,,,,,,,,,,,,,,,,,,,,,,,,520.4209306999692,520.4367803999921,520.9372115000151,520.9202342000208,,,,,,,,,,,,,,,,,,,,,,,,,,520.9268618999631,520.9372115000151,520.9372115000151,520.9372115000151,523.9367692999658,523.9367692999658,523.9367692999658,523.9205595999956,j,1.3148886999697424,0.11972280003828928,523.9206017999677,523.9206127999933,None,,,,,,,,,,,,,,00053,001,2026-01-18_17h18.33.436,MST_task,2024.2.0,59.85343091717774,2026-01-18 17h18.40.559418 +0530,
,Scenes\006a.jpg,81,0,82,,,,,,,f,2.6873080999939702,0.15991300001041964,None,,,,,,82,0,81,523.9367692999658,,,,,,,,,,,,,,,,,,,,,,,,,,,,,,523.9206777999643,523.9367692999658,524.4374179000151,524.4202953999629,,,,,,,,,,,,,,,,,,,,,,,,,,524.4273318999913,524.4374179000151,524.4374179000151,524.4374179000151,527.4368635999854,527.4368635999854,527.4368635999854,527.4208223000169,f,2.6873080999939702,0.15991300001041964,527.4208724999917,527.4208841999643,None,,,,,,,,,,,,,,00053,001,2026-01-18_17h18.33.436,MST_task,2024.2.0,59.85343091717774,2026-01-18 17h18.40.559418 +0530,
,Scenes\012a.jpg,82,0,83,,,,,,,j,1.0269998000003397,0.07996360003016889,None,,,,,,83,0,82,527.4368635999854,,,,,,,,,,,,,,,,,,,,,,,,,,,,,,527.4209551999811,527.4368635999854,527.9373771999963,527.9203056999831,,,,,,,,,,,,,,,,,,,,,,,,,,527.931004300015,527.9373771999963,527.9373771999963,527.9373771999963,530.9368218000163,530.9368218000163,530.9368218000163,530.9210234999773,j,1.0269998000003397,0.07996360003016889,530.9210643999977,530.9210754999658,None,,,,,,,,,,,,,,00053,001,2026-01-18_17h18.33.436,MST_task,2024.2.0,59.85343091717774,2026-01-18 17h18.40.559418 +0530,
,Scenes\025a.jpg,83,0,84,,,,,,,j,1.1024317999836057,0.11999029997969046,None,,,,,,84,0,83,530.9368218000163,,,,,,,,,,,,,,,,,,,,,,,,,,,,,,530.9211745999637,530.9368218000163,531.4373492000159,531.4202919999952,,,,,,,,,,,,,,,,,,,,,,,,,,531.4311935000005,531.4373492000159,531.4373492000159,531.4373492000159,534.4367779999739,534.4367779999739,534.4367779999739,534.4206846000161,j,1.1024317999836057,0.11999029997969046,534.4207293000072,534.4207402999746,None,,,,,,,,,,,,,,00053,001,2026-01-18_17h18.33.436,MST_task,2024.2.0,59.85343091717774,2026-01-18 17h18.40.559418 +0530,
,Objects\072a.jpg,84,0,85,,,,,,,f,1.3470668999943882,0.17600520001724362,None,,,,,,85,0,84,534.4367779999739,,,,,,,,,,,,,,,,,,,,,,,,,,,,,,534.420806900016,534.4367779999739,534.9373926999979,534.9202189000207,,,,,,,,,,,,,,,,,,,,,,,,,,534.9259728000034,534.9373926999979,534.9373926999979,534.9373926999979,537.936850500002,537.936850500002,537.936850500002,537.9209061000147,f,1.3470668999943882,0.17600520001724362,537.9229221999994,537.9229397000163,None,,,,,,,,,,,,,,00053,001,2026-01-18_17h18.33.436,MST_task,2024.2.0,59.85343091717774,2026-01-18 17h18.40.559418 +0530,
,Objects\103a.jpg,85,0,86,,,,,,,j,2.6312598999938928,0.1440258999937214,None,,,,,,86,0,85,537.936850500002,,,,,,,,,,,,,,,,,,,,,,,,,,,,,,537.9230083000148,537.936850500002,538.4369373999652,538.4201996999909,,,,,,,,,,,,,,,,,,,,,,,,,,538.4229424999794,538.4369373999652,538.4369373999652,538.4369373999652,541.4367868999834,541.4367868999834,541.4367868999834,541.4205265999772,j,2.6312598999938928,0.1440258999937214,541.4205692000105,541.4205801999778,None,,,,,,,,,,,,,,00053,001,2026-01-18_17h18.33.436,MST_task,2024.2.0,59.85343091717774,2026-01-18 17h18.40.559418 +0530,
,Objects\118a.jpg,86,0,87,,,,,,,f,0.827469400013797,0.14401059999363497,None,,,,,,87,0,86,541.4367868999834,,,,,,,,,,,,,,,,,,,,,,,,,,,,,,541.420675500005,541.4367868999834,541.9369550999836,541.9203623000067,,,,,,,,,,,,,,,,,,,,,,,,,,541.9234437000123,541.9369550999836,541.9369550999836,541.9369550999836,544.9369477999862,544.9369477999862,544.9369477999862,544.9210249999887,f,0.827469400013797,0.14401059999363497,544.9210675999639,544.9210785999894,None,,,,,,,,,,,,,,00053,001,2026-01-18_17h18.33.436,MST_task,2024.2.0,59.85343091717774,2026-01-18 17h18.40.559418 +0530,
,Objects\186a.jpg,87,0,88,,,,,,,f,1.086766299966257,0.15209100005449727,None,,,,,,88,0,87,544.9369477999862,,,,,,,,,,,,,,,,,,,,,,,,,,,,,,544.9211466999841,544.9369477999862,545.4370640999987,545.4203313000035,,,,,,,,,,,,,,,,,,,,,,,,,,545.423049999983,545.4370640999987,545.4370640999987,545.4370640999987,548.4368345999974,548.4368345999974,548.4368345999974,548.4206039999845,f,1.086766299966257,0.15209100005449727,548.4206466000178,548.4206581999897,None,,,,,,,,,,,,,,00053,001,2026-01-18_17h18.33.436,MST_task,2024.2.0,59.85343091717774,2026-01-18 17h18.40.559418 +0530,
,Objects\079a.jpg,88,0,89,,,,,,,j,1.171470600005705,0.11153530003502965,None,,,,,,89,0,88,548.4368345999974,,,,,,,,,,,,,,,,,,,,,,,,,,,,,,548.4207230000175,548.4368345999974,548.9369971000124,548.9202043999685,,,,,,,,,,,,,,,,,,,,,,,,,,548.9229759000009,548.9369971000124,548.9369971000124,548.9369971000124,551.936781299999,551.936781299999,551.936781299999,551.9205980999977,j,1.171470600005705,0.11153530003502965,551.9206400999683,551.9206509999931,None,,,,,,,,,,,,,,00053,001,2026-01-18_17h18.33.436,MST_task,2024.2.0,59.85343091717774,2026-01-18 17h18.40.559418 +0530,
,Objects\113a.jpg,89,0,90,,,,,,,f,0.9516369000193663,0.13698599999770522,None,,,,,,90,0,89,551.936781299999,,,,,,,,,,,,,,,,,,,,,,,,,,,,,,551.9207478999742,551.936781299999,552.4370041000075,552.420294200012,,,,,,,,,,,,,,,,,,,,,,,,,,552.4231725999853,552.4370041000075,552.4370041000075,552.4370041000075,555.4367939999793,555.4367939999793,555.4367939999793,555.420624899969,f,0.9516369000193663,0.13698599999770522,555.4206721999799,555.420683400007,None,,,,,,,,,,,,,,00053,001,2026-01-18_17h18.33.436,MST_task,2024.2.0,59.85343091717774,2026-01-18 17h18.40.559418 +0530,
,Objects\062a.jpg,90,0,91,,,,,,,f,1.3231790999998339,0.13560249999864027,None,,,,,,91,0,90,555.4367939999793,,,,,,,,,,,,,,,,,,,,,,,,,,,,,,555.4207487999811,555.4367939999793,555.9370458999765,555.9202879999648,,,,,,,,,,,,,,,,,,,,,,,,,,555.9227927000029,555.9370458999765,555.9370458999765,555.9370458999765,558.9367362000048,558.9367362000048,558.9367362000048,558.9208326999797,f,1.3231790999998339,0.13560249999864027,558.9208748000092,558.9208856999758,None,,,,,,,,,,,,,,00053,001,2026-01-18_17h18.33.436,MST_task,2024.2.0,59.85343091717774,2026-01-18 17h18.40.559418 +0530,
,Scenes\091a.jpg,91,0,92,,,,,,,j,0.9274387999903411,0.11105399997904897,None,,,,,,92,0,91,558.9367362000048,,,,,,,,,,,,,,,,,,,,,,,,,,,,,,558.9209540999727,558.9367362000048,559.4372722000116,559.420289599977,,,,,,,,,,,,,,,,,,,,,,,,,,559.4284857999883,559.4372722000116,559.4372722000116,559.4372722000116,562.4367655999959,562.4367655999959,562.4367655999959,562.4206976999994,j,0.9274387999903411,0.11105399997904897,562.422313899966,562.4223310999805,None,,,,,,,,,,,,,,00053,001,2026-01-18_17h18.33.436,MST_task,2024.2.0,59.85343091717774,2026-01-18 17h18.40.559418 +0530,
,Scenes\013a.jpg,92,0,93,,,,,,,j,1.3793012000387534,0.10500739997951314,None,,,,,,93,0,92,562.4367655999959,,,,,,,,,,,,,,,,,,,,,,,,,,,,,,562.4224325999967,562.4367655999959,562.9375090000103,562.9203339999658,,,,,,,,,,,,,,,,,,,,,,,,,,562.9308930999832,562.9375090000103,562.9375090000103,562.9375090000103,565.9367545999703,565.9367545999703,565.9367545999703,565.9206436999957,j,1.3793012000387534,0.10500739997951314,565.9206882999861,565.9207001000177,None,,,,,,,,,,,,,,00053,001,2026-01-18_17h18.33.436,MST_task,2024.2.0,59.85343091717774,2026-01-18 17h18.40.559418 +0530,
,Scenes\084a.jpg,93,0,94,,,,,,,j,0.7991447999957018,0.10397120000561699,None,,,,,,94,0,93,565.9367545999703,,,,,,,,,,,,,,,,,,,,,,,,,,,,,,565.9208180999849,565.9367545999703,566.437364500016,566.4202907999861,,,,,,,,,,,,,,,,,,,,,,,,,,566.4303704000195,566.437364500016,566.437364500016,566.437364500016,569.4369780999841,569.4369780999841,569.4369780999841,569.4209238999756,j,0.7991447999957018,0.10397120000561699,569.420976799971,569.4209896000102,None,,,,,,,,,,,,,,00053,001,2026-01-18_17h18.33.436,MST_task,2024.2.0,59.85343091717774,2026-01-18 17h18.40.559418 +0530,
,Scenes\109a.jpg,94,0,95,,,,,,,j,1.906544399971608,0.10399179998785257,None,,,,,,95,0,94,569.4369780999841,,,,,,,,,,,,,,,,,,,,,,,,,,,,,,569.4211051000166,569.4369780999841,569.9373354999698,569.9206202999922,,,,,,,,,,,,,,,,,,,,,,,,,,569.9280077000149,569.9373354999698,569.9373354999698,569.9373354999698,572.9367933999747,572.9367933999747,572.9367933999747,572.9206984000048,j,1.906544399971608,0.10399179998785257,572.9207393999677,572.9207502999925,None,,,,,,,,,,,,,,00053,001,2026-01-18_17h18.33.436,MST_task,2024.2.0,59.85343091717774,2026-01-18 17h18.40.559418 +0530,
,Scenes\002a.jpg,95,0,96,,,,,,,j,0.9184084999724291,0.1199549000011757,None,,,,,,96,0,95,572.9367933999747,,,,,,,,,,,,,,,,,,,,,,,,,,,,,,572.9208164999727,572.9367933999747,573.4374562000157,573.4202857000055,,,,,,,,,,,,,,,,,,,,,,,,,,573.4311032000114,573.4374562000157,573.4374562000157,573.4374562000157,576.4369050000096,576.4369050000096,576.4369050000096,576.4208569999901,j,0.9184084999724291,0.1199549000011757,576.4208994999644,576.4209105999907,None,,,,,,,,,,,,,,00053,001,2026-01-18_17h18.33.436,MST_task,2024.2.0,59.85343091717774,2026-01-18 17h18.40.559418 +0530,
,Scenes\065a.jpg,96,0,97,,,,,,,j,0.850639600015711,0.12003759999061003,None,,,,,,97,0,96,576.4369050000096,,,,,,,,,,,,,,,,,,,,,,,,,,,,,,576.4210102999932,576.4369050000096,576.9374602999887,576.9205080000102,,,,,,,,,,,,,,,,,,,,,,,,,,576.9277847000048,576.9374602999887,576.9374602999887,576.9374602999887,579.9368961,579.9368961,579.9368961,579.9209091999801,j,0.850639600015711,0.12003759999061003,579.9209537999704,579.920964799996,None,,,,,,,,,,,,,,00053,001,2026-01-18_17h18.33.436,MST_task,2024.2.0,59.85343091717774,2026-01-18 17h18.40.559418 +0530,
,Scenes\190a.jpg,97,0,98,,,,,,,j,0.6062703999923542,0.11201979999896139,None,,,,,,98,0,97,579.9368961,,,,,,,,,,,,,,,,,,,,,,,,,,,,,,579.9210690999753,579.9368961,580.4375046999776,580.4204559999635,,,,,,,,,,,,,,,,,,,,,,,,,,580.4305023999768,580.4375046999776,580.4375046999776,580.4375046999776,583.4370165999862,583.4370165999862,583.4370165999862,583.4206621000194,j,0.6062703999923542,0.11201979999896139,583.4207055000006,583.4207165999687,None,,,,,,,,,,,,,,00053,001,2026-01-18_17h18.33.436,MST_task,2024.2.0,59.85343091717774,2026-01-18 17h18.40.559418 +0530,
,Objects\026a.jpg,98,0,99,,,,,,,f,1.5153065999620594,0.13594930002000183,None,,,,,,99,0,98,583.4370165999862,,,,,,,,,,,,,,,,,,,,,,,,,,,,,,583.4208128000028,583.4370165999862,583.9373841999914,583.9208373000147,,,,,,,,,,,,,,,,,,,,,,,,,,583.9262957000174,583.9373841999914,583.9373841999914,583.9373841999914,586.9369197000051,586.9369197000051,586.9369197000051,586.9207310999627,f,1.5153065999620594,0.13594930002000183,586.9227905999869,586.9228074999992,None,,,,,,,,,,,,,,00053,001,2026-01-18_17h18.33.436,MST_task,2024.2.0,59.85343091717774,2026-01-18 17h18.40.559418 +0530,
,Objects\029a.jpg,99,0,100,,,,,,,f,0.9512499999837019,0.15151759999571368,None,,,,,,100,0,99,586.9369197000051,,,,,,,,,,,,,,,,,,,,,,,,,,,,,,586.9229186999728,586.9369197000051,587.4370352000115,587.4206040999852,,,,,,,,,,,,,,,,,,,,,,,,,,587.4231907000067,587.4370352000115,587.4370352000115,587.4370352000115,590.4368664000067,590.4368664000067,590.4368664000067,590.4207950999844,f,0.9512499999837019,0.15151759999571368,590.4208390999702,590.4208501999965,None,,,,,,,,,,,,,,00053,001,2026-01-18_17h18.33.436,MST_task,2024.2.0,59.85343091717774,2026-01-18 17h18.40.559418 +0530,
,Objects\117a.jpg,100,0,101,,,,,,,None,,,f,1.9717710000113584,None,,,,101,0,100,590.4368664000067,,,,,,,,,,,,,,,,,,,,,,,,,,,,,,590.4209629999823,590.4368664000067,590.9371418000082,590.9205683000037,,,,,,,,,,,,,,,,,,,,,,,,,,590.9232434000005,590.9371418000082,590.9371418000082,590.9371418000082,593.9368756000185,593.9368756000185,593.9368756000185,593.9207662999979,None,,,593.9208045999985,595.9206491999794,f,593.9368756000185,593.9368756000185,1.9717710000113584,None,,,,,,,,,,00053,001,2026-01-18_17h18.33.436,MST_task,2024.2.0,59.85343091717774,2026-01-18 17h18.40.559418 +0530,
,Objects\007a.jpg,101,0,102,,,,,,,j,1.8388950999942608,0.11201340000843629,None,,,,,,102,0,101,595.9368046000018,,,,,,,,,,,,,,,,,,,,,,,,,,,,,,595.9207339999848,595.9368046000018,596.4371462999843,596.4207126999972,,,,,,,,,,,,,,,,,,,,,,,,,,596.4237253000028,596.4371462999843,596.4371462999843,596.4371462999843,599.4368881999981,599.4368881999981,599.4368881999981,599.420803999994,j,1.8388950999942608,0.11201340000843629,599.4208487999858,599.4208601000137,None,,,,,,,,,,,,,,00053,001,2026-01-18_17h18.33.436,MST_task,2024.2.0,59.85343091717774,2026-01-18 17h18.40.559418 +0530,
,Objects\082a.jpg,102,0,103,,,,,,,j,1.0748101000208408,0.10402669996256009,None,,,,,,103,0,102,599.4368881999981,,,,,,,,,,,,,,,,,,,,,,,,,,,,,,599.420996300003,599.4368881999981,599.9369858999853,599.9204176999629,,,,,,,,,,,,,,,,,,,,,,,,,,599.9236275000148,599.9369858999853,599.9369858999853,599.9369858999853,602.9368186999927,602.9368186999927,602.9368186999927,602.920816799975,j,1.0748101000208408,0.10402669996256009,602.9208571999916,602.9208680000156,None,,,,,,,,,,,,,,00053,001,2026-01-18_17h18.33.436,MST_task,2024.2.0,59.85343091717774,2026-01-18 17h18.40.559418 +0530,
,Objects\166a.jpg,103,0,104,,,,,,,f,1.1913078000070527,0.17550469998968765,None,,,,,,104,0,103,602.9368186999927,,,,,,,,,,,,,,,,,,,,,,,,,,,,,,602.9209657000029,602.9368186999927,603.4371886000154,603.4204608,,,,,,,,,,,,,,,,,,,,,,,,,,603.4232143000118,603.4371886000154,603.4371886000154,603.4371886000154,606.4368892000057,606.4368892000057,606.4368892000057,606.420790300006,f,1.1913078000070527,0.17550469998968765,606.4208306999644,606.4208414999885,None,,,,,,,,,,,,,,00053,001,2026-01-18_17h18.33.436,MST_task,2024.2.0,59.85343091717774,2026-01-18 17h18.40.559418 +0530,
,Objects\146a.jpg,104,0,105,,,,,,,f,2.547440499998629,0.12785140000050887,None,,,,,,105,0,104,606.4368892000057,,,,,,,,,,,,,,,,,,,,,,,,,,,,,,606.4209388999734,606.4368892000057,606.9371237999876,606.9203490999644,,,,,,,,,,,,,,,,,,,,,,,,,,606.9230708999676,606.9371237999876,606.9371237999876,606.9371237999876,609.9368184999912,609.9368184999912,609.9368184999912,609.9207620999659,f,2.547440499998629,0.12785140000050887,609.9208093999769,609.9208216000115,None,,,,,,,,,,,,,,00053,001,2026-01-18_17h18.33.436,MST_task,2024.2.0,59.85343091717774,2026-01-18 17h18.40.559418 +0530,
,Scenes\169a.jpg,105,0,106,,,,,,,j,1.9824936999939382,0.13670859998092055,None,,,,,,106,0,105,609.9368184999912,,,,,,,,,,,,,,,,,,,,,,,,,,,,,,609.9208933999762,609.9368184999912,610.4373367999797,610.4205224000034,,,,,,,,,,,,,,,,,,,,,,,,,,610.4292344999849,610.4373367999797,610.4373367999797,610.4373367999797,613.4369363000151,613.4369363000151,613.4369363000151,613.4207343999879,j,1.9824936999939382,0.13670859998092055,613.4223227999755,613.4223406999954,None,,,,,,,,,,,,,,00053,001,2026-01-18_17h18.33.436,MST_task,2024.2.0,59.85343091717774,2026-01-18 17h18.40.559418 +0530,
,Scenes\010a.jpg,106,0,107,,,,,,,j,0.956255900033284,0.11040289996890351,None,,,,,,107,0,106,613.4369363000151,,,,,,,,,,,,,,,,,,,,,,,,,,,,,,613.4224102000007,613.4369363000151,613.9374871000182,613.9204584999825,,,,,,,,,,,,,,,,,,,,,,,,,,613.9312508999719,613.9374871000182,613.9374871000182,613.9374871000182,616.9369065999635,616.9369065999635,616.9369065999635,616.9209632999846,j,0.956255900033284,0.11040289996890351,616.9210126000107,616.9210244999849,None,,,,,,,,,,,,,,00053,001,2026-01-18_17h18.33.436,MST_task,2024.2.0,59.85343091717774,2026-01-18 17h18.40.559418 +0530,
,Scenes\157a.jpg,107,0,108,,,,,,,j,0.8310904999962077,0.11980040004709736,None,,,,,,108,0,107,616.9369065999635,,,,,,,,,,,,,,,,,,,,,,,,,,,,,,616.921152099967,616.9369065999635,617.4373862000066,617.420425499964,,,,,,,,,,,,,,,,,,,,,,,,,,617.4275246000034,617.4373862000066,617.4373862000066,617.4373862000066,620.4368518000119,620.4368518000119,620.4368518000119,620.4210951999994,j,0.8310904999962077,0.11980040004709736,620.4211399999913,620.421151699964,None,,,,,,,,,,,,,,00053,001,2026-01-18_17h18.33.436,MST_task,2024.2.0,59.85343091717774,2026-01-18 17h18.40.559418 +0530,
,Scenes\041a.jpg,108,0,109,,,,,,,j,0.9629995999857783,0.10497889999533072,None,,,,,,109,0,108,620.4368518000119,,,,,,,,,,,,,,,,,,,,,,,,,,,,,,620.4212533999817,620.4368518000119,620.9373099000077,620.9201775999973,,,,,,,,,,,,,,,,,,,,,,,,,,620.9300327000092,620.9373099000077,620.9373099000077,620.9373099000077,623.9369599999627,623.9369599999627,623.9369599999627,623.9207937999745,j,0.9629995999857783,0.10497889999533072,623.9208363000071,623.9208472999744,None,,,,,,,,,,,,,,00053,001,2026-01-18_17h18.33.436,MST_task,2024.2.0,59.85343091717774,2026-01-18 17h18.40.559418 +0530,
,Scenes\111a.jpg,109,0,110,,,,,,,j,2.3997822999954224,0.10434540000278503,None,,,,,,110,0,109,623.9369599999627,,,,,,,,,,,,,,,,,,,,,,,,,,,,,,623.9209139000159,623.9369599999627,624.4372828999767,624.4203132999828,,,,,,,,,,,,,,,,,,,,,,,,,,624.426882300002,624.4372828999767,624.4372828999767,624.4372828999767,627.4369806000032,627.4369806000032,627.4369806000032,627.420787399984,j,2.3997822999954224,0.10434540000278503,627.4208300000173,627.4208405999816,None,,,,,,,,,,,,,,00053,001,2026-01-18_17h18.33.436,MST_task,2024.2.0,59.85343091717774,2026-01-18 17h18.40.559418 +0530,
,Scenes\076a.jpg,110,0,111,,,,,,,j,0.722366800007876,0.11200090002967045,None,,,,,,111,0,110,627.4369806000032,,,,,,,,,,,,,,,,,,,,,,,,,,,,,,627.4209072999656,627.4369806000032,627.9374480000115,627.9205782000208,,,,,,,,,,,,,,,,,,,,,,,,,,627.9330581999966,627.9374480000115,627.9374480000115,627.9374480000115,630.9368829000159,630.9368829000159,630.9368829000159,630.9206585999927,j,0.722366800007876,0.11200090002967045,630.9207012999686,630.9207121999934,None,,,,,,,,,,,,,,00053,001,2026-01-18_17h18.33.436,MST_task,2024.2.0,59.85343091717774,2026-01-18 17h18.40.559418 +0530,
,Scenes\045a.jpg,111,0,112,,,,,,,j,1.006902799999807,0.09661180002149194,None,,,,,,112,0,111,630.9368829000159,,,,,,,,,,,,,,,,,,,,,,,,,,,,,,630.9208558999817,630.9368829000159,631.4375063999905,631.4204584999825,,,,,,,,,,,,,,,,,,,,,,,,,,631.4313904999872,631.4375063999905,631.4375063999905,631.4375063999905,634.4368747000117,634.4368747000117,634.4368747000117,634.4209969000076,j,1.006902799999807,0.09661180002149194,634.4210441000178,634.4210553999874,None,,,,,,,,,,,,,,00053,001,2026-01-18_17h18.33.436,MST_task,2024.2.0,59.85343091717774,2026-01-18 17h18.40.559418 +0530,
,Objects\064a.jpg,112,0,113,,,,,,,f,1.2909194999956526,0.1197072000359185,None,,,,,,113,0,112,634.4368747000117,,,,,,,,,,,,,,,,,,,,,,,,,,,,,,634.4211252999958,634.4368747000117,634.9374545000028,634.9203260999639,,,,,,,,,,,,,,,,,,,,,,,,,,634.9255025999737,634.9374545000028,634.9374545000028,634.9374545000028,637.9367342999903,637.9367342999903,637.9367342999903,637.9207998000202,f,1.2909194999956526,0.1197072000359185,637.9236043000128,637.923622399976,None,,,,,,,,,,,,,,00053,001,2026-01-18_17h18.33.436,MST_task,2024.2.0,59.85343091717774,2026-01-18 17h18.40.559418 +0530,
,Objects\191a.jpg,113,0,114,,,,,,,f,2.120081399974879,0.12690279999515042,None,,,,,,114,0,113,637.9367342999903,,,,,,,,,,,,,,,,,,,,,,,,,,,,,,637.923724799999,637.9367342999903,638.4370115000056,638.4201835999847,,,,,,,,,,,,,,,,,,,,,,,,,,638.42278730002,638.4370115000056,638.4370115000056,638.4370115000056,641.4368003999698,641.4368003999698,641.4368003999698,641.4208332999842,f,2.120081399974879,0.12690279999515042,641.4208775999723,641.4208887999994,None,,,,,,,,,,,,,,00053,001,2026-01-18_17h18.33.436,MST_task,2024.2.0,59.85343091717774,2026-01-18 17h18.40.559418 +0530,
,Objects\092a.jpg,114,0,115,,,,,,,f,1.2348728000069968,0.1439698000322096,None,,,,,,115,0,114,641.4368003999698,,,,,,,,,,,,,,,,,,,,,,,,,,,,,,641.4209915999672,641.4368003999698,641.9370356000145,641.9202424999676,,,,,,,,,,,,,,,,,,,,,,,,,,641.9229680999997,641.9370356000145,641.9370356000145,641.9370356000145,644.9368080999702,644.9368080999702,644.9368080999702,644.920583900006,f,1.2348728000069968,0.1439698000322096,644.9206262999796,644.9206377000082,None,,,,,,,,,,,,,,00053,001,2026-01-18_17h18.33.436,MST_task,2024.2.0,59.85343091717774,2026-01-18 17h18.40.559418 +0530,
,Objects\069a.jpg,115,0,116,,,,,,,j,0.8954928999883123,0.12023010000120848,None,,,,,,116,0,115,644.9368080999702,,,,,,,,,,,,,,,,,,,,,,,,,,,,,,644.9207341999863,644.9368080999702,645.4370923999813,645.4202898999793,,,,,,,,,,,,,,,,,,,,,,,,,,645.4232443000074,645.4370923999813,645.4370923999813,645.4370923999813,648.4367405999801,648.4367405999801,648.4367405999801,648.420727699995,j,0.8954928999883123,0.12023010000120848,648.4207685000147,648.4207793999813,None,,,,,,,,,,,,,,00053,001,2026-01-18_17h18.33.436,MST_task,2024.2.0,59.85343091717774,2026-01-18 17h18.40.559418 +0530,
,Objects\119a.jpg,116,0,117,,,,,,,f,0.9073811999987811,0.15993510000407696,None,,,,,,117,0,116,648.4367405999801,,,,,,,,,,,,,,,,,,,,,,,,,,,,,,648.4208737000008,648.4367405999801,648.9370256999973,648.9203460999997,,,,,,,,,,,,,,,,,,,,,,,,,,648.9228955999715,648.9370256999973,648.9370256999973,648.9370256999973,651.9368243999779,651.9368243999779,651.9368243999779,651.9208403999801,f,0.9073811999987811,0.15993510000407696,651.9208824000088,651.9208932999754,None,,,,,,,,,,,,,,00053,001,2026-01-18_17h18.33.436,MST_task,2024.2.0,59.85343091717774,2026-01-18 17h18.40.559418 +0530,
,Objects\190a.jpg,117,0,118,,,,,,,f,2.8553435999783687,None,None,,,,,,118,0,117,651.9368243999779,,,,,,,,,,,,,,,,,,,,,,,,,,,,,,651.9209909000201,651.9368243999779,652.4369511000114,652.4202481000102,,,,,,,,,,,,,,,,,,,,,,,,,,652.4226071999874,652.4369511000114,652.4369511000114,652.4369511000114,655.436747699976,655.436747699976,655.436747699976,655.4207586999983,f,2.8553435999783687,None,655.4207998000202,655.4208110999898,None,,,,,,,,,,,,,,00053,001,2026-01-18_17h18.33.436,MST_task,2024.2.0,59.85343091717774,2026-01-18 17h18.40.559418 +0530,
,Objects\130a.jpg,118,0,119,,,,,,,None,,,f,0.059841100010089576,None,,,,119,0,118,655.436747699976,,,,,,,,,,,,,,,,,,,,,,,,,,,,,,655.420875300013,655.436747699976,655.9370381999761,655.9203501999727,,,,,,,,,,,,,,,,,,,,,,,,,,655.9231105999788,655.9370381999761,655.9370381999761,655.9370381999761,658.9367492999882,658.9367492999882,658.9367492999882,658.9207428999944,None,,,658.9207836000132,659.003930100007,f,658.9367492999882,658.9367492999882,0.059841100010089576,None,,,,,,,,,,00053,001,2026-01-18_17h18.33.436,MST_task,2024.2.0,59.85343091717774,2026-01-18 17h18.40.559418 +0530,
,Scenes\155a.jpg,119,0,120,,,,,,,j,0.8436519999522716,0.10402800003066659,None,,,,,,120,0,119,659.0203405999928,,,,,,,,,,,,,,,,,,,,,,,,,,,,,,659.0040092999698,659.0203405999928,659.5206347000203,659.5037466000067,,,,,,,,,,,,,,,,,,,,,,,,,,659.5133207999752,659.5206347000203,659.5206347000203,659.5206347000203,662.5199858999695,662.5199858999695,662.5199858999695,662.5039856999647,j,0.8436519999522716,0.10402800003066659,662.5056333999964,662.5056523999665,None,,,,,,,,,,,,,,00053,001,2026-01-18_17h18.33.436,MST_task,2024.2.0,59.85343091717774,2026-01-18 17h18.40.559418 +0530,
,Scenes\026a.jpg,120,0,121,,,,,,,j,1.3368541999952868,0.11904260003939271,None,,,,,,121,0,120,662.5199858999695,,,,,,,,,,,,,,,,,,,,,,,,,,,,,,662.5057566000032,662.5199858999695,663.02057589998,663.003742299974,,,,,,,,,,,,,,,,,,,,,,,,,,663.0143537999829,663.02057589998,663.02057589998,663.02057589998,666.0199254999752,666.0199254999752,666.0199254999752,666.0040061000036,j,1.3368541999952868,0.11904260003939271,666.0040542000206,666.0040658999933,None,,,,,,,,,,,,,,00053,001,2026-01-18_17h18.33.436,MST_task,2024.2.0,59.85343091717774,2026-01-18 17h18.40.559418 +0530,
,Scenes\027a.jpg,121,0,122,,,,,,,f,1.3071856999886222,0.13592530001187697,None,,,,,,122,0,121,666.0199254999752,,,,,,,,,,,,,,,,,,,,,,,,,,,,,,666.00413820002,666.0199254999752,666.5206501999637,666.5037853000103,,,,,,,,,,,,,,,,,,,,,,,,,,666.5108615999925,666.5206501999637,666.5206501999637,666.5206501999637,669.5200758000137,669.5200758000137,669.5200758000137,669.5039812999894,f,1.3071856999886222,0.13592530001187697,669.5040236000204,669.5040346999886,None,,,,,,,,,,,,,,00053,001,2026-01-18_17h18.33.436,MST_task,2024.2.0,59.85343091717774,2026-01-18 17h18.40.559418 +0530,
,Scenes\132a.jpg,122,0,123,,,,,,,None,,,j,1.0488252000068314,None,,,,123,0,122,669.5200758000137,,,,,,,,,,,,,,,,,,,,,,,,,,,,,,669.5040995000163,669.5200758000137,670.0205571000115,670.0037660999806,,,,,,,,,,,,,,,,,,,,,,,,,,670.0100160000147,670.0205571000115,670.0205571000115,670.0205571000115,673.0199851999641,673.0199851999641,673.0199851999641,673.0042335999897,None,,,673.0042759000207,674.0703149000183,j,673.0199851999641,673.0199851999641,1.0488252000068314,None,,,,,,,,,,00053,001,2026-01-18_17h18.33.436,MST_task,2024.2.0,59.85343091717774,2026-01-18 17h18.40.559418 +0530,
,Scenes\051a.jpg,123,0,124,,,,,,,j,1.0650553000159562,0.11947169998893514,None,,,,,,124,0,123,674.0870235000039,,,,,,,,,,,,,,,,,,,,,,,,,,,,,,674.0704016999807,674.0870235000039,674.5873824000009,674.5702659999952,,,,,,,,,,,,,,,,,,,,,,,,,,674.5758297999855,674.5873824000009,674.5873824000009,674.5873824000009,677.5868375999853,677.5868375999853,677.5868375999853,677.5705173999886,j,1.0650553000159562,0.11947169998893514,677.5705611999729,677.5705727000022,None,,,,,,,,,,,,,,00053,001,2026-01-18_17h18.33.436,MST_task,2024.2.0,59.85343091717774,2026-01-18 17h18.40.559418 +0530,
,Scenes\039a.jpg,124,0,125,,,,,,,j,0.9414408999728039,0.1282387000392191,None,,,,,,125,0,124,677.5868375999853,,,,,,,,,,,,,,,,,,,,,,,,,,,,,,677.5706784999929,677.5868375999853,678.0873363999999,678.070416499977,,,,,,,,,,,,,,,,,,,,,,,,,,678.0766393999802,678.0873363999999,678.0873363999999,678.0873363999999,681.0868485000101,681.0868485000101,681.0868485000101,681.0707839999814,j,0.9414408999728039,0.1282387000392191,681.0708303999854,681.0708417000133,None,,,,,,,,,,,,,,00053,001,2026-01-18_17h18.33.436,MST_task,2024.2.0,59.85343091717774,2026-01-18 17h18.40.559418 +0530,
,Scenes\047a.jpg,125,0,126,,,,,,,j,0.9055070000467822,0.11229129997082055,None,,,,,,126,0,125,681.0868485000101,,,,,,,,,,,,,,,,,,,,,,,,,,,,,,681.0709485000116,681.0868485000101,681.5873894999968,681.570372999995,,,,,,,,,,,,,,,,,,,,,,,,,,681.5807840999914,681.5873894999968,681.5873894999968,681.5873894999968,684.5867458999855,684.5867458999855,684.5867458999855,684.5706313999835,j,0.9055070000467822,0.11229129997082055,684.570670999994,684.5706819000188,None,,,,,,,,,,,,,,00053,001,2026-01-18_17h18.33.436,MST_task,2024.2.0,59.85343091717774,2026-01-18 17h18.40.559418 +0530,
,Objects\124a.jpg,126,0,127,,,,,,,j,2.2609276000293903,0.12800259998766705,None,,,,,,127,0,126,684.5867458999855,,,,,,,,,,,,,,,,,,,,,,,,,,,,,,684.5707780999946,684.5867458999855,685.0872624000185,685.0702188999858,,,,,,,,,,,,,,,,,,,,,,,,,,685.0754831999657,685.0872624000185,685.0872624000185,685.0872624000185,688.0868077999912,688.0868077999912,688.0868077999912,688.0711943999631,j,2.2609276000293903,0.12800259998766705,688.0733440999757,688.0733619999955,None,,,,,,,,,,,,,,00053,001,2026-01-18_17h18.33.436,MST_task,2024.2.0,59.85343091717774,2026-01-18 17h18.40.559418 +0530,
,Objects\145a.jpg,127,0,128,,,,,,,f,1.4728087999974377,0.13679139997111633,None,,,,,,128,0,127,688.0868077999912,,,,,,,,,,,,,,,,,,,,,,,,,,,,,,688.0734841999947,688.0868077999912,688.5870603999938,688.5704849999747,,,,,,,,,,,,,,,,,,,,,,,,,,688.5731461999821,688.5870603999938,688.5870603999938,688.5870603999938,691.586864700017,691.586864700017,691.586864700017,691.570462099975,f,1.4728087999974377,0.13679139997111633,691.5705054000136,691.5705170999863,None,,,,,,,,,,,,,,00053,001,2026-01-18_17h18.33.436,MST_task,2024.2.0,59.85343091717774,2026-01-18 17h18.40.559418 +0530,
,Objects\131a.jpg,128,0,129,,,,,,,f,0.9092050000326708,0.12801179999951273,None,,,,,,129,0,128,691.586864700017,,,,,,,,,,,,,,,,,,,,,,,,,,,,,,691.5706157999812,691.586864700017,692.087042899977,692.0703213000088,,,,,,,,,,,,,,,,,,,,,,,,,,692.0732854999951,692.087042899977,692.087042899977,692.087042899977,695.0868909999845,695.0868909999845,695.0868909999845,695.0708916999865,f,0.9092050000326708,0.12801179999951273,695.0709420000203,695.0709529999876,None,,,,,,,,,,,,,,00053,001,2026-01-18_17h18.33.436,MST_task,2024.2.0,59.85343091717774,2026-01-18 17h18.40.559418 +0530,
,Objects\049a.jpg,129,0,130,,,,,,,f,2.1294454999733716,0.19996910000918433,None,,,,,,130,0,129,695.0868909999845,,,,,,,,,,,,,,,,,,,,,,,,,,,,,,695.0710242000059,695.0868909999845,695.5871524999966,695.5703840000206,,,,,,,,,,,,,,,,,,,,,,,,,,695.5729056000127,695.5871524999966,695.5871524999966,695.5871524999966,698.586868399987,698.586868399987,698.586868399987,698.5708218999789,f,2.1294454999733716,0.19996910000918433,698.5708647000138,698.5708755999804,None,,,,,,,,,,,,,,00053,001,2026-01-18_17h18.33.436,MST_task,2024.2.0,59.85343091717774,2026-01-18 17h18.40.559418 +0530,
,Objects\136a.jpg,130,0,131,,,,,,,f,2.0211702000233345,0.15967969998018816,None,,,,,,131,0,130,698.586868399987,,,,,,,,,,,,,,,,,,,,,,,,,,,,,,698.5709420000203,698.586868399987,699.0871385000064,699.070525099989,,,,,,,,,,,,,,,,,,,,,,,,,,699.073686699965,699.0871385000064,699.0871385000064,699.0871385000064,702.0868959999643,702.0868959999643,702.0868959999643,702.0708400000003,f,2.0211702000233345,0.15967969998018816,702.0708872000105,702.0708991999854,None,,,,,,,,,,,,,,00053,001,2026-01-18_17h18.33.436,MST_task,2024.2.0,59.85343091717774,2026-01-18 17h18.40.559418 +0530,
,Objects\050a.jpg,131,0,132,,,,,,,f,1.3449382999679074,0.13598740001907572,None,,,,,,132,0,131,702.0868959999643,,,,,,,,,,,,,,,,,,,,,,,,,,,,,,702.0710044999723,702.0868959999643,702.5871035999735,702.5706288999645,,,,,,,,,,,,,,,,,,,,,,,,,,702.5735926000052,702.5871035999735,702.5871035999735,702.5871035999735,705.5868463999941,705.5868463999941,705.5868463999941,705.5708161999937,f,1.3449382999679074,0.13598740001907572,705.5708568000118,705.5708680999815,None,,,,,,,,,,,,,,00053,001,2026-01-18_17h18.33.436,MST_task,2024.2.0,59.85343091717774,2026-01-18 17h18.40.559418 +0530,
,Objects\039a.jpg,132,0,133,,,,,,,j,2.0689711999730207,0.10361799999373034,None,,,,,,133,0,132,705.5868463999941,,,,,,,,,,,,,,,,,,,,,,,,,,,,,,705.5709337000153,705.5868463999941,706.0872527000029,706.0704480999848,,,,,,,,,,,,,,,,,,,,,,,,,,706.0733152999892,706.0872527000029,706.0872527000029,706.0872527000029,709.0869581999723,709.0869581999723,709.0869581999723,709.0711059999885,j,2.0689711999730207,0.10361799999373034,709.0711510999827,709.0711621000082,None,,,,,,,,,,,,,,00053,001,2026-01-18_17h18.33.436,MST_task,2024.2.0,59.85343091717774,2026-01-18 17h18.40.559418 +0530,
,Scenes\053a.jpg,133,0,134,,,,,,,None,,,j,0.7531009999802336,None,,,,134,0,133,709.0869581999723,,,,,,,,,,,,,,,,,,,,,,,,,,,,,,709.0712645999738,709.0869581999723,709.5872640999733,709.5705943999928,,,,,,,,,,,,,,,,,,,,,,,,,,709.5749668999924,709.5872640999733,709.5872640999733,709.5872640999733,712.5869600999868,712.5869600999868,712.5869600999868,712.5706905999687,None,,,712.5723301999969,713.3540541999973,j,712.5869600999868,712.5869600999868,0.7531009999802336,None,,,,,,,,,,00053,001,2026-01-18_17h18.33.436,MST_task,2024.2.0,59.85343091717774,2026-01-18 17h18.40.559418 +0530,
,Scenes\121a.jpg,134,0,135,,,,,,,j,1.2139116000034846,0.12799979996634647,None,,,,,,135,0,134,713.3701398000121,,,,,,,,,,,,,,,,,,,,,,,,,,,,,,713.3541751999874,713.3701398000121,713.8707574,713.8538416000083,,,,,,,,,,,,,,,,,,,,,,,,,,713.8633664000081,713.8707574,713.8707574,713.8707574,716.8702261999715,716.8702261999715,716.8702261999715,716.854251599987,j,1.2139116000034846,0.12799979996634647,716.8542955999728,716.8543073000037,None,,,,,,,,,,,,,,00053,001,2026-01-18_17h18.33.436,MST_task,2024.2.0,59.85343091717774,2026-01-18 17h18.40.559418 +0530,
,Scenes\037a.jpg,135,0,136,,,,,,,j,0.8819494000053965,0.13489669997943565,None,,,,,,136,0,135,716.8702261999715,,,,,,,,,,,,,,,,,,,,,,,,,,,,,,716.8544089000206,716.8702261999715,717.3709003999829,717.3538311999873,,,,,,,,,,,,,,,,,,,,,,,,,,717.3583198999986,717.3709003999829,717.3709003999829,717.3709003999829,720.3701699000085,720.3701699000085,720.3701699000085,720.3542085000081,j,0.8819494000053965,0.13489669997943565,720.3542505999794,720.354261600005,None,,,,,,,,,,,,,,00053,001,2026-01-18_17h18.33.436,MST_task,2024.2.0,59.85343091717774,2026-01-18 17h18.40.559418 +0530,
,Scenes\192a.jpg,136,0,137,,,,,,,j,0.7732615999993868,0.11340329999802634,None,,,,,,137,0,136,720.3701699000085,,,,,,,,,,,,,,,,,,,,,,,,,,,,,,720.3543268999783,720.3701699000085,720.8708492000005,720.85387240001,,,,,,,,,,,,,,,,,,,,,,,,,,720.8604506999836,720.8708492000005,720.8708492000005,720.8708492000005,723.8701989999972,723.8701989999972,723.8701989999972,723.8540966999717,j,0.7732615999993868,0.11340329999802634,723.8541394000058,723.8541504999739,None,,,,,,,,,,,,,,00053,001,2026-01-18_17h18.33.436,MST_task,2024.2.0,59.85343091717774,2026-01-18 17h18.40.559418 +0530,
,Scenes\088a.jpg,137,0,138,,,,,,,j,1.0500415000133216,0.1351308999583125,None,,,,,,138,0,137,723.8701989999972,,,,,,,,,,,,,,,,,,,,,,,,,,,,,,723.8542246000143,723.8701989999972,724.3706522000139,724.3538143999758,,,,,,,,,,,,,,,,,,,,,,,,,,724.3663075999939,724.3706522000139,724.3706522000139,724.3706522000139,727.3702668999904,727.3702668999904,727.3702668999904,727.3541175000137,j,1.0500415000133216,0.1351308999583125,727.3541645999649,727.3541755999904,None,,,,,,,,,,,,,,00053,001,2026-01-18_17h18.33.436,MST_task,2024.2.0,59.85343091717774,2026-01-18 17h18.40.559418 +0530,
,Scenes\163a.jpg,138,0,139,,,,,,,j,0.9813990999828093,0.11300270003266633,None,,,,,,139,0,138,727.3702668999904,,,,,,,,,,,,,,,,,,,,,,,,,,,,,,727.3542717999662,727.3702668999904,727.870919500012,727.8538437999669,,,,,,,,,,,,,,,,,,,,,,,,,,727.8599811000167,727.870919500012,727.870919500012,727.870919500012,730.8701943000196,730.8701943000196,730.8701943000196,730.8543993000058,j,0.9813990999828093,0.11300270003266633,730.8544487999752,730.8544611000107,None,,,,,,,,,,,,,,00053,001,2026-01-18_17h18.33.436,MST_task,2024.2.0,59.85343091717774,2026-01-18 17h18.40.559418 +0530,
,Scenes\020a.jpg,139,0,140,,,,,,,f,1.7694469999987632,0.15200150001328439,None,,,,,,140,0,139,730.8701943000196,,,,,,,,,,,,,,,,,,,,,,,,,,,,,,730.8545670000021,730.8701943000196,731.3706701999763,731.3537695999839,,,,,,,,,,,,,,,,,,,,,,,,,,731.3646114000003,731.3706701999763,731.3706701999763,731.3706701999763,734.3701710000169,734.3701710000169,734.3701710000169,734.3541560000158,f,1.7694469999987632,0.15200150001328439,734.3541965999757,734.3542080000043,None,,,,,,,,,,,,,,00053,001,2026-01-18_17h18.33.436,MST_task,2024.2.0,59.85343091717774,2026-01-18 17h18.40.559418 +0530,
,Objects\054a.jpg,140,0,141,,,,,,,f,1.3005949999787845,0.15350060001946986,None,,,,,,141,0,140,734.3701710000169,,,,,,,,,,,,,,,,,,,,,,,,,,,,,,734.3543040999793,734.3701710000169,734.8711889999686,734.8537628999911,,,,,,,,,,,,,,,,,,,,,,,,,,734.8682817000081,734.8711889999686,734.8711889999686,734.8711889999686,737.8702479999629,737.8702479999629,737.8702479999629,737.8541956999688,f,1.3005949999787845,0.15350060001946986,737.8563627999974,737.8564205999719,None,,,,,,,,,,,,,,00053,001,2026-01-18_17h18.33.436,MST_task,2024.2.0,59.85343091717774,2026-01-18 17h18.40.559418 +0530,
,Objects\116a.jpg,141,0,142,,,,,,,f,1.9783446000074036,0.12749479996273294,None,,,,,,142,0,141,737.8702479999629,,,,,,,,,,,,,,,,,,,,,,,,,,,,,,737.8565219999873,737.8702479999629,738.37044530001,738.3539111000136,,,,,,,,,,,,,,,,,,,,,,,,,,738.3567058999906,738.37044530001,738.37044530001,738.37044530001,741.3701516999863,741.3701516999863,741.3701516999863,741.354180299968,f,1.9783446000074036,0.12749479996273294,741.3542212999891,741.3542325000162,None,,,,,,,,,,,,,,00053,001,2026-01-18_17h18.33.436,MST_task,2024.2.0,59.85343091717774,2026-01-18 17h18.40.559418 +0530,
,Objects\081a.jpg,142,0,143,,,,,,,j,1.5187637000344694,0.11873980000382289,None,,,,,,143,0,142,741.3701516999863,,,,,,,,,,,,,,,,,,,,,,,,,,,,,,741.3543315000134,741.3701516999863,741.8703543000156,741.8538932999945,,,,,,,,,,,,,,,,,,,,,,,,,,741.8564983999822,741.8703543000156,741.8703543000156,741.8703543000156,744.8701603999943,744.8701603999943,744.8701603999943,744.8540345999645,j,1.5187637000344694,0.11873980000382289,744.854076699994,744.8540877000196,None,,,,,,,,,,,,,,00053,001,2026-01-18_17h18.33.436,MST_task,2024.2.0,59.85343091717774,2026-01-18 17h18.40.559418 +0530,
,Objects\028a.jpg,143,0,144,,,,,,,j,1.4981343999970704,0.1040138999815099,None,,,,,,144,0,143,744.8701603999943,,,,,,,,,,,,,,,,,,,,,,,,,,,,,,744.8541566999629,744.8701603999943,745.3703453000053,745.3538893999648,,,,,,,,,,,,,,,,,,,,,,,,,,745.3565569999628,745.3703453000053,745.3703453000053,745.3703453000053,748.3700450999895,748.3700450999895,748.3700450999895,748.3541106000193,j,1.4981343999970704,0.1040138999815099,748.3541593999835,748.3541706000105,None,,,,,,,,,,,,,,00053,001,2026-01-18_17h18.33.436,MST_task,2024.2.0,59.85343091717774,2026-01-18 17h18.40.559418 +0530,
,Objects\098a.jpg,144,0,145,,,,,,,f,0.917426300002262,0.14522750000469387,None,,,,,,145,0,144,748.3700450999895,,,,,,,,,,,,,,,,,,,,,,,,,,,,,,748.3542889999808,748.3700450999895,748.8705114999902,748.8538718000054,,,,,,,,,,,,,,,,,,,,,,,,,,748.8565254000132,748.8705114999902,748.8705114999902,748.8705114999902,751.8702676999965,751.8702676999965,751.8702676999965,751.8541065999889,f,0.917426300002262,0.14522750000469387,751.854147200007,751.8541584999766,None,,,,,,,,,,,,,,00053,001,2026-01-18_17h18.33.436,MST_task,2024.2.0,59.85343091717774,2026-01-18 17h18.40.559418 +0530,
,Objects\151a.jpg,145,0,146,,,,,,,f,1.1855684000183828,0.15301849995739758,None,,,,,,146,0,145,751.8702676999965,,,,,,,,,,,,,,,,,,,,,,,,,,,,,,751.8542538000038,751.8702676999965,752.3702877999749,752.3538057999685,,,,,,,,,,,,,,,,,,,,,,,,,,752.3564263000153,752.3702877999749,752.3702877999749,752.3702877999749,755.3701052999822,755.3701052999822,755.3701052999822,755.3540373999858,f,1.1855684000183828,0.15301849995739758,755.3540825999808,755.3540940000094,None,,,,,,,,,,,,,,00053,001,2026-01-18_17h18.33.436,MST_task,2024.2.0,59.85343091717774,2026-01-18 17h18.40.559418 +0530,
,Objects\142a.jpg,146,0,147,,,,,,,f,0.7178175000008196,0.13601810002001002,None,,,,,,147,0,146,755.3701052999822,,,,,,,,,,,,,,,,,,,,,,,,,,,,,,755.3541608999949,755.3701052999822,755.8703988000052,755.8537859999924,,,,,,,,,,,,,,,,,,,,,,,,,,755.8565175000113,755.8703988000052,755.8703988000052,755.8703988000052,758.8702077000053,758.8702077000053,758.8702077000053,758.8543196999817,f,0.7178175000008196,0.13601810002001002,758.8543678999995,758.8543799999752,None,,,,,,,,,,,,,,00053,001,2026-01-18_17h18.33.436,MST_task,2024.2.0,59.85343091717774,2026-01-18 17h18.40.559418 +0530,
,Scenes\004a.jpg,147,0,148,,,,,,,j,1.3293648999533616,0.08801370003493503,None,,,,,,148,0,147,758.8702077000053,,,,,,,,,,,,,,,,,,,,,,,,,,,,,,758.8544928000192,758.8702077000053,759.3707627999829,759.3537732000113,,,,,,,,,,,,,,,,,,,,,,,,,,759.3651901999838,759.3707627999829,759.3707627999829,759.3707627999829,762.370064000017,762.370064000017,762.370064000017,762.3539620999945,j,1.3293648999533616,0.08801370003493503,762.3555729999789,762.3555902999942,None,,,,,,,,,,,,,,00053,001,2026-01-18_17h18.33.436,MST_task,2024.2.0,59.85343091717774,2026-01-18 17h18.40.559418 +0530,
,Scenes\021a.jpg,148,0,149,,,,,,,j,1.877624399960041,0.08799130003899336,None,,,,,,149,0,148,762.370064000017,,,,,,,,,,,,,,,,,,,,,,,,,,,,,,762.355692400015,762.370064000017,762.8706834000186,762.8539735999657,,,,,,,,,,,,,,,,,,,,,,,,,,762.86379209999,762.8706834000186,762.8706834000186,762.8706834000186,765.8700441999827,765.8700441999827,765.8700441999827,765.8540616999962,j,1.877624399960041,0.08799130003899336,765.8541024000151,765.8541133999825,None,,,,,,,,,,,,,,00053,001,2026-01-18_17h18.33.436,MST_task,2024.2.0,59.85343091717774,2026-01-18 17h18.40.559418 +0530,
,Scenes\131a.jpg,149,0,150,,,,,,,j,0.9854767000069842,0.11999869998544455,None,,,,,,150,0,149,765.8700441999827,,,,,,,,,,,,,,,,,,,,,,,,,,,,,,765.8541795000201,765.8700441999827,766.3706356000039,766.3537380999769,,,,,,,,,,,,,,,,,,,,,,,,,,766.3617983000004,766.3706356000039,766.3706356000039,766.3706356000039,769.3701131999842,769.3701131999842,769.3701131999842,769.3540595999802,j,0.9854767000069842,0.11999869998544455,769.3541011000052,769.3541123999748,None,,,,,,,,,,,,,,00053,001,2026-01-18_17h18.33.436,MST_task,2024.2.0,59.85343091717774,2026-01-18 17h18.40.559418 +0530,
,Scenes\019a.jpg,150,0,151,,,,,,,f,1.625587299990002,0.12793930002953857,None,,,,,,151,0,150,769.3701131999842,,,,,,,,,,,,,,,,,,,,,,,,,,,,,,769.3541780000087,769.3701131999842,769.874395699997,769.8539259000099,,,,,,,,,,,,,,,,,,,,,,,,,,769.8720854999847,769.874395699997,769.874395699997,769.874395699997,,,,772.8703405999695,f,1.625587299990002,0.12793930002953857,772.8703833000036,772.8703953999793,None,,,,,,,,,,,,,,00053,001,2026-01-18_17h18.33.436,MST_task,2024.2.0,59.85343091717774,2026-01-18 17h18.40.559418 +0530,
,Scenes\181a.jpg,151,0,152,,,,,,,f,0.6725085000507534,0.1440609999699518,None,,,,,,152,0,151,772.8868427000125,,,,,,,,,,,,,,,,,,,,,,,,,,,,,,772.8704657999915,772.8868427000125,773.3874269999797,773.3701757999952,,,,,,,,,,,,,,,,,,,,,,,,,,773.3797767999931,773.3874269999797,773.3874269999797,773.3874269999797,776.3868041000096,776.3868041000096,776.3868041000096,776.37070759997,f,0.6725085000507534,0.1440609999699518,776.3707563999924,776.3707677000202,None,,,,,,,,,,,,,,00053,001,2026-01-18_17h18.33.436,MST_task,2024.2.0,59.85343091717774,2026-01-18 17h18.40.559418 +0530,
,Scenes\101a.jpg,152,0,153,,,,,,,j,0.9169629000243731,0.12027100002160296,None,,,,,,153,0,152,776.3868041000096,,,,,,,,,,,,,,,,,,,,,,,,,,,,,,776.3708423000062,776.3868041000096,776.8874079000088,776.8703725999803,,,,,,,,,,,,,,,,,,,,,,,,,,776.8779135000077,776.8874079000088,776.8874079000088,776.8874079000088,779.8868141999701,779.8868141999701,779.8868141999701,779.870977899991,j,0.9169629000243731,0.12027100002160296,779.8710246999981,779.8710357999662,None,,,,,,,,,,,,,,00053,001,2026-01-18_17h18.33.436,MST_task,2024.2.0,59.85343091717774,2026-01-18 17h18.40.559418 +0530,
,Scenes\023a.jpg,153,0,154,,,,,,,f,1.1699153000372462,0.18292409996502101,None,,,,,,154,0,153,779.8868141999701,,,,,,,,,,,,,,,,,,,,,,,,,,,,,,779.8711042999639,779.8868141999701,780.3874213999952,780.3702386000077,,,,,,,,,,,,,,,,,,,,,,,,,,780.3818833999685,780.3874213999952,780.3874213999952,780.3874213999952,783.3869154999848,783.3869154999848,783.3869154999848,783.3708829999669,f,1.1699153000372462,0.18292409996502101,783.3709315999877,783.370943100017,None,,,,,,,,,,,,,,00053,001,2026-01-18_17h18.33.436,MST_task,2024.2.0,59.85343091717774,2026-01-18 17h18.40.559418 +0530,
,Objects\073a.jpg,154,0,155,,,,,,,f,1.2209217000054196,0.152025000017602,None,,,,,,155,0,154,783.3869154999848,,,,,,,,,,,,,,,,,,,,,,,,,,,,,,783.3710599999758,783.3869154999848,783.8874512999901,783.8703453000053,,,,,,,,,,,,,,,,,,,,,,,,,,783.8758886000142,783.8874512999901,783.8874512999901,783.8874512999901,786.8867822000175,786.8867822000175,786.8867822000175,786.870803400001,f,1.2209217000054196,0.152025000017602,786.8728651999845,786.8728821999975,None,,,,,,,,,,,,,,00053,001,2026-01-18_17h18.33.436,MST_task,2024.2.0,59.85343091717774,2026-01-18 17h18.40.559418 +0530,
,Objects\065a.jpg,155,0,156,,,,,,,j,1.433418200002052,0.09611210000002757,None,,,,,,156,0,155,786.8867822000175,,,,,,,,,,,,,,,,,,,,,,,,,,,,,,786.8729831000092,786.8867822000175,787.3870787000051,787.3702790999669,,,,,,,,,,,,,,,,,,,,,,,,,,787.3727101999684,787.3870787000051,787.3870787000051,787.3870787000051,790.3868123000138,790.3868123000138,790.3868123000138,790.3706200000015,j,1.433418200002052,0.09611210000002757,790.3706974000088,790.370709299983,None,,,,,,,,,,,,,,00053,001,2026-01-18_17h18.33.436,MST_task,2024.2.0,59.85343091717774,2026-01-18 17h18.40.559418 +0530,
