Sl_no,image_path,thisN,thisTrialN,thisRepN,key_resp_5.keys,key_resp_5.rt,key_resp_5.duration,key_resp_7.keys,key_resp_7.rt,key_resp_7.duration,key_resp_9.keys,key_resp_9.rt,key_resp_9.duration,key_resp_8.keys,key_resp_8.rt,key_resp_8.duration,practice.thisRepN,practice.thisTrialN,practice.thisN,trials.thisRepN,trials.thisTrialN,trials.thisN,thisRow.t,notes,welcome_page.started,text.started,key_resp.started,welcome_page.stopped,key_resp.keys,key_resp.rt,key_resp.duration,instructions.started,ins.started,key_resp_2.started,instructions.stopped,key_resp_2.keys,key_resp_2.rt,key_resp_2.duration,instructions_2.started,text_10.started,key_resp_10.started,instructions_2.stopped,key_resp_10.keys,key_resp_10.rt,key_resp_10.duration,objects_only_instruction.started,text_3.started,key_resp_3.started,objects_only_instruction.stopped,key_resp_3.keys,key_resp_3.rt,key_resp_3.duration,ISI.started,text_4.started,text_4.stopped,ISI.stopped,practice_block.started,image.started,text_5.started,key_resp_5.started,practice_block.stopped,practice.key_resp_5.keys,practice.key_resp_5.rt,practice.key_resp_5.duration,indoor_outdoor.started,indoor_outdoor.stopped,practice.key_resp_7.keys,image.stopped,text_5.stopped,key_resp_5.stopped,text_7.started,key_resp_7.started,practice.key_resp_7.rt,practice.key_resp_7.duration,practice_to_main.started,text_2.started,key_resp_4.started,practice_to_main.stopped,key_resp_4.keys,key_resp_4.rt,key_resp_4.duration,objects.started,image_2.started,text_9.started,key_resp_9.started,image_2.stopped,text_9.stopped,key_resp_9.stopped,objects.stopped,trials.key_resp_9.keys,trials.key_resp_9.rt,trials.key_resp_9.duration,encoding_task.started,encoding_task.stopped,trials.key_resp_8.keys,text_8.started,key_resp_8.started,trials.key_resp_8.rt,trials.key_resp_8.duration,end_experiment.started,text_6.started,key_resp_6.started,end_experiment.stopped,key_resp_6.keys,key_resp_6.rt,key_resp_6.duration,list_of_stimuli,encoding_task_accuracy,participant,session,date,expName,psychopyVersion,frameRate,expStart,
,,,,,,,,,,,,,,,,,,,,,,,,,0.00145650003105402,0.0031737000099383295,0.0031737000099383295,25.40977110003587,space,25.404317900014576,None,,,,,,,,,,,,,,,,,,,,,,,,,,,,,,,,,,,,,,,,,,,,,,,,,,,,,,,,,,,,,,,,,,,,,,,,,,,,,,00054,001,2026-01-18_18h01.08.629,MST_task,2024.2.0,59.99469647733782,2026-01-18 18h01.57.140573 +0530,
,,,,,,,,,,,,,,,,,,,,,,,,,,,,,,,,25.409809300035704,25.424315400014166,25.424315400014166,52.05822539998917,space,26.622543199977372,None,,,,,,,,,,,,,,,,,,,,,,,,,,,,,,,,,,,,,,,,,,,,,,,,,,,,,,,,,,,,,,,,,,,,,,,00054,001,2026-01-18_18h01.08.629,MST_task,2024.2.0,59.99469647733782,2026-01-18 18h01.57.140573 +0530,
,,,,,,,,,,,,,,,,,,,,,,,,,,,,,,,,,,,,,,,52.05825280002318,52.07435459998669,52.07435459998669,63.37489480001386,space,11.29275870003039,None,,,,,,,,,,,,,,,,,,,,,,,,,,,,,,,,,,,,,,,,,,,,,,,,,,,,,,,,,,,,,,,,00054,001,2026-01-18_18h01.08.629,MST_task,2024.2.0,59.99469647733782,2026-01-18 18h01.57.140573 +0530,
,,,,,,,,,,,,,,,,,,,,,,,,,,,,,,,,,,,,,,,,,,,,,,63.37492710002698,63.39120960002765,63.39120960002765,76.54163669998525,space,13.137163600011263,None,,,,,,,,,,,,,,,,,,,,,,,,,,,,,,,,,,,,,,,,,,,,,,,,,,,,,,,,,00054,001,2026-01-18_18h01.08.629,MST_task,2024.2.0,59.99469647733782,2026-01-18 18h01.57.140573 +0530,
7,practice_images/166a.jpg,0,0,1,f,1.7813802000018768,0.14308440004242584,None,,,,,,,,,1,0,0,,,,76.55767220002599,,,,,,,,,,,,,,,,,,,,,,,,,,,,,,76.54551740002353,76.55767220002599,77.05914700002177,77.04132550000213,77.04845960001694,77.05914700002177,77.05914700002177,77.05914700002177,80.05802029999904,f,1.7813802000018768,0.14308440004242584,80.05980560003081,80.05982770002447,None,,,,,,,,,,,,,,,,,,,,,,,,,,,,,,,,,,,,,,,,,,00054,001,2026-01-18_18h01.08.629,MST_task,2024.2.0,59.99469647733782,2026-01-18 18h01.57.140573 +0530,
10,practice_images/182a.jpg,1,1,1,f,1.0163357999990694,0.1039939999463968,None,,,,,,,,,1,1,1,,,,80.07429379998939,,,,,,,,,,,,,,,,,,,,,,,,,,,,,,80.05989690002752,80.07429379998939,80.57450420001987,80.55810040002689,80.55951530003222,80.57450420001987,80.57450420001987,80.57450420001987,83.55811039998662,f,1.0163357999990694,0.1039939999463968,83.55815260001691,83.55816499999491,None,83.57433670002501,83.57433670002501,83.57433670002501,,,,,,,,,,,,,,,,,,,,,,,,,,,,,,,,,,,,,,,00054,001,2026-01-18_18h01.08.629,MST_task,2024.2.0,59.99469647733782,2026-01-18 18h01.57.140573 +0530,
2,practice_images/031a.jpg,2,2,1,f,1.1733276000013575,0.142920000012964,None,,,,,,,,,1,2,2,,,,83.57433670002501,,,,,,,,,,,,,,,,,,,,,,,,,,,,,,83.55822690000059,83.57433670002501,84.07452460000059,84.0580631000339,84.05942740000319,84.07452460000059,84.07452460000059,84.07452460000059,87.05814099998679,f,1.1733276000013575,0.142920000012964,87.05818009999348,87.05819310003426,None,87.07427749998169,87.07427749998169,87.07427749998169,,,,,,,,,,,,,,,,,,,,,,,,,,,,,,,,,,,,,,,00054,001,2026-01-18_18h01.08.629,MST_task,2024.2.0,59.99469647733782,2026-01-18 18h01.57.140573 +0530,
3,practice_images/037a.jpg,3,3,1,f,1.0332741999882273,0.11996919999364763,None,,,,,,,,,1,3,3,,,,87.07427749998169,,,,,,,,,,,,,,,,,,,,,,,,,,,,,,87.05825669999467,87.07427749998169,87.57453079998959,87.55808839999372,87.55954420001945,87.57453079998959,87.57453079998959,87.57453079998959,90.5582190999994,f,1.0332741999882273,0.11996919999364763,90.55825539998477,90.5582675000187,None,90.5743375000311,90.5743375000311,90.5743375000311,,,,,,,,,,,,,,,,,,,,,,,,,,,,,,,,,,,,,,,00054,001,2026-01-18_18h01.08.629,MST_task,2024.2.0,59.99469647733782,2026-01-18 18h01.57.140573 +0530,
4,practice_images/002b.jpg,4,4,1,f,2.100668400002178,0.11986500001512468,None,,,,,,,,,1,4,4,,,,90.5743375000311,,,,,,,,,,,,,,,,,,,,,,,,,,,,,,90.55832990002818,90.5743375000311,91.07436420000158,91.05793489998905,91.05955230002292,91.07436420000158,91.07436420000158,91.07436420000158,94.05827510001836,f,2.100668400002178,0.11986500001512468,94.05831540003419,94.05832820001524,None,94.07430640002713,94.07430640002713,94.07430640002713,,,,,,,,,,,,,,,,,,,,,,,,,,,,,,,,,,,,,,,00054,001,2026-01-18_18h01.08.629,MST_task,2024.2.0,59.99469647733782,2026-01-18 18h01.57.140573 +0530,
5,practice_images/139a.jpg,5,5,1,f,2.2255682999966666,0.11205520003568381,None,,,,,,,,,1,5,5,,,,94.07430640002713,,,,,,,,,,,,,,,,,,,,,,,,,,,,,,94.058399200032,94.07430640002713,94.57442610000726,94.55812920001335,94.5636295999866,94.57442610000726,94.57442610000726,94.57442610000726,97.55821089999517,f,2.2255682999966666,0.11205520003568381,97.56088100001216,97.56089860002976,None,97.57434599997941,97.57434599997941,97.57434599997941,,,,,,,,,,,,,,,,,,,,,,,,,,,,,,,,,,,,,,,00054,001,2026-01-18_18h01.08.629,MST_task,2024.2.0,59.99469647733782,2026-01-18 18h01.57.140573 +0530,
6,practice_images/158a.jpg,6,6,1,None,,,j,1.9485881000291556,None,,,,,,,1,6,6,,,,97.57434599997941,,,,,,,,,,,,,,,,,,,,,,,,,,,,,,97.56096390000312,97.57434599997941,98.07458160002716,98.05801769997925,98.05968260002555,98.07458160002716,98.07458160002716,98.07458160002716,101.05818589997943,None,,,101.0582204000093,103.0249534000177,j,101.07425180001883,101.07425180001883,101.07425180001883,101.07425180001883,101.07425180001883,1.9485881000291556,None,,,,,,,,,,,,,,,,,,,,,,,,,,,,,,,,,,,00054,001,2026-01-18_18h01.08.629,MST_task,2024.2.0,59.99469647733782,2026-01-18 18h01.57.140573 +0530,
8,practice_images/178a.jpg,7,7,1,f,1.01792629994452,0.12798130000010133,None,,,,,,,,,1,7,7,,,,103.04120620002504,,,,,,,,,,,,,,,,,,,,,,,,,,,,,,103.02504249999765,103.04120620002504,103.5412816000171,103.5245340000256,103.5260915000108,103.5412816000171,103.5412816000171,103.5412816000171,106.52476320002461,f,1.01792629994452,0.12798130000010133,106.5248015000252,106.52481460000854,None,106.54107079998357,106.54107079998357,106.54107079998357,,,,,,,,,,,,,,,,,,,,,,,,,,,,,,,,,,,,,,,00054,001,2026-01-18_18h01.08.629,MST_task,2024.2.0,59.99469647733782,2026-01-18 18h01.57.140573 +0530,
9,practice_images/180a.jpg,8,8,1,j,1.221772900025826,0.12805180001305416,None,,,,,,,,,1,8,8,,,,106.54107079998357,,,,,,,,,,,,,,,,,,,,,,,,,,,,,,106.52487930003554,106.54107079998357,107.04129520000424,107.02480549999746,107.02636090002488,107.04129520000424,107.04129520000424,107.04129520000424,110.02478450001217,j,1.221772900025826,0.12805180001305416,110.02482130000135,110.02483359997859,None,110.0410877999966,110.0410877999966,110.0410877999966,,,,,,,,,,,,,,,,,,,,,,,,,,,,,,,,,,,,,,,00054,001,2026-01-18_18h01.08.629,MST_task,2024.2.0,59.99469647733782,2026-01-18 18h01.57.140573 +0530,
1,practice_images/013a.jpg,9,9,1,j,1.2736642000381835,0.12799929996253923,None,,,,,,,,,1,9,9,,,,110.0410877999966,,,,,,,,,,,,,,,,,,,,,,,,,,,,,,110.0248953999835,110.0410877999966,110.54127909999806,110.52460330002941,110.52605809998931,110.54127909999806,110.54127909999806,110.54127909999806,113.5248755000066,j,1.2736642000381835,0.12799929996253923,113.52491650002776,113.52492940000957,None,113.54122120002285,113.54122120002285,113.54122120002285,,,,,,,,,,,,,,,,,,,,,,,,,,,,,,,,,,,,,,,00054,001,2026-01-18_18h01.08.629,MST_task,2024.2.0,59.99469647733782,2026-01-18 18h01.57.140573 +0530,
,,,,,,,,,,,,,,,,,,,,,,,,,,,,,,,,,,,,,,,,,,,,,,,,,,,,,,,,,,,,,,,,,,,,,,,,,,,113.52497530000983,113.54122120002285,113.54122120002285,126.95826620003209,space,13.410758500045631,None,,,,,,,,,,,,,,,,,,,,,,,,,,,,00054,001,2026-01-18_18h01.08.629,MST_task,2024.2.0,59.99469647733782,2026-01-18 18h01.57.140573 +0530,
,Scenes\128a.jpg,0,0,1,,,,,,,j,1.044683600019198,0.1039634000044316,None,,,,,,1,0,0,126.97434429998975,,,,,,,,,,,,,,,,,,,,,,,,,,,,,,126.95902030001162,126.97434429998975,127.47484139999142,127.45801780000329,,,,,,,,,,,,,,,,,,,,,,,,,,127.46999750001123,127.47484139999142,127.47484139999142,127.47484139999142,130.4743791000219,130.4743791000219,130.4743791000219,130.4583292999887,j,1.044683600019198,0.1039634000044316,130.4601854000357,130.46020370000042,None,,,,,,,,,,,,,,00054,001,2026-01-18_18h01.08.629,MST_task,2024.2.0,59.99469647733782,2026-01-18 18h01.57.140573 +0530,
,Scenes\028a.jpg,1,0,2,,,,,,,j,1.0330258999601938,0.10299250000389293,None,,,,,,2,0,1,130.4743791000219,,,,,,,,,,,,,,,,,,,,,,,,,,,,,,130.46030149998842,130.4743791000219,130.9748729999992,130.9580289000296,,,,,,,,,,,,,,,,,,,,,,,,,,130.9654789000051,130.9748729999992,130.9748729999992,130.9748729999992,133.97428760002367,133.97428760002367,133.97428760002367,133.95836270001018,j,1.0330258999601938,0.10299250000389293,133.95840420003515,133.9584157000063,None,,,,,,,,,,,,,,00054,001,2026-01-18_18h01.08.629,MST_task,2024.2.0,59.99469647733782,2026-01-18 18h01.57.140573 +0530,
,Scenes\152a.jpg,2,0,3,,,,,,,j,0.948257600015495,0.11973620002390817,None,,,,,,3,0,2,133.97428760002367,,,,,,,,,,,,,,,,,,,,,,,,,,,,,,133.95851379999658,133.97428760002367,134.47497510001995,134.45801529998425,,,,,,,,,,,,,,,,,,,,,,,,,,134.4644232999999,134.47497510001995,134.47497510001995,134.47497510001995,137.47466120001627,137.47466120001627,137.47466120001627,137.45860220002942,j,0.948257600015495,0.11973620002390817,137.45864890003577,137.45866010000464,None,,,,,,,,,,,,,,00054,001,2026-01-18_18h01.08.629,MST_task,2024.2.0,59.99469647733782,2026-01-18 18h01.57.140573 +0530,
,Scenes\092a.jpg,3,0,4,,,,,,,j,1.0482090000296012,0.11207289999583736,None,,,,,,4,0,3,137.47466120001627,,,,,,,,,,,,,,,,,,,,,,,,,,,,,,137.4587729999912,137.47466120001627,137.97495160001563,137.95811519998824,,,,,,,,,,,,,,,,,,,,,,,,,,137.96578129997943,137.97495160001563,137.97495160001563,137.97495160001563,140.9745142000029,140.9745142000029,140.9745142000029,140.95829630002845,j,1.0482090000296012,0.11207289999583736,140.95833950000815,140.95835020003142,None,,,,,,,,,,,,,,00054,001,2026-01-18_18h01.08.629,MST_task,2024.2.0,59.99469647733782,2026-01-18 18h01.57.140573 +0530,
,Scenes\063a.jpg,4,0,5,,,,,,,j,0.9962414999608882,0.11199290002696216,None,,,,,,5,0,4,140.9745142000029,,,,,,,,,,,,,,,,,,,,,,,,,,,,,,140.95841409999412,140.9745142000029,141.47508090001065,141.45825490000425,,,,,,,,,,,,,,,,,,,,,,,,,,141.46690960001433,141.47508090001065,141.47508090001065,141.47508090001065,144.4744742999901,144.4744742999901,144.4744742999901,144.45844670000952,j,0.9962414999608882,0.11199290002696216,144.45848770003067,144.45849809999345,None,,,,,,,,,,,,,,00054,001,2026-01-18_18h01.08.629,MST_task,2024.2.0,59.99469647733782,2026-01-18 18h01.57.140573 +0530,
,Scenes\156a.jpg,5,0,6,,,,,,,j,0.910445699992124,0.10397360002389178,None,,,,,,6,0,5,144.4744742999901,,,,,,,,,,,,,,,,,,,,,,,,,,,,,,144.4585932000191,144.4744742999901,144.97658120002598,144.9581200000248,,,,,,,,,,,,,,,,,,,,,,,,,,144.97405680001248,144.97658120002598,144.97658120002598,144.97658120002598,,,,147.97476700000698,j,0.910445699992124,0.10397360002389178,147.97480870003346,147.9748210000107,None,,,,,,,,,,,,,,00054,001,2026-01-18_18h01.08.629,MST_task,2024.2.0,59.99469647733782,2026-01-18 18h01.57.140573 +0530,
,Scenes\001a.jpg,6,0,7,,,,,,,f,0.8031060000066645,0.1279987000161782,None,,,,,,7,0,6,147.99115250003524,,,,,,,,,,,,,,,,,,,,,,,,,,,,,,147.97491789999185,147.99115250003524,148.49181660002796,148.4746569999843,,,,,,,,,,,,,,,,,,,,,,,,,,148.48553649999667,148.49181660002796,148.49181660002796,148.49181660002796,151.49119520001113,151.49119520001113,151.49119520001113,151.47513299999991,f,0.8031060000066645,0.1279987000161782,151.47517619997961,151.4751866000006,None,,,,,,,,,,,,,,00054,001,2026-01-18_18h01.08.629,MST_task,2024.2.0,59.99469647733782,2026-01-18 18h01.57.140573 +0530,
,Objects\179a.jpg,7,0,8,,,,,,,f,1.360287400020752,0.13599799998337403,None,,,,,,8,0,7,151.49119520001113,,,,,,,,,,,,,,,,,,,,,,,,,,,,,,151.4752835999825,151.49119520001113,151.99135070003103,151.97472519997973,,,,,,,,,,,,,,,,,,,,,,,,,,151.98120099998778,151.99135070003103,151.99135070003103,151.99135070003103,154.9911401999998,154.9911401999998,154.9911401999998,154.97513919998892,f,1.360287400020752,0.13599799998337403,154.97823090001475,154.9782501999871,None,,,,,,,,,,,,,,00054,001,2026-01-18_18h01.08.629,MST_task,2024.2.0,59.99469647733782,2026-01-18 18h01.57.140573 +0530,
,Objects\078a.jpg,8,0,9,,,,,,,f,1.1001062999712303,0.16008320002583787,None,,,,,,9,0,8,154.9911401999998,,,,,,,,,,,,,,,,,,,,,,,,,,,,,,154.97837780002737,154.9911401999998,155.4914545000065,155.47474969999166,,,,,,,,,,,,,,,,,,,,,,,,,,155.47726970002986,155.4914545000065,155.4914545000065,155.4914545000065,158.4912439000327,158.4912439000327,158.4912439000327,158.4750486999983,f,1.1001062999712303,0.16008320002583787,158.47509100002935,158.47510189999593,None,,,,,,,,,,,,,,00054,001,2026-01-18_18h01.08.629,MST_task,2024.2.0,59.99469647733782,2026-01-18 18h01.57.140573 +0530,
,Objects\118a.jpg,9,0,10,,,,,,,f,0.928409299987834,0.12775789998704568,None,,,,,,10,0,9,158.4912439000327,,,,,,,,,,,,,,,,,,,,,,,,,,,,,,158.4751682000351,158.4912439000327,158.99144020001404,158.97476469998946,,,,,,,,,,,,,,,,,,,,,,,,,,158.97761100000935,158.99144020001404,158.99144020001404,158.99144020001404,161.99112760002026,161.99112760002026,161.99112760002026,161.9751191000105,f,0.928409299987834,0.12775789998704568,161.97516139998334,161.9751724000089,None,,,,,,,,,,,,,,00054,001,2026-01-18_18h01.08.629,MST_task,2024.2.0,59.99469647733782,2026-01-18 18h01.57.140573 +0530,
,Objects\168a.jpg,10,0,11,,,,,,,f,1.7089139000163414,0.135011000034865,None,,,,,,11,0,10,161.99112760002026,,,,,,,,,,,,,,,,,,,,,,,,,,,,,,161.97523739997996,161.99112760002026,162.4914813999785,162.47490989998914,,,,,,,,,,,,,,,,,,,,,,,,,,162.47748609998962,162.4914813999785,162.4914813999785,162.4914813999785,165.49121810001088,165.49121810001088,165.49121810001088,165.47502840001835,f,1.7089139000163414,0.135011000034865,165.47506969998358,165.4750805000076,None,,,,,,,,,,,,,,00054,001,2026-01-18_18h01.08.629,MST_task,2024.2.0,59.99469647733782,2026-01-18 18h01.57.140573 +0530,
,Objects\188a.jpg,11,0,12,,,,,,,f,1.0725808999850415,0.1516276000184007,None,,,,,,12,0,11,165.49121810001088,,,,,,,,,,,,,,,,,,,,,,,,,,,,,,165.47517450002488,165.49121810001088,165.99143789999653,165.9747605000157,,,,,,,,,,,,,,,,,,,,,,,,,,165.9773928000359,165.99143789999653,165.99143789999653,165.99143789999653,168.99120560003212,168.99120560003212,168.99120560003212,168.97496239998145,f,1.0725808999850415,0.1516276000184007,168.97500869998476,168.9750200000126,None,,,,,,,,,,,,,,00054,001,2026-01-18_18h01.08.629,MST_task,2024.2.0,59.99469647733782,2026-01-18 18h01.57.140573 +0530,
,Objects\104a.jpg,12,0,13,,,,,,,f,0.7401397000066936,0.1359717000159435,None,,,,,,13,0,12,168.99120560003212,,,,,,,,,,,,,,,,,,,,,,,,,,,,,,168.9751209000242,168.99120560003212,169.49129770003492,169.4747578999959,,,,,,,,,,,,,,,,,,,,,,,,,,169.4775977000245,169.49129770003492,169.49129770003492,169.49129770003492,172.49121539999032,172.49121539999032,172.49121539999032,172.4749187999987,f,0.7401397000066936,0.1359717000159435,172.47496060002595,172.47497119999025,None,,,,,,,,,,,,,,00054,001,2026-01-18_18h01.08.629,MST_task,2024.2.0,59.99469647733782,2026-01-18 18h01.57.140573 +0530,
,Objects\146a.jpg,13,0,14,,,,,,,f,2.415679400030058,0.08792859996901825,None,,,,,,14,0,13,172.49121539999032,,,,,,,,,,,,,,,,,,,,,,,,,,,,,,172.47507440001937,172.49121539999032,172.99146990000736,172.97511350002605,,,,,,,,,,,,,,,,,,,,,,,,,,172.97793029999593,172.99146990000736,172.99146990000736,172.99146990000736,175.99109319999116,175.99109319999116,175.99109319999116,175.97477149998304,f,2.415679400030058,0.08792859996901825,175.97481779998634,175.9748288000119,None,,,,,,,,,,,,,,00054,001,2026-01-18_18h01.08.629,MST_task,2024.2.0,59.99469647733782,2026-01-18 18h01.57.140573 +0530,
,Scenes\146a.jpg,14,0,15,,,,,,,j,0.8996643000282347,0.11232629994628951,None,,,,,,15,0,14,175.99109319999116,,,,,,,,,,,,,,,,,,,,,,,,,,,,,,175.97489439998753,175.99109319999116,176.4918663999997,176.47469410003396,,,,,,,,,,,,,,,,,,,,,,,,,,176.48670579999452,176.4918663999997,176.4918663999997,176.4918663999997,179.49104839999927,179.49104839999927,179.49104839999927,179.4750901000225,j,0.8996643000282347,0.11232629994628951,179.4768712000223,179.4768889999832,None,,,,,,,,,,,,,,00054,001,2026-01-18_18h01.08.629,MST_task,2024.2.0,59.99469647733782,2026-01-18 18h01.57.140573 +0530,
,Scenes\022a.jpg,15,0,16,,,,,,,j,1.4476804999867454,0.10410180001053959,None,,,,,,16,0,15,179.49104839999927,,,,,,,,,,,,,,,,,,,,,,,,,,,,,,179.47700630000327,179.49104839999927,179.99191799998516,179.97466150001856,,,,,,,,,,,,,,,,,,,,,,,,,,179.97913360001985,179.99191799998516,179.99191799998516,179.99191799998516,182.9911776999943,182.9911776999943,182.9911776999943,182.97520360001363,j,1.4476804999867454,0.10410180001053959,182.97526390000712,182.97527549997903,None,,,,,,,,,,,,,,00054,001,2026-01-18_18h01.08.629,MST_task,2024.2.0,59.99469647733782,2026-01-18 18h01.57.140573 +0530,
,Scenes\190a.jpg,16,0,17,,,,,,,j,0.6437689000158571,0.11209409998264164,None,,,,,,17,0,16,182.9911776999943,,,,,,,,,,,,,,,,,,,,,,,,,,,,,,182.97539169999072,182.9911776999943,183.4917673000018,183.47468450001907,,,,,,,,,,,,,,,,,,,,,,,,,,183.48524990002625,183.4917673000018,183.4917673000018,183.4917673000018,186.49123240000335,186.49123240000335,186.49123240000335,186.47509900003206,j,0.6437689000158571,0.11209409998264164,186.47514170000795,186.47515280003427,None,,,,,,,,,,,,,,00054,001,2026-01-18_18h01.08.629,MST_task,2024.2.0,59.99469647733782,2026-01-18 18h01.57.140573 +0530,
,Scenes\031a.jpg,17,0,18,,,,,,,f,1.855452099989634,0.12001200002850965,None,,,,,,18,0,17,186.49123240000335,,,,,,,,,,,,,,,,,,,,,,,,,,,,,,186.47521900001448,186.49123240000335,186.99167790001957,186.9746571999858,,,,,,,,,,,,,,,,,,,,,,,,,,186.9858596000122,186.99167790001957,186.99167790001957,186.99167790001957,189.99125000002095,189.99125000002095,189.99125000002095,189.97547310002847,f,1.855452099989634,0.12001200002850965,189.9755210999865,189.97553240001434,None,,,,,,,,,,,,,,00054,001,2026-01-18_18h01.08.629,MST_task,2024.2.0,59.99469647733782,2026-01-18 18h01.57.140573 +0530,
,Scenes\191a.jpg,18,0,19,,,,,,,j,1.060253500007093,0.11180000001331791,None,,,,,,19,0,18,189.99125000002095,,,,,,,,,,,,,,,,,,,,,,,,,,,,,,189.97563870000886,189.99125000002095,190.49178189999657,190.4747800999903,,,,,,,,,,,,,,,,,,,,,,,,,,190.48150410002563,190.49178189999657,190.49178189999657,190.49178189999657,193.49121579999337,193.49121579999337,193.49121579999337,193.47501130000455,j,1.060253500007093,0.11180000001331791,193.4750543999835,193.4750655000098,None,,,,,,,,,,,,,,00054,001,2026-01-18_18h01.08.629,MST_task,2024.2.0,59.99469647733782,2026-01-18 18h01.57.140573 +0530,
,Scenes\122a.jpg,19,0,20,,,,,,,f,1.1914100000285544,0.12109829997643828,None,,,,,,20,0,19,193.49121579999337,,,,,,,,,,,,,,,,,,,,,,,,,,,,,,193.47513320000144,193.49121579999337,193.99157970002852,193.9747856000322,,,,,,,,,,,,,,,,,,,,,,,,,,193.98506460001227,193.99157970002852,193.99157970002852,193.99157970002852,196.99124659999507,196.99124659999507,196.99124659999507,196.97507829999086,f,1.1914100000285544,0.12109829997643828,196.97512309998274,196.9751341000083,None,,,,,,,,,,,,,,00054,001,2026-01-18_18h01.08.629,MST_task,2024.2.0,59.99469647733782,2026-01-18 18h01.57.140573 +0530,
,Scenes\101a.jpg,20,0,21,,,,,,,j,1.139914500003215,0.1520349999773316,None,,,,,,21,0,20,196.99124659999507,,,,,,,,,,,,,,,,,,,,,,,,,,,,,,196.9752368000336,196.99124659999507,197.4917794999783,197.4748210000107,,,,,,,,,,,,,,,,,,,,,,,,,,197.48213140002917,197.4917794999783,197.4917794999783,197.4917794999783,200.49110530002508,200.49110530002508,200.49110530002508,200.47501320001902,j,1.139914500003215,0.1520349999773316,200.47505690000253,200.47506800002884,None,,,,,,,,,,,,,,00054,001,2026-01-18_18h01.08.629,MST_task,2024.2.0,59.99469647733782,2026-01-18 18h01.57.140573 +0530,
,Objects\021a.jpg,21,0,22,,,,,,,f,1.6159359000157565,0.1523892999975942,None,,,,,,22,0,21,200.49110530002508,,,,,,,,,,,,,,,,,,,,,,,,,,,,,,200.47513370000524,200.49110530002508,200.99158710002666,200.97468980000122,,,,,,,,,,,,,,,,,,,,,,,,,,200.98067200003425,200.99158710002666,200.99158710002666,200.99158710002666,203.99111310002627,203.99111310002627,203.99111310002627,203.97490760002984,f,1.6159359000157565,0.1523892999975942,203.97698829998262,203.97700610000174,None,,,,,,,,,,,,,,00054,001,2026-01-18_18h01.08.629,MST_task,2024.2.0,59.99469647733782,2026-01-18 18h01.57.140573 +0530,
,Objects\172a.jpg,22,0,23,,,,,,,j,1.2116898999665864,0.11219210003037006,None,,,,,,23,0,22,203.99111310002627,,,,,,,,,,,,,,,,,,,,,,,,,,,,,,203.97707620001165,203.99111310002627,204.49125760002062,204.47455280000577,,,,,,,,,,,,,,,,,,,,,,,,,,204.4769119999837,204.49125760002062,204.49125760002062,204.49125760002062,207.49103610002203,207.49103610002203,207.49103610002203,207.47491430002265,j,1.2116898999665864,0.11219210003037006,207.47495880001225,207.47496969997883,None,,,,,,,,,,,,,,00054,001,2026-01-18_18h01.08.629,MST_task,2024.2.0,59.99469647733782,2026-01-18 18h01.57.140573 +0530,
,Objects\073a.jpg,23,0,24,,,,,,,f,1.303756200009957,0.15199819998815656,None,,,,,,24,0,23,207.49103610002203,,,,,,,,,,,,,,,,,,,,,,,,,,,,,,207.47507179999957,207.49103610002203,207.9913549000048,207.97462270001415,,,,,,,,,,,,,,,,,,,,,,,,,,207.9773229000275,207.9913549000048,207.9913549000048,207.9913549000048,210.99108459998388,210.99108459998388,210.99108459998388,210.9751046000165,f,1.303756200009957,0.15199819998815656,210.9751496000099,210.9751609999803,None,,,,,,,,,,,,,,00054,001,2026-01-18_18h01.08.629,MST_task,2024.2.0,59.99469647733782,2026-01-18 18h01.57.140573 +0530,
,Objects\103a.jpg,24,0,25,,,,,,,j,1.0761577999801375,0.09598879999248311,None,,,,,,25,0,24,210.99108459998388,,,,,,,,,,,,,,,,,,,,,,,,,,,,,,210.97526079998352,210.99108459998388,211.49127559998306,211.47457640001085,,,,,,,,,,,,,,,,,,,,,,,,,,211.47717030002968,211.49127559998306,211.49127559998306,211.49127559998306,214.49105140002212,214.49105140002212,214.49105140002212,214.4749421000015,j,1.0761577999801375,0.09598879999248311,214.47498290002113,214.47499319998315,None,,,,,,,,,,,,,,00054,001,2026-01-18_18h01.08.629,MST_task,2024.2.0,59.99469647733782,2026-01-18 18h01.57.140573 +0530,
,Objects\046a.jpg,25,0,26,,,,,,,f,2.0729414999950677,0.1429692999809049,None,,,,,,26,0,25,214.49105140002212,,,,,,,,,,,,,,,,,,,,,,,,,,,,,,214.4750880000065,214.49105140002212,214.99125930003356,214.9745888999896,,,,,,,,,,,,,,,,,,,,,,,,,,214.97690830001375,214.99125930003356,214.99125930003356,214.99125930003356,217.99111850000918,217.99111850000918,217.99111850000918,217.9748215000145,f,2.0729414999950677,0.1429692999809049,217.9748628999805,217.97487390000606,None,,,,,,,,,,,,,,00054,001,2026-01-18_18h01.08.629,MST_task,2024.2.0,59.99469647733782,2026-01-18 18h01.57.140573 +0530,
,Objects\020a.jpg,26,0,27,,,,,,,f,0.964688699983526,0.13479090004693717,None,,,,,,27,0,26,217.99111850000918,,,,,,,,,,,,,,,,,,,,,,,,,,,,,,217.97493989998475,217.99111850000918,218.4913948000176,218.4746935000294,,,,,,,,,,,,,,,,,,,,,,,,,,218.4773974000127,218.4913948000176,218.4913948000176,218.4913948000176,221.49116540001705,221.49116540001705,221.49116540001705,221.4751474999939,f,0.964688699983526,0.13479090004693717,221.47519399999874,221.47520530002657,None,,,,,,,,,,,,,,00054,001,2026-01-18_18h01.08.629,MST_task,2024.2.0,59.99469647733782,2026-01-18 18h01.57.140573 +0530,
,Objects\033a.jpg,27,0,28,,,,,,,f,1.720142100006342,0.1120113999932073,None,,,,,,28,0,27,221.49116540001705,,,,,,,,,,,,,,,,,,,,,,,,,,,,,,221.47531010000966,221.49116540001705,221.99133950000396,221.97462609998183,,,,,,,,,,,,,,,,,,,,,,,,,,221.97716990002664,221.99133950000396,221.99133950000396,221.99133950000396,224.99114659999032,224.99114659999032,224.99114659999032,224.97487450001063,f,1.720142100006342,0.1120113999932073,224.97491759998957,224.97492870001588,None,,,,,,,,,,,,,,00054,001,2026-01-18_18h01.08.629,MST_task,2024.2.0,59.99469647733782,2026-01-18 18h01.57.140573 +0530,
,Scenes\100a.jpg,28,0,29,,,,,,,f,2.091386899992358,0.11993879999499768,None,,,,,,29,0,28,224.99114659999032,,,,,,,,,,,,,,,,,,,,,,,,,,,,,,224.97499429999152,224.99114659999032,225.49156619998394,225.47453160001896,,,,,,,,,,,,,,,,,,,,,,,,,,225.4853807000327,225.49156619998394,225.49156619998394,225.49156619998394,228.4911476999987,228.4911476999987,228.4911476999987,228.47506510000676,f,2.091386899992358,0.11993879999499768,228.4767423000303,228.47676059999503,None,,,,,,,,,,,,,,00054,001,2026-01-18_18h01.08.629,MST_task,2024.2.0,59.99469647733782,2026-01-18 18h01.57.140573 +0530,
,Scenes\115a.jpg,29,0,30,,,,,,,j,1.103377699968405,0.14509450003970414,None,,,,,,30,0,29,228.4911476999987,,,,,,,,,,,,,,,,,,,,,,,,,,,,,,228.4768629000173,228.4911476999987,228.99167020001914,228.97455099999206,,,,,,,,,,,,,,,,,,,,,,,,,,228.98365750000812,228.99167020001914,228.99167020001914,228.99167020001914,231.99112209997838,231.99112209997838,231.99112209997838,231.97484420001274,j,1.103377699968405,0.14509450003970414,231.97488559997873,231.97489700000733,None,,,,,,,,,,,,,,00054,001,2026-01-18_18h01.08.629,MST_task,2024.2.0,59.99469647733782,2026-01-18 18h01.57.140573 +0530,
,Scenes\110a.jpg,30,0,31,,,,,,,j,1.3392885999637656,0.14393510000081733,None,,,,,,31,0,30,231.99112209997838,,,,,,,,,,,,,,,,,,,,,,,,,,,,,,231.97496160003357,231.99112209997838,232.49167439999292,232.47454239998478,,,,,,,,,,,,,,,,,,,,,,,,,,232.48252489999868,232.49167439999292,232.49167439999292,232.49167439999292,235.49105310003506,235.49105310003506,235.49105310003506,235.47491460002493,j,1.3392885999637656,0.14393510000081733,235.47495860001072,235.4749697999796,None,,,,,,,,,,,,,,00054,001,2026-01-18_18h01.08.629,MST_task,2024.2.0,59.99469647733782,2026-01-18 18h01.57.140573 +0530,
,Scenes\124a.jpg,31,0,32,,,,,,,f,1.295947500038892,0.13608009996823967,None,,,,,,32,0,31,235.49105310003506,,,,,,,,,,,,,,,,,,,,,,,,,,,,,,235.4750778999878,235.49105310003506,235.99170569999842,235.97474740003236,,,,,,,,,,,,,,,,,,,,,,,,,,235.98156520002522,235.99170569999842,235.99170569999842,235.99170569999842,238.99106189998565,238.99106189998565,238.99106189998565,238.97494809998898,f,1.295947500038892,0.13608009996823967,238.97499030001927,238.97500149998814,None,,,,,,,,,,,,,,00054,001,2026-01-18_18h01.08.629,MST_task,2024.2.0,59.99469647733782,2026-01-18 18h01.57.140573 +0530,
,Scenes\157a.jpg,32,0,33,,,,,,,j,1.0119104000041261,0.1439276000019163,None,,,,,,33,0,32,238.99106189998565,,,,,,,,,,,,,,,,,,,,,,,,,,,,,,238.9750968000153,238.99106189998565,239.49161100003403,239.4746196999913,,,,,,,,,,,,,,,,,,,,,,,,,,239.4820050999988,239.49161100003403,239.49161100003403,239.49161100003403,242.4911495000124,242.4911495000124,242.4911495000124,242.47491869999794,j,1.0119104000041261,0.1439276000019163,242.47496060002595,242.4749772999785,None,,,,,,,,,,,,,,00054,001,2026-01-18_18h01.08.629,MST_task,2024.2.0,59.99469647733782,2026-01-18 18h01.57.140573 +0530,
,Scenes\067a.jpg,33,0,34,,,,,,,f,2.4153701000032015,0.14470030000666156,None,,,,,,34,0,33,242.4911495000124,,,,,,,,,,,,,,,,,,,,,,,,,,,,,,242.4750746000209,242.4911495000124,242.99177170003532,242.9749822000158,,,,,,,,,,,,,,,,,,,,,,,,,,242.98189619998448,242.99177170003532,242.99177170003532,242.99177170003532,245.99106129998108,245.99106129998108,245.99106129998108,245.97494630003348,f,2.4153701000032015,0.14470030000666156,245.97498669999186,245.9749975000159,None,,,,,,,,,,,,,,00054,001,2026-01-18_18h01.08.629,MST_task,2024.2.0,59.99469647733782,2026-01-18 18h01.57.140573 +0530,
,Scenes\077a.jpg,34,0,35,,,,,,,None,,,j,0.7885587000055239,None,,,,35,0,34,245.99106129998108,,,,,,,,,,,,,,,,,,,,,,,,,,,,,,245.97509209997952,245.99106129998108,246.4916928000166,246.47457979997853,,,,,,,,,,,,,,,,,,,,,,,,,,246.48183130001416,246.4916928000166,246.4916928000166,246.4916928000166,249.49114779999945,249.49114779999945,249.49114779999945,249.47506560001057,None,,,249.47510370000964,250.29151930002263,j,249.49114779999945,249.49114779999945,0.7885587000055239,None,,,,,,,,,,00054,001,2026-01-18_18h01.08.629,MST_task,2024.2.0,59.99469647733782,2026-01-18 18h01.57.140573 +0530,
,Objects\071a.jpg,35,0,36,,,,,,,j,2.671865999989677,0.11894459999166429,None,,,,,,36,0,35,250.3077467000112,,,,,,,,,,,,,,,,,,,,,,,,,,,,,,250.2916234000004,250.3077467000112,250.80826690001413,250.79140300001018,,,,,,,,,,,,,,,,,,,,,,,,,,250.79686220001895,250.80826690001413,250.80826690001413,250.80826690001413,253.80802930000937,253.80802930000937,253.80802930000937,253.79179649997968,j,2.671865999989677,0.11894459999166429,253.79391290002968,253.79393059998984,None,,,,,,,,,,,,,,00054,001,2026-01-18_18h01.08.629,MST_task,2024.2.0,59.99469647733782,2026-01-18 18h01.57.140573 +0530,
,Objects\044a.jpg,36,0,37,,,,,,,None,,,f,0.9310933999950066,None,,,,37,0,36,253.80802930000937,,,,,,,,,,,,,,,,,,,,,,,,,,,,,,253.7940385999973,253.80802930000937,254.3079601000063,254.29136859998107,,,,,,,,,,,,,,,,,,,,,,,,,,254.29383059998509,254.3079601000063,254.3079601000063,254.3079601000063,257.30788809998194,257.30788809998194,257.30788809998194,257.2919564000331,None,,,257.2920073000132,258.2416268999805,f,257.30788809998194,257.30788809998194,0.9310933999950066,None,,,,,,,,,,00054,001,2026-01-18_18h01.08.629,MST_task,2024.2.0,59.99469647733782,2026-01-18 18h01.57.140573 +0530,
,Objects\088a.jpg,37,0,38,,,,,,,j,2.0411740000126883,0.11972729995613918,None,,,,,,38,0,37,258.2579010000336,,,,,,,,,,,,,,,,,,,,,,,,,,,,,,258.24171390000265,258.2579010000336,258.75813889998244,258.74142019997817,,,,,,,,,,,,,,,,,,,,,,,,,,258.7444031999912,258.75813889998244,258.75813889998244,258.75813889998244,261.75787289999425,261.75787289999425,261.75787289999425,261.74195240001427,j,2.0411740000126883,0.11972729995613918,261.742000200029,261.7420112999971,None,,,,,,,,,,,,,,00054,001,2026-01-18_18h01.08.629,MST_task,2024.2.0,59.99469647733782,2026-01-18 18h01.57.140573 +0530,
,Objects\123a.jpg,38,0,39,,,,,,,j,1.6450674000079744,0.12015849997987971,None,,,,,,39,0,38,261.75787289999425,,,,,,,,,,,,,,,,,,,,,,,,,,,,,,261.74211490002926,261.75787289999425,262.25824649998685,262.24143960000947,,,,,,,,,,,,,,,,,,,,,,,,,,262.24392630002694,262.25824649998685,262.25824649998685,262.25824649998685,265.2579332999885,265.2579332999885,265.2579332999885,265.24174440000206,j,1.6450674000079744,0.12015849997987971,265.241791700013,265.2418026999803,None,,,,,,,,,,,,,,00054,001,2026-01-18_18h01.08.629,MST_task,2024.2.0,59.99469647733782,2026-01-18 18h01.57.140573 +0530,
,Objects\080a.jpg,39,0,40,,,,,,,f,0.8495741999940947,0.11998570000287145,None,,,,,,40,0,39,265.2579332999885,,,,,,,,,,,,,,,,,,,,,,,,,,,,,,265.241868800018,265.2579332999885,265.75813500001095,265.7415044999798,,,,,,,,,,,,,,,,,,,,,,,,,,265.744047300017,265.75813500001095,265.75813500001095,265.75813500001095,268.75798080000095,268.75798080000095,268.75798080000095,268.74175370001467,f,0.8495741999940947,0.11998570000287145,268.7417947999784,268.74180499999784,None,,,,,,,,,,,,,,00054,001,2026-01-18_18h01.08.629,MST_task,2024.2.0,59.99469647733782,2026-01-18 18h01.57.140573 +0530,
,Objects\136a.jpg,40,0,41,,,,,,,f,2.84536360000493,0.12000969995278865,None,,,,,,41,0,40,268.75798080000095,,,,,,,,,,,,,,,,,,,,,,,,,,,,,,268.74186860001646,268.75798080000095,269.2581299000303,269.24155380000593,,,,,,,,,,,,,,,,,,,,,,,,,,269.2441636000294,269.2581299000303,269.2581299000303,269.2581299000303,272.2579770000302,272.2579770000302,272.2579770000302,272.24176260002423,f,2.84536360000493,0.12000969995278865,272.241808700026,272.2418197999941,None,,,,,,,,,,,,,,00054,001,2026-01-18_18h01.08.629,MST_task,2024.2.0,59.99469647733782,2026-01-18 18h01.57.140573 +0530,
,Objects\160a.jpg,41,0,42,,,,,,,f,0.816884099971503,0.13593310001306236,None,,,,,,42,0,41,272.2579770000302,,,,,,,,,,,,,,,,,,,,,,,,,,,,,,272.24191490001976,272.2579770000302,272.75807859998895,272.74167230003513,,,,,,,,,,,,,,,,,,,,,,,,,,272.7443469000282,272.75807859998895,272.75807859998895,272.75807859998895,275.7578805999947,275.7578805999947,275.7578805999947,275.7417815999943,f,0.816884099971503,0.13593310001306236,275.74182260001544,275.74183339998126,None,,,,,,,,,,,,,,00054,001,2026-01-18_18h01.08.629,MST_task,2024.2.0,59.99469647733782,2026-01-18 18h01.57.140573 +0530,
,Scenes\004a.jpg,42,0,43,,,,,,,j,1.0525408999528736,0.14398410002468154,None,,,,,,43,0,42,275.7578805999947,,,,,,,,,,,,,,,,,,,,,,,,,,,,,,275.741898200009,275.7578805999947,276.25845840002876,276.2414893999812,,,,,,,,,,,,,,,,,,,,,,,,,,276.25390090001747,276.25845840002876,276.25845840002876,276.25845840002876,279.2579995000269,279.2579995000269,279.2579995000269,279.2419651999953,j,1.0525408999528736,0.14398410002468154,279.2435370000312,279.2435555999982,None,,,,,,,,,,,,,,00054,001,2026-01-18_18h01.08.629,MST_task,2024.2.0,59.99469647733782,2026-01-18 18h01.57.140573 +0530,
,Scenes\061a.jpg,43,0,44,,,,,,,f,1.3283540999982506,0.1520232000038959,None,,,,,,44,0,43,279.2579995000269,,,,,,,,,,,,,,,,,,,,,,,,,,,,,,279.2436609999859,279.2579995000269,279.75860950001515,279.7414863000158,,,,,,,,,,,,,,,,,,,,,,,,,,279.7472567000077,279.75860950001515,279.75860950001515,279.75860950001515,282.7579199000029,282.7579199000029,282.7579199000029,282.74172430002363,f,1.3283540999982506,0.1520232000038959,282.74176559998887,282.7417764000129,None,,,,,,,,,,,,,,00054,001,2026-01-18_18h01.08.629,MST_task,2024.2.0,59.99469647733782,2026-01-18 18h01.57.140573 +0530,
,Scenes\105a.jpg,44,0,45,,,,,,,j,1.0289577000075951,0.11991289997240528,None,,,,,,45,0,44,282.7579199000029,,,,,,,,,,,,,,,,,,,,,,,,,,,,,,282.7418731999933,282.7579199000029,283.2584313999978,283.24151940003503,,,,,,,,,,,,,,,,,,,,,,,,,,283.25146350002615,283.2584313999978,283.2584313999978,283.2584313999978,286.25787760003004,286.25787760003004,286.25787760003004,286.24197129998356,j,1.0289577000075951,0.11991289997240528,286.2420155000291,286.24202639999567,None,,,,,,,,,,,,,,00054,001,2026-01-18_18h01.08.629,MST_task,2024.2.0,59.99469647733782,2026-01-18 18h01.57.140573 +0530,
,Scenes\025a.jpg,45,0,46,,,,,,,j,1.7850402999902144,0.1602951000095345,None,,,,,,46,0,45,286.25787760003004,,,,,,,,,,,,,,,,,,,,,,,,,,,,,,286.24212760000955,286.25787760003004,286.7586069999961,286.74140450003324,,,,,,,,,,,,,,,,,,,,,,,,,,286.7526688000071,286.7586069999961,286.7586069999961,286.7586069999961,289.7579100999865,289.7579100999865,289.7579100999865,289.74180840002373,j,1.7850402999902144,0.1602951000095345,289.74184969998896,289.74186010000994,None,,,,,,,,,,,,,,00054,001,2026-01-18_18h01.08.629,MST_task,2024.2.0,59.99469647733782,2026-01-18 18h01.57.140573 +0530,
,Scenes\043a.jpg,46,0,47,,,,,,,j,2.6842854999704286,0.14471170003525913,None,,,,,,47,0,46,289.7579100999865,,,,,,,,,,,,,,,,,,,,,,,,,,,,,,289.7419247000362,289.7579100999865,290.25854379998054,290.24145720002707,,,,,,,,,,,,,,,,,,,,,,,,,,290.25250559998676,290.25854379998054,290.25854379998054,290.25854379998054,293.2579254999873,293.2579254999873,293.2579254999873,293.24179330002517,j,2.6842854999704286,0.14471170003525913,293.2418364000041,293.24184740002966,None,,,,,,,,,,,,,,00054,001,2026-01-18_18h01.08.629,MST_task,2024.2.0,59.99469647733782,2026-01-18 18h01.57.140573 +0530,
,Scenes\070a.jpg,47,0,48,,,,,,,f,1.4010943000321276,0.14508299995213747,None,,,,,,48,0,47,293.2579254999873,,,,,,,,,,,,,,,,,,,,,,,,,,,,,,293.2419445000123,293.2579254999873,293.75808509998024,293.74159619997954,,,,,,,,,,,,,,,,,,,,,,,,,,293.7505021999823,293.75808509998024,293.75808509998024,293.75808509998024,296.75794460001634,296.75794460001634,296.75794460001634,296.7417978000012,f,1.4010943000321276,0.14508299995213747,296.7418407999794,296.74185230000876,None,,,,,,,,,,,,,,00054,001,2026-01-18_18h01.08.629,MST_task,2024.2.0,59.99469647733782,2026-01-18 18h01.57.140573 +0530,
,Scenes\126a.jpg,48,0,49,,,,,,,j,2.2204016000032425,0.1359896999783814,None,,,,,,49,0,48,296.75794460001634,,,,,,,,,,,,,,,,,,,,,,,,,,,,,,296.7419484999846,296.75794460001634,297.25848770001903,297.24184279999463,,,,,,,,,,,,,,,,,,,,,,,,,,297.2491197999916,297.25848770001903,297.25848770001903,297.25848770001903,300.2579568999936,300.2579568999936,300.2579568999936,300.2418238000246,j,2.2204016000032425,0.1359896999783814,300.24186469998676,300.241875000007,None,,,,,,,,,,,,,,00054,001,2026-01-18_18h01.08.629,MST_task,2024.2.0,59.99469647733782,2026-01-18 18h01.57.140573 +0530,
,Objects\099a.jpg,49,0,50,,,,,,,f,1.5702172000310384,0.15905149996979162,None,,,,,,50,0,49,300.2579568999936,,,,,,,,,,,,,,,,,,,,,,,,,,,,,,300.2419699000311,300.2579568999936,300.75823560002027,300.7414092000108,,,,,,,,,,,,,,,,,,,,,,,,,,300.7467105999822,300.75823560002027,300.75823560002027,300.75823560002027,303.75793399999384,303.75793399999384,303.75793399999384,303.7417935000267,f,1.5702172000310384,0.15905149996979162,303.7438410000177,303.7438587999786,None,,,,,,,,,,,,,,00054,001,2026-01-18_18h01.08.629,MST_task,2024.2.0,59.99469647733782,2026-01-18 18h01.57.140573 +0530,
,Objects\132a.jpg,50,0,51,,,,,,,f,1.4935816999641247,0.16784670000197366,None,,,,,,51,0,50,303.75793399999384,,,,,,,,,,,,,,,,,,,,,,,,,,,,,,303.74392889998853,303.75793399999384,304.2581440000213,304.2415137999924,,,,,,,,,,,,,,,,,,,,,,,,,,304.2446382000344,304.2581440000213,304.2581440000213,304.2581440000213,307.25792730000103,307.25792730000103,307.25792730000103,307.2416738999891,f,1.4935816999641247,0.16784670000197366,307.24171730002854,307.2417282999959,None,,,,,,,,,,,,,,00054,001,2026-01-18_18h01.08.629,MST_task,2024.2.0,59.99469647733782,2026-01-18 18h01.57.140573 +0530,
,Objects\116a.jpg,51,0,52,,,,,,,f,1.8331263999571092,0.13700030004838482,None,,,,,,52,0,51,307.25792730000103,,,,,,,,,,,,,,,,,,,,,,,,,,,,,,307.2418235000223,307.25792730000103,307.7581372000277,307.74148830003105,,,,,,,,,,,,,,,,,,,,,,,,,,307.74401219998254,307.7581372000277,307.7581372000277,307.7581372000277,310.7579034999944,310.7579034999944,310.7579034999944,310.7416770000127,f,1.8331263999571092,0.13700030004838482,310.74171849997947,310.74172890000045,None,,,,,,,,,,,,,,00054,001,2026-01-18_18h01.08.629,MST_task,2024.2.0,59.99469647733782,2026-01-18 18h01.57.140573 +0530,
,Objects\133a.jpg,52,0,53,,,,,,,j,1.8127585999900475,0.16172080003889278,None,,,,,,53,0,52,310.7579034999944,,,,,,,,,,,,,,,,,,,,,,,,,,,,,,310.74182490003295,310.7579034999944,311.2581426000106,311.2414563000202,,,,,,,,,,,,,,,,,,,,,,,,,,311.24420519999694,311.2581426000106,311.2581426000106,311.2581426000106,314.2578579999972,314.2578579999972,314.2578579999972,314.242023000028,j,1.8127585999900475,0.16172080003889278,314.24207480001496,314.24208699999144,None,,,,,,,,,,,,,,00054,001,2026-01-18_18h01.08.629,MST_task,2024.2.0,59.99469647733782,2026-01-18 18h01.57.140573 +0530,
,Objects\003a.jpg,53,0,54,,,,,,,j,1.056732999975793,0.15200150001328439,None,,,,,,54,0,53,314.2578579999972,,,,,,,,,,,,,,,,,,,,,,,,,,,,,,314.24216120003257,314.2578579999972,314.75816420000046,314.7414789000177,,,,,,,,,,,,,,,,,,,,,,,,,,314.7443153000204,314.75816420000046,314.75816420000046,314.75816420000046,317.7578969000024,317.7578969000024,317.7578969000024,317.74202280002646,j,1.056732999975793,0.15200150001328439,317.74207269999897,317.74208410002757,None,,,,,,,,,,,,,,00054,001,2026-01-18_18h01.08.629,MST_task,2024.2.0,59.99469647733782,2026-01-18 18h01.57.140573 +0530,
,Objects\152a.jpg,54,0,55,,,,,,,None,,,f,0.20516099996166304,None,,,,55,0,54,317.7578969000024,,,,,,,,,,,,,,,,,,,,,,,,,,,,,,317.74215419997927,317.7578969000024,318.2580513000139,318.24141329998383,,,,,,,,,,,,,,,,,,,,,,,,,,318.24405999999726,318.2580513000139,318.2580513000139,318.2580513000139,321.2578267999925,321.2578267999925,321.2578267999925,321.2416055999929,None,,,321.24164480000036,321.4747388000251,f,321.2578267999925,321.2578267999925,0.20516099996166304,None,,,,,,,,,,00054,001,2026-01-18_18h01.08.629,MST_task,2024.2.0,59.99469647733782,2026-01-18 18h01.57.140573 +0530,
,Objects\023a.jpg,55,0,56,,,,,,,f,0.8002080000005662,0.15227959997719154,None,,,,,,56,0,55,321.4910726000089,,,,,,,,,,,,,,,,,,,,,,,,,,,,,,321.47485480003525,321.4910726000089,321.99127980001504,321.9747543000267,,,,,,,,,,,,,,,,,,,,,,,,,,321.97753670002567,321.99127980001504,321.99127980001504,321.99127980001504,324.9910982000292,324.9910982000292,324.9910982000292,324.9750454000314,f,0.8002080000005662,0.15227959997719154,324.97509070002707,324.9751019999967,None,,,,,,,,,,,,,,00054,001,2026-01-18_18h01.08.629,MST_task,2024.2.0,59.99469647733782,2026-01-18 18h01.57.140573 +0530,
,Scenes\136a.jpg,56,0,57,,,,,,,None,,,j,2.292449700005818,None,,,,57,0,56,324.9910982000292,,,,,,,,,,,,,,,,,,,,,,,,,,,,,,324.975179400004,324.9910982000292,325.49166940001305,325.47457409999333,,,,,,,,,,,,,,,,,,,,,,,,,,325.4833897000062,325.49166940001305,325.49166940001305,325.49166940001305,328.4911453999812,328.4911453999812,328.4911453999812,328.4749533000286,None,,,328.47653129999526,330.7915628000046,j,328.4911453999812,328.4911453999812,2.292449700005818,None,,,,,,,,,,00054,001,2026-01-18_18h01.08.629,MST_task,2024.2.0,59.99469647733782,2026-01-18 18h01.57.140573 +0530,
,Scenes\160a.jpg,57,0,58,,,,,,,j,0.7708560999599285,0.16014440002618358,None,,,,,,58,0,57,330.80774010001915,,,,,,,,,,,,,,,,,,,,,,,,,,,,,,330.7916862000129,330.80774010001915,331.3084276000154,331.2913765999838,,,,,,,,,,,,,,,,,,,,,,,,,,331.29834049998317,331.3084276000154,331.3084276000154,331.3084276000154,334.30800530000124,334.30800530000124,334.30800530000124,334.2919428999885,j,0.7708560999599285,0.16014440002618358,334.29199300002074,334.2920051999972,None,,,,,,,,,,,,,,00054,001,2026-01-18_18h01.08.629,MST_task,2024.2.0,59.99469647733782,2026-01-18 18h01.57.140573 +0530,
,Scenes\118a.jpg,58,0,59,,,,,,,j,1.1674134999630041,0.14408300002105534,None,,,,,,59,0,58,334.30800530000124,,,,,,,,,,,,,,,,,,,,,,,,,,,,,,334.2921267999918,334.30800530000124,334.80825180001557,334.7914923999924,,,,,,,,,,,,,,,,,,,,,,,,,,334.79653619998135,334.80825180001557,334.80825180001557,334.80825180001557,337.8077563000261,337.8077563000261,337.8077563000261,337.79170220001834,j,1.1674134999630041,0.14408300002105534,337.79174329998204,337.7917538000038,None,,,,,,,,,,,,,,00054,001,2026-01-18_18h01.08.629,MST_task,2024.2.0,59.99469647733782,2026-01-18 18h01.57.140573 +0530,
,Scenes\084a.jpg,59,0,60,,,,,,,j,0.9792965999804437,0.13550299999769777,None,,,,,,60,0,59,337.8077563000261,,,,,,,,,,,,,,,,,,,,,,,,,,,,,,337.79184960003477,337.8077563000261,338.30838970001787,338.2915615999955,,,,,,,,,,,,,,,,,,,,,,,,,,338.30184580001514,338.30838970001787,338.30838970001787,338.30838970001787,341.3078605000046,341.3078605000046,341.3078605000046,341.2918145000003,j,0.9792965999804437,0.13550299999769777,341.2918585999869,341.291870200017,None,,,,,,,,,,,,,,00054,001,2026-01-18_18h01.08.629,MST_task,2024.2.0,59.99469647733782,2026-01-18 18h01.57.140573 +0530,
,Scenes\183a.jpg,60,0,61,,,,,,,f,0.8793247000430711,0.16796930000418797,None,,,,,,61,0,60,341.3078605000046,,,,,,,,,,,,,,,,,,,,,,,,,,,,,,341.29196970001794,341.3078605000046,341.8083316999837,341.79146330000367,,,,,,,,,,,,,,,,,,,,,,,,,,341.80066569999326,341.8083316999837,341.8083316999837,341.8083316999837,344.8077601999976,344.8077601999976,344.8077601999976,344.7925544999889,f,0.8793247000430711,0.16796930000418797,344.79259760002606,344.7926189000136,None,,,,,,,,,,,,,,00054,001,2026-01-18_18h01.08.629,MST_task,2024.2.0,59.99469647733782,2026-01-18 18h01.57.140573 +0530,
,Scenes\147a.jpg,61,0,62,,,,,,,j,1.3552090000011958,0.14373800001339987,None,,,,,,62,0,61,344.8077601999976,,,,,,,,,,,,,,,,,,,,,,,,,,,,,,344.79271770000923,344.8077601999976,345.3083601000253,345.2913887000177,,,,,,,,,,,,,,,,,,,,,,,,,,345.2970793999848,345.3083601000253,345.3083601000253,345.3083601000253,348.3078188999789,348.3078188999789,348.3078188999789,348.2916070999927,j,1.3552090000011958,0.14373800001339987,348.2916485000169,348.291659599985,None,,,,,,,,,,,,,,00054,001,2026-01-18_18h01.08.629,MST_task,2024.2.0,59.99469647733782,2026-01-18 18h01.57.140573 +0530,
,Scenes\169a.jpg,62,0,63,,,,,,,j,0.6469256999553181,0.1360010000062175,None,,,,,,63,0,62,348.3078188999789,,,,,,,,,,,,,,,,,,,,,,,,,,,,,,348.2917589999852,348.3078188999789,348.8080686000176,348.7914042000193,,,,,,,,,,,,,,,,,,,,,,,,,,348.7972602000227,348.8080686000176,348.8080686000176,348.8080686000176,351.8077831999981,351.8077831999981,351.8077831999981,351.79172179999296,j,0.6469256999553181,0.1360010000062175,351.7917663999833,351.7917770000058,None,,,,,,,,,,,,,,00054,001,2026-01-18_18h01.08.629,MST_task,2024.2.0,59.99469647733782,2026-01-18 18h01.57.140573 +0530,
,Objects\137a.jpg,63,0,64,,,,,,,j,2.826748099992983,None,None,,,,,,64,0,63,351.8077831999981,,,,,,,,,,,,,,,,,,,,,,,,,,,,,,351.7918422999792,351.8077831999981,352.30828440003097,352.29143330000807,,,,,,,,,,,,,,,,,,,,,,,,,,352.29682600003434,352.30828440003097,352.30828440003097,352.30828440003097,355.3078346999828,355.3078346999828,355.3078346999828,355.29171399999177,j,2.826748099992983,None,355.2938032000093,355.29382239998085,None,,,,,,,,,,,,,,00054,001,2026-01-18_18h01.08.629,MST_task,2024.2.0,59.99469647733782,2026-01-18 18h01.57.140573 +0530,
,Objects\134a.jpg,64,0,65,,,,,,,j,1.2636243000160903,0.14397949998965487,None,,,,,,65,0,64,355.3078346999828,,,,,,,,,,,,,,,,,,,,,,,,,,,,,,355.29389149998315,355.3078346999828,355.8080941999797,355.79140719998395,,,,,,,,,,,,,,,,,,,,,,,,,,355.7940098000108,355.8080941999797,355.8080941999797,355.8080941999797,358.80797480000183,358.80797480000183,358.80797480000183,358.7919395000208,j,1.2636243000160903,0.14397949998965487,358.79198909999104,358.79199990001507,None,,,,,,,,,,,,,,00054,001,2026-01-18_18h01.08.629,MST_task,2024.2.0,59.99469647733782,2026-01-18 18h01.57.140573 +0530,
,Objects\037a.jpg,65,0,66,,,,,,,f,0.8510445999563672,0.14396700001088902,None,,,,,,66,0,65,358.80797480000183,,,,,,,,,,,,,,,,,,,,,,,,,,,,,,358.7921134000062,358.80797480000183,359.30806349997874,359.2913914999808,,,,,,,,,,,,,,,,,,,,,,,,,,359.29422209999757,359.30806349997874,359.30806349997874,359.30806349997874,362.30781139998,362.30781139998,362.30781139998,362.29169959999854,f,0.8510445999563672,0.14396700001088902,362.29174429998966,362.29175570001826,None,,,,,,,,,,,,,,00054,001,2026-01-18_18h01.08.629,MST_task,2024.2.0,59.99469647733782,2026-01-18 18h01.57.140573 +0530,
,Objects\054a.jpg,66,0,67,,,,,,,j,1.1199599000392482,0.1275245999568142,None,,,,,,67,0,66,362.30781139998,,,,,,,,,,,,,,,,,,,,,,,,,,,,,,362.29185330000473,362.30781139998,362.80802960001165,362.7913346000132,,,,,,,,,,,,,,,,,,,,,,,,,,362.7941429000348,362.80802960001165,362.80802960001165,362.80802960001165,365.80775330000324,365.80775330000324,365.80775330000324,365.791726400028,j,1.1199599000392482,0.1275245999568142,365.7917666999856,365.7917773000081,None,,,,,,,,,,,,,,00054,001,2026-01-18_18h01.08.629,MST_task,2024.2.0,59.99469647733782,2026-01-18 18h01.57.140573 +0530,
,Objects\106a.jpg,67,0,68,,,,,,,f,2.187232900003437,0.14476240001386032,None,,,,,,68,0,67,365.80775330000324,,,,,,,,,,,,,,,,,,,,,,,,,,,,,,365.7918732999824,365.80775330000324,366.3080891999998,366.29149780003354,,,,,,,,,,,,,,,,,,,,,,,,,,366.29404110001633,366.3080891999998,366.3080891999998,366.3080891999998,369.30781690002186,369.30781690002186,369.30781690002186,369.29171670001233,f,2.187232900003437,0.14476240001386032,369.2917571000289,369.2917674999917,None,,,,,,,,,,,,,,00054,001,2026-01-18_18h01.08.629,MST_task,2024.2.0,59.99469647733782,2026-01-18 18h01.57.140573 +0530,
,Objects\129a.jpg,68,0,69,,,,,,,f,1.1196798000019044,0.16805549996206537,None,,,,,,69,0,68,369.30781690002186,,,,,,,,,,,,,,,,,,,,,,,,,,,,,,369.2918652999797,369.30781690002186,369.80799489998026,369.7913236999884,,,,,,,,,,,,,,,,,,,,,,,,,,369.79388060001656,369.80799489998026,369.80799489998026,369.80799489998026,372.80781329999445,372.80781329999445,372.80781329999445,372.7915946000139,f,1.1196798000019044,0.16805549996206537,372.7916365999845,372.79164760001004,None,,,,,,,,,,,,,,00054,001,2026-01-18_18h01.08.629,MST_task,2024.2.0,59.99469647733782,2026-01-18 18h01.57.140573 +0530,
,Objects\058a.jpg,69,0,70,,,,,,,f,2.5870890999794938,0.1443718000082299,None,,,,,,70,0,69,372.80781329999445,,,,,,,,,,,,,,,,,,,,,,,,,,,,,,372.79175079998095,372.80781329999445,373.3080640999833,373.29135389998555,,,,,,,,,,,,,,,,,,,,,,,,,,373.29405870003393,373.3080640999833,373.3080640999833,373.3080640999833,376.3078567000339,376.3078567000339,376.3078567000339,376.29168840002967,f,2.5870890999794938,0.1443718000082299,376.29173789999913,376.2917489000247,None,,,,,,,,,,,,,,00054,001,2026-01-18_18h01.08.629,MST_task,2024.2.0,59.99469647733782,2026-01-18 18h01.57.140573 +0530,
,Scenes\055a.jpg,70,0,71,,,,,,,j,1.4154346999712288,0.13642320001963526,None,,,,,,71,0,70,376.3078567000339,,,,,,,,,,,,,,,,,,,,,,,,,,,,,,376.29181419999804,376.3078567000339,376.80825729999924,376.791401399998,,,,,,,,,,,,,,,,,,,,,,,,,,376.80168069998035,376.80825729999924,376.80825729999924,376.80825729999924,379.80788650002796,379.80788650002796,379.80788650002796,379.79183230001945,j,1.4154346999712288,0.13642320001963526,379.79347879998386,379.7934954999946,None,,,,,,,,,,,,,,00054,001,2026-01-18_18h01.08.629,MST_task,2024.2.0,59.99469647733782,2026-01-18 18h01.57.140573 +0530,
,Scenes\171a.jpg,71,0,72,,,,,,,f,0.9630344000179321,0.15999969997210428,None,,,,,,72,0,71,379.80788650002796,,,,,,,,,,,,,,,,,,,,,,,,,,,,,,379.7935637999908,379.80788650002796,380.30850280000595,380.2915546000004,,,,,,,,,,,,,,,,,,,,,,,,,,380.30305009998847,380.30850280000595,380.30850280000595,380.30850280000595,383.30783300002804,383.30783300002804,383.30783300002804,383.2918073000037,f,0.9630344000179321,0.15999969997210428,383.291851499991,383.29186230001505,None,,,,,,,,,,,,,,00054,001,2026-01-18_18h01.08.629,MST_task,2024.2.0,59.99469647733782,2026-01-18 18h01.57.140573 +0530,
,Scenes\175a.jpg,72,0,73,,,,,,,j,1.1828956999816,0.15207390004070476,None,,,,,,73,0,72,383.30783300002804,,,,,,,,,,,,,,,,,,,,,,,,,,,,,,383.2919691000134,383.30783300002804,383.8085348000168,383.791589200031,,,,,,,,,,,,,,,,,,,,,,,,,,383.7970621000277,383.8085348000168,383.8085348000168,383.8085348000168,386.8079684000113,386.8079684000113,386.8079684000113,386.79164240002865,j,1.1828956999816,0.15207390004070476,386.7916830999893,386.7916938000126,None,,,,,,,,,,,,,,00054,001,2026-01-18_18h01.08.629,MST_task,2024.2.0,59.99469647733782,2026-01-18 18h01.57.140573 +0530,
,Scenes\059a.jpg,73,0,74,,,,,,,j,1.0104947999934666,0.1517558000050485,None,,,,,,74,0,73,386.8079684000113,,,,,,,,,,,,,,,,,,,,,,,,,,,,,,386.7917596999905,386.8079684000113,387.30870150000555,387.2914773999946,,,,,,,,,,,,,,,,,,,,,,,,,,387.3015974999871,387.30870150000555,387.30870150000555,387.30870150000555,390.30794369999785,390.30794369999785,390.30794369999785,390.2919360999949,j,1.0104947999934666,0.1517558000050485,390.2919760000077,390.2919866000302,None,,,,,,,,,,,,,,00054,001,2026-01-18_18h01.08.629,MST_task,2024.2.0,59.99469647733782,2026-01-18 18h01.57.140573 +0530,
,Scenes\104a.jpg,74,0,75,,,,,,,j,1.3504694000002928,0.15997899998910725,None,,,,,,75,0,74,390.30794369999785,,,,,,,,,,,,,,,,,,,,,,,,,,,,,,390.2920832000091,390.30794369999785,390.8084702999913,390.79136430000653,,,,,,,,,,,,,,,,,,,,,,,,,,390.8006819000002,390.8084702999913,390.8084702999913,390.8084702999913,393.8078797000344,393.8078797000344,393.8078797000344,393.7918747999938,j,1.3504694000002928,0.15997899998910725,393.79191820003325,393.79192879999755,None,,,,,,,,,,,,,,00054,001,2026-01-18_18h01.08.629,MST_task,2024.2.0,59.99469647733782,2026-01-18 18h01.57.140573 +0530,
,Scenes\012a.jpg,75,0,76,,,,,,,j,1.386950500018429,0.15289989998564124,None,,,,,,76,0,75,393.8078797000344,,,,,,,,,,,,,,,,,,,,,,,,,,,,,,393.79199320002226,393.8078797000344,394.3084845999838,394.2915944000124,,,,,,,,,,,,,,,,,,,,,,,,,,394.3015111000277,394.3084845999838,394.3084845999838,394.3084845999838,397.30786920001265,397.30786920001265,397.30786920001265,397.29180589999305,j,1.386950500018429,0.15289989998564124,397.29184840002563,397.29185889998917,None,,,,,,,,,,,,,,00054,001,2026-01-18_18h01.08.629,MST_task,2024.2.0,59.99469647733782,2026-01-18 18h01.57.140573 +0530,
,Scenes\058a.jpg,76,0,77,,,,,,,f,1.0224704999709502,0.1439762000227347,None,,,,,,77,0,76,397.30786920001265,,,,,,,,,,,,,,,,,,,,,,,,,,,,,,397.29195420001633,397.30786920001265,397.8084109000047,397.7914094000007,,,,,,,,,,,,,,,,,,,,,,,,,,397.8001111000194,397.8084109000047,397.8084109000047,397.8084109000047,400.8079560000333,400.8079560000333,400.8079560000333,400.7917466000072,f,1.0224704999709502,0.1439762000227347,400.7917880000314,400.79179869999643,None,,,,,,,,,,,,,,00054,001,2026-01-18_18h01.08.629,MST_task,2024.2.0,59.99469647733782,2026-01-18 18h01.57.140573 +0530,
,Objects\030a.jpg,77,0,78,,,,,,,f,1.2753872000030242,0.11932410002918914,None,,,,,,78,0,77,400.8079560000333,,,,,,,,,,,,,,,,,,,,,,,,,,,,,,400.79189540003426,400.8079560000333,401.308380500006,401.2914795000106,,,,,,,,,,,,,,,,,,,,,,,,,,401.2971901000128,401.308380500006,401.308380500006,401.308380500006,404.3080972000025,404.3080972000025,404.3080972000025,404.29171870002756,f,1.2753872000030242,0.11932410002918914,404.29380019998644,404.2938208000269,None,,,,,,,,,,,,,,00054,001,2026-01-18_18h01.08.629,MST_task,2024.2.0,59.99469647733782,2026-01-18 18h01.57.140573 +0530,
,Objects\052a.jpg,78,0,79,,,,,,,f,0.687126700009685,0.10401119996095076,None,,,,,,79,0,78,404.3080972000025,,,,,,,,,,,,,,,,,,,,,,,,,,,,,,404.29392379999626,404.3080972000025,404.80825960001675,404.7915501000243,,,,,,,,,,,,,,,,,,,,,,,,,,404.7939977000351,404.80825960001675,404.80825960001675,404.80825960001675,407.8077940000221,407.8077940000221,407.8077940000221,407.79173270001775,f,0.687126700009685,0.10401119996095076,407.7917741999845,407.7917846000055,None,,,,,,,,,,,,,,00054,001,2026-01-18_18h01.08.629,MST_task,2024.2.0,59.99469647733782,2026-01-18 18h01.57.140573 +0530,
,Objects\142a.jpg,79,0,80,,,,,,,f,1.4518777999910526,0.09550500003388152,None,,,,,,80,0,79,407.8077940000221,,,,,,,,,,,,,,,,,,,,,,,,,,,,,,407.79184890002944,407.8077940000221,408.3080062000081,408.2913990999805,,,,,,,,,,,,,,,,,,,,,,,,,,408.29419390001567,408.3080062000081,408.3080062000081,408.3080062000081,411.30784750002204,411.30784750002204,411.30784750002204,411.29165710002417,f,1.4518777999910526,0.09550500003388152,411.29169980000006,411.2917109000264,None,,,,,,,,,,,,,,00054,001,2026-01-18_18h01.08.629,MST_task,2024.2.0,59.99469647733782,2026-01-18 18h01.57.140573 +0530,
,Objects\170a.jpg,80,0,81,,,,,,,f,1.926869800023269,0.1120426999987103,None,,,,,,81,0,80,411.30784750002204,,,,,,,,,,,,,,,,,,,,,,,,,,,,,,411.29180619999534,411.30784750002204,411.808059700008,411.791841200029,,,,,,,,,,,,,,,,,,,,,,,,,,411.79430880001746,411.808059700008,411.808059700008,411.808059700008,414.80782029998954,414.80782029998954,414.80782029998954,414.79178289999254,f,1.926869800023269,0.1120426999987103,414.7918284999905,414.7918402000214,None,,,,,,,,,,,,,,00054,001,2026-01-18_18h01.08.629,MST_task,2024.2.0,59.99469647733782,2026-01-18 18h01.57.140573 +0530,
,Objects\130a.jpg,81,0,82,,,,,,,j,1.059435900009703,0.16102359996875748,None,,,,,,82,0,81,414.80782029998954,,,,,,,,,,,,,,,,,,,,,,,,,,,,,,414.79190579999704,414.80782029998954,415.3081937999814,415.29141569999047,,,,,,,,,,,,,,,,,,,,,,,,,,415.294175499992,415.3081937999814,415.3081937999814,415.3081937999814,418.3077941000229,418.3077941000229,418.3077941000229,418.2917280999827,j,1.059435900009703,0.16102359996875748,418.2917688000016,418.2917794000241,None,,,,,,,,,,,,,,00054,001,2026-01-18_18h01.08.629,MST_task,2024.2.0,59.99469647733782,2026-01-18 18h01.57.140573 +0530,
,Objects\042a.jpg,82,0,83,,,,,,,j,0.958969600033015,0.13682969997171313,None,,,,,,83,0,82,418.3077941000229,,,,,,,,,,,,,,,,,,,,,,,,,,,,,,418.2918434999883,418.3077941000229,418.8080102999811,418.7913336000056,,,,,,,,,,,,,,,,,,,,,,,,,,418.7940195000265,418.8080102999811,418.8080102999811,418.8080102999811,421.807913800003,421.807913800003,421.807913800003,421.79166390001774,j,0.958969600033015,0.13682969997171313,421.7917041000328,421.79171479999786,None,,,,,,,,,,,,,,00054,001,2026-01-18_18h01.08.629,MST_task,2024.2.0,59.99469647733782,2026-01-18 18h01.57.140573 +0530,
,Objects\067a.jpg,83,0,84,,,,,,,j,2.2989239000016823,0.15198860003147274,None,,,,,,84,0,83,421.807913800003,,,,,,,,,,,,,,,,,,,,,,,,,,,,,,421.7917801000294,421.807913800003,422.30817660002504,422.29142840002896,,,,,,,,,,,,,,,,,,,,,,,,,,422.2941370999906,422.30817660002504,422.30817660002504,422.30817660002504,425.3078549000202,425.3078549000202,425.3078549000202,425.2917599999928,j,2.2989239000016823,0.15198860003147274,425.2918016000185,425.29181189998053,None,,,,,,,,,,,,,,00054,001,2026-01-18_18h01.08.629,MST_task,2024.2.0,59.99469647733782,2026-01-18 18h01.57.140573 +0530,
,Scenes\119a.jpg,84,0,85,,,,,,,f,0.775590099976398,0.15205720002995804,None,,,,,,85,0,84,425.3078549000202,,,,,,,,,,,,,,,,,,,,,,,,,,,,,,425.291915800015,425.3078549000202,425.80847689998336,425.79135359998327,,,,,,,,,,,,,,,,,,,,,,,,,,425.80283330002567,425.80847689998336,425.80847689998336,425.80847689998336,428.80787850002525,428.80787850002525,428.80787850002525,428.79181880003307,f,0.775590099976398,0.15205720002995804,428.7934954999946,428.7935116000008,None,,,,,,,,,,,,,,00054,001,2026-01-18_18h01.08.629,MST_task,2024.2.0,59.99469647733782,2026-01-18 18h01.57.140573 +0530,
,Scenes\162a.jpg,85,0,86,,,,,,,j,1.6344893000205047,0.13705189997563139,None,,,,,,86,0,85,428.80787850002525,,,,,,,,,,,,,,,,,,,,,,,,,,,,,,428.7936109000002,428.80787850002525,429.3083714999957,429.29145870002685,,,,,,,,,,,,,,,,,,,,,,,,,,429.29757990001235,429.3083714999957,429.3083714999957,429.3083714999957,432.30783790000714,432.30783790000714,432.30783790000714,432.29181650001556,j,1.6344893000205047,0.13705189997563139,432.29186019999906,432.29187090002233,None,,,,,,,,,,,,,,00054,001,2026-01-18_18h01.08.629,MST_task,2024.2.0,59.99469647733782,2026-01-18 18h01.57.140573 +0530,
,Scenes\062a.jpg,86,0,87,,,,,,,j,1.3423977000056766,0.09671770001295954,None,,,,,,87,0,86,432.30783790000714,,,,,,,,,,,,,,,,,,,,,,,,,,,,,,432.2919760000077,432.30783790000714,,432.79211480001686,,,,,,,,,,,,,,,,,,,,,,,,,,432.80235369998263,432.8084889000165,432.8084889000165,432.8084889000165,435.80786330002593,435.80786330002593,435.80786330002593,435.7918105000281,j,1.3423977000056766,0.09671770001295954,435.79185300000245,435.791864000028,None,,,,,,,,,,,,,,00054,001,2026-01-18_18h01.08.629,MST_task,2024.2.0,59.99469647733782,2026-01-18 18h01.57.140573 +0530,
,Scenes\107a.jpg,87,0,88,,,,,,,j,1.9707760000019334,0.11196639999980107,None,,,,,,88,0,87,435.80786330002593,,,,,,,,,,,,,,,,,,,,,,,,,,,,,,435.79196870001033,435.80786330002593,436.308457600011,436.2914324000012,,,,,,,,,,,,,,,,,,,,,,,,,,436.2987422000151,436.308457600011,436.308457600011,436.308457600011,439.30784279998625,439.30784279998625,439.30784279998625,439.29164840001613,j,1.9707760000019334,0.11196639999980107,439.2916893999791,439.2917010000092,None,,,,,,,,,,,,,,00054,001,2026-01-18_18h01.08.629,MST_task,2024.2.0,59.99469647733782,2026-01-18 18h01.57.140573 +0530,
,Scenes\019a.jpg,88,0,89,,,,,,,None,,,j,None,None,,,,89,0,88,439.30784279998625,,,,,,,,,,,,,,,,,,,,,,,,,,,,,,439.2917674999917,439.30784279998625,439.80840159999207,439.79146849998506,,,,,,,,,,,,,,,,,,,,,,,,,,439.7997451000265,439.80840159999207,439.80840159999207,439.80840159999207,442.80778690002626,442.80778690002626,442.80778690002626,442.7917441999889,None,,,442.79178179998416,442.92475970002124,j,442.80778690002626,442.80778690002626,None,None,,,,,,,,,,00054,001,2026-01-18_18h01.08.629,MST_task,2024.2.0,59.99469647733782,2026-01-18 18h01.57.140573 +0530,
,Scenes\037a.jpg,89,0,90,,,,,,,j,1.1892411999870092,0.10398770001484081,None,,,,,,90,0,89,442.94117400003597,,,,,,,,,,,,,,,,,,,,,,,,,,,,,,442.9248380000354,442.94117400003597,443.4417097999831,443.424688900006,,,,,,,,,,,,,,,,,,,,,,,,,,443.42930369998794,443.4417097999831,443.4417097999831,443.4417097999831,446.44117190002,446.44117190002,446.44117190002,446.425155200006,j,1.1892411999870092,0.10398770001484081,446.4252027000184,446.42521419998957,None,,,,,,,,,,,,,,00054,001,2026-01-18_18h01.08.629,MST_task,2024.2.0,59.99469647733782,2026-01-18 18h01.57.140573 +0530,
,Scenes\086a.jpg,90,0,91,,,,,,,j,0.8260572999715805,0.1290273999911733,None,,,,,,91,0,90,446.44117190002,,,,,,,,,,,,,,,,,,,,,,,,,,,,,,446.4252826999873,446.44117190002,446.94176469999366,446.92461610003375,,,,,,,,,,,,,,,,,,,,,,,,,,446.93578499997966,446.94176469999366,446.94176469999366,446.94176469999366,449.94118520000484,449.94118520000484,449.94118520000484,449.92499379999936,j,0.8260572999715805,0.1290273999911733,449.92503500002204,449.92504659999395,None,,,,,,,,,,,,,,00054,001,2026-01-18_18h01.08.629,MST_task,2024.2.0,59.99469647733782,2026-01-18 18h01.57.140573 +0530,
,Objects\025a.jpg,91,0,92,,,,,,,j,2.0459295000182465,0.06339620001381263,None,,,,,,92,0,91,449.94118520000484,,,,,,,,,,,,,,,,,,,,,,,,,,,,,,449.92511130002094,449.94118520000484,450.44169360003434,450.4246918000281,,,,,,,,,,,,,,,,,,,,,,,,,,450.4301896999823,450.44169360003434,450.44169360003434,450.44169360003434,453.44118830002844,453.44118830002844,453.44118830002844,453.4248661000165,j,2.0459295000182465,0.06339620001381263,453.426888099988,453.42690610000864,None,,,,,,,,,,,,,,00054,001,2026-01-18_18h01.08.629,MST_task,2024.2.0,59.99469647733782,2026-01-18 18h01.57.140573 +0530,
,Objects\009a.jpg,92,0,93,,,,,,,j,2.2671320000081323,0.12668550002854317,None,,,,,,93,0,92,453.44118830002844,,,,,,,,,,,,,,,,,,,,,,,,,,,,,,453.42701470002066,453.44118830002844,453.9413580999826,453.9248396999901,,,,,,,,,,,,,,,,,,,,,,,,,,453.92749209998874,453.9413580999826,453.9413580999826,453.9413580999826,456.9412284999853,456.9412284999853,456.9412284999853,456.92508640000597,j,2.2671320000081323,0.12668550002854317,456.92512939998414,456.92514100001426,None,,,,,,,,,,,,,,00054,001,2026-01-18_18h01.08.629,MST_task,2024.2.0,59.99469647733782,2026-01-18 18h01.57.140573 +0530,
,Objects\159a.jpg,93,0,94,,,,,,,f,0.925807400024496,0.11275139998178929,None,,,,,,94,0,93,456.9412284999853,,,,,,,,,,,,,,,,,,,,,,,,,,,,,,456.92521060002036,456.9412284999853,457.44133210001746,457.4246251999866,,,,,,,,,,,,,,,,,,,,,,,,,,457.4272376000299,457.44133210001746,457.44133210001746,457.44133210001746,460.44121160003124,460.44121160003124,460.44121160003124,460.42497960000765,f,0.925807400024496,0.11275139998178929,460.42502199998125,460.42503260000376,None,,,,,,,,,,,,,,00054,001,2026-01-18_18h01.08.629,MST_task,2024.2.0,59.99469647733782,2026-01-18 18h01.57.140573 +0530,
,Objects\102a.jpg,94,0,95,,,,,,,f,2.6260305999894626,0.12760970002273098,None,,,,,,95,0,94,460.44121160003124,,,,,,,,,,,,,,,,,,,,,,,,,,,,,,460.4251442999812,460.44121160003124,460.9413741999888,460.924663999991,,,,,,,,,,,,,,,,,,,,,,,,,,460.92744090000633,460.9413741999888,460.9413741999888,460.9413741999888,463.9411882000277,463.9411882000277,463.9411882000277,463.9249084999901,f,2.6260305999894626,0.12760970002273098,463.9249478999991,463.92495840002084,None,,,,,,,,,,,,,,00054,001,2026-01-18_18h01.08.629,MST_task,2024.2.0,59.99469647733782,2026-01-18 18h01.57.140573 +0530,
,Objects\187a.jpg,95,0,96,,,,,,,f,0.8860319999512285,0.11999680002918467,None,,,,,,96,0,95,463.9411882000277,,,,,,,,,,,,,,,,,,,,,,,,,,,,,,463.92502460000105,463.9411882000277,464.4414029000327,464.4246485999902,,,,,,,,,,,,,,,,,,,,,,,,,,464.4272561999969,464.4414029000327,464.4414029000327,464.4414029000327,467.44118910003453,467.44118910003453,467.44118910003453,467.42494699999224,f,0.8860319999512285,0.11999680002918467,467.4249885000172,467.424999299983,None,,,,,,,,,,,,,,00054,001,2026-01-18_18h01.08.629,MST_task,2024.2.0,59.99469647733782,2026-01-18 18h01.57.140573 +0530,
,Objects\056a.jpg,96,0,97,,,,,,,f,0.70657520001987,0.12698169995564967,None,,,,,,97,0,96,467.44118910003453,,,,,,,,,,,,,,,,,,,,,,,,,,,,,,467.4250959000201,467.44118910003453,467.94136679999065,467.9246747000143,,,,,,,,,,,,,,,,,,,,,,,,,,467.9270702000358,467.94136679999065,467.94136679999065,467.94136679999065,470.94124489999376,470.94124489999376,470.94124489999376,470.92510280001443,f,0.70657520001987,0.12698169995564967,470.92514539998956,470.92515630001435,None,,,,,,,,,,,,,,00054,001,2026-01-18_18h01.08.629,MST_task,2024.2.0,59.99469647733782,2026-01-18 18h01.57.140573 +0530,
,Objects\135a.jpg,97,0,98,,,,,,,f,0.5895406000199728,0.10503819998120889,None,,,,,,98,0,97,470.94124489999376,,,,,,,,,,,,,,,,,,,,,,,,,,,,,,470.92522279999685,470.94124489999376,471.44151939998847,471.4250231999904,,,,,,,,,,,,,,,,,,,,,,,,,,471.4279383000103,471.44151939998847,471.44151939998847,471.44151939998847,474.4411866000155,474.4411866000155,474.4411866000155,474.42498840001645,f,0.5895406000199728,0.10503819998120889,474.42503049998777,474.4250410000095,None,,,,,,,,,,,,,,00054,001,2026-01-18_18h01.08.629,MST_task,2024.2.0,59.99469647733782,2026-01-18 18h01.57.140573 +0530,
,Scenes\085a.jpg,98,0,99,,,,,,,j,1.2092173999990337,0.11198870005318895,None,,,,,,99,0,98,474.4411866000155,,,,,,,,,,,,,,,,,,,,,,,,,,,,,,474.4251362000359,474.4411866000155,474.94177660002606,474.924699300027,,,,,,,,,,,,,,,,,,,,,,,,,,474.9372410000069,474.94177660002606,474.94177660002606,474.94177660002606,477.9411170000094,477.9411170000094,477.9411170000094,477.9251150999917,j,1.2092173999990337,0.11198870005318895,477.926777900022,477.92679509997834,None,,,,,,,,,,,,,,00054,001,2026-01-18_18h01.08.629,MST_task,2024.2.0,59.99469647733782,2026-01-18 18h01.57.140573 +0530,
,Scenes\075a.jpg,99,0,100,,,,,,,j,0.9496938000083901,0.10505839996039867,None,,,,,,100,0,99,477.9411170000094,,,,,,,,,,,,,,,,,,,,,,,,,,,,,,477.92689599998994,477.9411170000094,478.441799000022,478.4246249999851,,,,,,,,,,,,,,,,,,,,,,,,,,478.43109050003113,478.441799000022,478.441799000022,478.441799000022,481.44121259998064,481.44121259998064,481.44121259998064,481.42498529999284,j,0.9496938000083901,0.10505839996039867,481.42502690001857,481.42503799998667,None,,,,,,,,,,,,,,00054,001,2026-01-18_18h01.08.629,MST_task,2024.2.0,59.99469647733782,2026-01-18 18h01.57.140573 +0530,
,Scenes\010a.jpg,100,0,101,,,,,,,j,1.354218700027559,0.10310529998969287,None,,,,,,101,0,100,481.44121259998064,,,,,,,,,,,,,,,,,,,,,,,,,,,,,,481.4251350000268,481.44121259998064,481.94167909998214,481.92487639997853,,,,,,,,,,,,,,,,,,,,,,,,,,481.9348777999985,481.94167909998214,481.94167909998214,481.94167909998214,484.941198799992,484.941198799992,484.941198799992,484.92492469999706,j,1.354218700027559,0.10310529998969287,484.92496540001594,484.92497619998176,None,,,,,,,,,,,,,,00054,001,2026-01-18_18h01.08.629,MST_task,2024.2.0,59.99469647733782,2026-01-18 18h01.57.140573 +0530,
,Scenes\073a.jpg,101,0,102,,,,,,,j,0.9347445000312291,0.16695230000186712,None,,,,,,102,0,101,484.941198799992,,,,,,,,,,,,,,,,,,,,,,,,,,,,,,484.9250724000158,484.941198799992,485.4417117999983,485.42501940001966,,,,,,,,,,,,,,,,,,,,,,,,,,485.4321176999947,485.4417117999983,485.4417117999983,485.4417117999983,488.44118490000255,488.44118490000255,488.44118490000255,488.4249925999902,j,0.9347445000312291,0.16695230000186712,488.425042900024,488.4250546999974,None,,,,,,,,,,,,,,00054,001,2026-01-18_18h01.08.629,MST_task,2024.2.0,59.99469647733782,2026-01-18 18h01.57.140573 +0530,
,Scenes\127a.jpg,102,0,103,,,,,,,j,0.8814466999610886,0.14508480002405122,None,,,,,,103,0,102,488.44118490000255,,,,,,,,,,,,,,,,,,,,,,,,,,,,,,488.4251525999862,488.44118490000255,488.9417415999924,488.92469890002394,,,,,,,,,,,,,,,,,,,,,,,,,,488.932567699987,488.9417415999924,488.9417415999924,488.9417415999924,491.9413716000272,491.9413716000272,491.9413716000272,491.92536120000295,j,0.8814466999610886,0.14508480002405122,491.9254089000169,491.92542069999035,None,,,,,,,,,,,,,,00054,001,2026-01-18_18h01.08.629,MST_task,2024.2.0,59.99469647733782,2026-01-18 18h01.57.140573 +0530,
,Scenes\083a.jpg,103,0,104,,,,,,,j,1.7814018999924883,0.16801159997703508,None,,,,,,104,0,103,491.9413716000272,,,,,,,,,,,,,,,,,,,,,,,,,,,,,,491.9255383000127,491.9413716000272,492.4416758000152,492.42454829998314,,,,,,,,,,,,,,,,,,,,,,,,,,492.43220939999446,492.4416758000152,492.4416758000152,492.4416758000152,495.44119450001745,495.44119450001745,495.44119450001745,495.4249846999883,j,1.7814018999924883,0.16801159997703508,495.4250279000262,495.4250389999943,None,,,,,,,,,,,,,,00054,001,2026-01-18_18h01.08.629,MST_task,2024.2.0,59.99469647733782,2026-01-18 18h01.57.140573 +0530,
,Scenes\189a.jpg,104,0,105,,,,,,,j,1.162085699965246,0.1519801000249572,None,,,,,,105,0,104,495.44119450001745,,,,,,,,,,,,,,,,,,,,,,,,,,,,,,495.42514130001655,495.44119450001745,495.94152980000945,495.92475469998317,,,,,,,,,,,,,,,,,,,,,,,,,,495.93352379999124,495.94152980000945,495.94152980000945,495.94152980000945,498.941284600005,498.941284600005,498.941284600005,498.9250348000205,j,1.162085699965246,0.1519801000249572,498.925075999985,498.9250866000075,None,,,,,,,,,,,,,,00054,001,2026-01-18_18h01.08.629,MST_task,2024.2.0,59.99469647733782,2026-01-18 18h01.57.140573 +0530,
,Objects\144a.jpg,105,0,106,,,,,,,j,1.3743486999883316,0.12691669998457655,None,,,,,,106,0,105,498.941284600005,,,,,,,,,,,,,,,,,,,,,,,,,,,,,,498.92515110003296,498.941284600005,499.4418753000209,499.4249823000282,,,,,,,,,,,,,,,,,,,,,,,,,,499.4310235999874,499.4418753000209,499.4418753000209,499.4418753000209,502.44126120000146,502.44126120000146,502.44126120000146,502.42519430001266,j,1.3743486999883316,0.12691669998457655,502.4272884000093,502.4273070000345,None,,,,,,,,,,,,,,00054,001,2026-01-18_18h01.08.629,MST_task,2024.2.0,59.99469647733782,2026-01-18 18h01.57.140573 +0530,
,Objects\045a.jpg,106,0,107,,,,,,,j,1.9067063999827951,0.142888700007461,None,,,,,,107,0,106,502.44126120000146,,,,,,,,,,,,,,,,,,,,,,,,,,,,,,502.4274153999868,502.44126120000146,502.94152310001664,502.92488360003335,,,,,,,,,,,,,,,,,,,,,,,,,,502.92772570002126,502.94152310001664,502.94152310001664,502.94152310001664,505.9413288999931,505.9413288999931,505.9413288999931,505.9251597999828,j,1.9067063999827951,0.142888700007461,505.9252006000024,505.92521090002265,None,,,,,,,,,,,,,,00054,001,2026-01-18_18h01.08.629,MST_task,2024.2.0,59.99469647733782,2026-01-18 18h01.57.140573 +0530,
,Objects\011a.jpg,107,0,108,,,,,,,f,1.4294652999960817,0.14399210002738982,None,,,,,,108,0,107,505.9413288999931,,,,,,,,,,,,,,,,,,,,,,,,,,,,,,505.9253137999913,505.9413288999931,506.44149100000504,506.42495529999724,,,,,,,,,,,,,,,,,,,,,,,,,,506.42747140000574,506.44149100000504,506.44149100000504,506.44149100000504,509.44130880001467,509.44130880001467,509.44130880001467,509.42527690000134,f,1.4294652999960817,0.14399210002738982,509.42531880002934,509.4253291999921,None,,,,,,,,,,,,,,00054,001,2026-01-18_18h01.08.629,MST_task,2024.2.0,59.99469647733782,2026-01-18 18h01.57.140573 +0530,
,Objects\183a.jpg,108,0,109,,,,,,,j,0.9865258000208996,0.174891899980139,None,,,,,,109,0,108,509.44130880001467,,,,,,,,,,,,,,,,,,,,,,,,,,,,,,509.42539590003435,509.44130880001467,509.9415442000027,509.92485260003014,,,,,,,,,,,,,,,,,,,,,,,,,,509.9274425000185,509.9415442000027,509.9415442000027,509.9415442000027,512.9413220999995,512.9413220999995,512.9413220999995,512.9250607999857,j,0.9865258000208996,0.174891899980139,512.9251028000144,512.9251133999787,None,,,,,,,,,,,,,,00054,001,2026-01-18_18h01.08.629,MST_task,2024.2.0,59.99469647733782,2026-01-18 18h01.57.140573 +0530,
,Objects\158a.jpg,109,0,110,,,,,,,f,2.925588699989021,None,None,,,,,,110,0,109,512.9413220999995,,,,,,,,,,,,,,,,,,,,,,,,,,,,,,512.9252126999781,512.9413220999995,513.4416036999901,513.4248189000064,,,,,,,,,,,,,,,,,,,,,,,,,,513.4274015999981,513.4416036999901,513.4416036999901,513.4416036999901,516.4412836999982,516.4412836999982,516.4412836999982,516.4252089000074,f,2.925588699989021,None,516.4252481000149,516.4252587999799,None,,,,,,,,,,,,,,00054,001,2026-01-18_18h01.08.629,MST_task,2024.2.0,59.99469647733782,2026-01-18 18h01.57.140573 +0530,
,Objects\035a.jpg,110,0,111,,,,,,,j,0.9779237999464385,0.11999530001776293,None,,,,,,111,0,110,516.4412836999982,,,,,,,,,,,,,,,,,,,,,,,,,,,,,,516.4253529999987,516.4412836999982,516.941461200011,516.9248934999923,,,,,,,,,,,,,,,,,,,,,,,,,,516.9275215999805,516.941461200011,516.941461200011,516.941461200011,519.941364200029,519.941364200029,519.941364200029,519.9252646000241,j,0.9779237999464385,0.11999530001776293,519.9253070999985,519.9253183000255,None,,,,,,,,,,,,,,00054,001,2026-01-18_18h01.08.629,MST_task,2024.2.0,59.99469647733782,2026-01-18 18h01.57.140573 +0530,
,Objects\108a.jpg,111,0,112,,,,,,,j,1.0533810000051744,0.15199639997445047,None,,,,,,112,0,111,519.941364200029,,,,,,,,,,,,,,,,,,,,,,,,,,,,,,519.9253841000027,519.941364200029,520.4415388000198,520.4248724000063,,,,,,,,,,,,,,,,,,,,,,,,,,520.4274399999995,520.4415388000198,520.4415388000198,520.4415388000198,523.4412748999894,523.4412748999894,523.4412748999894,523.4251786000095,j,1.0533810000051744,0.15199639997445047,523.4252219999908,523.4252334000194,None,,,,,,,,,,,,,,00054,001,2026-01-18_18h01.08.629,MST_task,2024.2.0,59.99469647733782,2026-01-18 18h01.57.140573 +0530,
,Scenes\008a.jpg,112,0,113,,,,,,,j,1.2897529000183567,0.13599729997804388,None,,,,,,113,0,112,523.4412748999894,,,,,,,,,,,,,,,,,,,,,,,,,,,,,,523.4253361999872,523.4412748999894,523.9417936999816,523.9250503000221,,,,,,,,,,,,,,,,,,,,,,,,,,523.9345621999819,523.9417936999816,523.9417936999816,523.9417936999816,526.9412669999874,526.9412669999874,526.9412669999874,526.9253417000291,j,1.2897529000183567,0.13599729997804388,526.9270909000188,526.9271081000334,None,,,,,,,,,,,,,,00054,001,2026-01-18_18h01.08.629,MST_task,2024.2.0,59.99469647733782,2026-01-18 18h01.57.140573 +0530,
,Scenes\137a.jpg,113,0,114,,,,,,,j,2.8224098999635316,0.1349476000177674,None,,,,,,114,0,113,526.9412669999874,,,,,,,,,,,,,,,,,,,,,,,,,,,,,,526.9271787999896,526.9412669999874,527.4419272000086,527.4248408999993,,,,,,,,,,,,,,,,,,,,,,,,,,527.4338333000196,527.4419272000086,527.4419272000086,527.4419272000086,530.441313599993,530.441313599993,530.441313599993,530.4253100000205,j,2.8224098999635316,0.1349476000177674,530.425353300001,530.425364100025,None,,,,,,,,,,,,,,00054,001,2026-01-18_18h01.08.629,MST_task,2024.2.0,59.99469647733782,2026-01-18 18h01.57.140573 +0530,
,Scenes\139a.jpg,114,0,115,,,,,,,j,0.5930834999890067,0.1363736999919638,None,,,,,,115,0,114,530.441313599993,,,,,,,,,,,,,,,,,,,,,,,,,,,,,,530.4254633000237,530.441313599993,530.9418792999932,530.9247955000028,,,,,,,,,,,,,,,,,,,,,,,,,,530.9313060999848,530.9418792999932,530.9418792999932,530.9418792999932,533.941321899998,533.941321899998,533.941321899998,533.9250492000137,j,0.5930834999890067,0.1363736999919638,533.9250919999904,533.9251025000121,None,,,,,,,,,,,,,,00054,001,2026-01-18_18h01.08.629,MST_task,2024.2.0,59.99469647733782,2026-01-18 18h01.57.140573 +0530,
,Scenes\164a.jpg,115,0,116,,,,,,,j,1.301399699994363,0.1519292999873869,None,,,,,,116,0,115,533.941321899998,,,,,,,,,,,,,,,,,,,,,,,,,,,,,,533.9251981999842,533.941321899998,534.4418545999797,534.4249527999782,,,,,,,,,,,,,,,,,,,,,,,,,,534.4328886999865,534.4418545999797,534.4418545999797,534.4418545999797,537.4413233000087,537.4413233000087,537.4413233000087,537.4250247000018,j,1.301399699994363,0.1519292999873869,537.4250677999808,537.4250786000048,None,,,,,,,,,,,,,,00054,001,2026-01-18_18h01.08.629,MST_task,2024.2.0,59.99469647733782,2026-01-18 18h01.57.140573 +0530,
,Scenes\020a.jpg,116,0,117,,,,,,,f,1.4096944000339136,0.1439925999729894,None,,,,,,117,0,116,537.4413233000087,,,,,,,,,,,,,,,,,,,,,,,,,,,,,,537.4251446999842,537.4413233000087,537.9419604000286,537.9248903000262,,,,,,,,,,,,,,,,,,,,,,,,,,537.9365326000261,537.9419604000286,537.9419604000286,537.9419604000286,540.941319399979,540.941319399979,540.941319399979,540.9252462000004,f,1.4096944000339136,0.1439925999729894,540.9252873000223,540.9252976999851,None,,,,,,,,,,,,,,00054,001,2026-01-18_18h01.08.629,MST_task,2024.2.0,59.99469647733782,2026-01-18 18h01.57.140573 +0530,
,Scenes\074a.jpg,117,0,118,,,,,,,j,1.0217627999954857,0.1360020999563858,None,,,,,,118,0,117,540.941319399979,,,,,,,,,,,,,,,,,,,,,,,,,,,,,,540.9253944000229,540.941319399979,541.4418415999971,541.4246583000058,,,,,,,,,,,,,,,,,,,,,,,,,,541.4330401000334,541.4418415999971,541.4418415999971,541.4418415999971,544.4412657000357,544.4412657000357,544.4412657000357,544.4255615000147,j,1.0217627999954857,0.1360020999563858,544.4256107999827,544.425622300012,None,,,,,,,,,,,,,,00054,001,2026-01-18_18h01.08.629,MST_task,2024.2.0,59.99469647733782,2026-01-18 18h01.57.140573 +0530,
,Scenes\095a.jpg,118,0,119,,,,,,,f,1.682972599985078,0.11812610004562885,None,,,,,,119,0,118,544.4412657000357,,,,,,,,,,,,,,,,,,,,,,,,,,,,,,544.4257397000329,544.4412657000357,544.9418374000234,544.9249588000239,,,,,,,,,,,,,,,,,,,,,,,,,,544.9322914999793,544.9418374000234,544.9418374000234,544.9418374000234,547.941713200009,547.941713200009,547.941713200009,547.9250926999957,f,1.682972599985078,0.11812610004562885,547.9251337000169,547.9251441999804,None,,,,,,,,,,,,,,00054,001,2026-01-18_18h01.08.629,MST_task,2024.2.0,59.99469647733782,2026-01-18 18h01.57.140573 +0530,
,Objects\173a.jpg,119,0,120,,,,,,,f,2.222396299999673,0.14301820000400767,None,,,,,,120,0,119,547.941713200009,,,,,,,,,,,,,,,,,,,,,,,,,,,,,,547.9252402000129,547.941713200009,548.441825899994,548.424838899984,,,,,,,,,,,,,,,,,,,,,,,,,,548.4303807999822,548.441825899994,548.441825899994,548.441825899994,551.4413289999939,551.4413289999939,551.4413289999939,551.4251630000072,f,2.222396299999673,0.14301820000400767,551.4272244999884,551.4272447000258,None,,,,,,,,,,,,,,00054,001,2026-01-18_18h01.08.629,MST_task,2024.2.0,59.99469647733782,2026-01-18 18h01.57.140573 +0530,
,Objects\070a.jpg,120,0,121,,,,,,,f,1.1300596999935806,0.12733260000823066,None,,,,,,121,0,120,551.4413289999939,,,,,,,,,,,,,,,,,,,,,,,,,,,,,,551.4273647000082,551.4413289999939,551.9415501999902,551.9248718000017,,,,,,,,,,,,,,,,,,,,,,,,,,551.9275908999844,551.9415501999902,551.9415501999902,551.9415501999902,554.941249400028,554.941249400028,554.941249400028,554.925199099991,f,1.1300596999935806,0.12733260000823066,554.9252385,554.9252490000217,None,,,,,,,,,,,,,,00054,001,2026-01-18_18h01.08.629,MST_task,2024.2.0,59.99469647733782,2026-01-18 18h01.57.140573 +0530,
,Objects\026a.jpg,121,0,122,,,,,,,f,2.2535310000530444,0.15271759999450296,None,,,,,,122,0,121,554.941249400028,,,,,,,,,,,,,,,,,,,,,,,,,,,,,,554.9253140999936,554.941249400028,555.441476100008,555.4249538999866,,,,,,,,,,,,,,,,,,,,,,,,,,555.4276053999783,555.441476100008,555.441476100008,555.441476100008,558.441207099997,558.441207099997,558.441207099997,558.4249143000343,f,2.2535310000530444,0.15271759999450296,558.4249565000064,558.4249671000289,None,,,,,,,,,,,,,,00054,001,2026-01-18_18h01.08.629,MST_task,2024.2.0,59.99469647733782,2026-01-18 18h01.57.140573 +0530,
,Objects\154a.jpg,122,0,123,,,,,,,j,1.3140119999879971,0.17600540001876652,None,,,,,,123,0,122,558.441207099997,,,,,,,,,,,,,,,,,,,,,,,,,,,,,,558.42506400001,558.441207099997,558.9414240000187,558.9246434000088,,,,,,,,,,,,,,,,,,,,,,,,,,558.9272145000286,558.9414240000187,558.9414240000187,558.9414240000187,561.941146600002,561.941146600002,561.941146600002,561.9250556000043,j,1.3140119999879971,0.17600540001876652,561.9250956000178,561.9251067999867,None,,,,,,,,,,,,,,00054,001,2026-01-18_18h01.08.629,MST_task,2024.2.0,59.99469647733782,2026-01-18 18h01.57.140573 +0530,
,Objects\089a.jpg,123,0,124,,,,,,,j,1.5896953000337817,0.11200009996537119,None,,,,,,124,0,123,561.941146600002,,,,,,,,,,,,,,,,,,,,,,,,,,,,,,561.9252034000237,561.941146600002,562.4413578999811,562.4246071000234,,,,,,,,,,,,,,,,,,,,,,,,,,562.4272238999838,562.4413578999811,562.4413578999811,562.4413578999811,565.4411526999902,565.4411526999902,565.4411526999902,565.4249980000313,j,1.5896953000337817,0.11200009996537119,565.4250375999836,565.4250481000054,None,,,,,,,,,,,,,,00054,001,2026-01-18_18h01.08.629,MST_task,2024.2.0,59.99469647733782,2026-01-18 18h01.57.140573 +0530,
,Objects\145a.jpg,124,0,125,,,,,,,f,1.2497166000539437,0.12021379999350756,None,,,,,,125,0,124,565.4411526999902,,,,,,,,,,,,,,,,,,,,,,,,,,,,,,565.4251425000257,565.4411526999902,565.941374099988,565.9246475999826,,,,,,,,,,,,,,,,,,,,,,,,,,565.9271991000278,565.941374099988,565.941374099988,565.941374099988,568.9412089000107,568.9412089000107,568.9412089000107,568.9250005999929,f,1.2497166000539437,0.12021379999350756,568.925040400005,568.9250522999791,None,,,,,,,,,,,,,,00054,001,2026-01-18_18h01.08.629,MST_task,2024.2.0,59.99469647733782,2026-01-18 18h01.57.140573 +0530,
,Objects\048a.jpg,125,0,126,,,,,,,j,1.1106483999756165,0.15160520002245903,None,,,,,,126,0,125,568.9412089000107,,,,,,,,,,,,,,,,,,,,,,,,,,,,,,568.9251480000094,568.9412089000107,569.4414321000222,569.4247239999822,,,,,,,,,,,,,,,,,,,,,,,,,,569.4274556000018,569.4414321000222,569.4414321000222,569.4414321000222,572.4412200999795,572.4412200999795,572.4412200999795,572.4249168999959,j,1.1106483999756165,0.15160520002245903,572.4249585000216,572.4249693999882,None,,,,,,,,,,,,,,00054,001,2026-01-18_18h01.08.629,MST_task,2024.2.0,59.99469647733782,2026-01-18 18h01.57.140573 +0530,
,Scenes\116a.jpg,126,0,127,,,,,,,j,1.4583511999808252,0.16799840005114675,None,,,,,,127,0,126,572.4412200999795,,,,,,,,,,,,,,,,,,,,,,,,,,,,,,572.4250364000327,572.4412200999795,572.9416325000348,572.9248069000314,,,,,,,,,,,,,,,,,,,,,,,,,,572.9339622000116,572.9416325000348,572.9416325000348,572.9416325000348,575.9412734999787,575.9412734999787,575.9412734999787,575.9251374999876,j,1.4583511999808252,0.16799840005114675,575.92677369999,575.9267905000015,None,,,,,,,,,,,,,,00054,001,2026-01-18_18h01.08.629,MST_task,2024.2.0,59.99469647733782,2026-01-18 18h01.57.140573 +0530,
,Scenes\112a.jpg,127,0,128,,,,,,,j,0.7813989999704063,0.16801080002915114,None,,,,,,128,0,127,575.9412734999787,,,,,,,,,,,,,,,,,,,,,,,,,,,,,,575.9268904000055,575.9412734999787,576.4417726999964,576.4247894000146,,,,,,,,,,,,,,,,,,,,,,,,,,576.4340792000294,576.4417726999964,576.4417726999964,576.4417726999964,579.4411547000054,579.4411547000054,579.4411547000054,579.4249901000294,j,0.7813989999704063,0.16801080002915114,579.4250291000353,579.4250392999966,None,,,,,,,,,,,,,,00054,001,2026-01-18_18h01.08.629,MST_task,2024.2.0,59.99469647733782,2026-01-18 18h01.57.140573 +0530,
,Scenes\071a.jpg,128,0,129,,,,,,,j,1.6255915999645367,0.15203029999975115,None,,,,,,129,0,128,579.4411547000054,,,,,,,,,,,,,,,,,,,,,,,,,,,,,,579.4251053000335,579.4411547000054,579.94172599999,579.9247251999914,,,,,,,,,,,,,,,,,,,,,,,,,,579.9331944999867,579.94172599999,579.94172599999,579.94172599999,582.9412209999864,582.9412209999864,582.9412209999864,582.9249626999954,j,1.6255915999645367,0.15203029999975115,582.9250050000264,582.9250159999938,None,,,,,,,,,,,,,,00054,001,2026-01-18_18h01.08.629,MST_task,2024.2.0,59.99469647733782,2026-01-18 18h01.57.140573 +0530,
,Scenes\102a.jpg,129,0,130,,,,,,,f,0.8053222999442369,0.15196700004162267,None,,,,,,130,0,129,582.9412209999864,,,,,,,,,,,,,,,,,,,,,,,,,,,,,,582.9250824000337,582.9412209999864,583.4418894000119,583.4249240999925,,,,,,,,,,,,,,,,,,,,,,,,,,583.4360948000103,583.4418894000119,583.4418894000119,583.4418894000119,586.4412072999985,586.4412072999985,586.4412072999985,586.4251628000056,f,0.8053222999442369,0.15196700004162267,586.4252029000199,586.425213599985,None,,,,,,,,,,,,,,00054,001,2026-01-18_18h01.08.629,MST_task,2024.2.0,59.99469647733782,2026-01-18 18h01.57.140573 +0530,
,Scenes\018a.jpg,130,0,131,,,,,,,f,1.9859154999721795,0.1519953000242822,None,,,,,,131,0,130,586.4412072999985,,,,,,,,,,,,,,,,,,,,,,,,,,,,,,586.4253118000343,586.4412072999985,586.9417857999797,586.9246735000052,,,,,,,,,,,,,,,,,,,,,,,,,,586.9310406000004,586.9417857999797,586.9417857999797,586.9417857999797,589.9412770000054,589.9412770000054,589.9412770000054,589.9253745999886,f,1.9859154999721795,0.1519953000242822,589.9254212999949,589.925432500022,None,,,,,,,,,,,,,,00054,001,2026-01-18_18h01.08.629,MST_task,2024.2.0,59.99469647733782,2026-01-18 18h01.57.140573 +0530,
,Scenes\027a.jpg,131,0,132,,,,,,,f,1.8702134000486694,0.14380189997609705,None,,,,,,132,0,131,589.9412770000054,,,,,,,,,,,,,,,,,,,,,,,,,,,,,,589.9255015000235,589.9412770000054,590.4417431000038,590.4247035000008,,,,,,,,,,,,,,,,,,,,,,,,,,590.4317420999869,590.4417431000038,590.4417431000038,590.4417431000038,593.4411738000344,593.4411738000344,593.4411738000344,593.4251383999945,f,1.8702134000486694,0.14380189997609705,593.425180900027,593.4251920999959,None,,,,,,,,,,,,,,00054,001,2026-01-18_18h01.08.629,MST_task,2024.2.0,59.99469647733782,2026-01-18 18h01.57.140573 +0530,
,Scenes\182a.jpg,132,0,133,,,,,,,j,0.7460689999861643,0.11220690002664924,None,,,,,,133,0,132,593.4411738000344,,,,,,,,,,,,,,,,,,,,,,,,,,,,,,593.4252587999799,593.4411738000344,593.941719800001,593.9246323999832,,,,,,,,,,,,,,,,,,,,,,,,,,593.9312380999909,593.941719800001,593.941719800001,593.941719800001,596.9412259000237,596.9412259000237,596.9412259000237,596.925053599989,j,0.7460689999861643,0.11220690002664924,596.9250954000163,596.9251062999829,None,,,,,,,,,,,,,,00054,001,2026-01-18_18h01.08.629,MST_task,2024.2.0,59.99469647733782,2026-01-18 18h01.57.140573 +0530,
,Objects\061a.jpg,133,0,134,,,,,,,j,1.7333093999768607,0.12098510004580021,None,,,,,,134,0,133,596.9412259000237,,,,,,,,,,,,,,,,,,,,,,,,,,,,,,596.9251723000198,596.9412259000237,597.4416560999816,597.4246123000048,,,,,,,,,,,,,,,,,,,,,,,,,,597.4296590000158,597.4416560999816,597.4416560999816,597.4416560999816,600.4412223999971,600.4412223999971,600.4412223999971,600.4251081999973,j,1.7333093999768607,0.12098510004580021,600.4271624999819,600.4271791999927,None,,,,,,,,,,,,,,00054,001,2026-01-18_18h01.08.629,MST_task,2024.2.0,59.99469647733782,2026-01-18 18h01.57.140573 +0530,
,Objects\117a.jpg,134,0,135,,,,,,,f,1.2422276000143029,0.15953930001705885,None,,,,,,135,0,134,600.4412223999971,,,,,,,,,,,,,,,,,,,,,,,,,,,,,,600.4272856999887,600.4412223999971,600.9414327000268,600.9247865999932,,,,,,,,,,,,,,,,,,,,,,,,,,600.9277824999881,600.9414327000268,600.9414327000268,600.9414327000268,603.9412149999989,603.9412149999989,603.9412149999989,603.925130299991,f,1.2422276000143029,0.15953930001705885,603.9251724000205,603.925182499981,None,,,,,,,,,,,,,,00054,001,2026-01-18_18h01.08.629,MST_task,2024.2.0,59.99469647733782,2026-01-18 18h01.57.140573 +0530,
,Objects\032a.jpg,135,0,136,,,,,,,j,1.1185525999753736,0.13494370004627854,None,,,,,,136,0,135,603.9412149999989,,,,,,,,,,,,,,,,,,,,,,,,,,,,,,603.9252474000095,603.9412149999989,604.4415382000152,604.4249013999943,,,,,,,,,,,,,,,,,,,,,,,,,,604.4275908999844,604.4415382000152,604.4415382000152,604.4415382000152,607.4412683999981,607.4412683999981,607.4412683999981,607.4252677999903,j,1.1185525999753736,0.13494370004627854,607.4253165000118,607.4253276999807,None,,,,,,,,,,,,,,00054,001,2026-01-18_18h01.08.629,MST_task,2024.2.0,59.99469647733782,2026-01-18 18h01.57.140573 +0530,
,Objects\110a.jpg,136,0,137,,,,,,,f,1.89794500003336,0.15301249996991828,None,,,,,,137,0,136,607.4412683999981,,,,,,,,,,,,,,,,,,,,,,,,,,,,,,607.4254390000133,607.4412683999981,607.941455800028,607.9246515000123,,,,,,,,,,,,,,,,,,,,,,,,,,607.9272368000238,607.941455800028,607.941455800028,607.941455800028,610.9412314000074,610.9412314000074,610.9412314000074,610.9250121000223,f,1.89794500003336,0.15301249996991828,610.9250586000271,610.9250694999937,None,,,,,,,,,,,,,,00054,001,2026-01-18_18h01.08.629,MST_task,2024.2.0,59.99469647733782,2026-01-18 18h01.57.140573 +0530,
,Objects\086a.jpg,137,0,138,,,,,,,j,2.814354399975855,0.14439400000264868,None,,,,,,138,0,137,610.9412314000074,,,,,,,,,,,,,,,,,,,,,,,,,,,,,,610.9251359000336,610.9412314000074,611.4414519999991,611.4246230000281,,,,,,,,,,,,,,,,,,,,,,,,,,611.4271958000027,611.4414519999991,611.4414519999991,611.4414519999991,614.4412316000089,614.4412316000089,614.4412316000089,614.4248832000303,j,2.814354399975855,0.14439400000264868,614.4249239999917,614.4249348000158,None,,,,,,,,,,,,,,00054,001,2026-01-18_18h01.08.629,MST_task,2024.2.0,59.99469647733782,2026-01-18 18h01.57.140573 +0530,
,Objects\189a.jpg,138,0,139,,,,,,,j,2.3700467000016943,0.13604680000571534,None,,,,,,139,0,138,614.4412316000089,,,,,,,,,,,,,,,,,,,,,,,,,,,,,,614.425029999984,614.4412316000089,614.9414406000287,614.9247529000277,,,,,,,,,,,,,,,,,,,,,,,,,,614.9275930000003,614.9414406000287,614.9414406000287,614.9414406000287,617.9413104000269,617.9413104000269,617.9413104000269,617.9250713000074,j,2.3700467000016943,0.13604680000571534,617.9251167000039,617.9251277000294,None,,,,,,,,,,,,,,00054,001,2026-01-18_18h01.08.629,MST_task,2024.2.0,59.99469647733782,2026-01-18 18h01.57.140573 +0530,
,Objects\174a.jpg,139,0,140,,,,,,,f,0.8939087000326253,0.15200160001404583,None,,,,,,140,0,139,617.9413104000269,,,,,,,,,,,,,,,,,,,,,,,,,,,,,,617.9252258000197,617.9413104000269,618.4415324000292,618.4248705999926,,,,,,,,,,,,,,,,,,,,,,,,,,618.4272762000328,618.4415324000292,618.4415324000292,618.4415324000292,621.4413310000091,621.4413310000091,621.4413310000091,621.4252547000069,f,0.8939087000326253,0.15200160001404583,621.4252988999942,621.4253100000205,None,,,,,,,,,,,,,,00054,001,2026-01-18_18h01.08.629,MST_task,2024.2.0,59.99469647733782,2026-01-18 18h01.57.140573 +0530,
,Scenes\140a.jpg,140,0,141,,,,,,,j,1.5220068999915384,0.12804069998674095,None,,,,,,141,0,140,621.4413310000091,,,,,,,,,,,,,,,,,,,,,,,,,,,,,,621.425413399993,621.4413310000091,621.9418642999954,621.9248939999961,,,,,,,,,,,,,,,,,,,,,,,,,,621.9326077000005,621.9418642999954,621.9418642999954,621.9418642999954,624.9413786000223,624.9413786000223,624.9413786000223,624.9254215999972,j,1.5220068999915384,0.12804069998674095,624.9272347000078,624.9272530000308,None,,,,,,,,,,,,,,00054,001,2026-01-18_18h01.08.629,MST_task,2024.2.0,59.99469647733782,2026-01-18 18h01.57.140573 +0530,
,Scenes\168a.jpg,141,0,142,,,,,,,j,1.0375506999553181,0.13598660001298413,None,,,,,,142,0,141,624.9413786000223,,,,,,,,,,,,,,,,,,,,,,,,,,,,,,624.927365200012,624.9413786000223,625.4419181999983,625.4248846999835,,,,,,,,,,,,,,,,,,,,,,,,,,625.4314860000159,625.4419181999983,625.4419181999983,625.4419181999983,628.4412626000121,628.4412626000121,628.4412626000121,628.4251539999968,j,1.0375506999553181,0.13598660001298413,628.425198699988,628.4252096000127,None,,,,,,,,,,,,,,00054,001,2026-01-18_18h01.08.629,MST_task,2024.2.0,59.99469647733782,2026-01-18 18h01.57.140573 +0530,
,Scenes\150a.jpg,142,0,143,,,,,,,j,1.401007300009951,0.13598399999318644,None,,,,,,143,0,142,628.4412626000121,,,,,,,,,,,,,,,,,,,,,,,,,,,,,,628.4252762999968,628.4412626000121,628.9419769999804,628.9250282000285,,,,,,,,,,,,,,,,,,,,,,,,,,628.9323019000003,628.9419769999804,628.9419769999804,628.9419769999804,631.9414074000088,631.9414074000088,631.9414074000088,631.9253450999968,j,1.401007300009951,0.13598399999318644,631.9253857000149,631.9253965999815,None,,,,,,,,,,,,,,00054,001,2026-01-18_18h01.08.629,MST_task,2024.2.0,59.99469647733782,2026-01-18 18h01.57.140573 +0530,
,Scenes\143a.jpg,143,0,144,,,,,,,j,0.7891274000285193,0.13667229999555275,None,,,,,,144,0,143,631.9414074000088,,,,,,,,,,,,,,,,,,,,,,,,,,,,,,631.925493000017,631.9414074000088,632.4419587000157,632.4249688999844,,,,,,,,,,,,,,,,,,,,,,,,,,632.4347655000165,632.4419587000157,632.4419587000157,632.4419587000157,635.4414284999948,635.4414284999948,635.4414284999948,635.4253470000112,j,0.7891274000285193,0.13667229999555275,635.4253895999864,635.4254007000127,None,,,,,,,,,,,,,,00054,001,2026-01-18_18h01.08.629,MST_task,2024.2.0,59.99469647733782,2026-01-18 18h01.57.140573 +0530,
,Scenes\041a.jpg,144,0,145,,,,,,,j,0.7457745000137947,0.12800219998462126,None,,,,,,145,0,144,635.4414284999948,,,,,,,,,,,,,,,,,,,,,,,,,,,,,,635.4255045999889,635.4414284999948,635.9419549999875,635.9249695999897,,,,,,,,,,,,,,,,,,,,,,,,,,635.9341896999977,635.9419549999875,635.9419549999875,635.9419549999875,638.9412991999998,638.9412991999998,638.9412991999998,638.9252606999944,j,0.7457745000137947,0.12800219998462126,638.9253005000064,638.9253111000289,None,,,,,,,,,,,,,,00054,001,2026-01-18_18h01.08.629,MST_task,2024.2.0,59.99469647733782,2026-01-18 18h01.57.140573 +0530,
,Scenes\138a.jpg,145,0,146,,,,,,,j,0.7897754000150599,0.14310499996645376,None,,,,,,146,0,145,638.9412991999998,,,,,,,,,,,,,,,,,,,,,,,,,,,,,,638.9253747999901,638.9412991999998,639.4420168999932,639.4247673000209,,,,,,,,,,,,,,,,,,,,,,,,,,639.4319204000058,639.4420168999932,639.4420168999932,639.4420168999932,642.4413602999994,642.4413602999994,642.4413602999994,642.4251031000167,j,0.7897754000150599,0.14310499996645376,642.4251446999842,642.4251553000067,None,,,,,,,,,,,,,,00054,001,2026-01-18_18h01.08.629,MST_task,2024.2.0,59.99469647733782,2026-01-18 18h01.57.140573 +0530,
,Scenes\166a.jpg,146,0,147,,,,,,,j,1.0260766000137664,0.1281201000092551,None,,,,,,147,0,146,642.4413602999994,,,,,,,,,,,,,,,,,,,,,,,,,,,,,,642.4252509999787,642.4413602999994,642.9415512999985,642.9246878999984,,,,,,,,,,,,,,,,,,,,,,,,,,642.929339400027,642.9415512999985,642.9415512999985,642.9415512999985,645.9413679999998,645.9413679999998,645.9413679999998,645.9252307999996,j,1.0260766000137664,0.1281201000092551,645.9252701000078,645.9252809000318,None,,,,,,,,,,,,,,00054,001,2026-01-18_18h01.08.629,MST_task,2024.2.0,59.99469647733782,2026-01-18 18h01.57.140573 +0530,
,Objects\038a.jpg,147,0,148,,,,,,,f,0.8138487999676727,0.1684001000248827,None,,,,,,148,0,147,645.9413679999998,,,,,,,,,,,,,,,,,,,,,,,,,,,,,,645.9253470000112,645.9413679999998,646.4418518000166,646.4248809000128,,,,,,,,,,,,,,,,,,,,,,,,,,646.4303114000359,646.4418518000166,646.4418518000166,646.4418518000166,649.4413390000118,649.4413390000118,649.4413390000118,649.4250515000313,f,0.8138487999676727,0.1684001000248827,649.4271307000308,649.4271486999933,None,,,,,,,,,,,,,,00054,001,2026-01-18_18h01.08.629,MST_task,2024.2.0,59.99469647733782,2026-01-18 18h01.57.140573 +0530,
,Objects\143a.jpg,148,0,149,,,,,,,j,0.8094642000505701,0.15200060000643134,None,,,,,,149,0,148,649.4413390000118,,,,,,,,,,,,,,,,,,,,,,,,,,,,,,649.427250400011,649.4413390000118,649.9415874999831,649.9248246999923,,,,,,,,,,,,,,,,,,,,,,,,,,649.9273701999919,649.9415874999831,649.9415874999831,649.9415874999831,652.9413608000032,652.9413608000032,652.9413608000032,652.9250166999991,j,0.8094642000505701,0.15200060000643134,652.9250583000248,652.9250684999861,None,,,,,,,,,,,,,,00054,001,2026-01-18_18h01.08.629,MST_task,2024.2.0,59.99469647733782,2026-01-18 18h01.57.140573 +0530,
,Objects\192a.jpg,149,0,150,,,,,,,f,1.9498938000178896,0.12750509998295456,None,,,,,,150,0,149,652.9413608000032,,,,,,,,,,,,,,,,,,,,,,,,,,,,,,652.9251334000146,652.9413608000032,653.4415885999915,653.4249498000136,,,,,,,,,,,,,,,,,,,,,,,,,,653.4276081999997,653.4415885999915,653.4415885999915,653.4415885999915,656.4413104000269,656.4413104000269,656.4413104000269,656.4252624000073,f,1.9498938000178896,0.12750509998295456,656.4253040000331,656.4253145999974,None,,,,,,,,,,,,,,00054,001,2026-01-18_18h01.08.629,MST_task,2024.2.0,59.99469647733782,2026-01-18 18h01.57.140573 +0530,
,Objects\109a.jpg,150,0,151,,,,,,,j,1.0262897000066005,0.14399489999050274,None,,,,,,151,0,150,656.4413104000269,,,,,,,,,,,,,,,,,,,,,,,,,,,,,,656.4253792000236,656.4413104000269,656.9415253000334,656.9248700999888,,,,,,,,,,,,,,,,,,,,,,,,,,656.9272890000138,656.9415253000334,656.9415253000334,656.9415253000334,659.94120380003,659.94120380003,659.94120380003,659.9251935000066,j,1.0262897000066005,0.14399489999050274,659.9252387000015,659.9252498000278,None,,,,,,,,,,,,,,00054,001,2026-01-18_18h01.08.629,MST_task,2024.2.0,59.99469647733782,2026-01-18 18h01.57.140573 +0530,
,Objects\019a.jpg,151,0,152,,,,,,,j,1.853505100007169,0.13665959995705634,None,,,,,,152,0,151,659.94120380003,,,,,,,,,,,,,,,,,,,,,,,,,,,,,,659.9253520999919,659.94120380003,660.4415669000009,660.4249555999995,,,,,,,,,,,,,,,,,,,,,,,,,,660.4278084000107,660.4415669000009,660.4415669000009,660.4415669000009,663.4413334000274,663.4413334000274,663.4413334000274,663.4252138999873,j,1.853505100007169,0.13665959995705634,663.4252531999955,663.4252640000195,None,,,,,,,,,,,,,,00054,001,2026-01-18_18h01.08.629,MST_task,2024.2.0,59.99469647733782,2026-01-18 18h01.57.140573 +0530,
,Objects\155a.jpg,152,0,153,,,,,,,f,0.9702755000325851,0.15980779996607453,None,,,,,,153,0,152,663.4413334000274,,,,,,,,,,,,,,,,,,,,,,,,,,,,,,663.4253282999853,663.4413334000274,663.9415240000235,663.9248070000322,,,,,,,,,,,,,,,,,,,,,,,,,,663.9272460999782,663.9415240000235,663.9415240000235,663.9415240000235,666.9413580999826,666.9413580999826,666.9413580999826,666.925281999982,f,0.9702755000325851,0.15980779996607453,666.9253228000016,666.9253334000241,None,,,,,,,,,,,,,,00054,001,2026-01-18_18h01.08.629,MST_task,2024.2.0,59.99469647733782,2026-01-18 18h01.57.140573 +0530,
,Objects\124a.jpg,153,0,154,,,,,,,j,1.198439200001303,0.13701700000092387,None,,,,,,154,0,153,666.9413580999826,,,,,,,,,,,,,,,,,,,,,,,,,,,,,,666.9254324000212,666.9413580999826,667.441405599995,667.4247628999874,,,,,,,,,,,,,,,,,,,,,,,,,,667.4273561000009,667.441405599995,667.441405599995,667.441405599995,670.4413562000263,670.4413562000263,670.4413562000263,670.4251094000065,j,1.198439200001303,0.13701700000092387,670.4251504000276,670.4251609999919,None,,,,,,,,,,,,,,00054,001,2026-01-18_18h01.08.629,MST_task,2024.2.0,59.99469647733782,2026-01-18 18h01.57.140573 +0530,
,Scenes\163a.jpg,154,0,155,,,,,,,f,0.6971103000105359,0.17599959997460246,None,,,,,,155,0,154,670.4413562000263,,,,,,,,,,,,,,,,,,,,,,,,,,,,,,670.4252562000183,670.4413562000263,670.9418640999938,670.9249213000294,,,,,,,,,,,,,,,,,,,,,,,,,,670.9327959999791,670.9418640999938,670.9418640999938,670.9418640999938,673.9413206999889,673.9413206999889,673.9413206999889,673.9253518999903,f,0.6971103000105359,0.17599959997460246,673.9273605000344,673.92737759999,None,,,,,,,,,,,,,,00054,001,2026-01-18_18h01.08.629,MST_task,2024.2.0,59.99469647733782,2026-01-18 18h01.57.140573 +0530,
