Sl_no,image_path,thisN,thisTrialN,thisRepN,key_resp_5.keys,key_resp_5.rt,key_resp_5.duration,key_resp_7.keys,key_resp_9.keys,key_resp_9.rt,key_resp_9.duration,key_resp_8.keys,key_resp_8.rt,key_resp_8.duration,practice.thisRepN,practice.thisTrialN,practice.thisN,trials.thisRepN,trials.thisTrialN,trials.thisN,thisRow.t,notes,welcome_page.started,text.started,key_resp.started,welcome_page.stopped,key_resp.keys,key_resp.rt,key_resp.duration,instructions.started,ins.started,key_resp_2.started,instructions.stopped,key_resp_2.keys,key_resp_2.rt,key_resp_2.duration,instructions_2.started,text_10.started,key_resp_10.started,instructions_2.stopped,key_resp_10.keys,key_resp_10.rt,key_resp_10.duration,objects_only_instruction.started,text_3.started,key_resp_3.started,objects_only_instruction.stopped,key_resp_3.keys,key_resp_3.rt,key_resp_3.duration,ISI.started,text_4.started,text_4.stopped,ISI.stopped,practice_block.started,image.started,text_5.started,key_resp_5.started,practice_block.stopped,practice.key_resp_5.keys,practice.key_resp_5.rt,practice.key_resp_5.duration,indoor_outdoor.started,indoor_outdoor.stopped,practice.key_resp_7.keys,image.stopped,text_5.stopped,key_resp_5.stopped,practice_to_main.started,text_2.started,key_resp_4.started,practice_to_main.stopped,key_resp_4.keys,key_resp_4.rt,key_resp_4.duration,objects.started,image_2.started,text_9.started,key_resp_9.started,image_2.stopped,text_9.stopped,key_resp_9.stopped,objects.stopped,trials.key_resp_9.keys,trials.key_resp_9.rt,trials.key_resp_9.duration,encoding_task.started,encoding_task.stopped,trials.key_resp_8.keys,text_8.started,key_resp_8.started,trials.key_resp_8.rt,trials.key_resp_8.duration,end_experiment.started,text_6.started,key_resp_6.started,end_experiment.stopped,key_resp_6.keys,key_resp_6.rt,key_resp_6.duration,list_of_stimuli,encoding_task_accuracy,participant,session,date,expName,psychopyVersion,frameRate,expStart,
,,,,,,,,,,,,,,,,,,,,,,,0.0015040999969642144,0.0037458999977388885,0.0037458999977388885,721.7307048999974,space,721.7177123000001,None,,,,,,,,,,,,,,,,,,,,,,,,,,,,,,,,,,,,,,,,,,,,,,,,,,,,,,,,,,,,,,,,,,,,,,,,,,00057,001,2026-01-18_21h46.54.870,MST_task,2024.2.0,59.91992301506576,2026-01-18 21h47.32.546427 +0530,
,,,,,,,,,,,,,,,,,,,,,,,,,,,,,,721.7307832999977,721.752257199998,721.752257199998,736.0246410999971,space,14.265421300002345,None,,,,,,,,,,,,,,,,,,,,,,,,,,,,,,,,,,,,,,,,,,,,,,,,,,,,,,,,,,,,,,,,,,,00057,001,2026-01-18_21h46.54.870,MST_task,2024.2.0,59.91992301506576,2026-01-18 21h47.32.546427 +0530,
,,,,,,,,,,,,,,,,,,,,,,,,,,,,,,,,,,,,,736.0247440999992,736.0393373999977,736.0393373999977,746.9911654999996,space,10.937619699998322,None,,,,,,,,,,,,,,,,,,,,,,,,,,,,,,,,,,,,,,,,,,,,,,,,,,,,,,,,,,,,00057,001,2026-01-18_21h46.54.870,MST_task,2024.2.0,59.91992301506576,2026-01-18 21h47.32.546427 +0530,
,,,,,,,,,,,,,,,,,,,,,,,,,,,,,,,,,,,,,,,,,,,,746.9913062999985,747.0059764999969,747.0059764999969,759.6576043999994,space,12.634527599999274,None,,,,,,,,,,,,,,,,,,,,,,,,,,,,,,,,,,,,,,,,,,,,,,,,,,,,,00057,001,2026-01-18_21h46.54.870,MST_task,2024.2.0,59.91992301506576,2026-01-18 21h47.32.546427 +0530,
1,practice_images/013a.jpg,0,0,1,j,2.322478300000512,0.11937789999865345,None,,,,,,,1,0,0,,,,759.6733074000003,,,,,,,,,,,,,,,,,,,,,,,,,,,,,,759.6694494000003,759.6733074000003,760.1987020999986,760.1570705999984,760.1663458000003,760.1987020999986,760.1987020999986,760.1987020999986,763.1731094999996,j,2.322478300000512,0.11937789999865345,763.1767015000005,763.1767392000002,None,,,,,,,,,,,,,,,,,,,,,,,,,,,,,,,,,,,,,,00057,001,2026-01-18_21h46.54.870,MST_task,2024.2.0,59.91992301506576,2026-01-18 21h47.32.546427 +0530,
4,practice_images/002b.jpg,1,1,1,j,2.6157844999979716,0.1439120000031835,None,,,,,,,1,1,1,,,,763.1892530999976,,,,,,,,,,,,,,,,,,,,,,,,,,,,,,763.1768869999978,763.1892530999976,763.6896968999972,763.6739692999981,763.6782351000002,763.6896968999972,763.6896968999972,763.6896968999972,766.6738186999974,j,2.6157844999979716,0.1439120000031835,766.6739879999986,766.6740450999969,None,766.6894608000002,766.6894608000002,766.6894608000002,,,,,,,,,,,,,,,,,,,,,,,,,,,,,,,,,,,00057,001,2026-01-18_21h46.54.870,MST_task,2024.2.0,59.91992301506576,2026-01-18 21h47.32.546427 +0530,
8,practice_images/178a.jpg,2,2,1,f,1.1398791999999958,0.14297540000188746,None,,,,,,,1,2,2,,,,766.6894608000002,,,,,,,,,,,,,,,,,,,,,,,,,,,,,,766.6742549999981,766.6894608000002,767.1895222999992,767.1738220999978,767.1778371,767.1895222999992,767.1895222999992,767.1895222999992,770.173898699999,f,1.1398791999999958,0.14297540000188746,770.1740546000001,770.1741266999998,None,770.1894145999977,770.1894145999977,770.1894145999977,,,,,,,,,,,,,,,,,,,,,,,,,,,,,,,,,,,00057,001,2026-01-18_21h46.54.870,MST_task,2024.2.0,59.91992301506576,2026-01-18 21h47.32.546427 +0530,
10,practice_images/182a.jpg,3,3,1,f,1.5436465999991924,0.16001830000095651,None,,,,,,,1,3,3,,,,770.1894145999977,,,,,,,,,,,,,,,,,,,,,,,,,,,,,,770.1744445000004,770.1894145999977,770.6896344999986,770.6737926999995,770.6777363000001,770.6896344999986,770.6896344999986,770.6896344999986,773.6739904999995,f,1.5436465999991924,0.16001830000095651,773.6740837999969,773.6741247999998,None,773.6897018999989,773.6897018999989,773.6897018999989,,,,,,,,,,,,,,,,,,,,,,,,,,,,,,,,,,,00057,001,2026-01-18_21h46.54.870,MST_task,2024.2.0,59.91992301506576,2026-01-18 21h47.32.546427 +0530,
9,practice_images/180a.jpg,4,4,1,f,2.1000492999992275,0.1827212000025611,None,,,,,,,1,4,4,,,,773.6897018999989,,,,,,,,,,,,,,,,,,,,,,,,,,,,,,773.6742970999985,773.6897018999989,774.1895867999992,774.1739062999986,774.1787972999991,774.1895867999992,774.1895867999992,774.1895867999992,777.1740536999969,f,2.1000492999992275,0.1827212000025611,777.1742193999999,777.1742911999972,None,777.1895173999983,777.1895173999983,777.1895173999983,,,,,,,,,,,,,,,,,,,,,,,,,,,,,,,,,,,00057,001,2026-01-18_21h46.54.870,MST_task,2024.2.0,59.91992301506576,2026-01-18 21h47.32.546427 +0530,
5,practice_images/139a.jpg,5,5,1,f,2.3347632000004523,0.14513639999859151,None,,,,,,,1,5,5,,,,777.1895173999983,,,,,,,,,,,,,,,,,,,,,,,,,,,,,,777.174619399997,777.1895173999983,777.6895221999985,777.6738318999996,777.681993299997,777.6895221999985,777.6895221999985,777.6895221999985,780.6737829999984,f,2.3347632000004523,0.14513639999859151,780.6789523999978,780.6789924999975,None,780.6895518999991,780.6895518999991,780.6895518999991,,,,,,,,,,,,,,,,,,,,,,,,,,,,,,,,,,,00057,001,2026-01-18_21h46.54.870,MST_task,2024.2.0,59.91992301506576,2026-01-18 21h47.32.546427 +0530,
2,practice_images/031a.jpg,6,6,1,j,1.7633682999985467,0.1202634000001126,None,,,,,,,1,6,6,,,,780.6895518999991,,,,,,,,,,,,,,,,,,,,,,,,,,,,,,780.6791495999969,780.6895518999991,781.1895046999998,781.1737286999996,781.1769954999982,781.1895046999998,781.1895046999998,781.1895046999998,784.1739364999994,j,1.7633682999985467,0.1202634000001126,784.174083599999,784.1741400999999,None,784.1893340999995,784.1893340999995,784.1893340999995,,,,,,,,,,,,,,,,,,,,,,,,,,,,,,,,,,,00057,001,2026-01-18_21h46.54.870,MST_task,2024.2.0,59.91992301506576,2026-01-18 21h47.32.546427 +0530,
6,practice_images/158a.jpg,7,7,1,j,2.591024000001198,0.19163929999922402,None,,,,,,,1,7,7,,,,784.1893340999995,,,,,,,,,,,,,,,,,,,,,,,,,,,,,,784.1743800000004,784.1893340999995,784.6905788999975,784.6738927999977,784.6787626999976,784.6905788999975,784.6905788999975,784.6905788999975,787.6898549999969,j,2.591024000001198,0.19163929999922402,787.6900131000002,787.6900841999995,None,,,,,,,,,,,,,,,,,,,,,,,,,,,,,,,,,,,,,,00057,001,2026-01-18_21h46.54.870,MST_task,2024.2.0,59.91992301506576,2026-01-18 21h47.32.546427 +0530,
7,practice_images/166a.jpg,8,8,1,j,2.066380600001139,0.1435626999991655,None,,,,,,,1,8,8,,,,787.7059862999995,,,,,,,,,,,,,,,,,,,,,,,,,,,,,,787.6903906999978,787.7059862999995,788.2062174999992,788.1904448999994,788.1940873999993,788.2062174999992,788.2062174999992,788.2062174999992,791.1907745999997,j,2.066380600001139,0.1435626999991655,791.1909282999986,791.1909981999997,None,791.2078844999996,791.2078844999996,791.2078844999996,,,,,,,,,,,,,,,,,,,,,,,,,,,,,,,,,,,00057,001,2026-01-18_21h46.54.870,MST_task,2024.2.0,59.91992301506576,2026-01-18 21h47.32.546427 +0530,
3,practice_images/037a.jpg,9,9,1,f,1.782545999998547,0.14436040000146022,None,,,,,,,1,9,9,,,,791.2078844999996,,,,,,,,,,,,,,,,,,,,,,,,,,,,,,791.1913190999985,791.2078844999996,,791.706278499998,791.7114871999984,791.722762399997,791.722762399997,791.722762399997,794.7064043999999,f,1.782545999998547,0.14436040000146022,794.7065779000004,794.706645299997,None,,,,,,,,,,,,,,,,,,,,,,,,,,,,,,,,,,,,,,00057,001,2026-01-18_21h46.54.870,MST_task,2024.2.0,59.91992301506576,2026-01-18 21h47.32.546427 +0530,
,,,,,,,,,,,,,,,,,,,,,,,,,,,,,,,,,,,,,,,,,,,,,,,,,,,,,,,,,,,,,,,,,,,,,794.7068683999969,794.7236223999971,794.7236223999971,835.0913342999993,space,40.36533910000071,None,,,,,,,,,,,,,,,,,,,,,,,,,,,,00057,001,2026-01-18_21h46.54.870,MST_task,2024.2.0,59.91992301506576,2026-01-18 21h47.32.546427 +0530,
,Objects\007a.jpg,0,0,1,,,,,f,1.9222506000005524,0.10504349999973783,None,,,,,,1,0,0,835.1062392999993,,,,,,,,,,,,,,,,,,,,,,,,,,,,,,835.0940718999991,835.1062392999993,835.6066314999989,835.5904401999978,,,,,,,,,,,,,,,,,,,,,,835.5997511999994,835.6066314999989,835.6066314999989,835.6066314999989,838.6059883999988,838.6059883999988,838.6059883999988,838.5911495999972,f,1.9222506000005524,0.10504349999973783,838.5985110999973,838.5985471999993,None,,,,,,,,,,,,,,00057,001,2026-01-18_21h46.54.870,MST_task,2024.2.0,59.91992301506576,2026-01-18 21h47.32.546427 +0530,
,Objects\048a.jpg,1,0,2,,,,,j,1.4537378000022727,0.11983949999921606,None,,,,,,2,0,1,838.6059883999988,,,,,,,,,,,,,,,,,,,,,,,,,,,,,,838.5986825999971,838.6059883999988,839.131524299999,839.0909549999997,,,,,,,,,,,,,,,,,,,,,,839.1282790000005,839.131524299999,839.131524299999,839.131524299999,,,,842.1067301000003,j,1.4537378000022727,0.11983949999921606,842.1069099999986,842.1069760999999,None,,,,,,,,,,,,,,00057,001,2026-01-18_21h46.54.870,MST_task,2024.2.0,59.91992301506576,2026-01-18 21h47.32.546427 +0530,
,Objects\065a.jpg,2,0,3,,,,,j,1.7949417000018002,0.10374819999924512,None,,,,,,3,0,2,842.1226701999985,,,,,,,,,,,,,,,,,,,,,,,,,,,,,,842.1072451,842.1226701999985,842.6228125999987,842.6072869999989,,,,,,,,,,,,,,,,,,,,,,842.6155292999974,842.6228125999987,842.6228125999987,842.6228125999987,845.6226086999995,845.6226086999995,845.6226086999995,845.6077727999982,j,1.7949417000018002,0.10374819999924512,845.6079510999989,845.6080158999976,None,,,,,,,,,,,,,,00057,001,2026-01-18_21h46.54.870,MST_task,2024.2.0,59.91992301506576,2026-01-18 21h47.32.546427 +0530,
,Objects\123a.jpg,3,0,4,,,,,f,1.2065333999998984,0.13583229999858304,None,,,,,,4,0,3,845.6226086999995,,,,,,,,,,,,,,,,,,,,,,,,,,,,,,845.6083574000004,845.6226086999995,846.1228924999996,846.1072845999988,,,,,,,,,,,,,,,,,,,,,,846.1129331999982,846.1228924999996,846.1228924999996,846.1228924999996,849.1224868999998,849.1224868999998,849.1224868999998,849.1073160999986,f,1.2065333999998984,0.13583229999858304,849.1074006999988,849.1074283999988,None,,,,,,,,,,,,,,00057,001,2026-01-18_21h46.54.870,MST_task,2024.2.0,59.91992301506576,2026-01-18 21h47.32.546427 +0530,
,Objects\139a.jpg,4,0,5,,,,,f,1.2594920999981696,0.14316770000004908,None,,,,,,5,0,4,849.1224868999998,,,,,,,,,,,,,,,,,,,,,,,,,,,,,,849.1075681000002,849.1224868999998,849.6386454999993,849.6071826999978,,,,,,,,,,,,,,,,,,,,,,849.6354468999998,849.6386454999993,849.6386454999993,849.6386454999993,,,,852.6230009999999,f,1.2594920999981696,0.14316770000004908,852.6231480999995,852.6231999999982,None,,,,,,,,,,,,,,00057,001,2026-01-18_21h46.54.870,MST_task,2024.2.0,59.91992301506576,2026-01-18 21h47.32.546427 +0530,
,Objects\130a.jpg,5,0,6,,,,,j,1.947947100001329,0.13524629999665194,None,,,,,,6,0,5,852.6395434999977,,,,,,,,,,,,,,,,,,,,,,,,,,,,,,852.6234555999981,852.6395434999977,853.1568785999989,853.1235879999986,,,,,,,,,,,,,,,,,,,,,,853.1535640000002,853.1568785999989,853.1568785999989,853.1568785999989,,,,856.1399726999989,j,1.947947100001329,0.13524629999665194,856.1401537999991,856.1402239999989,None,,,,,,,,,,,,,,00057,001,2026-01-18_21h46.54.870,MST_task,2024.2.0,59.91992301506576,2026-01-18 21h47.32.546427 +0530,
,Objects\140a.jpg,6,0,7,,,,,f,1.3930147999999463,0.13593910000054166,None,,,,,,7,0,6,856.156045599997,,,,,,,,,,,,,,,,,,,,,,,,,,,,,,856.1404726999972,856.156045599997,856.6564130999977,856.6405162999981,,,,,,,,,,,,,,,,,,,,,,856.6462750999999,856.6564130999977,856.6564130999977,856.6564130999977,859.6560212000004,859.6560212000004,859.6560212000004,859.641125099999,f,1.3930147999999463,0.13593910000054166,859.6412911999978,859.6413501999996,None,,,,,,,,,,,,,,00057,001,2026-01-18_21h46.54.870,MST_task,2024.2.0,59.91992301506576,2026-01-18 21h47.32.546427 +0530,
,Scenes\096a.jpg,7,0,8,,,,,j,1.3140450000028068,0.15240439999979571,None,,,,,,8,0,7,859.6560212000004,,,,,,,,,,,,,,,,,,,,,,,,,,,,,,859.6416398000001,859.6560212000004,860.158822399997,860.1406334999992,,,,,,,,,,,,,,,,,,,,,,860.1556070999977,860.158822399997,860.158822399997,860.158822399997,,,,863.1565811,j,1.3140450000028068,0.15240439999979571,863.1616101999971,863.1616661999979,None,,,,,,,,,,,,,,00057,001,2026-01-18_21h46.54.870,MST_task,2024.2.0,59.91992301506576,2026-01-18 21h47.32.546427 +0530,
,Scenes\017a.jpg,8,0,9,,,,,f,2.028822799999034,0.1605651999998372,None,,,,,,9,0,8,863.1726335999992,,,,,,,,,,,,,,,,,,,,,,,,,,,,,,863.1619899999969,863.1726335999992,863.6755709999998,863.6573812999995,,,,,,,,,,,,,,,,,,,,,,863.6726340999994,863.6755709999998,863.6755709999998,863.6755709999998,,,,866.6732670999991,f,2.028822799999034,0.1605651999998372,866.6734437999985,866.6735096999982,None,,,,,,,,,,,,,,00057,001,2026-01-18_21h46.54.870,MST_task,2024.2.0,59.91992301506576,2026-01-18 21h47.32.546427 +0530,
,Scenes\092a.jpg,9,0,10,,,,,j,1.3148314999998547,0.16736669999954756,None,,,,,,10,0,9,866.6895207999987,,,,,,,,,,,,,,,,,,,,,,,,,,,,,,866.6738693999978,866.6895207999987,867.1905770999983,867.1740909999971,,,,,,,,,,,,,,,,,,,,,,867.1872635999971,867.1905770999983,867.1905770999983,867.1905770999983,,,,870.1897954999986,j,1.3148314999998547,0.16736669999954756,870.1899022999969,870.1899393999993,None,,,,,,,,,,,,,,00057,001,2026-01-18_21h46.54.870,MST_task,2024.2.0,59.91992301506576,2026-01-18 21h47.32.546427 +0530,
,Scenes\132a.jpg,10,0,11,,,,,j,2.093551400001161,0.14379510000071605,None,,,,,,11,0,10,870.2061418999983,,,,,,,,,,,,,,,,,,,,,,,,,,,,,,870.1901278999976,870.2061418999983,870.707359,870.6904529999993,,,,,,,,,,,,,,,,,,,,,,870.7030870999988,870.707359,870.707359,870.707359,,,,873.7065504999991,j,2.093551400001161,0.14379510000071605,873.706740499998,873.7067779999998,None,,,,,,,,,,,,,,00057,001,2026-01-18_21h46.54.870,MST_task,2024.2.0,59.91992301506576,2026-01-18 21h47.32.546427 +0530,
,Scenes\121a.jpg,11,0,12,,,,,j,1.6930365999978676,0.10285260000091512,None,,,,,,12,0,11,873.7226494999995,,,,,,,,,,,,,,,,,,,,,,,,,,,,,,873.7069669999983,873.7226494999995,874.2282037999976,874.2070617999998,,,,,,,,,,,,,,,,,,,,,,874.225021299997,874.2282037999976,874.2282037999976,874.2282037999976,,,,877.2233325999987,j,1.6930365999978676,0.10285260000091512,877.2235053999975,877.2235454000001,None,,,,,,,,,,,,,,00057,001,2026-01-18_21h46.54.870,MST_task,2024.2.0,59.91992301506576,2026-01-18 21h47.32.546427 +0530,
,Scenes\101a.jpg,12,0,13,,,,,j,2.096315800001321,0.12022789999900851,None,,,,,,13,0,12,877.2394844999981,,,,,,,,,,,,,,,,,,,,,,,,,,,,,,877.223826999998,877.2394844999981,877.7445573000005,877.7237642,,,,,,,,,,,,,,,,,,,,,,877.7414236999975,877.7445573000005,877.7445573000005,877.7445573000005,,,,880.7397627999999,j,2.096315800001321,0.12022789999900851,880.7399441999987,880.7400106999994,None,,,,,,,,,,,,,,00057,001,2026-01-18_21h46.54.870,MST_task,2024.2.0,59.91992301506576,2026-01-18 21h47.32.546427 +0530,
,Scenes\119a.jpg,13,0,14,,,,,j,1.9571986000009929,0.15177609999955166,None,,,,,,14,0,13,880.7559521000003,,,,,,,,,,,,,,,,,,,,,,,,,,,,,,880.7403347,880.7559521000003,881.2602146999998,881.2404650999997,,,,,,,,,,,,,,,,,,,,,,881.2566791999998,881.2602146999998,881.2602146999998,881.2602146999998,,,,884.2562483999973,j,1.9571986000009929,0.15177609999955166,884.2563994999982,884.2564538999977,None,,,,,,,,,,,,,,00057,001,2026-01-18_21h46.54.870,MST_task,2024.2.0,59.91992301506576,2026-01-18 21h47.32.546427 +0530,
,Objects\005a.jpg,14,0,15,,,,,f,1.3943147000027238,0.11257189999741968,None,,,,,,15,0,14,884.2723197999985,,,,,,,,,,,,,,,,,,,,,,,,,,,,,,884.2567995999998,884.2723197999985,884.7981989,884.7570280999971,,,,,,,,,,,,,,,,,,,,,,884.7950153999991,884.7981989,884.7981989,884.7981989,,,,887.773151399997,f,1.3943147000027238,0.11257189999741968,887.7768481999992,887.7768861999975,None,,,,,,,,,,,,,,00057,001,2026-01-18_21h46.54.870,MST_task,2024.2.0,59.91992301506576,2026-01-18 21h47.32.546427 +0530,
,Objects\083a.jpg,15,0,16,,,,,f,1.6767039999976987,0.12834189999921364,None,,,,,,16,0,15,887.7895151999983,,,,,,,,,,,,,,,,,,,,,,,,,,,,,,887.7770982000002,887.7895151999983,888.300177699999,888.2736496999969,,,,,,,,,,,,,,,,,,,,,,888.2972247999969,888.300177699999,888.300177699999,888.300177699999,,,,891.2900689999988,f,1.6767039999976987,0.12834189999921364,891.2902393999975,891.2902794000001,None,,,,,,,,,,,,,,00057,001,2026-01-18_21h46.54.870,MST_task,2024.2.0,59.91992301506576,2026-01-18 21h47.32.546427 +0530,
,Objects\114a.jpg,16,0,17,,,,,f,1.946526100000483,0.14377269999749842,None,,,,,,17,0,16,891.3061005999989,,,,,,,,,,,,,,,,,,,,,,,,,,,,,,891.2904796000003,891.3061005999989,,891.7913085999971,,,,,,,,,,,,,,,,,,,,,,891.8196678999993,891.8222648999981,891.8222648999981,891.8222648999981,,,,894.8066351999987,f,1.946526100000483,0.14377269999749842,894.8068074000003,894.8068597999991,None,,,,,,,,,,,,,,00057,001,2026-01-18_21h46.54.870,MST_task,2024.2.0,59.91992301506576,2026-01-18 21h47.32.546427 +0530,
,Objects\053a.jpg,17,0,18,,,,,f,1.8747836999973515,0.16146330000265152,None,,,,,,18,0,17,894.8226269999977,,,,,,,,,,,,,,,,,,,,,,,,,,,,,,894.8071182999993,894.8226269999977,895.3331882999992,895.3072510999991,,,,,,,,,,,,,,,,,,,,,,895.3302807,895.3331882999992,895.3331882999992,895.3331882999992,,,,898.3233522999981,f,1.8747836999973515,0.16146330000265152,898.3235411999995,898.3236061999996,None,,,,,,,,,,,,,,00057,001,2026-01-18_21h46.54.870,MST_task,2024.2.0,59.91992301506576,2026-01-18 21h47.32.546427 +0530,
,Objects\167a.jpg,18,0,19,,,,,f,2.6139990000010584,0.16025309999895399,None,,,,,,19,0,18,898.3393672999991,,,,,,,,,,,,,,,,,,,,,,,,,,,,,,898.3239436000003,898.3393672999991,898.8594382999981,898.8239384999979,,,,,,,,,,,,,,,,,,,,,,898.8562765999995,898.8594382999981,898.8594382999981,898.8594382999981,,,,901.8400344000001,f,2.6139990000010584,0.16025309999895399,901.8401932999986,901.8402322000002,None,,,,,,,,,,,,,,00057,001,2026-01-18_21h46.54.870,MST_task,2024.2.0,59.91992301506576,2026-01-18 21h47.32.546427 +0530,
,Objects\191a.jpg,19,0,20,,,,,f,2.692878500001825,0.14375329999893438,None,,,,,,20,0,19,901.8560184999988,,,,,,,,,,,,,,,,,,,,,,,,,,,,,,901.8404286000005,901.8560184999988,902.3563162999999,902.3406684999973,,,,,,,,,,,,,,,,,,,,,,902.3464415999988,902.3563162999999,902.3563162999999,902.3563162999999,905.3560126999982,905.3560126999982,905.3560126999982,905.3410794999982,f,2.692878500001825,0.14375329999893438,905.341257,905.3413201000003,None,,,,,,,,,,,,,,00057,001,2026-01-18_21h46.54.870,MST_task,2024.2.0,59.91992301506576,2026-01-18 21h47.32.546427 +0530,
,Objects\003a.jpg,20,0,21,,,,,j,1.9919090000003052,0.12826639999912004,None,,,,,,21,0,20,905.3560126999982,,,,,,,,,,,,,,,,,,,,,,,,,,,,,,905.3417690999995,905.3560126999982,905.8563213999987,905.8406213999988,,,,,,,,,,,,,,,,,,,,,,905.848606399999,905.8563213999987,905.8563213999987,905.8563213999987,908.856045499997,908.856045499997,908.856045499997,908.8414890999993,j,1.9919090000003052,0.12826639999912004,908.8416662999989,908.8417306999982,None,,,,,,,,,,,,,,00057,001,2026-01-18_21h46.54.870,MST_task,2024.2.0,59.91992301506576,2026-01-18 21h47.32.546427 +0530,
,Scenes\130a.jpg,21,0,22,,,,,j,1.4713172000010672,0.1451651999996102,None,,,,,,22,0,21,908.856045499997,,,,,,,,,,,,,,,,,,,,,,,,,,,,,,908.8419947999973,908.856045499997,909.3607980999986,909.3406868999991,,,,,,,,,,,,,,,,,,,,,,909.3575592999987,909.3607980999986,909.3607980999986,909.3607980999986,,,,912.3563161999991,j,1.4713172000010672,0.1451651999996102,912.3609794000004,912.3610618999992,None,,,,,,,,,,,,,,00057,001,2026-01-18_21h46.54.870,MST_task,2024.2.0,59.91992301506576,2026-01-18 21h47.32.546427 +0530,
,Scenes\071a.jpg,22,0,23,,,,,j,2.1441837000020314,0.1202408999997715,None,,,,,,23,0,22,912.372660099998,,,,,,,,,,,,,,,,,,,,,,,,,,,,,,912.3613237999998,912.372660099998,912.9683110999977,912.8570464000004,,,,,,,,,,,,,,,,,,,,,,912.9647654,912.9683110999977,912.9683110999977,912.9683110999977,,,,915.8732275000002,j,2.1441837000020314,0.1202408999997715,915.8733495999986,915.8733900999978,None,,,,,,,,,,,,,,00057,001,2026-01-18_21h46.54.870,MST_task,2024.2.0,59.91992301506576,2026-01-18 21h47.32.546427 +0530,
,Scenes\072a.jpg,23,0,24,,,,,j,2.7266686000002665,0.09565659999861964,None,,,,,,24,0,23,915.889217099997,,,,,,,,,,,,,,,,,,,,,,,,,,,,,,915.8736013999987,915.889217099997,916.3940137999998,916.3736293000002,,,,,,,,,,,,,,,,,,,,,,916.3910407000003,916.3940137999998,916.3940137999998,916.3940137999998,,,,919.3899023999984,j,2.7266686000002665,0.09565659999861964,919.3900780000004,919.3901436999986,None,,,,,,,,,,,,,,00057,001,2026-01-18_21h46.54.870,MST_task,2024.2.0,59.91992301506576,2026-01-18 21h47.32.546427 +0530,
,Scenes\117a.jpg,24,0,25,,,,,j,1.3004395000025397,0.09731189999729395,None,,,,,,25,0,24,919.4060497999999,,,,,,,,,,,,,,,,,,,,,,,,,,,,,,919.3904621999973,919.4060497999999,919.9080020000001,919.8902818999995,,,,,,,,,,,,,,,,,,,,,,919.9047417999973,919.9080020000001,919.9080020000001,919.9080020000001,,,,922.8908693999983,j,1.3004395000025397,0.09731189999729395,922.8912729000003,922.8913164000005,None,,,,,,,,,,,,,,00057,001,2026-01-18_21h46.54.870,MST_task,2024.2.0,59.91992301506576,2026-01-18 21h47.32.546427 +0530,
,Scenes\066a.jpg,25,0,26,,,,,j,1.417106099997909,0.15240780000021914,None,,,,,,26,0,25,922.9060417000001,,,,,,,,,,,,,,,,,,,,,,,,,,,,,,922.8916117999979,922.9060417000001,923.406877399997,923.3902506999984,,,,,,,,,,,,,,,,,,,,,,923.401146799999,923.406877399997,923.406877399997,923.406877399997,926.4061282999974,926.4061282999974,926.4061282999974,926.3909114999988,j,1.417106099997909,0.15240780000021914,926.3910897999995,926.3911544000002,None,,,,,,,,,,,,,,00057,001,2026-01-18_21h46.54.870,MST_task,2024.2.0,59.91992301506576,2026-01-18 21h47.32.546427 +0530,
,Scenes\067a.jpg,26,0,27,,,,,f,2.381528800000524,0.144777299999987,None,,,,,,27,0,26,926.4061282999974,,,,,,,,,,,,,,,,,,,,,,,,,,,,,,926.3916307,926.4061282999974,926.9068427999991,926.8906164999971,,,,,,,,,,,,,,,,,,,,,,926.900969899998,926.9068427999991,926.9068427999991,926.9068427999991,929.9060021000005,929.9060021000005,929.9060021000005,929.8915344999987,f,2.381528800000524,0.144777299999987,929.8916874999995,929.8917409999995,None,,,,,,,,,,,,,,00057,001,2026-01-18_21h46.54.870,MST_task,2024.2.0,59.91992301506576,2026-01-18 21h47.32.546427 +0530,
,Scenes\180a.jpg,27,0,28,,,,,j,1.7148328999974183,0.13517540000248118,None,,,,,,28,0,27,929.9060021000005,,,,,,,,,,,,,,,,,,,,,,,,,,,,,,929.8920337999989,929.9060021000005,930.4065000999981,930.3902849999977,,,,,,,,,,,,,,,,,,,,,,930.4021388999972,930.4065000999981,930.4065000999981,930.4065000999981,933.4060597999996,933.4060597999996,933.4060597999996,933.3913107999979,j,1.7148328999974183,0.13517540000248118,933.3914869,933.3915505999976,None,,,,,,,,,,,,,,00057,001,2026-01-18_21h46.54.870,MST_task,2024.2.0,59.91992301506576,2026-01-18 21h47.32.546427 +0530,
,Objects\092a.jpg,28,0,29,,,,,f,1.8216274999977031,0.17656369999895105,None,,,,,,29,0,28,933.4060597999996,,,,,,,,,,,,,,,,,,,,,,,,,,,,,,933.3918612999987,933.4060597999996,933.9067416999969,933.8905467000004,,,,,,,,,,,,,,,,,,,,,,933.9003663000003,933.9067416999969,933.9067416999969,933.9067416999969,936.9062271000003,936.9062271000003,936.9062271000003,936.8913689999972,f,1.8216274999977031,0.17656369999895105,936.8960119000003,936.8960458999973,None,,,,,,,,,,,,,,00057,001,2026-01-18_21h46.54.870,MST_task,2024.2.0,59.91992301506576,2026-01-18 21h47.32.546427 +0530,
,Objects\103a.jpg,29,0,30,,,,,j,1.4022576000024856,0.16027810000014142,None,,,,,,30,0,29,936.9062271000003,,,,,,,,,,,,,,,,,,,,,,,,,,,,,,936.8962405999991,936.9062271000003,937.4062104999975,937.3903470999976,,,,,,,,,,,,,,,,,,,,,,937.3992808000003,937.4062104999975,937.4062104999975,937.4062104999975,940.4061891999991,940.4061891999991,940.4061891999991,940.3910886999984,j,1.4022576000024856,0.16027810000014142,940.3912655999993,940.3913298999978,None,,,,,,,,,,,,,,00057,001,2026-01-18_21h46.54.870,MST_task,2024.2.0,59.91992301506576,2026-01-18 21h47.32.546427 +0530,
,Objects\063a.jpg,30,0,31,,,,,f,1.326792399999249,0.21546820000003208,None,,,,,,31,0,30,940.4061891999991,,,,,,,,,,,,,,,,,,,,,,,,,,,,,,940.3917612000005,940.4061891999991,940.9063954999983,940.8904000999974,,,,,,,,,,,,,,,,,,,,,,940.8971738,940.9063954999983,940.9063954999983,940.9063954999983,943.9062597999982,943.9062597999982,943.9062597999982,943.8911821000002,f,1.326792399999249,0.21546820000003208,943.891305899997,943.8913424999992,None,,,,,,,,,,,,,,00057,001,2026-01-18_21h46.54.870,MST_task,2024.2.0,59.91992301506576,2026-01-18 21h47.32.546427 +0530,
,Objects\006a.jpg,31,0,32,,,,,f,2.2025676000012027,0.16075920000002952,None,,,,,,32,0,31,943.9062597999982,,,,,,,,,,,,,,,,,,,,,,,,,,,,,,943.8916059999974,943.9062597999982,944.421637899999,944.3904263000004,,,,,,,,,,,,,,,,,,,,,,944.4188892999991,944.421637899999,944.421637899999,944.421637899999,,,,947.4067367999996,f,2.2025676000012027,0.16075920000002952,947.4069025999997,947.4069414999976,None,,,,,,,,,,,,,,00057,001,2026-01-18_21h46.54.870,MST_task,2024.2.0,59.91992301506576,2026-01-18 21h47.32.546427 +0530,
,Objects\087a.jpg,32,0,33,,,,,j,1.8450780999992276,0.14505610000196612,None,,,,,,33,0,32,947.4226985999994,,,,,,,,,,,,,,,,,,,,,,,,,,,,,,947.4071436999984,947.4226985999994,947.923010999999,947.9071772999996,,,,,,,,,,,,,,,,,,,,,,947.913792899999,947.923010999999,947.923010999999,947.923010999999,950.9238144999981,950.9238144999981,950.9238144999981,950.9081029999979,j,1.8450780999992276,0.14505610000196612,950.908233099999,950.9082763999977,None,,,,,,,,,,,,,,00057,001,2026-01-18_21h46.54.870,MST_task,2024.2.0,59.91992301506576,2026-01-18 21h47.32.546427 +0530,
,Objects\066a.jpg,33,0,34,,,,,f,1.8095960000027844,0.1915800999995554,None,,,,,,34,0,33,950.9238144999981,,,,,,,,,,,,,,,,,,,,,,,,,,,,,,950.9085884999986,950.9238144999981,951.4229798999986,951.4076229999991,,,,,,,,,,,,,,,,,,,,,,951.4136837999977,951.4229798999986,951.4229798999986,951.4229798999986,954.4227720999988,954.4227720999988,954.4227720999988,954.4080235999973,f,1.8095960000027844,0.1915800999995554,954.4082038999986,954.4082691999974,None,,,,,,,,,,,,,,00057,001,2026-01-18_21h46.54.870,MST_task,2024.2.0,59.91992301506576,2026-01-18 21h47.32.546427 +0530,
,Objects\068a.jpg,34,0,35,,,,,f,2.516986700000416,0.21658340000067255,None,,,,,,35,0,34,954.4227720999988,,,,,,,,,,,,,,,,,,,,,,,,,,,,,,954.4085847999995,954.4227720999988,954.9230967000003,954.9072138999982,,,,,,,,,,,,,,,,,,,,,,954.9135762999977,954.9230967000003,954.9230967000003,954.9230967000003,957.9226939,957.9226939,957.9226939,957.9079184999973,f,2.516986700000416,0.21658340000067255,957.9080995999975,957.9081632999987,None,,,,,,,,,,,,,,00057,001,2026-01-18_21h46.54.870,MST_task,2024.2.0,59.91992301506576,2026-01-18 21h47.32.546427 +0530,
,Scenes\018a.jpg,35,0,36,,,,,j,2.0428686999985075,0.21616700000231504,None,,,,,,36,0,35,957.9226939,,,,,,,,,,,,,,,,,,,,,,,,,,,,,,957.9084081999972,957.9226939,958.4699322999986,958.407223299997,,,,,,,,,,,,,,,,,,,,,,958.4667403999993,958.4699322999986,958.4699322999986,958.4699322999986,,,,961.4233189999977,j,2.0428686999985075,0.21616700000231504,961.428886499998,961.4289453999991,None,,,,,,,,,,,,,,00057,001,2026-01-18_21h46.54.870,MST_task,2024.2.0,59.91992301506576,2026-01-18 21h47.32.546427 +0530,
,Scenes\049a.jpg,36,0,37,,,,,None,,,j,0.037086600001202896,None,,,,37,0,36,961.4393343999982,,,,,,,,,,,,,,,,,,,,,,,,,,,,,,961.4291249999987,961.4393343999982,961.9427116999977,961.9239660999992,,,,,,,,,,,,,,,,,,,,,,961.939184699997,961.9427116999977,961.9427116999977,961.9427116999977,,,,964.9398744999999,None,,,964.9400294999978,965.0075612,j,964.9559136999997,964.9559136999997,0.037086600001202896,None,,,,,,,,,,00057,001,2026-01-18_21h46.54.870,MST_task,2024.2.0,59.91992301506576,2026-01-18 21h47.32.546427 +0530,
,Scenes\125a.jpg,37,0,38,,,,,j,2.416540400001395,0.18321110000033514,None,,,,,,38,0,37,965.0226900999987,,,,,,,,,,,,,,,,,,,,,,,,,,,,,,965.0080517999995,965.0226900999987,965.5292640999978,965.507393099997,,,,,,,,,,,,,,,,,,,,,,965.5255298999982,965.5292640999978,965.5292640999978,965.5292640999978,,,,968.5231093999973,j,2.416540400001395,0.18321110000033514,968.5232872999986,968.5233492999978,None,,,,,,,,,,,,,,00057,001,2026-01-18_21h46.54.870,MST_task,2024.2.0,59.91992301506576,2026-01-18 21h47.32.546427 +0530,
,Scenes\027a.jpg,38,0,39,,,,,f,1.688776200000575,0.1924448999998276,None,,,,,,39,0,38,968.5393667999997,,,,,,,,,,,,,,,,,,,,,,,,,,,,,,968.5236268999979,968.5393667999997,969.0400842999989,969.0237004999981,,,,,,,,,,,,,,,,,,,,,,969.0347856999979,969.0400842999989,969.0400842999989,969.0400842999989,972.0394135999995,972.0394135999995,972.0394135999995,972.0246190999969,f,1.688776200000575,0.1924448999998276,972.0247987999974,972.0248642999977,None,,,,,,,,,,,,,,00057,001,2026-01-18_21h46.54.870,MST_task,2024.2.0,59.91992301506576,2026-01-18 21h47.32.546427 +0530,
,Scenes\100a.jpg,39,0,40,,,,,f,1.9728445000000647,0.17595230000006268,None,,,,,,40,0,39,972.0394135999995,,,,,,,,,,,,,,,,,,,,,,,,,,,,,,972.0252015999977,972.0394135999995,972.5400491999972,972.5239803999975,,,,,,,,,,,,,,,,,,,,,,972.5368366999974,972.5400491999972,972.5400491999972,972.5400491999972,975.539335999998,975.539335999998,975.539335999998,975.5242882999992,f,1.9728445000000647,0.17595230000006268,975.524406499997,975.5244445999997,None,,,,,,,,,,,,,,00057,001,2026-01-18_21h46.54.870,MST_task,2024.2.0,59.91992301506576,2026-01-18 21h47.32.546427 +0530,
,Scenes\085a.jpg,40,0,41,,,,,j,2.0579102000010607,0.16856510000070557,None,,,,,,41,0,40,975.539335999998,,,,,,,,,,,,,,,,,,,,,,,,,,,,,,975.524861599999,975.539335999998,976.0468384999986,976.023667999998,,,,,,,,,,,,,,,,,,,,,,976.0432136999989,976.0468384999986,976.0468384999986,976.0468384999986,,,,979.0395680000001,j,2.0579102000010607,0.16856510000070557,979.0397234999982,979.0397823999992,None,,,,,,,,,,,,,,00057,001,2026-01-18_21h46.54.870,MST_task,2024.2.0,59.91992301506576,2026-01-18 21h47.32.546427 +0530,
,Scenes\181a.jpg,41,0,42,,,,,f,1.2994011000009777,0.1924016999982996,None,,,,,,42,0,41,979.0556322999983,,,,,,,,,,,,,,,,,,,,,,,,,,,,,,979.0401644999984,979.0556322999983,979.6134170000005,979.5406683000001,,,,,,,,,,,,,,,,,,,,,,979.6103468000001,979.6134170000005,979.6134170000005,979.6134170000005,,,,982.5564228000003,f,1.2994011000009777,0.1924016999982996,982.5565508,982.5565965999995,None,,,,,,,,,,,,,,00057,001,2026-01-18_21h46.54.870,MST_task,2024.2.0,59.91992301506576,2026-01-18 21h47.32.546427 +0530,
,Objects\016a.jpg,42,0,43,,,,,f,1.39988380000068,0.2078641999978572,None,,,,,,43,0,42,982.572684499999,,,,,,,,,,,,,,,,,,,,,,,,,,,,,,982.556818699999,982.572684499999,983.0733824999988,983.0571801999977,,,,,,,,,,,,,,,,,,,,,,983.0685577999975,983.0733824999988,983.0733824999988,983.0733824999988,986.0726603999974,986.0726603999974,986.0726603999974,986.0579718999979,f,1.39988380000068,0.2078641999978572,986.0617381999982,986.0617638999975,None,,,,,,,,,,,,,,00057,001,2026-01-18_21h46.54.870,MST_task,2024.2.0,59.91992301506576,2026-01-18 21h47.32.546427 +0530,
,Objects\079a.jpg,43,0,44,,,,,j,2.267882700001792,0.16763480000008713,None,,,,,,44,0,43,986.0726603999974,,,,,,,,,,,,,,,,,,,,,,,,,,,,,,986.0619237999999,986.0726603999974,986.5729905999979,986.5572597999999,,,,,,,,,,,,,,,,,,,,,,986.5632487999974,986.5729905999979,986.5729905999979,986.5729905999979,989.5734828999994,989.5734828999994,989.5734828999994,989.5579753999991,j,2.267882700001792,0.16763480000008713,989.5581645999991,989.5582082999972,None,,,,,,,,,,,,,,00057,001,2026-01-18_21h46.54.870,MST_task,2024.2.0,59.91992301506576,2026-01-18 21h47.32.546427 +0530,
,Objects\187a.jpg,44,0,45,,,,,f,1.2985073999989254,0.1914656000008108,None,,,,,,45,0,44,989.5734828999994,,,,,,,,,,,,,,,,,,,,,,,,,,,,,,989.5585221999972,989.5734828999994,990.102408499999,990.0571323000004,,,,,,,,,,,,,,,,,,,,,,990.0999635999979,990.102408499999,990.102408499999,990.102408499999,,,,993.0731794999992,f,1.2985073999989254,0.1914656000008108,993.0733712999972,993.0734370999999,None,,,,,,,,,,,,,,00057,001,2026-01-18_21h46.54.870,MST_task,2024.2.0,59.91992301506576,2026-01-18 21h47.32.546427 +0530,
,Objects\096a.jpg,45,0,46,,,,,f,1.8232974000020477,0.18402659999992466,None,,,,,,46,0,45,993.089441199998,,,,,,,,,,,,,,,,,,,,,,,,,,,,,,993.0737728999993,993.089441199998,993.6096126999983,993.5738421999995,,,,,,,,,,,,,,,,,,,,,,993.6068825000002,993.6096126999983,993.6096126999983,993.6096126999983,,,,996.5912248999994,f,1.8232974000020477,0.18402659999992466,996.5914167999981,996.5914830000002,None,,,,,,,,,,,,,,00057,001,2026-01-18_21h46.54.870,MST_task,2024.2.0,59.91992301506576,2026-01-18 21h47.32.546427 +0530,
,Objects\174a.jpg,46,0,47,,,,,f,2.069556200000079,0.1688694000004034,None,,,,,,47,0,46,996.6060923999976,,,,,,,,,,,,,,,,,,,,,,,,,,,,,,996.5918218999977,996.6060923999976,997.1062808999995,997.0904167999979,,,,,,,,,,,,,,,,,,,,,,997.0962311999974,997.1062808999995,997.1062808999995,997.1062808999995,1000.1060961000003,1000.1060961000003,1000.1060961000003,1000.0909460999974,f,2.069556200000079,0.1688694000004034,1000.0911221999995,1000.0911866999995,None,,,,,,,,,,,,,,00057,001,2026-01-18_21h46.54.870,MST_task,2024.2.0,59.91992301506576,2026-01-18 21h47.32.546427 +0530,
,Objects\178a.jpg,47,0,48,,,,,f,1.7066395000001648,0.11975529999835999,None,,,,,,48,0,47,1000.1060961000003,,,,,,,,,,,,,,,,,,,,,,,,,,,,,,1000.0916139999972,1000.1060961000003,1000.6063627999974,1000.5904899999987,,,,,,,,,,,,,,,,,,,,,,1000.5997518999975,1000.6063627999974,1000.6063627999974,1000.6063627999974,1003.6061138000005,1003.6061138000005,1003.6061138000005,1003.5911782000003,f,1.7066395000001648,0.11975529999835999,1003.5913545000003,1003.5914181999979,None,,,,,,,,,,,,,,00057,001,2026-01-18_21h46.54.870,MST_task,2024.2.0,59.91992301506576,2026-01-18 21h47.32.546427 +0530,
,Objects\015a.jpg,48,0,49,,,,,f,1.5096353000008094,0.2485828999997466,None,,,,,,49,0,48,1003.6061138000005,,,,,,,,,,,,,,,,,,,,,,,,,,,,,,1003.5917523999997,1003.6061138000005,1004.1064173999985,1004.0904808999985,,,,,,,,,,,,,,,,,,,,,,1004.09951,1004.1064173999985,1004.1064173999985,1004.1064173999985,1007.1061869000005,1007.1061869000005,1007.1061869000005,1007.0912269999972,f,1.5096353000008094,0.2485828999997466,1007.0913662999992,1007.0914101999988,None,,,,,,,,,,,,,,00057,001,2026-01-18_21h46.54.870,MST_task,2024.2.0,59.91992301506576,2026-01-18 21h47.32.546427 +0530,
,Scenes\172a.jpg,49,0,50,,,,,j,1.565641199998936,0.19197989999884157,None,,,,,,50,0,49,1007.1061869000005,,,,,,,,,,,,,,,,,,,,,,,,,,,,,,1007.0916938999981,1007.1061869000005,1007.6109718999978,1007.5906364999973,,,,,,,,,,,,,,,,,,,,,,1007.6077412999985,1007.6109718999978,1007.6109718999978,1007.6109718999978,,,,1010.6064065999999,j,1.565641199998936,0.19197989999884157,1010.6106612999974,1010.6106820999994,None,,,,,,,,,,,,,,00057,001,2026-01-18_21h46.54.870,MST_task,2024.2.0,59.91992301506576,2026-01-18 21h47.32.546427 +0530,
,Scenes\122a.jpg,50,0,51,,,,,f,1.555677199998172,0.25634379999974044,None,,,,,,51,0,50,1010.6227497,,,,,,,,,,,,,,,,,,,,,,,,,,,,,,1010.6107658000001,1010.6227497,1011.1247881999989,1011.1072797999987,,,,,,,,,,,,,,,,,,,,,,1011.1215660999987,1011.1247881999989,1011.1247881999989,1011.1247881999989,,,,1014.1231451999993,f,1.555677199998172,0.25634379999974044,1014.1233265999981,1014.1233900999978,None,,,,,,,,,,,,,,00057,001,2026-01-18_21h46.54.870,MST_task,2024.2.0,59.91992301506576,2026-01-18 21h47.32.546427 +0530,
,Scenes\046a.jpg,51,0,52,,,,,j,1.1932455999995,0.2161338000005344,None,,,,,,52,0,51,1014.139704199999,,,,,,,,,,,,,,,,,,,,,,,,,,,,,,1014.1237387000001,1014.139704199999,1014.6472842999974,1014.6241203999998,,,,,,,,,,,,,,,,,,,,,,1014.6436390999988,1014.6472842999974,1014.6472842999974,1014.6472842999974,,,,1017.6397800999985,j,1.1932455999995,0.2161338000005344,1017.6399391999985,1017.6399872000002,None,,,,,,,,,,,,,,00057,001,2026-01-18_21h46.54.870,MST_task,2024.2.0,59.91992301506576,2026-01-18 21h47.32.546427 +0530,
,Scenes\011a.jpg,52,0,53,,,,,j,2.3436953999989782,0.1680022000000463,None,,,,,,53,0,52,1017.6560078999973,,,,,,,,,,,,,,,,,,,,,,,,,,,,,,1017.6403793999998,1017.6560078999973,1018.1693721999982,1018.1403257999991,,,,,,,,,,,,,,,,,,,,,,1018.1656007999991,1018.1693721999982,1018.1693721999982,1018.1693721999982,,,,1021.1567568999999,j,2.3436953999989782,0.1680022000000463,1021.1569023999982,1021.1569415999984,None,,,,,,,,,,,,,,00057,001,2026-01-18_21h46.54.870,MST_task,2024.2.0,59.91992301506576,2026-01-18 21h47.32.546427 +0530,
,Scenes\038a.jpg,53,0,54,,,,,j,1.7749742999985756,0.19225939999887487,None,,,,,,54,0,53,1021.1729125999991,,,,,,,,,,,,,,,,,,,,,,,,,,,,,,1021.157217699998,1021.1729125999991,1021.6735320999978,1021.6570577999992,,,,,,,,,,,,,,,,,,,,,,1021.6701496999995,1021.6735320999978,1021.6735320999978,1021.6735320999978,1024.6727016000004,1024.6727016000004,1024.6727016000004,1024.6581345999984,j,1.7749742999985756,0.19225939999887487,1024.6582918999993,1024.6583312000002,None,,,,,,,,,,,,,,00057,001,2026-01-18_21h46.54.870,MST_task,2024.2.0,59.91992301506576,2026-01-18 21h47.32.546427 +0530,
,Scenes\106a.jpg,54,0,55,,,,,j,1.8861198000013246,0.1675424999993993,None,,,,,,55,0,54,1024.6727016000004,,,,,,,,,,,,,,,,,,,,,,,,,,,,,,1024.658614699998,1024.6727016000004,1025.2511765999989,1025.1573508000001,,,,,,,,,,,,,,,,,,,,,,1025.2477385999991,1025.2511765999989,1025.2511765999989,1025.2511765999989,,,,1028.1734479999977,j,1.8861198000013246,0.1675424999993993,1028.1736399999972,1028.1737235999972,None,,,,,,,,,,,,,,00057,001,2026-01-18_21h46.54.870,MST_task,2024.2.0,59.91992301506576,2026-01-18 21h47.32.546427 +0530,
,Scenes\050a.jpg,55,0,56,,,,,j,1.597139999998035,0.23946649999925285,None,,,,,,56,0,55,1028.189629299999,,,,,,,,,,,,,,,,,,,,,,,,,,,,,,1028.1743389000003,1028.189629299999,1028.6925873999971,1028.6737614999984,,,,,,,,,,,,,,,,,,,,,,1028.6889229999979,1028.6925873999971,1028.6925873999971,1028.6925873999971,,,,1031.6897126000003,j,1.597139999998035,0.23946649999925285,1031.6898898,1031.689954399997,None,,,,,,,,,,,,,,00057,001,2026-01-18_21h46.54.870,MST_task,2024.2.0,59.91992301506576,2026-01-18 21h47.32.546427 +0530,
,Objects\129a.jpg,56,0,57,,,,,f,1.2181378999994195,0.2404606000018248,None,,,,,,57,0,56,1031.706065399998,,,,,,,,,,,,,,,,,,,,,,,,,,,,,,1031.6902878999972,1031.706065399998,1032.2065597999972,1032.1906130999996,,,,,,,,,,,,,,,,,,,,,,1032.1999432999983,1032.2065597999972,1032.2065597999972,1032.2065597999972,1035.2059453999973,1035.2059453999973,1035.2059453999973,1035.190627099997,f,1.2181378999994195,0.2404606000018248,1035.1939493999998,1035.1939810999975,None,,,,,,,,,,,,,,00057,001,2026-01-18_21h46.54.870,MST_task,2024.2.0,59.91992301506576,2026-01-18 21h47.32.546427 +0530,
,Objects\044a.jpg,57,0,58,,,,,f,1.526875100000325,0.19076870000208146,None,,,,,,58,0,57,1035.2059453999973,,,,,,,,,,,,,,,,,,,,,,,,,,,,,,1035.1941646999985,1035.2059453999973,1035.7062955000001,1035.6904867999983,,,,,,,,,,,,,,,,,,,,,,1035.6963149999974,1035.7062955000001,1035.7062955000001,1035.7062955000001,1038.7059955999976,1038.7059955999976,1038.7059955999976,1038.6913518999972,f,1.526875100000325,0.19076870000208146,1038.6914691999991,1038.691509999997,None,,,,,,,,,,,,,,00057,001,2026-01-18_21h46.54.870,MST_task,2024.2.0,59.91992301506576,2026-01-18 21h47.32.546427 +0530,
,Objects\105a.jpg,58,0,59,,,,,f,1.706981999999698,0.18315029999939725,None,,,,,,59,0,58,1038.7059955999976,,,,,,,,,,,,,,,,,,,,,,,,,,,,,,1038.6917350999975,1038.7059955999976,1039.206166099997,1039.1901443999996,,,,,,,,,,,,,,,,,,,,,,1039.195971899997,1039.206166099997,1039.206166099997,1039.206166099997,1042.2061188999978,1042.2061188999978,1042.2061188999978,1042.1911631000003,f,1.706981999999698,0.18315029999939725,1042.1913472999986,1042.1914204999994,None,,,,,,,,,,,,,,00057,001,2026-01-18_21h46.54.870,MST_task,2024.2.0,59.91992301506576,2026-01-18 21h47.32.546427 +0530,
,Objects\177a.jpg,59,0,60,,,,,j,1.6631773000008252,0.23195380000106525,None,,,,,,60,0,59,1042.2061188999978,,,,,,,,,,,,,,,,,,,,,,,,,,,,,,1042.1917013999991,1042.2061188999978,1042.7287469000003,1042.6903638000003,,,,,,,,,,,,,,,,,,,,,,1042.7256882999973,1042.7287469000003,1042.7287469000003,1042.7287469000003,,,,1045.7061572999992,j,1.6631773000008252,0.23195380000106525,1045.7063014999985,1045.7063541999996,None,,,,,,,,,,,,,,00057,001,2026-01-18_21h46.54.870,MST_task,2024.2.0,59.91992301506576,2026-01-18 21h47.32.546427 +0530,
,Objects\018a.jpg,60,0,61,,,,,f,1.580733999999211,0.17674070000066422,None,,,,,,61,0,60,1045.7229353999974,,,,,,,,,,,,,,,,,,,,,,,,,,,,,,1045.7067057999993,1045.7229353999974,,1046.2066124999983,,,,,,,,,,,,,,,,,,,,,,1046.256360899999,1046.2596928999992,1046.2596928999992,1046.2596928999992,,,,1049.2230998999985,f,1.580733999999211,0.17674070000066422,1049.223282699997,1049.2233473999986,None,,,,,,,,,,,,,,00057,001,2026-01-18_21h46.54.870,MST_task,2024.2.0,59.91992301506576,2026-01-18 21h47.32.546427 +0530,
,Objects\045a.jpg,61,0,62,,,,,j,1.6775861999994959,0.16788300000189338,None,,,,,,62,0,61,1049.2395088999983,,,,,,,,,,,,,,,,,,,,,,,,,,,,,,1049.2236664999982,1049.2395088999983,1049.7395904000005,1049.7237511999992,,,,,,,,,,,,,,,,,,,,,,1049.7297106999977,1049.7395904000005,1049.7395904000005,1049.7395904000005,,,,1052.7241508999978,j,1.6775861999994959,0.16788300000189338,1052.7242597999975,1052.7242966999984,None,,,,,,,,,,,,,,00057,001,2026-01-18_21h46.54.870,MST_task,2024.2.0,59.91992301506576,2026-01-18 21h47.32.546427 +0530,
,Objects\091a.jpg,62,0,63,,,,,j,2.1371482999966247,0.19238600000244332,None,,,,,,63,0,62,1052.7392901999992,,,,,,,,,,,,,,,,,,,,,,,,,,,,,,1052.7245676999992,1052.7392901999992,1053.2398981999977,1053.2237352999982,,,,,,,,,,,,,,,,,,,,,,1053.2318333999974,1053.2398981999977,1053.2398981999977,1053.2398981999977,1056.239304499999,1056.239304499999,1056.239304499999,1056.224775999999,j,2.1371482999966247,0.19238600000244332,1056.2249639999973,1056.225004099997,None,,,,,,,,,,,,,,00057,001,2026-01-18_21h46.54.870,MST_task,2024.2.0,59.91992301506576,2026-01-18 21h47.32.546427 +0530,
,Scenes\023a.jpg,63,0,64,,,,,f,1.9509222000015143,0.19162969999888446,None,,,,,,64,0,63,1056.239304499999,,,,,,,,,,,,,,,,,,,,,,,,,,,,,,1056.2254143999999,1056.239304499999,1056.745940599998,1056.7238601999998,,,,,,,,,,,,,,,,,,,,,,1056.7426068999994,1056.745940599998,1056.745940599998,1056.745940599998,,,,1059.7398854999992,f,1.9509222000015143,0.19162969999888446,1059.7449323,1059.7449529999976,None,,,,,,,,,,,,,,00057,001,2026-01-18_21h46.54.870,MST_task,2024.2.0,59.91992301506576,2026-01-18 21h47.32.546427 +0530,
,Scenes\110a.jpg,64,0,65,,,,,j,1.5599191000001156,0.14377629999944475,None,,,,,,65,0,64,1059.755927299997,,,,,,,,,,,,,,,,,,,,,,,,,,,,,,1059.7450723000002,1059.755927299997,1060.257149699999,1060.2406259999989,,,,,,,,,,,,,,,,,,,,,,1060.253791199997,1060.257149699999,1060.257149699999,1060.257149699999,,,,1063.2563348000003,j,1.5599191000001156,0.14377629999944475,1063.256504699999,1063.2565694000004,None,,,,,,,,,,,,,,00057,001,2026-01-18_21h46.54.870,MST_task,2024.2.0,59.91992301506576,2026-01-18 21h47.32.546427 +0530,
,Scenes\123a.jpg,65,0,66,,,,,j,1.4197285000009288,0.215795000000071,None,,,,,,66,0,65,1063.2727995999994,,,,,,,,,,,,,,,,,,,,,,,,,,,,,,1063.2569879000002,1063.2727995999994,1063.7733883999972,1063.7568051999988,,,,,,,,,,,,,,,,,,,,,,1063.7669341999972,1063.7733883999972,1063.7733883999972,1063.7733883999972,1066.7728112000004,1066.7728112000004,1066.7728112000004,1066.757807099999,j,1.4197285000009288,0.215795000000071,1066.7578828999976,1066.7579073999987,None,,,,,,,,,,,,,,00057,001,2026-01-18_21h46.54.870,MST_task,2024.2.0,59.91992301506576,2026-01-18 21h47.32.546427 +0530,
,Scenes\126a.jpg,66,0,67,,,,,j,1.6067970000003697,0.2006455000009737,None,,,,,,67,0,66,1066.7728112000004,,,,,,,,,,,,,,,,,,,,,,,,,,,,,,1066.7580950999982,1066.7728112000004,1067.2733845999974,1067.2570596999976,,,,,,,,,,,,,,,,,,,,,,1067.2690115999976,1067.2733845999974,1067.2733845999974,1067.2733845999974,1070.2728400999986,1070.2728400999986,1070.2728400999986,1070.2580393999997,j,1.6067970000003697,0.2006455000009737,1070.2582126999987,1070.2582741999977,None,,,,,,,,,,,,,,00057,001,2026-01-18_21h46.54.870,MST_task,2024.2.0,59.91992301506576,2026-01-18 21h47.32.546427 +0530,
,Scenes\004a.jpg,67,0,68,,,,,f,1.8828376999990724,0.2172339999997348,None,,,,,,68,0,67,1070.2728400999986,,,,,,,,,,,,,,,,,,,,,,,,,,,,,,1070.2587139999996,1070.2728400999986,1070.7734125999996,1070.7565885000004,,,,,,,,,,,,,,,,,,,,,,1070.7694712999983,1070.7734125999996,1070.7734125999996,1070.7734125999996,1073.772640799998,1073.772640799998,1073.772640799998,1073.7571676999978,f,1.8828376999990724,0.2172339999997348,1073.7573316999988,1073.7573816000004,None,,,,,,,,,,,,,,00057,001,2026-01-18_21h46.54.870,MST_task,2024.2.0,59.91992301506576,2026-01-18 21h47.32.546427 +0530,
,Scenes\144a.jpg,68,0,69,,,,,j,1.7172284999978729,0.15238239999962389,None,,,,,,69,0,68,1073.772640799998,,,,,,,,,,,,,,,,,,,,,,,,,,,,,,1073.7577692999985,1073.772640799998,1074.3152808999985,1074.257080299998,,,,,,,,,,,,,,,,,,,,,,1074.3117239999992,1074.3152808999985,1074.3152808999985,1074.3152808999985,,,,1077.2729768999998,j,1.7172284999978729,0.15238239999962389,1077.2731155999973,1077.2731639999984,None,,,,,,,,,,,,,,00057,001,2026-01-18_21h46.54.870,MST_task,2024.2.0,59.91992301506576,2026-01-18 21h47.32.546427 +0530,
,Scenes\086a.jpg,69,0,70,,,,,j,2.0569174000011117,0.19052480000027572,None,,,,,,70,0,69,1077.2893573999972,,,,,,,,,,,,,,,,,,,,,,,,,,,,,,1077.273494699999,1077.2893573999972,1077.7924566999973,1077.773515099998,,,,,,,,,,,,,,,,,,,,,,1077.7889905999982,1077.7924566999973,1077.7924566999973,1077.7924566999973,,,,1080.7898719999976,j,2.0569174000011117,0.19052480000027572,1080.7899822,1080.7900219999974,None,,,,,,,,,,,,,,00057,001,2026-01-18_21h46.54.870,MST_task,2024.2.0,59.91992301506576,2026-01-18 21h47.32.546427 +0530,
,Objects\086a.jpg,70,0,71,,,,,j,1.3485889000003226,0.216964299997926,None,,,,,,71,0,70,1080.806344499997,,,,,,,,,,,,,,,,,,,,,,,,,,,,,,1080.7902379999978,1080.806344499997,1081.331902599999,1081.2904780999997,,,,,,,,,,,,,,,,,,,,,,1081.329006699998,1081.331902599999,1081.331902599999,1081.331902599999,,,,1084.306432999998,j,1.3485889000003226,0.216964299997926,1084.3113381000003,1084.3113580999998,None,,,,,,,,,,,,,,00057,001,2026-01-18_21h46.54.870,MST_task,2024.2.0,59.91992301506576,2026-01-18 21h47.32.546427 +0530,
,Objects\046a.jpg,71,0,72,,,,,f,2.0668231999989075,0.2556609999992361,None,,,,,,72,0,71,1084.3230234000002,,,,,,,,,,,,,,,,,,,,,,,,,,,,,,1084.311472399997,1084.3230234000002,1084.8465335,1084.8071815000003,,,,,,,,,,,,,,,,,,,,,,1084.8433119999972,1084.8465335,1084.8465335,1084.8465335,,,,1087.8229739999988,f,2.0668231999989075,0.2556609999992361,1087.8231508999997,1087.8231935000003,None,,,,,,,,,,,,,,00057,001,2026-01-18_21h46.54.870,MST_task,2024.2.0,59.91992301506576,2026-01-18 21h47.32.546427 +0530,
,Objects\002a.jpg,72,0,73,,,,,f,1.3487487000020337,0.19132529999842518,None,,,,,,73,0,72,1087.8392410999986,,,,,,,,,,,,,,,,,,,,,,,,,,,,,,1087.8234052999978,1087.8392410999986,1088.3407578999977,1088.3239227999984,,,,,,,,,,,,,,,,,,,,,,1088.3328110000002,1088.3407578999977,1088.3407578999977,1088.3407578999977,,,,1091.3398361,f,1.3487487000020337,0.19132529999842518,1091.340012499997,1091.3400765999977,None,,,,,,,,,,,,,,00057,001,2026-01-18_21h46.54.870,MST_task,2024.2.0,59.91992301506576,2026-01-18 21h47.32.546427 +0530,
,Objects\042a.jpg,73,0,74,,,,,j,1.6563162000020384,0.16915810000136844,None,,,,,,74,0,73,1091.356031899999,,,,,,,,,,,,,,,,,,,,,,,,,,,,,,1091.3404235999988,1091.356031899999,1091.8562055000002,1091.8404478999983,,,,,,,,,,,,,,,,,,,,,,1091.8464626999994,1091.8562055000002,1091.8562055000002,1091.8562055000002,1094.8560223999993,1094.8560223999993,1094.8560223999993,1094.8412575999973,j,1.6563162000020384,0.16915810000136844,1094.8414491000003,1094.8415124999992,None,,,,,,,,,,,,,,00057,001,2026-01-18_21h46.54.870,MST_task,2024.2.0,59.91992301506576,2026-01-18 21h47.32.546427 +0530,
,Objects\184a.jpg,74,0,75,,,,,f,2.1888541000007535,0.16728510000029928,None,,,,,,75,0,74,1094.8560223999993,,,,,,,,,,,,,,,,,,,,,,,,,,,,,,1094.8417464999984,1094.8560223999993,1095.3563181999998,1095.340374899999,,,,,,,,,,,,,,,,,,,,,,1095.3496457,1095.3563181999998,1095.3563181999998,1095.3563181999998,1098.3561055999999,1098.3561055999999,1098.3561055999999,1098.3411973999973,f,2.1888541000007535,0.16728510000029928,1098.3413387999972,1098.3414032,None,,,,,,,,,,,,,,00057,001,2026-01-18_21h46.54.870,MST_task,2024.2.0,59.91992301506576,2026-01-18 21h47.32.546427 +0530,
,Objects\109a.jpg,75,0,76,,,,,j,1.5362920000006852,0.12037109999801032,None,,,,,,76,0,75,1098.3561055999999,,,,,,,,,,,,,,,,,,,,,,,,,,,,,,1098.341740099997,1098.3561055999999,1098.8565593999992,1098.8408285000005,,,,,,,,,,,,,,,,,,,,,,1098.847367399998,1098.8565593999992,1098.8565593999992,1098.8565593999992,1101.8561018,1101.8561018,1101.8561018,1101.8410441999986,j,1.5362920000006852,0.12037109999801032,1101.8412150000004,1101.841277899999,None,,,,,,,,,,,,,,00057,001,2026-01-18_21h46.54.870,MST_task,2024.2.0,59.91992301506576,2026-01-18 21h47.32.546427 +0530,
,Objects\090a.jpg,76,0,77,,,,,j,2.629007999999885,0.1917859999994107,None,,,,,,77,0,76,1101.8561018,,,,,,,,,,,,,,,,,,,,,,,,,,,,,,1101.8417167999978,1101.8561018,1102.3563432999981,1102.3404919999994,,,,,,,,,,,,,,,,,,,,,,1102.347045999999,1102.3563432999981,1102.3563432999981,1102.3563432999981,1105.3560326999977,1105.3560326999977,1105.3560326999977,1105.341012599998,j,2.629007999999885,0.1917859999994107,1105.341205599998,1105.3412685999974,None,,,,,,,,,,,,,,00057,001,2026-01-18_21h46.54.870,MST_task,2024.2.0,59.91992301506576,2026-01-18 21h47.32.546427 +0530,
,Scenes\186a.jpg,77,0,78,,,,,j,1.8633636999984446,0.13636200000109966,None,,,,,,78,0,77,1105.3560326999977,,,,,,,,,,,,,,,,,,,,,,,,,,,,,,1105.3415855999992,1105.3560326999977,1105.8565861999996,1105.8402509999978,,,,,,,,,,,,,,,,,,,,,,1105.8527892999991,1105.8565861999996,1105.8565861999996,1105.8565861999996,1108.856154899997,1108.856154899997,1108.856154899997,1108.8399935999987,j,1.8633636999984446,0.13636200000109966,1108.8420105000005,1108.842031199998,None,,,,,,,,,,,,,,00057,001,2026-01-18_21h46.54.870,MST_task,2024.2.0,59.91992301506576,2026-01-18 21h47.32.546427 +0530,
,Scenes\188a.jpg,78,0,79,,,,,None,,,f,0.7003168000010191,None,,,,79,0,78,1108.856154899997,,,,,,,,,,,,,,,,,,,,,,,,,,,,,,1108.8421165,1108.856154899997,1109.4300003999997,1109.3408660999994,,,,,,,,,,,,,,,,,,,,,,1109.4270653999993,1109.4300003999997,1109.4300003999997,1109.4300003999997,,,,1112.3565744999978,None,,,1112.356746399997,1113.0750969999972,f,1112.3726271999985,1112.3726271999985,0.7003168000010191,None,,,,,,,,,,00057,001,2026-01-18_21h46.54.870,MST_task,2024.2.0,59.91992301506576,2026-01-18 21h47.32.546427 +0530,
,Scenes\065a.jpg,79,0,80,,,,,j,1.446605900000577,0.16794710000249324,None,,,,,,80,0,79,1113.0894227999997,,,,,,,,,,,,,,,,,,,,,,,,,,,,,,1113.0754629999974,1113.0894227999997,1113.6421856999987,1113.5737649999974,,,,,,,,,,,,,,,,,,,,,,1113.6393802999992,1113.6421856999987,1113.6421856999987,1113.6421856999987,,,,1116.5897349999977,j,1.446605900000577,0.16794710000249324,1116.5898457000003,1116.5898850999984,None,,,,,,,,,,,,,,00057,001,2026-01-18_21h46.54.870,MST_task,2024.2.0,59.91992301506576,2026-01-18 21h47.32.546427 +0530,
,Scenes\147a.jpg,80,0,81,,,,,j,1.923707399997511,0.15197990000160644,None,,,,,,81,0,80,1116.605971699999,,,,,,,,,,,,,,,,,,,,,,,,,,,,,,1116.5901634000002,1116.605971699999,1117.1092103999981,1117.0903236999984,,,,,,,,,,,,,,,,,,,,,,1117.1060308999986,1117.1092103999981,1117.1092103999981,1117.1092103999981,,,,1120.0903676999988,j,1.923707399997511,0.15197990000160644,1120.0904916,1120.0905367999985,None,,,,,,,,,,,,,,00057,001,2026-01-18_21h46.54.870,MST_task,2024.2.0,59.91992301506576,2026-01-18 21h47.32.546427 +0530,
,Scenes\114a.jpg,81,0,82,,,,,f,1.403922199999215,0.16739419999794336,None,,,,,,82,0,81,1120.1063254,,,,,,,,,,,,,,,,,,,,,,,,,,,,,,1120.0908724,1120.1063254,1120.612756399998,1120.5902073999969,,,,,,,,,,,,,,,,,,,,,,1120.609613499997,1120.612756399998,1120.612756399998,1120.612756399998,,,,1123.6064077999981,f,1.403922199999215,0.16739419999794336,1123.606524499999,1123.606565799997,None,,,,,,,,,,,,,,00057,001,2026-01-18_21h46.54.870,MST_task,2024.2.0,59.91992301506576,2026-01-18 21h47.32.546427 +0530,
,Scenes\189a.jpg,82,0,83,,,,,j,1.1493823999990127,0.21588949999932083,None,,,,,,83,0,82,1123.6228647999997,,,,,,,,,,,,,,,,,,,,,,,,,,,,,,1123.6068578999984,1123.6228647999997,1124.2037283999998,1124.1071066000004,,,,,,,,,,,,,,,,,,,,,,1124.2004256999971,1124.2037283999998,1124.2037283999998,1124.2037283999998,,,,1127.1230531999972,j,1.1493823999990127,0.21588949999932083,1127.1232127000003,1127.1232536999996,None,,,,,,,,,,,,,,00057,001,2026-01-18_21h46.54.870,MST_task,2024.2.0,59.91992301506576,2026-01-18 21h47.32.546427 +0530,
,Scenes\021a.jpg,83,0,84,,,,,j,2.942477600001439,None,None,,,,,,84,0,83,1127.1393881000004,,,,,,,,,,,,,,,,,,,,,,,,,,,,,,1127.1234786999994,1127.1393881000004,1127.642195499997,1127.6238902000005,,,,,,,,,,,,,,,,,,,,,,1127.6378659000002,1127.642195499997,1127.642195499997,1127.642195499997,,,,1130.641353799998,j,2.942477600001439,None,1130.641533099999,1130.641573599998,None,,,,,,,,,,,,,,00057,001,2026-01-18_21h46.54.870,MST_task,2024.2.0,59.91992301506576,2026-01-18 21h47.32.546427 +0530,
,Objects\115a.jpg,84,0,85,,,,,f,1.04357820000223,0.1916109999983746,None,,,,,,85,0,84,1130.6572984999984,,,,,,,,,,,,,,,,,,,,,,,,,,,,,,1130.641783199997,1130.6572984999984,,1131.156283999997,,,,,,,,,,,,,,,,,,,,,,1131.1653160999995,1131.1733160999975,1131.1733160999975,1131.1733160999975,,,,1134.1567393000005,f,1.04357820000223,0.1916109999983746,1134.1625292999997,1134.1625682999984,None,,,,,,,,,,,,,,00057,001,2026-01-18_21h46.54.870,MST_task,2024.2.0,59.91992301506576,2026-01-18 21h47.32.546427 +0530,
,Objects\028a.jpg,85,0,86,,,,,j,1.4872567999991588,0.2086901000002399,None,,,,,,86,0,85,1134.1736012000001,,,,,,,,,,,,,,,,,,,,,,,,,,,,,,1134.162783099997,1134.1736012000001,,1134.6729099000004,,,,,,,,,,,,,,,,,,,,,,1134.6787430999975,1134.689618299999,1134.689618299999,1134.689618299999,,,,1137.6732343000003,j,1.4872567999991588,0.2086901000002399,1137.6734058000002,1137.6734825999993,None,,,,,,,,,,,,,,00057,001,2026-01-18_21h46.54.870,MST_task,2024.2.0,59.91992301506576,2026-01-18 21h47.32.546427 +0530,
,Objects\031a.jpg,86,0,87,,,,,j,1.6581904999984545,0.1445413000001281,None,,,,,,87,0,86,1137.689355399998,,,,,,,,,,,,,,,,,,,,,,,,,,,,,,1137.6737708,1137.689355399998,1138.1897594999973,1138.1738076999973,,,,,,,,,,,,,,,,,,,,,,1138.1795844999979,1138.1897594999973,1138.1897594999973,1138.1897594999973,1141.1905067999978,1141.1905067999978,1141.1905067999978,1141.1752398999997,j,1.6581904999984545,0.1445413000001281,1141.1754277999971,1141.1754920999992,None,,,,,,,,,,,,,,00057,001,2026-01-18_21h46.54.870,MST_task,2024.2.0,59.91992301506576,2026-01-18 21h47.32.546427 +0530,
,Objects\176a.jpg,87,0,88,,,,,j,1.446161400002893,0.14415809999991325,None,,,,,,88,0,87,1141.1905067999978,,,,,,,,,,,,,,,,,,,,,,,,,,,,,,1141.175837499999,1141.1905067999978,,1141.6896559999986,,,,,,,,,,,,,,,,,,,,,,1141.6973561999985,1141.7063122,1141.7063122,1141.7063122,,,,1144.689585,j,1.446161400002893,0.14415809999991325,1144.6896615999976,1144.689688399998,None,,,,,,,,,,,,,,00057,001,2026-01-18_21h46.54.870,MST_task,2024.2.0,59.91992301506576,2026-01-18 21h47.32.546427 +0530,
,Objects\160a.jpg,88,0,89,,,,,f,2.8177074999985052,0.1449945000022126,None,,,,,,89,0,88,1144.706006999997,,,,,,,,,,,,,,,,,,,,,,,,,,,,,,1144.6898777999995,1144.706006999997,1145.2065995999983,1145.1905291999974,,,,,,,,,,,,,,,,,,,,,,1145.1997317999994,1145.2065995999983,1145.2065995999983,1145.2065995999983,,,,1148.1901448999997,f,2.8177074999985052,0.1449945000022126,1148.1902439999976,1148.1902778999975,None,,,,,,,,,,,,,,00057,001,2026-01-18_21h46.54.870,MST_task,2024.2.0,59.91992301506576,2026-01-18 21h47.32.546427 +0530,
,Objects\038a.jpg,89,0,90,,,,,f,1.8541569000008167,0.15196819999982836,None,,,,,,90,0,89,1148.2059386,,,,,,,,,,,,,,,,,,,,,,,,,,,,,,1148.1904551999978,1148.2059386,1148.7062850000002,1148.6905251999997,,,,,,,,,,,,,,,,,,,,,,1148.6971288999994,1148.7062850000002,1148.7062850000002,1148.7062850000002,1151.7061318999986,1151.7061318999986,1151.7061318999986,1151.6913408999972,f,1.8541569000008167,0.15196819999982836,1151.691513499998,1151.6915768,None,,,,,,,,,,,,,,00057,001,2026-01-18_21h46.54.870,MST_task,2024.2.0,59.91992301506576,2026-01-18 21h47.32.546427 +0530,
,Objects\147a.jpg,90,0,91,,,,,f,1.0893800999983796,0.192946999999549,None,,,,,,91,0,90,1151.7061318999986,,,,,,,,,,,,,,,,,,,,,,,,,,,,,,1151.691975499998,1151.7061318999986,1152.2074489999977,1152.1904509999986,,,,,,,,,,,,,,,,,,,,,,1152.1972840999988,1152.2074489999977,1152.2074489999977,1152.2074489999977,,,,1155.206411199997,f,1.0893800999983796,0.192946999999549,1155.2065755000003,1155.2066228000003,None,,,,,,,,,,,,,,00057,001,2026-01-18_21h46.54.870,MST_task,2024.2.0,59.91992301506576,2026-01-18 21h47.32.546427 +0530,
,Scenes\062a.jpg,91,0,92,,,,,j,2.576398400000471,0.1042154999995546,None,,,,,,92,0,91,1155.2228698,,,,,,,,,,,,,,,,,,,,,,,,,,,,,,1155.2068695999988,1155.2228698,1155.7280277999998,1155.707252799999,,,,,,,,,,,,,,,,,,,,,,1155.7240650999993,1155.7280277999998,1155.7280277999998,1155.7280277999998,,,,1158.7231715999988,j,2.576398400000471,0.1042154999995546,1158.7290613000005,1158.7291260999991,None,,,,,,,,,,,,,,00057,001,2026-01-18_21h46.54.870,MST_task,2024.2.0,59.91992301506576,2026-01-18 21h47.32.546427 +0530,
,Scenes\131a.jpg,92,0,93,,,,,None,,,f,1.0172763000009581,None,,,,93,0,92,1158.739448799999,,,,,,,,,,,,,,,,,,,,,,,,,,,,,,1158.7294322999987,1158.739448799999,1159.2454217999984,1159.2239687999972,,,,,,,,,,,,,,,,,,,,,,1159.2422095000002,1159.2454217999984,1159.2454217999984,1159.2454217999984,,,,1162.2398675999975,None,,,1162.2399759999971,1163.2754408,f,1162.2559674999975,1162.2559674999975,1.0172763000009581,None,,,,,,,,,,00057,001,2026-01-18_21h46.54.870,MST_task,2024.2.0,59.91992301506576,2026-01-18 21h47.32.546427 +0530,
,Scenes\037a.jpg,93,0,94,,,,,j,1.7907517000021471,0.14348529999915627,None,,,,,,94,0,93,1163.2894947999994,,,,,,,,,,,,,,,,,,,,,,,,,,,,,,1163.2758069999982,1163.2894947999994,1163.8178023999972,1163.7738119999995,,,,,,,,,,,,,,,,,,,,,,1163.8145446999988,1163.8178023999972,1163.8178023999972,1163.8178023999972,,,,1166.7898491999986,j,1.7907517000021471,0.14348529999915627,1166.7899555000004,1166.7899930999993,None,,,,,,,,,,,,,,00057,001,2026-01-18_21h46.54.870,MST_task,2024.2.0,59.91992301506576,2026-01-18 21h47.32.546427 +0530,
,Scenes\081a.jpg,94,0,95,,,,,j,1.4887315000014496,0.3124409000010928,None,,,,,,95,0,94,1166.8059857999979,,,,,,,,,,,,,,,,,,,,,,,,,,,,,,1166.7901816999984,1166.8059857999979,1167.3116426999986,1167.2905274000004,,,,,,,,,,,,,,,,,,,,,,1167.3083645999977,1167.3116426999986,1167.3116426999986,1167.3116426999986,,,,1170.3064202999994,j,1.4887315000014496,0.3124409000010928,1170.3066158000001,1170.3066795999985,None,,,,,,,,,,,,,,00057,001,2026-01-18_21h46.54.870,MST_task,2024.2.0,59.91992301506576,2026-01-18 21h47.32.546427 +0530,
,Scenes\054a.jpg,95,0,96,,,,,j,2.093327300000965,0.12044239999886486,None,,,,,,96,0,95,1170.3232936999993,,,,,,,,,,,,,,,,,,,,,,,,,,,,,,1170.3070501999973,1170.3232936999993,1170.8270152000005,1170.8070033000004,,,,,,,,,,,,,,,,,,,,,,1170.823930399998,1170.8270152000005,1170.8270152000005,1170.8270152000005,,,,1173.8232342999981,j,2.093327300000965,0.12044239999886486,1173.823386199998,1173.8234362999974,None,,,,,,,,,,,,,,00057,001,2026-01-18_21h46.54.870,MST_task,2024.2.0,59.91992301506576,2026-01-18 21h47.32.546427 +0530,
,Scenes\115a.jpg,96,0,97,,,,,j,1.244929199998296,0.19159510000099544,None,,,,,,97,0,96,1173.8395813999996,,,,,,,,,,,,,,,,,,,,,,,,,,,,,,1173.8237912000004,1173.8395813999996,1174.3398777000002,1174.3237171,,,,,,,,,,,,,,,,,,,,,,1174.335221199999,1174.3398777000002,1174.3398777000002,1174.3398777000002,1177.339396299998,1177.339396299998,1177.339396299998,1177.3245846999998,j,1.244929199998296,0.19159510000099544,1177.324760399999,1177.3248227000004,None,,,,,,,,,,,,,,00057,001,2026-01-18_21h46.54.870,MST_task,2024.2.0,59.91992301506576,2026-01-18 21h47.32.546427 +0530,
,Scenes\082a.jpg,97,0,98,,,,,f,2.4546786999999313,0.11973439999928814,None,,,,,,98,0,97,1177.339396299998,,,,,,,,,,,,,,,,,,,,,,,,,,,,,,1177.3250808999983,1177.339396299998,1177.8424588999987,1177.8236555999974,,,,,,,,,,,,,,,,,,,,,,1177.8397277000004,1177.8424588999987,1177.8424588999987,1177.8424588999987,,,,1180.8396227999983,f,2.4546786999999313,0.11973439999928814,1180.8397846999978,1180.8398240999995,None,,,,,,,,,,,,,,00057,001,2026-01-18_21h46.54.870,MST_task,2024.2.0,59.91992301506576,2026-01-18 21h47.32.546427 +0530,
,Objects\164a.jpg,98,0,99,,,,,f,1.083000999999058,0.1614661999992677,None,,,,,,99,0,98,1180.8561348999974,,,,,,,,,,,,,,,,,,,,,,,,,,,,,,1180.8400954999997,1180.8561348999974,1181.3566756999971,1181.3408354999992,,,,,,,,,,,,,,,,,,,,,,1181.3494274000004,1181.3566756999971,1181.3566756999971,1181.3566756999971,1184.3559681999977,1184.3559681999977,1184.3559681999977,1184.3415069000002,f,1.083000999999058,0.1614661999992677,1184.3463703999987,1184.346416299999,None,,,,,,,,,,,,,,00057,001,2026-01-18_21h46.54.870,MST_task,2024.2.0,59.91992301506576,2026-01-18 21h47.32.546427 +0530,
,Objects\056a.jpg,99,0,100,,,,,f,1.2237429000015254,0.1758641999986139,None,,,,,,100,0,99,1184.3559681999977,,,,,,,,,,,,,,,,,,,,,,,,,,,,,,1184.3466929999995,1184.3559681999977,1184.8562171999984,1184.8407144999983,,,,,,,,,,,,,,,,,,,,,,1184.8487504000004,1184.8562171999984,1184.8562171999984,1184.8562171999984,1187.8561326999989,1187.8561326999989,1187.8561326999989,1187.8408760999992,f,1.2237429000015254,0.1758641999986139,1187.8409888999995,1187.8410244999977,None,,,,,,,,,,,,,,00057,001,2026-01-18_21h46.54.870,MST_task,2024.2.0,59.91992301506576,2026-01-18 21h47.32.546427 +0530,
,Objects\108a.jpg,100,0,101,,,,,j,1.3087047999979404,0.18295520000174292,None,,,,,,101,0,100,1187.8561326999989,,,,,,,,,,,,,,,,,,,,,,,,,,,,,,1187.8412069999977,1187.8561326999989,1188.3563412000003,1188.3406552999986,,,,,,,,,,,,,,,,,,,,,,1188.3470473999987,1188.3563412000003,1188.3563412000003,1188.3563412000003,1191.355942899998,1191.355942899998,1191.355942899998,1191.3416744999995,j,1.3087047999979404,0.18295520000174292,1191.3418609,1191.341918799997,None,,,,,,,,,,,,,,00057,001,2026-01-18_21h46.54.870,MST_task,2024.2.0,59.91992301506576,2026-01-18 21h47.32.546427 +0530,
,Objects\010a.jpg,101,0,102,,,,,f,1.1048568000005616,0.14342819999728817,None,,,,,,102,0,101,1191.355942899998,,,,,,,,,,,,,,,,,,,,,,,,,,,,,,1191.342256099997,1191.355942899998,1191.8562115999994,1191.8405786000003,,,,,,,,,,,,,,,,,,,,,,1191.8496497999986,1191.8562115999994,1191.8562115999994,1191.8562115999994,1194.8559115999997,1194.8559115999997,1194.8559115999997,1194.8414331999993,f,1.1048568000005616,0.14342819999728817,1194.8416474999976,1194.8416937000002,None,,,,,,,,,,,,,,00057,001,2026-01-18_21h46.54.870,MST_task,2024.2.0,59.91992301506576,2026-01-18 21h47.32.546427 +0530,
,Objects\132a.jpg,102,0,103,,,,,f,1.9236224999986007,0.09589360000245506,None,,,,,,103,0,102,1194.8559115999997,,,,,,,,,,,,,,,,,,,,,,,,,,,,,,1194.8419850999999,1194.8559115999997,1195.356388199998,1195.3404788999978,,,,,,,,,,,,,,,,,,,,,,1195.346700099999,1195.356388199998,1195.356388199998,1195.356388199998,1198.3559217999973,1198.3559217999973,1198.3559217999973,1198.3414129999983,f,1.9236224999986007,0.09589360000245506,1198.341583999998,1198.3416469999975,None,,,,,,,,,,,,,,00057,001,2026-01-18_21h46.54.870,MST_task,2024.2.0,59.91992301506576,2026-01-18 21h47.32.546427 +0530,
,Objects\148a.jpg,103,0,104,,,,,f,1.696095499999501,0.14545129999896744,None,,,,,,104,0,103,1198.3559217999973,,,,,,,,,,,,,,,,,,,,,,,,,,,,,,1198.3420776999992,1198.3559217999973,1198.856203899999,1198.8404682999972,,,,,,,,,,,,,,,,,,,,,,1198.8468393000003,1198.856203899999,1198.856203899999,1198.856203899999,1201.8560144000003,1201.8560144000003,1201.8560144000003,1201.8414432999998,f,1.696095499999501,0.14545129999896744,1201.8415983999985,1201.8416479999978,None,,,,,,,,,,,,,,00057,001,2026-01-18_21h46.54.870,MST_task,2024.2.0,59.91992301506576,2026-01-18 21h47.32.546427 +0530,
,Objects\075a.jpg,104,0,105,,,,,f,2.275944300003175,0.09540269999706652,None,,,,,,105,0,104,1201.8560144000003,,,,,,,,,,,,,,,,,,,,,,,,,,,,,,1201.8419579000001,1201.8560144000003,1202.356328599999,1202.3407179999995,,,,,,,,,,,,,,,,,,,,,,1202.3472223999997,1202.356328599999,1202.356328599999,1202.356328599999,1205.355937999997,1205.355937999997,1205.355937999997,1205.341312499997,f,2.275944300003175,0.09540269999706652,1205.3414971999991,1205.3415384,None,,,,,,,,,,,,,,00057,001,2026-01-18_21h46.54.870,MST_task,2024.2.0,59.91992301506576,2026-01-18 21h47.32.546427 +0530,
,Scenes\007a.jpg,105,0,106,,,,,None,,,f,1.1117199000000255,None,,,,106,0,105,1205.355937999997,,,,,,,,,,,,,,,,,,,,,,,,,,,,,,1205.341829699999,1205.355937999997,1205.8612568999997,1205.8405104999983,,,,,,,,,,,,,,,,,,,,,,1205.8565651999997,1205.8612568999997,1205.8612568999997,1205.8612568999997,,,,1208.8565132999975,None,,,1208.8619561999985,1209.9916521999985,f,1208.8728912999977,1208.8728912999977,1.1117199000000255,None,,,,,,,,,,00057,001,2026-01-18_21h46.54.870,MST_task,2024.2.0,59.91992301506576,2026-01-18 21h47.32.546427 +0530,
,Scenes\077a.jpg,106,0,107,,,,,None,,,j,0.4788023000000976,None,,,,107,0,106,1210.0061653999983,,,,,,,,,,,,,,,,,,,,,,,,,,,,,,1209.9919993000003,1210.0061653999983,1210.5066097999988,1210.4901823,,,,,,,,,,,,,,,,,,,,,,1210.501277299998,1210.5066097999988,1210.5066097999988,1210.5066097999988,1213.5059349999974,1213.5059349999974,1213.5059349999974,1213.4914370999977,None,,,1213.4915705999992,1213.9913018999978,j,1213.5059349999974,1213.5059349999974,0.4788023000000976,None,,,,,,,,,,00057,001,2026-01-18_21h46.54.870,MST_task,2024.2.0,59.91992301506576,2026-01-18 21h47.32.546427 +0530,
,Scenes\095a.jpg,107,0,108,,,,,f,1.6441370000029565,0.19135919999826,None,,,,,,108,0,107,1214.0060307999993,,,,,,,,,,,,,,,,,,,,,,,,,,,,,,1213.9915148999971,1214.0060307999993,1214.5572496999994,1214.4904160999977,,,,,,,,,,,,,,,,,,,,,,1214.5541008,1214.5572496999994,1214.5572496999994,1214.5572496999994,,,,1217.5064810000003,f,1.6441370000029565,0.19135919999826,1217.506651399999,1217.506717799999,None,,,,,,,,,,,,,,00057,001,2026-01-18_21h46.54.870,MST_task,2024.2.0,59.91992301506576,2026-01-18 21h47.32.546427 +0530,
,Scenes\091a.jpg,108,0,109,,,,,j,2.0528362000004563,0.12789320000229054,None,,,,,,109,0,108,1217.5227073999995,,,,,,,,,,,,,,,,,,,,,,,,,,,,,,1217.5070873000004,1217.5227073999995,1218.027516299997,1218.0072121999983,,,,,,,,,,,,,,,,,,,,,,1218.0240243999979,1218.027516299997,1218.027516299997,1218.027516299997,,,,1221.0232470999981,j,2.0528362000004563,0.12789320000229054,1221.0234313999972,1221.0234969999983,None,,,,,,,,,,,,,,00057,001,2026-01-18_21h46.54.870,MST_task,2024.2.0,59.91992301506576,2026-01-18 21h47.32.546427 +0530,
,Scenes\033a.jpg,109,0,110,,,,,j,1.7322787000011886,0.12757690000216826,None,,,,,,110,0,109,1221.0397873000002,,,,,,,,,,,,,,,,,,,,,,,,,,,,,,1221.0239478000003,1221.0397873000002,1221.5398386999987,1221.5239027999996,,,,,,,,,,,,,,,,,,,,,,1221.5334984999972,1221.5398386999987,1221.5398386999987,1221.5398386999987,1224.540609599997,1224.540609599997,1224.540609599997,1224.5244109999985,j,1.7322787000011886,0.12757690000216826,1224.5245620999995,1224.524615299997,None,,,,,,,,,,,,,,00057,001,2026-01-18_21h46.54.870,MST_task,2024.2.0,59.91992301506576,2026-01-18 21h47.32.546427 +0530,
,Scenes\061a.jpg,110,0,111,,,,,j,1.5670909000000393,0.14370920000146725,None,,,,,,111,0,110,1224.540609599997,,,,,,,,,,,,,,,,,,,,,,,,,,,,,,1224.5248587999995,1224.540609599997,,1225.0396922,,,,,,,,,,,,,,,,,,,,,,1225.094656399997,1225.0975603999977,1225.0975603999977,1225.0975603999977,,,,1228.0398430999994,j,1.5670909000000393,0.14370920000146725,1228.0400506999977,1228.040115099997,None,,,,,,,,,,,,,,00057,001,2026-01-18_21h46.54.870,MST_task,2024.2.0,59.91992301506576,2026-01-18 21h47.32.546427 +0530,
,Scenes\059a.jpg,111,0,112,,,,,j,2.05565050000223,0.12781839999661315,None,,,,,,112,0,111,1228.0560603999984,,,,,,,,,,,,,,,,,,,,,,,,,,,,,,1228.0405102000004,1228.0560603999984,1228.5610806999975,1228.5404554999986,,,,,,,,,,,,,,,,,,,,,,1228.5575256999982,1228.5610806999975,1228.5610806999975,1228.5610806999975,,,,1231.556709499997,j,2.05565050000223,0.12781839999661315,1231.5568270999975,1231.5568687999985,None,,,,,,,,,,,,,,00057,001,2026-01-18_21h46.54.870,MST_task,2024.2.0,59.91992301506576,2026-01-18 21h47.32.546427 +0530,
,Objects\102a.jpg,112,0,113,,,,,f,0.9643722000000707,0.20819530000153463,None,,,,,,113,0,112,1231.5726337999986,,,,,,,,,,,,,,,,,,,,,,,,,,,,,,1231.5571582999983,1231.5726337999986,1232.0761423000004,1232.0571047999983,,,,,,,,,,,,,,,,,,,,,,1232.0727901999999,1232.0761423000004,1232.0761423000004,1232.0761423000004,,,,1235.074051399999,f,0.9643722000000707,0.20819530000153463,1235.0801164999975,1235.0801581999986,None,,,,,,,,,,,,,,00057,001,2026-01-18_21h46.54.870,MST_task,2024.2.0,59.91992301506576,2026-01-18 21h47.32.546427 +0530,
,Objects\171a.jpg,113,0,114,,,,,j,2.038534500003152,0.09580209999694489,None,,,,,,114,0,113,1235.0893565999977,,,,,,,,,,,,,,,,,,,,,,,,,,,,,,1235.0803235999992,1235.0893565999977,1235.6106516,1235.5739098999984,,,,,,,,,,,,,,,,,,,,,,1235.6068154999994,1235.6106516,1235.6106516,1235.6106516,,,,1238.5896718000004,j,2.038534500003152,0.09580209999694489,1238.589833799997,1238.5898887000003,None,,,,,,,,,,,,,,00057,001,2026-01-18_21h46.54.870,MST_task,2024.2.0,59.91992301506576,2026-01-18 21h47.32.546427 +0530,
,Objects\051a.jpg,114,0,115,,,,,None,,,f,0.8231505999974615,None,,,,115,0,114,1238.605876499998,,,,,,,,,,,,,,,,,,,,,,,,,,,,,,1238.5902623000002,1238.605876499998,1239.106234699997,1239.0906015,,,,,,,,,,,,,,,,,,,,,,1239.0974276999987,1239.106234699997,1239.106234699997,1239.106234699997,1242.1061332999998,1242.1061332999998,1242.1061332999998,1242.0910053999978,None,,,1242.0910853999994,1242.941284299999,f,1242.1061332999998,1242.1061332999998,0.8231505999974615,None,,,,,,,,,,00057,001,2026-01-18_21h46.54.870,MST_task,2024.2.0,59.91992301506576,2026-01-18 21h47.32.546427 +0530,
,Objects\169a.jpg,115,0,116,,,,,j,2.896719699998357,None,None,,,,,,116,0,115,1242.955955999998,,,,,,,,,,,,,,,,,,,,,,,,,,,,,,1242.9416534999982,1242.955955999998,1243.4561721999999,1243.440506199997,,,,,,,,,,,,,,,,,,,,,,1243.4495831999993,1243.4561721999999,1243.4561721999999,1243.4561721999999,1246.4558918000002,1246.4558918000002,1246.4558918000002,1246.4412978,j,2.896719699998357,None,1246.4414182999972,1246.4414595999988,None,,,,,,,,,,,,,,00057,001,2026-01-18_21h46.54.870,MST_task,2024.2.0,59.91992301506576,2026-01-18 21h47.32.546427 +0530,
,Objects\165a.jpg,116,0,117,,,,,f,1.0298388999981398,0.1289096000000427,None,,,,,,117,0,116,1246.4558918000002,,,,,,,,,,,,,,,,,,,,,,,,,,,,,,1246.4416739999979,1246.4558918000002,1246.9782209999976,1246.9404716999998,,,,,,,,,,,,,,,,,,,,,,1246.9754012999983,1246.9782209999976,1246.9782209999976,1246.9782209999976,,,,1249.9566791999969,f,1.0298388999981398,0.1289096000000427,1249.956845599998,1249.9568895999982,None,,,,,,,,,,,,,,00057,001,2026-01-18_21h46.54.870,MST_task,2024.2.0,59.91992301506576,2026-01-18 21h47.32.546427 +0530,
,Objects\004a.jpg,117,0,118,,,,,j,2.7280308000008517,0.1840492000010272,None,,,,,,118,0,117,1249.972701499999,,,,,,,,,,,,,,,,,,,,,,,,,,,,,,1249.9571993999998,1249.972701499999,1250.4729447999998,1250.4571851,,,,,,,,,,,,,,,,,,,,,,1250.4629829999976,1250.4729447999998,1250.4729447999998,1250.4729447999998,1253.4732853999994,1253.4732853999994,1253.4732853999994,1253.4576138999983,j,2.7280308000008517,0.1840492000010272,1253.4577532000003,1253.4578022999995,None,,,,,,,,,,,,,,00057,001,2026-01-18_21h46.54.870,MST_task,2024.2.0,59.91992301506576,2026-01-18 21h47.32.546427 +0530,
,Objects\060a.jpg,118,0,119,,,,,f,2.1548913000005996,0.19234190000133822,None,,,,,,119,0,118,1253.4732853999994,,,,,,,,,,,,,,,,,,,,,,,,,,,,,,1253.4580123999986,1253.4732853999994,1253.9731861,1253.9570812999991,,,,,,,,,,,,,,,,,,,,,,1253.963299799998,1253.9731861,1253.9731861,1253.9731861,1256.9730290999978,1256.9730290999978,1256.9730290999978,1256.9577146999982,f,2.1548913000005996,0.19234190000133822,1256.9578268000005,1256.9578650999974,None,,,,,,,,,,,,,,00057,001,2026-01-18_21h46.54.870,MST_task,2024.2.0,59.91992301506576,2026-01-18 21h47.32.546427 +0530,
,Scenes\080a.jpg,119,0,120,,,,,j,1.7030746000018553,0.13668909999978496,None,,,,,,120,0,119,1256.9730290999978,,,,,,,,,,,,,,,,,,,,,,,,,,,,,,1256.9581925999992,1256.9730290999978,1257.4732368000004,1257.4572842999987,,,,,,,,,,,,,,,,,,,,,,1257.4693268999981,1257.4732368000004,1257.4732368000004,1257.4732368000004,1260.473616899999,1260.473616899999,1260.473616899999,1260.4580496999988,j,1.7030746000018553,0.13668909999978496,1260.4629972000002,1260.4630528999987,None,,,,,,,,,,,,,,00057,001,2026-01-18_21h46.54.870,MST_task,2024.2.0,59.91992301506576,2026-01-18 21h47.32.546427 +0530,
,Scenes\137a.jpg,120,0,121,,,,,j,1.9639292000028945,0.0953190000000177,None,,,,,,121,0,120,1260.473616899999,,,,,,,,,,,,,,,,,,,,,,,,,,,,,,1260.4633744999992,1260.473616899999,1260.9734801999984,1260.9572416999981,,,,,,,,,,,,,,,,,,,,,,1260.9680569999982,1260.9734801999984,1260.9734801999984,1260.9734801999984,1263.9727596999983,1263.9727596999983,1263.9727596999983,1263.9576562000002,j,1.9639292000028945,0.0953190000000177,1263.9578299999994,1263.9578944999994,None,,,,,,,,,,,,,,00057,001,2026-01-18_21h46.54.870,MST_task,2024.2.0,59.91992301506576,2026-01-18 21h47.32.546427 +0530,
,Scenes\012a.jpg,121,0,122,,,,,j,1.4464194000029238,0.15912089999983436,None,,,,,,122,0,121,1263.9727596999983,,,,,,,,,,,,,,,,,,,,,,,,,,,,,,1263.9581709999984,1263.9727596999983,1264.4743066999981,1264.4570932999995,,,,,,,,,,,,,,,,,,,,,,1264.4712775999978,1264.4743066999981,1264.4743066999981,1264.4743066999981,,,,1267.4732659999972,j,1.4464194000029238,0.15912089999983436,1267.473441299997,1267.4735096000004,None,,,,,,,,,,,,,,00057,001,2026-01-18_21h46.54.870,MST_task,2024.2.0,59.91992301506576,2026-01-18 21h47.32.546427 +0530,
,Scenes\040a.jpg,122,0,123,,,,,f,1.085761199999979,0.16836909999983618,None,,,,,,123,0,122,1267.489325999999,,,,,,,,,,,,,,,,,,,,,,,,,,,,,,1267.473860099999,1267.489325999999,1267.9938356999992,1267.974030399997,,,,,,,,,,,,,,,,,,,,,,1267.9900801999975,1267.9938356999992,1267.9938356999992,1267.9938356999992,,,,1270.989944099998,f,1.085761199999979,0.16836909999983618,1270.9901109999992,1270.990177399999,None,,,,,,,,,,,,,,00057,001,2026-01-18_21h46.54.870,MST_task,2024.2.0,59.91992301506576,2026-01-18 21h47.32.546427 +0530,
,Scenes\182a.jpg,123,0,124,,,,,f,2.370961000000534,0.10357500000100117,None,,,,,,124,0,123,1271.005991799997,,,,,,,,,,,,,,,,,,,,,,,,,,,,,,1270.9906107999996,1271.005991799997,1271.509889099998,1271.4907361999976,,,,,,,,,,,,,,,,,,,,,,1271.5068197,1271.509889099998,1271.509889099998,1271.509889099998,,,,1274.506481999997,f,2.370961000000534,0.10357500000100117,1274.5066291999974,1274.5066733999993,None,,,,,,,,,,,,,,00057,001,2026-01-18_21h46.54.870,MST_task,2024.2.0,59.91992301506576,2026-01-18 21h47.32.546427 +0530,
,Scenes\109a.jpg,124,0,125,,,,,j,1.2645495999968261,0.1604572000032931,None,,,,,,125,0,124,1274.5226944999995,,,,,,,,,,,,,,,,,,,,,,,,,,,,,,1274.5068876999976,1274.5226944999995,1275.0231824000002,1275.0075025999977,,,,,,,,,,,,,,,,,,,,,,1275.0189041999984,1275.0231824000002,1275.0231824000002,1275.0231824000002,1278.0225785000002,1278.0225785000002,1278.0225785000002,1278.0069044999982,j,1.2645495999968261,0.1604572000032931,1278.0070307999995,1278.0070758999973,None,,,,,,,,,,,,,,00057,001,2026-01-18_21h46.54.870,MST_task,2024.2.0,59.91992301506576,2026-01-18 21h47.32.546427 +0530,
,Scenes\173a.jpg,125,0,126,,,,,j,1.557036700000026,0.11198809999768855,None,,,,,,126,0,125,1278.0225785000002,,,,,,,,,,,,,,,,,,,,,,,,,,,,,,1278.0073177999984,1278.0225785000002,1278.5234418,1278.506331499997,,,,,,,,,,,,,,,,,,,,,,1278.5176276999991,1278.5234418,1278.5234418,1278.5234418,1281.5227324999978,1281.5227324999978,1281.5227324999978,1281.5075357999995,j,1.557036700000026,0.11198809999768855,1281.5076339999978,1281.5076683999978,None,,,,,,,,,,,,,,00057,001,2026-01-18_21h46.54.870,MST_task,2024.2.0,59.91992301506576,2026-01-18 21h47.32.546427 +0530,
,Objects\080a.jpg,126,0,127,,,,,f,1.265046500000608,0.11934079999991809,None,,,,,,127,0,126,1281.5227324999978,,,,,,,,,,,,,,,,,,,,,,,,,,,,,,1281.5078437999982,1281.5227324999978,1282.0234364999997,1282.0070075000003,,,,,,,,,,,,,,,,,,,,,,1282.0168293999996,1282.0234364999997,1282.0234364999997,1282.0234364999997,1285.0227411999986,1285.0227411999986,1285.0227411999986,1285.0073860999983,f,1.265046500000608,0.11934079999991809,1285.0134088999985,1285.0134657999988,None,,,,,,,,,,,,,,00057,001,2026-01-18_21h46.54.870,MST_task,2024.2.0,59.91992301506576,2026-01-18 21h47.32.546427 +0530,
,Objects\057a.jpg,127,0,128,,,,,None,,,f,1.341723199999251,None,,,,128,0,127,1285.0227411999986,,,,,,,,,,,,,,,,,,,,,,,,,,,,,,1285.0136964999983,1285.0227411999986,1285.5232050999984,1285.506903399997,,,,,,,,,,,,,,,,,,,,,,1285.5131225999976,1285.5232050999984,1285.5232050999984,1285.5232050999984,1288.5227478999986,1288.5227478999986,1288.5227478999986,1288.5081208999982,None,,,1288.5082677999999,1289.8739509999978,f,1288.5227478999986,1288.5227478999986,1.341723199999251,None,,,,,,,,,,00057,001,2026-01-18_21h46.54.870,MST_task,2024.2.0,59.91992301506576,2026-01-18 21h47.32.546427 +0530,
,Objects\131a.jpg,128,0,129,,,,,f,1.6910397999999986,0.07115419999900041,None,,,,,,129,0,128,1289.8892939999969,,,,,,,,,,,,,,,,,,,,,,,,,,,,,,1289.8742031999973,1289.8892939999969,1290.3899884999992,1290.3735858,,,,,,,,,,,,,,,,,,,,,,1290.3816625,1290.3899884999992,1290.3899884999992,1290.3899884999992,1293.3897185999995,1293.3897185999995,1293.3897185999995,1293.3747461999992,f,1.6910397999999986,0.07115419999900041,1293.3748536999992,1293.3748911999974,None,,,,,,,,,,,,,,00057,001,2026-01-18_21h46.54.870,MST_task,2024.2.0,59.91992301506576,2026-01-18 21h47.32.546427 +0530,
,Objects\064a.jpg,129,0,130,,,,,f,1.1921780000011495,0.06346339999799966,None,,,,,,130,0,129,1293.3897185999995,,,,,,,,,,,,,,,,,,,,,,,,,,,,,,1293.3750972999987,1293.3897185999995,1293.912218999998,1293.8736690999976,,,,,,,,,,,,,,,,,,,,,,1293.9086242999983,1293.912218999998,1293.912218999998,1293.912218999998,,,,1296.8898606999974,f,1.1921780000011495,0.06346339999799966,1296.8899783999987,1296.8900184999984,None,,,,,,,,,,,,,,00057,001,2026-01-18_21h46.54.870,MST_task,2024.2.0,59.91992301506576,2026-01-18 21h47.32.546427 +0530,
,Objects\026a.jpg,130,0,131,,,,,f,1.753491200001008,0.06394399999771849,None,,,,,,131,0,130,1296.9059732999995,,,,,,,,,,,,,,,,,,,,,,,,,,,,,,1296.890303199998,1296.9059732999995,1297.4063472999987,1297.3908773000003,,,,,,,,,,,,,,,,,,,,,,1297.3991975999998,1297.4063472999987,1297.4063472999987,1297.4063472999987,1300.4058350999985,1300.4058350999985,1300.4058350999985,1300.3911797,f,1.753491200001008,0.06394399999771849,1300.3912915999972,1300.3913317999977,None,,,,,,,,,,,,,,00057,001,2026-01-18_21h46.54.870,MST_task,2024.2.0,59.91992301506576,2026-01-18 21h47.32.546427 +0530,
,Objects\170a.jpg,131,0,132,,,,,f,1.1736524999978428,0.07965800000238232,None,,,,,,132,0,131,1300.4058350999985,,,,,,,,,,,,,,,,,,,,,,,,,,,,,,1300.3916269999972,1300.4058350999985,1300.906390799999,1300.8905040999998,,,,,,,,,,,,,,,,,,,,,,1300.8986416999978,1300.906390799999,1300.906390799999,1300.906390799999,1303.906038099998,1303.906038099998,1303.906038099998,1303.8914205,f,1.1736524999978428,0.07965800000238232,1303.8915731999987,1303.8916200999993,None,,,,,,,,,,,,,,00057,001,2026-01-18_21h46.54.870,MST_task,2024.2.0,59.91992301506576,2026-01-18 21h47.32.546427 +0530,
,Objects\040a.jpg,132,0,133,,,,,f,1.1857625999982702,0.08892010000272421,None,,,,,,133,0,132,1303.906038099998,,,,,,,,,,,,,,,,,,,,,,,,,,,,,,1303.8918687999976,1303.906038099998,1304.4061782999997,1304.3905395999973,,,,,,,,,,,,,,,,,,,,,,1304.3965798999998,1304.4061782999997,1304.4061782999997,1304.4061782999997,1307.4060711999991,1307.4060711999991,1307.4060711999991,1307.3912695,f,1.1857625999982702,0.08892010000272421,1307.3914143999973,1307.391459999999,None,,,,,,,,,,,,,,00057,001,2026-01-18_21h46.54.870,MST_task,2024.2.0,59.91992301506576,2026-01-18 21h47.32.546427 +0530,
,Scenes\128a.jpg,133,0,134,,,,,j,0.9855816999988747,0.10331510000105482,None,,,,,,134,0,133,1307.4060711999991,,,,,,,,,,,,,,,,,,,,,,,,,,,,,,1307.391712499997,1307.4060711999991,,1307.8916266999986,,,,,,,,,,,,,,,,,,,,,,1307.9080609999983,1307.9110669999973,1307.9110669999973,1307.9110669999973,,,,1310.906379199998,j,0.9855816999988747,0.10331510000105482,1310.9116243999997,1310.9116880000001,None,,,,,,,,,,,,,,00057,001,2026-01-18_21h46.54.870,MST_task,2024.2.0,59.91992301506576,2026-01-18 21h47.32.546427 +0530,
,Scenes\058a.jpg,134,0,135,,,,,f,2.3027490000022226,0.07255259999874397,None,,,,,,135,0,134,1310.9226796999974,,,,,,,,,,,,,,,,,,,,,,,,,,,,,,1310.9118137999976,1310.9226796999974,1311.4261606999971,1311.407099699998,,,,,,,,,,,,,,,,,,,,,,1311.422556999998,1311.4261606999971,1311.4261606999971,1311.4261606999971,,,,1314.4230936999993,f,2.3027490000022226,0.07255259999874397,1314.423265399997,1314.4233309999981,None,,,,,,,,,,,,,,00057,001,2026-01-18_21h46.54.870,MST_task,2024.2.0,59.91992301506576,2026-01-18 21h47.32.546427 +0530,
,Scenes\032a.jpg,135,0,136,,,,,j,1.2815235999987635,0.10421540000243112,None,,,,,,136,0,135,1314.4395084999996,,,,,,,,,,,,,,,,,,,,,,,,,,,,,,1314.423762899998,1314.4395084999996,1315.0061545999997,1314.923817699997,,,,,,,,,,,,,,,,,,,,,,1315.001796499997,1315.0061545999997,1315.0061545999997,1315.0061545999997,,,,1317.9399991999999,j,1.2815235999987635,0.10421540000243112,1317.9401839999991,1317.9402507999985,None,,,,,,,,,,,,,,00057,001,2026-01-18_21h46.54.870,MST_task,2024.2.0,59.91992301506576,2026-01-18 21h47.32.546427 +0530,
,Scenes\008a.jpg,136,0,137,,,,,f,1.4880787000001874,0.1194391999997606,None,,,,,,137,0,136,1317.9559895999992,,,,,,,,,,,,,,,,,,,,,,,,,,,,,,1317.9405893999974,1317.9559895999992,1318.4567786999978,1318.440628299999,,,,,,,,,,,,,,,,,,,,,,1318.4511877000004,1318.4567786999978,1318.4567786999978,1318.4567786999978,1321.455981199997,1321.455981199997,1321.455981199997,1321.4412142999972,f,1.4880787000001874,0.1194391999997606,1321.4413943,1321.4414307999978,None,,,,,,,,,,,,,,00057,001,2026-01-18_21h46.54.870,MST_task,2024.2.0,59.91992301506576,2026-01-18 21h47.32.546427 +0530,
,Scenes\146a.jpg,137,0,138,,,,,j,1.1290818999987096,0.11267280000174651,None,,,,,,138,0,137,1321.455981199997,,,,,,,,,,,,,,,,,,,,,,,,,,,,,,1321.441608899997,1321.455981199997,1322.0074894999998,1321.9405277999977,,,,,,,,,,,,,,,,,,,,,,1322.0042192,1322.0074894999998,1322.0074894999998,1322.0074894999998,,,,1324.9565506,j,1.1290818999987096,0.11267280000174651,1324.9567121,1324.9567723999971,None,,,,,,,,,,,,,,00057,001,2026-01-18_21h46.54.870,MST_task,2024.2.0,59.91992301506576,2026-01-18 21h47.32.546427 +0530,
,Scenes\019a.jpg,138,0,139,,,,,f,2.2504072999981872,0.19159790000048815,None,,,,,,139,0,138,1324.972638799998,,,,,,,,,,,,,,,,,,,,,,,,,,,,,,1324.9571873999994,1324.972638799998,1325.517475499997,1325.4574384999978,,,,,,,,,,,,,,,,,,,,,,1325.5145372999978,1325.517475499997,1325.517475499997,1325.517475499997,,,,1328.473247599999,f,2.2504072999981872,0.19159790000048815,1328.4734134999999,1328.4734790000002,None,,,,,,,,,,,,,,00057,001,2026-01-18_21h46.54.870,MST_task,2024.2.0,59.91992301506576,2026-01-18 21h47.32.546427 +0530,
,Scenes\153a.jpg,139,0,140,,,,,j,2.6816674000001512,0.15073130000018864,None,,,,,,140,0,139,1328.4894160999975,,,,,,,,,,,,,,,,,,,,,,,,,,,,,,1328.4738027999992,1328.4894160999975,1328.9914513000003,1328.9738724999988,,,,,,,,,,,,,,,,,,,,,,1328.9865033999995,1328.9914513000003,1328.9914513000003,1328.9914513000003,,,,1331.9899210000003,j,2.6816674000001512,0.15073130000018864,1331.9900906000003,1331.9901570000002,None,,,,,,,,,,,,,,00057,001,2026-01-18_21h46.54.870,MST_task,2024.2.0,59.91992301506576,2026-01-18 21h47.32.546427 +0530,
,Objects\062a.jpg,140,0,141,,,,,f,2.3905941000011808,0.13500379999823053,None,,,,,,141,0,140,1332.0060849000001,,,,,,,,,,,,,,,,,,,,,,,,,,,,,,1331.9905875000004,1332.0060849000001,1332.5065751999973,1332.4906114000005,,,,,,,,,,,,,,,,,,,,,,1332.4991969999974,1332.5065751999973,1332.5065751999973,1332.5065751999973,1335.506282299997,1335.506282299997,1335.506282299997,1335.4913272999984,f,2.3905941000011808,0.13500379999823053,1335.4959853999972,1335.4960333999989,None,,,,,,,,,,,,,,00057,001,2026-01-18_21h46.54.870,MST_task,2024.2.0,59.91992301506576,2026-01-18 21h47.32.546427 +0530,
,Objects\116a.jpg,141,0,142,,,,,f,1.794367799997417,0.13546380000116187,None,,,,,,142,0,141,1335.506282299997,,,,,,,,,,,,,,,,,,,,,,,,,,,,,,1335.4962312999996,1335.506282299997,1336.0064050999972,1335.9905005999972,,,,,,,,,,,,,,,,,,,,,,1335.996433799999,1336.0064050999972,1336.0064050999972,1336.0064050999972,1339.0058725999988,1339.0058725999988,1339.0058725999988,1338.991055999999,f,1.794367799997417,0.13546380000116187,1338.9912294999995,1338.9912939999995,None,,,,,,,,,,,,,,00057,001,2026-01-18_21h46.54.870,MST_task,2024.2.0,59.91992301506576,2026-01-18 21h47.32.546427 +0530,
,Objects\101a.jpg,142,0,143,,,,,f,1.0948201999999583,0.12794149999899673,None,,,,,,143,0,142,1339.0058725999988,,,,,,,,,,,,,,,,,,,,,,,,,,,,,,1338.9916601000004,1339.0058725999988,1339.506059299998,1339.4906415000005,,,,,,,,,,,,,,,,,,,,,,1339.4967854999995,1339.506059299998,1339.506059299998,1339.506059299998,1342.5059634999998,1342.5059634999998,1342.5059634999998,1342.4914747999974,f,1.0948201999999583,0.12794149999899673,1342.4916558999976,1342.4917210999993,None,,,,,,,,,,,,,,00057,001,2026-01-18_21h46.54.870,MST_task,2024.2.0,59.91992301506576,2026-01-18 21h47.32.546427 +0530,
,Objects\157a.jpg,143,0,144,,,,,f,1.346215999998094,0.11982910000006086,None,,,,,,144,0,143,1342.5059634999998,,,,,,,,,,,,,,,,,,,,,,,,,,,,,,1342.4920146999975,1342.5059634999998,1343.0063685999994,1342.9904131000003,,,,,,,,,,,,,,,,,,,,,,1342.9963516999997,1343.0063685999994,1343.0063685999994,1343.0063685999994,1346.0058604999977,1346.0058604999977,1346.0058604999977,1345.9912513999989,f,1.346215999998094,0.11982910000006086,1345.9914040000003,1345.9914745999995,None,,,,,,,,,,,,,,00057,001,2026-01-18_21h46.54.870,MST_task,2024.2.0,59.91992301506576,2026-01-18 21h47.32.546427 +0530,
,Objects\035a.jpg,144,0,145,,,,,f,1.517972199999349,0.09613979999994626,None,,,,,,145,0,144,1346.0058604999977,,,,,,,,,,,,,,,,,,,,,,,,,,,,,,1345.991927799998,1346.0058604999977,1346.5061528999977,1346.4904568999991,,,,,,,,,,,,,,,,,,,,,,1346.498496199998,1346.5061528999977,1346.5061528999977,1346.5061528999977,1349.5060840999977,1349.5060840999977,1349.5060840999977,1349.4913662,f,1.517972199999349,0.09613979999994626,1349.4914886999977,1349.491532199998,None,,,,,,,,,,,,,,00057,001,2026-01-18_21h46.54.870,MST_task,2024.2.0,59.91992301506576,2026-01-18 21h47.32.546427 +0530,
,Objects\156a.jpg,145,0,146,,,,,f,2.353171499999007,0.09619569999995292,None,,,,,,146,0,145,1349.5060840999977,,,,,,,,,,,,,,,,,,,,,,,,,,,,,,1349.4917483999998,1349.5060840999977,1350.006321599998,1349.9904324999989,,,,,,,,,,,,,,,,,,,,,,1349.9986948999976,1350.006321599998,1350.006321599998,1350.006321599998,1353.0059164999984,1353.0059164999984,1353.0059164999984,1352.9913634000004,f,2.353171499999007,0.09619569999995292,1352.9915105,1352.9915651999981,None,,,,,,,,,,,,,,00057,001,2026-01-18_21h46.54.870,MST_task,2024.2.0,59.91992301506576,2026-01-18 21h47.32.546427 +0530,
,Objects\017a.jpg,146,0,147,,,,,f,1.6462658999989799,0.09532659999968018,None,,,,,,147,0,146,1353.0059164999984,,,,,,,,,,,,,,,,,,,,,,,,,,,,,,1352.9917891000005,1353.0059164999984,1353.5061548999984,1353.4904707999995,,,,,,,,,,,,,,,,,,,,,,1353.498625199998,1353.5061548999984,1353.5061548999984,1353.5061548999984,1356.5062364999976,1356.5062364999976,1356.5062364999976,1356.4908778999998,f,1.6462658999989799,0.09532659999968018,1356.4910186999987,1356.4910522999999,None,,,,,,,,,,,,,,00057,001,2026-01-18_21h46.54.870,MST_task,2024.2.0,59.91992301506576,2026-01-18 21h47.32.546427 +0530,
,Scenes\029a.jpg,147,0,148,,,,,j,1.1062663000011526,0.14381629999843426,None,,,,,,148,0,147,1356.5062364999976,,,,,,,,,,,,,,,,,,,,,,,,,,,,,,1356.4912145999988,1356.5062364999976,1357.0146357999984,1356.9904889999998,,,,,,,,,,,,,,,,,,,,,,1357.0114923999972,1357.0146357999984,1357.0146357999984,1357.0146357999984,,,,1360.006348699997,j,1.1062663000011526,0.14381629999843426,1360.0117562999985,1360.011813899997,None,,,,,,,,,,,,,,00057,001,2026-01-18_21h46.54.870,MST_task,2024.2.0,59.91992301506576,2026-01-18 21h47.32.546427 +0530,
,Scenes\097a.jpg,148,0,149,,,,,f,1.0139578999987862,0.1347726000021794,None,,,,,,149,0,148,1360.0228763999985,,,,,,,,,,,,,,,,,,,,,,,,,,,,,,1360.0121121999982,1360.0228763999985,1360.523092899999,1360.5069779999976,,,,,,,,,,,,,,,,,,,,,,1360.5143838999975,1360.523092899999,1360.523092899999,1360.523092899999,1363.5227118000003,1363.5227118000003,1363.5227118000003,1363.5077127999975,f,1.0139578999987862,0.1347726000021794,1363.5078146999986,1363.5078512999971,None,,,,,,,,,,,,,,00057,001,2026-01-18_21h46.54.870,MST_task,2024.2.0,59.91992301506576,2026-01-18 21h47.32.546427 +0530,
,Scenes\149a.jpg,149,0,150,,,,,None,,,f,1.8483947000022454,None,,,,150,0,149,1363.5227118000003,,,,,,,,,,,,,,,,,,,,,,,,,,,,,,1363.5082409999995,1363.5227118000003,1364.0305023,1364.0072567999996,,,,,,,,,,,,,,,,,,,,,,1364.0273094999975,1364.0305023,1364.0305023,1364.0305023,,,,1367.0230042999974,None,,,1367.0231015999998,1368.8919262999989,f,1367.0395018999989,1367.0395018999989,1.8483947000022454,None,,,,,,,,,,00057,001,2026-01-18_21h46.54.870,MST_task,2024.2.0,59.91992301506576,2026-01-18 21h47.32.546427 +0530,
,Scenes\154a.jpg,150,0,151,,,,,j,1.437737100000959,0.152932699998928,None,,,,,,151,0,150,1368.9059818999995,,,,,,,,,,,,,,,,,,,,,,,,,,,,,,1368.8921506999977,1368.9059818999995,1369.4100015999975,1369.3903771000005,,,,,,,,,,,,,,,,,,,,,,1369.4069237999975,1369.4100015999975,1369.4100015999975,1369.4100015999975,,,,1372.4067479999976,j,1.437737100000959,0.152932699998928,1372.406874299999,1372.4069186999986,None,,,,,,,,,,,,,,00057,001,2026-01-18_21h46.54.870,MST_task,2024.2.0,59.91992301506576,2026-01-18 21h47.32.546427 +0530,
,Scenes\088a.jpg,151,0,152,,,,,j,1.520196000001306,0.12747479999961797,None,,,,,,152,0,151,1372.4226696999976,,,,,,,,,,,,,,,,,,,,,,,,,,,,,,1372.4072254999992,1372.4226696999976,1372.9285956999993,1372.9074241999988,,,,,,,,,,,,,,,,,,,,,,1372.9250558999993,1372.9285956999993,1372.9285956999993,1372.9285956999993,,,,1375.9230661999973,j,1.520196000001306,0.12747479999961797,1375.9232367999975,1375.9232746999987,None,,,,,,,,,,,,,,00057,001,2026-01-18_21h46.54.870,MST_task,2024.2.0,59.91992301506576,2026-01-18 21h47.32.546427 +0530,
,Scenes\026a.jpg,152,0,153,,,,,j,1.771931699997367,0.12694440000268514,None,,,,,,153,0,152,1375.9394549999997,,,,,,,,,,,,,,,,,,,,,,,,,,,,,,1375.9235386,1375.9394549999997,1376.4449303000001,1376.4240463999995,,,,,,,,,,,,,,,,,,,,,,1376.441714499997,1376.4449303000001,1376.4449303000001,1376.4449303000001,,,,1379.4409930000002,j,1.771931699997367,0.12694440000268514,1379.441176799999,1379.4412435999984,None,,,,,,,,,,,,,,00057,001,2026-01-18_21h46.54.870,MST_task,2024.2.0,59.91992301506576,2026-01-18 21h47.32.546427 +0530,
,Scenes\156a.jpg,153,0,154,,,,,j,2.6186329999982263,0.11328560000038124,None,,,,,,154,0,153,1379.4559377999976,,,,,,,,,,,,,,,,,,,,,,,,,,,,,,1379.4415760999982,1379.4559377999976,1379.957431699997,1379.9404727999972,,,,,,,,,,,,,,,,,,,,,,1379.9529048999975,1379.957431699997,1379.957431699997,1379.957431699997,,,,1382.956595399999,j,2.6186329999982263,0.11328560000038124,1382.9567652999976,1382.9568299999992,None,,,,,,,,,,,,,,00057,001,2026-01-18_21h46.54.870,MST_task,2024.2.0,59.91992301506576,2026-01-18 21h47.32.546427 +0530,
,Objects\124a.jpg,154,0,155,,,,,j,1.7180481999967014,0.13753850000284729,None,,,,,,155,0,154,1382.9727175999978,,,,,,,,,,,,,,,,,,,,,,,,,,,,,,1382.9571695999985,1382.9727175999978,1383.4735469999978,1383.4568918999976,,,,,,,,,,,,,,,,,,,,,,1383.4679956,1383.4735469999978,1383.4735469999978,1383.4735469999978,1386.4730227,1386.4730227,1386.4730227,1386.458096899998,j,1.7180481999967014,0.13753850000284729,1386.4630829999987,1386.463101999998,None,,,,,,,,,,,,,,00057,001,2026-01-18_21h46.54.870,MST_task,2024.2.0,59.91992301506576,2026-01-18 21h47.32.546427 +0530,
,Objects\099a.jpg,155,0,156,,,,,f,0.9505755999998655,0.14413520000016433,None,,,,,,156,0,155,1386.4730227,,,,,,,,,,,,,,,,,,,,,,,,,,,,,,1386.463220499998,1386.4730227,1387.002044599998,1386.9570335999997,,,,,,,,,,,,,,,,,,,,,,1386.9989348999989,1387.002044599998,1387.002044599998,1387.002044599998,,,,1389.9731960999998,f,0.9505755999998655,0.14413520000016433,1389.9733869999982,1389.973453399998,None,,,,,,,,,,,,,,00057,001,2026-01-18_21h46.54.870,MST_task,2024.2.0,59.91992301506576,2026-01-18 21h47.32.546427 +0530,
,Objects\089a.jpg,156,0,157,,,,,j,1.2950037000009615,0.10436180000033346,None,,,,,,157,0,156,1389.9893563999976,,,,,,,,,,,,,,,,,,,,,,,,,,,,,,1389.973771099998,1389.9893563999976,1390.4897921999982,1390.473905699997,,,,,,,,,,,,,,,,,,,,,,1390.4820492,1390.4897921999982,1390.4897921999982,1390.4897921999982,1393.489265799999,1393.489265799999,1393.489265799999,1393.4746080000004,j,1.2950037000009615,0.10436180000033346,1393.4747967999974,1393.4748583,None,,,,,,,,,,,,,,00057,001,2026-01-18_21h46.54.870,MST_task,2024.2.0,59.91992301506576,2026-01-18 21h47.32.546427 +0530,
,Objects\095a.jpg,157,0,158,,,,,f,0.906559399998514,0.12060760000167647,None,,,,,,158,0,157,1393.489265799999,,,,,,,,,,,,,,,,,,,,,,,,,,,,,,1393.4752745999976,1393.489265799999,1394.0056081999974,1393.9739072999982,,,,,,,,,,,,,,,,,,,,,,1394.0022616999995,1394.0056081999974,1394.0056081999974,1394.0056081999974,,,,1396.9899609999993,f,0.906559399998514,0.12060760000167647,1396.9900678999984,1396.9901057999996,None,,,,,,,,,,,,,,00057,001,2026-01-18_21h46.54.870,MST_task,2024.2.0,59.91992301506576,2026-01-18 21h47.32.546427 +0530,
,Objects\069a.jpg,158,0,159,,,,,j,1.2953309000004083,0.07942919999914011,None,,,,,,159,0,158,1397.005929699997,,,,,,,,,,,,,,,,,,,,,,,,,,,,,,1396.990377299997,1397.005929699997,1397.5211373999991,1397.4905174999985,,,,,,,,,,,,,,,,,,,,,,1397.517970099998,1397.5211373999991,1397.5211373999991,1397.5211373999991,,,,1400.5061829999977,j,1.2953309000004083,0.07942919999914011,1400.506285399999,1400.5063239999981,None,,,,,,,,,,,,,,00057,001,2026-01-18_21h46.54.870,MST_task,2024.2.0,59.91992301506576,2026-01-18 21h47.32.546427 +0530,
,Objects\025a.jpg,159,0,160,,,,,f,1.7136690000006638,0.07147629999963101,None,,,,,,160,0,159,1400.5226103999994,,,,,,,,,,,,,,,,,,,,,,,,,,,,,,1400.506582099999,1400.5226103999994,1401.0229392999972,1401.0071344999997,,,,,,,,,,,,,,,,,,,,,,1401.013356899999,1401.0229392999972,1401.0229392999972,1401.0229392999972,1404.0228618,1404.0228618,1404.0228618,1404.0073518999998,f,1.7136690000006638,0.07147629999963101,1404.0074510999984,1404.0074872000005,None,,,,,,,,,,,,,,00057,001,2026-01-18_21h46.54.870,MST_task,2024.2.0,59.91992301506576,2026-01-18 21h47.32.546427 +0530,
,Objects\019a.jpg,160,0,161,,,,,f,2.349887899999885,0.11194740000064485,None,,,,,,161,0,160,1404.0228618,,,,,,,,,,,,,,,,,,,,,,,,,,,,,,1404.0078491999993,1404.0228618,1404.5388257999984,1404.5069600999996,,,,,,,,,,,,,,,,,,,,,,1404.5347771999986,1404.5388257999984,1404.5388257999984,1404.5388257999984,,,,1407.523427,f,2.349887899999885,0.11194740000064485,1407.523589299999,1407.5236349999977,None,,,,,,,,,,,,,,00057,001,2026-01-18_21h46.54.870,MST_task,2024.2.0,59.91992301506576,2026-01-18 21h47.32.546427 +0530,
,Scenes\167a.jpg,161,0,162,,,,,f,1.7734823999999207,0.12195419999989099,None,,,,,,162,0,161,1407.5393344000004,,,,,,,,,,,,,,,,,,,,,,,,,,,,,,1407.5238591999987,1407.5393344000004,1408.0432981999984,1408.023847499997,,,,,,,,,,,,,,,,,,,,,,1408.0402947000002,1408.0432981999984,1408.0432981999984,1408.0432981999984,,,,1411.0399491999997,f,1.7734823999999207,0.12195419999989099,1411.045313999999,1411.0453383999993,None,,,,,,,,,,,,,,00057,001,2026-01-18_21h46.54.870,MST_task,2024.2.0,59.91992301506576,2026-01-18 21h47.32.546427 +0530,
,Scenes\187a.jpg,162,0,163,,,,,j,0.8724720000027446,0.11167179999756627,None,,,,,,163,0,162,1411.0559584999974,,,,,,,,,,,,,,,,,,,,,,,,,,,,,,1411.0454597999997,1411.0559584999974,1411.5594409999976,1411.5405355000003,,,,,,,,,,,,,,,,,,,,,,1411.556217199999,1411.5594409999976,1411.5594409999976,1411.5594409999976,,,,1414.5564534000005,j,0.8724720000027446,0.11167179999756627,1414.5566213999991,1414.5566886999986,None,,,,,,,,,,,,,,00057,001,2026-01-18_21h46.54.870,MST_task,2024.2.0,59.91992301506576,2026-01-18 21h47.32.546427 +0530,
,Scenes\163a.jpg,163,0,164,,,,,j,1.2228230000000622,0.18434680000063963,None,,,,,,164,0,163,1414.5728127999973,,,,,,,,,,,,,,,,,,,,,,,,,,,,,,1414.5569448999995,1414.5728127999973,1415.073590699998,1415.0573607999977,,,,,,,,,,,,,,,,,,,,,,1415.066321899998,1415.073590699998,1415.073590699998,1415.073590699998,1418.072701099998,1418.072701099998,1418.072701099998,1418.0578943999972,j,1.2228230000000622,0.18434680000063963,1418.0580136999997,1418.0580547999998,None,,,,,,,,,,,,,,00057,001,2026-01-18_21h46.54.870,MST_task,2024.2.0,59.91992301506576,2026-01-18 21h47.32.546427 +0530,
,Scenes\190a.jpg,164,0,165,,,,,j,1.2582836000001407,0.09621179999885499,None,,,,,,165,0,164,1418.072701099998,,,,,,,,,,,,,,,,,,,,,,,,,,,,,,1418.0585006000001,1418.072701099998,1418.5824667999987,1418.5575097999972,,,,,,,,,,,,,,,,,,,,,,1418.579221,1418.5824667999987,1418.5824667999987,1418.5824667999987,,,,1421.5734159999993,j,1.2582836000001407,0.09621179999885499,1421.5735244999996,1421.5735655999997,None,,,,,,,,,,,,,,00057,001,2026-01-18_21h46.54.870,MST_task,2024.2.0,59.91992301506576,2026-01-18 21h47.32.546427 +0530,
,Scenes\152a.jpg,165,0,166,,,,,j,1.0463173999996798,0.07106800000110525,None,,,,,,166,0,165,1421.589388999997,,,,,,,,,,,,,,,,,,,,,,,,,,,,,,1421.5737660999985,1421.589388999997,1422.0900882999995,1422.0739092000003,,,,,,,,,,,,,,,,,,,,,,1422.0845419999969,1422.0900882999995,1422.0900882999995,1422.0900882999995,1425.0893596999995,1425.0893596999995,1425.0893596999995,1425.0747865999983,j,1.0463173999996798,0.07106800000110525,1425.0749230000001,1425.0749837000003,None,,,,,,,,,,,,,,00057,001,2026-01-18_21h46.54.870,MST_task,2024.2.0,59.91992301506576,2026-01-18 21h47.32.546427 +0530,
