thisN,thisTrialN,thisRepN,key_resp_3.keys,key_resp_3.rt,key_resp_3.duration,trials.thisRepN,trials.thisTrialN,trials.thisN,thisRow.t,notes,intro_page.started,text.started,key_resp.started,intro_page.stopped,key_resp.keys,key_resp.rt,key_resp.duration,instructions.started,text_2.started,key_resp_2.started,instructions.stopped,key_resp_2.keys,key_resp_2.rt,key_resp_2.duration,demo1.started,image_1.started,image_2.started,text_7.started,key_resp_6.started,text_9.started,demo1.stopped,key_resp_6.keys,key_resp_6.rt,key_resp_6.duration,demo2.started,image_5.started,image_6.started,text_11.started,text_12.started,key_resp_8.started,demo2.stopped,key_resp_8.keys,key_resp_8.rt,key_resp_8.duration,demo_conclusion.started,text_13.started,key_resp_9.started,demo_conclusion.stopped,key_resp_9.keys,key_resp_9.rt,key_resp_9.duration,start_test.started,text_6.started,key_resp_5.started,start_test.stopped,key_resp_5.keys,key_resp_5.rt,key_resp_5.duration,ISI.started,text_4.started,text_4.stopped,ISI.stopped,routine_1.started,image.started,text_3.started,key_resp_3.started,routine_1.stopped,image_path,position_of_stimuli,trials.key_resp_3.keys,trials.key_resp_3.rt,trials.key_resp_3.duration,End_page.started,text_5.started,key_resp_4.started,End_page.stopped,key_resp_4.keys,key_resp_4.rt,key_resp_4.duration,participant,session,date,expName,psychopyVersion,frameRate,expStart,
,,,,,,,,,,,0.0012404000153765082,0.0026612000074237585,0.0026612000074237585,2.4282407000428066,space,2.4233940999838524,None,,,,,,,,,,,,,,,,,,,,,,,,,,,,,,,,,,,,,,,,,,,,,,,,,,,,,,,,,,,,,,,00058,001,2026-01-19_11h41.42.159,MST_test,2024.2.0,60.104606062240876,2026-01-19 11h41.54.575985 +0530,
,,,,,,,,,,,,,,,,,,2.4282714999862947,2.443002699990757,2.443002699990757,14.693444800039288,space,12.246915499970783,None,,,,,,,,,,,,,,,,,,,,,,,,,,,,,,,,,,,,,,,,,,,,,,,,,,,,,,,,00058,001,2026-01-19_11h41.42.159,MST_test,2024.2.0,60.104606062240876,2026-01-19 11h41.54.575985 +0530,
,,,,,,,,,,,,,,,,,,,,,,,,,14.6934740000288,14.710038300021552,14.710038300021552,14.710038300021552,14.710038300021552,14.710038300021552,29.22695520002162,space,14.500055799959227,None,,,,,,,,,,,,,,,,,,,,,,,,,,,,,,,,,,,,,,,,,,,,,,00058,001,2026-01-19_11h41.42.159,MST_test,2024.2.0,60.104606062240876,2026-01-19 11h41.54.575985 +0530,
,,,,,,,,,,,,,,,,,,,,,,,,,,,,,,,,,,,29.226984600012656,29.243419500009622,29.243419500009622,29.243419500009622,29.243419500009622,29.243419500009622,33.410762000014074,space,4.166260999976657,None,,,,,,,,,,,,,,,,,,,,,,,,,,,,,,,,,,,,00058,001,2026-01-19_11h41.42.159,MST_test,2024.2.0,60.104606062240876,2026-01-19 11h41.54.575985 +0530,
,,,,,,,,,,,,,,,,,,,,,,,,,,,,,,,,,,,,,,,,,,,,,33.410791100002825,33.42645080003422,33.42645080003422,117.16021290002391,space,83.72016720002284,None,,,,,,,,,,,,,,,,,,,,,,,,,,,,,00058,001,2026-01-19_11h41.42.159,MST_test,2024.2.0,60.104606062240876,2026-01-19 11h41.54.575985 +0530,
,,,,,,,,,,,,,,,,,,,,,,,,,,,,,,,,,,,,,,,,,,,,,,,,,,,,117.16025160002755,117.17625200003386,117.17625200003386,134.37659510003868,space,17.18682090000948,None,,,,,,,,,,,,,,,,,,,,,,00058,001,2026-01-19_11h41.42.159,MST_test,2024.2.0,60.104606062240876,2026-01-19 11h41.54.575985 +0530,
0,0,1,o,25.717333499982487,None,1,0,0,134.392945300031,,,,,,,,,,,,,,,,,,,,,,,,,,,,,,,,,,,,,,,,,,,,,,,,,,134.38085050001973,134.392945300031,134.89310560002923,134.87642210000195,134.88732169999275,134.89310560002923,134.89310560002923,134.89310560002923,160.62689370004227,Objects\116a.jpg,post,o,25.717333499982487,None,,,,,,,,00058,001,2026-01-19_11h41.42.159,MST_test,2024.2.0,60.104606062240876,2026-01-19 11h41.54.575985 +0530,
1,0,2,o,6.578356200014241,None,2,0,1,160.64308629999869,,,,,,,,,,,,,,,,,,,,,,,,,,,,,,,,,,,,,,,,,,,,,,,,,,160.62699570000404,160.64308629999869,161.1435248000198,161.12653740000678,161.13404360000277,161.1435248000198,161.1435248000198,161.1435248000198,167.72751260001678,Scenes\163a.jpg,pre,o,6.578356200014241,None,,,,,,,,00058,001,2026-01-19_11h41.42.159,MST_test,2024.2.0,60.104606062240876,2026-01-19 11h41.54.575985 +0530,
2,0,3,s,6.767807100026403,None,3,0,2,167.74306860001525,,,,,,,,,,,,,,,,,,,,,,,,,,,,,,,,,,,,,,,,,,,,,,,,,,167.72760770004243,167.74306860001525,168.24318069999572,168.22656179999467,168.24066730000777,168.24318069999572,168.24318069999572,168.24318069999572,175.0267872000113,Objects\018b.jpg,post,s,6.767807100026403,None,,,,,,,,00058,001,2026-01-19_11h41.42.159,MST_test,2024.2.0,60.104606062240876,2026-01-19 11h41.54.575985 +0530,
3,0,4,s,8.698417200008407,None,4,0,3,175.04300840001088,,,,,,,,,,,,,,,,,,,,,,,,,,,,,,,,,,,,,,,,,,,,,,,,,,175.0268884000252,175.04300840001088,175.54331380000804,175.5264257999952,175.5360934000346,175.54331380000804,175.54331380000804,175.54331380000804,184.2435797000071,Objects\022b.jpg,mid,s,8.698417200008407,None,,,,,,,,00058,001,2026-01-19_11h41.42.159,MST_test,2024.2.0,60.104606062240876,2026-01-19 11h41.54.575985 +0530,
4,0,5,n,8.498480300011579,None,5,0,4,184.25966530002188,,,,,,,,,,,,,,,,,,,,,,,,,,,,,,,,,,,,,,,,,,,,,,,,,,184.24367350002285,184.25966530002188,184.75984960002825,184.74341910000658,184.754424200044,184.75984960002825,184.75984960002825,184.75984960002825,193.26026690000435,Foils\010a.jpg,none,n,8.498480300011579,None,,,,,,,,00058,001,2026-01-19_11h41.42.159,MST_test,2024.2.0,60.104606062240876,2026-01-19 11h41.54.575985 +0530,
5,0,6,o,11.23372980003478,None,6,0,5,193.27615330001572,,,,,,,,,,,,,,,,,,,,,,,,,,,,,,,,,,,,,,,,,,,,,,,,,,193.26035980001325,193.27615330001572,193.7764787999913,193.75994320004247,193.7699888999923,193.7764787999913,193.7764787999913,193.7764787999913,205.01080889999866,Objects\142b.jpg,post,o,11.23372980003478,None,,,,,,,,00058,001,2026-01-19_11h41.42.159,MST_test,2024.2.0,60.104606062240876,2026-01-19 11h41.54.575985 +0530,
6,0,7,s,11.531837599992286,None,7,0,6,205.0261720000417,,,,,,,,,,,,,,,,,,,,,,,,,,,,,,,,,,,,,,,,,,,,,,,,,,205.0108995999908,205.0261720000417,205.52634159999434,205.5098937000148,205.51295100001153,205.52634159999434,205.52634159999434,205.52634159999434,217.06029870000202,Objects\081a.jpg,pre,s,11.531837599992286,None,,,,,,,,00058,001,2026-01-19_11h41.42.159,MST_test,2024.2.0,60.104606062240876,2026-01-19 11h41.54.575985 +0530,
7,0,8,n,9.355989500007126,None,8,0,7,217.07623080001213,,,,,,,,,,,,,,,,,,,,,,,,,,,,,,,,,,,,,,,,,,,,,,,,,,217.06038839998655,217.07623080001213,217.60583790001692,217.55992190004326,217.60317780001787,217.60583790001692,217.60583790001692,217.60583790001692,226.9769668999943,Foils\scenes15.jpg,none,n,9.355989500007126,None,,,,,,,,00058,001,2026-01-19_11h41.42.159,MST_test,2024.2.0,60.104606062240876,2026-01-19 11h41.54.575985 +0530,
8,0,9,o,8.684725700004492,None,9,0,8,226.99296669999603,,,,,,,,,,,,,,,,,,,,,,,,,,,,,,,,,,,,,,,,,,,,,,,,,,226.97705700004008,226.99296669999603,227.4931779000326,227.47650410002097,227.49000089999754,227.4931779000326,227.4931779000326,227.4931779000326,236.19349169998895,Scenes\177a.jpg,pre,o,8.684725700004492,None,,,,,,,,00058,001,2026-01-19_11h41.42.159,MST_test,2024.2.0,60.104606062240876,2026-01-19 11h41.54.575985 +0530,
9,0,10,n,5.4365071000065655,None,10,0,9,236.2096242000116,,,,,,,,,,,,,,,,,,,,,,,,,,,,,,,,,,,,,,,,,,,,,,,,,,236.19358580000699,236.2096242000116,236.71003000001656,236.6932748000254,236.70441830001073,236.71003000001656,236.71003000001656,236.71003000001656,242.16022290004184,Foils\scenes14.jpg,none,n,5.4365071000065655,None,,,,,,,,00058,001,2026-01-19_11h41.42.159,MST_test,2024.2.0,60.104606062240876,2026-01-19 11h41.54.575985 +0530,
10,0,11,o,14.125943100021686,None,11,0,10,242.17626710003242,,,,,,,,,,,,,,,,,,,,,,,,,,,,,,,,,,,,,,,,,,,,,,,,,,242.16031800000928,242.17626710003242,242.67661630001385,242.65987199998926,242.66980790003436,242.67661630001385,242.67661630001385,242.67661630001385,256.8104302000138,Scenes\047a.jpg,pre,o,14.125943100021686,None,,,,,,,,00058,001,2026-01-19_11h41.42.159,MST_test,2024.2.0,60.104606062240876,2026-01-19 11h41.54.575985 +0530,
11,0,12,n,11.155164399999194,None,12,0,11,256.8262893999927,,,,,,,,,,,,,,,,,,,,,,,,,,,,,,,,,,,,,,,,,,,,,,,,,,256.81058039999334,256.8262893999927,257.32681340002455,257.309915299993,257.3216734000016,257.32681340002455,257.32681340002455,257.32681340002455,268.4936241999967,Foils\097a.jpg,none,n,11.155164399999194,None,,,,,,,,00058,001,2026-01-19_11h41.42.159,MST_test,2024.2.0,60.104606062240876,2026-01-19 11h41.54.575985 +0530,
12,0,13,s,4.928353699971922,None,13,0,12,268.5097674000426,,,,,,,,,,,,,,,,,,,,,,,,,,,,,,,,,,,,,,,,,,,,,,,,,,268.49371390003944,268.5097674000426,269.0099648000323,268.9933442000183,269.00333690003026,269.0099648000323,269.0099648000323,269.0099648000323,273.9438406000263,Objects\177b.jpg,pre,s,4.928353699971922,None,,,,,,,,00058,001,2026-01-19_11h41.42.159,MST_test,2024.2.0,60.104606062240876,2026-01-19 11h41.54.575985 +0530,
13,0,14,o,4.566454900021199,None,14,0,13,273.9597994000069,,,,,,,,,,,,,,,,,,,,,,,,,,,,,,,,,,,,,,,,,,,,,,,,,,273.94394220004324,273.9597994000069,274.45997600001283,274.44337480003014,274.44658580003306,274.45997600001283,274.45997600001283,274.45997600001283,279.02715060004266,Objects\040a.jpg,mid,o,4.566454900021199,None,,,,,,,,00058,001,2026-01-19_11h41.42.159,MST_test,2024.2.0,60.104606062240876,2026-01-19 11h41.54.575985 +0530,
14,0,15,o,7.395842499972787,None,15,0,14,279.04312049999135,,,,,,,,,,,,,,,,,,,,,,,,,,,,,,,,,,,,,,,,,,,,,,,,,,279.02724120003404,279.04312049999135,279.5437163999886,279.52661940001417,279.5393019000185,279.5437163999886,279.5437163999886,279.5437163999886,286.9438235000125,Scenes\076a.jpg,mid,o,7.395842499972787,None,,,,,,,,00058,001,2026-01-19_11h41.42.159,MST_test,2024.2.0,60.104606062240876,2026-01-19 11h41.54.575985 +0530,
15,0,16,o,8.891952199977823,None,16,0,15,286.95976739999605,,,,,,,,,,,,,,,,,,,,,,,,,,,,,,,,,,,,,,,,,,,,,,,,,,286.9439188000397,286.95976739999605,287.4624197999947,287.44345449999673,287.4601626000367,287.4624197999947,287.4624197999947,287.4624197999947,296.3603765000007,Scenes\119b.jpg,post,o,8.891952199977823,None,,,,,,,,00058,001,2026-01-19_11h41.42.159,MST_test,2024.2.0,60.104606062240876,2026-01-19 11h41.54.575985 +0530,
16,0,17,s,13.133238500042353,None,17,0,16,296.37633619998815,,,,,,,,,,,,,,,,,,,,,,,,,,,,,,,,,,,,,,,,,,,,,,,,,,296.3604687000043,296.37633619998815,296.8768814000068,296.860062199994,296.8632874999894,296.8768814000068,296.8768814000068,296.8768814000068,310.0267896000296,Objects\017a.jpg,pre,s,13.133238500042353,None,,,,,,,,00058,001,2026-01-19_11h41.42.159,MST_test,2024.2.0,60.104606062240876,2026-01-19 11h41.54.575985 +0530,
17,0,18,o,6.291694999963511,None,18,0,17,310.04316890001064,,,,,,,,,,,,,,,,,,,,,,,,,,,,,,,,,,,,,,,,,,,,,,,,,,310.02687790000346,310.04316890001064,310.54320670000743,310.5264843000332,310.5385221000179,310.54320670000743,310.54320670000743,310.54320670000743,316.84362649999093,Objects\016b.jpg,pre,o,6.291694999963511,None,,,,,,,,00058,001,2026-01-19_11h41.42.159,MST_test,2024.2.0,60.104606062240876,2026-01-19 11h41.54.575985 +0530,
18,0,19,s,5.298577600042336,None,19,0,18,316.85975990002044,,,,,,,,,,,,,,,,,,,,,,,,,,,,,,,,,,,,,,,,,,,,,,,,,,316.84371620003367,316.85975990002044,317.3600707000005,317.34340680000605,317.3548361000139,317.3600707000005,317.3600707000005,317.3600707000005,322.66029690002324,Objects\169b.jpg,mid,s,5.298577600042336,None,,,,,,,,00058,001,2026-01-19_11h41.42.159,MST_test,2024.2.0,60.104606062240876,2026-01-19 11h41.54.575985 +0530,
19,0,20,o,12.58700579998549,None,20,0,19,322.67628070001956,,,,,,,,,,,,,,,,,,,,,,,,,,,,,,,,,,,,,,,,,,,,,,,,,,322.66038920002757,322.67628070001956,323.1763579000253,323.1600049000117,323.1631031000288,323.1763579000253,323.1763579000253,323.1763579000253,335.7769942000159,Objects\173a.jpg,post,o,12.58700579998549,None,,,,,,,,00058,001,2026-01-19_11h41.42.159,MST_test,2024.2.0,60.104606062240876,2026-01-19 11h41.54.575985 +0530,
20,0,21,o,5.664441299973987,None,21,0,20,335.79302710003685,,,,,,,,,,,,,,,,,,,,,,,,,,,,,,,,,,,,,,,,,,,,,,,,,,335.77709079999477,335.79302710003685,336.29751810000744,336.27636620000703,336.295340200013,336.29751810000744,336.29751810000744,336.29751810000744,341.97712799999863,Scenes\134b.jpg,post,o,5.664441299973987,None,,,,,,,,00058,001,2026-01-19_11h41.42.159,MST_test,2024.2.0,60.104606062240876,2026-01-19 11h41.54.575985 +0530,
21,0,22,o,4.185845000029076,None,22,0,21,341.9930684000137,,,,,,,,,,,,,,,,,,,,,,,,,,,,,,,,,,,,,,,,,,,,,,,,,,341.97723449999467,341.9930684000137,342.49644030001946,342.4765303999884,342.49422819999745,342.49644030001946,342.49644030001946,342.49644030001946,346.69353310001316,Scenes\094b.jpg,pre,o,4.185845000029076,None,,,,,,,,00058,001,2026-01-19_11h41.42.159,MST_test,2024.2.0,60.104606062240876,2026-01-19 11h41.54.575985 +0530,
22,0,23,n,6.647950800019316,None,23,0,22,346.7096831999952,,,,,,,,,,,,,,,,,,,,,,,,,,,,,,,,,,,,,,,,,,,,,,,,,,346.6936243000091,346.7096831999952,347.21019280003384,347.19327019999037,347.2041379000293,347.21019280003384,347.21019280003384,347.21019280003384,353.86040880001383,Foils\082a.jpg,none,n,6.647950800019316,None,,,,,,,,00058,001,2026-01-19_11h41.42.159,MST_test,2024.2.0,60.104606062240876,2026-01-19 11h41.54.575985 +0530,
23,0,24,o,13.082364899979439,None,24,0,23,353.8762063999893,,,,,,,,,,,,,,,,,,,,,,,,,,,,,,,,,,,,,,,,,,,,,,,,,,353.86050010001054,353.8762063999893,354.3766733999946,354.35993320000125,354.3738419000292,354.3766733999946,354.3766733999946,354.3766733999946,367.46040050004376,Scenes\006b.jpg,post,o,13.082364899979439,None,,,,,,,,00058,001,2026-01-19_11h41.42.159,MST_test,2024.2.0,60.104606062240876,2026-01-19 11h41.54.575985 +0530,
24,0,25,s,8.354069900000468,None,25,0,24,367.47622270003194,,,,,,,,,,,,,,,,,,,,,,,,,,,,,,,,,,,,,,,,,,,,,,,,,,367.4604896000237,367.47622270003194,367.97657689999323,367.95995630003745,367.9636417000438,367.97657689999323,367.97657689999323,367.97657689999323,376.3438295000233,Objects\180a.jpg,post,s,8.354069900000468,None,,,,,,,,00058,001,2026-01-19_11h41.42.159,MST_test,2024.2.0,60.104606062240876,2026-01-19 11h41.54.575985 +0530,
25,0,26,o,5.886101300013252,None,26,0,25,376.3597369000199,,,,,,,,,,,,,,,,,,,,,,,,,,,,,,,,,,,,,,,,,,,,,,,,,,376.34392920002574,376.3597369000199,376.8602678999887,376.84327100001974,376.85342639999,376.8602678999887,376.8602678999887,376.8602678999887,382.7603872999898,Scenes\161a.jpg,pre,o,5.886101300013252,None,,,,,,,,00058,001,2026-01-19_11h41.42.159,MST_test,2024.2.0,60.104606062240876,2026-01-19 11h41.54.575985 +0530,
26,0,27,o,10.501748099981342,None,27,0,26,382.77636509999866,,,,,,,,,,,,,,,,,,,,,,,,,,,,,,,,,,,,,,,,,,,,,,,,,,382.7604791999911,382.77636509999866,383.27690540003823,383.2600846000132,383.2632788000046,383.27690540003823,383.27690540003823,383.27690540003823,393.79386120004347,Objects\069a.jpg,pre,o,10.501748099981342,None,,,,,,,,00058,001,2026-01-19_11h41.42.159,MST_test,2024.2.0,60.104606062240876,2026-01-19 11h41.54.575985 +0530,
27,0,28,s,4.427911899983883,None,28,0,27,393.8098421000177,,,,,,,,,,,,,,,,,,,,,,,,,,,,,,,,,,,,,,,,,,,,,,,,,,393.79395750002004,393.8098421000177,394.3099605999887,394.2933848000248,394.3049599000369,394.3099605999887,394.3099605999887,394.3099605999887,398.7436949000112,Objects\071b.jpg,post,s,4.427911899983883,None,,,,,,,,00058,001,2026-01-19_11h41.42.159,MST_test,2024.2.0,60.104606062240876,2026-01-19 11h41.54.575985 +0530,
28,0,29,n,3.6700247999979183,None,29,0,28,398.759839300008,,,,,,,,,,,,,,,,,,,,,,,,,,,,,,,,,,,,,,,,,,,,,,,,,,398.74378530000104,398.759839300008,399.26005290000467,399.24330989999,399.25335760001326,399.26005290000467,399.26005290000467,399.26005290000467,402.9436324000126,Foils\090a.jpg,none,n,3.6700247999979183,None,,,,,,,,00058,001,2026-01-19_11h41.42.159,MST_test,2024.2.0,60.104606062240876,2026-01-19 11h41.54.575985 +0530,
29,0,30,s,4.630597899958957,None,30,0,29,402.9598030000343,,,,,,,,,,,,,,,,,,,,,,,,,,,,,,,,,,,,,,,,,,,,,,,,,,402.9437223999994,402.9598030000343,403.4600359000033,403.44339030003175,403.4532869000104,403.4600359000033,403.4600359000033,403.4600359000033,408.0938030999969,Objects\077b.jpg,pre,s,4.630597899958957,None,,,,,,,,00058,001,2026-01-19_11h41.42.159,MST_test,2024.2.0,60.104606062240876,2026-01-19 11h41.54.575985 +0530,
30,0,31,n,4.905090600019321,None,31,0,30,408.10975910001434,,,,,,,,,,,,,,,,,,,,,,,,,,,,,,,,,,,,,,,,,,,,,,,,,,408.0938969000126,408.10975910001434,408.61005580000347,408.59344660001807,408.6033870000392,408.61005580000347,408.61005580000347,408.61005580000347,413.52694360003807,Foils\121a.jpg,none,n,4.905090600019321,None,,,,,,,,00058,001,2026-01-19_11h41.42.159,MST_test,2024.2.0,60.104606062240876,2026-01-19 11h41.54.575985 +0530,
31,0,32,o,4.622503299964592,None,32,0,31,413.54312440002104,,,,,,,,,,,,,,,,,,,,,,,,,,,,,,,,,,,,,,,,,,,,,,,,,,413.5270515999873,413.54312440002104,414.043344900012,414.02660320000723,414.03638270002557,414.043344900012,414.043344900012,414.043344900012,418.6770419999957,Objects\091b.jpg,pre,o,4.622503299964592,None,,,,,,,,00058,001,2026-01-19_11h41.42.159,MST_test,2024.2.0,60.104606062240876,2026-01-19 11h41.54.575985 +0530,
32,0,33,s,5.648832599981688,None,33,0,32,418.69305290002376,,,,,,,,,,,,,,,,,,,,,,,,,,,,,,,,,,,,,,,,,,,,,,,,,,418.67713349999394,418.69305290002376,419.19360530003905,419.1767016000231,419.1828611000092,419.19360530003905,419.19360530003905,419.19360530003905,424.8438579000067,Scenes\079a.jpg,pre,s,5.648832599981688,None,,,,,,,,00058,001,2026-01-19_11h41.42.159,MST_test,2024.2.0,60.104606062240876,2026-01-19 11h41.54.575985 +0530,
33,0,34,o,14.504297099949326,None,34,0,33,424.8598803000059,,,,,,,,,,,,,,,,,,,,,,,,,,,,,,,,,,,,,,,,,,,,,,,,,,424.8439505000133,424.8598803000059,425.3615504000336,425.3433562000282,425.3594793000375,425.3615504000336,425.3615504000336,425.3615504000336,439.87704410002334,Scenes\130b.jpg,mid,o,14.504297099949326,None,,,,,,,,00058,001,2026-01-19_11h41.42.159,MST_test,2024.2.0,60.104606062240876,2026-01-19 11h41.54.575985 +0530,
34,0,35,o,21.337603499996476,None,35,0,34,439.8931422000169,,,,,,,,,,,,,,,,,,,,,,,,,,,,,,,,,,,,,,,,,,,,,,,,,,439.8771348000155,439.8931422000169,440.3937184000388,440.3767074000207,440.3807667000219,440.3937184000388,440.3937184000388,440.3937184000388,461.74359150003875,Objects\062a.jpg,mid,o,21.337603499996476,None,,,,,,,,00058,001,2026-01-19_11h41.42.159,MST_test,2024.2.0,60.104606062240876,2026-01-19 11h41.54.575985 +0530,
35,0,36,n,20.68591479997849,None,36,0,35,461.7597203000332,,,,,,,,,,,,,,,,,,,,,,,,,,,,,,,,,,,,,,,,,,,,,,,,,,461.74368830001913,461.7597203000332,462.2600497000385,462.24347970000235,462.25591100001475,462.2600497000385,462.2600497000385,462.2600497000385,482.96110240003327,Objects\130b.jpg,pre,n,20.68591479997849,None,,,,,,,,00058,001,2026-01-19_11h41.42.159,MST_test,2024.2.0,60.104606062240876,2026-01-19 11h41.54.575985 +0530,
36,0,37,s,6.861594699963462,None,37,0,36,482.97646690002875,,,,,,,,,,,,,,,,,,,,,,,,,,,,,,,,,,,,,,,,,,,,,,,,,,482.9612042999943,482.97646690002875,483.47640089999186,483.45997600001283,483.4629455000395,483.47640089999186,483.47640089999186,483.47640089999186,490.3436731999973,Objects\115a.jpg,mid,s,6.861594699963462,None,,,,,,,,00058,001,2026-01-19_11h41.42.159,MST_test,2024.2.0,60.104606062240876,2026-01-19 11h41.54.575985 +0530,
37,0,38,o,3.263019899954088,None,38,0,37,490.35972980002407,,,,,,,,,,,,,,,,,,,,,,,,,,,,,,,,,,,,,,,,,,,,,,,,,,490.34377030003816,490.35972980002407,490.8601504000253,490.8433718000306,490.8472124999971,490.8601504000253,490.8601504000253,490.8601504000253,494.1269836000283,Scenes\033a.jpg,post,o,3.263019899954088,None,,,,,,,,00058,001,2026-01-19_11h41.42.159,MST_test,2024.2.0,60.104606062240876,2026-01-19 11h41.54.575985 +0530,
38,0,39,s,15.30103329999838,None,39,0,38,494.1431750000338,,,,,,,,,,,,,,,,,,,,,,,,,,,,,,,,,,,,,,,,,,,,,,,,,,494.12710020004306,494.1431750000338,494.6449338000384,494.62658869998995,494.6428659000085,494.6449338000384,494.6449338000384,494.6449338000384,509.96079020004254,Scenes\173b.jpg,mid,s,15.30103329999838,None,,,,,,,,00058,001,2026-01-19_11h41.42.159,MST_test,2024.2.0,60.104606062240876,2026-01-19 11h41.54.575985 +0530,
39,0,40,s,4.253102699993178,None,40,0,39,509.9764561000047,,,,,,,,,,,,,,,,,,,,,,,,,,,,,,,,,,,,,,,,,,,,,,,,,,509.96088540001074,509.9764561000047,510.4776458000415,510.4601249000407,510.4752903000335,510.4776458000415,510.4776458000415,510.4776458000415,514.7438257000176,Scenes\039b.jpg,mid,s,4.253102699993178,None,,,,,,,,00058,001,2026-01-19_11h41.42.159,MST_test,2024.2.0,60.104606062240876,2026-01-19 11h41.54.575985 +0530,
40,0,41,o,4.574701400008053,None,41,0,40,514.7597846999997,,,,,,,,,,,,,,,,,,,,,,,,,,,,,,,,,,,,,,,,,,,,,,,,,,514.7439155000029,514.7597846999997,515.2602572999895,515.2433361000149,515.2536819000379,515.2602572999895,515.2602572999895,515.2602572999895,519.8436820000061,Objects\147b.jpg,post,o,4.574701400008053,None,,,,,,,,00058,001,2026-01-19_11h41.42.159,MST_test,2024.2.0,60.104606062240876,2026-01-19 11h41.54.575985 +0530,
41,0,42,n,7.769851099990774,None,42,0,41,519.8598294000258,,,,,,,,,,,,,,,,,,,,,,,,,,,,,,,,,,,,,,,,,,,,,,,,,,519.8437817000085,519.8598294000258,520.3601219000411,520.3434843000141,520.3544081000146,520.3601219000411,520.3601219000411,520.3601219000411,528.1436465000152,Objects\067b.jpg,mid,n,7.769851099990774,None,,,,,,,,00058,001,2026-01-19_11h41.42.159,MST_test,2024.2.0,60.104606062240876,2026-01-19 11h41.54.575985 +0530,
42,0,43,s,6.0224282999988645,None,43,0,42,528.1598550000344,,,,,,,,,,,,,,,,,,,,,,,,,,,,,,,,,,,,,,,,,,,,,,,,,,528.1437377000111,528.1598550000344,528.6600241000415,528.6434401000151,528.6463184999884,528.6600241000415,528.6600241000415,528.6600241000415,534.6937305000029,Objects\120a.jpg,mid,s,6.0224282999988645,None,,,,,,,,00058,001,2026-01-19_11h41.42.159,MST_test,2024.2.0,60.104606062240876,2026-01-19 11h41.54.575985 +0530,
43,0,44,n,9.439926800027024,None,44,0,43,534.7096763000009,,,,,,,,,,,,,,,,,,,,,,,,,,,,,,,,,,,,,,,,,,,,,,,,,,534.6938262000331,534.7096763000009,535.2099179000361,535.19340009999,535.2054849000415,535.2099179000361,535.2099179000361,535.2099179000361,544.6602504000184,Foils\020b.jpg,none,n,9.439926800027024,None,,,,,,,,00058,001,2026-01-19_11h41.42.159,MST_test,2024.2.0,60.104606062240876,2026-01-19 11h41.54.575985 +0530,
44,0,45,o,8.970403600018471,None,45,0,44,544.6762518000323,,,,,,,,,,,,,,,,,,,,,,,,,,,,,,,,,,,,,,,,,,,,,,,,,,544.6603411000106,544.6762518000323,545.1768910000101,545.1600735000102,545.1671996000223,545.1768910000101,545.1768910000101,545.1768910000101,554.1605290999869,Scenes\182a.jpg,post,o,8.970403600018471,None,,,,,,,,00058,001,2026-01-19_11h41.42.159,MST_test,2024.2.0,60.104606062240876,2026-01-19 11h41.54.575985 +0530,
45,0,46,o,4.029158600023948,None,46,0,45,554.176332300005,,,,,,,,,,,,,,,,,,,,,,,,,,,,,,,,,,,,,,,,,,,,,,,,,,554.1606235000072,554.176332300005,554.6767836000072,554.6601661000168,554.6683285000036,554.6767836000072,554.6767836000072,554.6767836000072,558.7103494000039,Scenes\052a.jpg,post,o,4.029158600023948,None,,,,,,,,00058,001,2026-01-19_11h41.42.159,MST_test,2024.2.0,60.104606062240876,2026-01-19 11h41.54.575985 +0530,
46,0,47,o,11.668303699989337,None,47,0,46,558.7265286000329,,,,,,,,,,,,,,,,,,,,,,,,,,,,,,,,,,,,,,,,,,,,,,,,,,558.7104417000082,558.7265286000329,559.2305565000279,559.210102699988,559.22828510002,559.2305565000279,559.2305565000279,559.2305565000279,570.9103583000251,Scenes\127b.jpg,mid,o,11.668303699989337,None,,,,,,,,00058,001,2026-01-19_11h41.42.159,MST_test,2024.2.0,60.104606062240876,2026-01-19 11h41.54.575985 +0530,
47,0,48,o,4.863678299996536,None,48,0,47,570.9263425000245,,,,,,,,,,,,,,,,,,,,,,,,,,,,,,,,,,,,,,,,,,,,,,,,,,570.910454900004,570.9263425000245,571.4268444000045,571.4100641999976,571.4209173000418,571.4268444000045,571.4268444000045,571.4268444000045,576.293730000034,Objects\099b.jpg,post,o,4.863678299996536,None,,,,,,,,00058,001,2026-01-19_11h41.42.159,MST_test,2024.2.0,60.104606062240876,2026-01-19 11h41.54.575985 +0530,
48,0,49,s,6.295951700012665,None,49,0,48,576.3096821000217,,,,,,,,,,,,,,,,,,,,,,,,,,,,,,,,,,,,,,,,,,,,,,,,,,576.2938214000314,576.3096821000217,576.8100562000182,576.7933378000162,576.8041854000185,576.8100562000182,576.8100562000182,576.8100562000182,583.1103765000007,Objects\092b.jpg,post,s,6.295951700012665,None,,,,,,,,00058,001,2026-01-19_11h41.42.159,MST_test,2024.2.0,60.104606062240876,2026-01-19 11h41.54.575985 +0530,
49,0,50,s,4.1753126999828964,None,50,0,49,583.1262798000243,,,,,,,,,,,,,,,,,,,,,,,,,,,,,,,,,,,,,,,,,,,,,,,,,,583.1106086000218,583.1262798000243,583.6265930000227,583.6100079999887,583.6199748000363,583.6265930000227,583.6265930000227,583.6265930000227,587.8103501999867,Objects\049b.jpg,post,s,4.1753126999828964,None,,,,,,,,00058,001,2026-01-19_11h41.42.159,MST_test,2024.2.0,60.104606062240876,2026-01-19 11h41.54.575985 +0530,
50,0,51,o,2.8114686000044458,None,51,0,50,587.8263396000257,,,,,,,,,,,,,,,,,,,,,,,,,,,,,,,,,,,,,,,,,,,,,,,,,,587.8104410000378,587.8263396000257,588.3264371000114,588.3100149999955,588.3131202000077,588.3264371000114,588.3264371000114,588.3264371000114,591.1436381000094,Objects\171a.jpg,pre,o,2.8114686000044458,None,,,,,,,,00058,001,2026-01-19_11h41.42.159,MST_test,2024.2.0,60.104606062240876,2026-01-19 11h41.54.575985 +0530,
51,0,52,s,4.326934600016102,None,52,0,51,591.1597456000163,,,,,,,,,,,,,,,,,,,,,,,,,,,,,,,,,,,,,,,,,,,,,,,,,,591.1437296000076,591.1597456000163,591.6602455000393,591.6435930000152,591.649229200033,591.6602455000393,591.6602455000393,591.6602455000393,595.9939788000192,Scenes\123a.jpg,pre,s,4.326934600016102,None,,,,,,,,00058,001,2026-01-19_11h41.42.159,MST_test,2024.2.0,60.104606062240876,2026-01-19 11h41.54.575985 +0530,
52,0,53,n,8.180989200016484,None,53,0,52,596.0098195000319,,,,,,,,,,,,,,,,,,,,,,,,,,,,,,,,,,,,,,,,,,,,,,,,,,595.9940738000441,596.0098195000319,596.5102773000253,596.4933288000175,596.5076887999894,596.5102773000253,596.5102773000253,596.5102773000253,604.6940468000248,Scenes\118b.jpg,mid,n,8.180989200016484,None,,,,,,,,00058,001,2026-01-19_11h41.42.159,MST_test,2024.2.0,60.104606062240876,2026-01-19 11h41.54.575985 +0530,
53,0,54,o,4.729336199990939,None,54,0,53,604.7097934000194,,,,,,,,,,,,,,,,,,,,,,,,,,,,,,,,,,,,,,,,,,,,,,,,,,604.6941478000372,604.7097934000194,605.21753980004,605.1936881000292,605.2152084000409,605.21753980004,605.21753980004,605.21753980004,609.9603531000321,Scenes\065b.jpg,post,o,4.729336199990939,None,,,,,,,,00058,001,2026-01-19_11h41.42.159,MST_test,2024.2.0,60.104606062240876,2026-01-19 11h41.54.575985 +0530,
54,0,55,o,3.2455354999983683,None,55,0,54,609.9763562000007,,,,,,,,,,,,,,,,,,,,,,,,,,,,,,,,,,,,,,,,,,,,,,,,,,609.960446000041,609.9763562000007,610.4768893999862,610.4601111999946,610.4668067999883,610.4768893999862,610.4768893999862,610.4768893999862,613.726892000006,Scenes\138a.jpg,mid,o,3.2455354999983683,None,,,,,,,,00058,001,2026-01-19_11h41.42.159,MST_test,2024.2.0,60.104606062240876,2026-01-19 11h41.54.575985 +0530,
55,0,56,o,7.359103199967649,None,56,0,55,613.7430990000139,,,,,,,,,,,,,,,,,,,,,,,,,,,,,,,,,,,,,,,,,,,,,,,,,,613.7269817999913,613.7430990000139,614.24361460004,614.2265902000363,614.2382182999863,614.24361460004,614.24361460004,614.24361460004,621.6103877000278,Scenes\087b.jpg,post,o,7.359103199967649,None,,,,,,,,00058,001,2026-01-19_11h41.42.159,MST_test,2024.2.0,60.104606062240876,2026-01-19 11h41.54.575985 +0530,
56,0,57,o,4.5327470999909565,None,57,0,56,621.6264234000118,,,,,,,,,,,,,,,,,,,,,,,,,,,,,,,,,,,,,,,,,,,,,,,,,,621.610478800023,621.6264234000118,622.1339019000297,622.1101570000174,622.1317202000064,622.1339019000297,622.1339019000297,622.1339019000297,626.6770445000147,Scenes\034b.jpg,pre,o,4.5327470999909565,None,,,,,,,,00058,001,2026-01-19_11h41.42.159,MST_test,2024.2.0,60.104606062240876,2026-01-19 11h41.54.575985 +0530,
57,0,58,s,4.6172252999967895,None,58,0,57,626.6932460000389,,,,,,,,,,,,,,,,,,,,,,,,,,,,,,,,,,,,,,,,,,,,,,,,,,626.677142200002,626.6932460000389,627.1939041999867,627.1766393000144,627.1801214000443,627.1939041999867,627.1939041999867,627.1939041999867,631.8271243000054,Scenes\022a.jpg,pre,s,4.6172252999967895,None,,,,,,,,00058,001,2026-01-19_11h41.42.159,MST_test,2024.2.0,60.104606062240876,2026-01-19 11h41.54.575985 +0530,
58,0,59,o,4.122638199944049,None,59,0,58,631.8431654000306,,,,,,,,,,,,,,,,,,,,,,,,,,,,,,,,,,,,,,,,,,,,,,,,,,631.8272142999922,631.8431654000306,632.343740100041,632.3267504000105,632.332591000013,632.343740100041,632.343740100041,632.343740100041,636.4769709000248,Scenes\152a.jpg,mid,o,4.122638199944049,None,,,,,,,,00058,001,2026-01-19_11h41.42.159,MST_test,2024.2.0,60.104606062240876,2026-01-19 11h41.54.575985 +0530,
59,0,60,s,4.041501200001221,None,60,0,59,636.4932124000043,,,,,,,,,,,,,,,,,,,,,,,,,,,,,,,,,,,,,,,,,,,,,,,,,,636.4770644000382,636.4932124000043,636.9936500000185,636.9766813000315,636.9871557000442,636.9936500000185,636.9936500000185,636.9936500000185,641.0436726000044,Objects\098b.jpg,pre,s,4.041501200001221,None,,,,,,,,00058,001,2026-01-19_11h41.42.159,MST_test,2024.2.0,60.104606062240876,2026-01-19 11h41.54.575985 +0530,
60,0,61,o,2.8257046000217088,None,61,0,60,641.0598773999955,,,,,,,,,,,,,,,,,,,,,,,,,,,,,,,,,,,,,,,,,,,,,,,,,,641.0437646000064,641.0598773999955,641.5604013000266,641.5434195999987,641.5501189000206,641.5604013000266,641.5604013000266,641.5604013000266,644.3938484000391,Scenes\028a.jpg,pre,o,2.8257046000217088,None,,,,,,,,00058,001,2026-01-19_11h41.42.159,MST_test,2024.2.0,60.104606062240876,2026-01-19 11h41.54.575985 +0530,
61,0,62,s,23.004820400034077,None,62,0,61,644.4098653999972,,,,,,,,,,,,,,,,,,,,,,,,,,,,,,,,,,,,,,,,,,,,,,,,,,644.3939396000351,644.4098653999972,644.9103946000105,644.8934668000438,644.9036614000215,644.9103946000105,644.9103946000105,644.9103946000105,667.9271230000304,Objects\108b.jpg,pre,s,23.004820400034077,None,,,,,,,,00058,001,2026-01-19_11h41.42.159,MST_test,2024.2.0,60.104606062240876,2026-01-19 11h41.54.575985 +0530,
62,0,63,s,10.41519229998812,None,63,0,62,667.9431930000428,,,,,,,,,,,,,,,,,,,,,,,,,,,,,,,,,,,,,,,,,,,,,,,,,,667.9272207000176,667.9431930000428,668.4434374000411,668.4267611000105,668.438814699999,668.4434374000411,668.4434374000411,668.4434374000411,678.860481300042,Objects\007b.jpg,pre,s,10.41519229998812,None,,,,,,,,00058,001,2026-01-19_11h41.42.159,MST_test,2024.2.0,60.104606062240876,2026-01-19 11h41.54.575985 +0530,
63,0,64,s,5.4972181000048295,None,64,0,63,678.8765453000087,,,,,,,,,,,,,,,,,,,,,,,,,,,,,,,,,,,,,,,,,,,,,,,,,,678.8605929000187,678.8765453000087,679.3767596000107,679.360106200038,679.3719293000177,679.3767596000107,679.3767596000107,679.3767596000107,684.8770612000371,Foils\050a.jpg,none,s,5.4972181000048295,None,,,,,,,,00058,001,2026-01-19_11h41.42.159,MST_test,2024.2.0,60.104606062240876,2026-01-19 11h41.54.575985 +0530,
64,0,65,s,4.704468399984762,None,65,0,64,684.8930686000385,,,,,,,,,,,,,,,,,,,,,,,,,,,,,,,,,,,,,,,,,,,,,,,,,,684.8771511000232,684.8930686000385,685.3935411000275,685.3766361000016,685.3804990000208,685.3935411000275,685.3935411000275,685.3935411000275,690.1105861000251,Scenes\016a.jpg,mid,s,4.704468399984762,None,,,,,,,,00058,001,2026-01-19_11h41.42.159,MST_test,2024.2.0,60.104606062240876,2026-01-19 11h41.54.575985 +0530,
65,0,66,s,2.37493779999204,None,66,0,65,690.1262810000335,,,,,,,,,,,,,,,,,,,,,,,,,,,,,,,,,,,,,,,,,,,,,,,,,,690.1106851000222,690.1262810000335,690.6270837000338,690.6100454000407,690.621398599993,690.6270837000338,690.6270837000338,690.6270837000338,693.0103936000378,Objects\051b.jpg,post,s,2.37493779999204,None,,,,,,,,00058,001,2026-01-19_11h41.42.159,MST_test,2024.2.0,60.104606062240876,2026-01-19 11h41.54.575985 +0530,
66,0,67,s,7.175747999979649,None,67,0,66,693.0263398000388,,,,,,,,,,,,,,,,,,,,,,,,,,,,,,,,,,,,,,,,,,,,,,,,,,693.0104839000269,693.0263398000388,693.5385848000296,693.5100231000106,693.5361835000222,693.5385848000296,693.5385848000296,693.5385848000296,700.7269255000283,Foils\scenes23.jpg,none,s,7.175747999979649,None,,,,,,,,00058,001,2026-01-19_11h41.42.159,MST_test,2024.2.0,60.104606062240876,2026-01-19 11h41.54.575985 +0530,
67,0,68,n,6.16797150002094,None,68,0,67,700.7431182999862,,,,,,,,,,,,,,,,,,,,,,,,,,,,,,,,,,,,,,,,,,,,,,,,,,700.7270161000197,700.7431182999862,701.2437748000375,701.2265830000397,701.2302422000212,701.2437748000375,701.2437748000375,701.2437748000375,707.4268170000287,Objects\058a.jpg,post,n,6.16797150002094,None,,,,,,,,00058,001,2026-01-19_11h41.42.159,MST_test,2024.2.0,60.104606062240876,2026-01-19 11h41.54.575985 +0530,
68,0,69,s,11.531544200028293,None,69,0,68,707.4431399999885,,,,,,,,,,,,,,,,,,,,,,,,,,,,,,,,,,,,,,,,,,,,,,,,,,707.4269059000071,707.4431399999885,707.9433405000018,707.9265690000029,707.9295548000373,707.9433405000018,707.9433405000018,707.9433405000018,719.4770416000392,Objects\137a.jpg,pre,s,11.531544200028293,None,,,,,,,,00058,001,2026-01-19_11h41.42.159,MST_test,2024.2.0,60.104606062240876,2026-01-19 11h41.54.575985 +0530,
69,0,70,o,2.3847752999863587,None,70,0,69,719.4931287000072,,,,,,,,,,,,,,,,,,,,,,,,,,,,,,,,,,,,,,,,,,,,,,,,,,719.4771355999983,719.4931287000072,719.9932745000115,719.9766195000266,719.9865316000069,719.9932745000115,719.9932745000115,719.9932745000115,722.3936927000177,Objects\134b.jpg,mid,o,2.3847752999863587,None,,,,,,,,00058,001,2026-01-19_11h41.42.159,MST_test,2024.2.0,60.104606062240876,2026-01-19 11h41.54.575985 +0530,
70,0,71,s,4.795974100008607,None,71,0,70,722.4097948000417,,,,,,,,,,,,,,,,,,,,,,,,,,,,,,,,,,,,,,,,,,,,,,,,,,722.3937862000312,722.4097948000417,722.9100399999879,722.8933944000164,722.9029562000069,722.9100399999879,722.9100399999879,722.9100399999879,727.7103792999987,Foils\065a.jpg,none,s,4.795974100008607,None,,,,,,,,00058,001,2026-01-19_11h41.42.159,MST_test,2024.2.0,60.104606062240876,2026-01-19 11h41.54.575985 +0530,
71,0,72,s,20.79204239998944,None,72,0,71,727.7262574000051,,,,,,,,,,,,,,,,,,,,,,,,,,,,,,,,,,,,,,,,,,,,,,,,,,727.7104734000168,727.7262574000051,728.2268246000167,728.2103401999921,728.2204458999913,728.2268246000167,728.2268246000167,728.2268246000167,749.027145,Foils\scenes5.jpg,none,s,20.79204239998944,None,,,,,,,,00058,001,2026-01-19_11h41.42.159,MST_test,2024.2.0,60.104606062240876,2026-01-19 11h41.54.575985 +0530,
72,0,73,o,2.9231047999928705,None,73,0,72,749.0432304000133,,,,,,,,,,,,,,,,,,,,,,,,,,,,,,,,,,,,,,,,,,,,,,,,,,749.0272483000299,749.0432304000133,749.5437019999954,749.5268008999992,749.5371453000116,749.5437019999954,749.5437019999954,749.5437019999954,752.4771787000354,Scenes\012a.jpg,pre,o,2.9231047999928705,None,,,,,,,,00058,001,2026-01-19_11h41.42.159,MST_test,2024.2.0,60.104606062240876,2026-01-19 11h41.54.575985 +0530,
73,0,74,n,5.278182799986098,None,74,0,73,752.49324109999,,,,,,,,,,,,,,,,,,,,,,,,,,,,,,,,,,,,,,,,,,,,,,,,,,752.4772706000367,752.49324109999,752.9964596999926,752.9768861000193,752.9941360999946,752.9964596999926,752.9964596999926,752.9964596999926,758.2771131999907,Scenes\131b.jpg,pre,n,5.278182799986098,None,,,,,,,,00058,001,2026-01-19_11h41.42.159,MST_test,2024.2.0,60.104606062240876,2026-01-19 11h41.54.575985 +0530,
74,0,75,o,10.193573999975342,None,75,0,74,758.2932433999958,,,,,,,,,,,,,,,,,,,,,,,,,,,,,,,,,,,,,,,,,,,,,,,,,,758.277203100035,758.2932433999958,758.7936782999896,758.7768923999975,758.7865966000245,758.7936782999896,758.7936782999896,758.7936782999896,768.9939638000214,Scenes\174a.jpg,pre,o,10.193573999975342,None,,,,,,,,00058,001,2026-01-19_11h41.42.159,MST_test,2024.2.0,60.104606062240876,2026-01-19 11h41.54.575985 +0530,
75,0,76,o,13.18819600000279,None,76,0,75,769.0099394000135,,,,,,,,,,,,,,,,,,,,,,,,,,,,,,,,,,,,,,,,,,,,,,,,,,768.9940627000178,769.0099394000135,769.5104507000069,769.4934618000407,769.505699100031,769.5104507000069,769.5104507000069,769.5104507000069,782.7104234000435,Objects\119b.jpg,mid,o,13.18819600000279,None,,,,,,,,00058,001,2026-01-19_11h41.42.159,MST_test,2024.2.0,60.104606062240876,2026-01-19 11h41.54.575985 +0530,
76,0,77,o,3.327712500002235,None,77,0,76,782.7265648000175,,,,,,,,,,,,,,,,,,,,,,,,,,,,,,,,,,,,,,,,,,,,,,,,,,782.7105136000318,782.7265648000175,783.2270286999992,783.2101686000242,783.2213340000017,783.2270286999992,783.2270286999992,783.2270286999992,786.5604076000163,Scenes\025a.jpg,pre,o,3.327712500002235,None,,,,,,,,00058,001,2026-01-19_11h41.42.159,MST_test,2024.2.0,60.104606062240876,2026-01-19 11h41.54.575985 +0530,
77,0,78,s,12.845613100042101,None,78,0,77,786.5765737000038,,,,,,,,,,,,,,,,,,,,,,,,,,,,,,,,,,,,,,,,,,,,,,,,,,786.5605004000245,786.5765737000038,787.0770204000291,787.0601038000314,787.0634730000165,787.0770204000291,787.0770204000291,787.0770204000291,799.9273417000077,Objects\075a.jpg,mid,s,12.845613100042101,None,,,,,,,,00058,001,2026-01-19_11h41.42.159,MST_test,2024.2.0,60.104606062240876,2026-01-19 11h41.54.575985 +0530,
78,0,79,n,5.936209999956191,None,79,0,78,799.9432189000072,,,,,,,,,,,,,,,,,,,,,,,,,,,,,,,,,,,,,,,,,,,,,,,,,,799.9274425000185,799.9432189000072,800.4434642000124,800.4268588999985,800.4373124000267,800.4434642000124,800.4434642000124,800.4434642000124,806.3936663999921,Foils\074a.jpg,none,n,5.936209999956191,None,,,,,,,,00058,001,2026-01-19_11h41.42.159,MST_test,2024.2.0,60.104606062240876,2026-01-19 11h41.54.575985 +0530,
79,0,80,o,8.0367570000235,None,80,0,79,806.409743199998,,,,,,,,,,,,,,,,,,,,,,,,,,,,,,,,,,,,,,,,,,,,,,,,,,806.3937574999873,806.409743199998,806.9103495000163,806.893329100043,806.9050497999997,806.9103495000163,806.9103495000163,806.9103495000163,814.9604059000267,Scenes\032a.jpg,post,o,8.0367570000235,None,,,,,,,,00058,001,2026-01-19_11h41.42.159,MST_test,2024.2.0,60.104606062240876,2026-01-19 11h41.54.575985 +0530,
80,0,81,o,3.660955399973318,None,81,0,80,814.976342000009,,,,,,,,,,,,,,,,,,,,,,,,,,,,,,,,,,,,,,,,,,,,,,,,,,814.9604968000203,814.976342000009,815.4770598000032,815.4600846000249,815.4672172000282,815.4770598000032,815.4770598000032,815.4770598000032,819.1437184000388,Scenes\144a.jpg,mid,o,3.660955399973318,None,,,,,,,,00058,001,2026-01-19_11h41.42.159,MST_test,2024.2.0,60.104606062240876,2026-01-19 11h41.54.575985 +0530,
81,0,82,n,8.437735999992583,None,82,0,81,819.1597605000134,,,,,,,,,,,,,,,,,,,,,,,,,,,,,,,,,,,,,,,,,,,,,,,,,,819.1438149000169,819.1597605000134,819.6603552000015,819.6434756999952,819.6543759999913,819.6603552000015,819.6603552000015,819.6603552000015,828.110395500029,Scenes\082a.jpg,post,n,8.437735999992583,None,,,,,,,,00058,001,2026-01-19_11h41.42.159,MST_test,2024.2.0,60.104606062240876,2026-01-19 11h41.54.575985 +0530,
82,0,83,n,8.679411499993876,None,83,0,82,828.1263646000298,,,,,,,,,,,,,,,,,,,,,,,,,,,,,,,,,,,,,,,,,,,,,,,,,,828.110487100028,828.1263646000298,828.6269238000386,828.6100702999975,828.6217684000148,828.6269238000386,828.6269238000386,828.6269238000386,837.3104385000188,Foils\042a.jpg,none,n,8.679411499993876,None,,,,,,,,00058,001,2026-01-19_11h41.42.159,MST_test,2024.2.0,60.104606062240876,2026-01-19 11h41.54.575985 +0530,
83,0,84,o,3.664164899964817,None,84,0,83,837.3263366000028,,,,,,,,,,,,,,,,,,,,,,,,,,,,,,,,,,,,,,,,,,,,,,,,,,837.3105266999919,837.3263366000028,837.8265159000293,837.8100780000095,837.8217740000109,837.8265159000293,837.8265159000293,837.8265159000293,841.4937852000003,Objects\015b.jpg,post,o,3.664164899964817,None,,,,,,,,00058,001,2026-01-19_11h41.42.159,MST_test,2024.2.0,60.104606062240876,2026-01-19 11h41.54.575985 +0530,
84,0,85,s,6.680130299995653,None,85,0,84,841.5097647000221,,,,,,,,,,,,,,,,,,,,,,,,,,,,,,,,,,,,,,,,,,,,,,,,,,841.4938798000221,841.5097647000221,842.010845300043,841.993393599987,842.0085300999926,842.010845300043,842.010845300043,842.010845300043,848.6936892000376,Scenes\156b.jpg,mid,s,6.680130299995653,None,,,,,,,,00058,001,2026-01-19_11h41.42.159,MST_test,2024.2.0,60.104606062240876,2026-01-19 11h41.54.575985 +0530,
85,0,86,n,12.79999739996856,None,86,0,85,848.7098206999945,,,,,,,,,,,,,,,,,,,,,,,,,,,,,,,,,,,,,,,,,,,,,,,,,,848.6937791000237,848.7098206999945,849.21028140001,849.193409200001,849.2039160000277,849.21028140001,849.21028140001,849.21028140001,862.0108910000417,Foils\033a.jpg,none,n,12.79999739996856,None,,,,,,,,00058,001,2026-01-19_11h41.42.159,MST_test,2024.2.0,60.104606062240876,2026-01-19 11h41.54.575985 +0530,
86,0,87,o,2.131821899965871,None,87,0,86,862.026449500001,,,,,,,,,,,,,,,,,,,,,,,,,,,,,,,,,,,,,,,,,,,,,,,,,,862.0109992999933,862.026449500001,862.5269190000254,862.510239300027,862.5178129000124,862.5269190000254,862.5269190000254,862.5269190000254,864.6604880000232,Scenes\164a.jpg,pre,o,2.131821899965871,None,,,,,,,,00058,001,2026-01-19_11h41.42.159,MST_test,2024.2.0,60.104606062240876,2026-01-19 11h41.54.575985 +0530,
87,0,88,s,17.09741430002032,None,88,0,87,864.6765604999964,,,,,,,,,,,,,,,,,,,,,,,,,,,,,,,,,,,,,,,,,,,,,,,,,,864.6605793000199,864.6765604999964,865.1771019999869,865.1602034000098,865.1690165000036,865.1771019999869,865.1771019999869,865.1771019999869,882.2771101000253,Scenes\074a.jpg,mid,s,17.09741430002032,None,,,,,,,,00058,001,2026-01-19_11h41.42.159,MST_test,2024.2.0,60.104606062240876,2026-01-19 11h41.54.575985 +0530,
88,0,89,n,8.608716399990954,None,89,0,88,882.2933143000118,,,,,,,,,,,,,,,,,,,,,,,,,,,,,,,,,,,,,,,,,,,,,,,,,,882.2772007000167,882.2933143000118,882.7937419000082,882.7766652000137,882.7862810000079,882.7937419000082,882.7937419000082,882.7937419000082,891.4105352000333,Scenes\084a.jpg,post,n,8.608716399990954,None,,,,,,,,00058,001,2026-01-19_11h41.42.159,MST_test,2024.2.0,60.104606062240876,2026-01-19 11h41.54.575985 +0530,
89,0,90,s,14.739866100018844,None,90,0,89,891.426611300034,,,,,,,,,,,,,,,,,,,,,,,,,,,,,,,,,,,,,,,,,,,,,,,,,,891.4106242000125,891.426611300034,891.9269248000346,891.9100911000278,891.9134451000136,891.9269248000346,891.9269248000346,891.9269248000346,906.677033999993,Objects\048a.jpg,mid,s,14.739866100018844,None,,,,,,,,00058,001,2026-01-19_11h41.42.159,MST_test,2024.2.0,60.104606062240876,2026-01-19 11h41.54.575985 +0530,
90,0,91,o,5.017004499968607,None,91,0,90,906.6931778000435,,,,,,,,,,,,,,,,,,,,,,,,,,,,,,,,,,,,,,,,,,,,,,,,,,906.6771270000027,906.6931778000435,907.1936845000018,907.1766976999934,907.183475900034,907.1936845000018,907.1936845000018,907.1936845000018,912.22709390003,Scenes\069a.jpg,mid,o,5.017004499968607,None,,,,,,,,00058,001,2026-01-19_11h41.42.159,MST_test,2024.2.0,60.104606062240876,2026-01-19 11h41.54.575985 +0530,
91,0,92,n,7.258828099991661,None,92,0,91,912.2431264999905,,,,,,,,,,,,,,,,,,,,,,,,,,,,,,,,,,,,,,,,,,,,,,,,,,912.2271857000305,912.2431264999905,912.7437022000086,912.726791299996,912.7298520000186,912.7437022000086,912.7437022000086,912.7437022000086,920.0103945999872,Objects\141a.jpg,mid,n,7.258828099991661,None,,,,,,,,00058,001,2026-01-19_11h41.42.159,MST_test,2024.2.0,60.104606062240876,2026-01-19 11h41.54.575985 +0530,
92,0,93,o,8.638928100001067,None,93,0,92,920.0263453000225,,,,,,,,,,,,,,,,,,,,,,,,,,,,,,,,,,,,,,,,,,,,,,,,,,920.0104986000224,920.0263453000225,920.5314935999922,920.5100429999875,920.5293071999913,920.5314935999922,920.5314935999922,920.5314935999922,929.1768583999947,Scenes\035b.jpg,pre,o,8.638928100001067,None,,,,,,,,00058,001,2026-01-19_11h41.42.159,MST_test,2024.2.0,60.104606062240876,2026-01-19 11h41.54.575985 +0530,
93,0,94,n,4.756377500016242,None,94,0,93,929.1932109000045,,,,,,,,,,,,,,,,,,,,,,,,,,,,,,,,,,,,,,,,,,,,,,,,,,929.1769533000188,929.1932109000045,929.6936011000071,929.6766627000179,929.6872875000117,929.6936011000071,929.6936011000071,929.6936011000071,934.4604160999879,Foils\049a.jpg,none,n,4.756377500016242,None,,,,,,,,00058,001,2026-01-19_11h41.42.159,MST_test,2024.2.0,60.104606062240876,2026-01-19 11h41.54.575985 +0530,
94,0,95,s,6.721562399994582,None,95,0,94,934.4764009999926,,,,,,,,,,,,,,,,,,,,,,,,,,,,,,,,,,,,,,,,,,,,,,,,,,934.4605052000261,934.4764009999926,934.976676899998,934.9601368000149,934.9698467000271,934.976676899998,934.976676899998,934.976676899998,941.7104151000385,Objects\083b.jpg,post,s,6.721562399994582,None,,,,,,,,00058,001,2026-01-19_11h41.42.159,MST_test,2024.2.0,60.104606062240876,2026-01-19 11h41.54.575985 +0530,
95,0,96,o,4.607932300015818,None,96,0,95,941.7263789999997,,,,,,,,,,,,,,,,,,,,,,,,,,,,,,,,,,,,,,,,,,,,,,,,,,941.7105036000139,941.7263789999997,942.2268052000436,942.2100971000036,942.2197205999983,942.2268052000436,942.2268052000436,942.2268052000436,946.8437731000013,Scenes\143a.jpg,mid,o,4.607932300015818,None,,,,,,,,00058,001,2026-01-19_11h41.42.159,MST_test,2024.2.0,60.104606062240876,2026-01-19 11h41.54.575985 +0530,
96,0,97,n,2.9155740000423975,None,97,0,96,946.8598717999994,,,,,,,,,,,,,,,,,,,,,,,,,,,,,,,,,,,,,,,,,,,,,,,,,,946.8438681000262,946.8598717999994,947.4390448000049,947.3435308000189,947.4360916000442,947.4390448000049,947.4390448000049,947.4390448000049,950.3603506000363,Foils\scenes25.jpg,none,n,2.9155740000423975,None,,,,,,,,00058,001,2026-01-19_11h41.42.159,MST_test,2024.2.0,60.104606062240876,2026-01-19 11h41.54.575985 +0530,
97,0,98,n,5.252878299972508,None,98,0,97,950.3763943000231,,,,,,,,,,,,,,,,,,,,,,,,,,,,,,,,,,,,,,,,,,,,,,,,,,950.360439400014,950.3763943000231,950.8780382000259,950.8601187000168,950.8712634000112,950.8780382000259,950.8780382000259,950.8780382000259,956.1437541000196,Foils\scenes29.jpg,none,n,5.252878299972508,None,,,,,,,,00058,001,2026-01-19_11h41.42.159,MST_test,2024.2.0,60.104606062240876,2026-01-19 11h41.54.575985 +0530,
98,0,99,o,1.494480699999258,None,99,0,98,956.1598610000219,,,,,,,,,,,,,,,,,,,,,,,,,,,,,,,,,,,,,,,,,,,,,,,,,,956.1438539000228,956.1598610000219,956.6602238999913,956.6434511000407,956.65400889999,956.6602238999913,956.6602238999913,956.6602238999913,958.1604276000289,Scenes\041a.jpg,post,o,1.494480699999258,None,,,,,,,,00058,001,2026-01-19_11h41.42.159,MST_test,2024.2.0,60.104606062240876,2026-01-19 11h41.54.575985 +0530,
99,0,100,s,19.093850400007796,None,100,0,99,958.1764018000104,,,,,,,,,,,,,,,,,,,,,,,,,,,,,,,,,,,,,,,,,,,,,,,,,,958.1605193000287,958.1764018000104,958.6847500000149,958.6601535000373,958.682459600037,958.6847500000149,958.6847500000149,958.6847500000149,977.7938068000367,Scenes\088b.jpg,pre,s,19.093850400007796,None,,,,,,,,00058,001,2026-01-19_11h41.42.159,MST_test,2024.2.0,60.104606062240876,2026-01-19 11h41.54.575985 +0530,
100,0,101,o,3.0287108999909833,None,101,0,100,977.8097999999882,,,,,,,,,,,,,,,,,,,,,,,,,,,,,,,,,,,,,,,,,,,,,,,,,,977.7938995000441,977.8097999999882,978.3104029000388,978.2934819000075,978.3061964000226,978.3104029000388,978.3104029000388,978.3104029000388,981.343991700036,Objects\125b.jpg,pre,o,3.0287108999909833,None,,,,,,,,00058,001,2026-01-19_11h41.42.159,MST_test,2024.2.0,60.104606062240876,2026-01-19 11h41.54.575985 +0530,
101,0,102,o,4.038275700004306,None,102,0,101,981.3599022999988,,,,,,,,,,,,,,,,,,,,,,,,,,,,,,,,,,,,,,,,,,,,,,,,,,981.3441017000005,981.3599022999988,981.8604719000286,981.8435849000234,981.8574563000002,981.8604719000286,981.8604719000286,981.8604719000286,985.9105225999956,Scenes\132b.jpg,mid,o,4.038275700004306,None,,,,,,,,00058,001,2026-01-19_11h41.42.159,MST_test,2024.2.0,60.104606062240876,2026-01-19 11h41.54.575985 +0530,
102,0,103,o,11.039581299992278,None,103,0,102,985.9267785000266,,,,,,,,,,,,,,,,,,,,,,,,,,,,,,,,,,,,,,,,,,,,,,,,,,985.9106146999984,985.9267785000266,986.4272690000362,986.4101637999993,986.424942600017,986.4272690000362,986.4272690000362,986.4272690000362,997.4772010000306,Foils\scenes27.jpg,none,o,11.039581299992278,None,,,,,,,,00058,001,2026-01-19_11h41.42.159,MST_test,2024.2.0,60.104606062240876,2026-01-19 11h41.54.575985 +0530,
103,0,104,n,4.976165700005367,None,104,0,103,997.493374600017,,,,,,,,,,,,,,,,,,,,,,,,,,,,,,,,,,,,,,,,,,,,,,,,,,997.4772917000228,997.493374600017,997.9938374999911,997.976870500017,997.9870716000441,997.9938374999911,997.9938374999911,997.9938374999911,1002.9771798000438,Foils\scenes20.jpg,none,n,4.976165700005367,None,,,,,,,,00058,001,2026-01-19_11h41.42.159,MST_test,2024.2.0,60.104606062240876,2026-01-19 11h41.54.575985 +0530,
104,0,105,o,4.892650399997365,None,105,0,104,1002.9932586000068,,,,,,,,,,,,,,,,,,,,,,,,,,,,,,,,,,,,,,,,,,,,,,,,,,1002.9772742000059,1002.9932586000068,1003.4935954000102,1003.4767341000261,1003.4799159000395,1003.4935954000102,1003.4935954000102,1003.4935954000102,1008.3938387000235,Objects\183a.jpg,mid,o,4.892650399997365,None,,,,,,,,00058,001,2026-01-19_11h41.42.159,MST_test,2024.2.0,60.104606062240876,2026-01-19 11h41.54.575985 +0530,
105,0,106,s,10.116258400026709,None,106,0,105,1008.4099739000085,,,,,,,,,,,,,,,,,,,,,,,,,,,,,,,,,,,,,,,,,,,,,,,,,,1008.393933000043,1008.4099739000085,1008.9104899000376,1008.8935146000003,1008.8990332999965,1008.9104899000376,1008.9104899000376,1008.9104899000376,1019.0274861000362,Scenes\153a.jpg,post,s,10.116258400026709,None,,,,,,,,00058,001,2026-01-19_11h41.42.159,MST_test,2024.2.0,60.104606062240876,2026-01-19 11h41.54.575985 +0530,
106,0,107,o,3.0987706999876536,None,107,0,106,1019.043313000002,,,,,,,,,,,,,,,,,,,,,,,,,,,,,,,,,,,,,,,,,,,,,,,,,,1019.0275802999968,1019.043313000002,1019.5437808000133,1019.5268854000024,1019.5392285000416,1019.5437808000133,1019.5437808000133,1019.5437808000133,1022.6441864999942,Objects\145b.jpg,pre,o,3.0987706999876536,None,,,,,,,,00058,001,2026-01-19_11h41.42.159,MST_test,2024.2.0,60.104606062240876,2026-01-19 11h41.54.575985 +0530,
107,0,108,o,12.75494879996404,None,108,0,107,1022.6599556999863,,,,,,,,,,,,,,,,,,,,,,,,,,,,,,,,,,,,,,,,,,,,,,,,,,1022.6442780999932,1022.6599556999863,1023.1600539000356,1023.1435624000151,1023.1553353000199,1023.1600539000356,1023.1600539000356,1023.1600539000356,1035.9272174999933,Objects\106b.jpg,mid,o,12.75494879996404,None,,,,,,,,00058,001,2026-01-19_11h41.42.159,MST_test,2024.2.0,60.104606062240876,2026-01-19 11h41.54.575985 +0530,
108,0,109,o,9.56641240004683,None,109,0,108,1035.9432337000035,,,,,,,,,,,,,,,,,,,,,,,,,,,,,,,,,,,,,,,,,,,,,,,,,,1035.9273136000265,1035.9432337000035,1036.4436392000061,1036.4269736999995,1036.436210200016,1036.4436392000061,1036.4436392000061,1036.4436392000061,1046.0107625999954,Foils\scenes1.jpg,none,o,9.56641240004683,None,,,,,,,,00058,001,2026-01-19_11h41.42.159,MST_test,2024.2.0,60.104606062240876,2026-01-19 11h41.54.575985 +0530,
109,0,110,s,6.0275357000064105,None,110,0,109,1046.0264833000256,,,,,,,,,,,,,,,,,,,,,,,,,,,,,,,,,,,,,,,,,,,,,,,,,,1046.0108559000073,1046.0264833000256,1046.526805600035,1046.5101255000336,1046.5207718000165,1046.526805600035,1046.526805600035,1046.526805600035,1052.560484000016,Objects\054b.jpg,post,s,6.0275357000064105,None,,,,,,,,00058,001,2026-01-19_11h41.42.159,MST_test,2024.2.0,60.104606062240876,2026-01-19 11h41.54.575985 +0530,
110,0,111,s,4.814517699996941,None,111,0,110,1052.5763939000317,,,,,,,,,,,,,,,,,,,,,,,,,,,,,,,,,,,,,,,,,,,,,,,,,,1052.5605751000112,1052.5763939000317,1053.076652000018,1053.06012129999,1053.0700132999918,1053.076652000018,1053.076652000018,1053.076652000018,1057.8941159000387,Objects\046b.jpg,mid,s,4.814517699996941,None,,,,,,,,00058,001,2026-01-19_11h41.42.159,MST_test,2024.2.0,60.104606062240876,2026-01-19 11h41.54.575985 +0530,
111,0,112,s,3.2165308000403456,None,112,0,111,1057.9099327999866,,,,,,,,,,,,,,,,,,,,,,,,,,,,,,,,,,,,,,,,,,,,,,,,,,1057.8942121000146,1057.9099327999866,1058.410065700009,1058.3935001000063,1058.403275699995,1058.410065700009,1058.410065700009,1058.410065700009,1061.6271796000074,Foils\113a.jpg,none,s,3.2165308000403456,None,,,,,,,,00058,001,2026-01-19_11h41.42.159,MST_test,2024.2.0,60.104606062240876,2026-01-19 11h41.54.575985 +0530,
112,0,113,o,2.051805199997034,None,113,0,112,1061.6432140000397,,,,,,,,,,,,,,,,,,,,,,,,,,,,,,,,,,,,,,,,,,,,,,,,,,1061.6272683000425,1061.6432140000397,1062.1435053999885,1062.1267418999923,1062.1295801000088,1062.1435053999885,1062.1435053999885,1062.1435053999885,1064.2105414000107,Objects\176a.jpg,mid,o,2.051805199997034,None,,,,,,,,00058,001,2026-01-19_11h41.42.159,MST_test,2024.2.0,60.104606062240876,2026-01-19 11h41.54.575985 +0530,
113,0,114,n,3.068073700007517,None,114,0,113,1064.2264178000041,,,,,,,,,,,,,,,,,,,,,,,,,,,,,,,,,,,,,,,,,,,,,,,,,,1064.210639500001,1064.2264178000041,1064.7267956000287,1064.7100614000228,1064.7195446999976,1064.7267956000287,1064.7267956000287,1064.7267956000287,1067.8103926000185,Foils\scenes7.jpg,none,n,3.068073700007517,None,,,,,,,,00058,001,2026-01-19_11h41.42.159,MST_test,2024.2.0,60.104606062240876,2026-01-19 11h41.54.575985 +0530,
114,0,115,s,4.860885400034022,None,115,0,114,1067.8264919000212,,,,,,,,,,,,,,,,,,,,,,,,,,,,,,,,,,,,,,,,,,,,,,,,,,1067.8104824000038,1067.8264919000212,1068.3268503000145,1068.3101227000006,1068.3135308999917,1068.3268503000145,1068.3268503000145,1068.3268503000145,1073.1940594000043,Objects\070a.jpg,post,s,4.860885400034022,None,,,,,,,,00058,001,2026-01-19_11h41.42.159,MST_test,2024.2.0,60.104606062240876,2026-01-19 11h41.54.575985 +0530,
115,0,116,s,3.208920999953989,None,116,0,115,1073.2099051999976,,,,,,,,,,,,,,,,,,,,,,,,,,,,,,,,,,,,,,,,,,,,,,,,,,1073.1941596000106,1073.2099051999976,1073.7133895000443,1073.693512500031,1073.711150099989,1073.7133895000443,1073.7133895000443,1073.7133895000443,1076.9269011000288,Foils\scenes22.jpg,none,s,3.208920999953989,None,,,,,,,,00058,001,2026-01-19_11h41.42.159,MST_test,2024.2.0,60.104606062240876,2026-01-19 11h41.54.575985 +0530,
116,0,117,o,6.99995269998908,None,117,0,116,1076.9432191000087,,,,,,,,,,,,,,,,,,,,,,,,,,,,,,,,,,,,,,,,,,,,,,,,,,1076.9269933000323,1076.9432191000087,1077.4439105000347,1077.4266662999871,1077.4371421000105,1077.4439105000347,1077.4439105000347,1077.4439105000347,1084.4604371000314,Scenes\176a.jpg,post,o,6.99995269998908,None,,,,,,,,00058,001,2026-01-19_11h41.42.159,MST_test,2024.2.0,60.104606062240876,2026-01-19 11h41.54.575985 +0530,
117,0,118,o,1.7050496999872848,None,118,0,117,1084.4764866000041,,,,,,,,,,,,,,,,,,,,,,,,,,,,,,,,,,,,,,,,,,,,,,,,,,1084.4605416000122,1084.4764866000041,1084.9770618000184,1084.960162500036,1084.971573900024,1084.9770618000184,1084.9770618000184,1084.9770618000184,1086.6938090000185,Scenes\011a.jpg,mid,o,1.7050496999872848,None,,,,,,,,00058,001,2026-01-19_11h41.42.159,MST_test,2024.2.0,60.104606062240876,2026-01-19 11h41.54.575985 +0530,
118,0,119,o,4.544029099983163,None,119,0,118,1086.7099721000413,,,,,,,,,,,,,,,,,,,,,,,,,,,,,,,,,,,,,,,,,,,,,,,,,,1086.6939007000183,1086.7099721000413,1087.2105324000004,1087.1935495000216,1087.2038337000413,1087.2105324000004,1087.2105324000004,1087.2105324000004,1091.7604933000403,Scenes\010a.jpg,pre,o,4.544029099983163,None,,,,,,,,00058,001,2026-01-19_11h41.42.159,MST_test,2024.2.0,60.104606062240876,2026-01-19 11h41.54.575985 +0530,
119,0,120,n,2.3044212000095285,None,120,0,119,1091.776394799992,,,,,,,,,,,,,,,,,,,,,,,,,,,,,,,,,,,,,,,,,,,,,,,,,,1091.7605896000168,1091.776394799992,1092.2823266999912,1092.260190800007,1092.2800625000382,1092.2823266999912,1092.2823266999912,1092.2823266999912,1094.5938579000067,Scenes\114b.jpg,mid,n,2.3044212000095285,None,,,,,,,,00058,001,2026-01-19_11h41.42.159,MST_test,2024.2.0,60.104606062240876,2026-01-19 11h41.54.575985 +0530,
120,0,121,n,7.124765700020362,None,121,0,120,1094.6098362000193,,,,,,,,,,,,,,,,,,,,,,,,,,,,,,,,,,,,,,,,,,,,,,,,,,1094.5939514000202,1094.6098362000193,1095.1100495000137,1095.0936901000096,1095.1047196,1095.1100495000137,1095.1100495000137,1095.1100495000137,1102.243966100039,Foils\scenes11.jpg,none,n,7.124765700020362,None,,,,,,,,00058,001,2026-01-19_11h41.42.159,MST_test,2024.2.0,60.104606062240876,2026-01-19 11h41.54.575985 +0530,
121,0,122,o,5.465920199989341,None,122,0,121,1102.260065700044,,,,,,,,,,,,,,,,,,,,,,,,,,,,,,,,,,,,,,,,,,,,,,,,,,1102.2440628000186,1102.260065700044,1102.7602407000377,1102.743591400038,1102.7536843999987,1102.7602407000377,1102.7602407000377,1102.7602407000377,1108.2273841000278,Objects\009b.jpg,pre,o,5.465920199989341,None,,,,,,,,00058,001,2026-01-19_11h41.42.159,MST_test,2024.2.0,60.104606062240876,2026-01-19 11h41.54.575985 +0530,
122,0,123,o,3.9385721999569796,None,123,0,122,1108.2432908000192,,,,,,,,,,,,,,,,,,,,,,,,,,,,,,,,,,,,,,,,,,,,,,,,,,1108.227474000014,1108.2432908000192,1108.7434686000342,1108.7269914000062,1108.7297026999877,1108.7434686000342,1108.7434686000342,1108.7434686000342,1112.6937911999994,Objects\192a.jpg,mid,o,3.9385721999569796,None,,,,,,,,00058,001,2026-01-19_11h41.42.159,MST_test,2024.2.0,60.104606062240876,2026-01-19 11h41.54.575985 +0530,
123,0,124,n,7.031473899958655,None,124,0,123,1112.7100375000155,,,,,,,,,,,,,,,,,,,,,,,,,,,,,,,,,,,,,,,,,,,,,,,,,,1112.6938853000174,1112.7100375000155,1113.2105260000098,1113.1934982000384,1113.2071491000243,1113.2105260000098,1113.2105260000098,1113.2105260000098,1120.2440314000123,Scenes\169b.jpg,post,n,7.031473899958655,None,,,,,,,,00058,001,2026-01-19_11h41.42.159,MST_test,2024.2.0,60.104606062240876,2026-01-19 11h41.54.575985 +0530,
124,0,125,o,8.010055600025225,None,125,0,124,1120.2599910999998,,,,,,,,,,,,,,,,,,,,,,,,,,,,,,,,,,,,,,,,,,,,,,,,,,1120.2441213999991,1120.2599910999998,1120.7605161000392,1120.7436085999943,1120.7537391000078,1120.7605161000392,1120.7605161000392,1120.7605161000392,1128.777094500023,Objects\061b.jpg,mid,o,8.010055600025225,None,,,,,,,,00058,001,2026-01-19_11h41.42.159,MST_test,2024.2.0,60.104606062240876,2026-01-19 11h41.54.575985 +0530,
125,0,126,o,3.5498048999579623,None,126,0,125,1128.7933345999918,,,,,,,,,,,,,,,,,,,,,,,,,,,,,,,,,,,,,,,,,,,,,,,,,,1128.7771849000128,1128.7933345999918,1129.2936166999862,1129.276907899999,1129.2797500999877,1129.2936166999862,1129.2936166999862,1129.2936166999862,1132.8441826000344,Objects\089a.jpg,pre,o,3.5498048999579623,None,,,,,,,,00058,001,2026-01-19_11h41.42.159,MST_test,2024.2.0,60.104606062240876,2026-01-19 11h41.54.575985 +0530,
126,0,127,o,1.9541741000139154,None,127,0,126,1132.8600135000306,,,,,,,,,,,,,,,,,,,,,,,,,,,,,,,,,,,,,,,,,,,,,,,,,,1132.8442757999874,1132.8600135000306,1133.360653300013,1133.3436612000223,1133.356639500009,1133.360653300013,1133.360653300013,1133.360653300013,1135.3273005000083,Scenes\046a.jpg,post,o,1.9541741000139154,None,,,,,,,,00058,001,2026-01-19_11h41.42.159,MST_test,2024.2.0,60.104606062240876,2026-01-19 11h41.54.575985 +0530,
127,0,128,s,2.4222284000134096,None,128,0,127,1135.343346700014,,,,,,,,,,,,,,,,,,,,,,,,,,,,,,,,,,,,,,,,,,,,,,,,,,1135.3273902999936,1135.343346700014,1135.8438400999876,1135.8269414000097,1135.837493900035,1135.8438400999876,1135.8438400999876,1135.8438400999876,1138.2772358999937,Objects\175b.jpg,pre,s,2.4222284000134096,None,,,,,,,,00058,001,2026-01-19_11h41.42.159,MST_test,2024.2.0,60.104606062240876,2026-01-19 11h41.54.575985 +0530,
128,0,129,s,4.648605700000189,None,129,0,128,1138.2932752000052,,,,,,,,,,,,,,,,,,,,,,,,,,,,,,,,,,,,,,,,,,,,,,,,,,1138.2773269999889,1138.2932752000052,1138.7934458000236,1138.7769101000158,1138.7863101999974,1138.7934458000236,1138.7934458000236,1138.7934458000236,1143.4438615000108,Foils\106a.jpg,none,s,4.648605700000189,None,,,,,,,,00058,001,2026-01-19_11h41.42.159,MST_test,2024.2.0,60.104606062240876,2026-01-19 11h41.54.575985 +0530,
129,0,130,o,3.6659797999891452,None,130,0,129,1143.459994200035,,,,,,,,,,,,,,,,,,,,,,,,,,,,,,,,,,,,,,,,,,,,,,,,,,1143.4439542000182,1143.459994200035,1143.9604926999891,1143.9435787000111,1143.9529730000068,1143.9604926999891,1143.9604926999891,1143.9604926999891,1147.627167800034,Scenes\145a.jpg,post,o,3.6659797999891452,None,,,,,,,,00058,001,2026-01-19_11h41.42.159,MST_test,2024.2.0,60.104606062240876,2026-01-19 11h41.54.575985 +0530,
130,0,131,n,3.8183118000160903,None,131,0,130,1147.6433426000294,,,,,,,,,,,,,,,,,,,,,,,,,,,,,,,,,,,,,,,,,,,,,,,,,,1147.6272592000314,1147.6433426000294,1148.1437435999978,1148.1268165000365,1148.1366798999952,1148.1437435999978,1148.1437435999978,1148.1437435999978,1151.9772171000368,Objects\160b.jpg,pre,n,3.8183118000160903,None,,,,,,,,00058,001,2026-01-19_11h41.42.159,MST_test,2024.2.0,60.104606062240876,2026-01-19 11h41.54.575985 +0530,
131,0,132,o,2.7484928999911062,None,132,0,131,1151.9938999000005,,,,,,,,,,,,,,,,,,,,,,,,,,,,,,,,,,,,,,,,,,,,,,,,,,1151.977307400026,1151.9938999000005,1152.4935627999948,1152.4769239000161,1152.4885835000314,1152.4935627999948,1152.4935627999948,1152.4935627999948,1155.2439064999926,Objects\178b.jpg,pre,o,2.7484928999911062,None,,,,,,,,00058,001,2026-01-19_11h41.42.159,MST_test,2024.2.0,60.104606062240876,2026-01-19 11h41.54.575985 +0530,
132,0,133,n,3.2739928999799304,None,133,0,132,1155.2599924000097,,,,,,,,,,,,,,,,,,,,,,,,,,,,,,,,,,,,,,,,,,,,,,,,,,1155.2440090000164,1155.2599924000097,1155.7601736999932,1155.7437174000079,1155.755679199996,1155.7601736999932,1155.7601736999932,1155.7601736999932,1159.0438281000243,Foils\017a.jpg,none,n,3.2739928999799304,None,,,,,,,,00058,001,2026-01-19_11h41.42.159,MST_test,2024.2.0,60.104606062240876,2026-01-19 11h41.54.575985 +0530,
133,0,134,o,5.696517399977893,None,134,0,133,1159.060011100024,,,,,,,,,,,,,,,,,,,,,,,,,,,,,,,,,,,,,,,,,,,,,,,,,,1159.0439204000286,1159.060011100024,1159.5615978999995,1159.5435942999902,1159.5594412999926,1159.5615978999995,1159.5615978999995,1159.5615978999995,1165.2605508000124,Scenes\055b.jpg,post,o,5.696517399977893,None,,,,,,,,00058,001,2026-01-19_11h41.42.159,MST_test,2024.2.0,60.104606062240876,2026-01-19 11h41.54.575985 +0530,
134,0,135,n,2.1685929999803193,None,135,0,134,1165.2765124000143,,,,,,,,,,,,,,,,,,,,,,,,,,,,,,,,,,,,,,,,,,,,,,,,,,1165.2606415000046,1165.2765124000143,1165.778019600024,1165.7601777000236,1165.7758838000009,1165.778019600024,1165.778019600024,1165.778019600024,1167.9604763000389,Scenes\186b.jpg,mid,n,2.1685929999803193,None,,,,,,,,00058,001,2026-01-19_11h41.42.159,MST_test,2024.2.0,60.104606062240876,2026-01-19 11h41.54.575985 +0530,
135,0,136,s,2.629651700030081,None,136,0,135,1167.9764147000387,,,,,,,,,,,,,,,,,,,,,,,,,,,,,,,,,,,,,,,,,,,,,,,,,,1167.9605820000288,1167.9764147000387,1168.4769517999957,1168.460236600018,1168.4713002000353,1168.4769517999957,1168.4769517999957,1168.4769517999957,1171.1107174000354,Objects\181b.jpg,post,s,2.629651700030081,None,,,,,,,,00058,001,2026-01-19_11h41.42.159,MST_test,2024.2.0,60.104606062240876,2026-01-19 11h41.54.575985 +0530,
136,0,137,o,3.1035757000208832,None,137,0,136,1171.126573799993,,,,,,,,,,,,,,,,,,,,,,,,,,,,,,,,,,,,,,,,,,,,,,,,,,1171.1108152000234,1171.126573799993,1171.6267463000258,1171.6101926999982,1171.6196233000373,1171.6267463000258,1171.6267463000258,1171.6267463000258,1174.7438215999864,Objects\008b.jpg,post,o,3.1035757000208832,None,,,,,,,,00058,001,2026-01-19_11h41.42.159,MST_test,2024.2.0,60.104606062240876,2026-01-19 11h41.54.575985 +0530,
137,0,138,n,17.82269240001915,None,138,0,137,1174.7599089000141,,,,,,,,,,,,,,,,,,,,,,,,,,,,,,,,,,,,,,,,,,,,,,,,,,1174.7439112000284,1174.7599089000141,1175.2603036999935,1175.243566500023,1175.253571600013,1175.2603036999935,1175.2603036999935,1175.2603036999935,1193.0939119000104,Foils\scenes17.jpg,none,n,17.82269240001915,None,,,,,,,,00058,001,2026-01-19_11h41.42.159,MST_test,2024.2.0,60.104606062240876,2026-01-19 11h41.54.575985 +0530,
138,0,139,n,5.264970299962442,None,139,0,138,1193.1099303000374,,,,,,,,,,,,,,,,,,,,,,,,,,,,,,,,,,,,,,,,,,,,,,,,,,1193.0940065000323,1193.1099303000374,1193.6103299999959,1193.5935235000215,1193.600813099998,1193.6103299999959,1193.6103299999959,1193.6103299999959,1198.877087300003,Scenes\126a.jpg,post,n,5.264970299962442,None,,,,,,,,00058,001,2026-01-19_11h41.42.159,MST_test,2024.2.0,60.104606062240876,2026-01-19 11h41.54.575985 +0530,
139,0,140,s,2.016851400025189,None,140,0,139,1198.8931867000065,,,,,,,,,,,,,,,,,,,,,,,,,,,,,,,,,,,,,,,,,,,,,,,,,,1198.8771760000382,1198.8931867000065,1199.3936740999925,1199.376889600011,1199.380542400002,1199.3936740999925,1199.3936740999925,1199.3936740999925,1201.4270065000164,Objects\113a.jpg,mid,s,2.016851400025189,None,,,,,,,,00058,001,2026-01-19_11h41.42.159,MST_test,2024.2.0,60.104606062240876,2026-01-19 11h41.54.575985 +0530,
140,0,141,n,1.9309881000081077,None,141,0,140,1201.4432972000213,,,,,,,,,,,,,,,,,,,,,,,,,,,,,,,,,,,,,,,,,,,,,,,,,,1201.4270946999895,1201.4432972000213,1201.9434220000403,1201.9267655999865,1201.9365540000144,1201.9434220000403,1201.9434220000403,1201.9434220000403,1203.8770056000212,Foils\073a.jpg,none,n,1.9309881000081077,None,,,,,,,,00058,001,2026-01-19_11h41.42.159,MST_test,2024.2.0,60.104606062240876,2026-01-19 11h41.54.575985 +0530,
141,0,142,n,3.7530884000007063,None,142,0,141,1203.8932533999905,,,,,,,,,,,,,,,,,,,,,,,,,,,,,,,,,,,,,,,,,,,,,,,,,,1203.8770968000172,1203.8932533999905,1204.3934765000013,1204.376775200013,1204.3793549000402,1204.3934765000013,1204.3934765000013,1204.3934765000013,1208.1605741000385,Objects\110a.jpg,post,n,3.7530884000007063,None,,,,,,,,00058,001,2026-01-19_11h41.42.159,MST_test,2024.2.0,60.104606062240876,2026-01-19 11h41.54.575985 +0530,
142,0,143,s,6.101770900015254,None,143,0,142,1208.1765072999988,,,,,,,,,,,,,,,,,,,,,,,,,,,,,,,,,,,,,,,,,,,,,,,,,,1208.160669600009,1208.1765072999988,1208.6769019000349,1208.6601381000364,1208.666893000016,1208.6769019000349,1208.6769019000349,1208.6769019000349,1214.7937719000038,Scenes\111a.jpg,pre,s,6.101770900015254,None,,,,,,,,00058,001,2026-01-19_11h41.42.159,MST_test,2024.2.0,60.104606062240876,2026-01-19 11h41.54.575985 +0530,
143,0,144,o,1.7959507000050507,None,144,0,143,1214.8099232999957,,,,,,,,,,,,,,,,,,,,,,,,,,,,,,,,,,,,,,,,,,,,,,,,,,1214.7938692999887,1214.8099232999957,1215.3104197999928,1215.2934853000334,1215.3061162999948,1215.3104197999928,1215.3104197999928,1215.3104197999928,1217.110535499989,Scenes\096b.jpg,mid,o,1.7959507000050507,None,,,,,,,,00058,001,2026-01-19_11h41.42.159,MST_test,2024.2.0,60.104606062240876,2026-01-19 11h41.54.575985 +0530,
144,0,145,s,6.120165100030135,None,145,0,144,1217.1264471000177,,,,,,,,,,,,,,,,,,,,,,,,,,,,,,,,,,,,,,,,,,,,,,,,,,1217.1106256000348,1217.1264471000177,1217.6267709000385,1217.6101788000087,1217.6219094000407,1217.6267709000385,1217.6267709000385,1217.6267709000385,1223.7604878999991,Foils\086a.jpg,none,s,6.120165100030135,None,,,,,,,,00058,001,2026-01-19_11h41.42.159,MST_test,2024.2.0,60.104606062240876,2026-01-19 11h41.54.575985 +0530,
145,0,146,s,1.973795700003393,None,146,0,145,1223.7766687000403,,,,,,,,,,,,,,,,,,,,,,,,,,,,,,,,,,,,,,,,,,,,,,,,,,1223.7605793999974,1223.7766687000403,1224.2768000999931,1224.2602116999915,1224.2633630000055,1224.2768000999931,1224.2768000999931,1224.2768000999931,1226.2607903000317,Objects\085a.jpg,post,s,1.973795700003393,None,,,,,,,,00058,001,2026-01-19_11h41.42.159,MST_test,2024.2.0,60.104606062240876,2026-01-19 11h41.54.575985 +0530,
146,0,147,o,1.701589000003878,None,147,0,146,1226.2766056000255,,,,,,,,,,,,,,,,,,,,,,,,,,,,,,,,,,,,,,,,,,,,,,,,,,1226.2608842999907,1226.2766056000255,1226.780481600028,1226.7602954999893,1226.7783647000324,1226.780481600028,1226.780481600028,1226.780481600028,1228.493901800015,Scenes\142b.jpg,mid,o,1.701589000003878,None,,,,,,,,00058,001,2026-01-19_11h41.42.159,MST_test,2024.2.0,60.104606062240876,2026-01-19 11h41.54.575985 +0530,
147,0,148,o,1.5196552000124939,None,148,0,147,1228.5099992000032,,,,,,,,,,,,,,,,,,,,,,,,,,,,,,,,,,,,,,,,,,,,,,,,,,1228.49399550003,1228.5099992000032,1229.0104260999942,1228.9936106000096,1229.0039438999956,1229.0104260999942,1229.0104260999942,1229.0104260999942,1230.5439866000088,Objects\066b.jpg,mid,o,1.5196552000124939,None,,,,,,,,00058,001,2026-01-19_11h41.42.159,MST_test,2024.2.0,60.104606062240876,2026-01-19 11h41.54.575985 +0530,
148,0,149,s,3.8143225999665447,None,149,0,148,1230.5600206000381,,,,,,,,,,,,,,,,,,,,,,,,,,,,,,,,,,,,,,,,,,,,,,,,,,1230.5440854000044,1230.5600206000381,1231.0604182000388,1231.0436265000026,1231.0503542000079,1231.0604182000388,1231.0604182000388,1231.0604182000388,1234.8772024000064,Scenes\185a.jpg,post,s,3.8143225999665447,None,,,,,,,,00058,001,2026-01-19_11h41.42.159,MST_test,2024.2.0,60.104606062240876,2026-01-19 11h41.54.575985 +0530,
149,0,150,s,2.079776500002481,None,150,0,149,1234.8933872000198,,,,,,,,,,,,,,,,,,,,,,,,,,,,,,,,,,,,,,,,,,,,,,,,,,1234.8772935000015,1234.8933872000198,1235.3949268000433,1235.3769288000185,1235.3927418999956,1235.3949268000433,1235.3949268000433,1235.3949268000433,1237.4772333999863,Scenes\004b.jpg,pre,s,2.079776500002481,None,,,,,,,,00058,001,2026-01-19_11h41.42.159,MST_test,2024.2.0,60.104606062240876,2026-01-19 11h41.54.575985 +0530,
,,,,,,,,,,,,,,,,,,,,,,,,,,,,,,,,,,,,,,,,,,,,,,,,,,,,,,,,,,,,,,,,,,,,,,,,,1237.477298600017,1237.4934294000268,1237.4934294000268,1239.660776100005,space,2.1567147000459954,None,00058,001,2026-01-19_11h41.42.159,MST_test,2024.2.0,60.104606062240876,2026-01-19 11h41.54.575985 +0530,
