thisN,thisTrialN,thisRepN,key_resp_3.keys,key_resp_3.rt,key_resp_3.duration,trials.thisRepN,trials.thisTrialN,trials.thisN,thisRow.t,notes,intro_page.started,text.started,key_resp.started,intro_page.stopped,key_resp.keys,key_resp.rt,key_resp.duration,instructions.started,text_2.started,key_resp_2.started,instructions.stopped,key_resp_2.keys,key_resp_2.rt,key_resp_2.duration,demo1.started,image_1.started,image_2.started,text_7.started,key_resp_6.started,text_9.started,demo1.stopped,key_resp_6.keys,key_resp_6.rt,key_resp_6.duration,demo2.started,image_5.started,image_6.started,text_11.started,text_12.started,key_resp_8.started,demo2.stopped,key_resp_8.keys,key_resp_8.rt,key_resp_8.duration,demo_conclusion.started,text_13.started,key_resp_9.started,demo_conclusion.stopped,key_resp_9.keys,key_resp_9.rt,key_resp_9.duration,start_test.started,text_6.started,key_resp_5.started,start_test.stopped,key_resp_5.keys,key_resp_5.rt,key_resp_5.duration,ISI.started,text_4.started,text_4.stopped,ISI.stopped,routine_1.started,image.started,text_3.started,key_resp_3.started,routine_1.stopped,image_path,position_of_stimuli,trials.key_resp_3.keys,trials.key_resp_3.rt,trials.key_resp_3.duration,End_page.started,text_5.started,key_resp_4.started,End_page.stopped,key_resp_4.keys,key_resp_4.rt,key_resp_4.duration,participant,session,date,expName,psychopyVersion,frameRate,expStart,
,,,,,,,,,,,0.0012864999589510262,0.002965699997730553,0.002965699997730553,4.068978099967353,space,4.050871600047685,None,,,,,,,,,,,,,,,,,,,,,,,,,,,,,,,,,,,,,,,,,,,,,,,,,,,,,,,,,,,,,,,00053,001,2026-01-18_17h47.05.654,MST_test,2024.2.0,59.82503571244917,2026-01-18 17h47.14.014207 +0530,
,,,,,,,,,,,,,,,,,,4.069010699982755,4.083473599981517,4.083473599981517,18.95097479998367,space,14.858606400026474,None,,,,,,,,,,,,,,,,,,,,,,,,,,,,,,,,,,,,,,,,,,,,,,,,,,,,,,,,00053,001,2026-01-18_17h47.05.654,MST_test,2024.2.0,59.82503571244917,2026-01-18 17h47.14.014207 +0530,
,,,,,,,,,,,,,,,,,,,,,,,,,18.95100319996709,18.96733439998934,18.96733439998934,18.96733439998934,18.96733439998934,18.96733439998934,27.150988799985498,space,8.182299199979752,None,,,,,,,,,,,,,,,,,,,,,,,,,,,,,,,,,,,,,,,,,,,,,,00053,001,2026-01-18_17h47.05.654,MST_test,2024.2.0,59.82503571244917,2026-01-18 17h47.14.014207 +0530,
,,,,,,,,,,,,,,,,,,,,,,,,,,,,,,,,,,,27.15101729996968,27.16734899999574,27.16734899999574,27.16734899999574,27.16734899999574,27.16734899999574,31.684579399996437,space,4.510603300004732,None,,,,,,,,,,,,,,,,,,,,,,,,,,,,,,,,,,,,00053,001,2026-01-18_17h47.05.654,MST_test,2024.2.0,59.82503571244917,2026-01-18 17h47.14.014207 +0530,
,,,,,,,,,,,,,,,,,,,,,,,,,,,,,,,,,,,,,,,,,,,,,31.68461249995744,31.700424699985888,31.700424699985888,60.500795399944764,space,28.793242599989753,None,,,,,,,,,,,,,,,,,,,,,,,,,,,,,00053,001,2026-01-18_17h47.05.654,MST_test,2024.2.0,59.82503571244917,2026-01-18 17h47.14.014207 +0530,
,,,,,,,,,,,,,,,,,,,,,,,,,,,,,,,,,,,,,,,,,,,,,,,,,,,,60.5008242999902,60.517030799994245,60.517030799994245,125.91735339997103,space,65.38467409997247,None,,,,,,,,,,,,,,,,,,,,,,00053,001,2026-01-18_17h47.05.654,MST_test,2024.2.0,59.82503571244917,2026-01-18 17h47.14.014207 +0530,
0,0,1,n,4.904243300028611,None,1,0,0,125.93342149996897,,,,,,,,,,,,,,,,,,,,,,,,,,,,,,,,,,,,,,,,,,,,,,,,,,125.92148479999742,125.93342149996897,126.43869899999117,126.41714569996111,126.4363540999475,126.43869899999117,126.43869899999117,126.43869899999117,131.35082529997453,Objects\160b.jpg,post,n,4.904243300028611,None,,,,,,,,00053,001,2026-01-18_17h47.05.654,MST_test,2024.2.0,59.82503571244917,2026-01-18 17h47.14.014207 +0530,
1,0,2,s,7.987028400006238,None,2,0,1,131.3669813000015,,,,,,,,,,,,,,,,,,,,,,,,,,,,,,,,,,,,,,,,,,,,,,,,,,131.35093209997285,131.3669813000015,131.86717629997293,131.85048579995055,131.86011789995246,131.86717629997293,131.86717629997293,131.86717629997293,139.86747709999327,Objects\049b.jpg,mid,s,7.987028400006238,None,,,,,,,,00053,001,2026-01-18_17h47.05.654,MST_test,2024.2.0,59.82503571244917,2026-01-18 17h47.14.014207 +0530,
2,0,3,s,1.910444799985271,None,3,0,2,139.88350579998223,,,,,,,,,,,,,,,,,,,,,,,,,,,,,,,,,,,,,,,,,,,,,,,,,,139.86757079995004,139.88350579998223,140.3839029999799,140.36730230000103,140.37027959997067,140.3839029999799,140.3839029999799,140.3839029999799,142.3008973999531,Objects\085a.jpg,pre,s,1.910444799985271,None,,,,,,,,00053,001,2026-01-18_17h47.05.654,MST_test,2024.2.0,59.82503571244917,2026-01-18 17h47.14.014207 +0530,
3,0,4,o,5.885360799962655,None,4,0,3,142.316923699982,,,,,,,,,,,,,,,,,,,,,,,,,,,,,,,,,,,,,,,,,,,,,,,,,,142.3009961999487,142.316923699982,142.81718389998423,142.80045999999857,142.8031221999554,142.81718389998423,142.81718389998423,142.81718389998423,148.71762769995257,Objects\030b.jpg,pre,o,5.885360799962655,None,,,,,,,,00053,001,2026-01-18_17h47.05.654,MST_test,2024.2.0,59.82503571244917,2026-01-18 17h47.14.014207 +0530,
4,0,5,o,1.973417600034736,None,5,0,4,148.73344209999777,,,,,,,,,,,,,,,,,,,,,,,,,,,,,,,,,,,,,,,,,,,,,,,,,,148.71771849994548,148.73344209999777,149.23360459995456,149.21721719997004,149.21991909999633,149.23360459995456,149.23360459995456,149.23360459995456,151.21754179999698,Objects\109a.jpg,mid,o,1.973417600034736,None,,,,,,,,00053,001,2026-01-18_17h47.05.654,MST_test,2024.2.0,59.82503571244917,2026-01-18 17h47.14.014207 +0530,
5,0,6,o,5.791665000026114,None,6,0,5,151.2336546999868,,,,,,,,,,,,,,,,,,,,,,,,,,,,,,,,,,,,,,,,,,,,,,,,,,151.21763939998345,151.2336546999868,151.7340673999861,151.71718869998585,151.72415369999362,151.7340673999861,151.7340673999861,151.7340673999861,157.53418669995153,Scenes\042a.jpg,post,o,5.791665000026114,None,,,,,,,,00053,001,2026-01-18_17h47.05.654,MST_test,2024.2.0,59.82503571244917,2026-01-18 17h47.14.014207 +0530,
6,0,7,n,2.5553059999947436,None,7,0,6,157.55027529998915,,,,,,,,,,,,,,,,,,,,,,,,,,,,,,,,,,,,,,,,,,,,,,,,,,157.53428259998327,157.55027529998915,158.050494599971,158.03378819994396,158.0377597999759,158.050494599971,158.050494599971,158.050494599971,160.6174570999574,Foils\scenes17.jpg,none,n,2.5553059999947436,None,,,,,,,,00053,001,2026-01-18_17h47.05.654,MST_test,2024.2.0,59.82503571244917,2026-01-18 17h47.14.014207 +0530,
7,0,8,s,4.01651079999283,None,8,0,7,160.63353929994628,,,,,,,,,,,,,,,,,,,,,,,,,,,,,,,,,,,,,,,,,,,,,,,,,,160.61755559995072,160.63353929994628,161.13384409999708,161.11719299998367,161.12048009998398,161.13384409999708,161.13384409999708,161.13384409999708,165.15107869997155,Objects\123b.jpg,mid,s,4.01651079999283,None,,,,,,,,00053,001,2026-01-18_17h47.05.654,MST_test,2024.2.0,59.82503571244917,2026-01-18 17h47.14.014207 +0530,
8,0,9,s,5.1783919999725185,None,9,0,8,165.1669992999523,,,,,,,,,,,,,,,,,,,,,,,,,,,,,,,,,,,,,,,,,,,,,,,,,,165.15116969996598,165.1669992999523,165.66736529994523,165.65068469999824,165.6528153999825,165.66736529994523,165.66736529994523,165.66736529994523,170.85094639996532,Foils\scenes29.jpg,none,s,5.1783919999725185,None,,,,,,,,00053,001,2026-01-18_17h47.05.654,MST_test,2024.2.0,59.82503571244917,2026-01-18 17h47.14.014207 +0530,
9,0,10,o,7.742558599973563,None,10,0,9,170.86688129999675,,,,,,,,,,,,,,,,,,,,,,,,,,,,,,,,,,,,,,,,,,,,,,,,,,170.8510416999925,170.86688129999675,171.36726189998444,171.3505658999784,171.35359799995786,171.36726189998444,171.36726189998444,171.36726189998444,179.11743539996678,Objects\072a.jpg,post,o,7.742558599973563,None,,,,,,,,00053,001,2026-01-18_17h47.05.654,MST_test,2024.2.0,59.82503571244917,2026-01-18 17h47.14.014207 +0530,
10,0,11,n,3.7319544999627396,None,11,0,10,179.1335174999549,,,,,,,,,,,,,,,,,,,,,,,,,,,,,,,,,,,,,,,,,,,,,,,,,,179.1175266999635,179.1335174999549,179.63376079994487,179.61724559997674,179.62024319998454,179.63376079994487,179.63376079994487,179.63376079994487,183.3676306999987,Foils\009a.jpg,none,n,3.7319544999627396,None,,,,,,,,00053,001,2026-01-18_17h47.05.654,MST_test,2024.2.0,59.82503571244917,2026-01-18 17h47.14.014207 +0530,
11,0,12,s,1.410455200006254,None,12,0,11,183.3836437999853,,,,,,,,,,,,,,,,,,,,,,,,,,,,,,,,,,,,,,,,,,,,,,,,,,183.36772469995776,183.3836437999853,183.883945199952,183.86728799995035,183.88019869994605,183.883945199952,183.883945199952,183.883945199952,185.30093579995446,Scenes\113b.jpg,pre,s,1.410455200006254,None,,,,,,,,00053,001,2026-01-18_17h47.05.654,MST_test,2024.2.0,59.82503571244917,2026-01-18 17h47.14.014207 +0530,
12,0,13,s,6.460451900027692,None,13,0,12,185.3170620999881,,,,,,,,,,,,,,,,,,,,,,,,,,,,,,,,,,,,,,,,,,,,,,,,,,185.3010290999664,185.3170620999881,185.81740269996226,185.8007364999503,185.80396349995863,185.81740269996226,185.81740269996226,185.81740269996226,192.28430619998835,Foils\081a.jpg,none,s,6.460451900027692,None,,,,,,,,00053,001,2026-01-18_17h47.05.654,MST_test,2024.2.0,59.82503571244917,2026-01-18 17h47.14.014207 +0530,
13,0,14,o,2.781593299994711,None,14,0,13,192.30033499997808,,,,,,,,,,,,,,,,,,,,,,,,,,,,,,,,,,,,,,,,,,,,,,,,,,192.28440609999234,192.30033499997808,192.8008334999904,192.7838889999548,192.7907475999673,192.8008334999904,192.8008334999904,192.8008334999904,195.58426319999853,Scenes\008a.jpg,post,o,2.781593299994711,None,,,,,,,,00053,001,2026-01-18_17h47.05.654,MST_test,2024.2.0,59.82503571244917,2026-01-18 17h47.14.014207 +0530,
14,0,15,n,3.1452015999821015,None,15,0,14,195.60037819994614,,,,,,,,,,,,,,,,,,,,,,,,,,,,,,,,,,,,,,,,,,,,,,,,,,195.58436749997782,195.60037819994614,196.1006861999631,196.08381629997166,196.08714189997409,196.1006861999631,196.1006861999631,196.1006861999631,199.25104750000173,Foils\121a.jpg,none,n,3.1452015999821015,None,,,,,,,,00053,001,2026-01-18_17h47.05.654,MST_test,2024.2.0,59.82503571244917,2026-01-18 17h47.14.014207 +0530,
15,0,16,o,10.183042000047863,None,16,0,15,199.2671139999875,,,,,,,,,,,,,,,,,,,,,,,,,,,,,,,,,,,,,,,,,,,,,,,,,,199.25113879999844,199.2671139999875,199.76761209999677,199.75071029999526,199.75857710000128,199.76761209999677,199.76761209999677,199.76761209999677,209.95131499995477,Scenes\164a.jpg,post,o,10.183042000047863,None,,,,,,,,00053,001,2026-01-18_17h47.05.654,MST_test,2024.2.0,59.82503571244917,2026-01-18 17h47.14.014207 +0530,
16,0,17,o,6.242431699996814,None,17,0,16,209.96707709995098,,,,,,,,,,,,,,,,,,,,,,,,,,,,,,,,,,,,,,,,,,,,,,,,,,209.95140709995758,209.96707709995098,210.46742249996169,210.45054979994893,210.45645719999447,210.46742249996169,210.46742249996169,210.46742249996169,216.71747399994638,Scenes\075a.jpg,mid,o,6.242431699996814,None,,,,,,,,00053,001,2026-01-18_17h47.05.654,MST_test,2024.2.0,59.82503571244917,2026-01-18 17h47.14.014207 +0530,
17,0,18,n,1.5803198000066914,None,18,0,17,216.73357049998594,,,,,,,,,,,,,,,,,,,,,,,,,,,,,,,,,,,,,,,,,,,,,,,,,,216.71756619994994,216.73357049998594,217.23401009995723,217.21721849997994,217.22017889999552,217.23401009995723,217.23401009995723,217.23401009995723,218.81760039995424,Foils\074a.jpg,none,n,1.5803198000066914,None,,,,,,,,00053,001,2026-01-18_17h47.05.654,MST_test,2024.2.0,59.82503571244917,2026-01-18 17h47.14.014207 +0530,
18,0,19,o,4.728618299996015,None,19,0,18,218.83351149997907,,,,,,,,,,,,,,,,,,,,,,,,,,,,,,,,,,,,,,,,,,,,,,,,,,218.817692099954,218.83351149997907,219.3336417999817,219.31729709997308,219.31980479997583,219.3336417999817,219.3336417999817,219.3336417999817,224.06755519995932,Objects\124a.jpg,post,o,4.728618299996015,None,,,,,,,,00053,001,2026-01-18_17h47.05.654,MST_test,2024.2.0,59.82503571244917,2026-01-18 17h47.14.014207 +0530,
19,0,20,n,4.774062999989837,None,20,0,19,224.08352159999777,,,,,,,,,,,,,,,,,,,,,,,,,,,,,,,,,,,,,,,,,,,,,,,,,,224.06764909997582,224.08352159999777,224.58384679997107,224.56728379998822,224.56963240000186,224.58384679997107,224.58384679997107,224.58384679997107,229.36752379999962,Foils\scenes11.jpg,none,n,4.774062999989837,None,,,,,,,,00053,001,2026-01-18_17h47.05.654,MST_test,2024.2.0,59.82503571244917,2026-01-18 17h47.14.014207 +0530,
20,0,21,s,1.7066899999626912,None,21,0,20,229.38355989998672,,,,,,,,,,,,,,,,,,,,,,,,,,,,,,,,,,,,,,,,,,,,,,,,,,229.36761629994726,229.38355989998672,229.88375819998328,229.86726709996583,229.87018269998953,229.88375819998328,229.88375819998328,229.88375819998328,231.60098749998724,Objects\048a.jpg,post,s,1.7066899999626912,None,,,,,,,,00053,001,2026-01-18_17h47.05.654,MST_test,2024.2.0,59.82503571244917,2026-01-18 17h47.14.014207 +0530,
21,0,22,n,4.513439900008962,None,22,0,21,231.61703679995844,,,,,,,,,,,,,,,,,,,,,,,,,,,,,,,,,,,,,,,,,,,,,,,,,,231.6010879999958,231.61703679995844,232.1172001999803,232.1005443999893,232.11179299996002,232.1172001999803,232.1172001999803,232.1172001999803,236.6341404999839,Foils\101b.jpg,none,n,4.513439900008962,None,,,,,,,,00053,001,2026-01-18_17h47.05.654,MST_test,2024.2.0,59.82503571244917,2026-01-18 17h47.14.014207 +0530,
22,0,23,o,4.416189300012775,None,23,0,22,236.65037759998813,,,,,,,,,,,,,,,,,,,,,,,,,,,,,,,,,,,,,,,,,,,,,,,,,,236.6342416999978,236.65037759998813,237.15073259995552,237.13396599999396,237.14139039994916,237.15073259995552,237.15073259995552,237.15073259995552,241.56768779997947,Scenes\109a.jpg,mid,o,4.416189300012775,None,,,,,,,,00053,001,2026-01-18_17h47.05.654,MST_test,2024.2.0,59.82503571244917,2026-01-18 17h47.14.014207 +0530,
23,0,24,s,9.394785299955402,None,24,0,23,241.5835721999756,,,,,,,,,,,,,,,,,,,,,,,,,,,,,,,,,,,,,,,,,,,,,,,,,,241.56778099999065,241.5835721999756,242.08409519999987,242.0672752999817,242.07737590000033,242.08409519999987,242.08409519999987,242.08409519999987,251.48414089996368,Scenes\059a.jpg,pre,s,9.394785299955402,None,,,,,,,,00053,001,2026-01-18_17h47.05.654,MST_test,2024.2.0,59.82503571244917,2026-01-18 17h47.14.014207 +0530,
24,0,25,o,3.3327977000153624,None,25,0,24,251.5003088999656,,,,,,,,,,,,,,,,,,,,,,,,,,,,,,,,,,,,,,,,,,,,,,,,,,251.48424169997452,251.5003088999656,252.0008700999897,251.9838556999457,251.99320599995553,252.0008700999897,252.0008700999897,252.0008700999897,255.33441059995675,Scenes\189a.jpg,post,o,3.3327977000153624,None,,,,,,,,00053,001,2026-01-18_17h47.05.654,MST_test,2024.2.0,59.82503571244917,2026-01-18 17h47.14.014207 +0530,
25,0,26,n,5.386774100014009,None,26,0,25,255.35030849999748,,,,,,,,,,,,,,,,,,,,,,,,,,,,,,,,,,,,,,,,,,,,,,,,,,255.33450810000068,255.35030849999748,255.85094789997675,255.83373620000202,255.8434720999794,255.85094789997675,255.85094789997675,255.85094789997675,261.250897299964,Foils\scenes22.jpg,none,n,5.386774100014009,None,,,,,,,,00053,001,2026-01-18_17h47.05.654,MST_test,2024.2.0,59.82503571244917,2026-01-18 17h47.14.014207 +0530,
26,0,27,s,3.791308799991384,None,27,0,26,261.2669069999829,,,,,,,,,,,,,,,,,,,,,,,,,,,,,,,,,,,,,,,,,,,,,,,,,,261.2509879999561,261.2669069999829,261.7676528999582,261.75077139999485,261.7566326999804,261.7676528999582,261.7676528999582,261.7676528999582,265.5675230999477,Scenes\132a.jpg,mid,s,3.791308799991384,None,,,,,,,,00053,001,2026-01-18_17h47.05.654,MST_test,2024.2.0,59.82503571244917,2026-01-18 17h47.14.014207 +0530,
27,0,28,o,5.5456765000126325,None,28,0,27,265.58357649995014,,,,,,,,,,,,,,,,,,,,,,,,,,,,,,,,,,,,,,,,,,,,,,,,,,265.5676193999825,265.58357649995014,266.084077699983,266.0672516999766,266.0801386999665,266.084077699983,266.084077699983,266.084077699983,271.6340669999481,Objects\039b.jpg,pre,o,5.5456765000126325,None,,,,,,,,00053,001,2026-01-18_17h47.05.654,MST_test,2024.2.0,59.82503571244917,2026-01-18 17h47.14.014207 +0530,
28,0,29,n,2.4653262999490835,None,29,0,28,271.65030949999345,,,,,,,,,,,,,,,,,,,,,,,,,,,,,,,,,,,,,,,,,,,,,,,,,,271.634166099946,271.65030949999345,272.15688559995033,272.13386719999835,272.1547628999688,272.15688559995033,272.15688559995033,272.15688559995033,274.6341379999649,Scenes\090b.jpg,mid,n,2.4653262999490835,None,,,,,,,,00053,001,2026-01-18_17h47.05.654,MST_test,2024.2.0,59.82503571244917,2026-01-18 17h47.14.014207 +0530,
29,0,30,s,5.895547199994326,None,30,0,29,274.6502668999601,,,,,,,,,,,,,,,,,,,,,,,,,,,,,,,,,,,,,,,,,,,,,,,,,,274.6342359999544,274.6502668999601,275.1507856999524,275.13366130000213,275.13698089995887,275.1507856999524,275.1507856999524,275.1507856999524,281.05098239996005,Objects\169a.jpg,post,s,5.895547199994326,None,,,,,,,,00053,001,2026-01-18_17h47.05.654,MST_test,2024.2.0,59.82503571244917,2026-01-18 17h47.14.014207 +0530,
30,0,31,s,1.536524199997075,None,31,0,30,281.0669653999503,,,,,,,,,,,,,,,,,,,,,,,,,,,,,,,,,,,,,,,,,,,,,,,,,,281.0510784999933,281.0669653999503,281.5671272999607,281.5506870999816,281.5533790999907,281.5671272999607,281.5671272999607,281.5671272999607,283.11752029997297,Objects\174a.jpg,pre,s,1.536524199997075,None,,,,,,,,00053,001,2026-01-18_17h47.05.654,MST_test,2024.2.0,59.82503571244917,2026-01-18 17h47.14.014207 +0530,
31,0,32,o,1.3965539000346325,None,32,0,31,283.13346979999915,,,,,,,,,,,,,,,,,,,,,,,,,,,,,,,,,,,,,,,,,,,,,,,,,,283.1176269999705,283.13346979999915,283.6341205999488,283.6172958999523,283.62622049998026,283.6341205999488,283.6341205999488,283.6341205999488,285.0340775999939,Scenes\017b.jpg,post,o,1.3965539000346325,None,,,,,,,,00053,001,2026-01-18_17h47.05.654,MST_test,2024.2.0,59.82503571244917,2026-01-18 17h47.14.014207 +0530,
32,0,33,s,9.534942199999932,None,33,0,32,285.0502604999929,,,,,,,,,,,,,,,,,,,,,,,,,,,,,,,,,,,,,,,,,,,,,,,,,,285.0341709999484,285.0502604999929,285.5508270999999,285.53370159998303,285.5442051999853,285.5508270999999,285.5508270999999,285.5508270999999,295.10108110000147,Objects\093b.jpg,pre,s,9.534942199999932,None,,,,,,,,00053,001,2026-01-18_17h47.05.654,MST_test,2024.2.0,59.82503571244917,2026-01-18 17h47.14.014207 +0530,
33,0,34,s,1.6528182000038214,None,34,0,33,295.11699640000006,,,,,,,,,,,,,,,,,,,,,,,,,,,,,,,,,,,,,,,,,,,,,,,,,,295.1011875999975,295.11699640000006,295.6171784999897,295.600712799991,295.6038068999769,295.6171784999897,295.6171784999897,295.6171784999897,297.2841769999941,Foils\086a.jpg,none,s,1.6528182000038214,None,,,,,,,,00053,001,2026-01-18_17h47.05.654,MST_test,2024.2.0,59.82503571244917,2026-01-18 17h47.14.014207 +0530,
34,0,35,s,2.325552600028459,None,35,0,34,297.3002679999918,,,,,,,,,,,,,,,,,,,,,,,,,,,,,,,,,,,,,,,,,,,,,,,,,,297.2842710999539,297.3002679999918,297.80045299994526,297.7839934999938,297.78647559997626,297.80045299994526,297.80045299994526,297.80045299994526,300.13427669997327,Objects\132a.jpg,mid,s,2.325552600028459,None,,,,,,,,00053,001,2026-01-18_17h47.05.654,MST_test,2024.2.0,59.82503571244917,2026-01-18 17h47.14.014207 +0530,
35,0,36,s,1.2835365000064485,None,36,0,35,300.1502493000007,,,,,,,,,,,,,,,,,,,,,,,,,,,,,,,,,,,,,,,,,,,,,,,,,,300.13437589997193,300.1502493000007,300.6507386000012,300.63418209995143,300.6434721999685,300.6507386000012,300.6507386000012,300.6507386000012,301.9511576999794,Objects\027b.jpg,post,s,1.2835365000064485,None,,,,,,,,00053,001,2026-01-18_17h47.05.654,MST_test,2024.2.0,59.82503571244917,2026-01-18 17h47.14.014207 +0530,
36,0,37,s,2.827026000013575,None,37,0,36,301.9671512999921,,,,,,,,,,,,,,,,,,,,,,,,,,,,,,,,,,,,,,,,,,,,,,,,,,301.95129669999005,301.9671512999921,302.46727249998366,302.4507285999716,302.4601775999763,302.46727249998366,302.46727249998366,302.46727249998366,305.30099689995404,Objects\054b.jpg,post,s,2.827026000013575,None,,,,,,,,00053,001,2026-01-18_17h47.05.654,MST_test,2024.2.0,59.82503571244917,2026-01-18 17h47.14.014207 +0530,
37,0,38,s,1.172044500010088,None,38,0,37,305.31710159999784,,,,,,,,,,,,,,,,,,,,,,,,,,,,,,,,,,,,,,,,,,,,,,,,,,305.3010973999626,305.31710159999784,305.8176511999918,305.80061299999943,305.8091263999813,305.8176511999918,305.8176511999918,305.8176511999918,307.00101609999547,Scenes\055a.jpg,pre,s,1.172044500010088,None,,,,,,,,00053,001,2026-01-18_17h47.05.654,MST_test,2024.2.0,59.82503571244917,2026-01-18 17h47.14.014207 +0530,
38,0,39,n,2.1448167000198737,None,39,0,38,307.0171170999529,,,,,,,,,,,,,,,,,,,,,,,,,,,,,,,,,,,,,,,,,,,,,,,,,,307.00110819999827,307.0171170999529,307.51748479995877,307.50079439999536,307.5097319999477,307.51748479995877,307.51748479995877,307.51748479995877,309.6677309999941,Foils\scenes6.jpg,none,n,2.1448167000198737,None,,,,,,,,00053,001,2026-01-18_17h47.05.654,MST_test,2024.2.0,59.82503571244917,2026-01-18 17h47.14.014207 +0530,
39,0,40,s,1.7737012000288814,None,40,0,39,309.68376459996216,,,,,,,,,,,,,,,,,,,,,,,,,,,,,,,,,,,,,,,,,,,,,,,,,,309.6678295999882,309.68376459996216,310.18399719998706,310.16750649997266,310.17685459996574,310.18399719998706,310.18399719998706,310.18399719998706,311.96770799998194,Foils\scenes8.jpg,none,s,1.7737012000288814,None,,,,,,,,00053,001,2026-01-18_17h47.05.654,MST_test,2024.2.0,59.82503571244917,2026-01-18 17h47.14.014207 +0530,
40,0,41,s,1.3380042999633588,None,41,0,40,311.9836792999995,,,,,,,,,,,,,,,,,,,,,,,,,,,,,,,,,,,,,,,,,,,,,,,,,,311.9678012999939,311.9836792999995,312.4839876999613,312.4673766999622,312.4768358999863,312.4839876999613,312.4839876999613,312.4839876999613,313.8344885999686,Objects\062b.jpg,pre,s,1.3380042999633588,None,,,,,,,,00053,001,2026-01-18_17h47.05.654,MST_test,2024.2.0,59.82503571244917,2026-01-18 17h47.14.014207 +0530,
41,0,42,s,1.399086499994155,None,42,0,41,313.8503865999519,,,,,,,,,,,,,,,,,,,,,,,,,,,,,,,,,,,,,,,,,,,,,,,,,,313.83459269994637,313.8503865999519,314.35065109998686,314.3340676999651,314.3433072999469,314.35065109998686,314.35065109998686,314.35065109998686,315.7510612999904,Objects\165b.jpg,pre,s,1.399086499994155,None,,,,,,,,00053,001,2026-01-18_17h47.05.654,MST_test,2024.2.0,59.82503571244917,2026-01-18 17h47.14.014207 +0530,
42,0,43,s,2.1148365000262856,None,43,0,42,315.7670098999515,,,,,,,,,,,,,,,,,,,,,,,,,,,,,,,,,,,,,,,,,,,,,,,,,,315.75115589995403,315.7670098999515,316.2673612999497,316.2506729999441,316.26020319998497,316.2673612999497,316.2673612999497,316.2673612999497,318.3844193999539,Objects\153b.jpg,mid,s,2.1148365000262856,None,,,,,,,,00053,001,2026-01-18_17h47.05.654,MST_test,2024.2.0,59.82503571244917,2026-01-18 17h47.14.014207 +0530,
43,0,44,o,1.4254003000096418,None,44,0,43,318.40038139995886,,,,,,,,,,,,,,,,,,,,,,,,,,,,,,,,,,,,,,,,,,,,,,,,,,318.38451039994834,318.40038139995886,318.9006844999967,318.8839506999939,318.88720159995137,318.9006844999967,318.9006844999967,318.9006844999967,320.3343706000014,Objects\144a.jpg,post,o,1.4254003000096418,None,,,,,,,,00053,001,2026-01-18_17h47.05.654,MST_test,2024.2.0,59.82503571244917,2026-01-18 17h47.14.014207 +0530,
44,0,45,s,4.058896599977743,None,45,0,44,320.3503658999689,,,,,,,,,,,,,,,,,,,,,,,,,,,,,,,,,,,,,,,,,,,,,,,,,,320.33446649997495,320.3503658999689,320.85095589997945,320.83406599995214,320.8429880999611,320.85095589997945,320.85095589997945,320.85095589997945,324.91756349999923,Scenes\063a.jpg,post,s,4.058896599977743,None,,,,,,,,00053,001,2026-01-18_17h47.05.654,MST_test,2024.2.0,59.82503571244917,2026-01-18 17h47.14.014207 +0530,
45,0,46,n,3.387614000006579,None,46,0,45,324.9336919999914,,,,,,,,,,,,,,,,,,,,,,,,,,,,,,,,,,,,,,,,,,,,,,,,,,324.91765659995144,324.9336919999914,325.4341781999683,325.4173759999685,325.42080969997915,325.4341781999683,325.4341781999683,325.4341781999683,328.8343155999901,Foils\090a.jpg,none,n,3.387614000006579,None,,,,,,,,00053,001,2026-01-18_17h47.05.654,MST_test,2024.2.0,59.82503571244917,2026-01-18 17h47.14.014207 +0530,
46,0,47,s,1.5358336999779567,None,47,0,46,328.8504383999971,,,,,,,,,,,,,,,,,,,,,,,,,,,,,,,,,,,,,,,,,,,,,,,,,,328.83440729998983,328.8504383999971,329.35060249996604,329.3339362999541,329.3367723999545,329.35060249996604,329.35060249996604,329.35060249996604,330.90089269995224,Objects\036a.jpg,pre,s,1.5358336999779567,None,,,,,,,,00053,001,2026-01-18_17h47.05.654,MST_test,2024.2.0,59.82503571244917,2026-01-18 17h47.14.014207 +0530,
47,0,48,s,8.780125200049952,None,48,0,47,330.91697609995026,,,,,,,,,,,,,,,,,,,,,,,,,,,,,,,,,,,,,,,,,,,,,,,,,,330.90099409996765,330.91697609995026,331.41757609997876,331.40068389999215,331.411404799961,331.41757609997876,331.41757609997876,331.41757609997876,340.2010735999793,Scenes\025b.jpg,pre,s,8.780125200049952,None,,,,,,,,00053,001,2026-01-18_17h47.05.654,MST_test,2024.2.0,59.82503571244917,2026-01-18 17h47.14.014207 +0530,
48,0,49,s,10.889045100018848,None,49,0,48,340.2170842999476,,,,,,,,,,,,,,,,,,,,,,,,,,,,,,,,,,,,,,,,,,,,,,,,,,340.20116810000036,340.2170842999476,340.7175683999667,340.70074849994853,340.7039353,340.7175683999667,340.7175683999667,340.7175683999667,351.6178780999617,Objects\041a.jpg,mid,s,10.889045100018848,None,,,,,,,,00053,001,2026-01-18_17h47.05.654,MST_test,2024.2.0,59.82503571244917,2026-01-18 17h47.14.014207 +0530,
49,0,50,n,3.5760708999587223,None,50,0,49,351.6337084999541,,,,,,,,,,,,,,,,,,,,,,,,,,,,,,,,,,,,,,,,,,,,,,,,,,351.61798219999764,351.6337084999541,352.1341482999851,352.11738319997676,352.11970250000013,352.1341482999851,352.1341482999851,352.1341482999851,355.71771289996104,Foils\scenes2.jpg,none,n,3.5760708999587223,None,,,,,,,,00053,001,2026-01-18_17h47.05.654,MST_test,2024.2.0,59.82503571244917,2026-01-18 17h47.14.014207 +0530,
50,0,51,o,2.5336192999966443,None,51,0,50,355.73369779996574,,,,,,,,,,,,,,,,,,,,,,,,,,,,,,,,,,,,,,,,,,,,,,,,,,355.71780679997755,355.73369779996574,356.23388329998124,356.21741529996507,356.2205274999724,356.23388329998124,356.23388329998124,356.23388329998124,358.7850105999969,Objects\129a.jpg,mid,o,2.5336192999966443,None,,,,,,,,00053,001,2026-01-18_17h47.05.654,MST_test,2024.2.0,59.82503571244917,2026-01-18 17h47.14.014207 +0530,
51,0,52,n,4.533700300031342,None,52,0,51,358.8003299999982,,,,,,,,,,,,,,,,,,,,,,,,,,,,,,,,,,,,,,,,,,,,,,,,,,358.7851088999887,358.8003299999982,359.30412699998124,359.2837614999735,359.30212339997524,359.30412699998124,359.30412699998124,359.30412699998124,363.8509163999697,Scenes\047b.jpg,pre,n,4.533700300031342,None,,,,,,,,00053,001,2026-01-18_17h47.05.654,MST_test,2024.2.0,59.82503571244917,2026-01-18 17h47.14.014207 +0530,
52,0,53,s,2.0151129000005312,None,53,0,52,363.8669742999482,,,,,,,,,,,,,,,,,,,,,,,,,,,,,,,,,,,,,,,,,,,,,,,,,,363.85100919997785,363.8669742999482,364.36748299998,364.35068919998594,364.35404999996535,364.36748299998,364.36748299998,364.36748299998,366.38409589999355,Objects\053a.jpg,post,s,2.0151129000005312,None,,,,,,,,00053,001,2026-01-18_17h47.05.654,MST_test,2024.2.0,59.82503571244917,2026-01-18 17h47.14.014207 +0530,
53,0,54,s,2.5212049999972805,None,54,0,53,366.4003357999609,,,,,,,,,,,,,,,,,,,,,,,,,,,,,,,,,,,,,,,,,,,,,,,,,,366.3841881999979,366.4003357999609,366.90175989997806,366.883855699969,366.8992751999758,366.90175989997806,366.90175989997806,366.90175989997806,369.4341646999819,Scenes\024b.jpg,post,s,2.5212049999972805,None,,,,,,,,00053,001,2026-01-18_17h47.05.654,MST_test,2024.2.0,59.82503571244917,2026-01-18 17h47.14.014207 +0530,
54,0,55,s,1.7435332000022754,None,55,0,54,369.4503557999851,,,,,,,,,,,,,,,,,,,,,,,,,,,,,,,,,,,,,,,,,,,,,,,,,,369.43425669998396,369.4503557999851,369.95085579995066,369.93377289996715,369.94356960000005,369.95085579995066,369.95085579995066,369.95085579995066,371.70112339995103,Objects\186b.jpg,mid,s,1.7435332000022754,None,,,,,,,,00053,001,2026-01-18_17h47.05.654,MST_test,2024.2.0,59.82503571244917,2026-01-18 17h47.14.014207 +0530,
55,0,56,o,2.4926282999804243,None,56,0,55,371.7170394999557,,,,,,,,,,,,,,,,,,,,,,,,,,,,,,,,,,,,,,,,,,,,,,,,,,371.7012165999622,371.7170394999557,372.2173613999621,372.2010204999824,372.2044811999658,372.2173613999621,372.2173613999621,372.2173613999621,374.71755839994876,Scenes\033a.jpg,mid,o,2.4926282999804243,None,,,,,,,,00053,001,2026-01-18_17h47.05.654,MST_test,2024.2.0,59.82503571244917,2026-01-18 17h47.14.014207 +0530,
56,0,57,s,2.1485273000434972,None,57,0,56,374.73361469997326,,,,,,,,,,,,,,,,,,,,,,,,,,,,,,,,,,,,,,,,,,,,,,,,,,374.71765209996374,374.73361469997326,375.23399819998303,375.21728369995253,375.2204213999794,375.23399819998303,375.23399819998303,375.23399819998303,377.38406279997434,Foils\034a.jpg,none,s,2.1485273000434972,None,,,,,,,,00053,001,2026-01-18_17h47.05.654,MST_test,2024.2.0,59.82503571244917,2026-01-18 17h47.14.014207 +0530,
57,0,58,o,3.889301199989859,None,58,0,57,377.40033559995936,,,,,,,,,,,,,,,,,,,,,,,,,,,,,,,,,,,,,,,,,,,,,,,,,,377.38415779999923,377.40033559995936,377.90066679997835,377.8838134999969,377.8866977999569,377.90066679997835,377.90066679997835,377.90066679997835,381.8011772999889,Objects\189a.jpg,mid,o,3.889301199989859,None,,,,,,,,00053,001,2026-01-18_17h47.05.654,MST_test,2024.2.0,59.82503571244917,2026-01-18 17h47.14.014207 +0530,
58,0,59,s,4.608879799954593,None,59,0,58,381.81701749999775,,,,,,,,,,,,,,,,,,,,,,,,,,,,,,,,,,,,,,,,,,,,,,,,,,381.801269699994,381.81701749999775,382.3175745999906,382.30052959994646,382.3068064999534,382.3175745999906,382.3175745999906,382.3175745999906,386.9341041999869,Scenes\074b.jpg,mid,s,4.608879799954593,None,,,,,,,,00053,001,2026-01-18_17h47.05.654,MST_test,2024.2.0,59.82503571244917,2026-01-18 17h47.14.014207 +0530,
59,0,60,s,12.243038500018883,None,60,0,59,386.95034799998393,,,,,,,,,,,,,,,,,,,,,,,,,,,,,,,,,,,,,,,,,,,,,,,,,,386.9341986999498,386.95034799998393,387.4508602999849,387.4339390999521,387.4476829999476,387.4508602999849,387.4508602999849,387.4508602999849,399.7010620999499,Objects\096b.jpg,post,s,12.243038500018883,None,,,,,,,,00053,001,2026-01-18_17h47.05.654,MST_test,2024.2.0,59.82503571244917,2026-01-18 17h47.14.014207 +0530,
60,0,61,n,2.2779895000276156,None,61,0,60,399.7170389999519,,,,,,,,,,,,,,,,,,,,,,,,,,,,,,,,,,,,,,,,,,,,,,,,,,399.70115459995577,399.7170389999519,400.27370510000037,400.2007245999994,400.270783999993,400.27370510000037,400.27370510000037,400.27370510000037,402.567519299977,Foils\scenes25.jpg,none,n,2.2779895000276156,None,,,,,,,,00053,001,2026-01-18_17h47.05.654,MST_test,2024.2.0,59.82503571244917,2026-01-18 17h47.14.014207 +0530,
61,0,62,s,1.3138039999757893,None,62,0,61,402.583704699995,,,,,,,,,,,,,,,,,,,,,,,,,,,,,,,,,,,,,,,,,,,,,,,,,,402.5676142000011,402.583704699995,403.084793899965,403.0670970999636,403.0826472999761,403.084793899965,403.084793899965,403.084793899965,404.400905699993,Scenes\140b.jpg,mid,s,1.3138039999757893,None,,,,,,,,00053,001,2026-01-18_17h47.05.654,MST_test,2024.2.0,59.82503571244917,2026-01-18 17h47.14.014207 +0530,
62,0,63,o,2.5535067000309937,None,63,0,62,404.41689199995017,,,,,,,,,,,,,,,,,,,,,,,,,,,,,,,,,,,,,,,,,,,,,,,,,,404.400998899946,404.41689199995017,404.9173531999695,404.9006855999469,404.90353969996795,404.9173531999695,404.9173531999695,404.9173531999695,407.48426469997503,Objects\021a.jpg,post,o,2.5535067000309937,None,,,,,,,,00053,001,2026-01-18_17h47.05.654,MST_test,2024.2.0,59.82503571244917,2026-01-18 17h47.14.014207 +0530,
63,0,64,o,4.070528300013393,None,64,0,63,407.500299599953,,,,,,,,,,,,,,,,,,,,,,,,,,,,,,,,,,,,,,,,,,,,,,,,,,407.48435909999534,407.500299599953,408.00082649994874,407.9839276999701,407.99012819997733,408.00082649994874,408.00082649994874,408.00082649994874,412.08434539998416,Scenes\007a.jpg,pre,o,4.070528300013393,None,,,,,,,,00053,001,2026-01-18_17h47.05.654,MST_test,2024.2.0,59.82503571244917,2026-01-18 17h47.14.014207 +0530,
64,0,65,n,3.97046360000968,None,65,0,64,412.10036699997727,,,,,,,,,,,,,,,,,,,,,,,,,,,,,,,,,,,,,,,,,,,,,,,,,,412.0844420999638,412.10036699997727,412.60331549996044,412.5839136999566,412.6011389999767,412.60331549996044,412.60331549996044,412.60331549996044,416.58425489999354,Scenes\091b.jpg,post,n,3.97046360000968,None,,,,,,,,00053,001,2026-01-18_17h47.05.654,MST_test,2024.2.0,59.82503571244917,2026-01-18 17h47.14.014207 +0530,
65,0,66,s,5.529843299998902,None,66,0,65,416.6003616999951,,,,,,,,,,,,,,,,,,,,,,,,,,,,,,,,,,,,,,,,,,,,,,,,,,416.58434949995717,416.6003616999951,417.10090419999324,417.08407349995105,417.0922803999856,417.10090419999324,417.10090419999324,417.10090419999324,422.6344881999539,Scenes\187a.jpg,pre,s,5.529843299998902,None,,,,,,,,00053,001,2026-01-18_17h47.05.654,MST_test,2024.2.0,59.82503571244917,2026-01-18 17h47.14.014207 +0530,
66,0,67,o,4.652080999978352,None,67,0,66,422.65048979996936,,,,,,,,,,,,,,,,,,,,,,,,,,,,,,,,,,,,,,,,,,,,,,,,,,422.63458799995715,422.65048979996936,423.15424009994604,423.1340189999901,423.1516914999811,423.15424009994604,423.15424009994604,423.15424009994604,427.8177487999783,Scenes\066b.jpg,pre,o,4.652080999978352,None,,,,,,,,00053,001,2026-01-18_17h47.05.654,MST_test,2024.2.0,59.82503571244917,2026-01-18 17h47.14.014207 +0530,
67,0,68,s,3.3591461000032723,None,68,0,67,427.8337343999883,,,,,,,,,,,,,,,,,,,,,,,,,,,,,,,,,,,,,,,,,,,,,,,,,,427.81784279999556,427.8337343999883,428.3346096999594,428.3173738999758,428.3250054999953,428.3346096999594,428.3346096999594,428.3346096999594,431.7012882999843,Scenes\144a.jpg,mid,s,3.3591461000032723,None,,,,,,,,00053,001,2026-01-18_17h47.05.654,MST_test,2024.2.0,59.82503571244917,2026-01-18 17h47.14.014207 +0530,
68,0,69,o,2.62036200001603,None,69,0,68,431.7172351999907,,,,,,,,,,,,,,,,,,,,,,,,,,,,,,,,,,,,,,,,,,,,,,,,,,431.7013837999548,431.7172351999907,432.21768179995706,432.2007651999593,432.21107789996313,432.21768179995706,432.21768179995706,432.21768179995706,434.85097319999477,Scenes\081a.jpg,post,o,2.62036200001603,None,,,,,,,,00053,001,2026-01-18_17h47.05.654,MST_test,2024.2.0,59.82503571244917,2026-01-18 17h47.14.014207 +0530,
69,0,70,s,7.838254100002814,None,70,0,69,434.8670501000015,,,,,,,,,,,,,,,,,,,,,,,,,,,,,,,,,,,,,,,,,,,,,,,,,,434.85110829997575,434.8670501000015,435.3676911999937,435.35071999998763,435.36058669997146,435.3676911999937,435.3676911999937,435.3676911999937,443.2178112999536,Foils\018a.jpg,none,s,7.838254100002814,None,,,,,,,,00053,001,2026-01-18_17h47.05.654,MST_test,2024.2.0,59.82503571244917,2026-01-18 17h47.14.014207 +0530,
70,0,71,s,1.040142800018657,None,71,0,70,443.2338114999584,,,,,,,,,,,,,,,,,,,,,,,,,,,,,,,,,,,,,,,,,,,,,,,,,,443.21791939996183,443.2338114999584,443.7341221999959,443.717222999956,443.72724559996277,443.7341221999959,443.7341221999959,443.7341221999959,444.78451399999904,Objects\176b.jpg,pre,s,1.040142800018657,None,,,,,,,,00053,001,2026-01-18_17h47.05.654,MST_test,2024.2.0,59.82503571244917,2026-01-18 17h47.14.014207 +0530,
71,0,72,n,4.697354800009634,None,72,0,71,444.8003741999855,,,,,,,,,,,,,,,,,,,,,,,,,,,,,,,,,,,,,,,,,,,,,,,,,,444.78461149998475,444.8003741999855,445.3006337999832,445.28404249995947,445.2866598999826,445.3006337999832,445.3006337999832,445.3006337999832,450.0010972999735,Foils\020b.jpg,none,n,4.697354800009634,None,,,,,,,,00053,001,2026-01-18_17h47.05.654,MST_test,2024.2.0,59.82503571244917,2026-01-18 17h47.14.014207 +0530,
72,0,73,s,1.2255748999887146,None,73,0,72,450.0170521999826,,,,,,,,,,,,,,,,,,,,,,,,,,,,,,,,,,,,,,,,,,,,,,,,,,450.00119389995234,450.0170521999826,450.5173711999669,450.50080989999697,450.50887939997483,450.5173711999669,450.5173711999669,450.5173711999669,451.7510519999778,Scenes\178b.jpg,mid,s,1.2255748999887146,None,,,,,,,,00053,001,2026-01-18_17h47.05.654,MST_test,2024.2.0,59.82503571244917,2026-01-18 17h47.14.014207 +0530,
73,0,74,s,1.8724210999789648,None,74,0,73,451.7670065999846,,,,,,,,,,,,,,,,,,,,,,,,,,,,,,,,,,,,,,,,,,,,,,,,,,451.7511491999612,451.7670065999846,452.2698660999886,452.25070539995795,452.2677798999939,452.2698660999886,452.2698660999886,452.2698660999886,454.1511513000005,Scenes\172b.jpg,post,s,1.8724210999789648,None,,,,,,,,00053,001,2026-01-18_17h47.05.654,MST_test,2024.2.0,59.82503571244917,2026-01-18 17h47.14.014207 +0530,
74,0,75,s,1.5304938000044785,None,75,0,74,454.16710009996314,,,,,,,,,,,,,,,,,,,,,,,,,,,,,,,,,,,,,,,,,,,,,,,,,,454.1512573999935,454.16710009996314,454.6675668999669,454.6507504999754,454.66551819996675,454.6675668999669,454.6675668999669,454.6675668999669,456.20106619998114,Scenes\162b.jpg,post,s,1.5304938000044785,None,,,,,,,,00053,001,2026-01-18_17h47.05.654,MST_test,2024.2.0,59.82503571244917,2026-01-18 17h47.14.014207 +0530,
75,0,76,o,1.7290938000078313,None,76,0,75,456.21700219996274,,,,,,,,,,,,,,,,,,,,,,,,,,,,,,,,,,,,,,,,,,,,,,,,,,456.2011694999528,456.21700219996274,456.7175303999684,456.7007306999876,456.7038975999458,456.7175303999684,456.7175303999684,456.7175303999684,458.4511640999699,Objects\017a.jpg,pre,o,1.7290938000078313,None,,,,,,,,00053,001,2026-01-18_17h47.05.654,MST_test,2024.2.0,59.82503571244917,2026-01-18 17h47.14.014207 +0530,
76,0,77,s,3.1351040999870747,None,77,0,76,458.4671440999955,,,,,,,,,,,,,,,,,,,,,,,,,,,,,,,,,,,,,,,,,,,,,,,,,,458.45126179995714,458.4671440999955,458.9673711999785,458.95064989995444,458.96043459995417,458.9673711999785,458.9673711999785,458.9673711999785,462.1176927999477,Objects\019b.jpg,mid,s,3.1351040999870747,None,,,,,,,,00053,001,2026-01-18_17h47.05.654,MST_test,2024.2.0,59.82503571244917,2026-01-18 17h47.14.014207 +0530,
77,0,78,s,1.8765855000237934,None,78,0,77,462.1338178999722,,,,,,,,,,,,,,,,,,,,,,,,,,,,,,,,,,,,,,,,,,,,,,,,,,462.1177884999779,462.1338178999722,462.6339922999614,462.61737549997633,462.62006469996413,462.6339922999614,462.6339922999614,462.6339922999614,464.51771739998367,Objects\185b.jpg,pre,s,1.8765855000237934,None,,,,,,,,00053,001,2026-01-18_17h47.05.654,MST_test,2024.2.0,59.82503571244917,2026-01-18 17h47.14.014207 +0530,
78,0,79,o,2.180139100004453,None,79,0,78,464.5337233999744,,,,,,,,,,,,,,,,,,,,,,,,,,,,,,,,,,,,,,,,,,,,,,,,,,464.5178161999793,464.5337233999744,465.0343528999947,465.0173840999487,465.02553819998866,465.0343528999947,465.0343528999947,465.0343528999947,467.2178325999994,Scenes\052a.jpg,pre,o,2.180139100004453,None,,,,,,,,00053,001,2026-01-18_17h47.05.654,MST_test,2024.2.0,59.82503571244917,2026-01-18 17h47.14.014207 +0530,
79,0,80,s,1.3836902999901213,None,80,0,79,467.2339690999943,,,,,,,,,,,,,,,,,,,,,,,,,,,,,,,,,,,,,,,,,,,,,,,,,,467.21792479994474,467.2339690999943,467.7341826999909,467.7174172999803,467.7281047999859,467.7341826999909,467.7341826999909,467.7341826999909,469.13489219994517,Objects\026b.jpg,post,s,1.3836902999901213,None,,,,,,,,00053,001,2026-01-18_17h47.05.654,MST_test,2024.2.0,59.82503571244917,2026-01-18 17h47.14.014207 +0530,
80,0,81,s,1.483126200037077,None,81,0,80,469.15052239998477,,,,,,,,,,,,,,,,,,,,,,,,,,,,,,,,,,,,,,,,,,,,,,,,,,469.1349978999933,469.15052239998477,469.6506870999583,469.63396469998406,469.6435601999983,469.6506870999583,469.6506870999583,469.6506870999583,471.13460249995114,Objects\064b.jpg,post,s,1.483126200037077,None,,,,,,,,00053,001,2026-01-18_17h47.05.654,MST_test,2024.2.0,59.82503571244917,2026-01-18 17h47.14.014207 +0530,
81,0,82,s,1.6757130000041798,None,82,0,81,471.1504713999457,,,,,,,,,,,,,,,,,,,,,,,,,,,,,,,,,,,,,,,,,,,,,,,,,,471.13469359994633,471.1504713999457,471.65072139998665,471.63412069994956,471.64437479997287,471.65072139998665,471.65072139998665,471.65072139998665,473.33440829999745,Objects\024b.jpg,pre,s,1.6757130000041798,None,,,,,,,,00053,001,2026-01-18_17h47.05.654,MST_test,2024.2.0,59.82503571244917,2026-01-18 17h47.14.014207 +0530,
82,0,83,s,1.275496500020381,None,83,0,82,473.35043999995105,,,,,,,,,,,,,,,,,,,,,,,,,,,,,,,,,,,,,,,,,,,,,,,,,,473.3345022999565,473.35043999995105,473.85085219994653,473.8343222999829,473.8410374999512,473.85085219994653,473.85085219994653,473.85085219994653,475.13436649995856,Scenes\018a.jpg,pre,s,1.275496500020381,None,,,,,,,,00053,001,2026-01-18_17h47.05.654,MST_test,2024.2.0,59.82503571244917,2026-01-18 17h47.14.014207 +0530,
83,0,84,s,4.290996900002938,None,84,0,83,475.15055889997166,,,,,,,,,,,,,,,,,,,,,,,,,,,,,,,,,,,,,,,,,,,,,,,,,,475.1344680999755,475.15055889997166,475.65116179996403,475.63406559999567,475.64388719998533,475.65116179996403,475.65116179996403,475.65116179996403,479.9510995000019,Scenes\158a.jpg,post,s,4.290996900002938,None,,,,,,,,00053,001,2026-01-18_17h47.05.654,MST_test,2024.2.0,59.82503571244917,2026-01-18 17h47.14.014207 +0530,
84,0,85,o,1.5705595999606885,None,85,0,84,479.9668971999781,,,,,,,,,,,,,,,,,,,,,,,,,,,,,,,,,,,,,,,,,,,,,,,,,,479.95120019995375,479.9668971999781,480.4672681999509,480.45068589999573,480.45409149996703,480.4672681999509,480.4672681999509,480.4672681999509,482.0510078999796,Objects\028a.jpg,mid,o,1.5705595999606885,None,,,,,,,,00053,001,2026-01-18_17h47.05.654,MST_test,2024.2.0,59.82503571244917,2026-01-18 17h47.14.014207 +0530,
85,0,86,s,5.038819200010039,None,86,0,85,482.0667986999615,,,,,,,,,,,,,,,,,,,,,,,,,,,,,,,,,,,,,,,,,,,,,,,,,,482.0510999999824,482.0667986999615,482.5673842999968,482.5506158999633,482.55941819999134,482.5673842999968,482.5673842999968,482.5673842999968,487.6175011000014,Scenes\110a.jpg,post,s,5.038819200010039,None,,,,,,,,00053,001,2026-01-18_17h47.05.654,MST_test,2024.2.0,59.82503571244917,2026-01-18 17h47.14.014207 +0530,
86,0,87,s,5.160420900036115,None,87,0,86,487.6337105999701,,,,,,,,,,,,,,,,,,,,,,,,,,,,,,,,,,,,,,,,,,,,,,,,,,487.61759509996045,487.6337105999701,488.13417609996395,488.1172938999953,488.1233655999531,488.13417609996395,488.13417609996395,488.13417609996395,493.30091489996994,Scenes\188b.jpg,post,s,5.160420900036115,None,,,,,,,,00053,001,2026-01-18_17h47.05.654,MST_test,2024.2.0,59.82503571244917,2026-01-18 17h47.14.014207 +0530,
87,0,88,n,1.4936097999452613,None,88,0,87,493.31696289998945,,,,,,,,,,,,,,,,,,,,,,,,,,,,,,,,,,,,,,,,,,,,,,,,,,493.301006899972,493.31696289998945,493.817456699966,493.8006349999923,493.8107115999446,493.817456699966,493.817456699966,493.817456699966,495.31748139997944,Foils\017a.jpg,none,n,1.4936097999452613,None,,,,,,,,00053,001,2026-01-18_17h47.05.654,MST_test,2024.2.0,59.82503571244917,2026-01-18 17h47.14.014207 +0530,
88,0,89,s,4.741255999950226,None,89,0,88,495.3337133999448,,,,,,,,,,,,,,,,,,,,,,,,,,,,,,,,,,,,,,,,,,,,,,,,,,495.31757269997615,495.3337133999448,495.8338671999518,495.81713489996037,495.8199499999755,495.8338671999518,495.8338671999518,495.8338671999518,500.5843824999756,Objects\037a.jpg,pre,s,4.741255999950226,None,,,,,,,,00053,001,2026-01-18_17h47.05.654,MST_test,2024.2.0,59.82503571244917,2026-01-18 17h47.14.014207 +0530,
89,0,90,o,1.3772803000174463,None,90,0,89,500.6003071999876,,,,,,,,,,,,,,,,,,,,,,,,,,,,,,,,,,,,,,,,,,,,,,,,,,500.5844759999891,500.6003071999876,501.100689599989,501.0841219999711,501.0870417999686,501.100689599989,501.100689599989,501.100689599989,502.4842976999935,Objects\007a.jpg,mid,o,1.3772803000174463,None,,,,,,,,00053,001,2026-01-18_17h47.05.654,MST_test,2024.2.0,59.82503571244917,2026-01-18 17h47.14.014207 +0530,
90,0,91,n,3.1815981999970973,None,91,0,90,502.5003130999976,,,,,,,,,,,,,,,,,,,,,,,,,,,,,,,,,,,,,,,,,,,,,,,,,,502.4843889999902,502.5003130999976,503.0005849999725,502.98398079996696,502.98662159999367,503.0005849999725,503.0005849999725,503.0005849999725,506.18433489999734,Foils\073a.jpg,none,n,3.1815981999970973,None,,,,,,,,00053,001,2026-01-18_17h47.05.654,MST_test,2024.2.0,59.82503571244917,2026-01-18 17h47.14.014207 +0530,
91,0,92,o,7.977508000039961,None,92,0,91,506.2003128999495,,,,,,,,,,,,,,,,,,,,,,,,,,,,,,,,,,,,,,,,,,,,,,,,,,506.18442749994574,506.2003128999495,506.7007845999906,506.6841497999849,506.6912124999799,506.7007845999906,506.7007845999906,506.7007845999906,514.6845406999928,Scenes\177a.jpg,post,o,7.977508000039961,None,,,,,,,,00053,001,2026-01-18_17h47.05.654,MST_test,2024.2.0,59.82503571244917,2026-01-18 17h47.14.014207 +0530,
92,0,93,s,2.516676799976267,None,93,0,92,514.7003908999613,,,,,,,,,,,,,,,,,,,,,,,,,,,,,,,,,,,,,,,,,,,,,,,,,,514.6846446999698,514.7003908999613,515.2020038999617,515.1838877999689,515.1999997999519,515.2020038999617,515.2020038999617,515.2020038999617,517.7343275999883,Foils\scenes27.jpg,none,s,2.516676799976267,None,,,,,,,,00053,001,2026-01-18_17h47.05.654,MST_test,2024.2.0,59.82503571244917,2026-01-18 17h47.14.014207 +0530,
93,0,94,s,1.7600495000369847,None,94,0,93,517.7504145999555,,,,,,,,,,,,,,,,,,,,,,,,,,,,,,,,,,,,,,,,,,,,,,,,,,517.734435499995,517.7504145999555,518.254433999944,518.2338713999488,518.2521596999723,518.254433999944,518.254433999944,518.254433999944,520.0176640999853,Scenes\041b.jpg,mid,s,1.7600495000369847,None,,,,,,,,00053,001,2026-01-18_17h47.05.654,MST_test,2024.2.0,59.82503571244917,2026-01-18 17h47.14.014207 +0530,
94,0,95,s,6.7359204000094905,None,95,0,94,520.0336464999709,,,,,,,,,,,,,,,,,,,,,,,,,,,,,,,,,,,,,,,,,,,,,,,,,,520.017755799985,520.0336464999709,520.5342829999863,520.5172591999872,520.5272141999449,520.5342829999863,520.5342829999863,520.5342829999863,527.2843080999446,Scenes\128a.jpg,pre,s,6.7359204000094905,None,,,,,,,,00053,001,2026-01-18_17h47.05.654,MST_test,2024.2.0,59.82503571244917,2026-01-18 17h47.14.014207 +0530,
95,0,96,s,1.4931906000128947,None,96,0,95,527.3003198999795,,,,,,,,,,,,,,,,,,,,,,,,,,,,,,,,,,,,,,,,,,,,,,,,,,527.2844010999543,527.3003198999795,527.8008702999796,527.7840088999947,527.7937845999841,527.8008702999796,527.8008702999796,527.8008702999796,529.3010749999667,Objects\080b.jpg,mid,s,1.4931906000128947,None,,,,,,,,00053,001,2026-01-18_17h47.05.654,MST_test,2024.2.0,59.82503571244917,2026-01-18 17h47.14.014207 +0530,
96,0,97,s,2.0851154000265524,None,97,0,96,529.3168979999609,,,,,,,,,,,,,,,,,,,,,,,,,,,,,,,,,,,,,,,,,,,,,,,,,,529.3011716999463,529.3168979999609,529.8172177999513,529.8005573999835,529.8099933999474,529.8172177999513,529.8172177999513,529.8172177999513,531.9175774999894,Objects\023b.jpg,pre,s,2.0851154000265524,None,,,,,,,,00053,001,2026-01-18_17h47.05.654,MST_test,2024.2.0,59.82503571244917,2026-01-18 17h47.14.014207 +0530,
97,0,98,s,1.3084999999846332,None,98,0,97,531.9337280999753,,,,,,,,,,,,,,,,,,,,,,,,,,,,,,,,,,,,,,,,,,,,,,,,,,531.9176694999915,531.9337280999753,532.4338688999997,532.4171491999878,532.4197906999616,532.4338688999997,532.4338688999997,532.4338688999997,533.750954099989,Objects\069b.jpg,mid,s,1.3084999999846332,None,,,,,,,,00053,001,2026-01-18_17h47.05.654,MST_test,2024.2.0,59.82503571244917,2026-01-18 17h47.14.014207 +0530,
98,0,99,o,1.8833680000388995,None,99,0,98,533.7670501999673,,,,,,,,,,,,,,,,,,,,,,,,,,,,,,,,,,,,,,,,,,,,,,,,,,533.7510481999489,533.7670501999673,534.2672155999462,534.2506519999588,534.2534099999466,534.2672155999462,534.2672155999462,534.2672155999462,536.1514500999474,Objects\099a.jpg,mid,o,1.8833680000388995,None,,,,,,,,00053,001,2026-01-18_17h47.05.654,MST_test,2024.2.0,59.82503571244917,2026-01-18 17h47.14.014207 +0530,
99,0,100,o,1.435023900005035,None,100,0,99,536.1670529999537,,,,,,,,,,,,,,,,,,,,,,,,,,,,,,,,,,,,,,,,,,,,,,,,,,536.1515484999982,536.1670529999537,536.667103499989,536.6506448999862,536.6533788999659,536.667103499989,536.667103499989,536.667103499989,538.1176283999812,Objects\090a.jpg,post,o,1.435023900005035,None,,,,,,,,00053,001,2026-01-18_17h47.05.654,MST_test,2024.2.0,59.82503571244917,2026-01-18 17h47.14.014207 +0530,
100,0,101,s,1.7239425999578089,None,101,0,100,538.1337554999627,,,,,,,,,,,,,,,,,,,,,,,,,,,,,,,,,,,,,,,,,,,,,,,,,,538.1177319999551,538.1337554999627,538.633951799944,538.6172223999747,538.6266390999663,538.633951799944,538.633951799944,538.633951799944,540.3675458999933,Objects\150b.jpg,post,s,1.7239425999578089,None,,,,,,,,00053,001,2026-01-18_17h47.05.654,MST_test,2024.2.0,59.82503571244917,2026-01-18 17h47.14.014207 +0530,
101,0,102,s,11.235366900044028,None,102,0,101,540.3837472999585,,,,,,,,,,,,,,,,,,,,,,,,,,,,,,,,,,,,,,,,,,,,,,,,,,540.3676426999737,540.3837472999585,540.8907495999592,540.8673452999792,540.8885858999565,540.8907495999592,540.8907495999592,540.8907495999592,552.1344215999707,Scenes\034b.jpg,pre,s,11.235366900044028,None,,,,,,,,00053,001,2026-01-18_17h47.05.654,MST_test,2024.2.0,59.82503571244917,2026-01-18 17h47.14.014207 +0530,
102,0,103,s,1.4362914999946952,None,103,0,102,552.1505099999486,,,,,,,,,,,,,,,,,,,,,,,,,,,,,,,,,,,,,,,,,,,,,,,,,,552.1345136999735,552.1505099999486,552.651051599998,552.6340517999488,552.63757729996,552.651051599998,552.651051599998,552.651051599998,554.1009303999599,Foils\065a.jpg,none,s,1.4362914999946952,None,,,,,,,,00053,001,2026-01-18_17h47.05.654,MST_test,2024.2.0,59.82503571244917,2026-01-18 17h47.14.014207 +0530,
103,0,104,n,2.7490413999767043,None,104,0,103,554.117370299995,,,,,,,,,,,,,,,,,,,,,,,,,,,,,,,,,,,,,,,,,,,,,,,,,,554.1010244999779,554.117370299995,554.6173429999617,554.6007054999936,554.6031860999647,554.6173429999617,554.6173429999617,554.6173429999617,557.3677424999769,Objects\137b.jpg,pre,n,2.7490413999767043,None,,,,,,,,00053,001,2026-01-18_17h47.05.654,MST_test,2024.2.0,59.82503571244917,2026-01-18 17h47.14.014207 +0530,
104,0,105,s,1.481629099987913,None,105,0,104,557.3838587999926,,,,,,,,,,,,,,,,,,,,,,,,,,,,,,,,,,,,,,,,,,,,,,,,,,557.3678347999812,557.3838587999926,557.8841277999454,557.8673551999964,557.8773814999731,557.8841277999454,557.8841277999454,557.8841277999454,559.3676068999921,Scenes\053b.jpg,post,s,1.481629099987913,None,,,,,,,,00053,001,2026-01-18_17h47.05.654,MST_test,2024.2.0,59.82503571244917,2026-01-18 17h47.14.014207 +0530,
105,0,106,o,4.264509100001305,None,106,0,105,559.3837795999716,,,,,,,,,,,,,,,,,,,,,,,,,,,,,,,,,,,,,,,,,,,,,,,,,,559.3677114999737,559.3837795999716,559.8860454999958,559.867376899987,559.8839224999538,559.8860454999958,559.8860454999958,559.8860454999958,564.151292799972,Scenes\004b.jpg,post,o,4.264509100001305,None,,,,,,,,00053,001,2026-01-18_17h47.05.654,MST_test,2024.2.0,59.82503571244917,2026-01-18 17h47.14.014207 +0530,
106,0,107,s,3.618201199977193,None,107,0,106,564.1671459999634,,,,,,,,,,,,,,,,,,,,,,,,,,,,,,,,,,,,,,,,,,,,,,,,,,564.1513910999638,564.1671459999634,564.6675068999757,564.6507651999709,564.660846899962,564.6675068999757,564.6675068999757,564.6675068999757,568.3010198999546,Objects\091b.jpg,post,s,3.618201199977193,None,,,,,,,,00053,001,2026-01-18_17h47.05.654,MST_test,2024.2.0,59.82503571244917,2026-01-18 17h47.14.014207 +0530,
107,0,108,o,1.4284055999596603,None,108,0,107,568.3171651999583,,,,,,,,,,,,,,,,,,,,,,,,,,,,,,,,,,,,,,,,,,,,,,,,,,568.3011135999695,568.3171651999583,568.817371299956,568.8006986999535,568.8035717000021,568.817371299956,568.817371299956,568.817371299956,570.2510317999986,Objects\146a.jpg,pre,o,1.4284055999596603,None,,,,,,,,00053,001,2026-01-18_17h47.05.654,MST_test,2024.2.0,59.82503571244917,2026-01-18 17h47.14.014207 +0530,
108,0,109,o,4.918269099958707,None,109,0,108,570.2669461999903,,,,,,,,,,,,,,,,,,,,,,,,,,,,,,,,,,,,,,,,,,,,,,,,,,570.2511241999455,570.2669461999903,570.7675027999794,570.7508378999773,570.7586353999795,570.7675027999794,570.7675027999794,570.7675027999794,575.7009975999827,Scenes\005a.jpg,post,o,4.918269099958707,None,,,,,,,,00053,001,2026-01-18_17h47.05.654,MST_test,2024.2.0,59.82503571244917,2026-01-18 17h47.14.014207 +0530,
109,0,110,n,1.4773509000078775,None,110,0,109,575.7169460000005,,,,,,,,,,,,,,,,,,,,,,,,,,,,,,,,,,,,,,,,,,,,,,,,,,575.7010887999786,575.7169460000005,576.2174955999944,576.2008317,576.204262299987,576.2174955999944,576.2174955999944,576.2174955999944,577.7010593999876,Foils\098a.jpg,none,n,1.4773509000078775,None,,,,,,,,00053,001,2026-01-18_17h47.05.654,MST_test,2024.2.0,59.82503571244917,2026-01-18 17h47.14.014207 +0530,
110,0,111,s,1.4063970999559388,None,111,0,110,577.7169228999992,,,,,,,,,,,,,,,,,,,,,,,,,,,,,,,,,,,,,,,,,,,,,,,,,,577.7011488999706,577.7169228999992,578.2171094999649,578.2006826999714,578.203210299951,578.2171094999649,578.2171094999649,578.2171094999649,579.6343528999714,Objects\157a.jpg,post,s,1.4063970999559388,None,,,,,,,,00053,001,2026-01-18_17h47.05.654,MST_test,2024.2.0,59.82503571244917,2026-01-18 17h47.14.014207 +0530,
111,0,112,n,4.352631499990821,None,112,0,111,579.6504121999606,,,,,,,,,,,,,,,,,,,,,,,,,,,,,,,,,,,,,,,,,,,,,,,,,,579.6344467999879,579.6504121999606,580.1510726999841,580.134016099968,580.1484983999981,580.1510726999841,580.1510726999841,580.1510726999841,584.5177073999657,Scenes\069b.jpg,pre,n,4.352631499990821,None,,,,,,,,00053,001,2026-01-18_17h47.05.654,MST_test,2024.2.0,59.82503571244917,2026-01-18 17h47.14.014207 +0530,
112,0,113,s,3.46798180002952,None,113,0,112,584.5336735999444,,,,,,,,,,,,,,,,,,,,,,,,,,,,,,,,,,,,,,,,,,,,,,,,,,584.5178008999792,584.5336735999444,585.0342002999969,585.017297399987,585.0208596999873,585.0342002999969,585.0342002999969,585.0342002999969,588.5174474999658,Objects\078b.jpg,mid,s,3.46798180002952,None,,,,,,,,00053,001,2026-01-18_17h47.05.654,MST_test,2024.2.0,59.82503571244917,2026-01-18 17h47.14.014207 +0530,
113,0,114,s,2.30782830005046,None,114,0,113,588.5337445999612,,,,,,,,,,,,,,,,,,,,,,,,,,,,,,,,,,,,,,,,,,,,,,,,,,588.517543199996,588.5337445999612,589.0339404999977,589.0172885999782,589.0269947999623,589.0339404999977,589.0339404999977,589.0339404999977,591.3509707999765,Objects\142b.jpg,pre,s,2.30782830005046,None,,,,,,,,00053,001,2026-01-18_17h47.05.654,MST_test,2024.2.0,59.82503571244917,2026-01-18 17h47.14.014207 +0530,
114,0,115,s,4.659518100030255,None,115,0,114,591.3669394999743,,,,,,,,,,,,,,,,,,,,,,,,,,,,,,,,,,,,,,,,,,,,,,,,,,591.3510630999808,591.3669394999743,591.8672995999805,591.8506900999928,591.8531520999968,591.8672995999805,591.8672995999805,591.8672995999805,596.5345121999853,Objects\073b.jpg,post,s,4.659518100030255,None,,,,,,,,00053,001,2026-01-18_17h47.05.654,MST_test,2024.2.0,59.82503571244917,2026-01-18 17h47.14.014207 +0530,
115,0,116,o,3.899652599997353,None,116,0,115,596.5505523999454,,,,,,,,,,,,,,,,,,,,,,,,,,,,,,,,,,,,,,,,,,,,,,,,,,596.53461719997,596.5505523999454,597.0507146999589,597.033997099963,597.0366881999653,597.0507146999589,597.0507146999589,597.0507146999589,600.9510731999762,Objects\046a.jpg,mid,o,3.899652599997353,None,,,,,,,,00053,001,2026-01-18_17h47.05.654,MST_test,2024.2.0,59.82503571244917,2026-01-18 17h47.14.014207 +0530,
116,0,117,n,1.5711283999844454,None,117,0,116,600.9670287999907,,,,,,,,,,,,,,,,,,,,,,,,,,,,,,,,,,,,,,,,,,,,,,,,,,600.951173599984,600.9670287999907,601.4674411999877,601.4508254999528,601.4596320999553,601.4674411999877,601.4674411999877,601.4674411999877,603.0510929999873,Foils\scenes12.jpg,none,n,1.5711283999844454,None,,,,,,,,00053,001,2026-01-18_17h47.05.654,MST_test,2024.2.0,59.82503571244917,2026-01-18 17h47.14.014207 +0530,
117,0,118,o,4.327192900003865,None,118,0,117,603.06707369996,,,,,,,,,,,,,,,,,,,,,,,,,,,,,,,,,,,,,,,,,,,,,,,,,,603.0511892999639,603.06707369996,603.5672803999623,603.5505899999989,603.5626940999646,603.5672803999623,603.5672803999623,603.5672803999623,607.9009883999825,Scenes\023a.jpg,pre,o,4.327192900003865,None,,,,,,,,00053,001,2026-01-18_17h47.05.654,MST_test,2024.2.0,59.82503571244917,2026-01-18 17h47.14.014207 +0530,
118,0,119,o,3.100424500007648,None,119,0,118,607.917009799974,,,,,,,,,,,,,,,,,,,,,,,,,,,,,,,,,,,,,,,,,,,,,,,,,,607.901082299999,607.917009799974,608.4177260999568,608.4006737999734,608.4090105999494,608.4177260999568,608.4177260999568,608.4177260999568,611.5344389999518,Scenes\019a.jpg,mid,o,3.100424500007648,None,,,,,,,,00053,001,2026-01-18_17h47.05.654,MST_test,2024.2.0,59.82503571244917,2026-01-18 17h47.14.014207 +0530,
119,0,120,n,6.651027500047348,None,120,0,119,611.550332099956,,,,,,,,,,,,,,,,,,,,,,,,,,,,,,,,,,,,,,,,,,,,,,,,,,611.5345330999698,611.550332099956,612.0509775999817,612.0340684999828,612.0450377999805,612.0509775999817,612.0509775999817,612.0509775999817,618.71763129998,Scenes\020b.jpg,pre,n,6.651027500047348,None,,,,,,,,00053,001,2026-01-18_17h47.05.654,MST_test,2024.2.0,59.82503571244917,2026-01-18 17h47.14.014207 +0530,
120,0,121,s,1.756315500009805,None,121,0,120,618.7337537999847,,,,,,,,,,,,,,,,,,,,,,,,,,,,,,,,,,,,,,,,,,,,,,,,,,618.717729499971,618.7337537999847,619.2343885999871,619.217231699964,619.2233987999498,619.2343885999871,619.2343885999871,619.2343885999871,621.0011343999649,Scenes\152b.jpg,mid,s,1.756315500009805,None,,,,,,,,00053,001,2026-01-18_17h47.05.654,MST_test,2024.2.0,59.82503571244917,2026-01-18 17h47.14.014207 +0530,
121,0,122,s,4.921062499983236,None,122,0,121,621.0169364999747,,,,,,,,,,,,,,,,,,,,,,,,,,,,,,,,,,,,,,,,,,,,,,,,,,621.0012373999925,621.0169364999747,621.5175452999538,621.5007184999995,621.5115308999666,621.5175452999538,621.5175452999538,621.5175452999538,626.4510478999582,Foils\058a.jpg,none,s,4.921062499983236,None,,,,,,,,00053,001,2026-01-18_17h47.05.654,MST_test,2024.2.0,59.82503571244917,2026-01-18 17h47.14.014207 +0530,
122,0,123,n,4.270847700012382,None,123,0,122,626.467004999984,,,,,,,,,,,,,,,,,,,,,,,,,,,,,,,,,,,,,,,,,,,,,,,,,,626.451139999961,626.467004999984,626.9674023999833,626.9507824999746,626.9569250999484,626.9674023999833,626.9674023999833,626.9674023999833,631.2509804999572,Scenes\155b.jpg,post,n,4.270847700012382,None,,,,,,,,00053,001,2026-01-18_17h47.05.654,MST_test,2024.2.0,59.82503571244917,2026-01-18 17h47.14.014207 +0530,
123,0,124,s,2.407227999996394,None,124,0,123,631.2669069999829,,,,,,,,,,,,,,,,,,,,,,,,,,,,,,,,,,,,,,,,,,,,,,,,,,631.2510841999901,631.2669069999829,631.7673974999925,631.7505961999996,631.7537459999439,631.7673974999925,631.7673974999925,631.7673974999925,634.1843177999835,Foils\050a.jpg,none,s,2.407227999996394,None,,,,,,,,00053,001,2026-01-18_17h47.05.654,MST_test,2024.2.0,59.82503571244917,2026-01-18 17h47.14.014207 +0530,
124,0,125,s,5.961785099992994,None,125,0,124,634.2004068999668,,,,,,,,,,,,,,,,,,,,,,,,,,,,,,,,,,,,,,,,,,,,,,,,,,634.1844098999863,634.2004068999668,634.700602500001,634.6839234999497,634.6864220999996,634.700602500001,634.700602500001,634.700602500001,640.6676510999678,Foils\066a.jpg,none,s,5.961785099992994,None,,,,,,,,00053,001,2026-01-18_17h47.05.654,MST_test,2024.2.0,59.82503571244917,2026-01-18 17h47.14.014207 +0530,
125,0,126,o,4.169723700033501,None,126,0,125,640.6837485999567,,,,,,,,,,,,,,,,,,,,,,,,,,,,,,,,,,,,,,,,,,,,,,,,,,640.6677490999573,640.6837485999567,641.1889843999525,641.1672004999709,641.1869583999505,641.1889843999525,641.1889843999525,641.1889843999525,645.3675068999873,Scenes\054b.jpg,mid,o,4.169723700033501,None,,,,,,,,00053,001,2026-01-18_17h47.05.654,MST_test,2024.2.0,59.82503571244917,2026-01-18 17h47.14.014207 +0530,
126,0,127,s,1.4024084999691695,None,127,0,126,645.3837585999863,,,,,,,,,,,,,,,,,,,,,,,,,,,,,,,,,,,,,,,,,,,,,,,,,,645.3676073999959,645.3837585999863,645.8842426999472,645.8671709999908,645.8773187999614,645.8842426999472,645.8842426999472,645.8842426999472,647.30096339999,Objects\105b.jpg,mid,s,1.4024084999691695,None,,,,,,,,00053,001,2026-01-18_17h47.05.654,MST_test,2024.2.0,59.82503571244917,2026-01-18 17h47.14.014207 +0530,
127,0,128,s,2.2775263999938034,None,128,0,127,647.3169134999625,,,,,,,,,,,,,,,,,,,,,,,,,,,,,,,,,,,,,,,,,,,,,,,,,,647.3010603999719,647.3169134999625,647.8171281999676,647.8006289999466,647.8104962999932,647.8171281999676,647.8171281999676,647.8171281999676,650.1010697999736,Objects\070b.jpg,post,s,2.2775263999938034,None,,,,,,,,00053,001,2026-01-18_17h47.05.654,MST_test,2024.2.0,59.82503571244917,2026-01-18 17h47.14.014207 +0530,
128,0,129,o,2.3731680000200868,None,129,0,128,650.1169728999957,,,,,,,,,,,,,,,,,,,,,,,,,,,,,,,,,,,,,,,,,,,,,,,,,,650.1011643999955,650.1169728999957,650.6171537999762,650.6006255999673,650.6031137999962,650.6171537999762,650.6171537999762,650.6171537999762,653.0013564999681,Objects\068a.jpg,mid,o,2.3731680000200868,None,,,,,,,,00053,001,2026-01-18_17h47.05.654,MST_test,2024.2.0,59.82503571244917,2026-01-18 17h47.14.014207 +0530,
129,0,130,s,1.8485266999923624,None,130,0,129,653.017116199946,,,,,,,,,,,,,,,,,,,,,,,,,,,,,,,,,,,,,,,,,,,,,,,,,,653.0014707999653,653.017116199946,653.5175388999633,653.5006658999482,653.510690599971,653.5175388999633,653.5175388999633,653.5175388999633,655.3676378999953,Scenes\174a.jpg,pre,s,1.8485266999923624,None,,,,,,,,00053,001,2026-01-18_17h47.05.654,MST_test,2024.2.0,59.82503571244917,2026-01-18 17h47.14.014207 +0530,
130,0,131,n,6.6827425000374205,None,131,0,130,655.3837770999526,,,,,,,,,,,,,,,,,,,,,,,,,,,,,,,,,,,,,,,,,,,,,,,,,,655.3677288999897,655.3837770999526,655.8842967999517,655.8671988999704,655.8777547999634,655.8842967999517,655.8842967999517,655.8842967999517,662.5682030999451,Scenes\190a.jpg,pre,n,6.6827425000374205,None,,,,,,,,00053,001,2026-01-18_17h47.05.654,MST_test,2024.2.0,59.82503571244917,2026-01-18 17h47.14.014207 +0530,
131,0,132,s,2.1386076000053436,None,132,0,131,662.5839144999627,,,,,,,,,,,,,,,,,,,,,,,,,,,,,,,,,,,,,,,,,,,,,,,,,,662.5683049999643,662.5839144999627,663.0844641999574,663.0675384999486,663.078627299983,663.0844641999574,663.0844641999574,663.0844641999574,665.2344660999952,Scenes\045a.jpg,pre,s,2.1386076000053436,None,,,,,,,,00053,001,2026-01-18_17h47.05.654,MST_test,2024.2.0,59.82503571244917,2026-01-18 17h47.14.014207 +0530,
132,0,133,s,2.2462035000207834,None,133,0,132,665.2505403999821,,,,,,,,,,,,,,,,,,,,,,,,,,,,,,,,,,,,,,,,,,,,,,,,,,665.2345588999451,665.2505403999821,665.7515618999605,665.7341337999678,665.7491641999804,665.7515618999605,665.7515618999605,665.7515618999605,668.0011419999646,Scenes\077b.jpg,mid,s,2.2462035000207834,None,,,,,,,,00053,001,2026-01-18_17h47.05.654,MST_test,2024.2.0,59.82503571244917,2026-01-18 17h47.14.014207 +0530,
133,0,134,o,2.8090189000358805,None,134,0,133,668.0171963999746,,,,,,,,,,,,,,,,,,,,,,,,,,,,,,,,,,,,,,,,,,,,,,,,,,668.0012357999803,668.0171963999746,668.517674099945,668.5007930999855,668.5077641999815,668.517674099945,668.517674099945,668.517674099945,671.334354199993,Scenes\137b.jpg,pre,o,2.8090189000358805,None,,,,,,,,00053,001,2026-01-18_17h47.05.654,MST_test,2024.2.0,59.82503571244917,2026-01-18 17h47.14.014207 +0530,
134,0,135,n,11.043566000007559,None,135,0,134,671.3504380999948,,,,,,,,,,,,,,,,,,,,,,,,,,,,,,,,,,,,,,,,,,,,,,,,,,671.334450299968,671.3504380999948,671.8510451999609,671.8341227999772,671.836099899956,671.8510451999609,671.8510451999609,671.8510451999609,682.9011332999798,Foils\scenes4.jpg,none,n,11.043566000007559,None,,,,,,,,00053,001,2026-01-18_17h47.05.654,MST_test,2024.2.0,59.82503571244917,2026-01-18 17h47.14.014207 +0530,
135,0,136,o,6.029119500017259,None,136,0,135,682.9171223999583,,,,,,,,,,,,,,,,,,,,,,,,,,,,,,,,,,,,,,,,,,,,,,,,,,682.9012334999861,682.9171223999583,683.4174133999622,683.4007775999489,683.4044196999748,683.4174133999622,683.4174133999622,683.4174133999622,689.4510789999622,Objects\130a.jpg,pre,o,6.029119500017259,None,,,,,,,,00053,001,2026-01-18_17h47.05.654,MST_test,2024.2.0,59.82503571244917,2026-01-18 17h47.14.014207 +0530,
136,0,137,o,1.4867028999724425,None,137,0,136,689.4672194999876,,,,,,,,,,,,,,,,,,,,,,,,,,,,,,,,,,,,,,,,,,,,,,,,,,689.4511764999479,689.4672194999876,689.9674864999834,689.9509909999906,689.9540255999891,689.9674864999834,689.9674864999834,689.9674864999834,691.4678140999749,Objects\121a.jpg,pre,o,1.4867028999724425,None,,,,,,,,00053,001,2026-01-18_17h47.05.654,MST_test,2024.2.0,59.82503571244917,2026-01-18 17h47.14.014207 +0530,
137,0,138,o,10.774974500003736,None,138,0,137,691.4838836999843,,,,,,,,,,,,,,,,,,,,,,,,,,,,,,,,,,,,,,,,,,,,,,,,,,691.4679095999454,691.4838836999843,691.9908511999529,691.9675175999873,691.9886045999592,691.9908511999529,691.9908511999529,691.9908511999529,702.7677236999734,Scenes\089b.jpg,pre,o,10.774974500003736,None,,,,,,,,00053,001,2026-01-18_17h47.05.654,MST_test,2024.2.0,59.82503571244917,2026-01-18 17h47.14.014207 +0530,
138,0,139,s,3.425546599959489,None,139,0,138,702.7838697999832,,,,,,,,,,,,,,,,,,,,,,,,,,,,,,,,,,,,,,,,,,,,,,,,,,702.7678174999892,702.7838697999832,703.2843007999472,703.2673605000018,703.2808799999766,703.2843007999472,703.2843007999472,703.2843007999472,706.7176342000021,Scenes\169b.jpg,post,s,3.425546599959489,None,,,,,,,,00053,001,2026-01-18_17h47.05.654,MST_test,2024.2.0,59.82503571244917,2026-01-18 17h47.14.014207 +0530,
139,0,140,o,3.5474312999867834,None,140,0,139,706.7338113999576,,,,,,,,,,,,,,,,,,,,,,,,,,,,,,,,,,,,,,,,,,,,,,,,,,706.7177258000011,706.7338113999576,707.2343758999486,707.2177353999577,707.2244652999798,707.2343758999486,707.2343758999486,707.2343758999486,710.7845291999984,Scenes\192a.jpg,mid,o,3.5474312999867834,None,,,,,,,,00053,001,2026-01-18_17h47.05.654,MST_test,2024.2.0,59.82503571244917,2026-01-18 17h47.14.014207 +0530,
140,0,141,s,2.041586700011976,None,141,0,140,710.800548499974,,,,,,,,,,,,,,,,,,,,,,,,,,,,,,,,,,,,,,,,,,,,,,,,,,710.7846270999871,710.800548499974,711.3010014999891,711.2843528999947,711.2875237999833,711.3010014999891,711.3010014999891,711.3010014999891,713.3510147999623,Objects\125a.jpg,post,s,2.041586700011976,None,,,,,,,,00053,001,2026-01-18_17h47.05.654,MST_test,2024.2.0,59.82503571244917,2026-01-18 17h47.14.014207 +0530,
141,0,142,s,5.346597799973097,None,142,0,141,713.3672138999682,,,,,,,,,,,,,,,,,,,,,,,,,,,,,,,,,,,,,,,,,,,,,,,,,,713.3511091999826,713.3672138999682,713.8677040999755,713.8508094999706,713.860268199991,713.8677040999755,713.8677040999755,713.8677040999755,719.2177905999706,Scenes\146a.jpg,mid,s,5.346597799973097,None,,,,,,,,00053,001,2026-01-18_17h47.05.654,MST_test,2024.2.0,59.82503571244917,2026-01-18 17h47.14.014207 +0530,
142,0,143,o,1.5995721999788657,None,143,0,142,719.2338793999515,,,,,,,,,,,,,,,,,,,,,,,,,,,,,,,,,,,,,,,,,,,,,,,,,,719.2178846999886,719.2338793999515,719.7343084999593,719.7174626999767,719.7206342999707,719.7343084999593,719.7343084999593,719.7343084999593,721.3345780999516,Objects\010a.jpg,pre,o,1.5995721999788657,None,,,,,,,,00053,001,2026-01-18_17h47.05.654,MST_test,2024.2.0,59.82503571244917,2026-01-18 17h47.14.014207 +0530,
143,0,144,o,5.123381200013682,None,144,0,143,721.3504318999476,,,,,,,,,,,,,,,,,,,,,,,,,,,,,,,,,,,,,,,,,,,,,,,,,,721.3346702999552,721.3504318999476,721.850952299952,721.8339474999812,721.8432174999616,721.850952299952,721.850952299952,721.850952299952,726.9843408999732,Scenes\104a.jpg,mid,o,5.123381200013682,None,,,,,,,,00053,001,2026-01-18_17h47.05.654,MST_test,2024.2.0,59.82503571244917,2026-01-18 17h47.14.014207 +0530,
144,0,145,n,1.4169432999915443,None,145,0,144,727.0003862999729,,,,,,,,,,,,,,,,,,,,,,,,,,,,,,,,,,,,,,,,,,,,,,,,,,726.9844323999714,727.0003862999729,727.5008628999931,727.4840337999631,727.4862359999679,727.5008628999931,727.5008628999931,727.5008628999931,728.9342720999848,Foils\scenes20.jpg,none,n,1.4169432999915443,None,,,,,,,,00053,001,2026-01-18_17h47.05.654,MST_test,2024.2.0,59.82503571244917,2026-01-18 17h47.14.014207 +0530,
145,0,146,o,3.1320486000040546,None,146,0,145,728.9504261999973,,,,,,,,,,,,,,,,,,,,,,,,,,,,,,,,,,,,,,,,,,,,,,,,,,728.9343616999686,728.9504261999973,729.4508039999637,729.433942099975,729.4395311999833,729.4508039999637,729.4508039999637,729.4508039999637,732.5843491999549,Scenes\179a.jpg,mid,o,3.1320486000040546,None,,,,,,,,00053,001,2026-01-18_17h47.05.654,MST_test,2024.2.0,59.82503571244917,2026-01-18 17h47.14.014207 +0530,
146,0,147,s,2.608723400044255,None,147,0,146,732.600446299999,,,,,,,,,,,,,,,,,,,,,,,,,,,,,,,,,,,,,,,,,,,,,,,,,,732.584444499982,732.600446299999,733.1030297999969,733.0840630999883,733.1008319999673,733.1030297999969,733.1030297999969,733.1030297999969,735.717673099949,Scenes\100b.jpg,mid,s,2.608723400044255,None,,,,,,,,00053,001,2026-01-18_17h47.05.654,MST_test,2024.2.0,59.82503571244917,2026-01-18 17h47.14.014207 +0530,
147,0,148,n,1.7713699999731034,None,148,0,147,735.7337865000009,,,,,,,,,,,,,,,,,,,,,,,,,,,,,,,,,,,,,,,,,,,,,,,,,,735.7177647999488,735.7337865000009,736.2349053999642,736.2172736999928,736.2324519999675,736.2349053999642,736.2349053999642,736.2349053999642,738.0176386999665,Scenes\182b.jpg,mid,n,1.7713699999731034,None,,,,,,,,00053,001,2026-01-18_17h47.05.654,MST_test,2024.2.0,59.82503571244917,2026-01-18 17h47.14.014207 +0530,
148,0,149,s,1.775695399963297,None,149,0,148,738.0337888999493,,,,,,,,,,,,,,,,,,,,,,,,,,,,,,,,,,,,,,,,,,,,,,,,,,738.0177311999723,738.0337888999493,738.5342061999836,738.5172135999892,738.5194285999751,738.5342061999836,738.5342061999836,738.5342061999836,740.3175203999854,Foils\scenes1.jpg,none,s,1.775695399963297,None,,,,,,,,00053,001,2026-01-18_17h47.05.654,MST_test,2024.2.0,59.82503571244917,2026-01-18 17h47.14.014207 +0530,
149,0,150,s,4.2200202999520116,None,150,0,149,740.3337716999813,,,,,,,,,,,,,,,,,,,,,,,,,,,,,,,,,,,,,,,,,,,,,,,,,,740.3176143999444,740.3337716999813,740.8341421999503,740.8172053999733,740.8275047999923,740.8341421999503,740.8341421999503,740.8341421999503,745.0675111999735,Objects\034b.jpg,mid,s,4.2200202999520116,None,,,,,,,,00053,001,2026-01-18_17h47.05.654,MST_test,2024.2.0,59.82503571244917,2026-01-18 17h47.14.014207 +0530,
,,,,,,,,,,,,,,,,,,,,,,,,,,,,,,,,,,,,,,,,,,,,,,,,,,,,,,,,,,,,,,,,,,,,,,,,,745.0675751999952,745.0837985999533,745.0837985999533,753.1516221999773,space,8.057976600015536,None,00053,001,2026-01-18_17h47.05.654,MST_test,2024.2.0,59.82503571244917,2026-01-18 17h47.14.014207 +0530,
