Sl_no,image_path,thisN,thisTrialN,thisRepN,key_resp_5.keys,key_resp_5.rt,key_resp_5.duration,key_resp_7.keys,key_resp_7.rt,key_resp_7.duration,key_resp_9.keys,key_resp_9.rt,key_resp_9.duration,key_resp_8.keys,key_resp_8.rt,key_resp_8.duration,practice.thisRepN,practice.thisTrialN,practice.thisN,trials.thisRepN,trials.thisTrialN,trials.thisN,thisRow.t,notes,welcome_page.started,text.started,key_resp.started,welcome_page.stopped,key_resp.keys,key_resp.rt,key_resp.duration,instructions.started,ins.started,key_resp_2.started,instructions.stopped,key_resp_2.keys,key_resp_2.rt,key_resp_2.duration,instructions_2.started,text_10.started,key_resp_10.started,instructions_2.stopped,key_resp_10.keys,key_resp_10.rt,key_resp_10.duration,objects_only_instruction.started,text_3.started,key_resp_3.started,objects_only_instruction.stopped,key_resp_3.keys,key_resp_3.rt,key_resp_3.duration,ISI.started,text_4.started,ISI.stopped,practice_block.started,image.started,text_5.started,key_resp_5.started,practice_block.stopped,practice.key_resp_5.keys,practice.key_resp_5.rt,practice.key_resp_5.duration,indoor_outdoor.started,indoor_outdoor.stopped,practice.key_resp_7.keys,text_4.stopped,image.stopped,text_5.stopped,key_resp_5.stopped,text_7.started,key_resp_7.started,practice.key_resp_7.rt,practice.key_resp_7.duration,practice_to_main.started,text_2.started,key_resp_4.started,practice_to_main.stopped,key_resp_4.keys,key_resp_4.rt,key_resp_4.duration,objects.started,image_2.started,text_9.started,key_resp_9.started,objects.stopped,trials.key_resp_9.keys,trials.key_resp_9.rt,trials.key_resp_9.duration,encoding_task.started,encoding_task.stopped,trials.key_resp_8.keys,image_2.stopped,text_9.stopped,key_resp_9.stopped,text_8.started,key_resp_8.started,trials.key_resp_8.rt,trials.key_resp_8.duration,end_experiment.started,text_6.started,key_resp_6.started,end_experiment.stopped,key_resp_6.keys,key_resp_6.rt,key_resp_6.duration,list_of_stimuli,encoding_task_accuracy,participant,session,date,expName,psychopyVersion,frameRate,expStart,
,,,,,,,,,,,,,,,,,,,,,,,,,0.001359799993224442,0.0029000999638810754,0.0029000999638810754,17.108927799970843,space,17.08792670001276,None,,,,,,,,,,,,,,,,,,,,,,,,,,,,,,,,,,,,,,,,,,,,,,,,,,,,,,,,,,,,,,,,,,,,,,,,,,,,,,00056,001,2026-01-18_19h23.59.153,MST_task,2024.2.0,60.144732279541095,2026-01-18 19h24.06.328378 +0530,
,,,,,,,,,,,,,,,,,,,,,,,,,,,,,,,,17.1089599999832,17.123602899955586,17.123602899955586,35.30763219995424,space,18.175209800014272,None,,,,,,,,,,,,,,,,,,,,,,,,,,,,,,,,,,,,,,,,,,,,,,,,,,,,,,,,,,,,,,,,,,,,,,,00056,001,2026-01-18_19h23.59.153,MST_task,2024.2.0,60.144732279541095,2026-01-18 19h24.06.328378 +0530,
,,,,,,,,,,,,,,,,,,,,,,,,,,,,,,,,,,,,,,,35.307659499987494,35.32373399997596,35.32373399997596,79.99087300000247,space,44.66287000000011,None,,,,,,,,,,,,,,,,,,,,,,,,,,,,,,,,,,,,,,,,,,,,,,,,,,,,,,,,,,,,,,,,00056,001,2026-01-18_19h23.59.153,MST_task,2024.2.0,60.144732279541095,2026-01-18 19h24.06.328378 +0530,
,,,,,,,,,,,,,,,,,,,,,,,,,,,,,,,,,,,,,,,,,,,,,,79.99090779997641,80.00713779998478,80.00713779998478,111.35791129997233,space,31.339073000010103,None,,,,,,,,,,,,,,,,,,,,,,,,,,,,,,,,,,,,,,,,,,,,,,,,,,,,,,,,,00056,001,2026-01-18_19h23.59.153,MST_task,2024.2.0,60.144732279541095,2026-01-18 19h24.06.328378 +0530,
5,practice_images/139a.jpg,0,0,1,f,1.7134913000045344,0.14402149996021762,None,,,,,,,,,1,0,0,,,,111.37575549999019,,,,,,,,,,,,,,,,,,,,,,,,,,,,,,111.3736263999599,111.37575549999019,111.87368779996177,111.88708529999712,111.89766629994847,111.89766629994847,111.89766629994847,114.87393969995901,f,1.7134913000045344,0.14402149996021762,114.87580199999502,114.87582209997345,None,,,,,,,,,,,,,,,,,,,,,,,,,,,,,,,,,,,,,,,,,,,00056,001,2026-01-18_19h23.59.153,MST_task,2024.2.0,60.144732279541095,2026-01-18 19h24.06.328378 +0530,
1,practice_images/013a.jpg,1,1,1,None,,,f,0.0925015999819152,None,,,,,,,1,1,1,,,,114.89034719998017,,,,,,,,,,,,,,,,,,,,,,,,,,,,,,114.87589189998107,114.89034719998017,115.37380750000011,115.38198859995464,115.39064689999213,115.39064689999213,115.39064689999213,118.37403539998922,None,,,118.37407049996546,118.49085579998791,f,115.39064689999213,118.39038859994616,118.39038859994616,118.39038859994616,118.39038859994616,118.39038859994616,0.0925015999819152,None,,,,,,,,,,,,,,,,,,,,,,,,,,,,,,,,,,,00056,001,2026-01-18_19h23.59.153,MST_task,2024.2.0,60.144732279541095,2026-01-18 19h24.06.328378 +0530,
6,practice_images/158a.jpg,2,2,1,j,1.4758469000225887,0.17600469995522872,None,,,,,,,,,1,2,2,,,,118.50698239996564,,,,,,,,,,,,,,,,,,,,,,,,,,,,,,118.49093829997582,118.50698239996564,118.99059179995675,118.99889369995799,119.00719449995086,119.00719449995086,119.00719449995086,121.99104459997034,j,1.4758469000225887,0.17600469995522872,121.99108639999758,121.99110089999158,None,119.00719449995086,122.00712129997555,122.00712129997555,122.00712129997555,,,,,,,,,,,,,,,,,,,,,,,,,,,,,,,,,,,,,,,00056,001,2026-01-18_19h23.59.153,MST_task,2024.2.0,60.144732279541095,2026-01-18 19h24.06.328378 +0530,
4,practice_images/002b.jpg,3,3,1,f,1.4635304000112228,0.17599940003128722,None,,,,,,,,,1,3,3,,,,122.00712129997555,,,,,,,,,,,,,,,,,,,,,,,,,,,,,,121.99116539995885,122.00712129997555,122.49065709998831,122.49904439999955,122.50724359997548,122.50724359997548,122.50724359997548,125.49083709996194,f,1.4635304000112228,0.17599940003128722,125.49087499995949,125.49088749999646,None,122.50724359997548,125.50705189997097,125.50705189997097,125.50705189997097,,,,,,,,,,,,,,,,,,,,,,,,,,,,,,,,,,,,,,,00056,001,2026-01-18_19h23.59.153,MST_task,2024.2.0,60.144732279541095,2026-01-18 19h24.06.328378 +0530,
8,practice_images/178a.jpg,4,4,1,f,0.7473531000432558,0.18449269997654483,None,,,,,,,,,1,4,4,,,,125.50705189997097,,,,,,,,,,,,,,,,,,,,,,,,,,,,,,125.4909600999672,125.50705189997097,125.99067119997926,125.99919849995058,126.00726619997295,126.00726619997295,126.00726619997295,128.99091709998902,f,0.7473531000432558,0.18449269997654483,128.9909551999881,128.9909672999638,None,126.00726619997295,129.00716729997657,129.00716729997657,129.00716729997657,,,,,,,,,,,,,,,,,,,,,,,,,,,,,,,,,,,,,,,00056,001,2026-01-18_19h23.59.153,MST_task,2024.2.0,60.144732279541095,2026-01-18 19h24.06.328378 +0530,
2,practice_images/031a.jpg,5,5,1,f,2.087693399982527,0.22397800005273893,None,,,,,,,,,1,5,5,,,,129.00716729997657,,,,,,,,,,,,,,,,,,,,,,,,,,,,,,128.99103479995392,129.00716729997657,129.49064659996657,129.5029310999671,129.50719019997632,129.50719019997632,129.50719019997632,132.49088189995382,f,2.087693399982527,0.22397800005273893,132.49356639996404,132.49358389998088,None,129.50719019997632,132.50716839998495,132.50716839998495,132.50716839998495,,,,,,,,,,,,,,,,,,,,,,,,,,,,,,,,,,,,,,,00056,001,2026-01-18_19h23.59.153,MST_task,2024.2.0,60.144732279541095,2026-01-18 19h24.06.328378 +0530,
3,practice_images/037a.jpg,6,6,1,f,1.2677997999708168,0.21599810000043362,None,,,,,,,,,1,6,6,,,,132.50716839998495,,,,,,,,,,,,,,,,,,,,,,,,,,,,,,132.49365079996642,132.50716839998495,132.9909067999688,132.99910439999076,133.00736899999902,133.00736899999902,133.00736899999902,135.99089829996228,f,1.2677997999708168,0.21599810000043362,135.99093649996212,135.99094829999376,None,133.00736899999902,136.00711799995042,136.00711799995042,136.00711799995042,,,,,,,,,,,,,,,,,,,,,,,,,,,,,,,,,,,,,,,00056,001,2026-01-18_19h23.59.153,MST_task,2024.2.0,60.144732279541095,2026-01-18 19h24.06.328378 +0530,
10,practice_images/182a.jpg,7,7,1,f,1.1108931999769993,0.22400310001103207,None,,,,,,,,,1,7,7,,,,136.00711799995042,,,,,,,,,,,,,,,,,,,,,,,,,,,,,,135.99101060000248,136.00711799995042,136.49079389998224,136.49897909996798,136.50742149999132,136.50742149999132,136.50742149999132,139.4909613999771,f,1.1108931999769993,0.22400310001103207,139.49100179999368,139.49101409997093,None,136.50742149999132,139.5070962999598,139.5070962999598,139.5070962999598,,,,,,,,,,,,,,,,,,,,,,,,,,,,,,,,,,,,,,,00056,001,2026-01-18_19h23.59.153,MST_task,2024.2.0,60.144732279541095,2026-01-18 19h24.06.328378 +0530,
7,practice_images/166a.jpg,8,8,1,f,2.2677004000288434,0.16004409996094182,None,,,,,,,,,1,8,8,,,,139.5070962999598,,,,,,,,,,,,,,,,,,,,,,,,,,,,,,139.49107709998498,139.5070962999598,139.99069509998662,139.99929119995795,140.00737389997812,140.00737389997812,140.00737389997812,142.99082959996304,f,2.2677004000288434,0.16004409996094182,142.99086869996972,142.99088129994925,None,140.00737389997812,143.00717119994806,143.00717119994806,143.00717119994806,,,,,,,,,,,,,,,,,,,,,,,,,,,,,,,,,,,,,,,00056,001,2026-01-18_19h23.59.153,MST_task,2024.2.0,60.144732279541095,2026-01-18 19h24.06.328378 +0530,
9,practice_images/180a.jpg,9,9,1,j,1.3112012000055984,0.1680320999585092,None,,,,,,,,,1,9,9,,,,143.00717119994806,,,,,,,,,,,,,,,,,,,,,,,,,,,,,,142.99094289995264,143.00717119994806,143.4906512000016,143.49887819995638,143.5073418999673,143.5073418999673,143.5073418999673,146.49085489998106,j,1.3112012000055984,0.1680320999585092,146.4908940999885,146.49090659996727,None,143.5073418999673,146.50708169996506,146.50708169996506,146.50708169996506,,,,,,,,,,,,,,,,,,,,,,,,,,,,,,,,,,,,,,,00056,001,2026-01-18_19h23.59.153,MST_task,2024.2.0,60.144732279541095,2026-01-18 19h24.06.328378 +0530,
,,,,,,,,,,,,,,,,,,,,,,,,,,,,,,,,,,,,,,,,,,,,,,,,,,,,,,,,,,,,,,,,,,,,,,,,,,,146.49095019995002,146.50708169996506,146.50708169996506,164.39086809998844,space,17.879170900036115,None,,,,,,,,,,,,,,,,,,,,,,,,,,,,00056,001,2026-01-18_19h23.59.153,MST_task,2024.2.0,60.144732279541095,2026-01-18 19h24.06.328378 +0530,
,Scenes\025a.jpg,0,0,1,,,,,,,j,0.8561224999721162,0.16770190000534058,None,,,,,,1,0,0,164.40706659998978,,,,,,,,,,,,,,,,,,,,,,,,,,,,,,164.39163769996958,164.40706659998978,164.89058199996362,,,,,,,,,,,,164.91468249994796,,,,,,,,,,,,,,,164.91150170000037,164.91468249994796,164.91468249994796,164.91468249994796,167.90732879994903,j,0.8561224999721162,0.16770190000534058,167.9090734999627,167.9090961999609,None,,,,,,,,,,,,,,,,,00056,001,2026-01-18_19h23.59.153,MST_task,2024.2.0,60.144732279541095,2026-01-18 19h24.06.328378 +0530,
,Scenes\043a.jpg,1,0,2,,,,,,,j,1.0126121999928728,0.18308419996174052,None,,,,,,2,0,1,167.92360859998735,,,,,,,,,,,,,,,,,,,,,,,,,,,,,,167.90916859998833,167.92360859998735,168.40739039995242,,,,,,,,,,,,168.43117659998825,,,,,,,,,,,,,,,168.4287301999866,168.43117659998825,168.43117659998825,168.43117659998825,171.42387089994736,j,1.0126121999928728,0.18308419996174052,171.42391539999517,171.42392689996632,None,,,,,,,,,,,,,,,,,00056,001,2026-01-18_19h23.59.153,MST_task,2024.2.0,60.144732279541095,2026-01-18 19h24.06.328378 +0530,
,Scenes\044a.jpg,2,0,3,,,,,,,j,1.493697899975814,0.16872820002026856,None,,,,,,3,0,2,171.44043259997852,,,,,,,,,,,,,,,,,,,,,,,,,,,,,,171.42401969997445,171.44043259997852,171.9238862999482,,,,,,,,,,,,171.94091999996454,,,,,,,,,,,,,,,171.93753289995948,171.94091999996454,171.94091999996454,171.94091999996454,174.92418139998335,j,1.493697899975814,0.16872820002026856,174.92422439996153,174.9242355999886,None,174.94042739999713,174.94042739999713,174.94042739999713,,,,,,,,,,,,,,00056,001,2026-01-18_19h23.59.153,MST_task,2024.2.0,60.144732279541095,2026-01-18 19h24.06.328378 +0530,
,Scenes\016a.jpg,3,0,4,,,,,,,j,0.7780752999824472,0.1835234999889508,None,,,,,,4,0,3,174.94042739999713,,,,,,,,,,,,,,,,,,,,,,,,,,,,,,174.9242994999513,174.94042739999713,175.42390009999508,,,,,,,,,,,,175.44058899994707,,,,,,,,,,,,,,,175.43564089998836,175.44058899994707,175.44058899994707,175.44058899994707,178.4243791999761,j,0.7780752999824472,0.1835234999889508,178.42442569998093,178.4244368999498,None,178.4403811999946,178.4403811999946,178.4403811999946,,,,,,,,,,,,,,00056,001,2026-01-18_19h23.59.153,MST_task,2024.2.0,60.144732279541095,2026-01-18 19h24.06.328378 +0530,
,Scenes\021a.jpg,4,0,5,,,,,,,f,1.548517899995204,0.19166100001893938,None,,,,,,5,0,4,178.4403811999946,,,,,,,,,,,,,,,,,,,,,,,,,,,,,,178.42454320000252,178.4403811999946,178.9239729999681,,,,,,,,,,,,178.94230329996208,,,,,,,,,,,,,,,178.93998319999082,178.94230329996208,178.94230329996208,178.94230329996208,181.9405971999513,f,1.548517899995204,0.19166100001893938,181.940640899993,181.9406525999657,None,,,,,,,,,,,,,,,,,00056,001,2026-01-18_19h23.59.153,MST_task,2024.2.0,60.144732279541095,2026-01-18 19h24.06.328378 +0530,
,Scenes\066a.jpg,5,0,6,,,,,,,j,0.9205474000191316,0.1770923999720253,None,,,,,,6,0,5,181.9570746999816,,,,,,,,,,,,,,,,,,,,,,,,,,,,,,181.94071869994514,181.9570746999816,182.4406501999474,,,,,,,,,,,,182.45758609997574,,,,,,,,,,,,,,,182.4516592999571,182.45758609997574,182.45758609997574,182.45758609997574,185.44100759999128,j,0.9205474000191316,0.1770923999720253,185.4410517999786,185.44106269994518,None,185.4570029999595,185.4570029999595,185.4570029999595,,,,,,,,,,,,,,00056,001,2026-01-18_19h23.59.153,MST_task,2024.2.0,60.144732279541095,2026-01-18 19h24.06.328378 +0530,
,Scenes\061a.jpg,6,0,7,,,,,,,j,0.852684399986174,0.15999559999909252,None,,,,,,7,0,6,185.4570029999595,,,,,,,,,,,,,,,,,,,,,,,,,,,,,,185.4411668999819,185.4570029999595,185.94073370000115,,,,,,,,,,,,185.9575085999677,,,,,,,,,,,,,,,185.95246249996126,185.9575085999677,185.9575085999677,185.9575085999677,188.941209099954,j,0.852684399986174,0.15999559999909252,188.94126199994935,188.94127449998632,None,188.9571297999937,188.9571297999937,188.9571297999937,,,,,,,,,,,,,,00056,001,2026-01-18_19h23.59.153,MST_task,2024.2.0,60.144732279541095,2026-01-18 19h24.06.328378 +0530,
,Objects\112a.jpg,7,0,8,,,,,,,f,1.697893299977295,0.1669038000400178,None,,,,,,8,0,7,188.9571297999937,,,,,,,,,,,,,,,,,,,,,,,,,,,,,,188.94138719997136,188.9571297999937,189.4405795999919,,,,,,,,,,,,189.45743369997945,,,,,,,,,,,,,,,189.45463199994992,189.45743369997945,189.45743369997945,189.45743369997945,192.4410918999929,f,1.697893299977295,0.1669038000400178,192.44419589999598,192.44421539996983,None,192.45712399994954,192.45712399994954,192.45712399994954,,,,,,,,,,,,,,00056,001,2026-01-18_19h23.59.153,MST_task,2024.2.0,60.144732279541095,2026-01-18 19h24.06.328378 +0530,
,Objects\048a.jpg,8,0,9,,,,,,,f,2.277135099982843,0.19255050003994256,None,,,,,,9,0,8,192.45712399994954,,,,,,,,,,,,,,,,,,,,,,,,,,,,,,192.4442982999608,192.45712399994954,192.94067389995325,,,,,,,,,,,,192.95726659998763,,,,,,,,,,,,,,,192.95043489994714,192.95726659998763,192.95726659998763,192.95726659998763,195.94095329998527,f,2.277135099982843,0.19255050003994256,195.94099839997943,195.9410098999506,None,195.95706029998837,195.95706029998837,195.95706029998837,,,,,,,,,,,,,,00056,001,2026-01-18_19h23.59.153,MST_task,2024.2.0,60.144732279541095,2026-01-18 19h24.06.328378 +0530,
,Objects\164a.jpg,9,0,10,,,,,,,f,1.7541969000012614,0.19997500005410984,None,,,,,,10,0,9,195.95706029998837,,,,,,,,,,,,,,,,,,,,,,,,,,,,,,195.9410750999814,195.95706029998837,196.4406589999562,,,,,,,,,,,,196.45729729998857,,,,,,,,,,,,,,,196.45082659996115,196.45729729998857,196.45729729998857,196.45729729998857,199.4409803999588,f,1.7541969000012614,0.19997500005410984,199.44102529995143,199.4410359999747,None,199.45706739998423,199.45706739998423,199.45706739998423,,,,,,,,,,,,,,00056,001,2026-01-18_19h23.59.153,MST_task,2024.2.0,60.144732279541095,2026-01-18 19h24.06.328378 +0530,
,Objects\158a.jpg,10,0,11,,,,,,,f,1.205314000020735,0.2312777999904938,None,,,,,,11,0,10,199.45706739998423,,,,,,,,,,,,,,,,,,,,,,,,,,,,,,199.44113269995432,199.45706739998423,199.94067569996696,,,,,,,,,,,,199.95761869999114,,,,,,,,,,,,,,,199.9503627999802,199.95761869999114,199.95761869999114,199.95761869999114,202.9409478000016,f,1.205314000020735,0.2312777999904938,202.94099079997977,202.9410020999494,None,202.95707509998465,202.95707509998465,202.95707509998465,,,,,,,,,,,,,,00056,001,2026-01-18_19h23.59.153,MST_task,2024.2.0,60.144732279541095,2026-01-18 19h24.06.328378 +0530,
,Objects\127a.jpg,11,0,12,,,,,,,f,2.080821899988223,0.1439154000254348,None,,,,,,12,0,11,202.95707509998465,,,,,,,,,,,,,,,,,,,,,,,,,,,,,,202.94109829998342,202.95707509998465,203.44076799997129,,,,,,,,,,,,203.45748179999646,,,,,,,,,,,,,,,203.45019269996556,203.45748179999646,203.45748179999646,203.45748179999646,206.44098499999382,f,2.080821899988223,0.1439154000254348,206.44102739996742,206.44103899999755,None,206.45700469997246,206.45700469997246,206.45700469997246,,,,,,,,,,,,,,00056,001,2026-01-18_19h23.59.153,MST_task,2024.2.0,60.144732279541095,2026-01-18 19h24.06.328378 +0530,
,Objects\053a.jpg,12,0,13,,,,,,,f,0.8936025000293739,0.17606199998408556,None,,,,,,13,0,12,206.45700469997246,,,,,,,,,,,,,,,,,,,,,,,,,,,,,,206.44110419997014,206.45700469997246,206.9406667999574,,,,,,,,,,,,206.95730529999128,,,,,,,,,,,,,,,206.95039089996135,206.95730529999128,206.95730529999128,206.95730529999128,209.94119529996533,f,0.8936025000293739,0.17606199998408556,209.94124719995307,209.9412587999832,None,209.95710699999472,209.95710699999472,209.95710699999472,,,,,,,,,,,,,,00056,001,2026-01-18_19h23.59.153,MST_task,2024.2.0,60.144732279541095,2026-01-18 19h24.06.328378 +0530,
,Objects\038a.jpg,13,0,14,,,,,,,f,1.0818022000021301,0.2079960000119172,None,,,,,,14,0,13,209.95710699999472,,,,,,,,,,,,,,,,,,,,,,,,,,,,,,209.94136879994767,209.95710699999472,210.44071019999683,,,,,,,,,,,,210.45729559997562,,,,,,,,,,,,,,,210.44321919995127,210.45729559997562,210.45729559997562,210.45729559997562,213.4408729999559,f,1.0818022000021301,0.2079960000119172,213.44091559998924,213.44092689995887,None,213.457050899975,213.457050899975,213.457050899975,,,,,,,,,,,,,,00056,001,2026-01-18_19h23.59.153,MST_task,2024.2.0,60.144732279541095,2026-01-18 19h24.06.328378 +0530,
,Scenes\104a.jpg,14,0,15,,,,,,,f,2.5216989999753423,0.20799880003323779,None,,,,,,15,0,14,213.457050899975,,,,,,,,,,,,,,,,,,,,,,,,,,,,,,213.4410319000017,213.457050899975,213.94059089996153,,,,,,,,,,,,213.9610973999952,,,,,,,,,,,,,,,213.95879659999628,213.9610973999952,213.9610973999952,213.9610973999952,216.95730199996615,f,2.5216989999753423,0.20799880003323779,216.95897009997861,216.958989799954,None,,,,,,,,,,,,,,,,,00056,001,2026-01-18_19h23.59.153,MST_task,2024.2.0,60.144732279541095,2026-01-18 19h24.06.328378 +0530,
,Scenes\072a.jpg,15,0,16,,,,,,,j,1.4204558999626897,0.16799909999826923,None,,,,,,16,0,15,216.9736191999982,,,,,,,,,,,,,,,,,,,,,,,,,,,,,,216.95906209998066,216.9736191999982,217.4574428999913,,,,,,,,,,,,217.4778260999592,,,,,,,,,,,,,,,217.47552669997094,217.4778260999592,217.4778260999592,217.4778260999592,220.4738918999792,j,1.4204558999626897,0.16799909999826923,220.4739371999749,220.4739490999491,None,,,,,,,,,,,,,,,,,00056,001,2026-01-18_19h23.59.153,MST_task,2024.2.0,60.144732279541095,2026-01-18 19h24.06.328378 +0530,
,Scenes\192a.jpg,16,0,17,,,,,,,j,1.2920252000330947,0.15311209997162223,None,,,,,,17,0,16,220.49042699998245,,,,,,,,,,,,,,,,,,,,,,,,,,,,,,220.47404599998845,220.49042699998245,220.9738437999622,,,,,,,,,,,,220.99091489997227,,,,,,,,,,,,,,,220.98746879998362,220.99091489997227,220.99091489997227,220.99091489997227,223.97412109997822,j,1.2920252000330947,0.15311209997162223,223.97416389995487,223.9741746999789,None,223.99041359999683,223.99041359999683,223.99041359999683,,,,,,,,,,,,,,00056,001,2026-01-18_19h23.59.153,MST_task,2024.2.0,60.144732279541095,2026-01-18 19h24.06.328378 +0530,
,Scenes\180a.jpg,17,0,18,,,,,,,j,0.7905575000331737,0.1679774000076577,None,,,,,,18,0,17,223.99041359999683,,,,,,,,,,,,,,,,,,,,,,,,,,,,,,223.9742429999751,223.99041359999683,224.47416029998567,,,,,,,,,,,,224.4919998999685,,,,,,,,,,,,,,,224.48921339999652,224.4919998999685,224.4919998999685,224.4919998999685,227.49068889999762,j,0.7905575000331737,0.1679774000076577,227.49073349998798,227.49074529996142,None,,,,,,,,,,,,,,,,,00056,001,2026-01-18_19h23.59.153,MST_task,2024.2.0,60.144732279541095,2026-01-18 19h24.06.328378 +0530,
,Scenes\053a.jpg,18,0,19,,,,,,,j,2.0913111999980174,0.17556459998013452,None,,,,,,19,0,18,227.5070722999517,,,,,,,,,,,,,,,,,,,,,,,,,,,,,,227.49081239994848,227.5070722999517,227.99066289997427,,,,,,,,,,,,228.00754579994828,,,,,,,,,,,,,,,228.00008059997344,228.00754579994828,228.00754579994828,228.00754579994828,230.9909794999985,j,2.0913111999980174,0.17556459998013452,230.99102409998886,230.99103549995925,None,231.00710009998875,231.00710009998875,231.00710009998875,,,,,,,,,,,,,,00056,001,2026-01-18_19h23.59.153,MST_task,2024.2.0,60.144732279541095,2026-01-18 19h24.06.328378 +0530,
,Scenes\165a.jpg,19,0,20,,,,,,,f,1.855366599978879,0.1756292000063695,None,,,,,,20,0,19,231.00710009998875,,,,,,,,,,,,,,,,,,,,,,,,,,,,,,230.9911329000024,231.00710009998875,231.49069639999652,,,,,,,,,,,,231.5075203999877,,,,,,,,,,,,,,,231.50086169998394,231.5075203999877,231.5075203999877,231.5075203999877,234.4910531999776,f,1.855366599978879,0.1756292000063695,234.49109909997787,234.49111009994522,None,234.50706429994898,234.50706429994898,234.50706429994898,,,,,,,,,,,,,,00056,001,2026-01-18_19h23.59.153,MST_task,2024.2.0,60.144732279541095,2026-01-18 19h24.06.328378 +0530,
,Scenes\088a.jpg,20,0,21,,,,,,,j,0.7551655999850482,0.17605359997833148,None,,,,,,21,0,20,234.50706429994898,,,,,,,,,,,,,,,,,,,,,,,,,,,,,,234.491177399992,234.50706429994898,234.99064659996657,,,,,,,,,,,,235.01520470000105,,,,,,,,,,,,,,,235.01269019994652,235.01520470000105,235.01520470000105,235.01520470000105,238.0073317999486,j,0.7551655999850482,0.17605359997833148,238.0073749999865,238.0073865999584,None,,,,,,,,,,,,,,,,,00056,001,2026-01-18_19h23.59.153,MST_task,2024.2.0,60.144732279541095,2026-01-18 19h24.06.328378 +0530,
,Objects\187a.jpg,21,0,22,,,,,,,f,0.950431400036905,0.22500779997790232,None,,,,,,22,0,21,238.02361269999528,,,,,,,,,,,,,,,,,,,,,,,,,,,,,,238.00748319999548,238.02361269999528,238.50739009998506,,,,,,,,,,,,238.5242260999512,,,,,,,,,,,,,,,238.51914140000008,238.5242260999512,238.5242260999512,238.5242260999512,241.50761799997417,f,0.950431400036905,0.22500779997790232,241.50967589998618,241.5096932000015,None,241.5236723999842,241.5236723999842,241.5236723999842,,,,,,,,,,,,,,00056,001,2026-01-18_19h23.59.153,MST_task,2024.2.0,60.144732279541095,2026-01-18 19h24.06.328378 +0530,
,Objects\020a.jpg,22,0,23,,,,,,,j,1.80295419995673,0.18391970003722236,None,,,,,,23,0,22,241.5236723999842,,,,,,,,,,,,,,,,,,,,,,,,,,,,,,241.5097958999686,241.5236723999842,242.00733549997676,,,,,,,,,,,,242.02419599995483,,,,,,,,,,,,,,,242.01704429998063,242.02419599995483,242.02419599995483,242.02419599995483,245.00770469999406,j,1.80295419995673,0.18391970003722236,245.00774609996006,245.00775749998866,None,245.02359899994917,245.02359899994917,245.02359899994917,,,,,,,,,,,,,,00056,001,2026-01-18_19h23.59.153,MST_task,2024.2.0,60.144732279541095,2026-01-18 19h24.06.328378 +0530,
,Objects\037a.jpg,23,0,24,,,,,,,f,0.7829554000054486,0.15204150002682582,None,,,,,,24,0,23,245.02359899994917,,,,,,,,,,,,,,,,,,,,,,,,,,,,,,245.00785589998122,245.02359899994917,245.5073009999469,,,,,,,,,,,,245.52395689999685,,,,,,,,,,,,,,,245.51732079999056,245.52395689999685,245.52395689999685,245.52395689999685,248.50803440000163,f,0.7829554000054486,0.15204150002682582,248.50807729997905,248.50808909995249,None,248.52381489996333,248.52381489996333,248.52381489996333,,,,,,,,,,,,,,00056,001,2026-01-18_19h23.59.153,MST_task,2024.2.0,60.144732279541095,2026-01-18 19h24.06.328378 +0530,
,Objects\089a.jpg,24,0,25,,,,,,,j,1.7388144999858923,0.1840006000129506,None,,,,,,25,0,24,248.52381489996333,,,,,,,,,,,,,,,,,,,,,,,,,,,,,,248.50818989996333,248.52381489996333,249.0075441999943,,,,,,,,,,,,249.02403679996496,,,,,,,,,,,,,,,249.0182913999888,249.02403679996496,249.02403679996496,249.02403679996496,252.00773749995278,j,1.7388144999858923,0.1840006000129506,252.00778109999374,252.00779199996032,None,252.0238591999514,252.0238591999514,252.0238591999514,,,,,,,,,,,,,,00056,001,2026-01-18_19h23.59.153,MST_task,2024.2.0,60.144732279541095,2026-01-18 19h24.06.328378 +0530,
,Objects\153a.jpg,25,0,26,,,,,,,f,0.7104574000113644,0.17596980003872886,None,,,,,,26,0,25,252.0238591999514,,,,,,,,,,,,,,,,,,,,,,,,,,,,,,252.00789039995288,252.0238591999514,252.50744269997813,,,,,,,,,,,,252.52426119998563,,,,,,,,,,,,,,,252.5170280999737,252.52426119998563,252.52426119998563,252.52426119998563,255.50776529998984,f,0.7104574000113644,0.17596980003872886,255.50781239999924,255.50782369996887,None,255.52378019999014,255.52378019999014,255.52378019999014,,,,,,,,,,,,,,00056,001,2026-01-18_19h23.59.153,MST_task,2024.2.0,60.144732279541095,2026-01-18 19h24.06.328378 +0530,
,Objects\013a.jpg,26,0,27,,,,,,,j,1.1866757000098005,0.17599620000692084,None,,,,,,27,0,26,255.52378019999014,,,,,,,,,,,,,,,,,,,,,,,,,,,,,,255.50789289997192,255.52378019999014,256.00739139999496,,,,,,,,,,,,256.0240956999478,,,,,,,,,,,,,,,256.0172698999522,256.0240956999478,256.0240956999478,256.0240956999478,259.0077047999948,j,1.1866757000098005,0.17599620000692084,259.0077483999776,259.0077596999472,None,259.02379979996476,259.02379979996476,259.02379979996476,,,,,,,,,,,,,,00056,001,2026-01-18_19h23.59.153,MST_task,2024.2.0,60.144732279541095,2026-01-18 19h24.06.328378 +0530,
,Objects\147a.jpg,27,0,28,,,,,,,f,0.974635099992156,0.19194699998479337,None,,,,,,28,0,27,259.02379979996476,,,,,,,,,,,,,,,,,,,,,,,,,,,,,,259.0078264999902,259.02379979996476,259.5075640999712,,,,,,,,,,,,259.5242449999787,,,,,,,,,,,,,,,259.51800769998226,259.5242449999787,259.5242449999787,259.5242449999787,262.5078623999725,f,0.974635099992156,0.19194699998479337,262.5079094999819,262.5079211999546,None,262.5238485999871,262.5238485999871,262.5238485999871,,,,,,,,,,,,,,00056,001,2026-01-18_19h23.59.153,MST_task,2024.2.0,60.144732279541095,2026-01-18 19h24.06.328378 +0530,
,Scenes\190a.jpg,28,0,29,,,,,,,j,0.6524527000146918,0.17667010001605377,None,,,,,,29,0,28,262.5238485999871,,,,,,,,,,,,,,,,,,,,,,,,,,,,,,262.5079898999538,262.5238485999871,263.0076342999819,,,,,,,,,,,,263.03015099995537,,,,,,,,,,,,,,,263.02775939996354,263.03015099995537,263.03015099995537,263.03015099995537,266.0239347000024,j,0.6524527000146918,0.17667010001605377,266.02588669996476,266.0259075999493,None,,,,,,,,,,,,,,,,,00056,001,2026-01-18_19h23.59.153,MST_task,2024.2.0,60.144732279541095,2026-01-18 19h24.06.328378 +0530,
,Scenes\162a.jpg,29,0,30,,,,,,,j,1.564996900036931,0.1840066000004299,None,,,,,,30,0,29,266.04046959994594,,,,,,,,,,,,,,,,,,,,,,,,,,,,,,266.0259944999707,266.04046959994594,266.5239541999763,,,,,,,,,,,,266.5412228999776,,,,,,,,,,,,,,,266.53663779998897,266.5412228999776,266.5412228999776,266.5412228999776,269.5243747999775,j,1.564996900036931,0.1840066000004299,269.52442390000215,269.5244358999771,None,269.5405107999686,269.5405107999686,269.5405107999686,,,,,,,,,,,,,,00056,001,2026-01-18_19h23.59.153,MST_task,2024.2.0,60.144732279541095,2026-01-18 19h24.06.328378 +0530,
,Scenes\145a.jpg,30,0,31,,,,,,,j,0.8780813999474049,0.18465480004670098,None,,,,,,31,0,30,269.5405107999686,,,,,,,,,,,,,,,,,,,,,,,,,,,,,,269.5245437999838,269.5405107999686,270.024103899952,,,,,,,,,,,,270.04414479999105,,,,,,,,,,,,,,,270.04176890000235,270.04414479999105,270.04414479999105,270.04414479999105,273.04069749999326,j,0.8780813999474049,0.18465480004670098,273.0407413999783,273.040753499954,None,,,,,,,,,,,,,,,,,00056,001,2026-01-18_19h23.59.153,MST_task,2024.2.0,60.144732279541095,2026-01-18 19h24.06.328378 +0530,
,Scenes\189a.jpg,31,0,32,,,,,,,j,0.6743697000201792,0.16827889997512102,None,,,,,,32,0,31,273.0571967999567,,,,,,,,,,,,,,,,,,,,,,,,,,,,,,273.04085219994886,273.0571967999567,273.5409377999604,,,,,,,,,,,,273.5607206999557,,,,,,,,,,,,,,,273.5584409000003,273.5607206999557,273.5607206999557,273.5607206999557,276.5574037999613,j,0.6743697000201792,0.16827889997512102,276.55744699999923,276.5574584999704,None,,,,,,,,,,,,,,,,,00056,001,2026-01-18_19h23.59.153,MST_task,2024.2.0,60.144732279541095,2026-01-18 19h24.06.328378 +0530,
,Scenes\152a.jpg,32,0,33,,,,,,,j,1.3036625999957323,0.151942600030452,None,,,,,,33,0,32,276.5738627999672,,,,,,,,,,,,,,,,,,,,,,,,,,,,,,276.55752689996734,276.5738627999672,277.0574156999937,,,,,,,,,,,,277.0745785999461,,,,,,,,,,,,,,,277.0703131999471,277.0745785999461,277.0745785999461,277.0745785999461,280.05766689998563,j,1.3036625999957323,0.151942600030452,280.0577121999813,280.057723899954,None,,,,,,,,,,,,,,,,,00056,001,2026-01-18_19h23.59.153,MST_task,2024.2.0,60.144732279541095,2026-01-18 19h24.06.328378 +0530,
,Scenes\074a.jpg,33,0,34,,,,,,,j,1.9801172000006773,0.16799829999217764,None,,,,,,34,0,33,280.0738674000022,,,,,,,,,,,,,,,,,,,,,,,,,,,,,,280.0578260999755,280.0738674000022,280.5574834999861,,,,,,,,,,,,280.57497199997306,,,,,,,,,,,,,,,280.57278319995385,280.57497199997306,280.57497199997306,280.57497199997306,283.5739454999566,j,1.9801172000006773,0.16799829999217764,283.5739889999968,283.5740011999733,None,,,,,,,,,,,,,,,,,00056,001,2026-01-18_19h23.59.153,MST_task,2024.2.0,60.144732279541095,2026-01-18 19h24.06.328378 +0530,
,Scenes\125a.jpg,34,0,35,,,,,,,j,0.6296249000006355,0.15999580000061542,None,,,,,,35,0,34,283.590533999959,,,,,,,,,,,,,,,,,,,,,,,,,,,,,,283.5741002999712,283.590533999959,284.0741162999766,,,,,,,,,,,,284.09314979997,,,,,,,,,,,,,,,284.0909068999463,284.09314979997,284.09314979997,284.09314979997,287.09079419996124,j,0.6296249000006355,0.15999580000061542,287.09083709999686,287.09084929997334,None,,,,,,,,,,,,,,,,,00056,001,2026-01-18_19h23.59.153,MST_task,2024.2.0,60.144732279541095,2026-01-18 19h24.06.328378 +0530,
,Objects\108a.jpg,35,0,36,,,,,,,j,1.0436590999597684,0.16706920001888648,None,,,,,,36,0,35,287.10726959997555,,,,,,,,,,,,,,,,,,,,,,,,,,,,,,287.0909487999743,287.10726959997555,287.59079829999246,,,,,,,,,,,,287.6076878999593,,,,,,,,,,,,,,,287.59628019999946,287.6076878999593,287.6076878999593,287.6076878999593,290.5912133999518,j,1.0436590999597684,0.16706920001888648,290.593349999981,290.5933682999457,None,290.60713759995997,290.60713759995997,290.60713759995997,,,,,,,,,,,,,,00056,001,2026-01-18_19h23.59.153,MST_task,2024.2.0,60.144732279541095,2026-01-18 19h24.06.328378 +0530,
,Objects\060a.jpg,36,0,37,,,,,,,f,2.1112475999980234,0.17599959997460246,None,,,,,,37,0,36,290.60713759995997,,,,,,,,,,,,,,,,,,,,,,,,,,,,,,290.5934753999463,290.60713759995997,291.09069459995953,,,,,,,,,,,,291.1074603999732,,,,,,,,,,,,,,,291.1016238000011,291.1074603999732,291.1074603999732,291.1074603999732,294.09129769995343,f,2.1112475999980234,0.17599959997460246,294.0913489999948,294.0913598999614,None,294.10726909997175,294.10726909997175,294.10726909997175,,,,,,,,,,,,,,00056,001,2026-01-18_19h23.59.153,MST_task,2024.2.0,60.144732279541095,2026-01-18 19h24.06.328378 +0530,
,Objects\132a.jpg,37,0,38,,,,,,,f,0.7792373999836855,0.192478500015568,None,,,,,,38,0,37,294.10726909997175,,,,,,,,,,,,,,,,,,,,,,,,,,,,,,294.09142779995454,294.10726909997175,294.5910038999864,,,,,,,,,,,,294.6073677999666,,,,,,,,,,,,,,,294.60051609994844,294.6073677999666,294.6073677999666,294.6073677999666,297.5910806999891,f,0.7792373999836855,0.192478500015568,297.59113079996314,297.591142499994,None,297.60718349996023,297.60718349996023,297.60718349996023,,,,,,,,,,,,,,00056,001,2026-01-18_19h23.59.153,MST_task,2024.2.0,60.144732279541095,2026-01-18 19h24.06.328378 +0530,
,Objects\126a.jpg,38,0,39,,,,,,,j,1.8234503000276163,0.1440209000138566,None,,,,,,39,0,38,297.60718349996023,,,,,,,,,,,,,,,,,,,,,,,,,,,,,,297.5912486999878,297.60718349996023,298.09078639996005,,,,,,,,,,,,298.1073157999781,,,,,,,,,,,,,,,298.10012669995194,298.1073157999781,298.1073157999781,298.1073157999781,301.09145729994634,j,1.8234503000276163,0.1440209000138566,301.09152479999466,301.09153849998256,None,301.1072124999482,301.1072124999482,301.1072124999482,,,,,,,,,,,,,,00056,001,2026-01-18_19h23.59.153,MST_task,2024.2.0,60.144732279541095,2026-01-18 19h24.06.328378 +0530,
,Objects\077a.jpg,39,0,40,,,,,,,None,,,j,0.3397879999829456,None,,,,40,0,39,301.1072124999482,,,,,,,,,,,,,,,,,,,,,,,,,,,,,,301.0916133999708,301.1072124999482,301.59078249998856,,,,,,,,,,,,301.6073848999804,,,,,,,,,,,,,,,301.6001317999908,301.6073848999804,301.6073848999804,301.6073848999804,304.59109969995916,None,,,304.5911394999712,304.9576169999782,j,304.60714019997977,304.60714019997977,304.60714019997977,304.60714019997977,304.60714019997977,0.3397879999829456,None,,,,,,,,,,00056,001,2026-01-18_19h23.59.153,MST_task,2024.2.0,60.144732279541095,2026-01-18 19h24.06.328378 +0530,
,Objects\188a.jpg,40,0,41,,,,,,,f,2.0488642000127584,0.16813050000928342,None,,,,,,41,0,40,304.97359499998856,,,,,,,,,,,,,,,,,,,,,,,,,,,,,,304.95774549996713,304.97359499998856,305.45763209997676,,,,,,,,,,,,305.47404000000097,,,,,,,,,,,,,,,305.46772219997365,305.47404000000097,305.47404000000097,305.47404000000097,308.4576785999816,f,2.0488642000127584,0.16813050000928342,308.4577201999491,308.45773099997314,None,308.4736305999686,308.4736305999686,308.4736305999686,,,,,,,,,,,,,,00056,001,2026-01-18_19h23.59.153,MST_task,2024.2.0,60.144732279541095,2026-01-18 19h24.06.328378 +0530,
,Objects\100a.jpg,41,0,42,,,,,,,f,1.1809666999615729,0.15984710003249347,None,,,,,,42,0,41,308.4736305999686,,,,,,,,,,,,,,,,,,,,,,,,,,,,,,308.4578272999497,308.4736305999686,308.95748729998013,,,,,,,,,,,,308.97394820000045,,,,,,,,,,,,,,,308.9672884999891,308.97394820000045,308.97394820000045,308.97394820000045,311.9579996999819,f,1.1809666999615729,0.15984710003249347,311.95804889994906,311.95806089998223,None,311.9737272999482,311.9737272999482,311.9737272999482,,,,,,,,,,,,,,00056,001,2026-01-18_19h23.59.153,MST_task,2024.2.0,60.144732279541095,2026-01-18 19h24.06.328378 +0530,
,Scenes\087a.jpg,42,0,43,,,,,,,j,1.608149699983187,0.13598610000917688,None,,,,,,43,0,42,311.9737272999482,,,,,,,,,,,,,,,,,,,,,,,,,,,,,,311.9581370999804,311.9737272999482,312.457359299995,,,,,,,,,,,,312.47415909997653,,,,,,,,,,,,,,,312.4644348999718,312.47415909997653,312.47415909997653,312.47415909997653,315.45762309996644,j,1.608149699983187,0.13598610000917688,315.4593581999652,315.4593762999866,None,315.4736096999841,315.4736096999841,315.4736096999841,,,,,,,,,,,,,,00056,001,2026-01-18_19h23.59.153,MST_task,2024.2.0,60.144732279541095,2026-01-18 19h24.06.328378 +0530,
,Scenes\045a.jpg,43,0,44,,,,,,,f,2.9192844000062905,None,None,,,,,,44,0,43,315.4736096999841,,,,,,,,,,,,,,,,,,,,,,,,,,,,,,315.45944690000033,315.4736096999841,315.95733789994847,,,,,,,,,,,,315.97900599997956,,,,,,,,,,,,,,,315.97650079999585,315.97900599997956,315.97900599997956,315.97900599997956,318.9739506999613,f,2.9192844000062905,None,318.97399399999995,318.9740062999772,None,,,,,,,,,,,,,,,,,00056,001,2026-01-18_19h23.59.153,MST_task,2024.2.0,60.144732279541095,2026-01-18 19h24.06.328378 +0530,
,Scenes\028a.jpg,44,0,45,,,,,,,j,1.263570700015407,0.1439200000022538,None,,,,,,45,0,44,318.99038249999285,,,,,,,,,,,,,,,,,,,,,,,,,,,,,,318.974073499965,318.99038249999285,319.4741358999745,,,,,,,,,,,,319.49121659999946,,,,,,,,,,,,,,,319.48849279998103,319.49121659999946,319.49121659999946,319.49121659999946,322.47426539997105,j,1.263570700015407,0.1439200000022538,322.4743102999637,322.47432149999077,None,322.4904136999976,322.4904136999976,322.4904136999976,,,,,,,,,,,,,,00056,001,2026-01-18_19h23.59.153,MST_task,2024.2.0,60.144732279541095,2026-01-18 19h24.06.328378 +0530,
,Scenes\158a.jpg,45,0,46,,,,,,,j,1.29660880001029,0.16084409999893978,None,,,,,,46,0,45,322.4904136999976,,,,,,,,,,,,,,,,,,,,,,,,,,,,,,322.47441699996125,322.4904136999976,322.97405059996527,,,,,,,,,,,,322.99406389996875,,,,,,,,,,,,,,,322.9915995999472,322.99406389996875,322.99406389996875,322.99406389996875,325.9907034999924,j,1.29660880001029,0.16084409999893978,325.9907466999721,325.9907590999501,None,,,,,,,,,,,,,,,,,00056,001,2026-01-18_19h23.59.153,MST_task,2024.2.0,60.144732279541095,2026-01-18 19h24.06.328378 +0530,
,Scenes\144a.jpg,46,0,47,,,,,,,j,0.7196026999736205,0.14289580000331625,None,,,,,,47,0,46,326.007147999946,,,,,,,,,,,,,,,,,,,,,,,,,,,,,,325.9908283999539,326.007147999946,326.49069809995126,,,,,,,,,,,,326.50776609999593,,,,,,,,,,,,,,,326.50465540000005,326.50776609999593,326.50776609999593,326.50776609999593,329.4911942999461,j,0.7196026999736205,0.14289580000331625,329.4912418999593,329.49125339998864,None,329.50713089999044,329.50713089999044,329.50713089999044,,,,,,,,,,,,,,00056,001,2026-01-18_19h23.59.153,MST_task,2024.2.0,60.144732279541095,2026-01-18 19h24.06.328378 +0530,
,Scenes\103a.jpg,47,0,48,,,,,,,j,1.8506946000270545,0.14448529999936,None,,,,,,48,0,47,329.50713089999044,,,,,,,,,,,,,,,,,,,,,,,,,,,,,,329.491358499974,329.50713089999044,329.9907329999842,,,,,,,,,,,,330.00768349994905,,,,,,,,,,,,,,,330.00087429996347,330.00768349994905,330.00768349994905,330.00768349994905,332.9910593999666,j,1.8506946000270545,0.14448529999936,332.9911005999893,332.9911114999559,None,333.0071125999675,333.0071125999675,333.0071125999675,,,,,,,,,,,,,,00056,001,2026-01-18_19h23.59.153,MST_task,2024.2.0,60.144732279541095,2026-01-18 19h24.06.328378 +0530,
,Scenes\156a.jpg,48,0,49,,,,,,,j,0.8549607000313699,0.16077899996889755,None,,,,,,49,0,48,333.0071125999675,,,,,,,,,,,,,,,,,,,,,,,,,,,,,,332.99120889999904,333.0071125999675,333.4906743999454,,,,,,,,,,,,333.50736089999555,,,,,,,,,,,,,,,333.5045366999693,333.50736089999555,333.50736089999555,333.50736089999555,336.4911853999947,j,0.8549607000313699,0.16077899996889755,336.49123289994895,336.4912444999791,None,336.50761489995057,336.50761489995057,336.50761489995057,,,,,,,,,,,,,,00056,001,2026-01-18_19h23.59.153,MST_task,2024.2.0,60.144732279541095,2026-01-18 19h24.06.328378 +0530,
,Objects\046a.jpg,49,0,50,,,,,,,f,1.2267689000000246,0.19993980001891032,None,,,,,,50,0,49,336.50761489995057,,,,,,,,,,,,,,,,,,,,,,,,,,,,,,336.4913523999858,336.50761489995057,336.99104639998404,,,,,,,,,,,,337.00763670000015,,,,,,,,,,,,,,,337.00250229996163,337.00763670000015,337.00763670000015,337.00763670000015,339.99101609998615,f,1.2267689000000246,0.19993980001891032,339.99299459997565,339.9930120999925,None,340.00714509998215,340.00714509998215,340.00714509998215,,,,,,,,,,,,,,00056,001,2026-01-18_19h23.59.153,MST_task,2024.2.0,60.144732279541095,2026-01-18 19h24.06.328378 +0530,
,Objects\059a.jpg,50,0,51,,,,,,,j,2.30263529997319,0.17598659999202937,None,,,,,,51,0,50,340.00714509998215,,,,,,,,,,,,,,,,,,,,,,,,,,,,,,339.99309059994994,340.00714509998215,340.490748399985,,,,,,,,,,,,340.5076717999764,,,,,,,,,,,,,,,340.50013599998783,340.5076717999764,340.5076717999764,340.5076717999764,343.49096279998776,j,2.30263529997319,0.17598659999202937,343.49100939999335,343.49102129996754,None,343.50711849995423,343.50711849995423,343.50711849995423,,,,,,,,,,,,,,00056,001,2026-01-18_19h23.59.153,MST_task,2024.2.0,60.144732279541095,2026-01-18 19h24.06.328378 +0530,
,Objects\027a.jpg,51,0,52,,,,,,,f,0.9311554000014439,0.20866750000277534,None,,,,,,52,0,51,343.50711849995423,,,,,,,,,,,,,,,,,,,,,,,,,,,,,,343.49111959995935,343.50711849995423,343.9907532999641,,,,,,,,,,,,344.0073620999465,,,,,,,,,,,,,,,344.0000576999737,344.0073620999465,344.0073620999465,344.0073620999465,346.9911233999883,f,0.9311554000014439,0.20866750000277534,346.9911735999631,346.9911853999947,None,347.00711899995804,347.00711899995804,347.00711899995804,,,,,,,,,,,,,,00056,001,2026-01-18_19h23.59.153,MST_task,2024.2.0,60.144732279541095,2026-01-18 19h24.06.328378 +0530,
,Objects\114a.jpg,52,0,53,,,,,,,f,0.8632383000222035,0.19177670002682135,None,,,,,,53,0,52,347.00711899995804,,,,,,,,,,,,,,,,,,,,,,,,,,,,,,346.99125359999016,347.00711899995804,347.4907033999916,,,,,,,,,,,,347.5073635999579,,,,,,,,,,,,,,,347.50015539996093,347.5073635999579,347.5073635999579,347.5073635999579,350.49103189999005,f,0.8632383000222035,0.19177670002682135,350.49107930000173,350.4910902999691,None,350.5070608999813,350.5070608999813,350.5070608999813,,,,,,,,,,,,,,00056,001,2026-01-18_19h23.59.153,MST_task,2024.2.0,60.144732279541095,2026-01-18 19h24.06.328378 +0530,
,Objects\042a.jpg,53,0,54,,,,,,,j,1.4354952000430785,0.15995009994367138,None,,,,,,54,0,53,350.5070608999813,,,,,,,,,,,,,,,,,,,,,,,,,,,,,,350.4911579999607,350.5070608999813,350.9907145999605,,,,,,,,,,,,351.00729539996246,,,,,,,,,,,,,,,351.00204299995676,351.00729539996246,351.00729539996246,351.00729539996246,353.9912004999933,j,1.4354952000430785,0.15995009994367138,353.9912516999757,353.9912634999491,None,354.0071503999643,354.0071503999643,354.0071503999643,,,,,,,,,,,,,,00056,001,2026-01-18_19h23.59.153,MST_task,2024.2.0,60.144732279541095,2026-01-18 19h24.06.328378 +0530,
,Objects\120a.jpg,54,0,55,,,,,,,f,0.7593053000164218,0.1839944000239484,None,,,,,,55,0,54,354.0071503999643,,,,,,,,,,,,,,,,,,,,,,,,,,,,,,353.9913385999971,354.0071503999643,354.4907445999561,,,,,,,,,,,,354.50729329994647,,,,,,,,,,,,,,,354.5000064999913,354.50729329994647,354.50729329994647,354.50729329994647,357.4912699999986,f,0.7593053000164218,0.1839944000239484,357.4913188999635,357.4913305999944,None,357.5071237999946,357.5071237999946,357.5071237999946,,,,,,,,,,,,,,00056,001,2026-01-18_19h23.59.153,MST_task,2024.2.0,60.144732279541095,2026-01-18 19h24.06.328378 +0530,
,Objects\051a.jpg,55,0,56,,,,,,,j,0.9554957000073045,0.18398679996607825,None,,,,,,56,0,55,357.5071237999946,,,,,,,,,,,,,,,,,,,,,,,,,,,,,,357.49139829998603,357.5071237999946,357.9906728999922,,,,,,,,,,,,358.007364399964,,,,,,,,,,,,,,,358.00014679995365,358.007364399964,358.007364399964,358.007364399964,360.99099099996965,j,0.9554957000073045,0.18398679996607825,360.99103779997677,360.9910497999517,None,361.00712029996794,361.00712029996794,361.00712029996794,,,,,,,,,,,,,,00056,001,2026-01-18_19h23.59.153,MST_task,2024.2.0,60.144732279541095,2026-01-18 19h24.06.328378 +0530,
,Scenes\178a.jpg,56,0,57,,,,,,,j,2.109115800005384,0.1679706999566406,None,,,,,,57,0,56,361.00712029996794,,,,,,,,,,,,,,,,,,,,,,,,,,,,,,360.9911160999909,361.00712029996794,361.49072269996395,,,,,,,,,,,,361.5092372999643,,,,,,,,,,,,,,,361.5068108999985,361.5092372999643,361.5092372999643,361.5092372999643,364.50729359994875,j,2.109115800005384,0.1679706999566406,364.50904469995294,364.5090636999812,None,,,,,,,,,,,,,,,,,00056,001,2026-01-18_19h23.59.153,MST_task,2024.2.0,60.144732279541095,2026-01-18 19h24.06.328378 +0530,
,Scenes\172a.jpg,57,0,58,,,,,,,j,1.0673588999779895,0.15882210002746433,None,,,,,,58,0,57,364.5236196999904,,,,,,,,,,,,,,,,,,,,,,,,,,,,,,364.5091357999481,364.5236196999904,365.00728510000044,,,,,,,,,,,,365.02439029997913,,,,,,,,,,,,,,,365.0142539999797,365.02439029997913,365.02439029997913,365.02439029997913,368.0077811999945,j,1.0673588999779895,0.15882210002746433,368.0078302999609,368.0078417999903,None,368.0236601999495,368.0236601999495,368.0236601999495,,,,,,,,,,,,,,00056,001,2026-01-18_19h23.59.153,MST_task,2024.2.0,60.144732279541095,2026-01-18 19h24.06.328378 +0530,
,Scenes\160a.jpg,58,0,59,,,,,,,j,0.711074799997732,0.1824536999920383,None,,,,,,59,0,58,368.0236601999495,,,,,,,,,,,,,,,,,,,,,,,,,,,,,,368.00791069999104,368.0236601999495,368.5075159999542,,,,,,,,,,,,368.52538629999617,,,,,,,,,,,,,,,368.52254289999837,368.52538629999617,368.52538629999617,368.52538629999617,371.52400109998416,j,0.711074799997732,0.1824536999920383,371.52404509996995,371.5240570999449,None,,,,,,,,,,,,,,,,,00056,001,2026-01-18_19h23.59.153,MST_task,2024.2.0,60.144732279541095,2026-01-18 19h24.06.328378 +0530,
,Scenes\176a.jpg,59,0,60,,,,,,,j,0.993551799969282,0.14350310002919286,None,,,,,,60,0,59,371.5406106999726,,,,,,,,,,,,,,,,,,,,,,,,,,,,,,371.5241579999565,371.5406106999726,372.02401689998806,,,,,,,,,,,,372.0411956999451,,,,,,,,,,,,,,,372.0342491999618,372.0411956999451,372.0411956999451,372.0411956999451,375.02417239994975,j,0.993551799969282,0.14350310002919286,375.0242213999736,375.0242337999516,None,,,,,,,,,,,,,,,,,00056,001,2026-01-18_19h23.59.153,MST_task,2024.2.0,60.144732279541095,2026-01-18 19h24.06.328378 +0530,
,Scenes\149a.jpg,60,0,61,,,,,,,f,1.6365553999785334,0.19096279999939725,None,,,,,,61,0,60,375.0405281999847,,,,,,,,,,,,,,,,,,,,,,,,,,,,,,375.0243065999821,375.0405281999847,375.524264299951,,,,,,,,,,,,375.54282549995696,,,,,,,,,,,,,,,375.5406391999568,375.54282549995696,375.54282549995696,375.54282549995696,378.540813999949,f,1.6365553999785334,0.19096279999939725,378.5408562999801,378.5408675999497,None,,,,,,,,,,,,,,,,,00056,001,2026-01-18_19h23.59.153,MST_task,2024.2.0,60.144732279541095,2026-01-18 19h24.06.328378 +0530,
,Scenes\096a.jpg,61,0,62,,,,,,,j,0.8564584000268951,0.17654389998642728,None,,,,,,62,0,61,378.55724199995166,,,,,,,,,,,,,,,,,,,,,,,,,,,,,,378.5409348999965,378.55724199995166,379.0408210000023,,,,,,,,,,,,379.0579214999452,,,,,,,,,,,,,,,379.05270209995797,379.0579214999452,379.0579214999452,379.0579214999452,382.04121939995093,j,0.8564584000268951,0.17654389998642728,382.0412634999957,382.0412747999653,None,382.05725179996807,382.05725179996807,382.05725179996807,,,,,,,,,,,,,,00056,001,2026-01-18_19h23.59.153,MST_task,2024.2.0,60.144732279541095,2026-01-18 19h24.06.328378 +0530,
,Scenes\026a.jpg,62,0,63,,,,,,,j,0.7617851000395603,0.16791329998522997,None,,,,,,63,0,62,382.05725179996807,,,,,,,,,,,,,,,,,,,,,,,,,,,,,,382.04137409996474,382.05725179996807,382.54097069997806,,,,,,,,,,,,382.5611886999686,,,,,,,,,,,,,,,382.55892369995127,382.5611886999686,382.5611886999686,382.5611886999686,385.55757579999045,j,0.7617851000395603,0.16791329998522997,385.55762469995534,385.55763689999003,None,,,,,,,,,,,,,,,,,00056,001,2026-01-18_19h23.59.153,MST_task,2024.2.0,60.144732279541095,2026-01-18 19h24.06.328378 +0530,
,Objects\180a.jpg,63,0,64,,,,,,,f,1.7924588000169024,0.17537989997072145,None,,,,,,64,0,63,385.5739268999896,,,,,,,,,,,,,,,,,,,,,,,,,,,,,,385.5577078999486,385.5739268999896,386.0575460999971,,,,,,,,,,,,386.07456839998486,,,,,,,,,,,,,,,386.07025879999856,386.07456839998486,386.07456839998486,386.07456839998486,389.05781139998,f,1.7924588000169024,0.17537989997072145,389.0599046999705,389.05992169998353,None,389.0739728999906,389.0739728999906,389.0739728999906,,,,,,,,,,,,,,00056,001,2026-01-18_19h23.59.153,MST_task,2024.2.0,60.144732279541095,2026-01-18 19h24.06.328378 +0530,
,Objects\040a.jpg,64,0,65,,,,,,,f,1.3569250999717042,0.11999919998925179,None,,,,,,65,0,64,389.0739728999906,,,,,,,,,,,,,,,,,,,,,,,,,,,,,,389.0599915999919,389.0739728999906,389.55744279996725,,,,,,,,,,,,389.57418909994885,,,,,,,,,,,,,,,389.56688059994485,389.57418909994885,389.57418909994885,389.57418909994885,392.5579140999471,f,1.3569250999717042,0.11999919998925179,392.55796329997247,392.55797549994895,None,392.57387139997445,392.57387139997445,392.57387139997445,,,,,,,,,,,,,,00056,001,2026-01-18_19h23.59.153,MST_task,2024.2.0,60.144732279541095,2026-01-18 19h24.06.328378 +0530,
,Objects\174a.jpg,65,0,66,,,,,,,f,1.4812573000090197,0.1599186999956146,None,,,,,,66,0,65,392.57387139997445,,,,,,,,,,,,,,,,,,,,,,,,,,,,,,392.55804459995124,392.57387139997445,393.05753749998985,,,,,,,,,,,,393.0739702999708,,,,,,,,,,,,,,,393.059973299969,393.0739702999708,393.0739702999708,393.0739702999708,396.0578205999918,f,1.4812573000090197,0.1599186999956146,396.0578609999502,396.0578720999765,None,396.0738049999927,396.0738049999927,396.0738049999927,,,,,,,,,,,,,,00056,001,2026-01-18_19h23.59.153,MST_task,2024.2.0,60.144732279541095,2026-01-18 19h24.06.328378 +0530,
,Objects\184a.jpg,66,0,67,,,,,,,j,1.020475700031966,0.16014829999767244,None,,,,,,67,0,66,396.0738049999927,,,,,,,,,,,,,,,,,,,,,,,,,,,,,,396.057969699963,396.0738049999927,396.5575473999488,,,,,,,,,,,,396.57399249996524,,,,,,,,,,,,,,,396.56706509995274,396.57399249996524,396.57399249996524,396.57399249996524,399.5576853999519,j,1.020475700031966,0.16014829999767244,399.55772689997684,399.5577376000001,None,399.5738601999474,399.5738601999474,399.5738601999474,,,,,,,,,,,,,,00056,001,2026-01-18_19h23.59.153,MST_task,2024.2.0,60.144732279541095,2026-01-18 19h24.06.328378 +0530,
,Objects\022a.jpg,67,0,68,,,,,,,f,1.7682555999490432,0.15998200001195073,None,,,,,,68,0,67,399.5738601999474,,,,,,,,,,,,,,,,,,,,,,,,,,,,,,399.55783219996374,399.5738601999474,400.05748859996675,,,,,,,,,,,,400.07409109995933,,,,,,,,,,,,,,,400.0673554999521,400.07409109995933,400.07409109995933,400.07409109995933,403.05784619995393,f,1.7682555999490432,0.15998200001195073,403.0578897999949,403.0579002999584,None,403.07396739994874,403.07396739994874,403.07396739994874,,,,,,,,,,,,,,00056,001,2026-01-18_19h23.59.153,MST_task,2024.2.0,60.144732279541095,2026-01-18 19h24.06.328378 +0530,
,Objects\141a.jpg,68,0,69,,,,,,,j,1.6853710999712348,0.16832340002292767,None,,,,,,69,0,68,403.07396739994874,,,,,,,,,,,,,,,,,,,,,,,,,,,,,,403.0579673999455,403.07396739994874,403.55755609995686,,,,,,,,,,,,403.5741144999629,,,,,,,,,,,,,,,403.5670750999707,403.5741144999629,403.5741144999629,403.5741144999629,406.55787249997957,j,1.6853710999712348,0.16832340002292767,406.5579158999608,406.5579271999886,None,406.573838399956,406.573838399956,406.573838399956,,,,,,,,,,,,,,00056,001,2026-01-18_19h23.59.153,MST_task,2024.2.0,60.144732279541095,2026-01-18 19h24.06.328378 +0530,
,Objects\175a.jpg,69,0,70,,,,,,,f,2.2723554000258446,0.12888569995993748,None,,,,,,70,0,69,406.573838399956,,,,,,,,,,,,,,,,,,,,,,,,,,,,,,406.5579926999635,406.573838399956,407.0580126999994,,,,,,,,,,,,407.0738463999587,,,,,,,,,,,,,,,407.06789869995555,407.0738463999587,407.0738463999587,407.0738463999587,410.0576691000024,f,2.2723554000258446,0.12888569995993748,410.05771209998056,410.0577227999456,None,410.0738983999472,410.0738983999472,410.0738983999472,,,,,,,,,,,,,,00056,001,2026-01-18_19h23.59.153,MST_task,2024.2.0,60.144732279541095,2026-01-18 19h24.06.328378 +0530,
,Scenes\033a.jpg,70,0,71,,,,,,,j,1.4995945999980904,0.14444649999495596,None,,,,,,71,0,70,410.0738983999472,,,,,,,,,,,,,,,,,,,,,,,,,,,,,,410.05778719997033,410.0738983999472,410.5575186999631,,,,,,,,,,,,410.574600699998,,,,,,,,,,,,,,,410.57209699996747,410.574600699998,410.574600699998,410.574600699998,413.55787489999784,j,1.4995945999980904,0.14444649999495596,413.55962339998223,413.5596430999576,None,413.5737967999885,413.5737967999885,413.5737967999885,,,,,,,,,,,,,,00056,001,2026-01-18_19h23.59.153,MST_task,2024.2.0,60.144732279541095,2026-01-18 19h24.06.328378 +0530,
,Scenes\042a.jpg,71,0,72,,,,,,,j,1.1922830999828875,0.1279983000131324,None,,,,,,72,0,71,413.5737967999885,,,,,,,,,,,,,,,,,,,,,,,,,,,,,,413.55971179995686,413.5737967999885,414.0574447999825,,,,,,,,,,,,414.07434619998094,,,,,,,,,,,,,,,414.0650285999873,414.07434619998094,414.07434619998094,414.07434619998094,417.057859499997,j,1.1922830999828875,0.1279983000131324,417.05791679996764,417.05792900000233,None,417.07364499999676,417.07364499999676,417.07364499999676,,,,,,,,,,,,,,00056,001,2026-01-18_19h23.59.153,MST_task,2024.2.0,60.144732279541095,2026-01-18 19h24.06.328378 +0530,
,Scenes\095a.jpg,72,0,73,,,,,,,f,1.2036437999922782,0.12090190005255863,None,,,,,,73,0,72,417.07364499999676,,,,,,,,,,,,,,,,,,,,,,,,,,,,,,417.0579980999464,417.07364499999676,417.55749759997707,,,,,,,,,,,,417.5745837999857,,,,,,,,,,,,,,,417.564988899976,417.5745837999857,417.5745837999857,417.5745837999857,420.5577412999701,f,1.2036437999922782,0.12090190005255863,420.55778659996577,420.5577980999951,None,420.57390889996896,420.57390889996896,420.57390889996896,,,,,,,,,,,,,,00056,001,2026-01-18_19h23.59.153,MST_task,2024.2.0,60.144732279541095,2026-01-18 19h24.06.328378 +0530,
,Scenes\127a.jpg,73,0,74,,,,,,,j,1.093037499987986,0.16111079999245703,None,,,,,,74,0,73,420.57390889996896,,,,,,,,,,,,,,,,,,,,,,,,,,,,,,420.55789789999835,420.57390889996896,421.0575230999966,,,,,,,,,,,,421.0774489999749,,,,,,,,,,,,,,,421.07497570000123,421.0774489999749,421.0774489999749,421.0774489999749,424.07403129996965,j,1.093037499987986,0.16111079999245703,424.07408299995586,424.07409619999817,None,,,,,,,,,,,,,,,,,00056,001,2026-01-18_19h23.59.153,MST_task,2024.2.0,60.144732279541095,2026-01-18 19h24.06.328378 +0530,
,Scenes\142a.jpg,74,0,75,,,,,,,j,1.5537697999970987,0.1678751000436023,None,,,,,,75,0,74,424.09048600000096,,,,,,,,,,,,,,,,,,,,,,,,,,,,,,424.07419739995385,424.09048600000096,424.57396869995864,,,,,,,,,,,,424.59263839997584,,,,,,,,,,,,,,,424.5902361999615,424.59263839997584,424.59263839997584,424.59263839997584,427.5908255999675,j,1.5537697999970987,0.1678751000436023,427.5908679999993,427.59088449995033,None,,,,,,,,,,,,,,,,,00056,001,2026-01-18_19h23.59.153,MST_task,2024.2.0,60.144732279541095,2026-01-18 19h24.06.328378 +0530,
,Scenes\168a.jpg,75,0,76,,,,,,,j,0.81539950001752,0.15958639996824786,None,,,,,,76,0,75,427.6071923999698,,,,,,,,,,,,,,,,,,,,,,,,,,,,,,427.59099309996236,427.6071923999698,428.0908312999527,,,,,,,,,,,,428.10769109998364,,,,,,,,,,,,,,,428.10359279997647,428.10769109998364,428.10769109998364,428.10769109998364,431.0911750999512,j,0.81539950001752,0.15958639996824786,431.09122339996975,431.0912352000014,None,431.1072065999615,431.1072065999615,431.1072065999615,,,,,,,,,,,,,,00056,001,2026-01-18_19h23.59.153,MST_task,2024.2.0,60.144732279541095,2026-01-18 19h24.06.328378 +0530,
,Scenes\046a.jpg,76,0,77,,,,,,,j,1.3087461999966763,0.16731119999894872,None,,,,,,77,0,76,431.1072065999615,,,,,,,,,,,,,,,,,,,,,,,,,,,,,,431.09130669996375,431.1072065999615,431.59088079998037,,,,,,,,,,,,431.6143430999946,,,,,,,,,,,,,,,431.6113164999988,431.6143430999946,431.6143430999946,431.6143430999946,434.6074125999585,j,1.3087461999966763,0.16731119999894872,434.6074538999819,434.60746519995155,None,,,,,,,,,,,,,,,,,00056,001,2026-01-18_19h23.59.153,MST_task,2024.2.0,60.144732279541095,2026-01-18 19h24.06.328378 +0530,
,Objects\146a.jpg,77,0,78,,,,,,,f,1.3591035000281408,0.15150059998268262,None,,,,,,78,0,77,434.6237402999541,,,,,,,,,,,,,,,,,,,,,,,,,,,,,,434.60756449995097,434.6237402999541,435.10737749998225,,,,,,,,,,,,435.1243676999584,,,,,,,,,,,,,,,435.1195547999814,435.1243676999584,435.1243676999584,435.1243676999584,438.1078350999742,f,1.3591035000281408,0.15150059998268262,438.1098978999653,438.1099161999882,None,438.1238022999605,438.1238022999605,438.1238022999605,,,,,,,,,,,,,,00056,001,2026-01-18_19h23.59.153,MST_task,2024.2.0,60.144732279541095,2026-01-18 19h24.06.328378 +0530,
,Objects\111a.jpg,78,0,79,,,,,,,j,1.1467455999809317,0.184024500020314,None,,,,,,79,0,78,438.1238022999605,,,,,,,,,,,,,,,,,,,,,,,,,,,,,,438.1099852999905,438.1238022999605,438.6073674999643,,,,,,,,,,,,438.62390099995537,,,,,,,,,,,,,,,438.61686059995554,438.62390099995537,438.62390099995537,438.62390099995537,441.60769289999735,j,1.1467455999809317,0.184024500020314,441.6077471000026,441.60775889997603,None,441.62364029994933,441.62364029994933,441.62364029994933,,,,,,,,,,,,,,00056,001,2026-01-18_19h23.59.153,MST_task,2024.2.0,60.144732279541095,2026-01-18 19h24.06.328378 +0530,
,Objects\003a.jpg,79,0,80,,,,,,,j,1.4069472000119276,0.16777370002819225,None,,,,,,80,0,79,441.62364029994933,,,,,,,,,,,,,,,,,,,,,,,,,,,,,,441.60785719996784,441.62364029994933,442.1073842999758,,,,,,,,,,,,442.1240056999959,,,,,,,,,,,,,,,442.11763439996867,442.1240056999959,442.1240056999959,442.1240056999959,445.1077610999928,j,1.4069472000119276,0.16777370002819225,445.107802399958,445.10781339998357,None,445.12368289998267,445.12368289998267,445.12368289998267,,,,,,,,,,,,,,00056,001,2026-01-18_19h23.59.153,MST_task,2024.2.0,60.144732279541095,2026-01-18 19h24.06.328378 +0530,
,Objects\039a.jpg,80,0,81,,,,,,,j,1.2752740000141785,0.17497350001940504,None,,,,,,81,0,80,445.12368289998267,,,,,,,,,,,,,,,,,,,,,,,,,,,,,,445.1078782999539,445.12368289998267,445.60738809994655,,,,,,,,,,,,445.6240077999537,,,,,,,,,,,,,,,445.61682639998617,445.6240077999537,445.6240077999537,445.6240077999537,448.6079374999972,j,1.2752740000141785,0.17497350001940504,448.6079866999644,448.6079988999991,None,448.6236516999779,448.6236516999779,448.6236516999779,,,,,,,,,,,,,,00056,001,2026-01-18_19h23.59.153,MST_task,2024.2.0,60.144732279541095,2026-01-18 19h24.06.328378 +0530,
,Objects\085a.jpg,81,0,82,,,,,,,j,2.9583573999698274,None,None,,,,,,82,0,81,448.6236516999779,,,,,,,,,,,,,,,,,,,,,,,,,,,,,,448.60812339995755,448.6236516999779,449.1074204999604,,,,,,,,,,,,449.12414549995447,,,,,,,,,,,,,,,449.11700499994913,449.12414549995447,449.12414549995447,449.12414549995447,452.107716999948,j,2.9583573999698274,None,452.10775829997147,452.1077698000008,None,452.1236400999478,452.1236400999478,452.1236400999478,,,,,,,,,,,,,,00056,001,2026-01-18_19h23.59.153,MST_task,2024.2.0,60.144732279541095,2026-01-18 19h24.06.328378 +0530,
,Objects\098a.jpg,82,0,83,,,,,,,f,1.0349130000104196,0.20786369999404997,None,,,,,,83,0,82,452.1236400999478,,,,,,,,,,,,,,,,,,,,,,,,,,,,,,452.1078684999957,452.1236400999478,452.6073912999709,,,,,,,,,,,,452.6239529000013,,,,,,,,,,,,,,,452.61687529995106,452.6239529000013,452.6239529000013,452.6239529000013,455.60761239996646,f,1.0349130000104196,0.20786369999404997,455.6076546999975,455.60766519996105,None,455.6236631999491,455.6236631999491,455.6236631999491,,,,,,,,,,,,,,00056,001,2026-01-18_19h23.59.153,MST_task,2024.2.0,60.144732279541095,2026-01-18 19h24.06.328378 +0530,
,Objects\137a.jpg,83,0,84,,,,,,,j,1.2547280000289902,0.15993349999189377,None,,,,,,84,0,83,455.6236631999491,,,,,,,,,,,,,,,,,,,,,,,,,,,,,,455.6077737999731,455.6236631999491,456.1074565000017,,,,,,,,,,,,456.1239921999513,,,,,,,,,,,,,,,456.1100383999874,456.1239921999513,456.1239921999513,456.1239921999513,459.1079653999768,j,1.2547280000289902,0.15993349999189377,459.1080171999638,459.1080293999985,None,459.1239151999471,459.1239151999471,459.1239151999471,,,,,,,,,,,,,,00056,001,2026-01-18_19h23.59.153,MST_task,2024.2.0,60.144732279541095,2026-01-18 19h24.06.328378 +0530,
,Scenes\040a.jpg,84,0,85,,,,,,,f,1.4859808000037447,0.15991659997962415,None,,,,,,85,0,84,459.1239151999471,,,,,,,,,,,,,,,,,,,,,,,,,,,,,,459.10809959995095,459.1239151999471,459.6074120999547,,,,,,,,,,,,459.6289221999468,,,,,,,,,,,,,,,459.62632019998273,459.6289221999468,459.6289221999468,459.6289221999468,462.62393239996163,f,1.4859808000037447,0.15991659997962415,462.6256904999609,462.6257083999808,None,,,,,,,,,,,,,,,,,00056,001,2026-01-18_19h23.59.153,MST_task,2024.2.0,60.144732279541095,2026-01-18 19h24.06.328378 +0530,
,Scenes\047a.jpg,85,0,86,,,,,,,j,1.5058132000267506,0.11199959996156394,None,,,,,,86,0,85,462.6405147999758,,,,,,,,,,,,,,,,,,,,,,,,,,,,,,462.6258092999924,462.6405147999758,463.1240633999696,,,,,,,,,,,,463.14467779995175,,,,,,,,,,,,,,,463.14225739997346,463.14467779995175,463.14467779995175,463.14467779995175,466.14078499999596,j,1.5058132000267506,0.11199959996156394,466.14083729998674,466.1408492999617,None,,,,,,,,,,,,,,,,,00056,001,2026-01-18_19h23.59.153,MST_task,2024.2.0,60.144732279541095,2026-01-18 19h24.06.328378 +0530,
,Scenes\011a.jpg,86,0,87,,,,,,,j,1.188230299972929,0.16846180002903566,None,,,,,,87,0,86,466.1572393999668,,,,,,,,,,,,,,,,,,,,,,,,,,,,,,466.1409721999662,466.1572393999668,466.64074699999765,,,,,,,,,,,,466.6627851999947,,,,,,,,,,,,,,,466.660050699953,466.6627851999947,466.6627851999947,466.6627851999947,469.6575125999516,j,1.188230299972929,0.16846180002903566,469.6575655999477,469.65757789998315,None,,,,,,,,,,,,,,,,,00056,001,2026-01-18_19h23.59.153,MST_task,2024.2.0,60.144732279541095,2026-01-18 19h24.06.328378 +0530,
,Scenes\041a.jpg,87,0,88,,,,,,,j,0.7523657999699935,0.1761621999903582,None,,,,,,88,0,87,469.6736811999581,,,,,,,,,,,,,,,,,,,,,,,,,,,,,,469.6576799999457,469.6736811999581,470.1575212999596,,,,,,,,,,,,470.1779948999756,,,,,,,,,,,,,,,470.17561479995493,470.1779948999756,470.1779948999756,470.1779948999756,473.1740153999999,j,0.7523657999699935,0.1761621999903582,473.1740585999796,473.1740702999523,None,,,,,,,,,,,,,,,,,00056,001,2026-01-18_19h23.59.153,MST_task,2024.2.0,60.144732279541095,2026-01-18 19h24.06.328378 +0530,
,Scenes\039a.jpg,88,0,89,,,,,,,j,0.942715099954512,0.1840006000129506,None,,,,,,89,0,88,473.1904163999716,,,,,,,,,,,,,,,,,,,,,,,,,,,,,,473.1741476999596,473.1904163999716,473.67413969995687,,,,,,,,,,,,473.69179519999307,,,,,,,,,,,,,,,473.6894514999585,473.69179519999307,473.69179519999307,473.69179519999307,476.6906613999745,j,0.942715099954512,0.1840006000129506,476.6907037999481,476.6907153999782,None,,,,,,,,,,,,,,,,,00056,001,2026-01-18_19h23.59.153,MST_task,2024.2.0,60.144732279541095,2026-01-18 19h24.06.328378 +0530,
,Scenes\181a.jpg,89,0,90,,,,,,,f,1.7542191999964416,0.16895510000176728,None,,,,,,90,0,89,476.7071537000011,,,,,,,,,,,,,,,,,,,,,,,,,,,,,,476.6908160999883,476.7071537000011,477.19079779996537,,,,,,,,,,,,477.2091064999695,,,,,,,,,,,,,,,477.20688799995696,477.2091064999695,477.2091064999695,477.2091064999695,480.20759999996517,f,1.7542191999964416,0.16895510000176728,480.2076459999662,480.2076582000009,None,,,,,,,,,,,,,,,,,00056,001,2026-01-18_19h23.59.153,MST_task,2024.2.0,60.144732279541095,2026-01-18 19h24.06.328378 +0530,
,Scenes\130a.jpg,90,0,91,,,,,,,j,1.9936643000110053,0.19242699997266755,None,,,,,,91,0,90,480.2237314999802,,,,,,,,,,,,,,,,,,,,,,,,,,,,,,480.2077289999579,480.2237314999802,480.7074471999658,,,,,,,,,,,,480.728867799975,,,,,,,,,,,,,,,480.7262763999752,480.728867799975,480.728867799975,480.728867799975,483.7239979999722,j,1.9936643000110053,0.19242699997266755,483.7240402000025,483.7240519999759,None,,,,,,,,,,,,,,,,,00056,001,2026-01-18_19h23.59.153,MST_task,2024.2.0,60.144732279541095,2026-01-18 19h24.06.328378 +0530,
,Objects\044a.jpg,91,0,92,,,,,,,f,1.4415122999926098,0.21630099997855723,None,,,,,,92,0,91,483.74042909999844,,,,,,,,,,,,,,,,,,,,,,,,,,,,,,483.72411969996756,483.74042909999844,484.22385949996533,,,,,,,,,,,,484.24128159997053,,,,,,,,,,,,,,,484.23625659995014,484.24128159997053,484.24128159997053,484.24128159997053,487.22431579994736,f,1.4415122999926098,0.21630099997855723,487.2263561,487.2263730999548,None,487.24045469996054,487.24045469996054,487.24045469996054,,,,,,,,,,,,,,00056,001,2026-01-18_19h23.59.153,MST_task,2024.2.0,60.144732279541095,2026-01-18 19h24.06.328378 +0530,
,Objects\161a.jpg,92,0,93,,,,,,,f,0.8217872999957763,0.1920599000295624,None,,,,,,93,0,92,487.24045469996054,,,,,,,,,,,,,,,,,,,,,,,,,,,,,,487.2264423999586,487.24045469996054,487.72396709996974,,,,,,,,,,,,487.74078949994873,,,,,,,,,,,,,,,487.7335205999552,487.74078949994873,487.74078949994873,487.74078949994873,490.72441879997496,f,0.8217872999957763,0.1920599000295624,490.7244670999935,490.7244784999639,None,490.74051419994794,490.74051419994794,490.74051419994794,,,,,,,,,,,,,,00056,001,2026-01-18_19h23.59.153,MST_task,2024.2.0,60.144732279541095,2026-01-18 19h24.06.328378 +0530,
,Objects\055a.jpg,93,0,94,,,,,,,f,0.9386278000310995,0.19166729995049536,None,,,,,,94,0,93,490.74051419994794,,,,,,,,,,,,,,,,,,,,,,,,,,,,,,490.72454899997683,490.74051419994794,491.2240144999814,,,,,,,,,,,,491.24082129995804,,,,,,,,,,,,,,,491.2337935999967,491.24082129995804,491.24082129995804,491.24082129995804,494.2243138999911,f,0.9386278000310995,0.19166729995049536,494.22435719997156,494.2243679999956,None,494.2406304999604,494.2406304999604,494.2406304999604,,,,,,,,,,,,,,00056,001,2026-01-18_19h23.59.153,MST_task,2024.2.0,60.144732279541095,2026-01-18 19h24.06.328378 +0530,
,Objects\067a.jpg,94,0,95,,,,,,,f,1.9016232999856584,0.1759785000467673,None,,,,,,95,0,94,494.2406304999604,,,,,,,,,,,,,,,,,,,,,,,,,,,,,,494.2244333999697,494.2406304999604,494.7241027999553,,,,,,,,,,,,494.74067509995075,,,,,,,,,,,,,,,494.7268830999965,494.74067509995075,494.74067509995075,494.74067509995075,497.7245506999898,f,1.9016232999856584,0.1759785000467673,497.72459289996186,497.7246039999882,None,497.74052009999286,497.74052009999286,497.74052009999286,,,,,,,,,,,,,,00056,001,2026-01-18_19h23.59.153,MST_task,2024.2.0,60.144732279541095,2026-01-18 19h24.06.328378 +0530,
,Objects\169a.jpg,95,0,96,,,,,,,j,2.2338553000008687,0.17633280000882223,None,,,,,,96,0,95,497.74052009999286,,,,,,,,,,,,,,,,,,,,,,,,,,,,,,497.72467129997676,497.74052009999286,498.22428999998374,,,,,,,,,,,,498.24093329999596,,,,,,,,,,,,,,,498.23365069995634,498.24093329999596,498.24093329999596,498.24093329999596,501.22444029996404,j,2.2338553000008687,0.17633280000882223,501.2244877999765,501.22449949994916,None,501.24053719994845,501.24053719994845,501.24053719994845,,,,,,,,,,,,,,00056,001,2026-01-18_19h23.59.153,MST_task,2024.2.0,60.144732279541095,2026-01-18 19h24.06.328378 +0530,
,Objects\024a.jpg,96,0,97,,,,,,,f,1.0461567000020295,0.20790860004490241,None,,,,,,97,0,96,501.24053719994845,,,,,,,,,,,,,,,,,,,,,,,,,,,,,,501.22457019996364,501.24053719994845,501.7242419999675,,,,,,,,,,,,501.7407583000022,,,,,,,,,,,,,,,501.73377769999206,501.7407583000022,501.7407583000022,501.7407583000022,504.7243174999603,f,1.0461567000020295,0.20790860004490241,504.72436039999593,504.7243718999671,None,504.7405952999834,504.7405952999834,504.7405952999834,,,,,,,,,,,,,,00056,001,2026-01-18_19h23.59.153,MST_task,2024.2.0,60.144732279541095,2026-01-18 19h24.06.328378 +0530,
,Objects\118a.jpg,97,0,98,,,,,,,f,0.9860383999766782,0.23194580001290888,None,,,,,,98,0,97,504.7405952999834,,,,,,,,,,,,,,,,,,,,,,,,,,,,,,504.7244700999581,504.7405952999834,505.22420639998745,,,,,,,,,,,,505.2407103999867,,,,,,,,,,,,,,,505.2340196999721,505.2407103999867,505.2407103999867,505.2407103999867,508.2244631999638,f,0.9860383999766782,0.23194580001290888,508.22450419998495,508.22451529995305,None,508.2405215999461,508.2405215999461,508.2405215999461,,,,,,,,,,,,,,00056,001,2026-01-18_19h23.59.153,MST_task,2024.2.0,60.144732279541095,2026-01-18 19h24.06.328378 +0530,
,Scenes\126a.jpg,98,0,99,,,,,,,j,1.3462320999824442,0.19205280003370717,None,,,,,,99,0,98,508.2405215999461,,,,,,,,,,,,,,,,,,,,,,,,,,,,,,508.22458209999604,508.2405215999461,508.7240726999589,,,,,,,,,,,,508.74399149999954,,,,,,,,,,,,,,,508.7413199999719,508.74399149999954,508.74399149999954,508.74399149999954,511.74117319996003,j,1.3462320999824442,0.19205280003370717,511.74318339995807,511.7432050999487,None,,,,,,,,,,,,,,,,,00056,001,2026-01-18_19h23.59.153,MST_task,2024.2.0,60.144732279541095,2026-01-18 19h24.06.328378 +0530,
,Scenes\073a.jpg,99,0,100,,,,,,,j,0.8649041999597102,0.2159945000312291,None,,,,,,100,0,99,511.7575257999706,,,,,,,,,,,,,,,,,,,,,,,,,,,,,,511.74332729994785,511.7575257999706,512.2408647999982,,,,,,,,,,,,512.257616399962,,,,,,,,,,,,,,,512.2473281999701,512.257616399962,512.257616399962,512.257616399962,515.2411715999478,j,0.8649041999597102,0.2159945000312291,515.2412139999797,515.2412247999455,None,515.2571906999801,515.2571906999801,515.2571906999801,,,,,,,,,,,,,,00056,001,2026-01-18_19h23.59.153,MST_task,2024.2.0,60.144732279541095,2026-01-18 19h24.06.328378 +0530,
,Scenes\077a.jpg,100,0,101,,,,,,,j,1.6453416000003926,0.22305390000110492,None,,,,,,101,0,100,515.2571906999801,,,,,,,,,,,,,,,,,,,,,,,,,,,,,,515.241321199981,515.2571906999801,515.7408777999808,,,,,,,,,,,,515.7578254999826,,,,,,,,,,,,,,,515.7480542999692,515.7578254999826,515.7578254999826,515.7578254999826,518.7410849999869,j,1.6453416000003926,0.22305390000110492,518.741129299975,518.7411404000013,None,518.7571719999542,518.7571719999542,518.7571719999542,,,,,,,,,,,,,,00056,001,2026-01-18_19h23.59.153,MST_task,2024.2.0,60.144732279541095,2026-01-18 19h24.06.328378 +0530,
,Scenes\038a.jpg,101,0,102,,,,,,,j,0.8792972000082955,0.26403969997772947,None,,,,,,102,0,101,518.7571719999542,,,,,,,,,,,,,,,,,,,,,,,,,,,,,,518.7412061999785,518.7571719999542,519.240794399986,,,,,,,,,,,,519.2595983999781,,,,,,,,,,,,,,,519.2571921999916,519.2595983999781,519.2595983999781,519.2595983999781,522.2574380000005,j,0.8792972000082955,0.26403969997772947,522.2574823999894,522.2574938999605,None,,,,,,,,,,,,,,,,,00056,001,2026-01-18_19h23.59.153,MST_task,2024.2.0,60.144732279541095,2026-01-18 19h24.06.328378 +0530,
,Scenes\035a.jpg,102,0,103,,,,,,,f,1.8089727999758907,0.23199519998161122,None,,,,,,103,0,102,522.2736883999896,,,,,,,,,,,,,,,,,,,,,,,,,,,,,,522.2576077999547,522.2736883999896,522.7574591999874,,,,,,,,,,,,522.7773121999926,,,,,,,,,,,,,,,522.7748234999599,522.7773121999926,522.7773121999926,522.7773121999926,525.7740188999451,f,1.8089727999758907,0.23199519998161122,525.7740617999807,525.7740733999526,None,,,,,,,,,,,,,,,,,00056,001,2026-01-18_19h23.59.153,MST_task,2024.2.0,60.144732279541095,2026-01-18 19h24.06.328378 +0530,
,Scenes\019a.jpg,103,0,104,,,,,,,f,2.1671111999894492,0.1683744000038132,None,,,,,,104,0,103,525.7905185999698,,,,,,,,,,,,,,,,,,,,,,,,,,,,,,525.7741414999473,525.7905185999698,526.2739467999781,,,,,,,,,,,,526.2919593999977,,,,,,,,,,,,,,,526.2893634999637,526.2919593999977,526.2919593999977,526.2919593999977,529.2907955999835,f,2.1671111999894492,0.1683744000038132,529.2908551999717,529.2908684999566,None,,,,,,,,,,,,,,,,,00056,001,2026-01-18_19h23.59.153,MST_task,2024.2.0,60.144732279541095,2026-01-18 19h24.06.328378 +0530,
,Scenes\004a.jpg,104,0,105,,,,,,,j,1.154666599992197,0.21600740001304075,None,,,,,,105,0,104,529.3072563000023,,,,,,,,,,,,,,,,,,,,,,,,,,,,,,529.2909625999746,529.3072563000023,529.790748999978,,,,,,,,,,,,529.8078881999827,,,,,,,,,,,,,,,529.8005950999795,529.8078881999827,529.8078881999827,529.8078881999827,532.7910673999577,j,1.154666599992197,0.21600740001304075,532.7911098999903,532.7911207999568,None,532.8071436999599,532.8071436999599,532.8071436999599,,,,,,,,,,,,,,00056,001,2026-01-18_19h23.59.153,MST_task,2024.2.0,60.144732279541095,2026-01-18 19h24.06.328378 +0530,
,Objects\056a.jpg,105,0,106,,,,,,,f,2.3834120000246912,0.2080267000128515,None,,,,,,106,0,105,532.8071436999599,,,,,,,,,,,,,,,,,,,,,,,,,,,,,,532.7912170999916,532.8071436999599,533.2906911000027,,,,,,,,,,,,533.3076609999989,,,,,,,,,,,,,,,533.3040339999716,533.3076609999989,533.3076609999989,533.3076609999989,536.2910836999654,f,2.3834120000246912,0.2080267000128515,536.2931765999529,536.2931953999796,None,536.3071421999484,536.3071421999484,536.3071421999484,,,,,,,,,,,,,,00056,001,2026-01-18_19h23.59.153,MST_task,2024.2.0,60.144732279541095,2026-01-18 19h24.06.328378 +0530,
,Objects\007a.jpg,106,0,107,,,,,,,j,1.9078239999944344,0.21565860003465787,None,,,,,,107,0,106,536.3071421999484,,,,,,,,,,,,,,,,,,,,,,,,,,,,,,536.2932663999964,536.3071421999484,536.7907090999652,,,,,,,,,,,,536.807369999995,,,,,,,,,,,,,,,536.8001729999669,536.807369999995,536.807369999995,536.807369999995,539.7909787999815,j,1.9078239999944344,0.21565860003465787,539.7910214999574,539.7910327999853,None,539.8071779999882,539.8071779999882,539.8071779999882,,,,,,,,,,,,,,00056,001,2026-01-18_19h23.59.153,MST_task,2024.2.0,60.144732279541095,2026-01-18 19h24.06.328378 +0530,
,Objects\019a.jpg,107,0,108,,,,,,,f,2.486954500025604,0.19307779998052865,None,,,,,,108,0,107,539.8071779999882,,,,,,,,,,,,,,,,,,,,,,,,,,,,,,539.7910976999556,539.8071779999882,540.2909105999861,,,,,,,,,,,,540.3075028999592,,,,,,,,,,,,,,,540.3012359999702,540.3075028999592,540.3075028999592,540.3075028999592,543.2909754999564,f,2.486954500025604,0.19307779998052865,543.2910184999928,543.2910294999601,None,543.3071687999764,543.3071687999764,543.3071687999764,,,,,,,,,,,,,,00056,001,2026-01-18_19h23.59.153,MST_task,2024.2.0,60.144732279541095,2026-01-18 19h24.06.328378 +0530,
,Objects\123a.jpg,108,0,109,,,,,,,f,1.107635600026697,0.19999619998270646,None,,,,,,109,0,108,543.3071687999764,,,,,,,,,,,,,,,,,,,,,,,,,,,,,,543.2910946999909,543.3071687999764,543.7907855999656,,,,,,,,,,,,543.8075236000004,,,,,,,,,,,,,,,543.8001437999774,543.8075236000004,543.8075236000004,543.8075236000004,546.7914446999785,f,1.107635600026697,0.19999619998270646,546.7914898999734,546.7915019999491,None,546.8071734999539,546.8071734999539,546.8071734999539,,,,,,,,,,,,,,00056,001,2026-01-18_19h23.59.153,MST_task,2024.2.0,60.144732279541095,2026-01-18 19h24.06.328378 +0530,
,Objects\070a.jpg,109,0,110,,,,,,,f,1.0077293000067584,0.18412119999993593,None,,,,,,110,0,109,546.8071734999539,,,,,,,,,,,,,,,,,,,,,,,,,,,,,,546.7915787999518,546.8071734999539,547.2907680999488,,,,,,,,,,,,547.3074386999942,,,,,,,,,,,,,,,547.300366099982,547.3074386999942,547.3074386999942,547.3074386999942,550.291070199979,f,1.0077293000067584,0.18412119999993593,550.2911129999557,550.2911236999789,None,550.3071739999577,550.3071739999577,550.3071739999577,,,,,,,,,,,,,,00056,001,2026-01-18_19h23.59.153,MST_task,2024.2.0,60.144732279541095,2026-01-18 19h24.06.328378 +0530,
,Objects\168a.jpg,110,0,111,,,,,,,f,0.9477517000050284,0.11990459996741265,None,,,,,,111,0,110,550.3071739999577,,,,,,,,,,,,,,,,,,,,,,,,,,,,,,550.2911912999698,550.3071739999577,550.7908093999722,,,,,,,,,,,,550.8073829999776,,,,,,,,,,,,,,,550.7935432999511,550.8073829999776,550.8073829999776,550.8073829999776,553.7909568999894,f,0.9477517000050284,0.11990459996741265,553.7909998999676,553.7910111999954,None,553.8071753999684,553.8071753999684,553.8071753999684,,,,,,,,,,,,,,00056,001,2026-01-18_19h23.59.153,MST_task,2024.2.0,60.144732279541095,2026-01-18 19h24.06.328378 +0530,
,Objects\004a.jpg,111,0,112,,,,,,,f,2.5189932999783196,0.19197109999367967,None,,,,,,112,0,111,553.8071753999684,,,,,,,,,,,,,,,,,,,,,,,,,,,,,,553.7911091999849,553.8071753999684,554.2909136999515,,,,,,,,,,,,554.307336399972,,,,,,,,,,,,,,,554.2936749999644,554.307336399972,554.307336399972,554.307336399972,557.290976499964,f,2.5189932999783196,0.19197109999367967,557.2910169999814,557.2910280999495,None,557.3071722000022,557.3071722000022,557.3071722000022,,,,,,,,,,,,,,00056,001,2026-01-18_19h23.59.153,MST_task,2024.2.0,60.144732279541095,2026-01-18 19h24.06.328378 +0530,
,Scenes\083a.jpg,112,0,113,,,,,,,j,0.8878168999799527,0.17494459997396916,None,,,,,,113,0,112,557.3071722000022,,,,,,,,,,,,,,,,,,,,,,,,,,,,,,557.2910941999871,557.3071722000022,557.7907101999735,,,,,,,,,,,,557.8114398999605,,,,,,,,,,,,,,,557.8089568999712,557.8114398999605,557.8114398999605,557.8114398999605,560.8074715999537,j,0.8878168999799527,0.17494459997396916,560.8092914999579,560.8093120999984,None,,,,,,,,,,,,,,,,,00056,001,2026-01-18_19h23.59.153,MST_task,2024.2.0,60.144732279541095,2026-01-18 19h24.06.328378 +0530,
,Scenes\157a.jpg,113,0,114,,,,,,,j,1.7501859999611042,0.11244300001999363,None,,,,,,114,0,113,560.823742699984,,,,,,,,,,,,,,,,,,,,,,,,,,,,,,560.8094245999819,560.823742699984,561.3075288999826,,,,,,,,,,,,561.3254950999981,,,,,,,,,,,,,,,561.3231420999509,561.3254950999981,561.3254950999981,561.3254950999981,564.32400709996,j,1.7501859999611042,0.11244300001999363,564.3240483999834,564.3240602999576,None,,,,,,,,,,,,,,,,,00056,001,2026-01-18_19h23.59.153,MST_task,2024.2.0,60.144732279541095,2026-01-18 19h24.06.328378 +0530,
,Scenes\024a.jpg,114,0,115,,,,,,,j,0.7694830999826081,0.16770789999281988,None,,,,,,115,0,114,564.3404565999517,,,,,,,,,,,,,,,,,,,,,,,,,,,,,,564.32416129997,564.3404565999517,564.8239530999563,,,,,,,,,,,,564.8410925999633,,,,,,,,,,,,,,,564.8371395999566,564.8410925999633,564.8410925999633,564.8410925999633,567.8242363999598,j,0.7694830999826081,0.16770789999281988,567.8242778999847,567.8242887999513,None,567.840550199966,567.840550199966,567.840550199966,,,,,,,,,,,,,,00056,001,2026-01-18_19h23.59.153,MST_task,2024.2.0,60.144732279541095,2026-01-18 19h24.06.328378 +0530,
,Scenes\166a.jpg,115,0,116,,,,,,,j,1.3899938000249676,0.20799710002029315,None,,,,,,116,0,115,567.840550199966,,,,,,,,,,,,,,,,,,,,,,,,,,,,,,567.8243918999797,567.840550199966,568.3239618999651,,,,,,,,,,,,568.3410913999542,,,,,,,,,,,,,,,568.3295316000003,568.3410913999542,568.3410913999542,568.3410913999542,571.3243232999812,j,1.3899938000249676,0.20799710002029315,571.3243657999556,571.3243766999803,None,571.3405125999707,571.3405125999707,571.3405125999707,,,,,,,,,,,,,,00056,001,2026-01-18_19h23.59.153,MST_task,2024.2.0,60.144732279541095,2026-01-18 19h24.06.328378 +0530,
,Scenes\065a.jpg,116,0,117,,,,,,,j,1.1541593999718316,0.22305560001404956,None,,,,,,117,0,116,571.3405125999707,,,,,,,,,,,,,,,,,,,,,,,,,,,,,,571.3244427999598,571.3405125999707,571.8240209999494,,,,,,,,,,,,571.8410236999625,,,,,,,,,,,,,,,571.8377954999451,571.8410236999625,571.8410236999625,571.8410236999625,574.8245515999733,j,1.1541593999718316,0.22305560001404956,574.8245978999767,574.8246100999531,None,574.8405619999976,574.8405619999976,574.8405619999976,,,,,,,,,,,,,,00056,001,2026-01-18_19h23.59.153,MST_task,2024.2.0,60.144732279541095,2026-01-18 19h24.06.328378 +0530,
,Scenes\090a.jpg,117,0,118,,,,,,,j,1.8274746999959461,0.19164070003898814,None,,,,,,118,0,117,574.8405619999976,,,,,,,,,,,,,,,,,,,,,,,,,,,,,,574.824717099953,574.8405619999976,575.3240326999803,,,,,,,,,,,,575.3439210999641,,,,,,,,,,,,,,,575.341494799999,575.3439210999641,575.3439210999641,575.3439210999641,578.3407472999534,j,1.8274746999959461,0.19164070003898814,578.3407906999928,578.3408023999655,None,,,,,,,,,,,,,,,,,00056,001,2026-01-18_19h23.59.153,MST_task,2024.2.0,60.144732279541095,2026-01-18 19h24.06.328378 +0530,
,Scenes\124a.jpg,118,0,119,,,,,,,f,1.2894035000354052,0.19165090000024065,None,,,,,,119,0,118,578.3571764999651,,,,,,,,,,,,,,,,,,,,,,,,,,,,,,578.3409055999946,578.3571764999651,578.8407073999988,,,,,,,,,,,,578.8577845999971,,,,,,,,,,,,,,,578.8543386999518,578.8577845999971,578.8577845999971,578.8577845999971,581.840979599976,f,1.2894035000354052,0.19165090000024065,581.8410223999526,581.8410336999805,None,581.8571750999545,581.8571750999545,581.8571750999545,,,,,,,,,,,,,,00056,001,2026-01-18_19h23.59.153,MST_task,2024.2.0,60.144732279541095,2026-01-18 19h24.06.328378 +0530,
,Objects\050a.jpg,119,0,120,,,,,,,f,0.9016961999586783,0.1830630000331439,None,,,,,,120,0,119,581.8571750999545,,,,,,,,,,,,,,,,,,,,,,,,,,,,,,581.8411286999471,581.8571750999545,582.3407542999485,,,,,,,,,,,,582.357598499977,,,,,,,,,,,,,,,582.3531001999509,582.357598499977,582.357598499977,582.357598499977,585.3410637999768,f,0.9016961999586783,0.1830630000331439,585.3431388000026,585.3431570999674,None,585.3572139999596,585.3572139999596,585.3572139999596,,,,,,,,,,,,,,00056,001,2026-01-18_19h23.59.153,MST_task,2024.2.0,60.144732279541095,2026-01-18 19h24.06.328378 +0530,
,Objects\093a.jpg,120,0,121,,,,,,,j,2.137870400038082,0.19102179998299107,None,,,,,,121,0,120,585.3572139999596,,,,,,,,,,,,,,,,,,,,,,,,,,,,,,585.3432282999856,585.3572139999596,585.8409854999627,,,,,,,,,,,,585.8574240999878,,,,,,,,,,,,,,,585.8511771999765,585.8574240999878,585.8574240999878,585.8574240999878,588.8410998999607,j,2.137870400038082,0.19102179998299107,588.8411428999971,588.8411537999636,None,588.8571244999766,588.8571244999766,588.8571244999766,,,,,,,,,,,,,,00056,001,2026-01-18_19h23.59.153,MST_task,2024.2.0,60.144732279541095,2026-01-18 19h24.06.328378 +0530,
,Objects\082a.jpg,121,0,122,,,,,,,j,1.549257199978456,0.26508949999697506,None,,,,,,122,0,121,588.8571244999766,,,,,,,,,,,,,,,,,,,,,,,,,,,,,,588.8412205999484,588.8571244999766,589.3408233999508,,,,,,,,,,,,589.3574596999679,,,,,,,,,,,,,,,589.3503529999871,589.3574596999679,589.3574596999679,589.3574596999679,592.3413888999494,j,1.549257199978456,0.26508949999697506,592.3414429999539,592.3414553999901,None,592.3572927999776,592.3572927999776,592.3572927999776,,,,,,,,,,,,,,00056,001,2026-01-18_19h23.59.153,MST_task,2024.2.0,60.144732279541095,2026-01-18 19h24.06.328378 +0530,
,Objects\073a.jpg,122,0,123,,,,,,,None,,,f,1.4341066000051796,None,,,,123,0,122,592.3572927999776,,,,,,,,,,,,,,,,,,,,,,,,,,,,,,592.3415690999827,592.3572927999776,592.8407617999474,,,,,,,,,,,,592.8573644999997,,,,,,,,,,,,,,,592.8517162999487,592.8573644999997,592.8573644999997,592.8573644999997,595.840977899963,None,,,595.8410148999537,597.3076491999673,f,595.8572019999847,595.8572019999847,595.8572019999847,595.8572019999847,595.8572019999847,1.4341066000051796,None,,,,,,,,,,00056,001,2026-01-18_19h23.59.153,MST_task,2024.2.0,60.144732279541095,2026-01-18 19h24.06.328378 +0530,
,Objects\136a.jpg,123,0,124,,,,,,,f,1.5384794999845326,0.11999790003756061,None,,,,,,124,0,123,597.3237232999527,,,,,,,,,,,,,,,,,,,,,,,,,,,,,,597.3077815999859,597.3237232999527,597.8074869999546,,,,,,,,,,,,597.8240856999764,,,,,,,,,,,,,,,597.8169285999611,597.8240856999764,597.8240856999764,597.8240856999764,600.8076518999878,f,1.5384794999845326,0.11999790003756061,600.8076937999576,600.8077049999847,None,600.823790800001,600.823790800001,600.823790800001,,,,,,,,,,,,,,00056,001,2026-01-18_19h23.59.153,MST_task,2024.2.0,60.144732279541095,2026-01-18 19h24.06.328378 +0530,
,Objects\116a.jpg,124,0,125,,,,,,,f,1.00024530000519,0.14228959998581558,None,,,,,,125,0,124,600.823790800001,,,,,,,,,,,,,,,,,,,,,,,,,,,,,,600.807801399962,600.823790800001,601.3074195999652,,,,,,,,,,,,601.3239003999624,,,,,,,,,,,,,,,601.3167915999657,601.3239003999624,601.3239003999624,601.3239003999624,604.3077471999568,f,1.00024530000519,0.14228959998581558,604.3077870999696,604.3077977999928,None,604.3237193999812,604.3237193999812,604.3237193999812,,,,,,,,,,,,,,00056,001,2026-01-18_19h23.59.153,MST_task,2024.2.0,60.144732279541095,2026-01-18 19h24.06.328378 +0530,
,Objects\129a.jpg,125,0,126,,,,,,,f,1.226965099980589,0.1858568000025116,None,,,,,,126,0,125,604.3237193999812,,,,,,,,,,,,,,,,,,,,,,,,,,,,,,604.307892999961,604.3237193999812,604.8074333999539,,,,,,,,,,,,604.8240041999961,,,,,,,,,,,,,,,604.8170004999847,604.8240041999961,604.8240041999961,604.8240041999961,607.8078360999934,f,1.226965099980589,0.1858568000025116,607.8078808999853,607.8078926999588,None,607.8241367999581,607.8241367999581,607.8241367999581,,,,,,,,,,,,,,00056,001,2026-01-18_19h23.59.153,MST_task,2024.2.0,60.144732279541095,2026-01-18 19h24.06.328378 +0530,
,Scenes\179a.jpg,126,0,127,,,,,,,j,0.7985081999795511,0.21600720001151785,None,,,,,,127,0,126,607.8241367999581,,,,,,,,,,,,,,,,,,,,,,,,,,,,,,607.8080070999567,607.8241367999581,608.3076230000006,,,,,,,,,,,,608.3243984999717,,,,,,,,,,,,,,,608.3218060999643,608.3243984999717,608.3243984999717,608.3243984999717,611.3078518999973,j,0.7985081999795511,0.21600720001151785,611.3094734999468,611.3094905999606,None,611.3239371999516,611.3239371999516,611.3239371999516,,,,,,,,,,,,,,00056,001,2026-01-18_19h23.59.153,MST_task,2024.2.0,60.144732279541095,2026-01-18 19h24.06.328378 +0530,
,Scenes\034a.jpg,127,0,128,,,,,,,f,1.4987904999870807,0.1520066999946721,None,,,,,,128,0,127,611.3239371999516,,,,,,,,,,,,,,,,,,,,,,,,,,,,,,611.3095603999682,611.3239371999516,611.8075245999498,,,,,,,,,,,,611.8318272999604,,,,,,,,,,,,,,,611.8293764999835,611.8318272999604,611.8318272999604,611.8318272999604,614.8242181999958,f,1.4987904999870807,0.1520066999946721,614.8242617999786,614.824273999955,None,,,,,,,,,,,,,,,,,00056,001,2026-01-18_19h23.59.153,MST_task,2024.2.0,60.144732279541095,2026-01-18 19h24.06.328378 +0530,
,Scenes\131a.jpg,128,0,129,,,,,,,j,1.7568604999687523,0.21582510002190247,None,,,,,,129,0,128,614.8406411999604,,,,,,,,,,,,,,,,,,,,,,,,,,,,,,614.8243768999819,614.8406411999604,615.3242374999681,,,,,,,,,,,,615.3423731999937,,,,,,,,,,,,,,,615.3399092999753,615.3423731999937,615.3423731999937,615.3423731999937,618.3408967999858,j,1.7568604999687523,0.21582510002190247,618.340952599945,618.3409648999805,None,,,,,,,,,,,,,,,,,00056,001,2026-01-18_19h23.59.153,MST_task,2024.2.0,60.144732279541095,2026-01-18 19h24.06.328378 +0530,
,Scenes\115a.jpg,129,0,130,,,,,,,j,2.0567039999878034,0.1999643999733962,None,,,,,,130,0,129,618.3572185999947,,,,,,,,,,,,,,,,,,,,,,,,,,,,,,618.3410344999866,618.3572185999947,618.840965099982,,,,,,,,,,,,618.8578262999654,,,,,,,,,,,,,,,618.8554832999944,618.8578262999654,618.8578262999654,618.8578262999654,621.8412404999835,j,2.0567039999878034,0.1999643999733962,621.8412873999914,621.8412984999595,None,621.857290099957,621.857290099957,621.857290099957,,,,,,,,,,,,,,00056,001,2026-01-18_19h23.59.153,MST_task,2024.2.0,60.144732279541095,2026-01-18 19h24.06.328378 +0530,
,Scenes\143a.jpg,130,0,131,,,,,,,j,1.275653599994257,0.231997599999886,None,,,,,,131,0,130,621.857290099957,,,,,,,,,,,,,,,,,,,,,,,,,,,,,,621.8413742999546,621.857290099957,622.3408777999575,,,,,,,,,,,,622.3591722999699,,,,,,,,,,,,,,,622.3569158999599,622.3591722999699,622.3591722999699,622.3591722999699,625.3575310999877,j,1.275653599994257,0.231997599999886,625.3575736999628,625.3575851999922,None,,,,,,,,,,,,,,,,,00056,001,2026-01-18_19h23.59.153,MST_task,2024.2.0,60.144732279541095,2026-01-18 19h24.06.328378 +0530,
,Scenes\055a.jpg,131,0,132,,,,,,,j,2.2961532999761403,0.20800019998569041,None,,,,,,132,0,131,625.373964999977,,,,,,,,,,,,,,,,,,,,,,,,,,,,,,625.3576828999794,625.373964999977,625.857521399972,,,,,,,,,,,,625.8741596999462,,,,,,,,,,,,,,,625.8719441999565,625.8741596999462,625.8741596999462,625.8741596999462,628.8578953999677,j,2.2961532999761403,0.20800019998569041,628.8579392999527,628.8579502999783,None,628.8739187999745,628.8739187999745,628.8739187999745,,,,,,,,,,,,,,00056,001,2026-01-18_19h23.59.153,MST_task,2024.2.0,60.144732279541095,2026-01-18 19h24.06.328378 +0530,
,Scenes\187a.jpg,132,0,133,,,,,,,j,1.0358849000185728,0.23198839998804033,None,,,,,,133,0,132,628.8739187999745,,,,,,,,,,,,,,,,,,,,,,,,,,,,,,628.8580153999501,628.8739187999745,629.3575838999823,,,,,,,,,,,,629.3751030999701,,,,,,,,,,,,,,,629.3727440999937,629.3751030999701,629.3751030999701,629.3751030999701,632.3742525999551,j,1.0358849000185728,0.23198839998804033,632.3742946999846,632.374306099955,None,,,,,,,,,,,,,,,,,00056,001,2026-01-18_19h23.59.153,MST_task,2024.2.0,60.144732279541095,2026-01-18 19h24.06.328378 +0530,
,Objects\063a.jpg,133,0,134,,,,,,,f,1.1518685999908485,0.2155738000292331,None,,,,,,134,0,133,632.3905634999974,,,,,,,,,,,,,,,,,,,,,,,,,,,,,,632.3744111999986,632.3905634999974,632.8742261999869,,,,,,,,,,,,632.8910456000012,,,,,,,,,,,,,,,632.8799216999905,632.8910456000012,632.8910456000012,632.8910456000012,635.8745558999944,f,1.1518685999908485,0.2155738000292331,635.8766107999836,635.8766283000004,None,635.8906055999687,635.8906055999687,635.8906055999687,,,,,,,,,,,,,,00056,001,2026-01-18_19h23.59.153,MST_task,2024.2.0,60.144732279541095,2026-01-18 19h24.06.328378 +0530,
,Objects\075a.jpg,134,0,135,,,,,,,f,0.7882976999972016,0.17595790000632405,None,,,,,,135,0,134,635.8906055999687,,,,,,,,,,,,,,,,,,,,,,,,,,,,,,635.8767304999637,635.8906055999687,636.3740055999951,,,,,,,,,,,,636.3907876999583,,,,,,,,,,,,,,,636.3833588999696,636.3907876999583,636.3907876999583,636.3907876999583,639.3745718999999,f,0.7882976999972016,0.17595790000632405,639.3746237999876,639.3746350999572,None,639.3906425999594,639.3906425999594,639.3906425999594,,,,,,,,,,,,,,00056,001,2026-01-18_19h23.59.153,MST_task,2024.2.0,60.144732279541095,2026-01-18 19h24.06.328378 +0530,
,Objects\155a.jpg,135,0,136,,,,,,,f,0.7515413999790326,0.16792809998150915,None,,,,,,136,0,135,639.3906425999594,,,,,,,,,,,,,,,,,,,,,,,,,,,,,,639.3747332999483,639.3906425999594,639.874219099991,,,,,,,,,,,,639.8908413999598,,,,,,,,,,,,,,,639.8841719999909,639.8908413999598,639.8908413999598,639.8908413999598,642.874508399982,f,0.7515413999790326,0.16792809998150915,642.8745512999594,642.8745619999827,None,642.8907073999871,642.8907073999871,642.8907073999871,,,,,,,,,,,,,,00056,001,2026-01-18_19h23.59.153,MST_task,2024.2.0,60.144732279541095,2026-01-18 19h24.06.328378 +0530,
,Objects\033a.jpg,136,0,137,,,,,,,f,1.3312847000197507,0.15219510003225878,None,,,,,,137,0,136,642.8907073999871,,,,,,,,,,,,,,,,,,,,,,,,,,,,,,642.8746587999631,642.8907073999871,643.3741113999858,,,,,,,,,,,,643.3909861999564,,,,,,,,,,,,,,,643.3833818999701,643.3909861999564,643.3909861999564,643.3909861999564,646.3741720999824,f,1.3312847000197507,0.15219510003225878,646.3742147999583,646.3742265999899,None,646.3906577999587,646.3906577999587,646.3906577999587,,,,,,,,,,,,,,00056,001,2026-01-18_19h23.59.153,MST_task,2024.2.0,60.144732279541095,2026-01-18 19h24.06.328378 +0530,
,Objects\025a.jpg,137,0,138,,,,,,,f,1.6636328999884427,0.1930176999885589,None,,,,,,138,0,137,646.3906577999587,,,,,,,,,,,,,,,,,,,,,,,,,,,,,,646.3742959999945,646.3906577999587,646.8741040999885,,,,,,,,,,,,646.8908222999889,,,,,,,,,,,,,,,646.8835470999475,646.8908222999889,646.8908222999889,646.8908222999889,649.8744849999784,f,1.6636328999884427,0.1930176999885589,649.8745266999467,649.8745376999723,None,649.8907318999991,649.8907318999991,649.8907318999991,,,,,,,,,,,,,,00056,001,2026-01-18_19h23.59.153,MST_task,2024.2.0,60.144732279541095,2026-01-18 19h24.06.328378 +0530,
,Objects\160a.jpg,138,0,139,,,,,,,f,1.4353333999752067,0.24060279998229817,None,,,,,,139,0,138,649.8907318999991,,,,,,,,,,,,,,,,,,,,,,,,,,,,,,649.8746329999994,649.8907318999991,650.3742809999967,,,,,,,,,,,,650.3909839999978,,,,,,,,,,,,,,,650.3840100999805,650.3909839999978,650.3909839999978,650.3909839999978,653.374524999992,f,1.4353333999752067,0.24060279998229817,653.3745697999839,653.374580899952,None,653.3905006999848,653.3905006999848,653.3905006999848,,,,,,,,,,,,,,00056,001,2026-01-18_19h23.59.153,MST_task,2024.2.0,60.144732279541095,2026-01-18 19h24.06.328378 +0530,
,Objects\106a.jpg,139,0,140,,,,,,,f,0.9439084999612533,0.1681951000355184,None,,,,,,140,0,139,653.3905006999848,,,,,,,,,,,,,,,,,,,,,,,,,,,,,,653.3746482999995,653.3905006999848,653.8742726999917,,,,,,,,,,,,653.8907532999874,,,,,,,,,,,,,,,653.8860095999553,653.8907532999874,653.8907532999874,653.8907532999874,656.8745994999772,f,0.9439084999612533,0.1681951000355184,656.8746428999584,656.8746537999832,None,656.8905868000002,656.8905868000002,656.8905868000002,,,,,,,,,,,,,,00056,001,2026-01-18_19h23.59.153,MST_task,2024.2.0,60.144732279541095,2026-01-18 19h24.06.328378 +0530,
,Scenes\118a.jpg,140,0,141,,,,,,,j,2.7231480999616906,0.15997010003775358,None,,,,,,141,0,140,656.8905868000002,,,,,,,,,,,,,,,,,,,,,,,,,,,,,,656.8747511999682,656.8905868000002,657.3741888999939,,,,,,,,,,,,657.3918867999455,,,,,,,,,,,,,,,657.3890384999686,657.3918867999455,657.3918867999455,657.3918867999455,660.3909115999704,j,2.7231480999616906,0.15997010003775358,660.3925112999859,660.3925280999974,None,,,,,,,,,,,,,,,,,00056,001,2026-01-18_19h23.59.153,MST_task,2024.2.0,60.144732279541095,2026-01-18 19h24.06.328378 +0530,
,Scenes\027a.jpg,141,0,142,,,,,,,f,0.9982026999932714,0.15998850000323728,None,,,,,,142,0,141,660.4073635999812,,,,,,,,,,,,,,,,,,,,,,,,,,,,,,660.3926297999569,660.4073635999812,660.8908443999826,,,,,,,,,,,,660.9081350999768,,,,,,,,,,,,,,,660.905710699968,660.9081350999768,660.9081350999768,660.9081350999768,663.8912725999835,f,0.9982026999932714,0.15998850000323728,663.8913133000024,663.8913237999659,None,663.9072978999466,663.9072978999466,663.9072978999466,,,,,,,,,,,,,,00056,001,2026-01-18_19h23.59.153,MST_task,2024.2.0,60.144732279541095,2026-01-18 19h24.06.328378 +0530,
,Scenes\079a.jpg,142,0,143,,,,,,,j,0.6429525000276044,0.14404689997900277,None,,,,,,143,0,142,663.9072978999466,,,,,,,,,,,,,,,,,,,,,,,,,,,,,,663.891387199983,663.9072978999466,664.3909557999577,,,,,,,,,,,,664.4078585999669,,,,,,,,,,,,,,,664.4031470999471,664.4078585999669,664.4078585999669,664.4078585999669,667.3912029999774,j,0.6429525000276044,0.14404689997900277,667.3912451999495,667.3912563999766,None,667.407241399982,667.407241399982,667.407241399982,,,,,,,,,,,,,,00056,001,2026-01-18_19h23.59.153,MST_task,2024.2.0,60.144732279541095,2026-01-18 19h24.06.328378 +0530,
,Scenes\094a.jpg,143,0,144,,,,,,,f,1.7075647000456229,0.19179129996336997,None,,,,,,144,0,143,667.407241399982,,,,,,,,,,,,,,,,,,,,,,,,,,,,,,667.39135359996,667.407241399982,667.8908920999966,,,,,,,,,,,,667.9115778999985,,,,,,,,,,,,,,,667.9091122999671,667.9115778999985,667.9115778999985,667.9115778999985,670.9075087999809,f,1.7075647000456229,0.19179129996336997,670.9075556999887,670.9075678999652,None,,,,,,,,,,,,,,,,,00056,001,2026-01-18_19h23.59.153,MST_task,2024.2.0,60.144732279541095,2026-01-18 19h24.06.328378 +0530,
,Scenes\123a.jpg,144,0,145,,,,,,,j,0.778187700023409,0.22511359996860847,None,,,,,,145,0,144,670.9237633000012,,,,,,,,,,,,,,,,,,,,,,,,,,,,,,670.9076451999717,670.9237633000012,671.4074412999908,,,,,,,,,,,,671.4244549999712,,,,,,,,,,,,,,,671.4205317999586,671.4244549999712,671.4244549999712,671.4244549999712,674.4076741999597,j,0.778187700023409,0.22511359996860847,674.4077186999493,674.4077300999779,None,674.4237151999841,674.4237151999841,674.4237151999841,,,,,,,,,,,,,,00056,001,2026-01-18_19h23.59.153,MST_task,2024.2.0,60.144732279541095,2026-01-18 19h24.06.328378 +0530,
,Scenes\134a.jpg,145,0,146,,,,,,,j,1.8194233999820426,0.16800050000892952,None,,,,,,146,0,145,674.4237151999841,,,,,,,,,,,,,,,,,,,,,,,,,,,,,,674.4078295999789,674.4237151999841,674.9074353999458,,,,,,,,,,,,674.9269857999752,,,,,,,,,,,,,,,674.9246775999782,674.9269857999752,674.9269857999752,674.9269857999752,677.9240475999541,j,1.8194233999820426,0.16800050000892952,677.9240955999703,677.9241077999468,None,,,,,,,,,,,,,,,,,00056,001,2026-01-18_19h23.59.153,MST_task,2024.2.0,60.144732279541095,2026-01-18 19h24.06.328378 +0530,
,Scenes\105a.jpg,146,0,147,,,,,,,j,1.0943628000095487,0.20003329997416586,None,,,,,,147,0,146,677.9405142999603,,,,,,,,,,,,,,,,,,,,,,,,,,,,,,677.9242280999897,677.9405142999603,678.4241365999915,,,,,,,,,,,,678.4443000999745,,,,,,,,,,,,,,,678.4418096999871,678.4443000999745,678.4443000999745,678.4443000999745,681.4408184999484,j,1.0943628000095487,0.20003329997416586,681.440859299968,681.4408714000019,None,,,,,,,,,,,,,,,,,00056,001,2026-01-18_19h23.59.153,MST_task,2024.2.0,60.144732279541095,2026-01-18 19h24.06.328378 +0530,
,Objects\049a.jpg,147,0,148,,,,,,,f,2.2695546000031754,0.2079972000210546,None,,,,,,148,0,147,681.4571952999686,,,,,,,,,,,,,,,,,,,,,,,,,,,,,,681.4409723999561,681.4571952999686,681.9408052999643,,,,,,,,,,,,681.9577709999867,,,,,,,,,,,,,,,681.9461366999894,681.9577709999867,681.9577709999867,681.9577709999867,684.9414477999671,f,2.2695546000031754,0.2079972000210546,684.9435764999944,684.9435948999599,None,684.9572456999449,684.9572456999449,684.9572456999449,,,,,,,,,,,,,,00056,001,2026-01-18_19h23.59.153,MST_task,2024.2.0,60.144732279541095,2026-01-18 19h24.06.328378 +0530,
,Objects\182a.jpg,148,0,149,,,,,,,f,1.713549000036437,0.19243439997080714,None,,,,,,149,0,148,684.9572456999449,,,,,,,,,,,,,,,,,,,,,,,,,,,,,,684.9436655999743,684.9572456999449,685.4408147999784,,,,,,,,,,,,685.457449199981,,,,,,,,,,,,,,,685.4504938999889,685.457449199981,685.457449199981,685.457449199981,688.44124439999,f,1.713549000036437,0.19243439997080714,688.4412924999488,688.4413039999781,None,688.4571715999627,688.4571715999627,688.4571715999627,,,,,,,,,,,,,,00056,001,2026-01-18_19h23.59.153,MST_task,2024.2.0,60.144732279541095,2026-01-18 19h24.06.328378 +0530,
,Objects\023a.jpg,149,0,150,,,,,,,f,0.8770166999893263,0.17728429997805506,None,,,,,,150,0,149,688.4571715999627,,,,,,,,,,,,,,,,,,,,,,,,,,,,,,688.4413710999652,688.4571715999627,688.9408429999603,,,,,,,,,,,,688.957434299984,,,,,,,,,,,,,,,688.9434792999527,688.957434299984,688.957434299984,688.957434299984,691.9410012000008,f,0.8770166999893263,0.17728429997805506,691.9410446999827,691.9410553999478,None,691.9572090999573,691.9572090999573,691.9572090999573,,,,,,,,,,,,,,00056,001,2026-01-18_19h23.59.153,MST_task,2024.2.0,60.144732279541095,2026-01-18 19h24.06.328378 +0530,
,Objects\099a.jpg,150,0,151,,,,,,,j,1.3936302000074647,0.19196999998530373,None,,,,,,151,0,150,691.9572090999573,,,,,,,,,,,,,,,,,,,,,,,,,,,,,,691.941119999974,691.9572090999573,692.4408656999585,,,,,,,,,,,,692.457433899981,,,,,,,,,,,,,,,692.4441220999579,692.457433899981,692.457433899981,692.457433899981,695.4411307999981,j,1.3936302000074647,0.19196999998530373,695.4411743999808,695.4411849999451,None,695.4571500999737,695.4571500999737,695.4571500999737,,,,,,,,,,,,,,00056,001,2026-01-18_19h23.59.153,MST_task,2024.2.0,60.144732279541095,2026-01-18 19h24.06.328378 +0530,
,Objects\061a.jpg,151,0,152,,,,,,,j,1.2849147000233643,0.2000523000024259,None,,,,,,152,0,151,695.4571500999737,,,,,,,,,,,,,,,,,,,,,,,,,,,,,,695.4412501999759,695.4571500999737,695.9410269999644,,,,,,,,,,,,695.9574821999995,,,,,,,,,,,,,,,695.9438751999987,695.9574821999995,695.9574821999995,695.9574821999995,698.9410936999484,j,1.2849147000233643,0.2000523000024259,698.9411360999802,698.9411469999468,None,698.9572159999516,698.9572159999516,698.9572159999516,,,,,,,,,,,,,,00056,001,2026-01-18_19h23.59.153,MST_task,2024.2.0,60.144732279541095,2026-01-18 19h24.06.328378 +0530,
,Objects\113a.jpg,152,0,153,,,,,,,f,0.8417217000387609,0.20772079995367676,None,,,,,,153,0,152,698.9572159999516,,,,,,,,,,,,,,,,,,,,,,,,,,,,,,698.9412464999477,698.9572159999516,699.440784299979,,,,,,,,,,,,699.4574416999822,,,,,,,,,,,,,,,699.4503533999668,699.4574416999822,699.4574416999822,699.4574416999822,702.4410828999826,f,0.8417217000387609,0.20772079995367676,702.4411242999486,702.4411352999741,None,702.4572718999698,702.4572718999698,702.4572718999698,,,,,,,,,,,,,,00056,001,2026-01-18_19h23.59.153,MST_task,2024.2.0,60.144732279541095,2026-01-18 19h24.06.328378 +0530,
,Objects\152a.jpg,153,0,154,,,,,,,f,1.1257028999971226,0.21599910000804812,None,,,,,,154,0,153,702.4572718999698,,,,,,,,,,,,,,,,,,,,,,,,,,,,,,702.4411997999996,702.4572718999698,702.940861799987,,,,,,,,,,,,702.9574576999876,,,,,,,,,,,,,,,702.950393999985,702.9574576999876,702.9574576999876,702.9574576999876,705.9410868999548,f,1.1257028999971226,0.21599910000804812,705.941131999949,705.9411435999791,None,705.9572218999965,705.9572218999965,705.9572218999965,,,,,,,,,,,,,,00056,001,2026-01-18_19h23.59.153,MST_task,2024.2.0,60.144732279541095,2026-01-18 19h24.06.328378 +0530,
,Scenes\049a.jpg,154,0,155,,,,,,,None,,,j,0.8826994000119157,None,,,,155,0,154,705.9572218999965,,,,,,,,,,,,,,,,,,,,,,,,,,,,,,705.9412396999542,705.9572218999965,706.4407797000022,,,,,,,,,,,,706.4576877999934,,,,,,,,,,,,,,,706.449725399958,706.4576877999934,706.4576877999934,706.4576877999934,709.4412476999569,None,,,709.4429260999896,710.3409806999844,j,709.4571937999572,709.4571937999572,709.4571937999572,709.4571937999572,709.4571937999572,0.8826994000119157,None,,,,,,,,,,00056,001,2026-01-18_19h23.59.153,MST_task,2024.2.0,60.144732279541095,2026-01-18 19h24.06.328378 +0530,
,Scenes\153a.jpg,155,0,156,,,,,,,j,2.649157700012438,0.183751399978064,None,,,,,,156,0,155,710.3572086999775,,,,,,,,,,,,,,,,,,,,,,,,,,,,,,710.3410993999569,710.3572086999775,710.8407336999662,,,,,,,,,,,,710.8574420999503,,,,,,,,,,,,,,,710.8540759999887,710.8574420999503,710.8574420999503,710.8574420999503,713.8414125999552,j,2.649157700012438,0.183751399978064,713.8414651999483,713.8414771999815,None,713.8573772999807,713.8573772999807,713.8573772999807,,,,,,,,,,,,,,00056,001,2026-01-18_19h23.59.153,MST_task,2024.2.0,60.144732279541095,2026-01-18 19h24.06.328378 +0530,
,Scenes\078a.jpg,156,0,157,,,,,,,j,1.5358045999892056,0.18399950000457466,None,,,,,,157,0,156,713.8573772999807,,,,,,,,,,,,,,,,,,,,,,,,,,,,,,713.8415923999855,713.8573772999807,714.3409491999773,,,,,,,,,,,,714.3631239999668,,,,,,,,,,,,,,,714.3606398999691,714.3631239999668,714.3631239999668,714.3631239999668,717.3574658999569,j,1.5358045999892056,0.18399950000457466,717.3575074999826,717.3575187999522,None,,,,,,,,,,,,,,,,,00056,001,2026-01-18_19h23.59.153,MST_task,2024.2.0,60.144732279541095,2026-01-18 19h24.06.328378 +0530,
,Scenes\136a.jpg,157,0,158,,,,,,,f,1.1517563999514095,0.1604285000357777,None,,,,,,158,0,157,717.3737288999837,,,,,,,,,,,,,,,,,,,,,,,,,,,,,,717.357625399949,717.3737288999837,717.8574494999484,,,,,,,,,,,,717.8753601999488,,,,,,,,,,,,,,,717.8728995999554,717.8753601999488,717.8753601999488,717.8753601999488,720.8740119999857,f,1.1517563999514095,0.1604285000357777,720.874058299989,720.8740703999647,None,,,,,,,,,,,,,,,,,00056,001,2026-01-18_19h23.59.153,MST_task,2024.2.0,60.144732279541095,2026-01-18 19h24.06.328378 +0530,
,Scenes\170a.jpg,158,0,159,,,,,,,j,0.912536200019531,0.23200469999574125,None,,,,,,159,0,158,720.8905118999537,,,,,,,,,,,,,,,,,,,,,,,,,,,,,,720.8741807999904,720.8905118999537,721.3740654999856,,,,,,,,,,,,721.3945308999973,,,,,,,,,,,,,,,721.3922667999868,721.3945308999973,721.3945308999973,721.3945308999973,724.3908210999798,j,0.912536200019531,0.23200469999574125,724.3908639999572,724.3908754999866,None,,,,,,,,,,,,,,,,,00056,001,2026-01-18_19h23.59.153,MST_task,2024.2.0,60.144732279541095,2026-01-18 19h24.06.328378 +0530,
