Sl_no,image_path,thisN,thisTrialN,thisRepN,key_resp_5.keys,key_resp_7.keys,key_resp_7.rt,key_resp_7.duration,key_resp_5.rt,key_resp_5.duration,key_resp_9.keys,key_resp_9.rt,key_resp_9.duration,key_resp_8.keys,key_resp_8.rt,key_resp_8.duration,practice.thisRepN,practice.thisTrialN,practice.thisN,trials.thisRepN,trials.thisTrialN,trials.thisN,thisRow.t,notes,welcome_page.started,text.started,key_resp.started,welcome_page.stopped,key_resp.keys,key_resp.rt,key_resp.duration,instructions.started,ins.started,key_resp_2.started,instructions.stopped,key_resp_2.keys,key_resp_2.rt,key_resp_2.duration,instructions_2.started,text_10.started,key_resp_10.started,instructions_2.stopped,key_resp_10.keys,key_resp_10.rt,key_resp_10.duration,objects_only_instruction.started,text_3.started,key_resp_3.started,objects_only_instruction.stopped,key_resp_3.keys,key_resp_3.rt,key_resp_3.duration,ISI.started,text_4.started,ISI.stopped,practice_block.started,image.started,text_5.started,key_resp_5.started,practice_block.stopped,practice.key_resp_5.keys,indoor_outdoor.started,text_7.started,key_resp_7.started,indoor_outdoor.stopped,practice.key_resp_7.keys,practice.key_resp_7.rt,practice.key_resp_7.duration,practice.key_resp_5.rt,practice.key_resp_5.duration,practice_to_main.started,text_2.started,key_resp_4.started,practice_to_main.stopped,key_resp_4.keys,key_resp_4.rt,key_resp_4.duration,objects.started,image_2.started,text_9.started,key_resp_9.started,objects.stopped,trials.key_resp_9.keys,trials.key_resp_9.rt,trials.key_resp_9.duration,encoding_task.started,encoding_task.stopped,trials.key_resp_8.keys,text_4.stopped,text_8.started,key_resp_8.started,trials.key_resp_8.rt,trials.key_resp_8.duration,end_experiment.started,text_6.started,key_resp_6.started,end_experiment.stopped,key_resp_6.keys,key_resp_6.rt,key_resp_6.duration,list_of_stimuli,encoding_task_accuracy,participant,session,date,expName,psychopyVersion,frameRate,expStart,
,,,,,,,,,,,,,,,,,,,,,,,,,0.011807899980340153,0.028109900013078004,0.028109900013078004,8.43805490003433,space,8.356593500007875,None,,,,,,,,,,,,,,,,,,,,,,,,,,,,,,,,,,,,,,,,,,,,,,,,,,,,,,,,,,,,,,,,,,,,,,,,00059,001,2026-01-19_14h57.32.554,MST_task,2024.2.0,59.78469140846146,2026-01-19 14h58.58.380412 +0530,
,,,,,,,,,,,,,,,,,,,,,,,,,,,,,,,,8.43809660000261,8.458710000035353,8.458710000035353,26.472574900020845,space,18.005825100000948,None,,,,,,,,,,,,,,,,,,,,,,,,,,,,,,,,,,,,,,,,,,,,,,,,,,,,,,,,,,,,,,,,,00059,001,2026-01-19_14h57.32.554,MST_task,2024.2.0,59.78469140846146,2026-01-19 14h58.58.380412 +0530,
,,,,,,,,,,,,,,,,,,,,,,,,,,,,,,,,,,,,,,,26.47260430001188,26.48851440002909,26.48851440002909,68.98794120003004,space,42.495617599983234,None,,,,,,,,,,,,,,,,,,,,,,,,,,,,,,,,,,,,,,,,,,,,,,,,,,,,,,,,,,00059,001,2026-01-19_14h57.32.554,MST_task,2024.2.0,59.78469140846146,2026-01-19 14h58.58.380412 +0530,
,,,,,,,,,,,,,,,,,,,,,,,,,,,,,,,,,,,,,,,,,,,,,,68.98797760001617,69.00430939998478,69.00430939998478,84.60943050001515,space,15.5962999999756,None,,,,,,,,,,,,,,,,,,,,,,,,,,,,,,,,,,,,,,,,,,,,,,,,,,,00059,001,2026-01-19_14h57.32.554,MST_task,2024.2.0,59.78469140846146,2026-01-19 14h58.58.380412 +0530,
6,practice_images/158a.jpg,0,0,1,None,j,0.2619222000357695,None,,,,,,,,,1,0,0,,,,84.6423383000074,,,,,,,,,,,,,,,,,,,,,,,,,,,,,,84.63074019999476,84.6423383000074,85.11063750000903,85.12788759998512,85.14408260001801,85.14408260001801,85.14408260001801,88.12099660001695,None,88.12229020002997,88.13790299999528,88.13790299999528,88.40667170000961,j,0.2619222000357695,None,,,,,,,,,,,,,,,,,,,,,,,,,,,,,,,,,,,00059,001,2026-01-19_14h57.32.554,MST_task,2024.2.0,59.78469140846146,2026-01-19 14h58.58.380412 +0530,
2,practice_images/031a.jpg,1,1,1,f,None,,,1.643500700010918,0.1357589000253938,,,,,,,1,1,1,,,,88.4219952999847,,,,,,,,,,,,,,,,,,,,,,,,,,,,,,88.40675949997967,88.4219952999847,88.9071971999947,88.91545720002614,88.94055519998074,88.94055519998074,88.94055519998074,91.91762650001328,f,91.91770470002666,,,91.91772480000509,None,,,1.643500700010918,0.1357589000253938,,,,,,,,,,,,,,,,,,,,,,,,,,,,,,,,,00059,001,2026-01-19_14h57.32.554,MST_task,2024.2.0,59.78469140846146,2026-01-19 14h58.58.380412 +0530,
1,practice_images/013a.jpg,2,2,1,f,None,,,1.8843434000154957,0.22465279995230958,,,,,,,1,2,2,,,,91.93442100001266,,,,,,,,,,,,,,,,,,,,,,,,,,,,,,91.91805590002332,91.93442100001266,92.41939749999437,92.42793950001942,92.43544289999409,92.43544289999409,92.43544289999409,95.42996829998447,f,95.43002209998667,,,95.43003440002212,None,,,1.8843434000154957,0.22465279995230958,,,,,,,,,,,,,,,,,,,,,,,,,,,,,,,,,00059,001,2026-01-19_14h57.32.554,MST_task,2024.2.0,59.78469140846146,2026-01-19 14h58.58.380412 +0530,
3,practice_images/037a.jpg,3,3,1,f,None,,,1.0365328000043519,0.18479379999917,,,,,,,1,3,3,,,,95.44671679998282,,,,,,,,,,,,,,,,,,,,,,,,,,,,,,95.43038360000355,95.44671679998282,95.93178270000499,95.94024000002537,95.94776010001078,95.94776010001078,95.94776010001078,98.94223789998796,f,98.94227689999389,,,98.94228960003238,None,,,1.0365328000043519,0.18479379999917,,,,,,,,,,,,,,,,,,,,,,,,,,,,,,,,,00059,001,2026-01-19_14h57.32.554,MST_task,2024.2.0,59.78469140846146,2026-01-19 14h58.58.380412 +0530,
8,practice_images/178a.jpg,4,4,1,j,None,,,1.7962137999711558,0.24794790003215894,,,,,,,1,4,4,,,,98.95902639999986,,,,,,,,,,,,,,,,,,,,,,,,,,,,,,98.94235860003391,98.95902639999986,99.44401229999494,99.45275380002568,99.45990690001054,99.45990690001054,99.45990690001054,102.45453620003536,j,102.45457699999679,,,102.45459019998088,None,,,1.7962137999711558,0.24794790003215894,,,,,,,,,,,,,,,,,,,,,,,,,,,,,,,,,00059,001,2026-01-19_14h57.32.554,MST_task,2024.2.0,59.78469140846146,2026-01-19 14h58.58.380412 +0530,
10,practice_images/182a.jpg,5,5,1,f,None,,,2.139265899953898,0.21532210003351793,,,,,,,1,5,5,,,,102.47133179998491,,,,,,,,,,,,,,,,,,,,,,,,,,,,,,102.45495799998753,102.47133179998491,102.95642870001029,102.96707840001909,102.97384789999342,102.97384789999342,102.97384789999342,105.96700840000995,f,105.96890670002904,,,105.96892399998615,None,,,2.139265899953898,0.21532210003351793,,,,,,,,,,,,,,,,,,,,,,,,,,,,,,,,,00059,001,2026-01-19_14h57.32.554,MST_task,2024.2.0,59.78469140846146,2026-01-19 14h58.58.380412 +0530,
7,practice_images/166a.jpg,6,6,1,j,None,,,2.075568799977191,0.22352440003305674,,,,,,,1,6,6,,,,105.98349900002358,,,,,,,,,,,,,,,,,,,,,,,,,,,,,,105.96900859999005,105.98349900002358,106.46903989999555,106.47711380000692,106.48480869998457,106.48480869998457,106.48480869998457,109.47926059999736,j,109.47956310003065,,,109.47958069999004,None,,,2.075568799977191,0.22352440003305674,,,,,,,,,,,,,,,,,,,,,,,,,,,,,,,,,00059,001,2026-01-19_14h57.32.554,MST_task,2024.2.0,59.78469140846146,2026-01-19 14h58.58.380412 +0530,
5,practice_images/139a.jpg,7,7,1,j,None,,,2.5628777999663725,0.23292350000701845,,,,,,,1,7,7,,,,109.49579930002801,,,,,,,,,,,,,,,,,,,,,,,,,,,,,,109.47965180000756,109.49579930002801,109.98099870001897,109.9894142000121,109.99698320002062,109.99698320002062,109.99698320002062,112.99155089998385,j,112.99159150000196,,,112.99160479998682,None,,,2.5628777999663725,0.23292350000701845,,,,,,,,,,,,,,,,,,,,,,,,,,,,,,,,,00059,001,2026-01-19_14h57.32.554,MST_task,2024.2.0,59.78469140846146,2026-01-19 14h58.58.380412 +0530,
9,practice_images/180a.jpg,8,8,1,j,None,,,1.2914395999978296,0.27145940001355484,,,,,,,1,8,8,,,,113.00809259997914,,,,,,,,,,,,,,,,,,,,,,,,,,,,,,112.99167489999672,113.00809259997914,113.49329940002644,113.50175749999471,113.50938599999063,113.50938599999063,113.50938599999063,116.50391129998025,j,116.50395199999912,,,116.50396519998321,None,,,1.2914395999978296,0.27145940001355484,,,,,,,,,,,,,,,,,,,,,,,,,,,,,,,,,00059,001,2026-01-19_14h57.32.554,MST_task,2024.2.0,59.78469140846146,2026-01-19 14h58.58.380412 +0530,
4,practice_images/002b.jpg,9,9,1,j,None,,,1.688993500021752,0.18338810000568628,,,,,,,1,9,9,,,,116.52040590002434,,,,,,,,,,,,,,,,,,,,,,,,,,,,,,116.50403910002206,116.52040590002434,117.00614860001951,117.01494979998097,117.03964319999795,117.03964319999795,117.03964319999795,120.01603210001485,j,120.01607280003373,,,120.01608570001554,None,,,1.688993500021752,0.18338810000568628,,,,,,,,,,,,,,,,,,,,,,,,,,,,,,,,,00059,001,2026-01-19_14h57.32.554,MST_task,2024.2.0,59.78469140846146,2026-01-19 14h58.58.380412 +0530,
,,,,,,,,,,,,,,,,,,,,,,,,,,,,,,,,,,,,,,,,,,,,,,,,,,,,,,,,,,,,,,,,,,,,,,,120.01613220002037,120.03267809998943,120.03267809998943,130.035155199992,space,9.991513700049836,None,,,,,,,,,,,,,,,,,,,,,,,,,,00059,001,2026-01-19_14h57.32.554,MST_task,2024.2.0,59.78469140846146,2026-01-19 14h58.58.380412 +0530,
,Objects\124a.jpg,0,0,1,,,,,,,j,1.805719500000123,0.18323089997284114,None,,,,,,1,0,0,130.05112220003502,,,,,,,,,,,,,,,,,,,,,,,,,,,,,,130.03589739999734,130.05112220003502,130.53654140001163,,,,,,,,,,,,,,,,,,,,,,,130.55923319997964,130.58670739998342,130.58670739998342,130.58670739998342,133.54687050002394,j,1.805719500000123,0.18323089997284114,133.54988880001474,133.54990869999165,None,,,,,,,,,,,,,,,00059,001,2026-01-19_14h57.32.554,MST_task,2024.2.0,59.78469140846146,2026-01-19 14h58.58.380412 +0530,
,Objects\162a.jpg,1,0,2,,,,,,,f,1.1422373999957927,0.17616190004628152,None,,,,,,2,0,1,133.56343670003116,,,,,,,,,,,,,,,,,,,,,,,,,,,,,,133.55001340003219,133.56343670003116,134.0488649000181,,,,,,,,,,,,,,,,,,,,,,,134.0589772000094,134.08202259999234,134.08202259999234,134.08202259999234,137.05923870002152,f,1.1422373999957927,0.17616190004628152,137.05928960000165,137.05930490000173,None,134.08202259999234,,,,,,,,,,,,,,00059,001,2026-01-19_14h57.32.554,MST_task,2024.2.0,59.78469140846146,2026-01-19 14h58.58.380412 +0530,
,Objects\055a.jpg,2,0,3,,,,,,,f,1.2225423000054434,0.1918543999781832,None,,,,,,3,0,2,137.07585359999212,,,,,,,,,,,,,,,,,,,,,,,,,,,,,,137.05967350001447,137.07585359999212,137.56078709999565,,,,,,,,,,,,,,,,,,,,,,,137.5705473999842,137.59432690002723,137.59432690002723,137.59432690002723,140.57146599999396,f,1.2225423000054434,0.1918543999781832,140.57165559998248,140.57168360002106,None,,,,,,,,,,,,,,,00059,001,2026-01-19_14h57.32.554,MST_task,2024.2.0,59.78469140846146,2026-01-19 14h58.58.380412 +0530,
,Objects\091a.jpg,3,0,4,,,,,,,j,2.3574673000257462,0.23158449999755248,None,,,,,,4,0,3,140.58802969998214,,,,,,,,,,,,,,,,,,,,,,,,,,,,,,140.57175559998723,140.58802969998214,141.0732255000039,,,,,,,,,,,,,,,,,,,,,,,141.08265070000198,141.10688289999962,141.10688289999962,141.10688289999962,144.08397879998665,j,2.3574673000257462,0.23158449999755248,144.08402230002685,144.08403450000333,None,,,,,,,,,,,,,,,00059,001,2026-01-19_14h57.32.554,MST_task,2024.2.0,59.78469140846146,2026-01-19 14h58.58.380412 +0530,
,Objects\150a.jpg,4,0,5,,,,,,,j,2.317179400008172,0.255957999965176,None,,,,,,5,0,4,144.10034200001974,,,,,,,,,,,,,,,,,,,,,,,,,,,,,,144.0841575000086,144.10034200001974,144.5855232999893,,,,,,,,,,,,,,,,,,,,,,,144.5975737000117,144.61881950002862,144.61881950002862,144.61881950002862,147.59598109999206,j,2.317179400008172,0.255957999965176,147.59602400002768,147.5960366000072,None,,,,,,,,,,,,,,,00059,001,2026-01-19_14h57.32.554,MST_task,2024.2.0,59.78469140846146,2026-01-19 14h58.58.380412 +0530,
,Objects\065a.jpg,5,0,6,,,,,,,j,1.2290608000475913,0.2326733999652788,None,,,,,,6,0,5,147.61274820001563,,,,,,,,,,,,,,,,,,,,,,,,,,,,,,147.5962527000229,147.61274820001563,148.09772550000343,,,,,,,,,,,,,,,,,,,,,,,148.108779400005,148.13122949999524,148.13122949999524,148.13122949999524,151.10865900001954,j,1.2290608000475913,0.2326733999652788,151.10870510002133,151.1087178000016,None,,,,,,,,,,,,,,,00059,001,2026-01-19_14h57.32.554,MST_task,2024.2.0,59.78469140846146,2026-01-19 14h58.58.380412 +0530,
,Objects\108a.jpg,6,0,7,,,,,,,j,1.1739724000217393,0.23854819999542087,None,,,,,,7,0,6,151.12492590001784,,,,,,,,,,,,,,,,,,,,,,,,,,,,,,151.1088233999908,151.12492590001784,151.61031660001026,,,,,,,,,,,,,,,,,,,,,,,151.61943940003403,151.64354980003554,151.64354980003554,151.64354980003554,154.62068709998857,j,1.1739724000217393,0.23854819999542087,154.62073060002876,154.62074350001058,None,,,,,,,,,,,,,,,00059,001,2026-01-19_14h57.32.554,MST_task,2024.2.0,59.78469140846146,2026-01-19 14h58.58.380412 +0530,
,Scenes\018a.jpg,7,0,8,,,,,,,None,,,f,1.0425342999515124,None,,,,8,0,7,154.63735690002795,,,,,,,,,,,,,,,,,,,,,,,,,,,,,,154.62087220000103,154.63735690002795,155.12237390002701,,,,,,,,,,,,,,,,,,,,,,,155.1510338000371,155.1733156000264,155.1733156000264,155.1733156000264,158.1332345000119,None,,,158.13460940000368,159.20396630000323,f,,158.1495592999854,158.1495592999854,1.0425342999515124,None,,,,,,,,,,00059,001,2026-01-19_14h57.32.554,MST_task,2024.2.0,59.78469140846146,2026-01-19 14h58.58.380412 +0530,
,Scenes\067a.jpg,8,0,9,,,,,,,j,1.7423300000373274,0.16780769999604672,None,,,,,,9,0,8,159.21995090000564,,,,,,,,,,,,,,,,,,,,,,,,,,,,,,159.20406010001898,159.21995090000564,159.7051459000213,,,,,,,,,,,,,,,,,,,,,,,159.72742320003454,159.73783980001463,159.73783980001463,159.73783980001463,162.71571299998323,j,1.7423300000373274,0.16780769999604672,162.7157573000295,162.71577030001208,None,,,,,,,,,,,,,,,00059,001,2026-01-19_14h57.32.554,MST_task,2024.2.0,59.78469140846146,2026-01-19 14h58.58.380412 +0530,
,Scenes\024a.jpg,9,0,10,,,,,,,j,1.7742597999749705,0.22387990000424907,None,,,,,,10,0,9,162.73237440001685,,,,,,,,,,,,,,,,,,,,,,,,,,,,,,162.71588530001463,162.73237440001685,163.2173424999928,,,,,,,,,,,,,,,,,,,,,,,163.23933020001277,163.25027389999013,163.25027389999013,163.25027389999013,166.22803450003266,j,1.7742597999749705,0.22387990000424907,166.2280784000177,166.2280907999957,None,,,,,,,,,,,,,,,00059,001,2026-01-19_14h57.32.554,MST_task,2024.2.0,59.78469140846146,2026-01-19 14h58.58.380412 +0530,
,Scenes\118a.jpg,10,0,11,,,,,,,j,1.1656226000050083,0.23142279998864979,None,,,,,,11,0,10,166.2448233999894,,,,,,,,,,,,,,,,,,,,,,,,,,,,,,166.22820250003133,166.2448233999894,166.72982030001003,,,,,,,,,,,,,,,,,,,,,,,166.74943100003293,166.76318720000563,166.76318720000563,166.76318720000563,169.74034210003447,j,1.1656226000050083,0.23142279998864979,169.7403847000096,169.74039699998684,None,,,,,,,,,,,,,,,00059,001,2026-01-19_14h57.32.554,MST_task,2024.2.0,59.78469140846146,2026-01-19 14h58.58.380412 +0530,
,Scenes\182a.jpg,11,0,12,,,,,,,j,2.005506700021215,0.20723679999355227,None,,,,,,12,0,11,169.75712630001362,,,,,,,,,,,,,,,,,,,,,,,,,,,,,,169.74052400002256,169.75712630001362,170.24211019999348,,,,,,,,,,,,,,,,,,,,,,,170.26068700000178,170.2755205000285,170.2755205000285,170.2755205000285,173.25317939999513,j,2.005506700021215,0.20723679999355227,173.2532332999981,173.2532474999898,None,,,,,,,,,,,,,,,00059,001,2026-01-19_14h57.32.554,MST_task,2024.2.0,59.78469140846146,2026-01-19 14h58.58.380412 +0530,
,Scenes\191a.jpg,12,0,13,,,,,,,j,2.0517644999781623,0.2237322000437416,None,,,,,,13,0,12,173.26931220002007,,,,,,,,,,,,,,,,,,,,,,,,,,,,,,173.25332790001994,173.26931220002007,173.75448860001052,,,,,,,,,,,,,,,,,,,,,,,173.7744799000211,173.78857859998243,173.78857859998243,173.78857859998243,176.76482049998594,j,2.0517644999781623,0.2237322000437416,176.76487870002165,176.76489109999966,None,,,,,,,,,,,,,,,00059,001,2026-01-19_14h57.32.554,MST_task,2024.2.0,59.78469140846146,2026-01-19 14h58.58.380412 +0530,
,Scenes\002a.jpg,13,0,14,,,,,,,j,0.9148139999597333,0.2317814000416547,None,,,,,,14,0,13,176.78156830003718,,,,,,,,,,,,,,,,,,,,,,,,,,,,,,176.76512310002,176.78156830003718,177.2667445000261,,,,,,,,,,,,,,,,,,,,,,,177.29526739998255,177.31753910001134,177.31753910001134,177.31753910001134,180.27684900001623,j,0.9148139999597333,0.2317814000416547,180.2769059999846,180.2769189000246,None,,,,,,,,,,,,,,,00059,001,2026-01-19_14h57.32.554,MST_task,2024.2.0,59.78469140846146,2026-01-19 14h58.58.380412 +0530,
,Objects\016a.jpg,14,0,15,,,,,,,f,1.108224900031928,0.20071869995445013,None,,,,,,15,0,14,180.29358390002744,,,,,,,,,,,,,,,,,,,,,,,,,,,,,,180.2771729999804,180.29358390002744,180.77877650002483,,,,,,,,,,,,,,,,,,,,,,,180.80301580001833,180.8128746000002,180.8128746000002,180.8128746000002,183.7890601999825,f,1.108224900031928,0.20071869995445013,183.7908427999937,183.7908617000212,None,,,,,,,,,,,,,,,00059,001,2026-01-19_14h57.32.554,MST_task,2024.2.0,59.78469140846146,2026-01-19 14h58.58.380412 +0530,
,Objects\104a.jpg,15,0,16,,,,,,,f,0.8360056999954395,0.16800509998574853,None,,,,,,16,0,15,183.80588350002654,,,,,,,,,,,,,,,,,,,,,,,,,,,,,,183.79097040003398,183.80588350002654,184.29122559999814,,,,,,,,,,,,,,,,,,,,,,,184.31302440003492,184.32432260003407,184.32432260003407,184.32432260003407,187.30149179999717,f,0.8360056999954395,0.16800509998574853,187.30170660000294,187.3017201999901,None,184.32432260003407,,,,,,,,,,,,,,00059,001,2026-01-19_14h57.32.554,MST_task,2024.2.0,59.78469140846146,2026-01-19 14h58.58.380412 +0530,
,Objects\125a.jpg,16,0,17,,,,,,,j,1.0527938999584876,0.18294290004996583,None,,,,,,17,0,16,187.31807049998315,,,,,,,,,,,,,,,,,,,,,,,,,,,,,,187.3018264999846,187.31807049998315,187.80345659999875,,,,,,,,,,,,,,,,,,,,,,,187.82530530000804,187.8366715000011,187.8366715000011,187.8366715000011,190.8142446000129,j,1.0527938999584876,0.18294290004996583,190.81428809999488,190.81430060003186,None,,,,,,,,,,,,,,,00059,001,2026-01-19_14h57.32.554,MST_task,2024.2.0,59.78469140846146,2026-01-19 14h58.58.380412 +0530,
,Objects\082a.jpg,17,0,18,,,,,,,j,1.1395627000019886,0.21670489996904507,None,,,,,,18,0,17,190.830709700007,,,,,,,,,,,,,,,,,,,,,,,,,,,,,,190.8144234000356,190.830709700007,191.3156459000311,,,,,,,,,,,,,,,,,,,,,,,191.3376505000051,191.34906000003684,191.34906000003684,191.34906000003684,194.32624219998252,j,1.1395627000019886,0.21670489996904507,194.32628500001738,194.3262967999908,None,,,,,,,,,,,,,,,00059,001,2026-01-19_14h57.32.554,MST_task,2024.2.0,59.78469140846146,2026-01-19 14h58.58.380412 +0530,
,Objects\058a.jpg,18,0,19,,,,,,,f,1.5722577999695204,0.18343079998157918,None,,,,,,19,0,18,194.3428341000108,,,,,,,,,,,,,,,,,,,,,,,,,,,,,,194.32640040002298,194.3428341000108,194.82830759999342,,,,,,,,,,,,,,,,,,,,,,,194.8488886000123,194.8612720000092,194.8612720000092,194.8612720000092,197.83837499999208,f,1.5722577999695204,0.18343079998157918,197.83861700003035,197.8386360000004,None,,,,,,,,,,,,,,,00059,001,2026-01-19_14h57.32.554,MST_task,2024.2.0,59.78469140846146,2026-01-19 14h58.58.380412 +0530,
,Objects\146a.jpg,19,0,20,,,,,,,j,1.9147302000201307,0.2003926999750547,None,,,,,,20,0,19,197.85499870002968,,,,,,,,,,,,,,,,,,,,,,,,,,,,,,197.83871660003206,197.85499870002968,198.34016550000524,,,,,,,,,,,,,,,,,,,,,,,198.3618003000156,198.3735389999929,198.3735389999929,198.3735389999929,201.35056340001756,j,1.9147302000201307,0.2003926999750547,201.35072789998958,201.35074369999347,None,,,,,,,,,,,,,,,00059,001,2026-01-19_14h57.32.554,MST_task,2024.2.0,59.78469140846146,2026-01-19 14h58.58.380412 +0530,
,Objects\188a.jpg,20,0,21,,,,,,,f,0.9298124000197276,0.2577698999666609,None,,,,,,21,0,20,201.36739000002854,,,,,,,,,,,,,,,,,,,,,,,,,,,,,,201.35081540001556,201.36739000002854,201.85247490002075,,,,,,,,,,,,,,,,,,,,,,,201.87303269997938,201.88582399999723,201.88582399999723,201.88582399999723,204.8631925000227,f,0.9298124000197276,0.2577698999666609,204.86323980003363,204.86325320001924,None,,,,,,,,,,,,,,,00059,001,2026-01-19_14h57.32.554,MST_task,2024.2.0,59.78469140846146,2026-01-19 14h58.58.380412 +0530,
,Scenes\040a.jpg,21,0,22,,,,,,,j,1.2166400999994949,0.19110190001083538,None,,,,,,22,0,21,204.8795872000046,,,,,,,,,,,,,,,,,,,,,,,,,,,,,,204.863363499986,204.8795872000046,205.36476670001866,,,,,,,,,,,,,,,,,,,,,,,205.39259629999287,205.41620029998012,205.41620029998012,205.41620029998012,208.37527550000232,j,1.2166400999994949,0.19110190001083538,208.37694190000184,208.37696130003314,None,,,,,,,,,,,,,,,00059,001,2026-01-19_14h57.32.554,MST_task,2024.2.0,59.78469140846146,2026-01-19 14h58.58.380412 +0530,
,Scenes\162a.jpg,22,0,23,,,,,,,j,0.8260306000011042,0.1520176999620162,None,,,,,,23,0,22,208.39198940002825,,,,,,,,,,,,,,,,,,,,,,,,,,,,,,208.37707079999382,208.39198940002825,208.8770812000148,,,,,,,,,,,,,,,,,,,,,,,208.898847799981,208.91035329998704,208.91035329998704,208.91035329998704,211.88781689997995,j,0.8260306000011042,0.1520176999620162,211.8878750000149,211.8878876999952,None,,,,,,,,,,,,,,,00059,001,2026-01-19_14h57.32.554,MST_task,2024.2.0,59.78469140846146,2026-01-19 14h58.58.380412 +0530,
,Scenes\170a.jpg,23,0,24,,,,,,,j,1.9121604000101797,0.17600079998373985,None,,,,,,24,0,23,211.90417080000043,,,,,,,,,,,,,,,,,,,,,,,,,,,,,,211.88799070002278,211.90417080000043,212.38936000003014,,,,,,,,,,,,,,,,,,,,,,,212.4172842000262,212.439574500022,212.439574500022,212.439574500022,215.3998680000077,j,1.9121604000101797,0.17600079998373985,215.3999099000357,215.39992190001067,None,,,,,,,,,,,,,,,00059,001,2026-01-19_14h57.32.554,MST_task,2024.2.0,59.78469140846146,2026-01-19 14h58.58.380412 +0530,
,Scenes\167a.jpg,24,0,25,,,,,,,f,2.8074983000406064,None,None,,,,,,25,0,24,215.4166908999905,,,,,,,,,,,,,,,,,,,,,,,,,,,,,,215.39999130001524,215.4166908999905,215.90171639999608,,,,,,,,,,,,,,,,,,,,,,,215.9275248000049,215.95263880002312,215.95263880002312,215.95263880002312,218.91227219998837,f,2.8074983000406064,None,218.9124472999829,218.91246710001724,None,,,,,,,,,,,,,,,00059,001,2026-01-19_14h57.32.554,MST_task,2024.2.0,59.78469140846146,2026-01-19 14h58.58.380412 +0530,
,Scenes\087a.jpg,25,0,26,,,,,,,j,1.4870967000024393,0.23136249999515712,None,,,,,,26,0,25,218.929056700028,,,,,,,,,,,,,,,,,,,,,,,,,,,,,,218.91258900001412,218.929056700028,219.41403879999416,,,,,,,,,,,,,,,,,,,,,,,219.43500840000343,219.44949780002935,219.44949780002935,219.44949780002935,222.42456670000684,j,1.4870967000024393,0.23136249999515712,222.424609699985,222.4246219000197,None,,,,,,,,,,,,,,,00059,001,2026-01-19_14h57.32.554,MST_task,2024.2.0,59.78469140846146,2026-01-19 14h58.58.380412 +0530,
,Scenes\016a.jpg,26,0,27,,,,,,,j,0.911415999988094,0.1920729000121355,None,,,,,,27,0,26,222.44136699999217,,,,,,,,,,,,,,,,,,,,,,,,,,,,,,222.42469290003646,222.44136699999217,222.9263762999908,,,,,,,,,,,,,,,,,,,,,,,222.9483765999903,222.96059199998854,222.96059199998854,222.96059199998854,225.93685250001727,j,0.911415999988094,0.1920729000121355,225.93689780001296,225.936910599994,None,,,,,,,,,,,,,,,00059,001,2026-01-19_14h57.32.554,MST_task,2024.2.0,59.78469140846146,2026-01-19 14h58.58.380412 +0530,
,Scenes\046a.jpg,27,0,28,,,,,,,j,0.9111331999883987,0.2079772000433877,None,,,,,,28,0,27,225.95365809998475,,,,,,,,,,,,,,,,,,,,,,,,,,,,,,225.93701739999233,225.95365809998475,226.4386027000146,,,,,,,,,,,,,,,,,,,,,,,226.46992250002222,226.48989770002663,226.48989770002663,226.48989770002663,229.44925850001164,j,0.9111331999883987,0.2079772000433877,229.44930209999438,229.44931440002983,None,,,,,,,,,,,,,,,00059,001,2026-01-19_14h57.32.554,MST_task,2024.2.0,59.78469140846146,2026-01-19 14h58.58.380412 +0530,
,Objects\165a.jpg,28,0,29,,,,,,,f,1.1109408999909647,0.2155489000142552,None,,,,,,29,0,28,229.4659550000215,,,,,,,,,,,,,,,,,,,,,,,,,,,,,,229.44943019998027,229.4659550000215,229.95093970000744,,,,,,,,,,,,,,,,,,,,,,,229.9743226999999,229.98542340000859,229.98542340000859,229.98542340000859,232.96154749998823,f,1.1109408999909647,0.2155489000142552,232.9637565999874,232.96377670002403,None,,,,,,,,,,,,,,,00059,001,2026-01-19_14h57.32.554,MST_task,2024.2.0,59.78469140846146,2026-01-19 14h58.58.380412 +0530,
,Objects\061a.jpg,29,0,30,,,,,,,j,2.079873100039549,0.21635699999751523,None,,,,,,30,0,29,232.9782010000199,,,,,,,,,,,,,,,,,,,,,,,,,,,,,,232.96388779999688,232.9782010000199,233.4635878999834,,,,,,,,,,,,,,,,,,,,,,,233.4857868999825,233.49641080002766,233.49641080002766,233.49641080002766,236.47358240000904,j,2.079873100039549,0.21635699999751523,236.47362720000092,236.47393760003615,None,233.49641080002766,,,,,,,,,,,,,,00059,001,2026-01-19_14h57.32.554,MST_task,2024.2.0,59.78469140846146,2026-01-19 14h58.58.380412 +0530,
,Objects\122a.jpg,30,0,31,,,,,,,f,1.0309477999689989,0.2165478999959305,None,,,,,,31,0,30,236.49039240001002,,,,,,,,,,,,,,,,,,,,,,,,,,,,,,236.4740760999848,236.49039240001002,236.97536089998903,,,,,,,,,,,,,,,,,,,,,,,236.99647489999188,237.00897429999895,237.00897429999895,237.00897429999895,239.98599110002397,f,1.0309477999689989,0.2165478999959305,239.98641780001344,239.98643119999906,None,,,,,,,,,,,,,,,00059,001,2026-01-19_14h57.32.554,MST_task,2024.2.0,59.78469140846146,2026-01-19 14h58.58.380412 +0530,
,Objects\143a.jpg,31,0,32,,,,,,,j,2.5269863000139594,0.2243181000230834,None,,,,,,32,0,31,240.00257339997916,,,,,,,,,,,,,,,,,,,,,,,,,,,,,,239.9864993999945,240.00257339997916,240.4879250000231,,,,,,,,,,,,,,,,,,,,,,,240.5129314000369,240.5211878999835,240.5211878999835,240.5211878999835,243.49832870002137,j,2.5269863000139594,0.2243181000230834,243.49837139999727,243.49838330002967,None,,,,,,,,,,,,,,,00059,001,2026-01-19_14h57.32.554,MST_task,2024.2.0,59.78469140846146,2026-01-19 14h58.58.380412 +0530,
,Objects\140a.jpg,32,0,33,,,,,,,f,1.0378823000355624,0.16798549995291978,None,,,,,,33,0,32,243.51516920002177,,,,,,,,,,,,,,,,,,,,,,,,,,,,,,243.49845200002892,243.51516920002177,244.00026300002355,,,,,,,,,,,,,,,,,,,,,,,244.02058030001353,244.0339589000214,244.0339589000214,244.0339589000214,247.01076179998927,f,1.0378823000355624,0.16798549995291978,247.01080639997963,247.01081880001584,None,,,,,,,,,,,,,,,00059,001,2026-01-19_14h57.32.554,MST_task,2024.2.0,59.78469140846146,2026-01-19 14h58.58.380412 +0530,
,Objects\103a.jpg,33,0,34,,,,,,,j,0.9105682999943383,0.23217989999102429,None,,,,,,34,0,33,247.02734800003236,,,,,,,,,,,,,,,,,,,,,,,,,,,,,,247.01091559999622,247.02734800003236,247.51254600001266,,,,,,,,,,,,,,,,,,,,,,,247.53309580002679,247.54577550000977,247.54577550000977,247.54577550000977,250.5233040000312,j,0.9105682999943383,0.23217989999102429,250.5233863000176,250.523402300023,None,,,,,,,,,,,,,,,00059,001,2026-01-19_14h57.32.554,MST_task,2024.2.0,59.78469140846146,2026-01-19 14h58.58.380412 +0530,
,Objects\043a.jpg,34,0,35,,,,,,,f,1.6299004999455065,0.232509600056801,None,,,,,,35,0,34,250.54012359998887,,,,,,,,,,,,,,,,,,,,,,,,,,,,,,250.52350960002514,250.54012359998887,251.0246266000322,,,,,,,,,,,,,,,,,,,,,,,251.0450698999921,251.05803990003187,251.05803990003187,251.05803990003187,254.0353530999855,f,1.6299004999455065,0.232509600056801,254.0353966000257,254.03540960000828,None,,,,,,,,,,,,,,,00059,001,2026-01-19_14h57.32.554,MST_task,2024.2.0,59.78469140846146,2026-01-19 14h58.58.380412 +0530,
,Scenes\138a.jpg,35,0,36,,,,,,,j,1.3736867000116035,0.1751953999628313,None,,,,,,36,0,35,254.0517889999901,,,,,,,,,,,,,,,,,,,,,,,,,,,,,,254.0354786000098,254.0517889999901,254.53710250003496,,,,,,,,,,,,,,,,,,,,,,,254.55961709999247,254.57072660000995,254.57072660000995,254.57072660000995,257.5473601000267,j,1.3736867000116035,0.1751953999628313,257.54869239998516,257.5487093999982,None,,,,,,,,,,,,,,,00059,001,2026-01-19_14h57.32.554,MST_task,2024.2.0,59.78469140846146,2026-01-19 14h58.58.380412 +0530,
,Scenes\103a.jpg,36,0,37,,,,,,,j,1.2609354999731295,0.1996682999888435,None,,,,,,37,0,36,257.56419270002516,,,,,,,,,,,,,,,,,,,,,,,,,,,,,,257.54881790000945,257.56419270002516,258.04919540003175,,,,,,,,,,,,,,,,,,,,,,,258.07413500000257,258.0992342000245,258.0992342000245,258.0992342000245,261.0600812000339,j,1.2609354999731295,0.1996682999888435,261.060125900025,261.060138300003,None,,,,,,,,,,,,,,,00059,001,2026-01-19_14h57.32.554,MST_task,2024.2.0,59.78469140846146,2026-01-19 14h58.58.380412 +0530,
,Scenes\175a.jpg,37,0,38,,,,,,,j,1.2697406999650411,0.19055880000814795,None,,,,,,38,0,37,261.0763775000232,,,,,,,,,,,,,,,,,,,,,,,,,,,,,,261.06025959999533,261.0763775000232,261.56159789999947,,,,,,,,,,,,,,,,,,,,,,,261.58186969999224,261.59559360001003,261.59559360001003,261.59559360001003,264.5720696999924,j,1.2697406999650411,0.19055880000814795,264.5721278000274,264.5721401000046,None,,,,,,,,,,,,,,,00059,001,2026-01-19_14h57.32.554,MST_task,2024.2.0,59.78469140846146,2026-01-19 14h58.58.380412 +0530,
,Scenes\054a.jpg,38,0,39,,,,,,,j,0.9488493999815546,0.20865310000954196,None,,,,,,39,0,38,264.5893617999973,,,,,,,,,,,,,,,,,,,,,,,,,,,,,,264.5722108000191,264.5893617999973,265.0737683000043,,,,,,,,,,,,,,,,,,,,,,,265.09921260003466,265.1238434999832,265.1238434999832,265.1238434999832,268.08438740001293,j,0.9488493999815546,0.20865310000954196,268.084577600006,268.0845904999878,None,,,,,,,,,,,,,,,00059,001,2026-01-19_14h57.32.554,MST_task,2024.2.0,59.78469140846146,2026-01-19 14h58.58.380412 +0530,
,Scenes\155a.jpg,39,0,40,,,,,,,j,0.9641749000293203,0.22363590000895783,None,,,,,,40,0,39,268.1011082000332,,,,,,,,,,,,,,,,,,,,,,,,,,,,,,268.0847186000319,268.1011082000332,268.58619370003,,,,,,,,,,,,,,,,,,,,,,,268.61211679998087,268.63641460001236,268.63641460001236,268.63641460001236,271.5965627999976,j,0.9641749000293203,0.22363590000895783,271.596605800034,271.596618200012,None,,,,,,,,,,,,,,,00059,001,2026-01-19_14h57.32.554,MST_task,2024.2.0,59.78469140846146,2026-01-19 14h58.58.380412 +0530,
,Scenes\166a.jpg,40,0,41,,,,,,,j,1.5164734999998473,0.20953980000922456,None,,,,,,41,0,40,271.6135459000361,,,,,,,,,,,,,,,,,,,,,,,,,,,,,,271.5967484000139,271.6135459000361,272.0985099999816,,,,,,,,,,,,,,,,,,,,,,,272.1190695000114,272.1317092999816,272.1317092999816,272.1317092999816,275.10897150001256,j,1.5164734999998473,0.20953980000922456,275.10902999999234,275.10904240002856,None,,,,,,,,,,,,,,,00059,001,2026-01-19_14h57.32.554,MST_task,2024.2.0,59.78469140846146,2026-01-19 14h58.58.380412 +0530,
,Scenes\126a.jpg,41,0,42,,,,,,,j,1.5395384000148624,0.21740120003232732,None,,,,,,42,0,41,275.1256983000203,,,,,,,,,,,,,,,,,,,,,,,,,,,,,,275.1091153000016,275.1256983000203,275.61068330000853,,,,,,,,,,,,,,,,,,,,,,,275.625893599994,275.6441354000126,275.6441354000126,275.6441354000126,278.6212811000296,j,1.5395384000148624,0.21740120003232732,278.6213250000146,278.62133709999034,None,,,,,,,,,,,,,,,00059,001,2026-01-19_14h57.32.554,MST_task,2024.2.0,59.78469140846146,2026-01-19 14h58.58.380412 +0530,
,Objects\015a.jpg,42,0,43,,,,,,,f,1.2505334000452422,0.2163468999788165,None,,,,,,43,0,42,278.6378739000065,,,,,,,,,,,,,,,,,,,,,,,,,,,,,,278.6214420000324,278.6378739000065,279.12310289999004,,,,,,,,,,,,,,,,,,,,,,,279.1485111999791,279.1573943999829,279.1573943999829,279.1573943999829,282.1336084000068,f,1.2505334000452422,0.2163468999788165,282.13508059998276,282.13510080002015,None,,,,,,,,,,,,,,,00059,001,2026-01-19_14h57.32.554,MST_task,2024.2.0,59.78469140846146,2026-01-19 14h58.58.380412 +0530,
,Objects\153a.jpg,43,0,44,,,,,,,f,0.6364800999872386,0.2156404000124894,None,,,,,,44,0,43,282.1501819000114,,,,,,,,,,,,,,,,,,,,,,,,,,,,,,282.1352148000151,282.1501819000114,282.635643000016,,,,,,,,,,,,,,,,,,,,,,,282.6569811999798,282.66862449998735,282.66862449998735,282.66862449998735,285.6457786000101,f,0.6364800999872386,0.2156404000124894,285.6458236000035,285.64583579998,None,,,,,,,,,,,,,,,00059,001,2026-01-19_14h57.32.554,MST_task,2024.2.0,59.78469140846146,2026-01-19 14h58.58.380412 +0530,
,Objects\068a.jpg,44,0,45,,,,,,,f,1.818749799975194,0.20920129999285564,None,,,,,,45,0,44,285.66260370000964,,,,,,,,,,,,,,,,,,,,,,,,,,,,,,285.64617150003323,285.66260370000964,286.14761980000185,,,,,,,,,,,,,,,,,,,,,,,286.16853239998454,286.18104340002174,286.18104340002174,286.18104340002174,289.1580733000301,f,1.818749799975194,0.20920129999285564,289.1581172000151,289.1581288999878,None,,,,,,,,,,,,,,,00059,001,2026-01-19_14h57.32.554,MST_task,2024.2.0,59.78469140846146,2026-01-19 14h58.58.380412 +0530,
,Objects\139a.jpg,45,0,46,,,,,,,f,0.7947298000217415,0.20015930000226945,None,,,,,,46,0,45,289.17490019998513,,,,,,,,,,,,,,,,,,,,,,,,,,,,,,289.1581974999863,289.17490019998513,289.6598778000334,,,,,,,,,,,,,,,,,,,,,,,289.68236730003264,289.69365209998796,289.69365209998796,289.69365209998796,292.6707897000015,f,0.7947298000217415,0.20015930000226945,292.67084360000445,292.6708598000114,None,,,,,,,,,,,,,,,00059,001,2026-01-19_14h57.32.554,MST_task,2024.2.0,59.78469140846146,2026-01-19 14h58.58.380412 +0530,
,Objects\048a.jpg,46,0,47,,,,,,,j,1.5782235999940895,0.22442969999974594,None,,,,,,47,0,46,292.6870827000239,,,,,,,,,,,,,,,,,,,,,,,,,,,,,,292.67092920001596,292.6870827000239,293.1725725000142,,,,,,,,,,,,,,,,,,,,,,,293.1936827999889,293.205518200004,293.205518200004,293.205518200004,296.18285470001865,j,1.5782235999940895,0.22442969999974594,296.1829236000194,296.1829362999997,None,,,,,,,,,,,,,,,00059,001,2026-01-19_14h57.32.554,MST_task,2024.2.0,59.78469140846146,2026-01-19 14h58.58.380412 +0530,
,Objects\001a.jpg,47,0,48,,,,,,,f,1.0581979000126012,0.23134830000344664,None,,,,,,48,0,47,296.1995184000116,,,,,,,,,,,,,,,,,,,,,,,,,,,,,,296.18300790002104,296.1995184000116,296.6844549999805,,,,,,,,,,,,,,,,,,,,,,,296.70508550002705,296.7180796000175,296.7180796000175,296.7180796000175,299.69515220000176,f,1.0581979000126012,0.23134830000344664,299.6951960999868,299.69520890002605,None,,,,,,,,,,,,,,,00059,001,2026-01-19_14h57.32.554,MST_task,2024.2.0,59.78469140846146,2026-01-19 14h58.58.380412 +0530,
,Objects\144a.jpg,48,0,49,,,,,,,j,1.3932714000111446,0.19330650003394112,None,,,,,,49,0,48,299.7116972000222,,,,,,,,,,,,,,,,,,,,,,,,,,,,,,299.69527929998003,299.7116972000222,300.1968822000199,,,,,,,,,,,,,,,,,,,,,,,300.2183212999953,300.2303490000195,300.2303490000195,300.2303490000195,303.2072695000097,j,1.3932714000111446,0.19330650003394112,303.20735039998544,303.2073660999886,None,,,,,,,,,,,,,,,00059,001,2026-01-19_14h57.32.554,MST_task,2024.2.0,59.78469140846146,2026-01-19 14h58.58.380412 +0530,
,Scenes\128a.jpg,49,0,50,,,,,,,j,1.8413127000094391,0.2167574999621138,None,,,,,,50,0,49,303.224105100031,,,,,,,,,,,,,,,,,,,,,,,,,,,,,,303.2074718999793,303.224105100031,303.7091235999833,,,,,,,,,,,,,,,,,,,,,,,303.73663200001465,303.7592663000105,303.7592663000105,303.7592663000105,306.7195731999818,j,1.8413127000094391,0.2167574999621138,306.72141110000666,306.72143360000337,None,,,,,,,,,,,,,,,00059,001,2026-01-19_14h57.32.554,MST_task,2024.2.0,59.78469140846146,2026-01-19 14h58.58.380412 +0530,
,Scenes\005a.jpg,50,0,51,,,,,,,f,2.3689731000340544,0.22403260000282899,None,,,,,,51,0,50,306.73640870000236,,,,,,,,,,,,,,,,,,,,,,,,,,,,,,306.72154769999906,306.73640870000236,307.2216108000139,,,,,,,,,,,,,,,,,,,,,,,307.244091200002,307.2546431000228,307.2546431000228,307.2546431000228,310.2319115999853,f,2.3689731000340544,0.22403260000282899,310.2319586999947,310.2319714000332,None,,,,,,,,,,,,,,,00059,001,2026-01-19_14h57.32.554,MST_task,2024.2.0,59.78469140846146,2026-01-19 14h58.58.380412 +0530,
,Scenes\028a.jpg,51,0,52,,,,,,,j,1.0172436999855563,0.20837559999199584,None,,,,,,52,0,51,310.2486983999843,,,,,,,,,,,,,,,,,,,,,,,,,,,,,,310.23204380000243,310.2486983999843,310.73372860002564,,,,,,,,,,,,,,,,,,,,,,,310.74728630000027,310.767328899994,310.767328899994,310.767328899994,313.74428019998595,j,1.0172436999855563,0.20837559999199584,313.74432470003376,313.7443372000125,None,,,,,,,,,,,,,,,00059,001,2026-01-19_14h57.32.554,MST_task,2024.2.0,59.78469140846146,2026-01-19 14h58.58.380412 +0530,
,Scenes\094a.jpg,52,0,53,,,,,,,None,,,j,0.055206899996846914,None,,,,53,0,52,313.7608720000135,,,,,,,,,,,,,,,,,,,,,,,,,,,,,,313.74444219999714,313.7608720000135,314.2462603999884,,,,,,,,,,,,,,,,,,,,,,,314.271223400021,314.29626020003343,314.29626020003343,314.29626020003343,317.2565833000117,None,,,317.256883700029,317.34061980003025,j,,317.2733057999867,317.2733057999867,0.055206899996846914,None,,,,,,,,,,00059,001,2026-01-19_14h57.32.554,MST_task,2024.2.0,59.78469140846146,2026-01-19 14h58.58.380412 +0530,
,Scenes\110a.jpg,53,0,54,,,,,,,j,1.4746478999732062,0.2412070999853313,None,,,,,,54,0,53,317.35693070001435,,,,,,,,,,,,,,,,,,,,,,,,,,,,,,317.34071040002163,317.35693070001435,317.8420082000084,,,,,,,,,,,,,,,,,,,,,,,317.8657629000372,317.89297510002507,317.89297510002507,317.89297510002507,320.85275850002654,j,1.4746478999732062,0.2412070999853313,320.8528088000021,320.85282209998695,None,,,,,,,,,,,,,,,00059,001,2026-01-19_14h57.32.554,MST_task,2024.2.0,59.78469140846146,2026-01-19 14h58.58.380412 +0530,
,Scenes\181a.jpg,54,0,55,,,,,,,f,1.1152120000333525,0.20054609997896478,None,,,,,,55,0,54,320.8691065000021,,,,,,,,,,,,,,,,,,,,,,,,,,,,,,320.85293130000355,320.8691065000021,321.3543337000301,,,,,,,,,,,,,,,,,,,,,,,321.3787112000282,321.404581699986,321.404581699986,321.404581699986,324.364700599981,f,1.1152120000333525,0.20054609997896478,324.3647412999999,324.3647532000323,None,,,,,,,,,,,,,,,00059,001,2026-01-19_14h57.32.554,MST_task,2024.2.0,59.78469140846146,2026-01-19 14h58.58.380412 +0530,
,Scenes\045a.jpg,55,0,56,,,,,,,f,1.1712143999757245,0.24747120001120493,None,,,,,,56,0,55,324.3816156000248,,,,,,,,,,,,,,,,,,,,,,,,,,,,,,324.364873500017,324.3816156000248,324.866497799987,,,,,,,,,,,,,,,,,,,,,,,324.89637740002945,324.917545000033,324.917545000033,324.917545000033,327.87732010002946,f,1.1712143999757245,0.24747120001120493,327.87736330000916,327.8773753999849,None,,,,,,,,,,,,,,,00059,001,2026-01-19_14h57.32.554,MST_task,2024.2.0,59.78469140846146,2026-01-19 14h58.58.380412 +0530,
,Objects\179a.jpg,56,0,57,,,,,,,f,1.4501367000048049,0.1992212000186555,None,,,,,,57,0,56,327.8942410000018,,,,,,,,,,,,,,,,,,,,,,,,,,,,,,327.8774448999902,327.8942410000018,328.3792712999857,,,,,,,,,,,,,,,,,,,,,,,328.40516710001975,328.4143989000004,328.4143989000004,328.4143989000004,331.38971439999295,f,1.4501367000048049,0.1992212000186555,331.3913178999792,331.39133820001734,None,,,,,,,,,,,,,,,00059,001,2026-01-19_14h57.32.554,MST_task,2024.2.0,59.78469140846146,2026-01-19 14h58.58.380412 +0530,
,Objects\101a.jpg,57,0,58,,,,,,,f,2.699425800004974,0.18403939995914698,None,,,,,,58,0,57,331.40603000001283,,,,,,,,,,,,,,,,,,,,,,,,,,,,,,331.3914481999818,331.40603000001283,331.89156100002583,,,,,,,,,,,,,,,,,,,,,,,331.9125130000175,331.9246203000075,331.9246203000075,331.9246203000075,334.9017552000005,f,2.699425800004974,0.18403939995914698,334.9017990999855,334.9018113000202,None,331.9246203000075,,,,,,,,,,,,,,00059,001,2026-01-19_14h57.32.554,MST_task,2024.2.0,59.78469140846146,2026-01-19 14h58.58.380412 +0530,
,Objects\128a.jpg,58,0,59,,,,,,,f,2.0115465000271797,0.18298440001672134,None,,,,,,59,0,58,334.91842160001397,,,,,,,,,,,,,,,,,,,,,,,,,,,,,,334.9018804000225,334.91842160001397,335.4034307000111,,,,,,,,,,,,,,,,,,,,,,,335.42571929999394,335.4370674000238,335.4370674000238,335.4370674000238,338.4142976999865,f,2.0115465000271797,0.18298440001672134,338.4143406000221,338.4143525999971,None,,,,,,,,,,,,,,,00059,001,2026-01-19_14h57.32.554,MST_task,2024.2.0,59.78469140846146,2026-01-19 14h58.58.380412 +0530,
,Objects\132a.jpg,59,0,60,,,,,,,f,0.650860299996566,0.1599924000329338,None,,,,,,60,0,59,338.4307473000372,,,,,,,,,,,,,,,,,,,,,,,,,,,,,,338.4144210999948,338.4307473000372,338.9158719999832,,,,,,,,,,,,,,,,,,,,,,,338.9363539000042,338.94905360002303,338.94905360002303,338.94905360002303,341.9262136000325,f,0.650860299996566,0.1599924000329338,341.92625770001905,341.9262702999986,None,,,,,,,,,,,,,,,00059,001,2026-01-19_14h57.32.554,MST_task,2024.2.0,59.78469140846146,2026-01-19 14h58.58.380412 +0530,
,Objects\158a.jpg,60,0,61,,,,,,,f,1.1308961999602616,0.19998500001383945,None,,,,,,61,0,60,341.94303840002976,,,,,,,,,,,,,,,,,,,,,,,,,,,,,,341.9263768999954,341.94303840002976,342.4281731999945,,,,,,,,,,,,,,,,,,,,,,,342.4478294000146,342.46163540001726,342.46163540001726,342.46163540001726,345.4387926000054,f,1.1308961999602616,0.19998500001383945,345.43887660000473,345.43889600003604,None,,,,,,,,,,,,,,,00059,001,2026-01-19_14h57.32.554,MST_task,2024.2.0,59.78469140846146,2026-01-19 14h58.58.380412 +0530,
,Objects\109a.jpg,61,0,62,,,,,,,j,1.1149406000040472,0.20797409996157512,None,,,,,,62,0,61,345.4553799999994,,,,,,,,,,,,,,,,,,,,,,,,,,,,,,345.43900280003436,345.4553799999994,345.94086410000455,,,,,,,,,,,,,,,,,,,,,,,345.96129100001417,345.9738114000065,345.9738114000065,345.9738114000065,348.9513423999888,j,1.1149406000040472,0.20797409996157512,348.95138440001756,348.9513963999925,None,,,,,,,,,,,,,,,00059,001,2026-01-19_14h57.32.554,MST_task,2024.2.0,59.78469140846146,2026-01-19 14h58.58.380412 +0530,
,Objects\030a.jpg,62,0,63,,,,,,,f,0.8418695000000298,0.1924958999734372,None,,,,,,63,0,62,348.9681172000128,,,,,,,,,,,,,,,,,,,,,,,,,,,,,,348.9515175999841,348.9681172000128,349.4527522000135,,,,,,,,,,,,,,,,,,,,,,,349.4728701999993,349.48637900000904,349.48637900000904,349.48637900000904,352.46326150000095,f,0.8418695000000298,0.1924958999734372,352.46330960001796,352.46332229999825,None,,,,,,,,,,,,,,,00059,001,2026-01-19_14h57.32.554,MST_task,2024.2.0,59.78469140846146,2026-01-19 14h58.58.380412 +0530,
,Scenes\154a.jpg,63,0,64,,,,,,,j,0.7926756999804638,0.19209440000122413,None,,,,,,64,0,63,352.48008910001954,,,,,,,,,,,,,,,,,,,,,,,,,,,,,,352.46344730001874,352.48008910001954,352.96491320000496,,,,,,,,,,,,,,,,,,,,,,,352.9856397000258,352.99928709998494,352.99928709998494,352.99928709998494,355.97582220000913,j,0.7926756999804638,0.19209440000122413,355.9774116000044,355.97743119997904,None,,,,,,,,,,,,,,,00059,001,2026-01-19_14h57.32.554,MST_task,2024.2.0,59.78469140846146,2026-01-19 14h58.58.380412 +0530,
,Scenes\174a.jpg,64,0,65,,,,,,,j,1.953432000009343,0.23108769999817014,None,,,,,,65,0,64,355.99223209999036,,,,,,,,,,,,,,,,,,,,,,,,,,,,,,355.97753929998726,355.99223209999036,356.47768579999683,,,,,,,,,,,,,,,,,,,,,,,356.5024765999988,356.52739920001477,356.52739920001477,356.52739920001477,359.4877898999839,j,1.953432000009343,0.23108769999817014,359.4878394000116,359.48785219999263,None,356.52739920001477,,,,,,,,,,,,,,00059,001,2026-01-19_14h57.32.554,MST_task,2024.2.0,59.78469140846146,2026-01-19 14h58.58.380412 +0530,
,Scenes\081a.jpg,65,0,66,,,,,,,j,1.3936831000028178,0.20004319999134168,None,,,,,,66,0,65,359.5046666000271,,,,,,,,,,,,,,,,,,,,,,,,,,,,,,359.4879287999938,359.5046666000271,359.9895668000099,,,,,,,,,,,,,,,,,,,,,,,360.0066099999822,360.02297190000536,360.02297190000536,360.02297190000536,363.0001162000117,j,1.3936831000028178,0.20004319999134168,363.0001632000203,363.00017579999985,None,,,,,,,,,,,,,,,00059,001,2026-01-19_14h57.32.554,MST_task,2024.2.0,59.78469140846146,2026-01-19 14h58.58.380412 +0530,
,Scenes\007a.jpg,66,0,67,,,,,,,f,1.05627690005349,0.16004879999672994,None,,,,,,67,0,66,363.01671460003126,,,,,,,,,,,,,,,,,,,,,,,,,,,,,,363.00045260001207,363.01671460003126,363.50193179998314,,,,,,,,,,,,,,,,,,,,,,,363.52262140001403,363.53603860002477,363.53603860002477,363.53603860002477,366.51241670001764,f,1.05627690005349,0.16004879999672994,366.51245959999505,366.51247230003355,None,,,,,,,,,,,,,,,00059,001,2026-01-19_14h57.32.554,MST_task,2024.2.0,59.78469140846146,2026-01-19 14h58.58.380412 +0530,
,Scenes\089a.jpg,67,0,68,,,,,,,j,1.7596823000349104,0.2237691999762319,None,,,,,,68,0,67,366.52900590002537,,,,,,,,,,,,,,,,,,,,,,,,,,,,,,366.51254470000276,366.52900590002537,367.0148093000171,,,,,,,,,,,,,,,,,,,,,,,367.04280930000823,367.0642849000287,367.0642849000287,367.0642849000287,370.02459909999743,j,1.7596823000349104,0.2237691999762319,370.0246553000179,370.02466809999896,None,,,,,,,,,,,,,,,00059,001,2026-01-19_14h57.32.554,MST_task,2024.2.0,59.78469140846146,2026-01-19 14h58.58.380412 +0530,
,Scenes\073a.jpg,68,0,69,,,,,,,j,0.8083287000190467,0.13616300001740456,None,,,,,,69,0,68,370.0414361000294,,,,,,,,,,,,,,,,,,,,,,,,,,,,,,370.0247652999824,370.0414361000294,370.5264193000039,,,,,,,,,,,,,,,,,,,,,,,370.5486997999833,370.5597312999889,370.5597312999889,370.5597312999889,373.5369399000192,j,0.8083287000190467,0.13616300001740456,373.53698330000043,373.5369992000051,None,,,,,,,,,,,,,,,00059,001,2026-01-19_14h57.32.554,MST_task,2024.2.0,59.78469140846146,2026-01-19 14h58.58.380412 +0530,
,Scenes\003a.jpg,69,0,70,,,,,,,f,0.9834106999915093,0.19044430000940338,None,,,,,,70,0,69,373.5537261000136,,,,,,,,,,,,,,,,,,,,,,,,,,,,,,373.53710870002396,373.5537261000136,374.038879300002,,,,,,,,,,,,,,,,,,,,,,,374.0642821000074,374.08987050002906,374.08987050002906,374.08987050002906,377.04931650002254,f,0.9834106999915093,0.19044430000940338,377.049503199989,377.04951600002823,None,,,,,,,,,,,,,,,00059,001,2026-01-19_14h57.32.554,MST_task,2024.2.0,59.78469140846146,2026-01-19 14h58.58.380412 +0530,
,Objects\107a.jpg,70,0,71,,,,,,,j,1.351623099995777,0.18316110002342612,None,,,,,,71,0,70,377.06590960000176,,,,,,,,,,,,,,,,,,,,,,,,,,,,,,377.0496335999924,377.06590960000176,377.5512076999876,,,,,,,,,,,,,,,,,,,,,,,377.57926349999616,377.60197250003694,377.60197250003694,377.60197250003694,380.5615526000038,j,1.351623099995777,0.18316110002342612,380.56327370001236,380.56329369999,None,,,,,,,,,,,,,,,00059,001,2026-01-19_14h57.32.554,MST_task,2024.2.0,59.78469140846146,2026-01-19 14h58.58.380412 +0530,
,Objects\127a.jpg,71,0,72,,,,,,,f,1.583262800006196,0.17698600003495812,None,,,,,,72,0,71,380.578325200011,,,,,,,,,,,,,,,,,,,,,,,,,,,,,,380.5634093999979,380.578325200011,381.0636630000081,,,,,,,,,,,,,,,,,,,,,,,381.08657980000135,381.0968831999926,381.0968831999926,381.0968831999926,384.0739150000154,f,1.583262800006196,0.17698600003495812,384.0739592000027,384.07397179998225,None,381.0968831999926,,,,,,,,,,,,,,00059,001,2026-01-19_14h57.32.554,MST_task,2024.2.0,59.78469140846146,2026-01-19 14h58.58.380412 +0530,
,Objects\151a.jpg,72,0,73,,,,,,,f,0.8079328999738209,0.20756760000949726,None,,,,,,73,0,72,384.0905439000344,,,,,,,,,,,,,,,,,,,,,,,,,,,,,,384.0740438000066,384.0905439000344,384.5757189000142,,,,,,,,,,,,,,,,,,,,,,,384.5964659000165,384.60900850000326,384.60900850000326,384.60900850000326,387.58626780001214,f,0.8079328999738209,0.20756760000949726,387.58631069998955,387.5863232000265,None,,,,,,,,,,,,,,,00059,001,2026-01-19_14h57.32.554,MST_task,2024.2.0,59.78469140846146,2026-01-19 14h58.58.380412 +0530,
,Objects\100a.jpg,73,0,74,,,,,,,f,0.9043530000490136,0.18274339998606592,None,,,,,,74,0,73,387.60279420000734,,,,,,,,,,,,,,,,,,,,,,,,,,,,,,387.5863921000273,387.60279420000734,388.0880358000286,,,,,,,,,,,,,,,,,,,,,,,388.1102833999903,388.12124940002104,388.12124940002104,388.12124940002104,391.09854020003695,f,0.9043530000490136,0.18274339998606592,391.09858370001893,391.0985956999939,None,,,,,,,,,,,,,,,00059,001,2026-01-19_14h57.32.554,MST_task,2024.2.0,59.78469140846146,2026-01-19 14h58.58.380412 +0530,
,Objects\023a.jpg,74,0,75,,,,,,,f,1.1985450999927707,0.1921520999749191,None,,,,,,75,0,74,391.115225800022,,,,,,,,,,,,,,,,,,,,,,,,,,,,,,391.0986646999954,391.115225800022,391.6001970000216,,,,,,,,,,,,,,,,,,,,,,,391.62289260001853,391.63376759999665,391.63376759999665,391.63376759999665,394.61081909999484,f,1.1985450999927707,0.1921520999749191,394.61086180002894,394.6108735000016,None,,,,,,,,,,,,,,,00059,001,2026-01-19_14h57.32.554,MST_task,2024.2.0,59.78469140846146,2026-01-19 14h58.58.380412 +0530,
,Objects\192a.jpg,75,0,76,,,,,,,f,0.7657628000015393,0.2079810999566689,None,,,,,,76,0,75,394.62742259999504,,,,,,,,,,,,,,,,,,,,,,,,,,,,,,394.6109413999948,394.62742259999504,395.11261770001147,,,,,,,,,,,,,,,,,,,,,,,395.13508420001017,395.145842500031,395.145842500031,395.145842500031,398.1229966999963,f,0.7657628000015393,0.2079810999566689,398.1230696000275,398.1233929999871,None,,,,,,,,,,,,,,,00059,001,2026-01-19_14h57.32.554,MST_task,2024.2.0,59.78469140846146,2026-01-19 14h58.58.380412 +0530,
,Objects\186a.jpg,76,0,77,,,,,,,f,1.1746259999927133,0.2310993999708444,None,,,,,,77,0,76,398.1399308000109,,,,,,,,,,,,,,,,,,,,,,,,,,,,,,398.1234783999971,398.1399308000109,398.62491290003527,,,,,,,,,,,,,,,,,,,,,,,398.645698599983,398.6582854000153,398.6582854000153,398.6582854000153,401.63542649999727,f,1.1746259999927133,0.2310993999708444,401.6354689000291,401.63548110000556,None,,,,,,,,,,,,,,,00059,001,2026-01-19_14h57.32.554,MST_task,2024.2.0,59.78469140846146,2026-01-19 14h58.58.380412 +0530,
,Scenes\038a.jpg,77,0,78,,,,,,,j,1.699708100000862,0.21675359999062493,None,,,,,,78,0,77,401.6520162000088,,,,,,,,,,,,,,,,,,,,,,,,,,,,,,401.6355509000132,401.6520162000088,402.1372329000151,,,,,,,,,,,,,,,,,,,,,,,402.16517280001426,402.18798500002595,402.18798500002595,402.18798500002595,405.1478271000087,j,1.699708100000862,0.21675359999062493,405.1497629000223,405.14978219999466,None,,,,,,,,,,,,,,,00059,001,2026-01-19_14h57.32.554,MST_task,2024.2.0,59.78469140846146,2026-01-19 14h58.58.380412 +0530,
,Scenes\146a.jpg,78,0,79,,,,,,,j,1.0047975999768823,0.1828347000409849,None,,,,,,79,0,78,405.16433280002093,,,,,,,,,,,,,,,,,,,,,,,,,,,,,,405.1498903000029,405.16433280002093,405.64983090001624,,,,,,,,,,,,,,,,,,,,,,,405.6744240000262,405.70070709998254,405.70070709998254,405.70070709998254,408.65996110002743,j,1.0047975999768823,0.1828347000409849,408.6600182999973,408.6600437000161,None,405.70070709998254,,,,,,,,,,,,,,00059,001,2026-01-19_14h57.32.554,MST_task,2024.2.0,59.78469140846146,2026-01-19 14h58.58.380412 +0530,
,Scenes\080a.jpg,79,0,80,,,,,,,j,1.3249790000263602,0.17615359998308122,None,,,,,,80,0,79,408.6767241000198,,,,,,,,,,,,,,,,,,,,,,,,,,,,,,408.6601642000023,408.6767241000198,409.16171549999854,,,,,,,,,,,,,,,,,,,,,,,409.1829364000005,409.19504999998026,409.19504999998026,409.19504999998026,412.17220010003075,j,1.3249790000263602,0.17615359998308122,412.1722422000021,412.1722798999981,None,,,,,,,,,,,,,,,00059,001,2026-01-19_14h57.32.554,MST_task,2024.2.0,59.78469140846146,2026-01-19 14h58.58.380412 +0530,
,Scenes\136a.jpg,80,0,81,,,,,,,f,1.6449497999856248,0.19967910001287237,None,,,,,,81,0,80,412.1890316000208,,,,,,,,,,,,,,,,,,,,,,,,,,,,,,412.1723939999938,412.1890316000208,412.6740280999802,,,,,,,,,,,,,,,,,,,,,,,412.69496130000334,412.707482400001,412.707482400001,412.707482400001,415.6845039000036,f,1.6449497999856248,0.19967910001287237,415.6845471999841,415.68456000002334,None,,,,,,,,,,,,,,,00059,001,2026-01-19_14h57.32.554,MST_task,2024.2.0,59.78469140846146,2026-01-19 14h58.58.380412 +0530,
,Scenes\180a.jpg,81,0,82,,,,,,,j,0.7726706000394188,0.20834849996026605,None,,,,,,82,0,81,415.7014221000136,,,,,,,,,,,,,,,,,,,,,,,,,,,,,,415.68466760002775,415.7014221000136,416.1863000000012,,,,,,,,,,,,,,,,,,,,,,,416.2070938000106,416.2196413000347,416.2196413000347,416.2196413000347,419.1971154999919,j,0.7726706000394188,0.20834849996026605,419.19715890003135,419.1971712000086,None,,,,,,,,,,,,,,,00059,001,2026-01-19_14h57.32.554,MST_task,2024.2.0,59.78469140846146,2026-01-19 14h58.58.380412 +0530,
,Scenes\131a.jpg,82,0,83,,,,,,,j,0.7861557999858633,0.18477220000931993,None,,,,,,83,0,82,419.2135072000092,,,,,,,,,,,,,,,,,,,,,,,,,,,,,,419.1972408000147,419.2135072000092,419.69886940001743,,,,,,,,,,,,,,,,,,,,,,,419.7228037000168,419.7495179999969,419.7495179999969,419.7495179999969,422.7096818999853,j,0.7861557999858633,0.18477220000931993,422.70973770000273,422.70975189999444,None,,,,,,,,,,,,,,,00059,001,2026-01-19_14h57.32.554,MST_task,2024.2.0,59.78469140846146,2026-01-19 14h58.58.380412 +0530,
,Scenes\115a.jpg,83,0,84,,,,,,,j,1.3787573999725282,0.19964110001455992,None,,,,,,84,0,83,422.72550130001036,,,,,,,,,,,,,,,,,,,,,,,,,,,,,,422.7098336000345,422.72550130001036,423.2117236999911,,,,,,,,,,,,,,,,,,,,,,,423.23493109998526,423.261250999989,423.261250999989,423.261250999989,426.2215502000181,j,1.3787573999725282,0.19964110001455992,426.22160049999366,426.22161320003215,None,,,,,,,,,,,,,,,00059,001,2026-01-19_14h57.32.554,MST_task,2024.2.0,59.78469140846146,2026-01-19 14h58.58.380412 +0530,
,Objects\059a.jpg,84,0,85,,,,,,,f,1.170970799983479,0.2398473999928683,None,,,,,,85,0,84,426.23825370002305,,,,,,,,,,,,,,,,,,,,,,,,,,,,,,426.2219608000014,426.23825370002305,426.7231941000209,,,,,,,,,,,,,,,,,,,,,,,426.7479080000194,426.7575964999851,426.7575964999851,426.7575964999851,429.73370739998063,f,1.170970799983479,0.2398473999928683,429.73532909998903,429.73534850002034,None,,,,,,,,,,,,,,,00059,001,2026-01-19_14h57.32.554,MST_task,2024.2.0,59.78469140846146,2026-01-19 14h58.58.380412 +0530,
,Objects\182a.jpg,85,0,86,,,,,,,f,0.9071432999917306,0.20828900003107265,None,,,,,,86,0,85,429.75052790000336,,,,,,,,,,,,,,,,,,,,,,,,,,,,,,429.735462200013,429.75052790000336,430.2356410000357,,,,,,,,,,,,,,,,,,,,,,,430.25605199998245,430.26935080002295,430.26935080002295,430.26935080002295,433.2461409000098,f,0.9071432999917306,0.20828900003107265,433.2464475000161,433.2464622000116,None,,,,,,,,,,,,,,,00059,001,2026-01-19_14h57.32.554,MST_task,2024.2.0,59.78469140846146,2026-01-19 14h58.58.380412 +0530,
,Objects\110a.jpg,86,0,87,,,,,,,f,1.6346360999741592,0.21688580000773072,None,,,,,,87,0,86,433.2627056000056,,,,,,,,,,,,,,,,,,,,,,,,,,,,,,433.2465343999793,433.2627056000056,433.74803670000983,,,,,,,,,,,,,,,,,,,,,,,433.7697695000097,433.7811524000135,433.7811524000135,433.7811524000135,436.7583890000242,f,1.6346360999741592,0.21688580000773072,436.7584322000039,436.7584445999819,None,,,,,,,,,,,,,,,00059,001,2026-01-19_14h57.32.554,MST_task,2024.2.0,59.78469140846146,2026-01-19 14h58.58.380412 +0530,
,Objects\098a.jpg,87,0,88,,,,,,,f,2.6825724000227638,0.21568959997966886,None,,,,,,88,0,87,436.77522150002187,,,,,,,,,,,,,,,,,,,,,,,,,,,,,,436.75851280003553,436.77522150002187,437.26009200001135,,,,,,,,,,,,,,,,,,,,,,,437.2800736000063,437.2935832000221,437.2935832000221,437.2935832000221,440.2708497000276,f,2.6825724000227638,0.21568959997966886,440.2712688000174,440.27128480002284,None,,,,,,,,,,,,,,,00059,001,2026-01-19_14h57.32.554,MST_task,2024.2.0,59.78469140846146,2026-01-19 14h58.58.380412 +0530,
,Objects\166a.jpg,88,0,89,,,,,,,f,1.2110908000031486,0.2148524000076577,None,,,,,,89,0,88,440.2873173999833,,,,,,,,,,,,,,,,,,,,,,,,,,,,,,440.271394099982,440.2873173999833,440.7726247999817,,,,,,,,,,,,,,,,,,,,,,,440.7946378000197,440.8057599000167,440.8057599000167,440.8057599000167,443.78290210000705,f,1.2110908000031486,0.2148524000076577,443.782982899982,443.78299829998286,None,,,,,,,,,,,,,,,00059,001,2026-01-19_14h57.32.554,MST_task,2024.2.0,59.78469140846146,2026-01-19 14h58.58.380412 +0530,
,Objects\060a.jpg,89,0,90,,,,,,,j,1.0980543999467045,0.24035430001094937,None,,,,,,90,0,89,443.79972940002335,,,,,,,,,,,,,,,,,,,,,,,,,,,,,,443.78310539998347,443.79972940002335,444.28469970001606,,,,,,,,,,,,,,,,,,,,,,,444.30660609999904,444.3181661000126,444.3181661000126,444.3181661000126,447.2953172000125,j,1.0980543999467045,0.24035430001094937,447.2956266999827,447.29564279998885,None,,,,,,,,,,,,,,,00059,001,2026-01-19_14h57.32.554,MST_task,2024.2.0,59.78469140846146,2026-01-19 14h58.58.380412 +0530,
,Objects\116a.jpg,90,0,91,,,,,,,f,0.9281226000166498,0.2244465999538079,None,,,,,,91,0,90,447.31197340000654,,,,,,,,,,,,,,,,,,,,,,,,,,,,,,447.2957162000239,447.31197340000654,447.7972986000241,,,,,,,,,,,,,,,,,,,,,,,447.8180887000053,447.83205470000394,447.83205470000394,447.83205470000394,450.8075037000235,f,0.9281226000166498,0.2244465999538079,450.80755919998046,450.8075750999851,None,,,,,,,,,,,,,,,00059,001,2026-01-19_14h57.32.554,MST_task,2024.2.0,59.78469140846146,2026-01-19 14h58.58.380412 +0530,
,Scenes\168a.jpg,91,0,92,,,,,,,j,0.8725029000197537,0.24918969999998808,None,,,,,,92,0,91,450.82432760001393,,,,,,,,,,,,,,,,,,,,,,,,,,,,,,450.8080672000069,450.82432760001393,451.3093574999948,,,,,,,,,,,,,,,,,,,,,,,451.331522100023,451.34339669998735,451.34339669998735,451.34339669998735,454.3199270000332,j,0.8725029000197537,0.24918969999998808,454.3216345999972,454.3216532000224,None,,,,,,,,,,,,,,,00059,001,2026-01-19_14h57.32.554,MST_task,2024.2.0,59.78469140846146,2026-01-19 14h58.58.380412 +0530,
,Scenes\083a.jpg,92,0,93,,,,,,,j,0.9365702999639325,0.16770170000381768,None,,,,,,93,0,92,454.3365100999945,,,,,,,,,,,,,,,,,,,,,,,,,,,,,,454.32172479998553,454.3365100999945,454.82220500003314,,,,,,,,,,,,,,,,,,,,,,,454.84429909999017,454.85545129998354,454.85545129998354,454.85545129998354,457.83210180001333,j,0.9365702999639325,0.16770170000381768,457.8321477000136,457.8321603999939,None,,,,,,,,,,,,,,,00059,001,2026-01-19_14h57.32.554,MST_task,2024.2.0,59.78469140846146,2026-01-19 14h58.58.380412 +0530,
,Scenes\149a.jpg,93,0,94,,,,,,,f,2.0649104000185616,0.20835899998201057,None,,,,,,94,0,93,457.84892600000603,,,,,,,,,,,,,,,,,,,,,,,,,,,,,,457.83266090002144,457.84892600000603,458.33390610001516,,,,,,,,,,,,,,,,,,,,,,,458.3513905000291,458.3673545999918,458.3673545999918,458.3673545999918,461.344753900019,f,2.0649104000185616,0.20835899998201057,461.3448134000064,461.34482880000724,None,,,,,,,,,,,,,,,00059,001,2026-01-19_14h57.32.554,MST_task,2024.2.0,59.78469140846146,2026-01-19 14h58.58.380412 +0530,
,Scenes\184a.jpg,94,0,95,,,,,,,j,0.9446816999698058,0.18418929999461398,None,,,,,,95,0,94,461.3616008000099,,,,,,,,,,,,,,,,,,,,,,,,,,,,,,461.3449098999845,461.3616008000099,461.84662050002953,,,,,,,,,,,,,,,,,,,,,,,461.8671657000086,461.8795528000337,461.8795528000337,461.8795528000337,464.8570200999966,j,0.9446816999698058,0.18418929999461398,464.85706260002917,464.85707450000336,None,,,,,,,,,,,,,,,00059,001,2026-01-19_14h57.32.554,MST_task,2024.2.0,59.78469140846146,2026-01-19 14h58.58.380412 +0530,
,Scenes\106a.jpg,95,0,96,,,,,,,j,1.0400984999723732,0.21503590000793338,None,,,,,,96,0,95,464.87357510003494,,,,,,,,,,,,,,,,,,,,,,,,,,,,,,464.85714340000413,464.87357510003494,465.3586130000185,,,,,,,,,,,,,,,,,,,,,,,465.3830234000343,465.40869349997956,465.40869349997956,465.40869349997956,468.36910170002375,j,1.0400984999723732,0.21503590000793338,468.36919280001894,468.3692218000069,None,,,,,,,,,,,,,,,00059,001,2026-01-19_14h57.32.554,MST_task,2024.2.0,59.78469140846146,2026-01-19 14h58.58.380412 +0530,
,Scenes\107a.jpg,96,0,97,,,,,,,j,1.872841500036884,0.22269490000326186,None,,,,,,97,0,96,468.385951400036,,,,,,,,,,,,,,,,,,,,,,,,,,,,,,468.36944480001694,468.385951400036,468.871284199995,,,,,,,,,,,,,,,,,,,,,,,468.89273740001954,468.90417510003317,468.90417510003317,468.90417510003317,471.88127040001564,j,1.872841500036884,0.22269490000326186,471.8813248000224,471.88133740000194,None,,,,,,,,,,,,,,,00059,001,2026-01-19_14h57.32.554,MST_task,2024.2.0,59.78469140846146,2026-01-19 14h58.58.380412 +0530,
,Scenes\034a.jpg,97,0,98,,,,,,,f,1.7504165999707766,0.23266590002458543,None,,,,,,98,0,97,471.8981160999974,,,,,,,,,,,,,,,,,,,,,,,,,,,,,,471.8816751000122,471.8981160999974,472.38320929999463,,,,,,,,,,,,,,,,,,,,,,,472.42016680003144,472.43416930001695,472.43416930001695,472.43416930001695,475.3936976999976,f,1.7504165999707766,0.23266590002458543,475.39374050003244,475.3937527000089,None,,,,,,,,,,,,,,,00059,001,2026-01-19_14h57.32.554,MST_task,2024.2.0,59.78469140846146,2026-01-19 14h58.58.380412 +0530,
,Objects\049a.jpg,98,0,99,,,,,,,f,1.550132800010033,0.1606743999873288,None,,,,,,99,0,98,475.410305300029,,,,,,,,,,,,,,,,,,,,,,,,,,,,,,475.3938796999864,475.410305300029,475.89563510002336,,,,,,,,,,,,,,,,,,,,,,,475.92019600002095,475.9298947000061,475.9298947000061,475.9298947000061,478.90600980003364,f,1.550132800010033,0.1606743999873288,478.9076256999979,478.90764619997935,None,,,,,,,,,,,,,,,00059,001,2026-01-19_14h57.32.554,MST_task,2024.2.0,59.78469140846146,2026-01-19 14h58.58.380412 +0530,
,Objects\120a.jpg,99,0,100,,,,,,,f,1.1190025999676436,0.21590670000296086,None,,,,,,100,0,99,478.9226018000045,,,,,,,,,,,,,,,,,,,,,,,,,,,,,,478.9077188000083,478.9226018000045,479.40782650001347,,,,,,,,,,,,,,,,,,,,,,,479.4308491999982,479.44104110001354,479.44104110001354,479.44104110001354,482.41820800001733,f,1.1190025999676436,0.21590670000296086,482.4182538000168,482.41826639999636,None,,,,,,,,,,,,,,,00059,001,2026-01-19_14h57.32.554,MST_task,2024.2.0,59.78469140846146,2026-01-19 14h58.58.380412 +0530,
,Objects\126a.jpg,100,0,101,,,,,,,None,,,f,0.9581756999832578,None,,,,101,0,100,482.43502279999666,,,,,,,,,,,,,,,,,,,,,,,,,,,,,,482.41873010003474,482.43502279999666,482.92000610003015,,,,,,,,,,,,,,,,,,,,,,,482.94089379999787,482.9534683999955,482.9534683999955,482.9534683999955,485.9306341999909,None,,,485.9306763000204,486.9181330000283,f,,485.94719770003576,485.94719770003576,0.9581756999832578,None,,,,,,,,,,00059,001,2026-01-19_14h57.32.554,MST_task,2024.2.0,59.78469140846146,2026-01-19 14h58.58.380412 +0530,
,Objects\134a.jpg,101,0,102,,,,,,,j,1.8681594000081532,0.2321049000020139,None,,,,,,102,0,101,486.93409920000704,,,,,,,,,,,,,,,,,,,,,,,,,,,,,,486.91822320001666,486.93409920000704,487.4190302999923,,,,,,,,,,,,,,,,,,,,,,,487.4412870000233,487.4526526000118,487.4526526000118,487.4526526000118,490.42967420001514,j,1.8681594000081532,0.2321049000020139,490.42971759999637,490.42973060003715,None,,,,,,,,,,,,,,,00059,001,2026-01-19_14h57.32.554,MST_task,2024.2.0,59.78469140846146,2026-01-19 14h58.58.380412 +0530,
,Objects\062a.jpg,102,0,103,,,,,,,f,0.9949219999834895,0.23185229999944568,None,,,,,,103,0,102,490.4462933000177,,,,,,,,,,,,,,,,,,,,,,,,,,,,,,490.4298385999864,490.4462933000177,490.9315382000059,,,,,,,,,,,,,,,,,,,,,,,490.9520973000326,490.96475149999605,490.96475149999605,490.96475149999605,493.9422915999894,f,0.9949219999834895,0.23185229999944568,493.94233930000337,493.94235229998594,None,,,,,,,,,,,,,,,00059,001,2026-01-19_14h57.32.554,MST_task,2024.2.0,59.78469140846146,2026-01-19 14h58.58.380412 +0530,
,Objects\073a.jpg,103,0,104,,,,,,,f,0.8995890999794938,0.21507189999101683,None,,,,,,104,0,103,493.958590299997,,,,,,,,,,,,,,,,,,,,,,,,,,,,,,493.9424251000164,493.958590299997,494.4437801000313,,,,,,,,,,,,,,,,,,,,,,,494.46781639999244,494.477023000014,494.477023000014,494.477023000014,497.45419309998397,f,0.8995890999794938,0.21507189999101683,497.4542478999938,497.454261899984,None,,,,,,,,,,,,,,,00059,001,2026-01-19_14h57.32.554,MST_task,2024.2.0,59.78469140846146,2026-01-19 14h58.58.380412 +0530,
,Objects\019a.jpg,104,0,105,,,,,,,j,2.1785713999997824,0.24854130001040176,None,,,,,,105,0,104,497.4709996000165,,,,,,,,,,,,,,,,,,,,,,,,,,,,,,497.454366400023,497.4709996000165,497.9559758999967,,,,,,,,,,,,,,,,,,,,,,,497.97735250002006,497.9894491999876,497.9894491999876,497.9894491999876,500.96689430001425,j,2.1785713999997824,0.24854130001040176,500.9669359999825,500.96694840001874,None,,,,,,,,,,,,,,,00059,001,2026-01-19_14h57.32.554,MST_task,2024.2.0,59.78469140846146,2026-01-19 14h58.58.380412 +0530,
,Scenes\008a.jpg,105,0,106,,,,,,,j,1.2741741000209004,0.21558799996273592,None,,,,,,106,0,105,500.9831801999826,,,,,,,,,,,,,,,,,,,,,,,,,,,,,,500.96701620001113,500.9831801999826,501.468566800002,,,,,,,,,,,,,,,,,,,,,,,501.4916080000112,501.5022690999904,501.5022690999904,501.5022690999904,504.4787736000144,j,1.2741741000209004,0.21558799996273592,504.4808790999814,504.48089940001955,None,,,,,,,,,,,,,,,00059,001,2026-01-19_14h57.32.554,MST_task,2024.2.0,59.78469140846146,2026-01-19 14h58.58.380412 +0530,
,Scenes\139a.jpg,106,0,107,,,,,,,j,0.9473043000325561,0.2145965999807231,None,,,,,,107,0,106,504.4956096999813,,,,,,,,,,,,,,,,,,,,,,,,,,,,,,504.4809706999804,504.4956096999813,504.9811507000122,,,,,,,,,,,,,,,,,,,,,,,505.0028198999935,505.01422280003317,505.01422280003317,505.01422280003317,507.9910825000261,j,0.9473043000325561,0.2145965999807231,507.9911286000279,507.991141800012,None,505.01422280003317,,,,,,,,,,,,,,00059,001,2026-01-19_14h57.32.554,MST_task,2024.2.0,59.78469140846146,2026-01-19 14h58.58.380412 +0530,
,Scenes\058a.jpg,107,0,108,,,,,,,f,2.528095099958591,0.19139990000985563,None,,,,,,108,0,107,508.00811530003557,,,,,,,,,,,,,,,,,,,,,,,,,,,,,,507.99125339998864,508.00811530003557,508.49300030001905,,,,,,,,,,,,,,,,,,,,,,,508.5178208000143,508.54410060000373,508.54410060000373,508.54410060000373,511.50336999999126,f,2.528095099958591,0.19139990000985563,511.5034123000223,511.5034253000049,None,,,,,,,,,,,,,,,00059,001,2026-01-19_14h57.32.554,MST_task,2024.2.0,59.78469140846146,2026-01-19 14h58.58.380412 +0530,
,Scenes\050a.jpg,108,0,109,,,,,,,j,0.7858705999678932,0.2317752999952063,None,,,,,,109,0,108,511.52077330002794,,,,,,,,,,,,,,,,,,,,,,,,,,,,,,511.5035490000155,511.52077330002794,512.0051796000334,,,,,,,,,,,,,,,,,,,,,,,512.0271259000292,512.0385211000103,512.0385211000103,512.0385211000103,515.0156716000056,j,0.7858705999678932,0.2317752999952063,515.0157142999815,515.0157271000207,None,,,,,,,,,,,,,,,00059,001,2026-01-19_14h57.32.554,MST_task,2024.2.0,59.78469140846146,2026-01-19 14h58.58.380412 +0530,
,Scenes\025a.jpg,109,0,110,,,,,,,j,1.8097048999625258,0.23101450002286583,None,,,,,,110,0,109,515.0325104999938,,,,,,,,,,,,,,,,,,,,,,,,,,,,,,515.0158327000099,515.0325104999938,515.5174720000359,,,,,,,,,,,,,,,,,,,,,,,515.5485327999922,515.5678603000124,515.5678603000124,515.5678603000124,518.5280927999993,j,1.8097048999625258,0.23101450002286583,518.5281345000258,518.5281469000038,None,,,,,,,,,,,,,,,00059,001,2026-01-19_14h57.32.554,MST_task,2024.2.0,59.78469140846146,2026-01-19 14h58.58.380412 +0530,
,Scenes\117a.jpg,110,0,111,,,,,,,j,1.4636171000311151,0.22400779998861253,None,,,,,,111,0,110,518.5453023000155,,,,,,,,,,,,,,,,,,,,,,,,,,,,,,518.5282150999992,518.5453023000155,519.030018999998,,,,,,,,,,,,,,,,,,,,,,,519.0504033000325,519.0641449000104,519.0641449000104,519.0641449000104,522.0404929000069,j,1.4636171000311151,0.22400779998861253,522.0405334000243,522.0405455,None,,,,,,,,,,,,,,,00059,001,2026-01-19_14h57.32.554,MST_task,2024.2.0,59.78469140846146,2026-01-19 14h58.58.380412 +0530,
,Scenes\171a.jpg,111,0,112,,,,,,,f,1.0626351999817416,0.1996389999985695,None,,,,,,112,0,111,522.0569753000163,,,,,,,,,,,,,,,,,,,,,,,,,,,,,,522.0406524999999,522.0569753000163,522.5423924000352,,,,,,,,,,,,,,,,,,,,,,,522.572608300019,522.5935573999886,522.5935573999886,522.5935573999886,525.552577800001,f,1.0626351999817416,0.1996389999985695,525.552631700004,525.5526437000372,None,,,,,,,,,,,,,,,00059,001,2026-01-19_14h57.32.554,MST_task,2024.2.0,59.78469140846146,2026-01-19 14h58.58.380412 +0530,
,Objects\131a.jpg,112,0,113,,,,,,,f,1.847178200026974,0.17614439997123554,None,,,,,,113,0,112,525.5694361000205,,,,,,,,,,,,,,,,,,,,,,,,,,,,,,525.5527514999849,525.5694361000205,526.0546384000336,,,,,,,,,,,,,,,,,,,,,,,526.0793706999975,526.0887332999846,526.0887332999846,526.0887332999846,529.0650010000099,f,1.847178200026974,0.17614439997123554,529.066580499988,529.0665995000163,None,,,,,,,,,,,,,,,00059,001,2026-01-19_14h57.32.554,MST_task,2024.2.0,59.78469140846146,2026-01-19 14h58.58.380412 +0530,
,Objects\028a.jpg,113,0,114,,,,,,,j,0.9604213999700733,0.25516639999113977,None,,,,,,114,0,113,529.0815828000195,,,,,,,,,,,,,,,,,,,,,,,,,,,,,,529.0666698000277,529.0815828000195,529.566902599996,,,,,,,,,,,,,,,,,,,,,,,529.5896014000173,529.6000323999906,529.6000323999906,529.6000323999906,532.5773538000067,j,0.9604213999700733,0.25516639999113977,532.5774122999865,532.5774263000349,None,,,,,,,,,,,,,,,00059,001,2026-01-19_14h57.32.554,MST_task,2024.2.0,59.78469140846146,2026-01-19 14h58.58.380412 +0530,
,Objects\051a.jpg,114,0,115,,,,,,,j,1.2731424000230618,0.23002769995946437,None,,,,,,115,0,114,532.5944276999799,,,,,,,,,,,,,,,,,,,,,,,,,,,,,,532.577985299984,532.5944276999799,533.0789698000299,,,,,,,,,,,,,,,,,,,,,,,533.099229399988,533.1124479999999,533.1124479999999,533.1124479999999,536.0896012000157,j,1.2731424000230618,0.23002769995946437,536.0897819999955,536.0898031999823,None,,,,,,,,,,,,,,,00059,001,2026-01-19_14h57.32.554,MST_task,2024.2.0,59.78469140846146,2026-01-19 14h58.58.380412 +0530,
,Objects\160a.jpg,115,0,116,,,,,,,f,2.3918236999888904,0.23148560000117868,None,,,,,,116,0,115,536.1061845999793,,,,,,,,,,,,,,,,,,,,,,,,,,,,,,536.0898772000219,536.1061845999793,536.5917136000353,,,,,,,,,,,,,,,,,,,,,,,536.6139723000233,536.6246158999857,536.6246158999857,536.6246158999857,539.6019154000096,f,2.3918236999888904,0.23148560000117868,539.6019571000361,539.601968700008,None,,,,,,,,,,,,,,,00059,001,2026-01-19_14h57.32.554,MST_task,2024.2.0,59.78469140846146,2026-01-19 14h58.58.380412 +0530,
,Objects\161a.jpg,116,0,117,,,,,,,f,1.6872155999881215,0.19964300002902746,None,,,,,,117,0,116,539.6185927999904,,,,,,,,,,,,,,,,,,,,,,,,,,,,,,539.6020420999848,539.6185927999904,540.1037166999886,,,,,,,,,,,,,,,,,,,,,,,540.1245330999955,540.1370389999938,540.1370389999938,540.1370389999938,543.1141843000078,f,1.6872155999881215,0.19964300002902746,543.1142265999806,543.1142388000153,None,,,,,,,,,,,,,,,00059,001,2026-01-19_14h57.32.554,MST_task,2024.2.0,59.78469140846146,2026-01-19 14h58.58.380412 +0530,
,Objects\063a.jpg,117,0,118,,,,,,,f,1.302200999984052,0.22454750002361834,None,,,,,,118,0,117,543.1307697999873,,,,,,,,,,,,,,,,,,,,,,,,,,,,,,543.1143080000184,543.1307697999873,543.6159883000073,,,,,,,,,,,,,,,,,,,,,,,543.6367823000182,543.6493576000212,543.6493576000212,543.6493576000212,546.626524500025,f,1.302200999984052,0.22454750002361834,546.6265667999978,546.6265791000333,None,,,,,,,,,,,,,,,00059,001,2026-01-19_14h57.32.554,MST_task,2024.2.0,59.78469140846146,2026-01-19 14h58.58.380412 +0530,
,Objects\111a.jpg,118,0,119,,,,,,,j,1.0789209000067785,0.20792910002637655,None,,,,,,119,0,118,546.6430951000075,,,,,,,,,,,,,,,,,,,,,,,,,,,,,,546.6267016000347,546.6430951000075,547.128499399987,,,,,,,,,,,,,,,,,,,,,,,547.1500242000329,547.1615142999799,547.1615142999799,547.1615142999799,550.1389413999859,j,1.0789209000067785,0.20792910002637655,550.1389852000284,550.1389974000049,None,,,,,,,,,,,,,,,00059,001,2026-01-19_14h57.32.554,MST_task,2024.2.0,59.78469140846146,2026-01-19 14h58.58.380412 +0530,
,Scenes\061a.jpg,119,0,120,,,,,,,j,1.6381200000178069,0.23845919995801523,None,,,,,,120,0,119,550.1553779999958,,,,,,,,,,,,,,,,,,,,,,,,,,,,,,550.1391052000108,550.1553779999958,550.6408680999884,,,,,,,,,,,,,,,,,,,,,,,550.6669832000043,550.6913390000118,550.6913390000118,550.6913390000118,553.6512274999986,j,1.6381200000178069,0.23845919995801523,553.6525713999872,553.6525915000238,None,,,,,,,,,,,,,,,00059,001,2026-01-19_14h57.32.554,MST_task,2024.2.0,59.78469140846146,2026-01-19 14h58.58.380412 +0530,
,Scenes\009a.jpg,120,0,121,,,,,,,j,1.788527900003828,0.24770509998779744,None,,,,,,121,0,120,553.6676851999946,,,,,,,,,,,,,,,,,,,,,,,,,,,,,,553.6527029999997,553.6676851999946,554.1529828000348,,,,,,,,,,,,,,,,,,,,,,,554.1820547999814,554.2033245000057,554.2033245000057,554.2033245000057,557.1633822000003,j,1.788527900003828,0.24770509998779744,557.1634237000253,557.1634393000277,None,,,,,,,,,,,,,,,00059,001,2026-01-19_14h57.32.554,MST_task,2024.2.0,59.78469140846146,2026-01-19 14h58.58.380412 +0530,
,Scenes\021a.jpg,121,0,122,,,,,,,f,2.932277099986095,None,None,,,,,,122,0,121,557.1805794999818,,,,,,,,,,,,,,,,,,,,,,,,,,,,,,557.163509999984,557.1805794999818,557.6651701999945,,,,,,,,,,,,,,,,,,,,,,,557.688695400022,557.7161303000175,557.7161303000175,557.7161303000175,560.6758430000045,f,2.932277099986095,None,560.6758906000177,560.675902899995,None,,,,,,,,,,,,,,,00059,001,2026-01-19_14h57.32.554,MST_task,2024.2.0,59.78469140846146,2026-01-19 14h58.58.380412 +0530,
,Scenes\113a.jpg,122,0,123,,,,,,,j,1.2137144000153057,0.21651470003416762,None,,,,,,123,0,122,560.6925607000012,,,,,,,,,,,,,,,,,,,,,,,,,,,,,,560.6759715999942,560.6925607000012,561.177363499999,,,,,,,,,,,,,,,,,,,,,,,561.2035999000072,561.210902700026,561.210902700026,561.210902700026,564.1881393000367,j,1.2137144000153057,0.21651470003416762,564.1881958000013,564.1882081000367,None,,,,,,,,,,,,,,,00059,001,2026-01-19_14h57.32.554,MST_task,2024.2.0,59.78469140846146,2026-01-19 14h58.58.380412 +0530,
,Scenes\137a.jpg,123,0,124,,,,,,,j,1.019807700009551,0.20845599996391684,None,,,,,,124,0,123,564.2051374000148,,,,,,,,,,,,,,,,,,,,,,,,,,,,,,564.1883258000016,564.2051374000148,564.6899708000128,,,,,,,,,,,,,,,,,,,,,,,564.7107648000238,564.7239420000114,564.7239420000114,564.7239420000114,567.7003313000314,j,1.019807700009551,0.20845599996391684,567.7003718999913,567.7003887000028,None,,,,,,,,,,,,,,,00059,001,2026-01-19_14h57.32.554,MST_task,2024.2.0,59.78469140846146,2026-01-19 14h58.58.380412 +0530,
,Scenes\101a.jpg,124,0,125,,,,,,,j,2.0922354999929667,0.1679084000061266,None,,,,,,125,0,124,567.7171631000238,,,,,,,,,,,,,,,,,,,,,,,,,,,,,,567.7004948999966,567.7171631000238,568.2021334000165,,,,,,,,,,,,,,,,,,,,,,,568.224632300029,568.2357907000114,568.2357907000114,568.2357907000114,571.2124633000349,j,2.0922354999929667,0.1679084000061266,571.2125283000059,571.212541099987,None,,,,,,,,,,,,,,,00059,001,2026-01-19_14h57.32.554,MST_task,2024.2.0,59.78469140846146,2026-01-19 14h58.58.380412 +0530,
,Scenes\122a.jpg,125,0,126,,,,,,,f,1.9241025999654084,0.1996995999943465,None,,,,,,126,0,125,571.2292922000051,,,,,,,,,,,,,,,,,,,,,,,,,,,,,,571.2128814000171,571.2292922000051,571.7142643000116,,,,,,,,,,,,,,,,,,,,,,,571.7428398000193,571.7643354000174,571.7643354000174,571.7643354000174,574.7248870999902,f,1.9241025999654084,0.1996995999943465,574.7250944999978,574.725107300037,None,,,,,,,,,,,,,,,00059,001,2026-01-19_14h57.32.554,MST_task,2024.2.0,59.78469140846146,2026-01-19 14h58.58.380412 +0530,
,Objects\130a.jpg,126,0,127,,,,,,,f,2.2915587999741547,0.22376169997733086,None,,,,,,127,0,126,574.7414782000124,,,,,,,,,,,,,,,,,,,,,,,,,,,,,,574.7252309999894,574.7414782000124,575.2266779000056,,,,,,,,,,,,,,,,,,,,,,,575.2527635000297,575.2603773000301,575.2603773000301,575.2603773000301,578.2377140999888,f,2.2915587999741547,0.22376169997733086,578.2391183000291,578.2391373999999,None,,,,,,,,,,,,,,,00059,001,2026-01-19_14h57.32.554,MST_task,2024.2.0,59.78469140846146,2026-01-19 14h58.58.380412 +0530,
,Objects\008a.jpg,127,0,128,,,,,,,f,0.8438914999715053,0.2006880000117235,None,,,,,,128,0,127,578.2537669999874,,,,,,,,,,,,,,,,,,,,,,,,,,,,,,578.2392076000106,578.2537669999874,578.7395930000348,,,,,,,,,,,,,,,,,,,,,,,578.7605234000366,578.7722075000056,578.7722075000056,578.7722075000056,581.7496300000348,f,0.8438914999715053,0.2006880000117235,581.7496723000077,581.7496842999826,None,578.7722075000056,,,,,,,,,,,,,,00059,001,2026-01-19_14h57.32.554,MST_task,2024.2.0,59.78469140846146,2026-01-19 14h58.58.380412 +0530,
,Objects\018a.jpg,128,0,129,,,,,,,f,1.81163110001944,0.19223639997653663,None,,,,,,129,0,128,581.7660728000337,,,,,,,,,,,,,,,,,,,,,,,,,,,,,,581.7498149999883,581.7660728000337,582.2512942000176,,,,,,,,,,,,,,,,,,,,,,,582.2734176000231,582.2845061999978,582.2845061999978,582.2845061999978,585.2620881000184,f,1.81163110001944,0.19223639997653663,585.2621351000271,585.2621477000066,None,,,,,,,,,,,,,,,00059,001,2026-01-19_14h57.32.554,MST_task,2024.2.0,59.78469140846146,2026-01-19 14h58.58.380412 +0530,
,Objects\066a.jpg,129,0,130,,,,,,,f,2.3305154999834485,0.2409260999993421,None,,,,,,130,0,129,585.278615200019,,,,,,,,,,,,,,,,,,,,,,,,,,,,,,585.2622215999872,585.278615200019,585.7634577000281,,,,,,,,,,,,,,,,,,,,,,,585.7859907000093,585.7970588000026,585.7970588000026,585.7970588000026,588.7740782999899,f,2.3305154999834485,0.2409260999993421,588.7741336000036,588.7741456000367,None,,,,,,,,,,,,,,,00059,001,2026-01-19_14h57.32.554,MST_task,2024.2.0,59.78469140846146,2026-01-19 14h58.58.380412 +0530,
,Objects\025a.jpg,130,0,131,,,,,,,j,1.2189785999944434,0.15174419997492805,None,,,,,,131,0,130,588.7906661999878,,,,,,,,,,,,,,,,,,,,,,,,,,,,,,588.7742168999976,588.7906661999878,589.2758857000154,,,,,,,,,,,,,,,,,,,,,,,589.2966392000089,589.3091061000014,589.3091061000014,589.3091061000014,592.2862508000107,j,1.2189785999944434,0.15174419997492805,592.2862940999912,592.2863064000267,None,,,,,,,,,,,,,,,00059,001,2026-01-19_14h57.32.554,MST_task,2024.2.0,59.78469140846146,2026-01-19 14h58.58.380412 +0530,
,Objects\106a.jpg,131,0,132,,,,,,,f,1.1953155000228435,0.14334029995370656,None,,,,,,132,0,131,592.303098000004,,,,,,,,,,,,,,,,,,,,,,,,,,,,,,592.2864117000136,592.303098000004,592.788048700022,,,,,,,,,,,,,,,,,,,,,,,592.8074239999987,592.8215297000133,592.8215297000133,592.8215297000133,595.798668100033,f,1.1953155000228435,0.14334029995370656,595.7987109000096,595.7987229999853,None,,,,,,,,,,,,,,,00059,001,2026-01-19_14h57.32.554,MST_task,2024.2.0,59.78469140846146,2026-01-19 14h58.58.380412 +0530,
,Objects\115a.jpg,132,0,133,,,,,,,f,1.6423065999988467,0.21688790002372116,None,,,,,,133,0,132,595.8152586999931,,,,,,,,,,,,,,,,,,,,,,,,,,,,,,595.7988284000312,595.8152586999931,596.3004998000106,,,,,,,,,,,,,,,,,,,,,,,596.3213807999855,596.333711299987,596.333711299987,596.333711299987,599.3110391999944,f,1.6423065999988467,0.21688790002372116,599.3110838999855,599.3110971000278,None,,,,,,,,,,,,,,,00059,001,2026-01-19_14h57.32.554,MST_task,2024.2.0,59.78469140846146,2026-01-19 14h58.58.380412 +0530,
,Scenes\125a.jpg,133,0,134,,,,,,,j,0.8329901000251994,0.21588079998036847,None,,,,,,134,0,133,599.3275621000212,,,,,,,,,,,,,,,,,,,,,,,,,,,,,,599.3112049000338,599.3275621000212,599.8127776000183,,,,,,,,,,,,,,,,,,,,,,,599.8390309999813,599.8627310000011,599.8627310000011,599.8627310000011,602.823559099983,j,0.8329901000251994,0.21588079998036847,602.8253478999832,602.8253681000206,None,,,,,,,,,,,,,,,00059,001,2026-01-19_14h57.32.554,MST_task,2024.2.0,59.78469140846146,2026-01-19 14h58.58.380412 +0530,
,Scenes\192a.jpg,134,0,135,,,,,,,j,1.704592900001444,0.2318474999628961,None,,,,,,135,0,134,602.8400051000062,,,,,,,,,,,,,,,,,,,,,,,,,,,,,,602.8254827000201,602.8400051000062,603.3256519000279,,,,,,,,,,,,,,,,,,,,,,,603.3466688999906,603.3593978999997,603.3593978999997,603.3593978999997,606.3357816000353,j,1.704592900001444,0.2318474999628961,606.3358261000249,606.3358391000074,None,603.3593978999997,,,,,,,,,,,,,,00059,001,2026-01-19_14h57.32.554,MST_task,2024.2.0,59.78469140846146,2026-01-19 14h58.58.380412 +0530,
,Scenes\035a.jpg,135,0,136,,,,,,,j,1.833083599980455,0.1997603999916464,None,,,,,,136,0,135,606.3521655999939,,,,,,,,,,,,,,,,,,,,,,,,,,,,,,606.3359118000371,606.3521655999939,606.8373855000245,,,,,,,,,,,,,,,,,,,,,,,606.8619820000022,606.8874404000235,606.8874404000235,606.8874404000235,609.8477480000001,j,1.833083599980455,0.1997603999916464,609.8478301999858,609.8478459999897,None,,,,,,,,,,,,,,,00059,001,2026-01-19_14h57.32.554,MST_task,2024.2.0,59.78469140846146,2026-01-19 14h58.58.380412 +0530,
,Scenes\041a.jpg,136,0,137,,,,,,,j,1.4078166999970563,0.16115489997901022,None,,,,,,137,0,136,609.8646792999934,,,,,,,,,,,,,,,,,,,,,,,,,,,,,,609.8479194000247,609.8646792999934,610.3496053999988,,,,,,,,,,,,,,,,,,,,,,,610.3751032000291,610.3997448000009,610.3997448000009,610.3997448000009,613.3601597999805,j,1.4078166999970563,0.16115489997901022,613.3603948000236,613.3604075000039,None,,,,,,,,,,,,,,,00059,001,2026-01-19_14h57.32.554,MST_task,2024.2.0,59.78469140846146,2026-01-19 14h58.58.380412 +0530,
,Scenes\116a.jpg,137,0,138,,,,,,,j,1.2167830999824218,0.19969890004722401,None,,,,,,138,0,137,613.376749899995,,,,,,,,,,,,,,,,,,,,,,,,,,,,,,613.3604769000085,613.376749899995,613.8619896000018,,,,,,,,,,,,,,,,,,,,,,,613.8826962999883,613.895340499992,613.895340499992,613.895340499992,616.8723391999956,j,1.2167830999824218,0.19969890004722401,616.8723950000131,616.8724074999918,None,,,,,,,,,,,,,,,00059,001,2026-01-19_14h57.32.554,MST_task,2024.2.0,59.78469140846146,2026-01-19 14h58.58.380412 +0530,
,Scenes\114a.jpg,138,0,139,,,,,,,None,,,f,0.7184937000274658,None,,,,139,0,138,616.889181400009,,,,,,,,,,,,,,,,,,,,,,,,,,,,,,616.8727800000343,616.889181400009,617.3742858000332,,,,,,,,,,,,,,,,,,,,,,,617.4003671000246,617.424230500008,617.424230500008,617.424230500008,620.3847634000122,None,,,620.3848010000074,621.121590499999,f,,620.401360000018,620.401360000018,0.7184937000274658,None,,,,,,,,,,00059,001,2026-01-19_14h57.32.554,MST_task,2024.2.0,59.78469140846146,2026-01-19 14h58.58.380412 +0530,
,Scenes\072a.jpg,139,0,140,,,,,,,j,1.0876163999782875,0.19261640001786873,None,,,,,,140,0,139,621.1372753999894,,,,,,,,,,,,,,,,,,,,,,,,,,,,,,621.1217270999914,621.1372753999894,621.6224625000032,,,,,,,,,,,,,,,,,,,,,,,621.6487615000224,621.6725512000266,621.6725512000266,621.6725512000266,624.6328528000158,j,1.0876163999782875,0.19261640001786873,624.6328947999864,624.6329075000249,None,,,,,,,,,,,,,,,00059,001,2026-01-19_14h57.32.554,MST_task,2024.2.0,59.78469140846146,2026-01-19 14h58.58.380412 +0530,
,Objects\154a.jpg,140,0,141,,,,,,,j,2.2624383999500424,0.1999811000423506,None,,,,,,141,0,140,624.6499450000119,,,,,,,,,,,,,,,,,,,,,,,,,,,,,,624.6330450000241,624.6499450000119,625.1346593000344,,,,,,,,,,,,,,,,,,,,,,,625.1598838000209,625.1690617999993,625.1690617999993,625.1690617999993,628.1451501999982,j,2.2624383999500424,0.1999811000423506,628.1471479000174,628.1471676999936,None,,,,,,,,,,,,,,,00059,001,2026-01-19_14h57.32.554,MST_task,2024.2.0,59.78469140846146,2026-01-19 14h58.58.380412 +0530,
,Objects\137a.jpg,141,0,142,,,,,,,f,2.1758432000060566,0.15219489997252822,None,,,,,,142,0,141,628.1619804999791,,,,,,,,,,,,,,,,,,,,,,,,,,,,,,628.1472951000324,628.1619804999791,628.6474483000347,,,,,,,,,,,,,,,,,,,,,,,628.6684981000144,628.6804301000084,628.6804301000084,628.6804301000084,631.6575767000322,f,2.1758432000060566,0.15219489997252822,631.657618199999,631.6576304000337,None,628.6804301000084,,,,,,,,,,,,,,00059,001,2026-01-19_14h57.32.554,MST_task,2024.2.0,59.78469140846146,2026-01-19 14h58.58.380412 +0530,
,Objects\070a.jpg,142,0,143,,,,,,,f,0.9511234000092372,0.21593399997800589,None,,,,,,143,0,142,631.6741731000366,,,,,,,,,,,,,,,,,,,,,,,,,,,,,,631.6577006999869,631.6741731000366,632.1592518999823,,,,,,,,,,,,,,,,,,,,,,,632.1844423000002,632.1929173999815,632.1929173999815,632.1929173999815,635.1701431000256,f,0.9511234000092372,0.21593399997800589,635.1702219999861,635.1702366999816,None,,,,,,,,,,,,,,,00059,001,2026-01-19_14h57.32.554,MST_task,2024.2.0,59.78469140846146,2026-01-19 14h58.58.380412 +0530,
,Objects\096a.jpg,143,0,144,,,,,,,f,1.543939399998635,0.20739180000964552,None,,,,,,144,0,143,635.1866275999928,,,,,,,,,,,,,,,,,,,,,,,,,,,,,,635.1703078999999,635.1866275999928,635.6718835000065,,,,,,,,,,,,,,,,,,,,,,,635.6939173000283,635.7051011000294,635.7051011000294,635.7051011000294,638.6822196000139,f,1.543939399998635,0.20739180000964552,638.682261399983,638.6822749000276,None,,,,,,,,,,,,,,,00059,001,2026-01-19_14h57.32.554,MST_task,2024.2.0,59.78469140846146,2026-01-19 14h58.58.380412 +0530,
,Objects\047a.jpg,144,0,145,,,,,,,f,0.647343999997247,0.2067968999617733,None,,,,,,145,0,144,638.6995447000372,,,,,,,,,,,,,,,,,,,,,,,,,,,,,,638.682365900022,638.6995447000372,639.1840277999872,,,,,,,,,,,,,,,,,,,,,,,639.20436470001,639.2175043000025,639.2175043000025,639.2175043000025,642.1946549999993,f,0.647343999997247,0.2067968999617733,642.1946970000281,642.1947093000053,None,,,,,,,,,,,,,,,00059,001,2026-01-19_14h57.32.554,MST_task,2024.2.0,59.78469140846146,2026-01-19 14h58.58.380412 +0530,
,Objects\174a.jpg,145,0,146,,,,,,,f,0.8867229999741539,0.21636389999184757,None,,,,,,146,0,145,642.2112407999812,,,,,,,,,,,,,,,,,,,,,,,,,,,,,,642.1948158000014,642.2112407999812,642.6965395000298,,,,,,,,,,,,,,,,,,,,,,,642.7168623000034,642.7296753000119,642.7296753000119,642.7296753000119,645.7068170999992,f,0.8867229999741539,0.21636389999184757,645.7068853999954,645.7069047000259,None,,,,,,,,,,,,,,,00059,001,2026-01-19_14h57.32.554,MST_task,2024.2.0,59.78469140846146,2026-01-19 14h58.58.380412 +0530,
,Objects\184a.jpg,146,0,147,,,,,,,j,1.6540581000153907,0.2241255000117235,None,,,,,,147,0,146,645.7236502000014,,,,,,,,,,,,,,,,,,,,,,,,,,,,,,645.7070270000258,645.7236502000014,646.208704699995,,,,,,,,,,,,,,,,,,,,,,,646.2297399999807,646.2420920000295,646.2420920000295,646.2420920000295,649.2191122000222,j,1.6540581000153907,0.2241255000117235,649.2191531999852,649.2191657000221,None,,,,,,,,,,,,,,,00059,001,2026-01-19_14h57.32.554,MST_task,2024.2.0,59.78469140846146,2026-01-19 14h58.58.380412 +0530,
,Scenes\097a.jpg,147,0,148,,,,,,,j,2.637105200032238,0.15935029997490346,None,,,,,,148,0,147,649.2359488999937,,,,,,,,,,,,,,,,,,,,,,,,,,,,,,649.219281000027,649.2359488999937,649.7209108999814,,,,,,,,,,,,,,,,,,,,,,,649.7442916000145,649.7551567000337,649.7551567000337,649.7551567000337,652.7316565000219,j,2.637105200032238,0.15935029997490346,652.733163100027,652.7331829000032,None,,,,,,,,,,,,,,,00059,001,2026-01-19_14h57.32.554,MST_task,2024.2.0,59.78469140846146,2026-01-19 14h58.58.380412 +0530,
,Scenes\004a.jpg,148,0,149,,,,,,,j,0.7319755000062287,0.1760033000027761,None,,,,,,149,0,148,652.7479685000144,,,,,,,,,,,,,,,,,,,,,,,,,,,,,,652.7332937000319,652.7479685000144,653.2336224000319,,,,,,,,,,,,,,,,,,,,,,,653.2599774000118,653.2840314999921,653.2840314999921,653.2840314999921,656.2436456999858,j,0.7319755000062287,0.1760033000027761,656.2438349000295,656.2438488000189,None,653.2840314999921,,,,,,,,,,,,,,00059,001,2026-01-19_14h57.32.554,MST_task,2024.2.0,59.78469140846146,2026-01-19 14h58.58.380412 +0530,
,Scenes\084a.jpg,149,0,150,,,,,,,j,1.6047706999816,0.23231210000813007,None,,,,,,150,0,149,656.2605816000141,,,,,,,,,,,,,,,,,,,,,,,,,,,,,,656.2439743999857,656.2605816000141,656.7458658000105,,,,,,,,,,,,,,,,,,,,,,,656.7706988999853,656.7955469000153,656.7955469000153,656.7955469000153,659.7558484000037,j,1.6047706999816,0.23231210000813007,659.7558894000249,659.7559264000156,None,,,,,,,,,,,,,,,00059,001,2026-01-19_14h57.32.554,MST_task,2024.2.0,59.78469140846146,2026-01-19 14h58.58.380412 +0530,
,Scenes\032a.jpg,150,0,151,,,,,,,j,1.1563896000152454,0.20807369996327907,None,,,,,,151,0,150,659.7727952999994,,,,,,,,,,,,,,,,,,,,,,,,,,,,,,659.756302600028,659.7727952999994,660.2576809999882,,,,,,,,,,,,,,,,,,,,,,,660.2880608999985,660.3080707000336,660.3080707000336,660.3080707000336,663.2682595999795,j,1.1563896000152454,0.20807369996327907,663.2684474000125,663.2684601999936,None,,,,,,,,,,,,,,,00059,001,2026-01-19_14h57.32.554,MST_task,2024.2.0,59.78469140846146,2026-01-19 14h58.58.380412 +0530,
,Scenes\014a.jpg,151,0,152,,,,,,,f,1.2689085000311024,0.23970819998066872,None,,,,,,152,0,151,663.2848663000041,,,,,,,,,,,,,,,,,,,,,,,,,,,,,,663.2685327000218,663.2848663000041,663.770063599979,,,,,,,,,,,,,,,,,,,,,,,663.7958460000227,663.8038717000163,663.8038717000163,663.8038717000163,666.7805895000347,f,1.2689085000311024,0.23970819998066872,666.7806329000159,666.7806453999947,None,,,,,,,,,,,,,,,00059,001,2026-01-19_14h57.32.554,MST_task,2024.2.0,59.78469140846146,2026-01-19 14h58.58.380412 +0530,
,Scenes\063a.jpg,152,0,153,,,,,,,j,1.499363299983088,0.1673790000495501,None,,,,,,153,0,152,666.7974908000324,,,,,,,,,,,,,,,,,,,,,,,,,,,,,,666.7807180000236,666.7974908000324,667.2823076000204,,,,,,,,,,,,,,,,,,,,,,,667.3070845000329,667.3333137999871,667.3333137999871,667.3333137999871,670.2927321000025,j,1.499363299983088,0.1673790000495501,670.2927850999986,670.2927975000348,None,,,,,,,,,,,,,,,00059,001,2026-01-19_14h57.32.554,MST_task,2024.2.0,59.78469140846146,2026-01-19 14h58.58.380412 +0530,
,Scenes\071a.jpg,153,0,154,,,,,,,j,1.4671259999740869,0.21619420003844425,None,,,,,,154,0,153,670.3095609000302,,,,,,,,,,,,,,,,,,,,,,,,,,,,,,670.2930504999822,670.3095609000302,670.7945542000234,,,,,,,,,,,,,,,,,,,,,,,670.8186775000067,670.8454530999879,670.8454530999879,670.8454530999879,673.8051502000308,j,1.4671259999740869,0.21619420003844425,673.805191099993,673.8052031000261,None,,,,,,,,,,,,,,,00059,001,2026-01-19_14h57.32.554,MST_task,2024.2.0,59.78469140846146,2026-01-19 14h58.58.380412 +0530,
,Objects\191a.jpg,154,0,155,,,,,,,f,1.6029344000271522,0.16800740000326186,None,,,,,,155,0,154,673.8217606000253,,,,,,,,,,,,,,,,,,,,,,,,,,,,,,673.8052715000231,673.8217606000253,674.3069584000041,,,,,,,,,,,,,,,,,,,,,,,674.3312672000029,674.3410644999822,674.3410644999822,674.3410644999822,677.3174479000154,f,1.6029344000271522,0.16800740000326186,677.3192458000267,677.3192660000059,None,,,,,,,,,,,,,,,00059,001,2026-01-19_14h57.32.554,MST_task,2024.2.0,59.78469140846146,2026-01-19 14h58.58.380412 +0530,
,Objects\185a.jpg,155,0,156,,,,,,,f,0.8030433999956585,0.18568520003464073,None,,,,,,156,0,155,677.3341542999842,,,,,,,,,,,,,,,,,,,,,,,,,,,,,,677.3193791999947,677.3341542999842,677.8194555999944,,,,,,,,,,,,,,,,,,,,,,,677.8404664000263,677.852501699992,677.852501699992,677.852501699992,680.8296402000124,f,0.8030433999956585,0.18568520003464073,680.8296838999959,680.8296964000328,None,677.852501699992,,,,,,,,,,,,,,00059,001,2026-01-19_14h57.32.554,MST_task,2024.2.0,59.78469140846146,2026-01-19 14h58.58.380412 +0530,
,Objects\009a.jpg,156,0,157,,,,,,,f,0.922743699979037,0.21716589998686686,None,,,,,,157,0,156,680.8464730000123,,,,,,,,,,,,,,,,,,,,,,,,,,,,,,680.8298022000236,680.8464730000123,681.3315686000278,,,,,,,,,,,,,,,,,,,,,,,681.3545732999919,681.3648002999835,681.3648002999835,681.3648002999835,684.3420728000347,f,0.922743699979037,0.21716589998686686,684.3421157000121,684.3421302000061,None,,,,,,,,,,,,,,,00059,001,2026-01-19_14h57.32.554,MST_task,2024.2.0,59.78469140846146,2026-01-19 14h58.58.380412 +0530,
,Objects\118a.jpg,157,0,158,,,,,,,f,0.8358042000327259,0.19061749998945743,None,,,,,,158,0,157,684.3586502000107,,,,,,,,,,,,,,,,,,,,,,,,,,,,,,684.3422004000167,684.3586502000107,684.8440442000283,,,,,,,,,,,,,,,,,,,,,,,684.8652272000327,684.8771312999888,684.8771312999888,684.8771312999888,687.8542250000173,f,0.8358042000327259,0.19061749998945743,687.8542868000222,687.8542995000025,None,,,,,,,,,,,,,,,00059,001,2026-01-19_14h57.32.554,MST_task,2024.2.0,59.78469140846146,2026-01-19 14h58.58.380412 +0530,
,Objects\046a.jpg,158,0,159,,,,,,,f,1.3068846999667585,0.19963500002631918,None,,,,,,159,0,158,687.8709803000093,,,,,,,,,,,,,,,,,,,,,,,,,,,,,,687.8546313000261,687.8709803000093,688.3561862999923,,,,,,,,,,,,,,,,,,,,,,,688.3770271000103,688.3895139999804,688.3895139999804,688.3895139999804,691.3668031999841,f,1.3068846999667585,0.19963500002631918,691.3668482000357,691.366860500013,None,,,,,,,,,,,,,,,00059,001,2026-01-19_14h57.32.554,MST_task,2024.2.0,59.78469140846146,2026-01-19 14h58.58.380412 +0530,
,Objects\187a.jpg,159,0,160,,,,,,,f,1.0261816999991424,0.19259099999908358,None,,,,,,160,0,159,691.3832467999891,,,,,,,,,,,,,,,,,,,,,,,,,,,,,,691.3669328999822,691.3832467999891,691.8685699999915,,,,,,,,,,,,,,,,,,,,,,,691.8935074000037,691.9017009999952,691.9017009999952,691.9017009999952,694.878861300007,f,1.0261816999991424,0.19259099999908358,694.8789071000065,694.8789197999868,None,,,,,,,,,,,,,,,00059,001,2026-01-19_14h57.32.554,MST_task,2024.2.0,59.78469140846146,2026-01-19 14h58.58.380412 +0530,
,Objects\148a.jpg,160,0,161,,,,,,,f,1.6105208999942988,0.19151530001545325,None,,,,,,161,0,160,694.8965236000367,,,,,,,,,,,,,,,,,,,,,,,,,,,,,,694.8792920000269,694.8965236000367,695.3812756999978,,,,,,,,,,,,,,,,,,,,,,,695.4034168000217,695.4143107000273,695.4143107000273,695.4143107000273,698.3921191000263,f,1.6105208999942988,0.19151530001545325,698.3921743999817,698.3921874000225,None,,,,,,,,,,,,,,,00059,001,2026-01-19_14h57.32.554,MST_task,2024.2.0,59.78469140846146,2026-01-19 14h58.58.380412 +0530,
,Scenes\015a.jpg,161,0,162,,,,,,,j,1.7999714000034146,0.2008835999877192,None,,,,,,162,0,161,698.4078772999928,,,,,,,,,,,,,,,,,,,,,,,,,,,,,,698.3922672999906,698.4078772999928,698.8943359000259,,,,,,,,,,,,,,,,,,,,,,,698.9263077999931,698.9440309000202,698.9440309000202,698.9440309000202,701.9034514999948,j,1.7999714000034146,0.2008835999877192,701.9048401000327,701.9048589000013,None,,,,,,,,,,,,,,,00059,001,2026-01-19_14h57.32.554,MST_task,2024.2.0,59.78469140846146,2026-01-19 14h58.58.380412 +0530,
,Scenes\188a.jpg,162,0,163,,,,,,,j,0.800650899996981,0.19938240002375096,None,,,,,,163,0,162,701.920252699987,,,,,,,,,,,,,,,,,,,,,,,,,,,,,,701.9049742000061,701.920252699987,702.4052459999803,,,,,,,,,,,,,,,,,,,,,,,702.428701900004,702.4559460000019,702.4559460000019,702.4559460000019,705.4167928000097,j,0.800650899996981,0.19938240002375096,705.416847400018,705.4168612000067,None,,,,,,,,,,,,,,,00059,001,2026-01-19_14h57.32.554,MST_task,2024.2.0,59.78469140846146,2026-01-19 14h58.58.380412 +0530,
,Scenes\159a.jpg,163,0,164,,,,,,,j,0.7035106999683194,0.21646329999202862,None,,,,,,164,0,163,705.4324761999887,,,,,,,,,,,,,,,,,,,,,,,,,,,,,,705.4169428999885,705.4324761999887,705.9180976999924,,,,,,,,,,,,,,,,,,,,,,,705.9463900999981,705.968499700015,705.968499700015,705.968499700015,708.9280402000295,j,0.7035106999683194,0.21646329999202862,708.928083900013,708.9280953999842,None,,,,,,,,,,,,,,,00059,001,2026-01-19_14h57.32.554,MST_task,2024.2.0,59.78469140846146,2026-01-19 14h58.58.380412 +0530,
,Scenes\179a.jpg,164,0,165,,,,,,,j,0.8338165000313893,0.15120919997571036,None,,,,,,165,0,164,708.9448816999793,,,,,,,,,,,,,,,,,,,,,,,,,,,,,,708.9281999000232,708.9448816999793,709.4298320999951,,,,,,,,,,,,,,,,,,,,,,,709.4521019000094,709.4628195000114,709.4628195000114,709.4628195000114,712.4407357000164,j,0.8338165000313893,0.15120919997571036,712.4407931999885,712.4408057000255,None,,,,,,,,,,,,,,,00059,001,2026-01-19_14h57.32.554,MST_task,2024.2.0,59.78469140846146,2026-01-19 14h58.58.380412 +0530,
,Scenes\017a.jpg,165,0,166,,,,,,,f,0.8633945999899879,0.1602263000095263,None,,,,,,166,0,165,712.4571805000305,,,,,,,,,,,,,,,,,,,,,,,,,,,,,,712.4408800000092,712.4571805000305,712.9421268000151,,,,,,,,,,,,,,,,,,,,,,,712.9691310999915,712.9937836999889,712.9937836999889,712.9937836999889,715.9527407999849,f,0.8633945999899879,0.1602263000095263,715.9527842000243,715.9527959999978,None,,,,,,,,,,,,,,,00059,001,2026-01-19_14h57.32.554,MST_task,2024.2.0,59.78469140846146,2026-01-19 14h58.58.380412 +0530,
,Scenes\039a.jpg,166,0,167,,,,,,,j,1.9992494000471197,0.20787609997205436,None,,,,,,167,0,166,715.9693449999904,,,,,,,,,,,,,,,,,,,,,,,,,,,,,,715.9528998000314,715.9693449999904,716.4546554000117,,,,,,,,,,,,,,,,,,,,,,,716.4754692999995,716.4890970999841,716.4890970999841,716.4890970999841,719.4651059000171,j,1.9992494000471197,0.20787609997205436,719.4651471999823,719.465159400017,None,,,,,,,,,,,,,,,00059,001,2026-01-19_14h57.32.554,MST_task,2024.2.0,59.78469140846146,2026-01-19 14h58.58.380412 +0530,
,Scenes\176a.jpg,167,0,168,,,,,,,j,1.0638293999945745,0.15122539998264983,None,,,,,,168,0,167,719.4817649000324,,,,,,,,,,,,,,,,,,,,,,,,,,,,,,719.465286199993,719.4817649000324,719.9667656000238,,,,,,,,,,,,,,,,,,,,,,,719.9922995999805,720.0168087999918,720.0168087999918,720.0168087999918,722.9773576000007,j,1.0638293999945745,0.15122539998264983,722.9773992000264,722.9774120000075,None,,,,,,,,,,,,,,,00059,001,2026-01-19_14h57.32.554,MST_task,2024.2.0,59.78469140846146,2026-01-19 14h58.58.380412 +0530,
,Objects\002a.jpg,168,0,169,,,,,,,f,1.271968899993226,0.22375250002369285,None,,,,,,169,0,168,722.9940747999935,,,,,,,,,,,,,,,,,,,,,,,,,,,,,,722.9774813000113,722.9940747999935,723.4791534999968,,,,,,,,,,,,,,,,,,,,,,,723.5048080999986,723.5124037000351,723.5124037000351,723.5124037000351,726.4896703999839,f,1.271968899993226,0.22375250002369285,726.4910829000291,726.491102400003,None,,,,,,,,,,,,,,,00059,001,2026-01-19_14h57.32.554,MST_task,2024.2.0,59.78469140846146,2026-01-19 14h58.58.380412 +0530,
,Objects\022a.jpg,169,0,170,,,,,,,f,0.8798538999981247,0.21630889998050407,None,,,,,,170,0,169,726.5065651999903,,,,,,,,,,,,,,,,,,,,,,,,,,,,,,726.491214299982,726.5065651999903,726.9921160999802,,,,,,,,,,,,,,,,,,,,,,,727.012612999999,727.0246958000353,727.0246958000353,727.0246958000353,730.0018330999883,f,0.8798538999981247,0.21630889998050407,730.0019272000063,730.0019450000254,None,,,,,,,,,,,,,,,00059,001,2026-01-19_14h57.32.554,MST_task,2024.2.0,59.78469140846146,2026-01-19 14h58.58.380412 +0530,
,Objects\064a.jpg,170,0,171,,,,,,,f,1.1033402999746613,0.22386239998741075,None,,,,,,171,0,170,730.0186666999944,,,,,,,,,,,,,,,,,,,,,,,,,,,,,,730.0020231999806,730.0186666999944,730.5036424000282,,,,,,,,,,,,,,,,,,,,,,,730.5243630000041,730.537106600008,730.537106600008,730.537106600008,733.5143857999938,f,1.1033402999746613,0.22386239998741075,733.5145935000037,733.5146069999901,None,,,,,,,,,,,,,,,00059,001,2026-01-19_14h57.32.554,MST_task,2024.2.0,59.78469140846146,2026-01-19 14h58.58.380412 +0530,
,Objects\003a.jpg,171,0,172,,,,,,,j,1.5510199000127614,0.15946890000486746,None,,,,,,172,0,171,733.5308475000202,,,,,,,,,,,,,,,,,,,,,,,,,,,,,,733.5147134999861,733.5308475000202,734.016051899991,,,,,,,,,,,,,,,,,,,,,,,734.0379820999806,734.0492893999908,734.0492893999908,734.0492893999908,737.026701499999,j,1.5510199000127614,0.15946890000486746,737.0269029000192,737.0269155999995,None,,,,,,,,,,,,,,,00059,001,2026-01-19_14h57.32.554,MST_task,2024.2.0,59.78469140846146,2026-01-19 14h58.58.380412 +0530,
,Objects\017a.jpg,172,0,173,,,,,,,f,1.5114330999786034,0.1429260000004433,None,,,,,,173,0,172,737.0431358999922,,,,,,,,,,,,,,,,,,,,,,,,,,,,,,737.0269912999938,737.0431358999922,737.5283545000129,,,,,,,,,,,,,,,,,,,,,,,737.5491802000324,737.5615736999898,737.5615736999898,737.5615736999898,740.5387606000295,f,1.5114330999786034,0.1429260000004433,740.5388148000347,740.5388272000127,None,,,,,,,,,,,,,,,00059,001,2026-01-19_14h57.32.554,MST_task,2024.2.0,59.78469140846146,2026-01-19 14h58.58.380412 +0530,
,Objects\072a.jpg,173,0,174,,,,,,,f,1.3278564999927767,0.1656951000331901,None,,,,,,174,0,173,740.5555558000342,,,,,,,,,,,,,,,,,,,,,,,,,,,,,,740.5390433000284,740.5555558000342,741.0405439999886,,,,,,,,,,,,,,,,,,,,,,,741.063416399993,741.0739987000125,741.0739987000125,741.0739987000125,744.0511387999868,f,1.3278564999927767,0.1656951000331901,744.0513371999841,744.0513524999842,None,,,,,,,,,,,,,,,00059,001,2026-01-19_14h57.32.554,MST_task,2024.2.0,59.78469140846146,2026-01-19 14h58.58.380412 +0530,
,Objects\085a.jpg,174,0,175,,,,,,,j,1.2702314999769442,0.19163950002985075,None,,,,,,175,0,174,744.0677380000125,,,,,,,,,,,,,,,,,,,,,,,,,,,,,,744.0514248000109,744.0677380000125,744.5532631999813,,,,,,,,,,,,,,,,,,,,,,,744.5758061999804,744.586235499999,744.586235499999,744.586235499999,747.5633613999817,j,1.2702314999769442,0.19163950002985075,747.5634149999823,747.5634274000186,None,,,,,,,,,,,,,,,00059,001,2026-01-19_14h57.32.554,MST_task,2024.2.0,59.78469140846146,2026-01-19 14h58.58.380412 +0530,
,Scenes\145a.jpg,175,0,176,,,,,,,j,1.3484908999525942,0.19206560001475736,None,,,,,,176,0,175,747.5801573999925,,,,,,,,,,,,,,,,,,,,,,,,,,,,,,747.5638134999899,747.5801573999925,748.0651279999875,,,,,,,,,,,,,,,,,,,,,,,748.0924176999833,748.1153041000362,748.1153041000362,748.1153041000362,751.0756179000018,j,1.3484908999525942,0.19206560001475736,751.0774803999811,751.0775002000155,None,,,,,,,,,,,,,,,00059,001,2026-01-19_14h57.32.554,MST_task,2024.2.0,59.78469140846146,2026-01-19 14h58.58.380412 +0530,
,Scenes\161a.jpg,176,0,177,,,,,,,j,1.1886053000343964,0.17690879997098818,None,,,,,,177,0,176,751.0924522000132,,,,,,,,,,,,,,,,,,,,,,,,,,,,,,751.0776211000048,751.0924522000132,751.5778807000024,,,,,,,,,,,,,,,,,,,,,,,751.5959695000201,751.6108992000227,751.6108992000227,751.6108992000227,754.5880992999882,j,1.1886053000343964,0.17690879997098818,754.5881483000121,754.5881611999939,None,751.6108992000227,,,,,,,,,,,,,,00059,001,2026-01-19_14h57.32.554,MST_task,2024.2.0,59.78469140846146,2026-01-19 14h58.58.380412 +0530,
,Scenes\052a.jpg,177,0,178,,,,,,,j,2.484835400013253,0.2001346999895759,None,,,,,,178,0,177,754.6047710999846,,,,,,,,,,,,,,,,,,,,,,,,,,,,,,754.5882792000193,754.6047710999846,755.0899010000285,,,,,,,,,,,,,,,,,,,,,,,755.1074941999977,755.1232598000206,755.1232598000206,755.1232598000206,758.1004904999863,j,2.484835400013253,0.2001346999895759,758.1005356999813,758.1005490000243,None,,,,,,,,,,,,,,,00059,001,2026-01-19_14h57.32.554,MST_task,2024.2.0,59.78469140846146,2026-01-19 14h58.58.380412 +0530,
,Scenes\091a.jpg,178,0,179,,,,,,,j,0.6520792999654077,0.20773050002753735,None,,,,,,179,0,178,758.1170442000148,,,,,,,,,,,,,,,,,,,,,,,,,,,,,,758.1006267000339,758.1170442000148,758.6026096999994,,,,,,,,,,,,,,,,,,,,,,,758.6263884000364,758.6523747000028,758.6523747000028,758.6523747000028,761.6125059000333,j,0.6520792999654077,0.20773050002753735,761.6125670000329,761.6125794000109,None,,,,,,,,,,,,,,,00059,001,2026-01-19_14h57.32.554,MST_task,2024.2.0,59.78469140846146,2026-01-19 14h58.58.380412 +0530,
,Scenes\121a.jpg,179,0,180,,,,,,,j,1.4994562999927439,0.16836790001252666,None,,,,,,180,0,179,761.6293886000058,,,,,,,,,,,,,,,,,,,,,,,,,,,,,,761.6126874000183,761.6293886000058,762.1149175000028,,,,,,,,,,,,,,,,,,,,,,,762.1387050999911,762.1643891999847,762.1643891999847,762.1643891999847,765.1249329000129,j,1.4994562999927439,0.16836790001252666,765.1249751999858,765.124987600022,None,,,,,,,,,,,,,,,00059,001,2026-01-19_14h57.32.554,MST_task,2024.2.0,59.78469140846146,2026-01-19 14h58.58.380412 +0530,
