Sl_no,image_path,thisN,thisTrialN,thisRepN,key_resp_5.keys,key_resp_7.keys,key_resp_7.rt,key_resp_7.duration,key_resp_5.rt,key_resp_5.duration,key_resp_9.keys,key_resp_8.keys,key_resp_8.rt,key_resp_8.duration,key_resp_9.rt,key_resp_9.duration,practice.thisRepN,practice.thisTrialN,practice.thisN,trials.thisRepN,trials.thisTrialN,trials.thisN,thisRow.t,notes,welcome_page.started,text.started,key_resp.started,welcome_page.stopped,key_resp.keys,key_resp.rt,key_resp.duration,instructions.started,ins.started,key_resp_2.started,instructions.stopped,key_resp_2.keys,key_resp_2.rt,key_resp_2.duration,instructions_2.started,text_10.started,key_resp_10.started,instructions_2.stopped,key_resp_10.keys,key_resp_10.rt,key_resp_10.duration,objects_only_instruction.started,text_3.started,key_resp_3.started,objects_only_instruction.stopped,key_resp_3.keys,key_resp_3.rt,key_resp_3.duration,ISI.started,text_4.started,text_4.stopped,ISI.stopped,practice_block.started,image.started,text_5.started,key_resp_5.started,practice_block.stopped,practice.key_resp_5.keys,indoor_outdoor.started,text_7.started,key_resp_7.started,indoor_outdoor.stopped,practice.key_resp_7.keys,practice.key_resp_7.rt,practice.key_resp_7.duration,image.stopped,text_5.stopped,key_resp_5.stopped,practice.key_resp_5.rt,practice.key_resp_5.duration,practice_to_main.started,text_2.started,key_resp_4.started,practice_to_main.stopped,key_resp_4.keys,key_resp_4.rt,key_resp_4.duration,objects.started,image_2.started,text_9.started,key_resp_9.started,image_2.stopped,text_9.stopped,key_resp_9.stopped,objects.stopped,trials.key_resp_9.keys,encoding_task.started,text_8.started,key_resp_8.started,encoding_task.stopped,trials.key_resp_8.keys,trials.key_resp_8.rt,trials.key_resp_8.duration,trials.key_resp_9.rt,trials.key_resp_9.duration,end_experiment.started,text_6.started,key_resp_6.started,end_experiment.stopped,key_resp_6.keys,key_resp_6.rt,key_resp_6.duration,list_of_stimuli,encoding_task_accuracy,participant,session,date,expName,psychopyVersion,frameRate,expStart,
,,,,,,,,,,,,,,,,,,,,,,,,,0.001408600015565753,0.0032473999890498817,0.0032473999890498817,6.704527700028848,space,6.69898970000213,None,,,,,,,,,,,,,,,,,,,,,,,,,,,,,,,,,,,,,,,,,,,,,,,,,,,,,,,,,,,,,,,,,,,,,,,,,,,,,,00067,001,2026-01-25_15h01.19.462,MST_task,2024.2.0,59.998476034089286,2026-01-25 15h01.28.695818 +0530,
,,,,,,,,,,,,,,,,,,,,,,,,,,,,,,,,6.7045624000020325,6.7185293000075035,6.7185293000075035,30.11908829997992,space,23.39905170002021,None,,,,,,,,,,,,,,,,,,,,,,,,,,,,,,,,,,,,,,,,,,,,,,,,,,,,,,,,,,,,,,,,,,,,,,,00067,001,2026-01-25_15h01.19.462,MST_task,2024.2.0,59.998476034089286,2026-01-25 15h01.28.695818 +0530,
,,,,,,,,,,,,,,,,,,,,,,,,,,,,,,,,,,,,,,,30.11911610001698,30.135373800003435,30.135373800003435,73.23558179999236,space,43.08693130000029,None,,,,,,,,,,,,,,,,,,,,,,,,,,,,,,,,,,,,,,,,,,,,,,,,,,,,,,,,,,,,,,,,00067,001,2026-01-25_15h01.19.462,MST_task,2024.2.0,59.998476034089286,2026-01-25 15h01.28.695818 +0530,
,,,,,,,,,,,,,,,,,,,,,,,,,,,,,,,,,,,,,,,,,,,,,,73.2356138000032,73.25201220001327,73.25201220001327,102.86893160000909,space,29.60148750001099,None,,,,,,,,,,,,,,,,,,,,,,,,,,,,,,,,,,,,,,,,,,,,,,,,,,,,,,,,,00067,001,2026-01-25_15h01.19.462,MST_task,2024.2.0,59.998476034089286,2026-01-25 15h01.28.695818 +0530,
5,practice_images/139a.jpg,0,0,1,None,f,3.4998013000003994,None,,,,,,,,,1,0,0,,,,102.88606410002103,,,,,,,,,,,,,,,,,,,,,,,,,,,,,,102.88382809999166,102.88606410002103,103.39443869999377,103.36874180001905,103.38371880003251,103.39443869999377,103.39443869999377,103.39443869999377,106.38538719998905,None,106.38724619999994,106.40185740002198,106.40185740002198,109.90240229998017,f,3.4998013000003994,None,,,,,,,,,,,,,,,,,,,,,,,,,,,,,,,,,,,,,,,,00067,001,2026-01-25_15h01.19.462,MST_task,2024.2.0,59.998476034089286,2026-01-25 15h01.28.695818 +0530,
10,practice_images/182a.jpg,1,1,1,f,None,,,2.5707183000049554,0.16802770004142076,,,,,,,1,1,1,,,,109.91844490001677,,,,,,,,,,,,,,,,,,,,,,,,,,,,,,109.90248520002933,109.91844490001677,110.41870219999691,110.4020285999868,110.4124927999801,110.41870219999691,110.41870219999691,110.41870219999691,113.40235799999209,f,113.40239960001782,,,113.40241219999734,None,,,113.41856259998167,113.41856259998167,113.41856259998167,2.5707183000049554,0.16802770004142076,,,,,,,,,,,,,,,,,,,,,,,,,,,,,,,,,,,00067,001,2026-01-25_15h01.19.462,MST_task,2024.2.0,59.998476034089286,2026-01-25 15h01.28.695818 +0530,
9,practice_images/180a.jpg,2,2,1,f,None,,,2.6787427999661304,0.16001769999274984,,,,,,,1,2,2,,,,113.41856259998167,,,,,,,,,,,,,,,,,,,,,,,,,,,,,,113.40247760002967,113.41856259998167,113.91886700002942,113.90219480002997,113.91145840001991,113.91886700002942,113.91886700002942,113.91886700002942,116.90239920001477,f,116.90243550000014,,,116.90244800003711,None,,,116.91859830002068,116.91859830002068,116.91859830002068,2.6787427999661304,0.16001769999274984,,,,,,,,,,,,,,,,,,,,,,,,,,,,,,,,,,,00067,001,2026-01-25_15h01.19.462,MST_task,2024.2.0,59.998476034089286,2026-01-25 15h01.28.695818 +0530,
3,practice_images/037a.jpg,3,3,1,f,None,,,1.090192699979525,0.2174535000231117,,,,,,,1,3,3,,,,116.91859830002068,,,,,,,,,,,,,,,,,,,,,,,,,,,,,,116.90252100001089,116.91859830002068,117.41876369999954,117.40233260003151,117.41122670000186,117.41876369999954,117.41876369999954,117.41876369999954,120.40249980002409,f,120.4025365000125,,,120.4025488999905,None,,,120.4186914000311,120.4186914000311,120.4186914000311,1.090192699979525,0.2174535000231117,,,,,,,,,,,,,,,,,,,,,,,,,,,,,,,,,,,00067,001,2026-01-25_15h01.19.462,MST_task,2024.2.0,59.998476034089286,2026-01-25 15h01.28.695818 +0530,
8,practice_images/178a.jpg,4,4,1,None,j,0.7508322999929078,None,,,,,,,,,1,4,4,,,,120.4186914000311,,,,,,,,,,,,,,,,,,,,,,,,,,,,,,120.40261200000532,120.4186914000311,120.9188928999938,120.90214130003005,120.91034709999803,120.9188928999938,120.9188928999938,120.9188928999938,123.90229629998794,None,123.90232819999801,123.91863229998853,123.91863229998853,124.68566180003108,j,0.7508322999929078,None,123.91863229998853,123.91863229998853,123.91863229998853,,,,,,,,,,,,,,,,,,,,,,,,,,,,,,,,,,,,,00067,001,2026-01-25_15h01.19.462,MST_task,2024.2.0,59.998476034089286,2026-01-25 15h01.28.695818 +0530,
7,practice_images/166a.jpg,5,5,1,None,j,1.7871152999578044,None,,,,,,,,,1,5,5,,,,124.70201720000478,,,,,,,,,,,,,,,,,,,,,,,,,,,,,,124.68574390001595,124.70201720000478,125.20209819998126,125.18553950003115,125.19756609998876,125.20209819998126,125.20209819998126,125.20209819998126,128.18551909999223,None,128.18809419998433,128.20197330001974,128.20197330001974,130.00243789999513,j,1.7871152999578044,None,128.20197330001974,128.20197330001974,128.20197330001974,,,,,,,,,,,,,,,,,,,,,,,,,,,,,,,,,,,,,00067,001,2026-01-25_15h01.19.462,MST_task,2024.2.0,59.998476034089286,2026-01-25 15h01.28.695818 +0530,
2,practice_images/031a.jpg,6,6,1,f,None,,,2.270193599979393,0.1760906000272371,,,,,,,1,6,6,,,,130.0185441999929,,,,,,,,,,,,,,,,,,,,,,,,,,,,,,130.00252029998228,130.0185441999929,130.5187698000227,130.502226600016,130.51059680001345,130.5187698000227,130.5187698000227,130.5187698000227,133.50233049999224,f,133.50236690003658,,,133.50237990001915,None,,,133.51862400001846,133.51862400001846,133.51862400001846,2.270193599979393,0.1760906000272371,,,,,,,,,,,,,,,,,,,,,,,,,,,,,,,,,,,00067,001,2026-01-25_15h01.19.462,MST_task,2024.2.0,59.998476034089286,2026-01-25 15h01.28.695818 +0530,
1,practice_images/013a.jpg,7,7,1,j,None,,,2.563502500008326,0.13459670002339408,,,,,,,1,7,7,,,,133.51862400001846,,,,,,,,,,,,,,,,,,,,,,,,,,,,,,133.50244300003396,133.51862400001846,134.0188097000355,134.00225680001313,134.01023070001975,134.0188097000355,134.0188097000355,134.0188097000355,137.00234790000832,j,137.00238560000435,,,137.0023980999831,None,,,137.0186172000249,137.0186172000249,137.0186172000249,2.563502500008326,0.13459670002339408,,,,,,,,,,,,,,,,,,,,,,,,,,,,,,,,,,,00067,001,2026-01-25_15h01.19.462,MST_task,2024.2.0,59.998476034089286,2026-01-25 15h01.28.695818 +0530,
4,practice_images/002b.jpg,8,8,1,f,None,,,2.5980329000158235,0.15999439998995513,,,,,,,1,8,8,,,,137.0186172000249,,,,,,,,,,,,,,,,,,,,,,,,,,,,,,137.00246139999945,137.0186172000249,137.5188810999971,137.50223879999248,137.51082470000256,137.5188810999971,137.5188810999971,137.5188810999971,140.5023918999941,f,140.50243520003278,,,140.502449600026,None,,,140.51852149999468,140.51852149999468,140.51852149999468,2.5980329000158235,0.15999439998995513,,,,,,,,,,,,,,,,,,,,,,,,,,,,,,,,,,,00067,001,2026-01-25_15h01.19.462,MST_task,2024.2.0,59.998476034089286,2026-01-25 15h01.28.695818 +0530,
6,practice_images/158a.jpg,9,9,1,f,None,,,2.498206400021445,0.16795530001400039,,,,,,,1,9,9,,,,140.51852149999468,,,,,,,,,,,,,,,,,,,,,,,,,,,,,,140.5025182000245,140.51852149999468,141.01878899999429,141.00221060001059,141.01042340003187,141.01878899999429,141.01878899999429,141.01878899999429,144.00235860003158,f,144.00239440001315,,,144.00240609998582,None,,,144.01863519998733,144.01863519998733,144.01863519998733,2.498206400021445,0.16795530001400039,,,,,,,,,,,,,,,,,,,,,,,,,,,,,,,,,,,00067,001,2026-01-25_15h01.19.462,MST_task,2024.2.0,59.998476034089286,2026-01-25 15h01.28.695818 +0530,
,,,,,,,,,,,,,,,,,,,,,,,,,,,,,,,,,,,,,,,,,,,,,,,,,,,,,,,,,,,,,,,,,,,,,,,,,,,144.00244770001154,144.01863519998733,144.01863519998733,162.5524260000093,space,18.522609899984673,None,,,,,,,,,,,,,,,,,,,,,,,,,,,,00067,001,2026-01-25_15h01.19.462,MST_task,2024.2.0,59.998476034089286,2026-01-25 15h01.28.695818 +0530,
,Objects\161a.jpg,0,0,1,,,,,,,None,f,1.2249233000329696,None,,,,,,1,0,0,162.56849069998134,,,,,,,,,,,,,,,,,,,,,,,,,,,,,,162.55317800003104,162.56849069998134,163.06965309998486,163.052202699997,,,,,,,,,,,,,,,,,,,,,,,,,,163.0663958999794,163.06965309998486,163.06965309998486,163.06965309998486,166.06853779999074,166.06853779999074,166.06853779999074,166.05257569998503,None,166.05587370001012,166.06853779999074,166.06853779999074,167.3024177000043,f,1.2249233000329696,None,,,,,,,,,,,,00067,001,2026-01-25_15h01.19.462,MST_task,2024.2.0,59.998476034089286,2026-01-25 15h01.28.695818 +0530,
,Objects\067a.jpg,1,0,2,,,,,,,f,None,,,1.7065844999742694,0.19239620002917945,,,,2,0,1,167.3184647000162,,,,,,,,,,,,,,,,,,,,,,,,,,,,,,167.30251180002233,167.3184647000162,167.81884520000312,167.80220949999057,,,,,,,,,,,,,,,,,,,,,,,,,,167.81167710002046,167.81884520000312,167.81884520000312,167.81884520000312,170.81849380000494,170.81849380000494,170.81849380000494,170.80232800001977,f,170.80237180000404,,,170.8023830000311,None,,,1.7065844999742694,0.19239620002917945,,,,,,,,,,00067,001,2026-01-25_15h01.19.462,MST_task,2024.2.0,59.998476034089286,2026-01-25 15h01.28.695818 +0530,
,Objects\134a.jpg,2,0,3,,,,,,,j,None,,,1.6394252000027336,0.1349276999826543,,,,3,0,2,170.81849380000494,,,,,,,,,,,,,,,,,,,,,,,,,,,,,,170.8024471999961,170.81849380000494,171.31868520000717,171.30210189998616,,,,,,,,,,,,,,,,,,,,,,,,,,171.31216989998939,171.31868520000717,171.31868520000717,171.31868520000717,174.31850699998904,174.31850699998904,174.31850699998904,174.30260330002056,j,174.30264880001778,,,174.3026603999897,None,,,1.6394252000027336,0.1349276999826543,,,,,,,,,,00067,001,2026-01-25_15h01.19.462,MST_task,2024.2.0,59.998476034089286,2026-01-25 15h01.28.695818 +0530,
,Objects\102a.jpg,3,0,4,,,,,,,f,None,,,1.6262559000169858,0.1682141000055708,,,,4,0,3,174.31850699998904,,,,,,,,,,,,,,,,,,,,,,,,,,,,,,174.30275909998454,174.31850699998904,174.81887070002267,174.80205980001483,,,,,,,,,,,,,,,,,,,,,,,,,,174.81354830000782,174.81887070002267,174.81887070002267,174.81887070002267,177.81848990003346,177.81848990003346,177.81848990003346,177.80239040002925,f,177.8024305999861,,,177.8024415000109,None,,,1.6262559000169858,0.1682141000055708,,,,,,,,,,00067,001,2026-01-25_15h01.19.462,MST_task,2024.2.0,59.998476034089286,2026-01-25 15h01.28.695818 +0530,
,Objects\017a.jpg,4,0,5,,,,,,,None,f,0.5593226999626495,None,,,,,,5,0,4,177.81848990003346,,,,,,,,,,,,,,,,,,,,,,,,,,,,,,177.8025059000356,177.81848990003346,178.31874010001775,178.30204939999385,,,,,,,,,,,,,,,,,,,,,,,,,,178.31165779998992,178.31874010001775,178.31874010001775,178.31874010001775,181.31843400001526,181.31843400001526,181.31843400001526,181.30245200003264,None,181.30248950002715,181.31843400001526,181.31843400001526,181.8854941999889,f,0.5593226999626495,None,,,,,,,,,,,,00067,001,2026-01-25_15h01.19.462,MST_task,2024.2.0,59.998476034089286,2026-01-25 15h01.28.695818 +0530,
,Objects\122a.jpg,5,0,6,,,,,,,f,None,,,1.97095749998698,0.2648555999621749,,,,6,0,5,181.90179690002697,,,,,,,,,,,,,,,,,,,,,,,,,,,,,,181.8855795999989,181.90179690002697,182.40200420003384,182.38545960001647,,,,,,,,,,,,,,,,,,,,,,,,,,182.39519499999005,182.40200420003384,182.40200420003384,182.40200420003384,185.40186660003383,185.40186660003383,185.40186660003383,185.3854466000339,f,185.3854898000136,,,185.3855008999817,None,,,1.97095749998698,0.2648555999621749,,,,,,,,,,00067,001,2026-01-25_15h01.19.462,MST_task,2024.2.0,59.998476034089286,2026-01-25 15h01.28.695818 +0530,
,Objects\059a.jpg,6,0,7,,,,,,,j,None,,,2.4713446999667212,0.12002460000803694,,,,7,0,6,185.40186660003383,,,,,,,,,,,,,,,,,,,,,,,,,,,,,,185.3855669000186,185.40186660003383,185.90207140002167,185.88531430001603,,,,,,,,,,,,,,,,,,,,,,,,,,185.89490060001845,185.90207140002167,185.90207140002167,185.90207140002167,188.90182169998297,188.90182169998297,188.90182169998297,188.88563919998705,j,188.8856810000143,,,188.88569199998165,None,,,2.4713446999667212,0.12002460000803694,,,,,,,,,,00067,001,2026-01-25_15h01.19.462,MST_task,2024.2.0,59.998476034089286,2026-01-25 15h01.28.695818 +0530,
,Scenes\083a.jpg,7,0,8,,,,,,,j,None,,,2.4574433999950998,0.11910399998305365,,,,8,0,7,188.90182169998297,,,,,,,,,,,,,,,,,,,,,,,,,,,,,,188.88578770001186,188.90182169998297,189.41251029999694,189.3853131000069,,,,,,,,,,,,,,,,,,,,,,,,,,189.40994390001288,189.41251029999694,189.41251029999694,189.41251029999694,,,,192.40206619998207,j,192.4041957000154,,,192.40421389997937,None,,,2.4574433999950998,0.11910399998305365,,,,,,,,,,00067,001,2026-01-25_15h01.19.462,MST_task,2024.2.0,59.998476034089286,2026-01-25 15h01.28.695818 +0530,
,Scenes\016a.jpg,8,0,9,,,,,,,j,None,,,1.0702946999808773,0.10397880000527948,,,,9,0,8,192.41843309998512,,,,,,,,,,,,,,,,,,,,,,,,,,,,,,192.40432570001576,192.41843309998512,192.91872210003203,192.90219849999994,,,,,,,,,,,,,,,,,,,,,,,,,,192.91579360002652,192.91872210003203,192.91872210003203,192.91872210003203,195.91841980000027,195.91841980000027,195.91841980000027,195.90238330001011,j,195.90242360002594,,,195.90243439999176,None,,,1.0702946999808773,0.10397880000527948,,,,,,,,,,00067,001,2026-01-25_15h01.19.462,MST_task,2024.2.0,59.998476034089286,2026-01-25 15h01.28.695818 +0530,
,Scenes\176a.jpg,9,0,10,,,,,,,j,None,,,1.2855956999701448,0.12000450002960861,,,,10,0,9,195.91841980000027,,,,,,,,,,,,,,,,,,,,,,,,,,,,,,195.90253329998814,195.91841980000027,196.42388620000565,196.40209789999062,,,,,,,,,,,,,,,,,,,,,,,,,,196.42153290001443,196.42388620000565,196.42388620000565,196.42388620000565,,,,199.41868400003295,j,199.41872539999895,,,199.41873700002907,None,,,1.2855956999701448,0.12000450002960861,,,,,,,,,,00067,001,2026-01-25_15h01.19.462,MST_task,2024.2.0,59.998476034089286,2026-01-25 15h01.28.695818 +0530,
,Scenes\101a.jpg,10,0,11,,,,,,,j,None,,,1.9064139999682084,0.12054940004600212,,,,11,0,10,199.43508209998254,,,,,,,,,,,,,,,,,,,,,,,,,,,,,,199.41880610003136,199.43508209998254,199.93861489999108,199.91866620001383,,,,,,,,,,,,,,,,,,,,,,,,,,199.93632480001543,199.93861489999108,199.93861489999108,199.93861489999108,,,,202.93549370003166,j,202.9355363000068,,,202.93554809998022,None,,,1.9064139999682084,0.12054940004600212,,,,,,,,,,00067,001,2026-01-25_15h01.19.462,MST_task,2024.2.0,59.998476034089286,2026-01-25 15h01.28.695818 +0530,
,Scenes\172a.jpg,11,0,12,,,,,,,None,j,0.07325330004096031,None,,,,,,12,0,11,202.9517509000143,,,,,,,,,,,,,,,,,,,,,,,,,,,,,,202.93561729998328,202.9517509000143,203.453070699994,203.435269300011,,,,,,,,,,,,,,,,,,,,,,,,,,203.4505855999887,203.453070699994,203.453070699994,203.453070699994,,,,206.4520032000146,None,206.45204020000529,206.4684666999965,206.4684666999965,206.55216850002762,j,0.07325330004096031,None,,,,,,,,,,,,00067,001,2026-01-25_15h01.19.462,MST_task,2024.2.0,59.998476034089286,2026-01-25 15h01.28.695818 +0530,
,Scenes\150a.jpg,12,0,13,,,,,,,j,None,,,1.8563148999819532,0.10289600002579391,,,,13,0,12,206.56848449999234,,,,,,,,,,,,,,,,,,,,,,,,,,,,,,206.55225350003457,206.56848449999234,207.0699517999892,207.05202629999258,,,,,,,,,,,,,,,,,,,,,,,,,,207.06728810002096,207.0699517999892,207.0699517999892,207.0699517999892,,,,210.06871439999668,j,210.06875750003383,,,210.06876910000574,None,,,1.8563148999819532,0.10289600002579391,,,,,,,,,,00067,001,2026-01-25_15h01.19.462,MST_task,2024.2.0,59.998476034089286,2026-01-25 15h01.28.695818 +0530,
,Scenes\177a.jpg,13,0,14,,,,,,,j,None,,,2.3308750000433065,0.12173680000705644,,,,14,0,13,210.08498109999346,,,,,,,,,,,,,,,,,,,,,,,,,,,,,,210.06886900000973,210.08498109999346,210.5862433000002,210.56871860002866,,,,,,,,,,,,,,,,,,,,,,,,,,210.58383750001667,210.5862433000002,210.5862433000002,210.5862433000002,213.5850505999988,213.5850505999988,213.5850505999988,213.5690916000167,j,213.56913750001695,,,213.5691714999848,None,,,2.3308750000433065,0.12173680000705644,,,,,,,,,,00067,001,2026-01-25_15h01.19.462,MST_task,2024.2.0,59.998476034089286,2026-01-25 15h01.28.695818 +0530,
,Objects\147a.jpg,14,0,15,,,,,,,None,f,0.6240594999981113,None,,,,,,15,0,14,213.5850505999988,,,,,,,,,,,,,,,,,,,,,,,,,,,,,,213.5692427000031,213.5850505999988,214.0855347000179,214.06874970003264,,,,,,,,,,,,,,,,,,,,,,,,,,214.08113509998657,214.0855347000179,214.0855347000179,214.0855347000179,217.0849951999844,217.0849951999844,217.0849951999844,217.06907309999224,None,217.07120599999325,217.0849951999844,217.0849951999844,217.71886299998732,f,0.6240594999981113,None,,,,,,,,,,,,00067,001,2026-01-25_15h01.19.462,MST_task,2024.2.0,59.998476034089286,2026-01-25 15h01.28.695818 +0530,
,Objects\101a.jpg,15,0,16,,,,,,,f,None,,,2.882522500003688,None,,,,16,0,15,217.73492650000844,,,,,,,,,,,,,,,,,,,,,,,,,,,,,,217.71894980000798,217.73492650000844,218.23531220003497,218.21865769999567,,,,,,,,,,,,,,,,,,,,,,,,,,218.228605900018,218.23531220003497,218.23531220003497,218.23531220003497,221.23508479999145,221.23508479999145,221.23508479999145,221.21900829998776,f,221.21905200002948,,,221.21906319999835,None,,,2.882522500003688,None,,,,,,,,,,00067,001,2026-01-25_15h01.19.462,MST_task,2024.2.0,59.998476034089286,2026-01-25 15h01.28.695818 +0530,
,Objects\183a.jpg,16,0,17,,,,,,,j,None,,,2.7261199000058696,0.1519863999565132,,,,17,0,16,221.23508479999145,,,,,,,,,,,,,,,,,,,,,,,,,,,,,,221.21912999998312,221.23508479999145,221.73543900001096,221.71879559999797,,,,,,,,,,,,,,,,,,,,,,,,,,221.7292654000339,221.73543900001096,221.73543900001096,221.73543900001096,224.73507569998037,224.73507569998037,224.73507569998037,224.71900759998243,j,224.71904920000816,,,224.71906010003295,None,,,2.7261199000058696,0.1519863999565132,,,,,,,,,,00067,001,2026-01-25_15h01.19.462,MST_task,2024.2.0,59.998476034089286,2026-01-25 15h01.28.695818 +0530,
,Objects\120a.jpg,17,0,18,,,,,,,f,None,,,2.8981927999993786,None,,,,18,0,17,224.73507569998037,,,,,,,,,,,,,,,,,,,,,,,,,,,,,,224.7191567000118,224.73507569998037,225.23525020002853,225.21874530002242,,,,,,,,,,,,,,,,,,,,,,,,,,225.22863989998586,225.23525020002853,225.23525020002853,225.23525020002853,228.23528500000248,228.23528500000248,228.23528500000248,228.21911080001155,f,228.21915459999582,,,228.21916620002594,None,,,2.8981927999993786,None,,,,,,,,,,00067,001,2026-01-25_15h01.19.462,MST_task,2024.2.0,59.998476034089286,2026-01-25 15h01.28.695818 +0530,
,Objects\080a.jpg,18,0,19,,,,,,,f,None,,,1.3740040000411682,0.13624149997485802,,,,19,0,18,228.23528500000248,,,,,,,,,,,,,,,,,,,,,,,,,,,,,,228.21923440002138,228.23528500000248,228.73518259997945,228.71871450002072,,,,,,,,,,,,,,,,,,,,,,,,,,228.72891960002016,228.73518259997945,228.73518259997945,228.73518259997945,231.73521840001922,231.73521840001922,231.73521840001922,231.7190196000156,f,231.71906189998845,,,231.71907280001324,None,,,1.3740040000411682,0.13624149997485802,,,,,,,,,,00067,001,2026-01-25_15h01.19.462,MST_task,2024.2.0,59.998476034089286,2026-01-25 15h01.28.695818 +0530,
,Objects\019a.jpg,19,0,20,,,,,,,None,j,3.0341244000010192,None,,,,,,20,0,19,231.73521840001922,,,,,,,,,,,,,,,,,,,,,,,,,,,,,,231.7191404000041,231.73521840001922,232.23526149999816,232.21878870000364,,,,,,,,,,,,,,,,,,,,,,,,,,232.23026260000188,232.23526149999816,232.23526149999816,232.23526149999816,235.2351574000204,235.2351574000204,235.2351574000204,235.21933530003298,None,235.2193728000275,235.2351574000204,235.2351574000204,238.28563940001186,j,3.0341244000010192,None,,,,,,,,,,,,00067,001,2026-01-25_15h01.19.462,MST_task,2024.2.0,59.998476034089286,2026-01-25 15h01.28.695818 +0530,
,Objects\170a.jpg,20,0,21,,,,,,,None,j,0.7797793000354432,None,,,,,,21,0,20,238.30191300000297,,,,,,,,,,,,,,,,,,,,,,,,,,,,,,238.28572530002566,238.30191300000297,238.80218539998168,238.7855150999967,,,,,,,,,,,,,,,,,,,,,,,,,,238.79511740000453,238.80218539998168,238.80218539998168,238.80218539998168,241.80196579999756,241.80196579999756,241.80196579999756,241.78575500001898,None,241.78579310001805,241.80196579999756,241.80196579999756,242.5857119000284,j,0.7797793000354432,None,,,,,,,,,,,,00067,001,2026-01-25_15h01.19.462,MST_task,2024.2.0,59.998476034089286,2026-01-25 15h01.28.695818 +0530,
,Scenes\027a.jpg,21,0,22,,,,,,,None,f,0.40661439998075366,None,,,,,,22,0,21,242.6018514999887,,,,,,,,,,,,,,,,,,,,,,,,,,,,,,242.58580000000075,242.6018514999887,243.10533400002168,243.08534980000695,,,,,,,,,,,,,,,,,,,,,,,,,,243.1029860000126,243.10533400002168,243.10533400002168,243.10533400002168,,,,246.10214430000633,None,246.10373510001227,246.11857799999416,246.11857799999416,246.535565600032,f,0.40661439998075366,None,,,,,,,,,,,,00067,001,2026-01-25_15h01.19.462,MST_task,2024.2.0,59.998476034089286,2026-01-25 15h01.28.695818 +0530,
,Scenes\180a.jpg,22,0,23,,,,,,,j,None,,,1.0240814000135288,0.1359011000022292,,,,23,0,22,246.55187470000237,,,,,,,,,,,,,,,,,,,,,,,,,,,,,,246.5356521999929,246.55187470000237,247.0537071999861,247.03548309998587,,,,,,,,,,,,,,,,,,,,,,,,,,247.0513542999979,247.0537071999861,247.0537071999861,247.0537071999861,,,,250.05211789999157,j,250.05217380000977,,,250.05218599998625,None,,,1.0240814000135288,0.1359011000022292,,,,,,,,,,00067,001,2026-01-25_15h01.19.462,MST_task,2024.2.0,59.998476034089286,2026-01-25 15h01.28.695818 +0530,
,Scenes\189a.jpg,23,0,24,,,,,,,j,None,,,1.7049189999816008,0.14440449996618554,,,,24,0,23,250.06844850000925,,,,,,,,,,,,,,,,,,,,,,,,,,,,,,250.05226020002738,250.06844850000925,250.57289449998643,250.552062999981,,,,,,,,,,,,,,,,,,,,,,,,,,250.57058170001255,250.57289449998643,250.57289449998643,250.57289449998643,,,,253.568806700001,j,253.56884790002368,,,253.56885929999407,None,,,1.7049189999816008,0.14440449996618554,,,,,,,,,,00067,001,2026-01-25_15h01.19.462,MST_task,2024.2.0,59.998476034089286,2026-01-25 15h01.28.695818 +0530,
,Scenes\006a.jpg,24,0,25,,,,,,,None,j,2.9117313000024296,None,,,,,,25,0,24,253.58521960000508,,,,,,,,,,,,,,,,,,,,,,,,,,,,,,253.56892659998266,253.58521960000508,254.08579199999804,254.068815000006,,,,,,,,,,,,,,,,,,,,,,,,,,254.08336280001095,254.08579199999804,254.08579199999804,254.08579199999804,257.08523929998046,257.08523929998046,257.08523929998046,257.06913830002304,None,257.0691770000267,257.08523929998046,257.08523929998046,260.0023440000368,j,2.9117313000024296,None,,,,,,,,,,,,00067,001,2026-01-25_15h01.19.462,MST_task,2024.2.0,59.998476034089286,2026-01-25 15h01.28.695818 +0530,
,Scenes\184a.jpg,25,0,26,,,,,,,j,None,,,1.5342415999621153,0.09574840002460405,,,,26,0,25,260.0185880000354,,,,,,,,,,,,,,,,,,,,,,,,,,,,,,260.00243350001983,260.0185880000354,260.51905040000565,260.50218740000855,,,,,,,,,,,,,,,,,,,,,,,,,,260.516445700021,260.51905040000565,260.51905040000565,260.51905040000565,263.51852049998706,263.51852049998706,263.51852049998706,263.5025940000196,j,263.5026505999849,,,263.50266320002265,None,,,1.5342415999621153,0.09574840002460405,,,,,,,,,,00067,001,2026-01-25_15h01.19.462,MST_task,2024.2.0,59.998476034089286,2026-01-25 15h01.28.695818 +0530,
,Scenes\170a.jpg,26,0,27,,,,,,,j,None,,,0.8611832000315189,0.10408570000436157,,,,27,0,26,263.51852049998706,,,,,,,,,,,,,,,,,,,,,,,,,,,,,,263.502736800001,263.51852049998706,264.0244689999963,264.00207640003646,,,,,,,,,,,,,,,,,,,,,,,,,,264.021908499999,264.0244689999963,264.0244689999963,264.0244689999963,,,,267.01864389999537,j,267.0186865000287,,,267.0186976999976,None,,,0.8611832000315189,0.10408570000436157,,,,,,,,,,00067,001,2026-01-25_15h01.19.462,MST_task,2024.2.0,59.998476034089286,2026-01-25 15h01.28.695818 +0530,
,Scenes\017a.jpg,27,0,28,,,,,,,f,None,,,1.6100929999956861,0.2079760999768041,,,,28,0,27,267.03507380001247,,,,,,,,,,,,,,,,,,,,,,,,,,,,,,267.018770100025,267.03507380001247,267.5396359000006,267.51894330000505,,,,,,,,,,,,,,,,,,,,,,,,,,267.53713180002524,267.5396359000006,267.5396359000006,267.5396359000006,,,,270.5187686000136,f,270.51881129998947,,,270.51882270001806,None,,,1.6100929999956861,0.2079760999768041,,,,,,,,,,00067,001,2026-01-25_15h01.19.462,MST_task,2024.2.0,59.998476034089286,2026-01-25 15h01.28.695818 +0530,
,Objects\056a.jpg,28,0,29,,,,,,,f,None,,,2.0257787999580614,0.2320245000300929,,,,29,0,28,270.5350796999992,,,,,,,,,,,,,,,,,,,,,,,,,,,,,,270.5189250999829,270.5350796999992,271.0358683000086,271.01874149998184,,,,,,,,,,,,,,,,,,,,,,,,,,271.031158400001,271.0358683000086,271.0358683000086,271.0358683000086,274.03507099999115,274.03507099999115,274.03507099999115,274.01908559998265,f,274.02111010003136,,,274.0211270999862,None,,,2.0257787999580614,0.2320245000300929,,,,,,,,,,00067,001,2026-01-25_15h01.19.462,MST_task,2024.2.0,59.998476034089286,2026-01-25 15h01.28.695818 +0530,
,Objects\009a.jpg,29,0,30,,,,,,,f,None,,,2.2704260000027716,0.19242490001488477,,,,30,0,29,274.03507099999115,,,,,,,,,,,,,,,,,,,,,,,,,,,,,,274.0211973999976,274.03507099999115,274.53518900001654,274.518705399998,,,,,,,,,,,,,,,,,,,,,,,,,,274.5283003000077,274.53518900001654,274.53518900001654,274.53518900001654,277.53500010003336,277.53500010003336,277.53500010003336,277.51934539998183,f,277.5193887000205,,,277.5193999999901,None,,,2.2704260000027716,0.19242490001488477,,,,,,,,,,00067,001,2026-01-25_15h01.19.462,MST_task,2024.2.0,59.998476034089286,2026-01-25 15h01.28.695818 +0530,
,Objects\138a.jpg,30,0,31,,,,,,,j,None,,,1.193980099982582,0.1527574000065215,,,,31,0,30,277.53500010003336,,,,,,,,,,,,,,,,,,,,,,,,,,,,,,277.5194695999962,277.53500010003336,278.0353110000142,278.01869280001847,,,,,,,,,,,,,,,,,,,,,,,,,,278.0284304000088,278.0353110000142,278.0353110000142,278.0353110000142,281.03496650001034,281.03496650001034,281.03496650001034,281.0190348000033,j,281.019076400029,,,281.0190872999956,None,,,1.193980099982582,0.1527574000065215,,,,,,,,,,00067,001,2026-01-25_15h01.19.462,MST_task,2024.2.0,59.998476034089286,2026-01-25 15h01.28.695818 +0530,
,Objects\188a.jpg,31,0,32,,,,,,,f,None,,,2.373712800035719,0.21680329996161163,,,,32,0,31,281.03496650001034,,,,,,,,,,,,,,,,,,,,,,,,,,,,,,281.019186599995,281.03496650001034,281.5351919999812,281.5186807999853,,,,,,,,,,,,,,,,,,,,,,,,,,281.5280519000371,281.5351919999812,281.5351919999812,281.5351919999812,284.5350416000001,284.5350416000001,284.5350416000001,284.5190583000076,f,284.5190995000303,,,284.51910989999305,None,,,2.373712800035719,0.21680329996161163,,,,,,,,,,00067,001,2026-01-25_15h01.19.462,MST_task,2024.2.0,59.998476034089286,2026-01-25 15h01.28.695818 +0530,
,Objects\130a.jpg,32,0,33,,,,,,,j,None,,,1.7942327000200748,0.15199879999272525,,,,33,0,32,284.5350416000001,,,,,,,,,,,,,,,,,,,,,,,,,,,,,,284.51920670003165,284.5350416000001,285.03535920003196,285.0187018000288,,,,,,,,,,,,,,,,,,,,,,,,,,285.02851259999443,285.03535920003196,285.03535920003196,285.03535920003196,288.0350333999959,288.0350333999959,288.0350333999959,288.0190554999863,j,288.0190964000067,,,288.0191069000284,None,,,1.7942327000200748,0.15199879999272525,,,,,,,,,,00067,001,2026-01-25_15h01.19.462,MST_task,2024.2.0,59.998476034089286,2026-01-25 15h01.28.695818 +0530,
,Objects\105a.jpg,33,0,34,,,,,,,f,None,,,1.101393699995242,0.2079793000011705,,,,34,0,33,288.0350333999959,,,,,,,,,,,,,,,,,,,,,,,,,,,,,,288.01917310000863,288.0350333999959,288.5355204999796,288.5186417000368,,,,,,,,,,,,,,,,,,,,,,,,,,288.52803180000046,288.5355204999796,288.5355204999796,288.5355204999796,291.53505990002304,291.53505990002304,291.53505990002304,291.51896549999947,f,291.51900820003357,,,291.51901859999634,None,,,1.101393699995242,0.2079793000011705,,,,,,,,,,00067,001,2026-01-25_15h01.19.462,MST_task,2024.2.0,59.998476034089286,2026-01-25 15h01.28.695818 +0530,
,Objects\034a.jpg,34,0,35,,,,,,,f,None,,,1.0976919999811798,0.16881970001850277,,,,35,0,34,291.53505990002304,,,,,,,,,,,,,,,,,,,,,,,,,,,,,,291.51908410002943,291.53505990002304,292.0352028000052,292.0186885999865,,,,,,,,,,,,,,,,,,,,,,,,,,292.0288342999993,292.0352028000052,292.0352028000052,292.0352028000052,295.0349645999959,295.0349645999959,295.0349645999959,295.0192153999815,f,295.0192604000331,,,295.01927140000043,None,,,1.0976919999811798,0.16881970001850277,,,,,,,,,,00067,001,2026-01-25_15h01.19.462,MST_task,2024.2.0,59.998476034089286,2026-01-25 15h01.28.695818 +0530,
,Scenes\143a.jpg,35,0,36,,,,,,,j,None,,,1.2867414999636821,0.12799599999561906,,,,36,0,35,295.0349645999959,,,,,,,,,,,,,,,,,,,,,,,,,,,,,,295.01937430002727,295.0349645999959,295.5422932000365,295.5186907000025,,,,,,,,,,,,,,,,,,,,,,,,,,295.53999230003683,295.5422932000365,295.5422932000365,295.5422932000365,,,,298.53527900000336,j,298.5369362999918,,,298.53695219999645,None,,,1.2867414999636821,0.12799599999561906,,,,,,,,,,00067,001,2026-01-25_15h01.19.462,MST_task,2024.2.0,59.998476034089286,2026-01-25 15h01.28.695818 +0530,
,Scenes\008a.jpg,36,0,37,,,,,,,None,f,1.5532158999703825,None,,,,,,37,0,36,298.5517801999813,,,,,,,,,,,,,,,,,,,,,,,,,,,,,,298.5370613000123,298.5517801999813,299.0523833000334,299.03522050002357,,,,,,,,,,,,,,,,,,,,,,,,,,299.05004709999776,299.0523833000334,299.0523833000334,299.0523833000334,302.0518024000339,302.0518024000339,302.0518024000339,302.0356669999892,None,302.0357044999837,302.0518024000339,302.0518024000339,303.61884629999986,f,1.5532158999703825,None,,,,,,,,,,,,00067,001,2026-01-25_15h01.19.462,MST_task,2024.2.0,59.998476034089286,2026-01-25 15h01.28.695818 +0530,
,Scenes\039a.jpg,37,0,38,,,,,,,j,None,,,2.629412299953401,0.14420979999704286,,,,38,0,37,303.6349400000181,,,,,,,,,,,,,,,,,,,,,,,,,,,,,,303.6189341000281,303.6349400000181,304.1354510000092,304.1186509000254,,,,,,,,,,,,,,,,,,,,,,,,,,304.1319547999883,304.1354510000092,304.1354510000092,304.1354510000092,307.134941300028,307.134941300028,307.134941300028,307.1189894999843,j,307.1190320000169,,,307.11905199999455,None,,,2.629412299953401,0.14420979999704286,,,,,,,,,,00067,001,2026-01-25_15h01.19.462,MST_task,2024.2.0,59.998476034089286,2026-01-25 15h01.28.695818 +0530,
,Scenes\183a.jpg,38,0,39,,,,,,,f,None,,,1.582873799954541,0.19089600001461804,,,,39,0,38,307.134941300028,,,,,,,,,,,,,,,,,,,,,,,,,,,,,,307.1191511999932,307.134941300028,307.63932419999037,307.6186972000287,,,,,,,,,,,,,,,,,,,,,,,,,,307.63669090002077,307.63932419999037,307.63932419999037,307.63932419999037,,,,310.63524179998785,f,310.6352821000037,,,310.6352935000323,None,,,1.582873799954541,0.19089600001461804,,,,,,,,,,00067,001,2026-01-25_15h01.19.462,MST_task,2024.2.0,59.998476034089286,2026-01-25 15h01.28.695818 +0530,
,Scenes\075a.jpg,39,0,40,,,,,,,j,None,,,0.949296900012996,0.12802449997980148,,,,40,0,39,310.65183570003137,,,,,,,,,,,,,,,,,,,,,,,,,,,,,,310.63539369998034,310.65183570003137,311.15232970000943,311.1352135000052,,,,,,,,,,,,,,,,,,,,,,,,,,311.14889840001706,311.15232970000943,311.15232970000943,311.15232970000943,314.15177340002265,314.15177340002265,314.15177340002265,314.1356029000017,j,314.13564340001903,,,314.1356543999864,None,,,0.949296900012996,0.12802449997980148,,,,,,,,,,00067,001,2026-01-25_15h01.19.462,MST_task,2024.2.0,59.998476034089286,2026-01-25 15h01.28.695818 +0530,
,Scenes\187a.jpg,40,0,41,,,,,,,j,None,,,1.519117499992717,0.1605760999955237,,,,41,0,40,314.15177340002265,,,,,,,,,,,,,,,,,,,,,,,,,,,,,,314.1357514000265,314.15177340002265,314.6537704000366,314.6352791999816,,,,,,,,,,,,,,,,,,,,,,,,,,314.6514462000341,314.6537704000366,314.6537704000366,314.6537704000366,,,,317.6519631000119,j,317.65200320002623,,,317.6520146999974,None,,,1.519117499992717,0.1605760999955237,,,,,,,,,,00067,001,2026-01-25_15h01.19.462,MST_task,2024.2.0,59.998476034089286,2026-01-25 15h01.28.695818 +0530,
,Scenes\174a.jpg,41,0,42,,,,,,,j,None,,,2.3996756999986246,0.10401710000587627,,,,42,0,41,317.6684357000049,,,,,,,,,,,,,,,,,,,,,,,,,,,,,,317.6520847000065,317.6684357000049,318.17339700000593,318.1520490000257,,,,,,,,,,,,,,,,,,,,,,,,,,318.1710515000159,318.17339700000593,318.17339700000593,318.17339700000593,,,,321.15207660000306,j,321.15212400001474,,,321.15213559998665,None,,,2.3996756999986246,0.10401710000587627,,,,,,,,,,00067,001,2026-01-25_15h01.19.462,MST_task,2024.2.0,59.998476034089286,2026-01-25 15h01.28.695818 +0530,
,Objects\126a.jpg,42,0,43,,,,,,,None,j,2.9932587999501266,None,,,,,,43,0,42,321.16837899998063,,,,,,,,,,,,,,,,,,,,,,,,,,,,,,321.15224239998497,321.16837899998063,321.66898620000575,321.6521567000309,,,,,,,,,,,,,,,,,,,,,,,,,,321.66471330000786,321.66898620000575,321.66898620000575,321.66898620000575,324.66847129998496,324.66847129998496,324.66847129998496,324.65244630002417,None,324.6544808000326,324.66847129998496,324.66847129998496,327.6688625999959,j,2.9932587999501266,None,,,,,,,,,,,,00067,001,2026-01-25_15h01.19.462,MST_task,2024.2.0,59.998476034089286,2026-01-25 15h01.28.695818 +0530,
,Objects\111a.jpg,43,0,44,,,,,,,j,None,,,2.379977800010238,0.11252179997973144,,,,44,0,43,327.6849643000169,,,,,,,,,,,,,,,,,,,,,,,,,,,,,,327.6689486000105,327.6849643000169,328.1852954000351,328.1686700999853,,,,,,,,,,,,,,,,,,,,,,,,,,328.1790321000153,328.1852954000351,328.1852954000351,328.1852954000351,331.1849321000045,331.1849321000045,331.1849321000045,331.1690730000264,j,331.1691148999962,,,331.169125800021,None,,,2.379977800010238,0.11252179997973144,,,,,,,,,,00067,001,2026-01-25_15h01.19.462,MST_task,2024.2.0,59.998476034089286,2026-01-25 15h01.28.695818 +0530,
,Objects\008a.jpg,44,0,45,,,,,,,f,None,,,1.591983899998013,0.19192169996676967,,,,45,0,44,331.1849321000045,,,,,,,,,,,,,,,,,,,,,,,,,,,,,,331.16922159999376,331.1849321000045,331.68548360001296,331.6689951000153,,,,,,,,,,,,,,,,,,,,,,,,,,331.6788878000225,331.68548360001296,331.68548360001296,331.68548360001296,334.6850354000344,334.6850354000344,334.6850354000344,334.6689906999818,f,334.66903280001134,,,334.6690428000293,None,,,1.591983899998013,0.19192169996676967,,,,,,,,,,00067,001,2026-01-25_15h01.19.462,MST_task,2024.2.0,59.998476034089286,2026-01-25 15h01.28.695818 +0530,
,Objects\158a.jpg,45,0,46,,,,,,,None,f,0.5967375000473112,None,,,,,,46,0,45,334.6850354000344,,,,,,,,,,,,,,,,,,,,,,,,,,,,,,334.6691387000028,334.6850354000344,335.18531229998916,335.16875230002915,,,,,,,,,,,,,,,,,,,,,,,,,,335.17907160002505,335.18531229998916,335.18531229998916,335.18531229998916,338.1849682999891,338.1849682999891,338.1849682999891,338.16898650000803,None,338.16902349999873,338.1849682999891,338.1849682999891,338.78543809999246,f,0.5967375000473112,None,,,,,,,,,,,,00067,001,2026-01-25_15h01.19.462,MST_task,2024.2.0,59.998476034089286,2026-01-25 15h01.28.695818 +0530,
,Objects\137a.jpg,46,0,47,,,,,,,j,None,,,2.6394321999978274,0.12926530005643144,,,,47,0,46,338.80174820002867,,,,,,,,,,,,,,,,,,,,,,,,,,,,,,338.78555640002014,338.80174820002867,339.3019410999841,339.2852450000355,,,,,,,,,,,,,,,,,,,,,,,,,,339.2955430999864,339.3019410999841,339.3019410999841,339.3019410999841,342.3016976999934,342.3016976999934,342.3016976999934,342.2855135999853,j,342.2855555000133,,,342.2855670999852,None,,,2.6394321999978274,0.12926530005643144,,,,,,,,,,00067,001,2026-01-25_15h01.19.462,MST_task,2024.2.0,59.998476034089286,2026-01-25 15h01.28.695818 +0530,
,Objects\098a.jpg,47,0,48,,,,,,,f,None,,,1.7879706000094302,0.16688509995583445,,,,48,0,47,342.3016976999934,,,,,,,,,,,,,,,,,,,,,,,,,,,,,,342.2856336000259,342.3016976999934,342.8021324999863,342.7854851000011,,,,,,,,,,,,,,,,,,,,,,,,,,342.79602519999025,342.8021324999863,342.8021324999863,342.8021324999863,345.80173200002173,345.80173200002173,345.80173200002173,345.7855506000342,f,345.7856020000181,,,345.7856130999862,None,,,1.7879706000094302,0.16688509995583445,,,,,,,,,,00067,001,2026-01-25_15h01.19.462,MST_task,2024.2.0,59.998476034089286,2026-01-25 15h01.28.695818 +0530,
,Objects\076a.jpg,48,0,49,,,,,,,f,None,,,1.391653100028634,0.1519990999950096,,,,49,0,48,345.80173200002173,,,,,,,,,,,,,,,,,,,,,,,,,,,,,,345.7857121999841,345.80173200002173,346.30196090001846,346.28526430000784,,,,,,,,,,,,,,,,,,,,,,,,,,346.29535740002757,346.30196090001846,346.30196090001846,346.30196090001846,349.30177800002275,349.30177800002275,349.30177800002275,349.28556410002057,f,349.2856051999843,,,349.2856162000098,None,,,1.391653100028634,0.1519990999950096,,,,,,,,,,00067,001,2026-01-25_15h01.19.462,MST_task,2024.2.0,59.998476034089286,2026-01-25 15h01.28.695818 +0530,
,Scenes\063a.jpg,49,0,50,,,,,,,j,None,,,1.3486585000064224,0.12760290002916008,,,,50,0,49,349.30177800002275,,,,,,,,,,,,,,,,,,,,,,,,,,,,,,349.2857113000355,349.30177800002275,349.80852580000646,349.78522489999887,,,,,,,,,,,,,,,,,,,,,,,,,,349.8060928999912,349.80852580000646,349.80852580000646,349.80852580000646,,,,352.802136000013,j,352.8037589000305,,,352.8037774999975,None,,,1.3486585000064224,0.12760290002916008,,,,,,,,,,00067,001,2026-01-25_15h01.19.462,MST_task,2024.2.0,59.998476034089286,2026-01-25 15h01.28.695818 +0530,
,Scenes\181a.jpg,50,0,51,,,,,,,f,None,,,2.88183080003364,None,,,,51,0,50,352.8186080000014,,,,,,,,,,,,,,,,,,,,,,,,,,,,,,352.80388170003425,352.8186080000014,353.3239145000116,353.30213810002897,,,,,,,,,,,,,,,,,,,,,,,,,,353.3214771000203,353.3239145000116,353.3239145000116,353.3239145000116,,,,356.31875020003645,f,356.31879109999863,,,356.3188028000295,None,,,2.88183080003364,None,,,,,,,,,,00067,001,2026-01-25_15h01.19.462,MST_task,2024.2.0,59.998476034089286,2026-01-25 15h01.28.695818 +0530,
,Scenes\010a.jpg,51,0,52,,,,,,,j,None,,,1.6048794999951497,0.15253879997180775,,,,52,0,51,356.3351935999817,,,,,,,,,,,,,,,,,,,,,,,,,,,,,,356.31887070002267,356.3351935999817,356.8399607000174,356.81870030000573,,,,,,,,,,,,,,,,,,,,,,,,,,356.83743770001456,356.8399607000174,356.8399607000174,356.8399607000174,,,,359.83536919998005,j,359.8354161999887,,,359.83542920002947,None,,,1.6048794999951497,0.15253879997180775,,,,,,,,,,00067,001,2026-01-25_15h01.19.462,MST_task,2024.2.0,59.998476034089286,2026-01-25 15h01.28.695818 +0530,
,Scenes\109a.jpg,52,0,53,,,,,,,None,j,0.604481200047303,None,,,,,,53,0,52,359.8519057999947,,,,,,,,,,,,,,,,,,,,,,,,,,,,,,359.8355341000133,359.8519057999947,360.35333030001493,360.33542349998606,,,,,,,,,,,,,,,,,,,,,,,,,,360.35094919998664,360.35333030001493,360.35333030001493,360.35333030001493,,,,363.3520579999895,None,363.35209460003534,363.3684401999926,363.3684401999926,363.9854911000002,j,0.604481200047303,None,,,,,,,,,,,,00067,001,2026-01-25_15h01.19.462,MST_task,2024.2.0,59.998476034089286,2026-01-25 15h01.28.695818 +0530,
,Scenes\102a.jpg,53,0,54,,,,,,,f,None,,,1.8504436999792233,0.19905230001313612,,,,54,0,53,364.0018589000101,,,,,,,,,,,,,,,,,,,,,,,,,,,,,,363.98557690001326,364.0018589000101,364.5075240000151,364.48546050000004,,,,,,,,,,,,,,,,,,,,,,,,,,364.5048948000185,364.5075240000151,364.5075240000151,364.5075240000151,,,,367.50213979999535,f,367.50218200002564,,,367.5021940000006,None,,,1.8504436999792233,0.19905230001313612,,,,,,,,,,00067,001,2026-01-25_15h01.19.462,MST_task,2024.2.0,59.998476034089286,2026-01-25 15h01.28.695818 +0530,
,Scenes\092a.jpg,54,0,55,,,,,,,None,j,0.23406189994420856,None,,,,,,55,0,54,367.5184999000048,,,,,,,,,,,,,,,,,,,,,,,,,,,,,,367.502303700021,367.5184999000048,368.021290100005,368.0021018999978,,,,,,,,,,,,,,,,,,,,,,,,,,368.01881500001764,368.021290100005,368.021290100005,368.021290100005,,,,371.01871040003607,None,371.01874770002905,371.03517839999404,371.03517839999404,371.28559829998994,j,0.23406189994420856,None,,,,,,,,,,,,00067,001,2026-01-25_15h01.19.462,MST_task,2024.2.0,59.998476034089286,2026-01-25 15h01.28.695818 +0530,
,Scenes\094a.jpg,55,0,56,,,,,,,None,f,3.1464734000037424,None,,,,,,56,0,55,371.3017763000098,,,,,,,,,,,,,,,,,,,,,,,,,,,,,,371.2856853000121,371.3017763000098,371.80648289999226,371.7854269000236,,,,,,,,,,,,,,,,,,,,,,,,,,371.80402270000195,371.80648289999226,371.80648289999226,371.80648289999226,,,,374.802121500019,None,374.8021600000211,374.81852670002263,374.81852670002263,377.9690547999926,f,3.1464734000037424,None,,,,,,,,,,,,00067,001,2026-01-25_15h01.19.462,MST_task,2024.2.0,59.998476034089286,2026-01-25 15h01.28.695818 +0530,
,Objects\052a.jpg,56,0,57,,,,,,,f,None,,,1.8718091000337154,0.1921656999620609,,,,57,0,56,377.9850690999883,,,,,,,,,,,,,,,,,,,,,,,,,,,,,,377.9691443000338,377.9850690999883,378.48564630001783,378.4687946999911,,,,,,,,,,,,,,,,,,,,,,,,,,378.4819336000364,378.48564630001783,378.48564630001783,378.48564630001783,381.4855028000311,381.4855028000311,381.4855028000311,381.46913769998355,f,381.47137129999464,,,381.4713874000008,None,,,1.8718091000337154,0.1921656999620609,,,,,,,,,,00067,001,2026-01-25_15h01.19.462,MST_task,2024.2.0,59.998476034089286,2026-01-25 15h01.28.695818 +0530,
,Objects\042a.jpg,57,0,58,,,,,,,None,j,0.4686718999873847,None,,,,,,58,0,57,381.4855028000311,,,,,,,,,,,,,,,,,,,,,,,,,,,,,,381.47145770001225,381.4855028000311,381.98527860001195,381.96875890000956,,,,,,,,,,,,,,,,,,,,,,,,,,381.9791895999806,381.98527860001195,381.98527860001195,381.98527860001195,384.9852348000277,384.9852348000277,384.9852348000277,384.9689738000161,None,384.9690126000205,384.9852348000277,384.9852348000277,385.46889060002286,j,0.4686718999873847,None,,,,,,,,,,,,00067,001,2026-01-25_15h01.19.462,MST_task,2024.2.0,59.998476034089286,2026-01-25 15h01.28.695818 +0530,
,Objects\171a.jpg,58,0,59,,,,,,,j,None,,,1.155546099995263,0.1040326000074856,,,,59,0,58,385.48508950002724,,,,,,,,,,,,,,,,,,,,,,,,,,,,,,385.46897759998683,385.48508950002724,385.98531070002355,385.968795599998,,,,,,,,,,,,,,,,,,,,,,,,,,385.9786402999889,385.98531070002355,385.98531070002355,385.98531070002355,388.9850723000127,388.9850723000127,388.9850723000127,388.96933870000066,j,388.96938510000473,,,388.9693966000341,None,,,1.155546099995263,0.1040326000074856,,,,,,,,,,00067,001,2026-01-25_15h01.19.462,MST_task,2024.2.0,59.998476034089286,2026-01-25 15h01.28.695818 +0530,
,Objects\048a.jpg,59,0,60,,,,,,,j,None,,,2.327465399983339,0.12909750000108033,,,,60,0,59,388.9850723000127,,,,,,,,,,,,,,,,,,,,,,,,,,,,,,388.9694968999829,388.9850723000127,389.4856126999948,389.4687357000075,,,,,,,,,,,,,,,,,,,,,,,,,,389.4783014000277,389.4856126999948,389.4856126999948,389.4856126999948,392.4852153999964,392.4852153999964,392.4852153999964,392.46909319999395,j,392.4691352000227,,,392.4691462999908,None,,,2.327465399983339,0.12909750000108033,,,,,,,,,,00067,001,2026-01-25_15h01.19.462,MST_task,2024.2.0,59.998476034089286,2026-01-25 15h01.28.695818 +0530,
,Objects\132a.jpg,60,0,61,,,,,,,f,None,,,1.236119500012137,0.1359709000098519,,,,61,0,60,392.4852153999964,,,,,,,,,,,,,,,,,,,,,,,,,,,,,,392.4692132000346,392.4852153999964,392.9854132999899,392.9687831000192,,,,,,,,,,,,,,,,,,,,,,,,,,392.9781740999897,392.9854132999899,392.9854132999899,392.9854132999899,395.9851651000208,395.9851651000208,395.9851651000208,395.96922650001943,f,395.96928000001935,,,395.96929089998594,None,,,1.236119500012137,0.1359709000098519,,,,,,,,,,00067,001,2026-01-25_15h01.19.462,MST_task,2024.2.0,59.998476034089286,2026-01-25 15h01.28.695818 +0530,
,Objects\070a.jpg,61,0,62,,,,,,,None,j,0.928478299989365,None,,,,,,62,0,61,395.9851651000208,,,,,,,,,,,,,,,,,,,,,,,,,,,,,,395.9693880000268,395.9851651000208,396.48544060002314,396.46873339999,,,,,,,,,,,,,,,,,,,,,,,,,,396.4785977000138,396.48544060002314,396.48544060002314,396.48544060002314,399.48513350001303,399.48513350001303,399.48513350001303,399.4691110000131,None,399.46914810000453,399.48513350001303,399.48513350001303,400.41900039999746,j,0.928478299989365,None,,,,,,,,,,,,00067,001,2026-01-25_15h01.19.462,MST_task,2024.2.0,59.998476034089286,2026-01-25 15h01.28.695818 +0530,
,Objects\046a.jpg,62,0,63,,,,,,,f,None,,,1.9974012000020593,0.2080017999978736,,,,63,0,62,400.43517320003593,,,,,,,,,,,,,,,,,,,,,,,,,,,,,,400.4190890000318,400.43517320003593,400.93544949998613,400.91880410001613,,,,,,,,,,,,,,,,,,,,,,,,,,400.9285611999803,400.93544949998613,400.93544949998613,400.93544949998613,403.93515010003466,403.93515010003466,403.93515010003466,403.9190312999999,f,403.919074000034,,,403.9190852000029,None,,,1.9974012000020593,0.2080017999978736,,,,,,,,,,00067,001,2026-01-25_15h01.19.462,MST_task,2024.2.0,59.998476034089286,2026-01-25 15h01.28.695818 +0530,
,Scenes\084a.jpg,63,0,64,,,,,,,j,None,,,1.0108350000227802,0.13605639996239915,,,,64,0,63,403.93515010003466,,,,,,,,,,,,,,,,,,,,,,,,,,,,,,403.919163500017,403.93515010003466,404.44245400000364,404.41867650003405,,,,,,,,,,,,,,,,,,,,,,,,,,404.4399854000076,404.44245400000364,404.44245400000364,404.44245400000364,,,,407.4354221000103,j,407.43702150002355,,,407.4370391999837,None,,,1.0108350000227802,0.13605639996239915,,,,,,,,,,00067,001,2026-01-25_15h01.19.462,MST_task,2024.2.0,59.998476034089286,2026-01-25 15h01.28.695818 +0530,
,Scenes\024a.jpg,64,0,65,,,,,,,j,None,,,1.6845817000139505,0.11996260000159964,,,,65,0,64,407.4518000999815,,,,,,,,,,,,,,,,,,,,,,,,,,,,,,407.43714210001053,407.4518000999815,407.95229490002384,407.9353694000165,,,,,,,,,,,,,,,,,,,,,,,,,,407.9486632000189,407.95229490002384,407.95229490002384,407.95229490002384,410.95167730003595,410.95167730003595,410.95167730003595,410.9355402000365,j,410.9355893000029,,,410.93560159998015,None,,,1.6845817000139505,0.11996260000159964,,,,,,,,,,00067,001,2026-01-25_15h01.19.462,MST_task,2024.2.0,59.998476034089286,2026-01-25 15h01.28.695818 +0530,
,Scenes\161a.jpg,65,0,66,,,,,,,j,None,,,1.3258646000176668,0.15231049997964874,,,,66,0,65,410.95167730003595,,,,,,,,,,,,,,,,,,,,,,,,,,,,,,410.9357010999811,410.95167730003595,411.4553151000291,411.4351171000162,,,,,,,,,,,,,,,,,,,,,,,,,,411.4530032000039,411.4553151000291,411.4553151000291,411.4553151000291,,,,414.45200639998075,j,414.45204699999886,,,414.45205890003126,None,,,1.3258646000176668,0.15231049997964874,,,,,,,,,,00067,001,2026-01-25_15h01.19.462,MST_task,2024.2.0,59.998476034089286,2026-01-25 15h01.28.695818 +0530,
,Scenes\146a.jpg,66,0,67,,,,,,,j,None,,,2.3748235999955796,0.14400720002595335,,,,67,0,66,414.4684079000144,,,,,,,,,,,,,,,,,,,,,,,,,,,,,,414.4521587000345,414.4684079000144,414.9746281999978,414.95196939999005,,,,,,,,,,,,,,,,,,,,,,,,,,414.9722036999883,414.9746281999978,414.9746281999978,414.9746281999978,,,,417.96864670002833,j,417.96869270002935,,,417.9687052000081,None,,,2.3748235999955796,0.14400720002595335,,,,,,,,,,00067,001,2026-01-25_15h01.19.462,MST_task,2024.2.0,59.998476034089286,2026-01-25 15h01.28.695818 +0530,
,Scenes\054a.jpg,67,0,68,,,,,,,j,None,,,2.922972199972719,None,,,,68,0,67,417.9849225000362,,,,,,,,,,,,,,,,,,,,,,,,,,,,,,417.96881769999163,417.9849225000362,418.4904571999796,418.46865589998197,,,,,,,,,,,,,,,,,,,,,,,,,,418.4881920000189,418.4904571999796,418.4904571999796,418.4904571999796,,,,421.48518309998326,j,421.485222599993,,,421.4852337000193,None,,,2.922972199972719,None,,,,,,,,,,00067,001,2026-01-25_15h01.19.462,MST_task,2024.2.0,59.998476034089286,2026-01-25 15h01.28.695818 +0530,
,Scenes\007a.jpg,68,0,69,,,,,,,f,None,,,1.4510790999629535,0.1755506000481546,,,,69,0,68,421.5017223000177,,,,,,,,,,,,,,,,,,,,,,,,,,,,,,421.48533160000807,421.5017223000177,422.0023648000206,421.9853113000281,,,,,,,,,,,,,,,,,,,,,,,,,,421.99936240003444,422.0023648000206,422.0023648000206,422.0023648000206,425.00168749998556,425.00168749998556,425.00168749998556,424.98560720001115,f,424.9856461000163,,,424.98565659997985,None,,,1.4510790999629535,0.1755506000481546,,,,,,,,,,00067,001,2026-01-25_15h01.19.462,MST_task,2024.2.0,59.998476034089286,2026-01-25 15h01.28.695818 +0530,
,Scenes\124a.jpg,69,0,70,,,,,,,f,None,,,2.838769100024365,None,,,,70,0,69,425.00168749998556,,,,,,,,,,,,,,,,,,,,,,,,,,,,,,424.9857224000152,425.00168749998556,425.502509700018,425.48514430003706,,,,,,,,,,,,,,,,,,,,,,,,,,425.4987491000211,425.502509700018,425.502509700018,425.502509700018,428.50173700001324,428.50173700001324,428.50173700001324,428.48549099999946,f,428.48553160001757,,,428.4855425999849,None,,,2.838769100024365,None,,,,,,,,,,00067,001,2026-01-25_15h01.19.462,MST_task,2024.2.0,59.998476034089286,2026-01-25 15h01.28.695818 +0530,
,Objects\051a.jpg,70,0,71,,,,,,,None,j,1.6352634000359103,None,,,,,,71,0,70,428.50173700001324,,,,,,,,,,,,,,,,,,,,,,,,,,,,,,428.4856374000083,428.50173700001324,429.00232560001314,428.9852670999826,,,,,,,,,,,,,,,,,,,,,,,,,,428.9976289999904,429.00232560001314,429.00232560001314,429.00232560001314,432.0017470000312,432.0017470000312,432.0017470000312,431.9856709000305,None,431.9877395000076,432.0017470000312,432.0017470000312,433.6525316000334,j,1.6352634000359103,None,,,,,,,,,,,,00067,001,2026-01-25_15h01.19.462,MST_task,2024.2.0,59.998476034089286,2026-01-25 15h01.28.695818 +0530,
,Objects\049a.jpg,71,0,72,,,,,,,None,f,1.484847100044135,None,,,,,,72,0,71,433.6684541000286,,,,,,,,,,,,,,,,,,,,,,,,,,,,,,433.6526284000138,433.6684541000286,434.16857889998937,434.1519978999859,,,,,,,,,,,,,,,,,,,,,,,,,,434.16185780003434,434.16857889998937,434.16857889998937,434.16857889998937,437.16840050002793,437.16840050002793,437.16840050002793,437.1521849000128,None,437.1522234000149,437.16840050002793,437.16840050002793,438.66875020001316,f,1.484847100044135,None,,,,,,,,,,,,00067,001,2026-01-25_15h01.19.462,MST_task,2024.2.0,59.998476034089286,2026-01-25 15h01.28.695818 +0530,
,Objects\020a.jpg,72,0,73,,,,,,,f,None,,,2.9397055999725126,None,,,,73,0,72,438.68500009999843,,,,,,,,,,,,,,,,,,,,,,,,,,,,,,438.6688430000213,438.68500009999843,439.18523760000244,439.16865710000275,,,,,,,,,,,,,,,,,,,,,,,,,,439.178577499988,439.18523760000244,439.18523760000244,439.18523760000244,442.18489760003285,442.18489760003285,442.18489760003285,442.16892179998104,f,442.16896420001285,,,442.168975699984,None,,,2.9397055999725126,None,,,,,,,,,,00067,001,2026-01-25_15h01.19.462,MST_task,2024.2.0,59.998476034089286,2026-01-25 15h01.28.695818 +0530,
,Objects\192a.jpg,73,0,74,,,,,,,f,None,,,1.9758921000175178,0.2075936000328511,,,,74,0,73,442.18489760003285,,,,,,,,,,,,,,,,,,,,,,,,,,,,,,442.16907539998647,442.18489760003285,442.6853172000265,442.6686386000365,,,,,,,,,,,,,,,,,,,,,,,,,,442.6782705000369,442.6853172000265,442.6853172000265,442.6853172000265,445.68493099999614,445.68493099999614,445.68493099999614,445.6689389999956,f,445.66897950001294,,,445.66898980003316,None,,,1.9758921000175178,0.2075936000328511,,,,,,,,,,00067,001,2026-01-25_15h01.19.462,MST_task,2024.2.0,59.998476034089286,2026-01-25 15h01.28.695818 +0530,
,Objects\013a.jpg,74,0,75,,,,,,,j,None,,,1.9879606000031345,0.200002699973993,,,,75,0,74,445.68493099999614,,,,,,,,,,,,,,,,,,,,,,,,,,,,,,445.66905630001565,445.68493099999614,446.18523270002333,446.1685855999822,,,,,,,,,,,,,,,,,,,,,,,,,,446.17820999998366,446.18523270002333,446.18523270002333,446.18523270002333,449.1850502000307,449.1850502000307,449.1850502000307,449.16904960002284,j,449.1690939000109,,,449.1691043000319,None,,,1.9879606000031345,0.200002699973993,,,,,,,,,,00067,001,2026-01-25_15h01.19.462,MST_task,2024.2.0,59.998476034089286,2026-01-25 15h01.28.695818 +0530,
,Objects\086a.jpg,75,0,76,,,,,,,None,j,2.223929700034205,None,,,,,,76,0,75,449.1850502000307,,,,,,,,,,,,,,,,,,,,,,,,,,,,,,449.1691713000182,449.1850502000307,449.68522200000007,449.6685527000227,,,,,,,,,,,,,,,,,,,,,,,,,,449.6778472000151,449.68522200000007,449.68522200000007,449.68522200000007,452.6849602999864,452.6849602999864,452.6849602999864,452.66884830000345,None,452.6688864000025,452.6849602999864,452.6849602999864,454.91888920002384,j,2.223929700034205,None,,,,,,,,,,,,00067,001,2026-01-25_15h01.19.462,MST_task,2024.2.0,59.998476034089286,2026-01-25 15h01.28.695818 +0530,
,Objects\103a.jpg,76,0,77,,,,,,,j,None,,,1.130173499986995,0.11990890000015497,,,,77,0,76,454.9349205000326,,,,,,,,,,,,,,,,,,,,,,,,,,,,,,454.9190074999933,454.9349205000326,455.4352605000022,455.41877789999126,,,,,,,,,,,,,,,,,,,,,,,,,,455.428381900012,455.4352605000022,455.4352605000022,455.4352605000022,458.43500699999277,458.43500699999277,458.43500699999277,458.41896159999305,j,458.41900270001497,,,458.41901359998155,None,,,1.130173499986995,0.11990890000015497,,,,,,,,,,00067,001,2026-01-25_15h01.19.462,MST_task,2024.2.0,59.998476034089286,2026-01-25 15h01.28.695818 +0530,
,Scenes\147a.jpg,77,0,78,,,,,,,j,None,,,1.462475300009828,0.12049629999091849,,,,78,0,77,458.43500699999277,,,,,,,,,,,,,,,,,,,,,,,,,,,,,,458.41911610000534,458.43500699999277,458.9357127000112,458.9185793999932,,,,,,,,,,,,,,,,,,,,,,,,,,458.9333042000071,458.9357127000112,458.9357127000112,458.9357127000112,461.93488960003015,461.93488960003015,461.93488960003015,461.91892720002215,j,461.9206090000225,,,461.920625400031,None,,,1.462475300009828,0.12049629999091849,,,,,,,,,,00067,001,2026-01-25_15h01.19.462,MST_task,2024.2.0,59.998476034089286,2026-01-25 15h01.28.695818 +0530,
,Scenes\034a.jpg,78,0,79,,,,,,,j,None,,,2.2240224999841303,0.1600552000454627,,,,79,0,78,461.93488960003015,,,,,,,,,,,,,,,,,,,,,,,,,,,,,,461.92072739999276,461.93488960003015,462.4448967000353,462.4186978000216,,,,,,,,,,,,,,,,,,,,,,,,,,462.4422189000179,462.4448967000353,462.4448967000353,462.4448967000353,,,,465.43528570001945,j,465.43532759998925,,,465.4353388000163,None,,,2.2240224999841303,0.1600552000454627,,,,,,,,,,00067,001,2026-01-25_15h01.19.462,MST_task,2024.2.0,59.998476034089286,2026-01-25 15h01.28.695818 +0530,
,Scenes\031a.jpg,79,0,80,,,,,,,f,None,,,2.5579674000036903,0.2158390999538824,,,,80,0,79,465.4516646999982,,,,,,,,,,,,,,,,,,,,,,,,,,,,,,465.43544999998994,465.4516646999982,465.959769100009,465.9352521999972,,,,,,,,,,,,,,,,,,,,,,,,,,465.95732660003705,465.959769100009,465.959769100009,465.959769100009,,,,468.95189880003454,f,468.9519394999952,,,468.95195050002076,None,,,2.5579674000036903,0.2158390999538824,,,,,,,,,,00067,001,2026-01-25_15h01.19.462,MST_task,2024.2.0,59.998476034089286,2026-01-25 15h01.28.695818 +0530,
,Scenes\093a.jpg,80,0,81,,,,,,,f,None,,,0.9175555999972858,0.1672504000016488,,,,81,0,80,468.9683239000151,,,,,,,,,,,,,,,,,,,,,,,,,,,,,,468.95204880001256,468.9683239000151,469.47250839998014,469.4519755000365,,,,,,,,,,,,,,,,,,,,,,,,,,469.4701553999912,469.47250839998014,469.47250839998014,469.47250839998014,,,,472.4521055999794,f,472.45214609999675,,,472.4521581000299,None,,,0.9175555999972858,0.1672504000016488,,,,,,,,,,00067,001,2026-01-25_15h01.19.462,MST_task,2024.2.0,59.998476034089286,2026-01-25 15h01.28.695818 +0530,
,Scenes\110a.jpg,81,0,82,,,,,,,j,None,,,0.9378884000470862,0.1278743000002578,,,,82,0,81,472.46850930002984,,,,,,,,,,,,,,,,,,,,,,,,,,,,,,472.4522584999795,472.46850930002984,472.9714985000319,472.9520295999828,,,,,,,,,,,,,,,,,,,,,,,,,,472.96897320001153,472.9714985000319,472.9714985000319,472.9714985000319,,,,475.96868470002664,j,475.9687259999919,,,475.9687383000273,None,,,0.9378884000470862,0.1278743000002578,,,,,,,,,,00067,001,2026-01-25_15h01.19.462,MST_task,2024.2.0,59.998476034089286,2026-01-25 15h01.28.695818 +0530,
,Scenes\061a.jpg,82,0,83,,,,,,,j,None,,,1.4551521000103094,0.14403939998010173,,,,83,0,82,475.98500929999864,,,,,,,,,,,,,,,,,,,,,,,,,,,,,,475.9688423000043,475.98500929999864,476.4856740999967,476.4687440000125,,,,,,,,,,,,,,,,,,,,,,,,,,476.48237260000315,476.4856740999967,476.4856740999967,476.4856740999967,479.48515750002116,479.48515750002116,479.48515750002116,479.4690411000047,j,479.4690815000213,,,479.4690925999894,None,,,1.4551521000103094,0.14403939998010173,,,,,,,,,,00067,001,2026-01-25_15h01.19.462,MST_task,2024.2.0,59.998476034089286,2026-01-25 15h01.28.695818 +0530,
,Scenes\166a.jpg,83,0,84,,,,,,,j,None,,,1.4038346000015736,0.1279958999948576,,,,84,0,83,479.48515750002116,,,,,,,,,,,,,,,,,,,,,,,,,,,,,,479.4691973000299,479.48515750002116,479.9857015000307,479.969047599996,,,,,,,,,,,,,,,,,,,,,,,,,,479.98210349999135,479.9857015000307,479.9857015000307,479.9857015000307,482.9851065999828,482.9851065999828,482.9851065999828,482.9689991000341,j,482.9690397999948,,,482.9690512000234,None,,,1.4038346000015736,0.1279958999948576,,,,,,,,,,00067,001,2026-01-25_15h01.19.462,MST_task,2024.2.0,59.998476034089286,2026-01-25 15h01.28.695818 +0530,
,Objects\036a.jpg,84,0,85,,,,,,,None,f,0.4563131000031717,None,,,,,,85,0,84,482.9851065999828,,,,,,,,,,,,,,,,,,,,,,,,,,,,,,482.9691168999998,482.9851065999828,483.48569280002266,483.4687496999977,,,,,,,,,,,,,,,,,,,,,,,,,,483.48229780001566,483.48569280002266,483.48569280002266,483.48569280002266,486.48515830002725,486.48515830002725,486.48515830002725,486.4691370000364,None,486.4712061000173,486.48515830002725,486.48515830002725,486.95228480000515,f,0.4563131000031717,None,,,,,,,,,,,,00067,001,2026-01-25_15h01.19.462,MST_task,2024.2.0,59.998476034089286,2026-01-25 15h01.28.695818 +0530,
,Objects\164a.jpg,85,0,86,,,,,,,f,None,,,1.5602062999969348,0.19999950000783429,,,,86,0,85,486.96845179999946,,,,,,,,,,,,,,,,,,,,,,,,,,,,,,486.95237920002546,486.96845179999946,487.46872609999264,487.45208479999565,,,,,,,,,,,,,,,,,,,,,,,,,,487.4621741999872,487.46872609999264,487.46872609999264,487.46872609999264,490.4684936000267,490.4684936000267,490.4684936000267,490.4524018000229,f,490.4524454000057,,,490.45245690003503,None,,,1.5602062999969348,0.19999950000783429,,,,,,,,,,00067,001,2026-01-25_15h01.19.462,MST_task,2024.2.0,59.998476034089286,2026-01-25 15h01.28.695818 +0530,
,Objects\186a.jpg,86,0,87,,,,,,,f,None,,,1.156717200006824,0.16798159998143092,,,,87,0,86,490.4684936000267,,,,,,,,,,,,,,,,,,,,,,,,,,,,,,490.4525561000337,490.4684936000267,490.9687453000224,490.9520928999991,,,,,,,,,,,,,,,,,,,,,,,,,,490.96182120003505,490.9687453000224,490.9687453000224,490.9687453000224,493.96848829998635,493.96848829998635,493.96848829998635,493.9523590999888,f,493.9524008000153,,,493.9524113999796,None,,,1.156717200006824,0.16798159998143092,,,,,,,,,,00067,001,2026-01-25_15h01.19.462,MST_task,2024.2.0,59.998476034089286,2026-01-25 15h01.28.695818 +0530,
,Objects\041a.jpg,87,0,88,,,,,,,None,j,3.600288300018292,None,,,,,,88,0,87,493.96848829998635,,,,,,,,,,,,,,,,,,,,,,,,,,,,,,493.95247810002184,493.96848829998635,494.4687818000093,494.45197230001213,,,,,,,,,,,,,,,,,,,,,,,,,,494.46194559999276,494.4687818000093,494.4687818000093,494.4687818000093,497.46848470001714,497.46848470001714,497.46848470001714,497.4522447999916,None,497.45228139997926,497.46848470001714,497.46848470001714,501.0853655000101,j,3.600288300018292,None,,,,,,,,,,,,00067,001,2026-01-25_15h01.19.462,MST_task,2024.2.0,59.998476034089286,2026-01-25 15h01.28.695818 +0530,
,Objects\156a.jpg,88,0,89,,,,,,,f,None,,,1.6353117999969982,0.19148599996697158,,,,89,0,88,501.10179450002033,,,,,,,,,,,,,,,,,,,,,,,,,,,,,,501.08548050001264,501.10179450002033,501.6020209999988,501.5852857999853,,,,,,,,,,,,,,,,,,,,,,,,,,501.5954008999979,501.6020209999988,501.6020209999988,501.6020209999988,504.6018216999946,504.6018216999946,504.6018216999946,504.585514699982,f,504.58555499999784,,,504.58556640002644,None,,,1.6353117999969982,0.19148599996697158,,,,,,,,,,00067,001,2026-01-25_15h01.19.462,MST_task,2024.2.0,59.998476034089286,2026-01-25 15h01.28.695818 +0530,
,Objects\050a.jpg,89,0,90,,,,,,,f,None,,,2.1112571000121534,0.19992300000740215,,,,90,0,89,504.6018216999946,,,,,,,,,,,,,,,,,,,,,,,,,,,,,,504.5856316999998,504.6018216999946,505.1020499999868,505.0853740000166,,,,,,,,,,,,,,,,,,,,,,,,,,505.09495709999464,505.1020499999868,505.1020499999868,505.1020499999868,508.1018054999877,508.1018054999877,508.1018054999877,508.0856808000244,f,508.0857216999866,,,508.0857324000099,None,,,2.1112571000121534,0.19992300000740215,,,,,,,,,,00067,001,2026-01-25_15h01.19.462,MST_task,2024.2.0,59.998476034089286,2026-01-25 15h01.28.695818 +0530,
,Objects\030a.jpg,90,0,91,,,,,,,f,None,,,1.3633443000144325,0.2159881999832578,,,,91,0,90,508.1018054999877,,,,,,,,,,,,,,,,,,,,,,,,,,,,,,508.08579919999465,508.1018054999877,508.60207329998957,508.5853805000079,,,,,,,,,,,,,,,,,,,,,,,,,,508.5949794999906,508.60207329998957,508.60207329998957,508.60207329998957,511.6018274999806,511.6018274999806,511.6018274999806,511.58566729997983,f,511.5857086000033,,,511.58571950002806,None,,,1.3633443000144325,0.2159881999832578,,,,,,,,,,00067,001,2026-01-25_15h01.19.462,MST_task,2024.2.0,59.998476034089286,2026-01-25 15h01.28.695818 +0530,
,Scenes\119a.jpg,91,0,92,,,,,,,j,None,,,1.7767064999789,0.14405449997866526,,,,92,0,91,511.6018274999806,,,,,,,,,,,,,,,,,,,,,,,,,,,,,,511.5858161000069,511.6018274999806,512.108507100027,512.0851962000015,,,,,,,,,,,,,,,,,,,,,,,,,,512.1059771000291,512.108507100027,512.108507100027,512.108507100027,,,,515.1021075000172,j,515.103792799986,,,515.1038110000081,None,,,1.7767064999789,0.14405449997866526,,,,,,,,,,00067,001,2026-01-25_15h01.19.462,MST_task,2024.2.0,59.998476034089286,2026-01-25 15h01.28.695818 +0530,
,Scenes\043a.jpg,92,0,93,,,,,,,j,None,,,1.0123246000148356,0.1679835999966599,,,,93,0,92,515.1184278000146,,,,,,,,,,,,,,,,,,,,,,,,,,,,,,515.1039148999844,515.1184278000146,515.6245038000052,515.6022563999868,,,,,,,,,,,,,,,,,,,,,,,,,,515.622003299999,515.6245038000052,515.6245038000052,515.6245038000052,,,,518.6186847999925,j,518.6187332000118,,,518.618745099986,None,,,1.0123246000148356,0.1679835999966599,,,,,,,,,,00067,001,2026-01-25_15h01.19.462,MST_task,2024.2.0,59.998476034089286,2026-01-25 15h01.28.695818 +0530,
,Scenes\118a.jpg,93,0,94,,,,,,,None,j,0.9979833000106737,None,,,,,,94,0,93,518.6349266000325,,,,,,,,,,,,,,,,,,,,,,,,,,,,,,518.618858300033,518.6349266000325,519.1357841999852,519.1187991999905,,,,,,,,,,,,,,,,,,,,,,,,,,519.1323297999916,519.1357841999852,519.1357841999852,519.1357841999852,522.1354478999856,522.1354478999856,522.1354478999856,522.1192156000179,None,522.1192519000033,522.1354478999856,522.1354478999856,523.1354276000056,j,0.9979833000106737,None,,,,,,,,,,,,00067,001,2026-01-25_15h01.19.462,MST_task,2024.2.0,59.998476034089286,2026-01-25 15h01.28.695818 +0530,
,Scenes\014a.jpg,94,0,95,,,,,,,f,None,,,2.71296049997909,0.19201040000189096,,,,95,0,94,523.1516983000329,,,,,,,,,,,,,,,,,,,,,,,,,,,,,,523.1355592000182,523.1516983000329,523.6523063000059,523.6353666000068,,,,,,,,,,,,,,,,,,,,,,,,,,523.6480439000297,523.6523063000059,523.6523063000059,523.6523063000059,526.6517482000054,526.6517482000054,526.6517482000054,526.635691100033,f,526.6357327000005,,,526.6357441000291,None,,,2.71296049997909,0.19201040000189096,,,,,,,,,,00067,001,2026-01-25_15h01.19.462,MST_task,2024.2.0,59.998476034089286,2026-01-25 15h01.28.695818 +0530,
,Scenes\122a.jpg,95,0,96,,,,,,,f,None,,,2.360899800027255,0.1835348000167869,,,,96,0,95,526.6517482000054,,,,,,,,,,,,,,,,,,,,,,,,,,,,,,526.6358108000131,526.6517482000054,527.1563206000137,527.1353803999955,,,,,,,,,,,,,,,,,,,,,,,,,,527.1540456000366,527.1563206000137,527.1563206000137,527.1563206000137,,,,530.1520629000152,f,530.1521041999804,,,530.1521152000059,None,,,2.360899800027255,0.1835348000167869,,,,,,,,,,00067,001,2026-01-25_15h01.19.462,MST_task,2024.2.0,59.998476034089286,2026-01-25 15h01.28.695818 +0530,
,Scenes\192a.jpg,96,0,97,,,,,,,j,None,,,1.6405020999955013,0.16009209997719154,,,,97,0,96,530.168403299991,,,,,,,,,,,,,,,,,,,,,,,,,,,,,,530.1522228000103,530.168403299991,530.6690248000086,530.6520474000135,,,,,,,,,,,,,,,,,,,,,,,,,,530.6658789000358,530.6690248000086,530.6690248000086,530.6690248000086,533.6683718999848,533.6683718999848,533.6683718999848,533.6522062000004,j,533.6522467000177,,,533.6522579999873,None,,,1.6405020999955013,0.16009209997719154,,,,,,,,,,00067,001,2026-01-25_15h01.19.462,MST_task,2024.2.0,59.998476034089286,2026-01-25 15h01.28.695818 +0530,
,Scenes\134a.jpg,97,0,98,,,,,,,j,None,,,1.0223611000110395,0.17601100000320002,,,,98,0,97,533.6683718999848,,,,,,,,,,,,,,,,,,,,,,,,,,,,,,533.6523249000311,533.6683718999848,534.1745489999885,534.1518674999825,,,,,,,,,,,,,,,,,,,,,,,,,,534.1721629999811,534.1745489999885,534.1745489999885,534.1745489999885,,,,537.1686147000291,j,537.1686632999917,,,537.1686745000188,None,,,1.0223611000110395,0.17601100000320002,,,,,,,,,,00067,001,2026-01-25_15h01.19.462,MST_task,2024.2.0,59.998476034089286,2026-01-25 15h01.28.695818 +0530,
,Objects\113a.jpg,98,0,99,,,,,,,f,None,,,1.263434899970889,0.19286640000063926,,,,99,0,98,537.1848857000005,,,,,,,,,,,,,,,,,,,,,,,,,,,,,,537.1687755000312,537.1848857000005,537.685517200036,537.668599000026,,,,,,,,,,,,,,,,,,,,,,,,,,537.681287400017,537.685517200036,537.685517200036,537.685517200036,540.6849656000268,540.6849656000268,540.6849656000268,540.6689738000277,f,540.6710207000142,,,540.6710363000166,None,,,1.263434899970889,0.19286640000063926,,,,,,,,,,00067,001,2026-01-25_15h01.19.462,MST_task,2024.2.0,59.998476034089286,2026-01-25 15h01.28.695818 +0530,
,Objects\084a.jpg,99,0,100,,,,,,,None,j,2.7239805999561213,None,,,,,,100,0,99,540.6849656000268,,,,,,,,,,,,,,,,,,,,,,,,,,,,,,540.6711054000189,540.6849656000268,541.1852623000159,541.1686111000017,,,,,,,,,,,,,,,,,,,,,,,,,,541.1781276999973,541.1852623000159,541.1852623000159,541.1852623000159,544.1848895000294,544.1848895000294,544.1848895000294,544.1689328000066,None,544.168969899998,544.1848895000294,544.1848895000294,546.9188754000352,j,2.7239805999561213,None,,,,,,,,,,,,00067,001,2026-01-25_15h01.19.462,MST_task,2024.2.0,59.998476034089286,2026-01-25 15h01.28.695818 +0530,
,Objects\026a.jpg,100,0,101,,,,,,,f,None,,,1.2180555999511853,0.16897830000380054,,,,101,0,100,546.9349011000013,,,,,,,,,,,,,,,,,,,,,,,,,,,,,,546.91899440001,546.9349011000013,547.4352097000228,547.4185914000263,,,,,,,,,,,,,,,,,,,,,,,,,,547.4288802000228,547.4352097000228,547.4352097000228,547.4352097000228,550.4348553000018,550.4348553000018,550.4348553000018,550.418882500031,f,550.4189228999894,,,550.4189344000188,None,,,1.2180555999511853,0.16897830000380054,,,,,,,,,,00067,001,2026-01-25_15h01.19.462,MST_task,2024.2.0,59.998476034089286,2026-01-25 15h01.28.695818 +0530,
,Objects\035a.jpg,101,0,102,,,,,,,None,j,2.374063999974169,None,,,,,,102,0,101,550.4348553000018,,,,,,,,,,,,,,,,,,,,,,,,,,,,,,550.4190395000041,550.4348553000018,550.9352624000167,550.9186199000105,,,,,,,,,,,,,,,,,,,,,,,,,,550.9284532000311,550.9352624000167,550.9352624000167,550.9352624000167,553.9349496000214,553.9349496000214,553.9349496000214,553.9189475000021,None,553.9189863000065,553.9349496000214,553.9349496000214,556.3186947000213,j,2.374063999974169,None,,,,,,,,,,,,00067,001,2026-01-25_15h01.19.462,MST_task,2024.2.0,59.998476034089286,2026-01-25 15h01.28.695818 +0530,
,Objects\073a.jpg,102,0,103,,,,,,,f,None,,,1.1382377000409178,0.19999619998270646,,,,103,0,102,556.3348430999904,,,,,,,,,,,,,,,,,,,,,,,,,,,,,,556.3187785000191,556.3348430999904,556.8351190999965,556.8187344000326,,,,,,,,,,,,,,,,,,,,,,,,,,556.8287058999995,556.8351190999965,556.8351190999965,556.8351190999965,559.8348853000207,559.8348853000207,559.8348853000207,559.8188100000261,f,559.8188496999792,,,559.8188608000055,None,,,1.1382377000409178,0.19999619998270646,,,,,,,,,,00067,001,2026-01-25_15h01.19.462,MST_task,2024.2.0,59.998476034089286,2026-01-25 15h01.28.695818 +0530,
,Objects\144a.jpg,103,0,104,,,,,,,None,j,2.487100600032136,None,,,,,,104,0,103,559.8348853000207,,,,,,,,,,,,,,,,,,,,,,,,,,,,,,559.8189572999836,559.8348853000207,560.3351904000156,560.3185290999827,,,,,,,,,,,,,,,,,,,,,,,,,,560.3291361000156,560.3351904000156,560.3351904000156,560.3351904000156,563.3349673000048,563.3349673000048,563.3349673000048,563.3188319000183,None,563.3188688000082,563.3349673000048,563.3349673000048,565.8353085999843,j,2.487100600032136,None,,,,,,,,,,,,00067,001,2026-01-25_15h01.19.462,MST_task,2024.2.0,59.998476034089286,2026-01-25 15h01.28.695818 +0530,
,Objects\169a.jpg,104,0,105,,,,,,,None,j,1.8700188000220805,None,,,,,,105,0,104,565.8516798000201,,,,,,,,,,,,,,,,,,,,,,,,,,,,,,565.8354284000234,565.8516798000201,566.3519177000271,566.3351768000284,,,,,,,,,,,,,,,,,,,,,,,,,,566.344821000006,566.3519177000271,566.3519177000271,566.3519177000271,569.3517042000312,569.3517042000312,569.3517042000312,569.3353669000207,None,569.3354033000069,569.3517042000312,569.3517042000312,571.2355239000171,j,1.8700188000220805,None,,,,,,,,,,,,00067,001,2026-01-25_15h01.19.462,MST_task,2024.2.0,59.998476034089286,2026-01-25 15h01.28.695818 +0530,
,Scenes\035a.jpg,105,0,106,,,,,,,j,None,,,2.872204100014642,None,,,,106,0,105,571.2517089000321,,,,,,,,,,,,,,,,,,,,,,,,,,,,,,571.2356172000291,571.2517089000321,571.7577203999972,571.7351253000088,,,,,,,,,,,,,,,,,,,,,,,,,,571.7553488999838,571.7577203999972,571.7577203999972,571.7577203999972,,,,574.7520656000124,j,574.75368850003,,,574.7537069999962,None,,,2.872204100014642,None,,,,,,,,,,00067,001,2026-01-25_15h01.19.462,MST_task,2024.2.0,59.998476034089286,2026-01-25 15h01.28.695818 +0530,
,Scenes\001a.jpg,106,0,107,,,,,,,f,None,,,1.0144537999876775,0.2320023999782279,,,,107,0,106,574.768378400011,,,,,,,,,,,,,,,,,,,,,,,,,,,,,,574.7537803000305,574.768378400011,575.2789700999856,575.2519070000271,,,,,,,,,,,,,,,,,,,,,,,,,,575.276418399997,575.2789700999856,575.2789700999856,575.2789700999856,,,,578.2686258000322,f,578.2686667999951,,,578.2686776000191,None,,,1.0144537999876775,0.2320023999782279,,,,,,,,,,00067,001,2026-01-25_15h01.19.462,MST_task,2024.2.0,59.998476034089286,2026-01-25 15h01.28.695818 +0530,
,Scenes\045a.jpg,107,0,108,,,,,,,None,f,0.9635183000355028,None,,,,,,108,0,107,578.2849531000247,,,,,,,,,,,,,,,,,,,,,,,,,,,,,,578.2687785000307,578.2849531000247,578.7911089999834,578.76850559999,,,,,,,,,,,,,,,,,,,,,,,,,,578.7883155000163,578.7911089999834,578.7911089999834,578.7911089999834,,,,581.7852175000007,None,581.78525299998,581.8016812999849,581.8016812999849,582.7687810999923,f,0.9635183000355028,None,,,,,,,,,,,,00067,001,2026-01-25_15h01.19.462,MST_task,2024.2.0,59.998476034089286,2026-01-25 15h01.28.695818 +0530,
,Scenes\100a.jpg,108,0,109,,,,,,,f,None,,,1.6669945999747142,0.19240920001175255,,,,109,0,108,582.7849394000368,,,,,,,,,,,,,,,,,,,,,,,,,,,,,,582.768867900013,582.7849394000368,,583.2691385000362,,,,,,,,,,,,,,,,,,,,,,,,,,583.2870815999922,583.2902188000153,583.2902188000153,583.2902188000153,,,,586.2852224999806,f,586.2852651000139,,,586.2852771999897,None,,,1.6669945999747142,0.19240920001175255,,,,,,,,,,00067,001,2026-01-25_15h01.19.462,MST_task,2024.2.0,59.998476034089286,2026-01-25 15h01.28.695818 +0530,
,Scenes\127a.jpg,109,0,110,,,,,,,j,None,,,1.1920829000300728,0.22423119994346052,,,,110,0,109,586.3016114000347,,,,,,,,,,,,,,,,,,,,,,,,,,,,,,586.28538820002,586.3016114000347,586.8055996000185,586.7852020999999,,,,,,,,,,,,,,,,,,,,,,,,,,586.803225199983,586.8055996000185,586.8055996000185,586.8055996000185,,,,589.8019388000248,j,589.8019806999946,,,589.8019927000278,None,,,1.1920829000300728,0.22423119994346052,,,,,,,,,,00067,001,2026-01-25_15h01.19.462,MST_task,2024.2.0,59.998476034089286,2026-01-25 15h01.28.695818 +0530,
,Scenes\004a.jpg,110,0,111,,,,,,,j,None,,,1.0736617000075057,0.16794089996255934,,,,111,0,110,589.8182768999832,,,,,,,,,,,,,,,,,,,,,,,,,,,,,,589.8021056000143,589.8182768999832,590.3231816000189,590.3020613000263,,,,,,,,,,,,,,,,,,,,,,,,,,590.3206719000009,590.3231816000189,590.3231816000189,590.3231816000189,,,,593.3186051999801,j,593.3186440999852,,,593.3186552000116,None,,,1.0736617000075057,0.16794089996255934,,,,,,,,,,00067,001,2026-01-25_15h01.19.462,MST_task,2024.2.0,59.998476034089286,2026-01-25 15h01.28.695818 +0530,
,Scenes\155a.jpg,111,0,112,,,,,,,j,None,,,0.880417899985332,0.20033030002377927,,,,112,0,111,593.3350901000085,,,,,,,,,,,,,,,,,,,,,,,,,,,,,,593.3187541000079,593.3350901000085,593.836834900023,593.818611500028,,,,,,,,,,,,,,,,,,,,,,,,,,593.8342181000044,593.836834900023,593.836834900023,593.836834900023,,,,596.8353655000101,j,596.8354083999875,,,596.8354196000146,None,,,0.880417899985332,0.20033030002377927,,,,,,,,,,00067,001,2026-01-25_15h01.19.462,MST_task,2024.2.0,59.998476034089286,2026-01-25 15h01.28.695818 +0530,
,Objects\087a.jpg,112,0,113,,,,,,,j,None,,,2.2132614000001922,0.15999590000137687,,,,113,0,112,596.8517995000002,,,,,,,,,,,,,,,,,,,,,,,,,,,,,,596.8355203000247,596.8517995000002,597.3522410999867,597.33536919998,,,,,,,,,,,,,,,,,,,,,,,,,,597.3492930000066,597.3522410999867,597.3522410999867,597.3522410999867,600.3517844000016,600.3517844000016,600.3517844000016,600.3356384999934,j,600.3376529000234,,,600.3376697000349,None,,,2.2132614000001922,0.15999590000137687,,,,,,,,,,00067,001,2026-01-25_15h01.19.462,MST_task,2024.2.0,59.998476034089286,2026-01-25 15h01.28.695818 +0530,
,Objects\004a.jpg,113,0,114,,,,,,,j,None,,,2.625816499989014,0.1270721000037156,,,,114,0,113,600.3517844000016,,,,,,,,,,,,,,,,,,,,,,,,,,,,,,600.337772800005,600.3517844000016,600.8520320000243,600.8352863999899,,,,,,,,,,,,,,,,,,,,,,,,,,600.8453549999977,600.8520320000243,600.8520320000243,600.8520320000243,603.851714599994,603.851714599994,603.851714599994,603.8355415000115,j,603.8355841999874,,,603.8355951000121,None,,,2.625816499989014,0.1270721000037156,,,,,,,,,,00067,001,2026-01-25_15h01.19.462,MST_task,2024.2.0,59.998476034089286,2026-01-25 15h01.28.695818 +0530,
,Objects\133a.jpg,114,0,115,,,,,,,j,None,,,1.964959499950055,0.16803120000986382,,,,115,0,114,603.851714599994,,,,,,,,,,,,,,,,,,,,,,,,,,,,,,603.835665200022,603.851714599994,604.3520285999984,604.3352956000017,,,,,,,,,,,,,,,,,,,,,,,,,,604.345101599989,604.3520285999984,604.3520285999984,604.3520285999984,607.3516977999825,607.3516977999825,607.3516977999825,607.3356057000346,j,607.3356476000044,,,607.33565860003,None,,,1.964959499950055,0.16803120000986382,,,,,,,,,,00067,001,2026-01-25_15h01.19.462,MST_task,2024.2.0,59.998476034089286,2026-01-25 15h01.28.695818 +0530,
,Objects\063a.jpg,115,0,116,,,,,,,f,None,,,1.457739399978891,0.2308931999723427,,,,116,0,115,607.3516977999825,,,,,,,,,,,,,,,,,,,,,,,,,,,,,,607.3357251000125,607.3516977999825,607.8521657999954,607.8353267000057,,,,,,,,,,,,,,,,,,,,,,,,,,607.8451975000207,607.8521657999954,607.8521657999954,607.8521657999954,,,,610.835819400032,f,610.8358611000003,,,610.8358726000297,None,,,1.457739399978891,0.2308931999723427,,,,,,,,,,00067,001,2026-01-25_15h01.19.462,MST_task,2024.2.0,59.998476034089286,2026-01-25 15h01.28.695818 +0530,
,Objects\016a.jpg,116,0,117,,,,,,,f,None,,,1.2531982999644242,0.17625389999011531,,,,117,0,116,610.851768499997,,,,,,,,,,,,,,,,,,,,,,,,,,,,,,610.8359804000356,610.851768499997,611.3520136000006,611.3353193000075,,,,,,,,,,,,,,,,,,,,,,,,,,611.3450673000189,611.3520136000006,611.3520136000006,611.3520136000006,614.3518416000297,614.3518416000297,614.3518416000297,614.3356858000043,f,614.3357283999794,,,614.3357393000042,None,,,1.2531982999644242,0.17625389999011531,,,,,,,,,,00067,001,2026-01-25_15h01.19.462,MST_task,2024.2.0,59.998476034089286,2026-01-25 15h01.28.695818 +0530,
,Objects\166a.jpg,117,0,118,,,,,,,f,None,,,1.6173128999653272,0.22406259999843314,,,,118,0,117,614.3518416000297,,,,,,,,,,,,,,,,,,,,,,,,,,,,,,614.3358367999899,614.3518416000297,614.8519548000186,614.835237500025,,,,,,,,,,,,,,,,,,,,,,,,,,614.8448269999935,614.8519548000186,614.8519548000186,614.8519548000186,617.8517636000179,617.8517636000179,617.8517636000179,617.8354860999971,f,617.8355262000114,,,617.8355372999795,None,,,1.6173128999653272,0.22406259999843314,,,,,,,,,,00067,001,2026-01-25_15h01.19.462,MST_task,2024.2.0,59.998476034089286,2026-01-25 15h01.28.695818 +0530,
,Objects\071a.jpg,118,0,119,,,,,,,j,None,,,1.9408042000140995,0.17597660003229976,,,,119,0,118,617.8517636000179,,,,,,,,,,,,,,,,,,,,,,,,,,,,,,617.8356343000196,617.8517636000179,,618.33561010001,,,,,,,,,,,,,,,,,,,,,,,,,,618.3453691999894,618.3519677000004,618.3519677000004,618.3519677000004,621.35161230003,621.35161230003,621.35161230003,621.3354870000039,j,621.3355263000121,,,621.3355365000316,None,,,1.9408042000140995,0.17597660003229976,,,,,,,,,,00067,001,2026-01-25_15h01.19.462,MST_task,2024.2.0,59.998476034089286,2026-01-25 15h01.28.695818 +0530,
,Scenes\018a.jpg,119,0,120,,,,,,,f,None,,,2.5448665999574587,0.20897510001668707,,,,120,0,119,621.35161230003,,,,,,,,,,,,,,,,,,,,,,,,,,,,,,621.3356308999937,621.35161230003,621.8524037000025,621.8351206000079,,,,,,,,,,,,,,,,,,,,,,,,,,621.8497221000143,621.8524037000025,621.8524037000025,621.8524037000025,624.8516706000082,624.8516706000082,624.8516706000082,624.8354528000345,f,624.8371118000359,,,624.8371291999938,None,,,2.5448665999574587,0.20897510001668707,,,,,,,,,,00067,001,2026-01-25_15h01.19.462,MST_task,2024.2.0,59.998476034089286,2026-01-25 15h01.28.695818 +0530,
,Scenes\080a.jpg,120,0,121,,,,,,,j,None,,,1.269955600029789,0.18267079995712265,,,,121,0,120,624.8516706000082,,,,,,,,,,,,,,,,,,,,,,,,,,,,,,624.8372003000113,624.8516706000082,625.3521915000165,625.3352979000192,,,,,,,,,,,,,,,,,,,,,,,,,,625.3497711999808,625.3521915000165,625.3521915000165,625.3521915000165,628.3516626000055,628.3516626000055,628.3516626000055,628.3355031000101,j,628.3355443000328,,,628.3355543999933,None,,,1.269955600029789,0.18267079995712265,,,,,,,,,,00067,001,2026-01-25_15h01.19.462,MST_task,2024.2.0,59.998476034089286,2026-01-25 15h01.28.695818 +0530,
,Scenes\021a.jpg,121,0,122,,,,,,,j,None,,,2.8143773999763653,0.144062599982135,,,,122,0,121,628.3516626000055,,,,,,,,,,,,,,,,,,,,,,,,,,,,,,628.3356527999858,628.3516626000055,628.8542981999926,628.8351704999804,,,,,,,,,,,,,,,,,,,,,,,,,,628.851856000023,628.8542981999926,628.8542981999926,628.8542981999926,,,,631.8518458000035,j,631.8518855000148,,,631.8518968999851,None,,,2.8143773999763653,0.144062599982135,,,,,,,,,,00067,001,2026-01-25_15h01.19.462,MST_task,2024.2.0,59.998476034089286,2026-01-25 15h01.28.695818 +0530,
,Scenes\158a.jpg,122,0,123,,,,,,,j,None,,,2.17665689997375,0.1999667000491172,,,,123,0,122,631.868318599998,,,,,,,,,,,,,,,,,,,,,,,,,,,,,,631.8519653999829,631.868318599998,632.372909000027,632.351891600003,,,,,,,,,,,,,,,,,,,,,,,,,,632.3705105999834,632.372909000027,632.372909000027,632.372909000027,,,,635.3519654999836,j,635.3520122999907,,,635.3520237000193,None,,,2.17665689997375,0.1999667000491172,,,,,,,,,,00067,001,2026-01-25_15h01.19.462,MST_task,2024.2.0,59.998476034089286,2026-01-25 15h01.28.695818 +0530,
,Scenes\117a.jpg,123,0,124,,,,,,,j,None,,,0.9286224999814294,0.1916033000452444,,,,124,0,123,635.3682952999952,,,,,,,,,,,,,,,,,,,,,,,,,,,,,,635.3521212000051,635.3682952999952,635.8689475000137,635.8519228000077,,,,,,,,,,,,,,,,,,,,,,,,,,635.8650935000041,635.8689475000137,635.8689475000137,635.8689475000137,638.8683250999893,638.8683250999893,638.8683250999893,638.8521607000148,j,638.8522008000291,,,638.8522111999919,None,,,0.9286224999814294,0.1916033000452444,,,,,,,,,,00067,001,2026-01-25_15h01.19.462,MST_task,2024.2.0,59.998476034089286,2026-01-25 15h01.28.695818 +0530,
,Scenes\149a.jpg,124,0,125,,,,,,,j,None,,,1.7380046999896877,0.1442669000243768,,,,125,0,124,638.8683250999893,,,,,,,,,,,,,,,,,,,,,,,,,,,,,,638.8523078000289,638.8683250999893,639.3716295000049,639.3519173000241,,,,,,,,,,,,,,,,,,,,,,,,,,639.3691447000019,639.3716295000049,639.3716295000049,639.3716295000049,,,,642.3685833000345,j,642.3686235999921,,,642.36863490002,None,,,1.7380046999896877,0.1442669000243768,,,,,,,,,,00067,001,2026-01-25_15h01.19.462,MST_task,2024.2.0,59.998476034089286,2026-01-25 15h01.28.695818 +0530,
,Scenes\160a.jpg,125,0,126,,,,,,,j,None,,,1.2475584999774583,0.1345996999880299,,,,126,0,125,642.3848440999864,,,,,,,,,,,,,,,,,,,,,,,,,,,,,,642.368712400028,642.3848440999864,642.8867696999805,642.8685659000184,,,,,,,,,,,,,,,,,,,,,,,,,,642.8844419000088,642.8867696999805,642.8867696999805,642.8867696999805,,,,645.8851837000111,j,645.8852302000159,,,645.885249599989,None,,,1.2475584999774583,0.1345996999880299,,,,,,,,,,00067,001,2026-01-25_15h01.19.462,MST_task,2024.2.0,59.998476034089286,2026-01-25 15h01.28.695818 +0530,
,Objects\142a.jpg,126,0,127,,,,,,,f,None,,,1.6988714000326581,0.1518489999580197,,,,127,0,126,645.9015807000105,,,,,,,,,,,,,,,,,,,,,,,,,,,,,,645.8853525000159,645.9015807000105,646.4021395000163,646.3851776000229,,,,,,,,,,,,,,,,,,,,,,,,,,646.3979562000022,646.4021395000163,646.4021395000163,646.4021395000163,649.4017484000069,649.4017484000069,649.4017484000069,649.3856588000199,f,649.3878362000105,,,649.3878545000334,None,,,1.6988714000326581,0.1518489999580197,,,,,,,,,,00067,001,2026-01-25_15h01.19.462,MST_task,2024.2.0,59.998476034089286,2026-01-25 15h01.28.695818 +0530,
,Objects\006a.jpg,127,0,128,,,,,,,f,None,,,1.6710576000041328,0.22401609999360517,,,,128,0,127,649.4017484000069,,,,,,,,,,,,,,,,,,,,,,,,,,,,,,649.3879684000276,649.4017484000069,649.9020064999931,649.8851816999959,,,,,,,,,,,,,,,,,,,,,,,,,,649.89469440002,649.9020064999931,649.9020064999931,649.9020064999931,652.9016487000044,652.9016487000044,652.9016487000044,652.8854279000079,f,652.88546770002,,,652.8854784999858,None,,,1.6710576000041328,0.22401609999360517,,,,,,,,,,00067,001,2026-01-25_15h01.19.462,MST_task,2024.2.0,59.998476034089286,2026-01-25 15h01.28.695818 +0530,
,Objects\078a.jpg,128,0,129,,,,,,,f,None,,,1.562904700054787,0.20797819999279454,,,,129,0,128,652.9016487000044,,,,,,,,,,,,,,,,,,,,,,,,,,,,,,652.885543100012,652.9016487000044,653.401890499983,653.3850724000367,,,,,,,,,,,,,,,,,,,,,,,,,,653.3944902000367,653.401890499983,653.401890499983,653.401890499983,656.4015931999893,656.4015931999893,656.4015931999893,656.3855595000205,f,656.3856007999857,,,656.3856114000082,None,,,1.562904700054787,0.20797819999279454,,,,,,,,,,00067,001,2026-01-25_15h01.19.462,MST_task,2024.2.0,59.998476034089286,2026-01-25 15h01.28.695818 +0530,
,Objects\058a.jpg,129,0,130,,,,,,,f,None,,,1.9277640000218526,0.19253649999154732,,,,130,0,129,656.4015931999893,,,,,,,,,,,,,,,,,,,,,,,,,,,,,,656.3856778999907,656.4015931999893,656.901903800026,656.8851000000141,,,,,,,,,,,,,,,,,,,,,,,,,,656.8965816000127,656.901903800026,656.901903800026,656.901903800026,659.9017386999913,659.9017386999913,659.9017386999913,659.8854131000116,f,659.8854566999944,,,659.8854675000184,None,,,1.9277640000218526,0.19253649999154732,,,,,,,,,,00067,001,2026-01-25_15h01.19.462,MST_task,2024.2.0,59.998476034089286,2026-01-25 15h01.28.695818 +0530,
,Objects\145a.jpg,130,0,131,,,,,,,f,None,,,2.1949237000080757,0.17710269999224693,,,,131,0,130,659.9017386999913,,,,,,,,,,,,,,,,,,,,,,,,,,,,,,659.8855337999994,659.9017386999913,660.4019064999884,660.3851278999937,,,,,,,,,,,,,,,,,,,,,,,,,,660.3945519999834,660.4019064999884,660.4019064999884,660.4019064999884,663.401580900012,663.401580900012,663.401580900012,663.3854652000009,f,663.3855056000175,,,663.385516099981,None,,,2.1949237000080757,0.17710269999224693,,,,,,,,,,00067,001,2026-01-25_15h01.19.462,MST_task,2024.2.0,59.998476034089286,2026-01-25 15h01.28.695818 +0530,
,Objects\068a.jpg,131,0,132,,,,,,,f,None,,,1.7190167999942787,0.20881059998646379,,,,132,0,131,663.401580900012,,,,,,,,,,,,,,,,,,,,,,,,,,,,,,663.3856121000135,663.401580900012,663.9018373999861,663.885242999997,,,,,,,,,,,,,,,,,,,,,,,,,,663.8949689000146,663.9018373999861,663.9018373999861,663.9018373999861,666.9018142999848,666.9018142999848,666.9018142999848,666.8854189999984,f,666.8854591000127,,,666.8854694000329,None,,,1.7190167999942787,0.20881059998646379,,,,,,,,,,00067,001,2026-01-25_15h01.19.462,MST_task,2024.2.0,59.998476034089286,2026-01-25 15h01.28.695818 +0530,
,Objects\152a.jpg,132,0,133,,,,,,,f,None,,,1.6751125999726355,0.19983070000307634,,,,133,0,132,666.9018142999848,,,,,,,,,,,,,,,,,,,,,,,,,,,,,,666.8855459000333,666.9018142999848,667.4018631000072,667.3850763000082,,,,,,,,,,,,,,,,,,,,,,,,,,667.3950081000221,667.4018631000072,667.4018631000072,667.4018631000072,670.4016444000299,670.4016444000299,670.4016444000299,670.3853553000372,f,670.385397200007,,,670.3854081000318,None,,,1.6751125999726355,0.19983070000307634,,,,,,,,,,00067,001,2026-01-25_15h01.19.462,MST_task,2024.2.0,59.998476034089286,2026-01-25 15h01.28.695818 +0530,
,Scenes\185a.jpg,133,0,134,,,,,,,j,None,,,2.4930573000456207,0.13645900000119582,,,,134,0,133,670.4016444000299,,,,,,,,,,,,,,,,,,,,,,,,,,,,,,670.385503700003,670.4016444000299,670.90373369999,670.8850697000162,,,,,,,,,,,,,,,,,,,,,,,,,,670.9014007999795,670.90373369999,670.90373369999,670.90373369999,,,,673.9018526999862,j,673.9034887999878,,,673.90350700001,None,,,2.4930573000456207,0.13645900000119582,,,,,,,,,,00067,001,2026-01-25_15h01.19.462,MST_task,2024.2.0,59.998476034089286,2026-01-25 15h01.28.695818 +0530,
,Scenes\162a.jpg,134,0,135,,,,,,,j,None,,,2.0426363999722525,0.15199859999120235,,,,135,0,134,673.9183008000255,,,,,,,,,,,,,,,,,,,,,,,,,,,,,,673.9035792000359,673.9183008000255,674.4189200000255,674.4018826999818,,,,,,,,,,,,,,,,,,,,,,,,,,674.4163966000197,674.4189200000255,674.4189200000255,674.4189200000255,677.4183121999959,677.4183121999959,677.4183121999959,677.4020974999876,j,677.4021382000064,,,677.402148800029,None,,,2.0426363999722525,0.15199859999120235,,,,,,,,,,00067,001,2026-01-25_15h01.19.462,MST_task,2024.2.0,59.998476034089286,2026-01-25 15h01.28.695818 +0530,
,Scenes\113a.jpg,135,0,136,,,,,,,j,None,,,1.0459674000157975,0.1129431999870576,,,,136,0,135,677.4183121999959,,,,,,,,,,,,,,,,,,,,,,,,,,,,,,677.4022430999903,677.4183121999959,677.9187780999928,677.9018903999822,,,,,,,,,,,,,,,,,,,,,,,,,,677.9130884000333,677.9187780999928,677.9187780999928,677.9187780999928,680.9183115999913,680.9183115999913,680.9183115999913,680.9021118999808,j,680.9021508999867,,,680.9021674999967,None,,,1.0459674000157975,0.1129431999870576,,,,,,,,,,00067,001,2026-01-25_15h01.19.462,MST_task,2024.2.0,59.998476034089286,2026-01-25 15h01.28.695818 +0530,
,Scenes\141a.jpg,136,0,137,,,,,,,j,None,,,1.322129100037273,0.12110339995706454,,,,137,0,136,680.9183115999913,,,,,,,,,,,,,,,,,,,,,,,,,,,,,,680.902265599987,680.9183115999913,681.4187357000192,681.4018776000012,,,,,,,,,,,,,,,,,,,,,,,,,,681.4148271000013,681.4187357000192,681.4187357000192,681.4187357000192,684.4182952999836,684.4182952999836,684.4182952999836,684.4022875000373,j,684.4023388000205,,,684.4023519000039,None,,,1.322129100037273,0.12110339995706454,,,,,,,,,,00067,001,2026-01-25_15h01.19.462,MST_task,2024.2.0,59.998476034089286,2026-01-25 15h01.28.695818 +0530,
,Scenes\059a.jpg,137,0,138,,,,,,,j,None,,,1.2502710000262596,0.18399829999543726,,,,138,0,137,684.4182952999836,,,,,,,,,,,,,,,,,,,,,,,,,,,,,,684.4024591000052,684.4182952999836,684.9233170999796,684.9018174000084,,,,,,,,,,,,,,,,,,,,,,,,,,684.9210093999864,684.9233170999796,684.9233170999796,684.9233170999796,,,,687.9185044000042,j,687.9185445000185,,,687.9185559999896,None,,,1.2502710000262596,0.18399829999543726,,,,,,,,,,00067,001,2026-01-25_15h01.19.462,MST_task,2024.2.0,59.998476034089286,2026-01-25 15h01.28.695818 +0530,
,Scenes\087a.jpg,138,0,139,,,,,,,j,None,,,2.6261666999780573,0.12011900002835318,,,,139,0,138,687.9349001999944,,,,,,,,,,,,,,,,,,,,,,,,,,,,,,687.9186559999944,687.9349001999944,688.4355118999956,688.4184931000345,,,,,,,,,,,,,,,,,,,,,,,,,,688.4309457000345,688.4355118999956,688.4355118999956,688.4355118999956,,,,691.4187096999958,j,691.418759400025,,,691.4187730000122,None,,,2.6261666999780573,0.12011900002835318,,,,,,,,,,00067,001,2026-01-25_15h01.19.462,MST_task,2024.2.0,59.998476034089286,2026-01-25 15h01.28.695818 +0530,
,Scenes\157a.jpg,139,0,140,,,,,,,j,None,,,0.8131425000028685,0.16830420005135238,,,,140,0,139,691.4348544999957,,,,,,,,,,,,,,,,,,,,,,,,,,,,,,691.4188555000001,691.4348544999957,691.9358605000307,691.918625499995,,,,,,,,,,,,,,,,,,,,,,,,,,691.9336148999864,691.9358605000307,691.9358605000307,691.9358605000307,694.934913300036,694.934913300036,694.934913300036,694.9189503000234,j,694.9190224999911,,,694.9190363999805,None,,,0.8131425000028685,0.16830420005135238,,,,,,,,,,00067,001,2026-01-25_15h01.19.462,MST_task,2024.2.0,59.998476034089286,2026-01-25 15h01.28.695818 +0530,
,Objects\037a.jpg,140,0,141,,,,,,,f,None,,,2.634085000026971,0.18352670001331717,,,,141,0,140,694.934913300036,,,,,,,,,,,,,,,,,,,,,,,,,,,,,,694.9191429000348,694.934913300036,695.4353673000005,695.4185747000156,,,,,,,,,,,,,,,,,,,,,,,,,,695.432011500001,695.4353673000005,695.4353673000005,695.4353673000005,698.434831599996,698.434831599996,698.434831599996,698.4189147999859,f,698.4209786999854,,,698.4209954999969,None,,,2.634085000026971,0.18352670001331717,,,,,,,,,,00067,001,2026-01-25_15h01.19.462,MST_task,2024.2.0,59.998476034089286,2026-01-25 15h01.28.695818 +0530,
,Objects\091a.jpg,141,0,142,,,,,,,j,None,,,0.9825467000482604,0.19108009996125475,,,,142,0,141,698.434831599996,,,,,,,,,,,,,,,,,,,,,,,,,,,,,,698.4210995000321,698.434831599996,698.9351134999888,698.9184793999884,,,,,,,,,,,,,,,,,,,,,,,,,,698.9281905000098,698.9351134999888,698.9351134999888,698.9351134999888,701.9348300999845,701.9348300999845,701.9348300999845,701.9188696999918,j,701.918909,,,701.918919400021,None,,,0.9825467000482604,0.19108009996125475,,,,,,,,,,00067,001,2026-01-25_15h01.19.462,MST_task,2024.2.0,59.998476034089286,2026-01-25 15h01.28.695818 +0530,
,Objects\045a.jpg,142,0,143,,,,,,,j,None,,,0.969608299958054,0.17609110003104433,,,,143,0,142,701.9348300999845,,,,,,,,,,,,,,,,,,,,,,,,,,,,,,701.9190140999854,701.9348300999845,702.4352180000278,702.4185633999878,,,,,,,,,,,,,,,,,,,,,,,,,,702.4285418000072,702.4352180000278,702.4352180000278,702.4352180000278,705.4348532999866,705.4348532999866,705.4348532999866,705.4188376999809,j,705.4188791000051,,,705.4188897000276,None,,,0.969608299958054,0.17609110003104433,,,,,,,,,,00067,001,2026-01-25_15h01.19.462,MST_task,2024.2.0,59.998476034089286,2026-01-25 15h01.28.695818 +0530,
,Objects\106a.jpg,143,0,144,,,,,,,f,None,,,2.142157100024633,0.18400419998215511,,,,144,0,143,705.4348532999866,,,,,,,,,,,,,,,,,,,,,,,,,,,,,,705.4189880000195,705.4348532999866,705.935142500035,705.9187135000248,,,,,,,,,,,,,,,,,,,,,,,,,,705.9286814000225,705.935142500035,705.935142500035,705.935142500035,708.9349239000003,708.9349239000003,708.9349239000003,708.9187772999867,f,708.9188166999957,,,708.9188271000166,None,,,2.142157100024633,0.18400419998215511,,,,,,,,,,00067,001,2026-01-25_15h01.19.462,MST_task,2024.2.0,59.998476034089286,2026-01-25 15h01.28.695818 +0530,
,Objects\141a.jpg,144,0,145,,,,,,,j,None,,,1.0902085999841802,0.11197339999489486,,,,145,0,144,708.9349239000003,,,,,,,,,,,,,,,,,,,,,,,,,,,,,,708.9189233999932,708.9349239000003,709.4352007000125,709.4185401999857,,,,,,,,,,,,,,,,,,,,,,,,,,709.4279585999902,709.4352007000125,709.4352007000125,709.4352007000125,712.4350532999961,712.4350532999961,712.4350532999961,712.4189034000156,j,712.4189419000177,,,712.4189525999827,None,,,1.0902085999841802,0.11197339999489486,,,,,,,,,,00067,001,2026-01-25_15h01.19.462,MST_task,2024.2.0,59.998476034089286,2026-01-25 15h01.28.695818 +0530,
,Objects\110a.jpg,145,0,146,,,,,,,f,None,,,1.1900138999917544,0.18396420002682135,,,,146,0,145,712.4350532999961,,,,,,,,,,,,,,,,,,,,,,,,,,,,,,712.4190182000166,712.4350532999961,712.9352665999904,712.918590700021,,,,,,,,,,,,,,,,,,,,,,,,,,712.9287460999913,712.9352665999904,712.9352665999904,712.9352665999904,715.9351373999962,715.9351373999962,715.9351373999962,715.9190348000266,f,715.9190786000108,,,715.9190897999797,None,,,1.1900138999917544,0.18396420002682135,,,,,,,,,,00067,001,2026-01-25_15h01.19.462,MST_task,2024.2.0,59.998476034089286,2026-01-25 15h01.28.695818 +0530,
,Objects\007a.jpg,146,0,147,,,,,,,j,None,,,2.642120699980296,0.1445353000308387,,,,147,0,146,715.9351373999962,,,,,,,,,,,,,,,,,,,,,,,,,,,,,,715.9191556000151,715.9351373999962,716.4352203999879,716.4185744000133,,,,,,,,,,,,,,,,,,,,,,,,,,716.4296159999794,716.4352203999879,716.4352203999879,716.4352203999879,719.4349429000285,719.4349429000285,719.4349429000285,719.418951300031,j,719.4189907999826,,,719.4190014000051,None,,,2.642120699980296,0.1445353000308387,,,,,,,,,,00067,001,2026-01-25_15h01.19.462,MST_task,2024.2.0,59.998476034089286,2026-01-25 15h01.28.695818 +0530,
,Scenes\097a.jpg,147,0,148,,,,,,,j,None,,,1.773574799997732,0.15993550000712276,,,,148,0,147,719.4349429000285,,,,,,,,,,,,,,,,,,,,,,,,,,,,,,719.4190688999952,719.4349429000285,719.9357216000208,719.9186456000316,,,,,,,,,,,,,,,,,,,,,,,,,,719.9312753999839,719.9357216000208,719.9357216000208,719.9357216000208,722.9350610999973,722.9350610999973,722.9350610999973,722.9188818000257,j,722.9205060999957,,,722.9205237000133,None,,,1.773574799997732,0.15993550000712276,,,,,,,,,,00067,001,2026-01-25_15h01.19.462,MST_task,2024.2.0,59.998476034089286,2026-01-25 15h01.28.695818 +0530,
,Scenes\171a.jpg,148,0,149,,,,,,,f,None,,,2.253074200008996,0.19895999995060265,,,,149,0,148,722.9350610999973,,,,,,,,,,,,,,,,,,,,,,,,,,,,,,722.9206268999842,722.9350610999973,723.4410327000078,723.4186252999934,,,,,,,,,,,,,,,,,,,,,,,,,,723.4386260000174,723.4410327000078,723.4410327000078,723.4410327000078,,,,726.4352875000332,f,726.4353295000037,,,726.4353415999794,None,,,2.253074200008996,0.19895999995060265,,,,,,,,,,00067,001,2026-01-25_15h01.19.462,MST_task,2024.2.0,59.998476034089286,2026-01-25 15h01.28.695818 +0530,
,Scenes\046a.jpg,149,0,150,,,,,,,j,None,,,0.956502899993211,0.19199880002997816,,,,150,0,149,726.4517115000053,,,,,,,,,,,,,,,,,,,,,,,,,,,,,,726.4354453000124,726.4517115000053,726.9602204000112,726.9352847000118,,,,,,,,,,,,,,,,,,,,,,,,,,726.9577415999956,726.9602204000112,726.9602204000112,726.9602204000112,,,,729.9519269000157,j,729.9519662000239,,,729.9519780999981,None,,,0.956502899993211,0.19199880002997816,,,,,,,,,,00067,001,2026-01-25_15h01.19.462,MST_task,2024.2.0,59.998476034089286,2026-01-25 15h01.28.695818 +0530,
,Scenes\130a.jpg,150,0,151,,,,,,,None,j,2.528492000012193,None,,,,,,151,0,150,729.9683956999797,,,,,,,,,,,,,,,,,,,,,,,,,,,,,,729.9520783000044,729.9683956999797,730.4735094000353,730.4518976000254,,,,,,,,,,,,,,,,,,,,,,,,,,730.4706384000019,730.4735094000353,730.4735094000353,730.4735094000353,,,,733.4521213999833,None,733.452189600037,733.468312699988,733.468312699988,736.0021474999958,j,2.528492000012193,None,,,,,,,,,,,,00067,001,2026-01-25_15h01.19.462,MST_task,2024.2.0,59.998476034089286,2026-01-25 15h01.28.695818 +0530,
,Scenes\156a.jpg,151,0,152,,,,,,,j,None,,,1.0698147999937646,0.14402410003822297,,,,152,0,151,736.0184025000199,,,,,,,,,,,,,,,,,,,,,,,,,,,,,,736.0022335000103,736.0184025000199,736.5191734000109,736.5019702999853,,,,,,,,,,,,,,,,,,,,,,,,,,736.5163513000007,736.5191734000109,736.5191734000109,736.5191734000109,739.518472500029,739.518472500029,739.518472500029,739.5022548999987,j,739.502297900035,,,739.5023089000024,None,,,1.0698147999937646,0.14402410003822297,,,,,,,,,,00067,001,2026-01-25_15h01.19.462,MST_task,2024.2.0,59.998476034089286,2026-01-25 15h01.28.695818 +0530,
,Scenes\115a.jpg,152,0,153,,,,,,,j,None,,,2.0417232000036165,0.11201189999701455,,,,153,0,152,739.518472500029,,,,,,,,,,,,,,,,,,,,,,,,,,,,,,739.5024071999942,739.518472500029,740.0194367999793,740.0020077000372,,,,,,,,,,,,,,,,,,,,,,,,,,740.0172723000287,740.0194367999793,740.0194367999793,740.0194367999793,743.0184128999826,743.0184128999826,743.0184128999826,743.0023109000176,j,743.0023512000334,,,743.0023627000046,None,,,2.0417232000036165,0.11201189999701455,,,,,,,,,,00067,001,2026-01-25_15h01.19.462,MST_task,2024.2.0,59.998476034089286,2026-01-25 15h01.28.695818 +0530,
,Scenes\009a.jpg,153,0,154,,,,,,,f,None,,,1.6509453000035137,0.19999779999488965,,,,154,0,153,743.0184128999826,,,,,,,,,,,,,,,,,,,,,,,,,,,,,,743.0024284999818,743.0184128999826,743.5224129999988,743.5018835000228,,,,,,,,,,,,,,,,,,,,,,,,,,743.5200665000011,743.5224129999988,743.5224129999988,743.5224129999988,,,,746.5185846000095,f,746.5186303000082,,,746.5186418999801,None,,,1.6509453000035137,0.19999779999488965,,,,,,,,,,00067,001,2026-01-25_15h01.19.462,MST_task,2024.2.0,59.998476034089286,2026-01-25 15h01.28.695818 +0530,
,Objects\011a.jpg,154,0,155,,,,,,,f,None,,,1.8490873000118881,0.19993190001696348,,,,155,0,154,746.5350261999993,,,,,,,,,,,,,,,,,,,,,,,,,,,,,,746.5187099000323,746.5350261999993,747.0356466000085,747.0185920000076,,,,,,,,,,,,,,,,,,,,,,,,,,747.0318235000013,747.0356466000085,747.0356466000085,747.0356466000085,750.0351673000259,750.0351673000259,750.0351673000259,750.0190613000304,f,750.021141699981,,,750.0211587999947,None,,,1.8490873000118881,0.19993190001696348,,,,,,,,,,00067,001,2026-01-25_15h01.19.462,MST_task,2024.2.0,59.998476034089286,2026-01-25 15h01.28.695818 +0530,
,Objects\165a.jpg,155,0,156,,,,,,,f,None,,,1.1585350999957882,0.16727370000444353,,,,156,0,155,750.0351673000259,,,,,,,,,,,,,,,,,,,,,,,,,,,,,,750.0212289000046,750.0351673000259,750.5352355000214,750.5185958000366,,,,,,,,,,,,,,,,,,,,,,,,,,750.528325500025,750.5352355000214,750.5352355000214,750.5352355000214,753.5350453000283,753.5350453000283,753.5350453000283,753.5188880999922,f,753.518928800011,,,753.5189395000343,None,,,1.1585350999957882,0.16727370000444353,,,,,,,,,,00067,001,2026-01-25_15h01.19.462,MST_task,2024.2.0,59.998476034089286,2026-01-25 15h01.28.695818 +0530,
,Objects\139a.jpg,156,0,157,,,,,,,f,None,,,1.8662151000462472,0.19144969998160377,,,,157,0,156,753.5350453000283,,,,,,,,,,,,,,,,,,,,,,,,,,,,,,753.5190362000139,753.5350453000283,754.0351999999839,754.0186634000274,,,,,,,,,,,,,,,,,,,,,,,,,,754.0280357000302,754.0351999999839,754.0351999999839,754.0351999999839,757.034897000005,757.034897000005,757.034897000005,757.0189511000062,f,757.0189929000335,,,757.0190038000001,None,,,1.8662151000462472,0.19144969998160377,,,,,,,,,,00067,001,2026-01-25_15h01.19.462,MST_task,2024.2.0,59.998476034089286,2026-01-25 15h01.28.695818 +0530,
,Objects\175a.jpg,157,0,158,,,,,,,f,None,,,1.5019087999826297,0.1841673000017181,,,,158,0,157,757.034897000005,,,,,,,,,,,,,,,,,,,,,,,,,,,,,,757.0190710999887,757.034897000005,757.5352114000125,757.5185394000146,,,,,,,,,,,,,,,,,,,,,,,,,,757.5284070000052,757.5352114000125,757.5352114000125,757.5352114000125,760.5348333999864,760.5348333999864,760.5348333999864,760.5191530000302,f,760.5192018999951,,,760.5192133000237,None,,,1.5019087999826297,0.1841673000017181,,,,,,,,,,00067,001,2026-01-25_15h01.19.462,MST_task,2024.2.0,59.998476034089286,2026-01-25 15h01.28.695818 +0530,
,Objects\099a.jpg,158,0,159,,,,,,,f,None,,,1.5142910999711603,0.15999930002726614,,,,159,0,158,760.5348333999864,,,,,,,,,,,,,,,,,,,,,,,,,,,,,,760.5192852999899,760.5348333999864,761.0350208000164,761.0187155000167,,,,,,,,,,,,,,,,,,,,,,,,,,761.0284761000075,761.0350208000164,761.0350208000164,761.0350208000164,764.0349331999896,764.0349331999896,764.0349331999896,764.0189460000256,f,764.0189871999901,,,764.0189981000149,None,,,1.5142910999711603,0.15999930002726614,,,,,,,,,,00067,001,2026-01-25_15h01.19.462,MST_task,2024.2.0,59.998476034089286,2026-01-25 15h01.28.695818 +0530,
,Objects\114a.jpg,159,0,160,,,,,,,f,None,,,1.6702326000086032,0.14396999997552484,,,,160,0,159,764.0349331999896,,,,,,,,,,,,,,,,,,,,,,,,,,,,,,764.0190650000004,764.0349331999896,764.5352294000331,764.5186426999862,,,,,,,,,,,,,,,,,,,,,,,,,,764.5283705000184,764.5352294000331,764.5352294000331,764.5352294000331,767.5348501999979,767.5348501999979,767.5348501999979,767.5187675000052,f,767.5188129000016,,,767.5188239000272,None,,,1.6702326000086032,0.14396999997552484,,,,,,,,,,00067,001,2026-01-25_15h01.19.462,MST_task,2024.2.0,59.998476034089286,2026-01-25 15h01.28.695818 +0530,
