Sl_no,image_path,thisN,thisTrialN,thisRepN,key_resp_5.keys,key_resp_5.rt,key_resp_5.duration,key_resp_7.keys,key_resp_9.keys,key_resp_8.keys,key_resp_8.rt,key_resp_8.duration,key_resp_9.rt,key_resp_9.duration,practice.thisRepN,practice.thisTrialN,practice.thisN,trials.thisRepN,trials.thisTrialN,trials.thisN,thisRow.t,notes,welcome_page.started,text.started,key_resp.started,welcome_page.stopped,key_resp.keys,key_resp.rt,key_resp.duration,instructions.started,ins.started,key_resp_2.started,instructions.stopped,key_resp_2.keys,key_resp_2.rt,key_resp_2.duration,instructions_2.started,text_10.started,key_resp_10.started,instructions_2.stopped,key_resp_10.keys,key_resp_10.rt,key_resp_10.duration,objects_only_instruction.started,text_3.started,key_resp_3.started,objects_only_instruction.stopped,key_resp_3.keys,key_resp_3.rt,key_resp_3.duration,ISI.started,text_4.started,ISI.stopped,practice_block.started,image.started,text_5.started,key_resp_5.started,practice_block.stopped,practice.key_resp_5.keys,practice.key_resp_5.rt,practice.key_resp_5.duration,indoor_outdoor.started,indoor_outdoor.stopped,practice.key_resp_7.keys,text_4.stopped,practice_to_main.started,text_2.started,key_resp_4.started,practice_to_main.stopped,key_resp_4.keys,key_resp_4.rt,key_resp_4.duration,objects.started,image_2.started,text_9.started,key_resp_9.started,objects.stopped,trials.key_resp_9.keys,encoding_task.started,text_8.started,key_resp_8.started,encoding_task.stopped,trials.key_resp_8.keys,trials.key_resp_8.rt,trials.key_resp_8.duration,trials.key_resp_9.rt,trials.key_resp_9.duration,end_experiment.started,text_6.started,key_resp_6.started,end_experiment.stopped,key_resp_6.keys,key_resp_6.rt,key_resp_6.duration,list_of_stimuli,encoding_task_accuracy,participant,session,date,expName,psychopyVersion,frameRate,expStart,
,,,,,,,,,,,,,,,,,,,,,,,0.00728520005941391,0.023330399999395013,0.023330399999395013,2838.3182818000205,space,2838.239227300044,None,,,,,,,,,,,,,,,,,,,,,,,,,,,,,,,,,,,,,,,,,,,,,,,,,,,,,,,,,,,,,,,,,,,,00065,001,2026-01-20_10h45.49.248,MST_task,2024.2.0,59.73562205966894,2026-01-20 10h46.09.223422 +0530,
,,,,,,,,,,,,,,,,,,,,,,,,,,,,,,2838.318337399978,2838.3476244000485,2838.3476244000485,2851.493983100052,space,13.130225599976256,None,,,,,,,,,,,,,,,,,,,,,,,,,,,,,,,,,,,,,,,,,,,,,,,,,,,,,,,,,,,,,00065,001,2026-01-20_10h45.49.248,MST_task,2024.2.0,59.73562205966894,2026-01-20 10h46.09.223422 +0530,
,,,,,,,,,,,,,,,,,,,,,,,,,,,,,,,,,,,,,2851.4940102000255,2851.5101895000553,2851.5101895000553,2888.891471900046,space,37.37587499991059,None,,,,,,,,,,,,,,,,,,,,,,,,,,,,,,,,,,,,,,,,,,,,,,,,,,,,,,00065,001,2026-01-20_10h45.49.248,MST_task,2024.2.0,59.73562205966894,2026-01-20 10h46.09.223422 +0530,
,,,,,,,,,,,,,,,,,,,,,,,,,,,,,,,,,,,,,,,,,,,,2888.8915043000598,2888.907695599948,2888.907695599948,2902.673054300016,space,13.762742199935019,None,,,,,,,,,,,,,,,,,,,,,,,,,,,,,,,,,,,,,,,,,,,,,,,00065,001,2026-01-20_10h45.49.248,MST_task,2024.2.0,59.73562205966894,2026-01-20 10h46.09.223422 +0530,
10,practice_images/182a.jpg,0,0,1,f,2.407159100053832,0.10313309996854514,None,,,,,,,1,0,0,,,,2902.7059154999442,,,,,,,,,,,,,,,,,,,,,,,,,,,,,,2902.692243700032,2902.7059154999442,2903.1742848999565,2903.1922921000514,2903.207770399982,2903.207770399982,2903.207770399982,2906.1849585999735,f,2.407159100053832,0.10313309996854514,2906.1861864000093,2906.186206100043,None,,,,,,,,,,,,,,,,,,,,,,,,,,,,,,,,,00065,001,2026-01-20_10h45.49.248,MST_task,2024.2.0,59.73562205966894,2026-01-20 10h46.09.223422 +0530,
6,practice_images/158a.jpg,1,1,1,j,1.7576392999617383,0.09645369998179376,None,,,,,,,1,1,1,,,,2906.201601500041,,,,,,,,,,,,,,,,,,,,,,,,,,,,,,2906.1862805000274,2906.201601500041,2906.686616300023,2906.695295099984,2906.720067300019,2906.720067300019,2906.720067300019,2909.697369099944,j,1.7576392999617383,0.09645369998179376,2909.6974088000134,2909.697423800011,None,,,,,,,,,,,,,,,,,,,,,,,,,,,,,,,,,00065,001,2026-01-20_10h45.49.248,MST_task,2024.2.0,59.73562205966894,2026-01-20 10h46.09.223422 +0530,
9,practice_images/180a.jpg,2,2,1,f,1.2723974999971688,0.10211859992705286,None,,,,,,,1,2,2,,,,2909.7139053000137,,,,,,,,,,,,,,,,,,,,,,,,,,,,,,2909.697494599968,2909.7139053000137,2910.199036099948,2910.2078698000405,2910.2151481000474,2910.2151481000474,2910.2151481000474,2913.2095262999646,f,1.2723974999971688,0.10211859992705286,2913.2095645000227,2913.20960079995,None,,,,,,,,,,,,,,,,,,,,,,,,,,,,,,,,,00065,001,2026-01-20_10h45.49.248,MST_task,2024.2.0,59.73562205966894,2026-01-20 10h46.09.223422 +0530,
3,practice_images/037a.jpg,3,3,1,f,1.5411630999296904,0.1280607000226155,None,,,,,,,1,3,3,,,,2913.2260684999637,,,,,,,,,,,,,,,,,,,,,,,,,,,,,,2913.209700700012,2913.2260684999637,2913.7112647000467,2913.7211908999598,2913.7446944999974,2913.7446944999974,2913.7446944999974,2916.722309999983,f,1.5411630999296904,0.1280607000226155,2916.722348900046,2916.722635700018,None,,,,,,,,,,,,,,,,,,,,,,,,,,,,,,,,,00065,001,2026-01-20_10h45.49.248,MST_task,2024.2.0,59.73562205966894,2026-01-20 10h46.09.223422 +0530,
5,practice_images/139a.jpg,4,4,1,j,2.1502855999860913,0.11194979993160814,None,,,,,,,1,4,4,,,,2916.7386750000296,,,,,,,,,,,,,,,,,,,,,,,,,,,,,,2916.7227236999897,2916.7386750000296,2917.2235771999694,2917.232020800002,2917.2397021000506,2917.2397021000506,2917.2397021000506,2920.2342367999954,j,2.1502855999860913,0.11194979993160814,2920.234275200055,2920.234287600033,None,,,,,,,,,,,,,,,,,,,,,,,,,,,,,,,,,00065,001,2026-01-20_10h45.49.248,MST_task,2024.2.0,59.73562205966894,2026-01-20 10h46.09.223422 +0530,
8,practice_images/178a.jpg,5,5,1,f,2.3096054000779986,0.12808239995501935,None,,,,,,,1,5,5,,,,2920.250676100026,,,,,,,,,,,,,,,,,,,,,,,,,,,,,,2920.23435839999,2920.250676100026,2920.7360824999632,2920.7469762000255,2920.7527166999644,2920.7527166999644,2920.7527166999644,2923.746317300014,f,2.3096054000779986,0.12808239995501935,2923.747917599976,2923.7486357999733,None,,,,,,,,,,,,,,,,,,,,,,,,,,,,,,,,,00065,001,2026-01-20_10h45.49.248,MST_task,2024.2.0,59.73562205966894,2026-01-20 10h46.09.223422 +0530,
1,practice_images/013a.jpg,6,6,1,j,1.8051183000206947,0.1271845999872312,None,,,,,,,1,6,6,,,,2923.7631051000208,,,,,,,,,,,,,,,,,,,,,,,,,,,,,,2923.7487107999623,2923.7631051000208,2924.2491813000524,2924.2581633999944,2924.2823489999864,2924.2823489999864,2924.2823489999864,2927.2588403000263,j,1.8051183000206947,0.1271845999872312,2927.2591577999992,2927.25917189999,None,2924.2823489999864,,,,,,,,,,,,,,,,,,,,,,,,,,,,,,,,00065,001,2026-01-20_10h45.49.248,MST_task,2024.2.0,59.73562205966894,2026-01-20 10h46.09.223422 +0530,
2,practice_images/031a.jpg,7,7,1,f,2.2935795999364927,0.12144280003849417,None,,,,,,,1,7,7,,,,2927.2752627000446,,,,,,,,,,,,,,,,,,,,,,,,,,,,,,2927.2592415000545,2927.2752627000446,2927.760550900013,2927.76858969999,2927.776525299996,2927.776525299996,2927.776525299996,2930.7710456999484,f,2.2935795999364927,0.12144280003849417,2930.7710842000088,2930.771096499986,None,,,,,,,,,,,,,,,,,,,,,,,,,,,,,,,,,00065,001,2026-01-20_10h45.49.248,MST_task,2024.2.0,59.73562205966894,2026-01-20 10h46.09.223422 +0530,
4,practice_images/002b.jpg,8,8,1,j,2.9405314000323415,None,None,,,,,,,1,8,8,,,,2930.7876837999793,,,,,,,,,,,,,,,,,,,,,,,,,,,,,,2930.7711647000397,2930.7876837999793,2931.2728119000094,2931.2836492999922,2931.306069000042,2931.306069000042,2931.306069000042,2934.282874300028,j,2.9405314000323415,None,2934.2829118999653,2934.2829245999455,None,,,,,,,,,,,,,,,,,,,,,,,,,,,,,,,,,00065,001,2026-01-20_10h45.49.248,MST_task,2024.2.0,59.73562205966894,2026-01-20 10h46.09.223422 +0530,
7,practice_images/166a.jpg,9,9,1,j,1.4037961000576615,0.11989019997417927,None,,,,,,,1,9,9,,,,2934.299692300032,,,,,,,,,,,,,,,,,,,,,,,,,,,,,,2934.2829900999786,2934.299692300032,2934.784992699977,2934.794582100003,2934.818149000057,2934.818149000057,2934.818149000057,2937.795299099991,j,1.4037961000576615,0.11989019997417927,2937.795337700052,2937.7953500000294,None,,,,,,,,,,,,,,,,,,,,,,,,,,,,,,,,,00065,001,2026-01-20_10h45.49.248,MST_task,2024.2.0,59.73562205966894,2026-01-20 10h46.09.223422 +0530,
,,,,,,,,,,,,,,,,,,,,,,,,,,,,,,,,,,,,,,,,,,,,,,,,,,,,,,,,,,,,,,,,,,2937.7954096000176,2937.8118419999955,2937.8118419999955,2944.536093199975,space,6.714615700067952,None,,,,,,,,,,,,,,,,,,,,,,,,,00065,001,2026-01-20_10h45.49.248,MST_task,2024.2.0,59.73562205966894,2026-01-20 10h46.09.223422 +0530,
,Objects\021a.jpg,0,0,1,,,,,None,f,2.421745100058615,None,,,,,,1,0,0,2944.552262500045,,,,,,,,,,,,,,,,,,,,,,,,,,,,,,2944.536903899978,2944.552262500045,2945.0372899000067,,,,,,,,,,,,,,,,,,,,2945.0596329000546,2945.071650799946,2945.071650799946,2945.071650799946,2948.0478538000025,None,2948.050434899982,2948.0645463999826,2948.0645463999826,2950.4904686999507,f,2.421745100058615,None,,,,,,,,,,,,00065,001,2026-01-20_10h45.49.248,MST_task,2024.2.0,59.73562205966894,2026-01-20 10h46.09.223422 +0530,
,Objects\145a.jpg,1,0,2,,,,,f,None,,,2.013375399983488,0.11184010002762079,,,,2,0,1,2950.506317000021,,,,,,,,,,,,,,,,,,,,,,,,,,,,,,2950.490560199949,2950.506317000021,2950.991808700026,,,,,,,,,,,,,,,,,,,,2951.001206099987,2951.025095100049,2951.025095100049,2951.025095100049,2954.002352599986,f,2954.0025616999483,,,2954.002574900049,None,,,2.013375399983488,0.11184010002762079,,,,,,,,,,00065,001,2026-01-20_10h45.49.248,MST_task,2024.2.0,59.73562205966894,2026-01-20 10h46.09.223422 +0530,
,Objects\061a.jpg,2,0,3,,,,,j,None,,,2.22126619995106,0.11173710005823523,,,,3,0,2,2954.0189129000064,,,,,,,,,,,,,,,,,,,,,,,,,,,,,,2954.002674999996,2954.0189129000064,2954.5041455000173,,,,,,,,,,,,,,,,,,,,2954.513495799969,2954.537397900014,2954.537397900014,2954.537397900014,2957.5145695999963,j,2957.51465310005,,,2957.5146682000486,None,,,2.22126619995106,0.11173710005823523,,,,,,,,,,00065,001,2026-01-20_10h45.49.248,MST_task,2024.2.0,59.73562205966894,2026-01-20 10h46.09.223422 +0530,
,Objects\098a.jpg,3,0,4,,,,,f,None,,,2.252356300014071,0.10457500000484288,,,,4,0,3,2957.5313422000036,,,,,,,,,,,,,,,,,,,,,,,,,,,,,,2957.515033600037,2957.5313422000036,2958.0163333000382,,,,,,,,,,,,,,,,,,,,2958.025600400055,2958.049836299964,2958.049836299964,2958.049836299964,2961.026948499959,f,2961.027004500036,,,2961.0270172000164,None,,,2.252356300014071,0.10457500000484288,,,,,,,,,,00065,001,2026-01-20_10h45.49.248,MST_task,2024.2.0,59.73562205966894,2026-01-20 10h46.09.223422 +0530,
,Objects\049a.jpg,4,0,5,,,,,f,None,,,2.292671100003645,0.11914389999583364,,,,5,0,4,2961.0436438999604,,,,,,,,,,,,,,,,,,,,,,,,,,,,,,2961.0271274000406,2961.0436438999604,2961.5287741000066,,,,,,,,,,,,,,,,,,,,2961.538100100006,2961.5620061999653,2961.5620061999653,2961.5620061999653,2964.5390042000217,f,2964.5390617999947,,,2964.5390741999727,None,,,2.292671100003645,0.11914389999583364,,,,,,,,,,00065,001,2026-01-20_10h45.49.248,MST_task,2024.2.0,59.73562205966894,2026-01-20 10h46.09.223422 +0530,
,Objects\166a.jpg,5,0,6,,,,,f,None,,,1.235981100006029,0.12009199999738485,,,,6,0,5,2964.5558128999546,,,,,,,,,,,,,,,,,,,,,,,,,,,,,,2964.5391487999586,2964.5558128999546,2965.0410394000355,,,,,,,,,,,,,,,,,,,,2965.050520900055,2965.074254599982,2965.074254599982,2965.074254599982,2968.051254500053,f,2968.051297200029,,,2968.051309900009,None,,,1.235981100006029,0.12009199999738485,,,,,,,,,,00065,001,2026-01-20_10h45.49.248,MST_task,2024.2.0,59.73562205966894,2026-01-20 10h46.09.223422 +0530,
,Objects\063a.jpg,6,0,7,,,,,f,None,,,1.476657799910754,0.14277730009052902,,,,7,0,6,2968.0678229000187,,,,,,,,,,,,,,,,,,,,,,,,,,,,,,2968.0514131999807,2968.0678229000187,2968.553014199948,,,,,,,,,,,,,,,,,,,,2968.563323099981,2968.586280000047,2968.586280000047,2968.586280000047,2971.5635269000195,f,2971.563568499987,,,2971.563580899965,None,,,1.476657799910754,0.14277730009052902,,,,,,,,,,00065,001,2026-01-20_10h45.49.248,MST_task,2024.2.0,59.73562205966894,2026-01-20 10h46.09.223422 +0530,
,Scenes\038a.jpg,7,0,8,,,,,j,None,,,1.9701153999194503,0.1278273001080379,,,,8,0,7,2971.580231699976,,,,,,,,,,,,,,,,,,,,,,,,,,,,,,2971.563685799949,2971.580231699976,2972.0653376999544,,,,,,,,,,,,,,,,,,,,2972.099712299998,2972.1162435000297,2972.1162435000297,2972.1162435000297,2975.0758370000403,j,2975.077555099968,,,2975.0775734999916,None,,,1.9701153999194503,0.1278273001080379,,,,,,,,,,00065,001,2026-01-20_10h45.49.248,MST_task,2024.2.0,59.73562205966894,2026-01-20 10h46.09.223422 +0530,
,Scenes\073a.jpg,8,0,9,,,,,j,None,,,1.6263758999994025,0.10338939994107932,,,,9,0,8,2975.092430599965,,,,,,,,,,,,,,,,,,,,,,,,,,,,,,2975.0776812999975,2975.092430599965,2975.577843899955,,,,,,,,,,,,2975.628455099999,,,,,,,,2975.601600300055,2975.628455099999,2975.628455099999,2975.628455099999,2978.588010599953,j,2978.588053000043,,,2978.588094000006,None,,,1.6263758999994025,0.10338939994107932,,,,,,,,,,00065,001,2026-01-20_10h45.49.248,MST_task,2024.2.0,59.73562205966894,2026-01-20 10h46.09.223422 +0530,
,Scenes\192a.jpg,9,0,10,,,,,j,None,,,1.6015447999816388,0.11999439995270222,,,,10,0,9,2978.604842199944,,,,,,,,,,,,,,,,,,,,,,,,,,,,,,2978.588206400047,2978.604842199944,2979.0897983999457,,,,,,,,,,,,,,,,,,,,2979.1119010000257,2979.124344700016,2979.124344700016,2979.124344700016,2982.1007698000176,j,2982.100825599977,,,2982.1008397999685,None,,,1.6015447999816388,0.11999439995270222,,,,,,,,,,00065,001,2026-01-20_10h45.49.248,MST_task,2024.2.0,59.73562205966894,2026-01-20 10h46.09.223422 +0530,
,Scenes\143a.jpg,10,0,11,,,,,j,None,,,1.4419530000304803,0.12708020000718534,,,,11,0,10,2982.1176520000445,,,,,,,,,,,,,,,,,,,,,,,,,,,,,,2982.100922500016,2982.1176520000445,2982.6026857000543,,,,,,,,,,,,,,,,,,,,2982.6284441000316,2982.6526093999855,2982.6526093999855,2982.6526093999855,2985.61287479999,j,2985.612931899959,,,2985.6129439000506,None,,,1.4419530000304803,0.12708020000718534,,,,,,,,,,00065,001,2026-01-20_10h45.49.248,MST_task,2024.2.0,59.73562205966894,2026-01-20 10h46.09.223422 +0530,
,Scenes\124a.jpg,11,0,12,,,,,j,None,,,1.6181227000197396,0.08037250000052154,,,,12,0,11,2985.6294777999865,,,,,,,,,,,,,,,,,,,,,,,,,,,,,,2985.613045200007,2985.6294777999865,2986.1146863000467,,,,,,,,,,,,,,,,,,,,2986.135530099971,2986.1481881999644,2986.1481881999644,2986.1481881999644,2989.124914700049,j,2989.124957300024,,,2989.1249699000036,None,,,1.6181227000197396,0.08037250000052154,,,,,,,,,,00065,001,2026-01-20_10h45.49.248,MST_task,2024.2.0,59.73562205966894,2026-01-20 10h46.09.223422 +0530,
,Scenes\032a.jpg,12,0,13,,,,,j,None,,,2.5279816000256687,0.10502419993281364,,,,13,0,12,2989.1418466999894,,,,,,,,,,,,,,,,,,,,,,,,,,,,,,2989.1251004999503,2989.1418466999894,2989.6268683000235,,,,,,,,,,,,,,,,,,,,2989.656630099984,2989.6778401000192,2989.6778401000192,2989.6778401000192,2992.6373294000514,j,2992.6373745000456,,,2992.637387900031,None,,,2.5279816000256687,0.10502419993281364,,,,,,,,,,00065,001,2026-01-20_10h45.49.248,MST_task,2024.2.0,59.73562205966894,2026-01-20 10h46.09.223422 +0530,
,Scenes\034a.jpg,13,0,14,,,,,j,None,,,2.055884400033392,0.09671139996498823,,,,14,0,13,2992.6539233999792,,,,,,,,,,,,,,,,,,,,,,,,,,,,,,2992.63746290002,2992.6539233999792,2993.1399294000585,,,,,,,,,,,,,,,,,,,,2993.1769214000087,2993.1898668999784,2993.1898668999784,2993.1898668999784,2996.1496698999545,j,2996.149725400028,,,2996.1497388000134,None,,,2.055884400033392,0.09671139996498823,,,,,,,,,,00065,001,2026-01-20_10h45.49.248,MST_task,2024.2.0,59.73562205966894,2026-01-20 10h46.09.223422 +0530,
,Objects\051a.jpg,14,0,15,,,,,f,None,,,1.672681099968031,0.1117506999289617,,,,15,0,14,2996.166347200051,,,,,,,,,,,,,,,,,,,,,,,,,,,,,,2996.149856599979,2996.166347200051,2996.6514293999644,,,,,,,,,,,,,,,,,,,,2996.675328399986,2996.685686800047,2996.685686800047,2996.685686800047,2999.6619675999973,f,2999.663329700008,,,2999.6633465000195,None,,,1.672681099968031,0.1117506999289617,,,,,,,,,,00065,001,2026-01-20_10h45.49.248,MST_task,2024.2.0,59.73562205966894,2026-01-20 10h46.09.223422 +0530,
,Objects\077a.jpg,15,0,16,,,,,j,None,,,1.0567730000475422,0.0966708998894319,,,,16,0,15,2999.6787052999716,,,,,,,,,,,,,,,,,,,,,,,,,,,,,,2999.6634181999834,2999.6787052999716,3000.163733000052,,,,,,,,,,,,,,,,,,,,3000.1861029999563,3000.197085599997,3000.197085599997,3000.197085599997,3003.174237200059,j,3003.1742856999626,,,3003.1742980000563,None,,,1.0567730000475422,0.0966708998894319,,,,,,,,,,00065,001,2026-01-20_10h45.49.248,MST_task,2024.2.0,59.73562205966894,2026-01-20 10h46.09.223422 +0530,
,Objects\162a.jpg,16,0,17,,,,,f,None,,,1.6564163999864832,0.13682979997247458,,,,17,0,16,3003.190816199989,,,,,,,,,,,,,,,,,,,,,,,,,,,,,,3003.1744518999476,3003.190816199989,3003.676003300003,,,,,,,,,,,,,,,,,,,,3003.698976899963,3003.7092511999654,3003.7092511999654,3003.7092511999654,3006.6865336999763,f,3006.68659269996,,,3006.686606799951,None,,,1.6564163999864832,0.13682979997247458,,,,,,,,,,00065,001,2026-01-20_10h45.49.248,MST_task,2024.2.0,59.73562205966894,2026-01-20 10h46.09.223422 +0530,
,Objects\110a.jpg,17,0,18,,,,,f,None,,,2.073358600027859,0.152062900015153,,,,18,0,17,3006.703123299987,,,,,,,,,,,,,,,,,,,,,,,,,,,,,,3006.686675200006,3006.703123299987,3007.1883560999995,,,,,,,,,,,,,,,,,,,,3007.209170200047,3007.2215627999976,3007.2215627999976,3007.2215627999976,3010.198867200059,f,3010.1989118000492,,,3010.198923900025,None,,,2.073358600027859,0.152062900015153,,,,,,,,,,00065,001,2026-01-20_10h45.49.248,MST_task,2024.2.0,59.73562205966894,2026-01-20 10h46.09.223422 +0530,
,Objects\026a.jpg,18,0,19,,,,,f,None,,,1.9366942999185994,0.15196110005490482,,,,19,0,18,3010.2156943000155,,,,,,,,,,,,,,,,,,,,,,,,,,,,,,3010.1989936999744,3010.2156943000155,3010.700671300059,,,,,,,,,,,,,,,,,,,,3010.7226999000413,3010.7341373000527,3010.7341373000527,3010.7341373000527,3013.7115815000143,f,3013.7116332000587,,,3013.7116458000382,None,,,1.9366942999185994,0.15196110005490482,,,,,,,,,,00065,001,2026-01-20_10h45.49.248,MST_task,2024.2.0,59.73562205966894,2026-01-20 10h46.09.223422 +0530,
,Objects\040a.jpg,19,0,20,,,,,f,None,,,1.7595054999692366,0.1279845000244677,,,,20,0,19,3013.7277116000187,,,,,,,,,,,,,,,,,,,,,,,,,,,,,,3013.711763500003,3013.7277116000187,3014.2129139000317,,,,,,,,,,,,,,,,,,,,3014.236111999955,3014.2461723999586,3014.2461723999586,3014.2461723999586,3017.223302999977,f,3017.223344799946,,,3017.2233568000374,None,,,1.7595054999692366,0.1279845000244677,,,,,,,,,,00065,001,2026-01-20_10h45.49.248,MST_task,2024.2.0,59.73562205966894,2026-01-20 10h46.09.223422 +0530,
,Objects\069a.jpg,20,0,21,,,,,j,None,,,1.239124899962917,0.10439750005025417,,,,21,0,20,3017.2402662000386,,,,,,,,,,,,,,,,,,,,,,,,,,,,,,3017.2234275999945,3017.2402662000386,3017.725195899955,,,,,,,,,,,,,,,,,,,,3017.7461532000452,3017.758579800022,3017.758579800022,3017.758579800022,3020.735957899946,j,3020.7360078999773,,,3020.736020799959,None,,,1.239124899962917,0.10439750005025417,,,,,,,,,,00065,001,2026-01-20_10h45.49.248,MST_task,2024.2.0,59.73562205966894,2026-01-20 10h46.09.223422 +0530,
,Scenes\153a.jpg,21,0,22,,,,,j,None,,,1.4393107000505552,0.11960360000375658,,,,22,0,21,3020.752300400054,,,,,,,,,,,,,,,,,,,,,,,,,,,,,,3020.736131499987,3020.752300400054,3021.237513400032,,,,,,,,,,,,,,,,,,,,3021.2598252999596,3021.271111899987,3021.271111899987,3021.271111899987,3024.248449799954,j,3024.250295600039,,,3024.250314099947,None,,,1.4393107000505552,0.11960360000375658,,,,,,,,,,00065,001,2026-01-20_10h45.49.248,MST_task,2024.2.0,59.73562205966894,2026-01-20 10h46.09.223422 +0530,
,Scenes\081a.jpg,22,0,23,,,,,j,None,,,1.0297690000152215,0.13675840001087636,,,,23,0,22,3024.2646108999616,,,,,,,,,,,,,,,,,,,,,,,,,,,,,,3024.2504287000047,3024.2646108999616,3024.750494600041,,,,,,,,,,,,3024.7998934000498,,,,,,,,3024.776713100029,3024.7998934000498,3024.7998934000498,3024.7998934000498,3027.760291100014,j,3027.760562899988,,,3027.7605780999875,None,,,1.0297690000152215,0.13675840001087636,,,,,,,,,,00065,001,2026-01-20_10h45.49.248,MST_task,2024.2.0,59.73562205966894,2026-01-20 10h46.09.223422 +0530,
,Scenes\090a.jpg,23,0,24,,,,,j,None,,,1.3822716000722721,0.10342769999988377,,,,24,0,23,3027.776897200034,,,,,,,,,,,,,,,,,,,,,,,,,,,,,,3027.760692700045,3027.776897200034,3028.2620977000333,,,,,,,,,,,,,,,,,,,,3028.288104300038,3028.3121870999457,3028.3121870999457,3028.3121870999457,3031.2725153999636,j,3031.2725578000536,,,3031.272594899987,None,,,1.3822716000722721,0.10342769999988377,,,,,,,,,,00065,001,2026-01-20_10h45.49.248,MST_task,2024.2.0,59.73562205966894,2026-01-20 10h46.09.223422 +0530,
,Scenes\089a.jpg,24,0,25,,,,,j,None,,,1.605595099972561,0.11214750004000962,,,,25,0,24,3031.2893307999475,,,,,,,,,,,,,,,,,,,,,,,,,,,,,,3031.2728544999845,3031.2893307999475,3031.7743233999936,,,,,,,,,,,,,,,,,,,,3031.801722700009,3031.824436099967,3031.824436099967,3031.824436099967,3034.7848966999445,j,3034.7850866999943,,,3034.7851121999556,None,,,1.605595099972561,0.11214750004000962,,,,,,,,,,00065,001,2026-01-20_10h45.49.248,MST_task,2024.2.0,59.73562205966894,2026-01-20 10h46.09.223422 +0530,
,Scenes\173a.jpg,25,0,26,,,,,j,None,,,1.254685900057666,0.10431439999956638,,,,26,0,25,3034.801489799982,,,,,,,,,,,,,,,,,,,,,,,,,,,,,,3034.7851872999454,3034.801489799982,3035.2868729999755,,,,,,,,,,,,,,,,,,,,3035.30953660002,3035.3196333999513,3035.3196333999513,3035.3196333999513,3038.297208199976,j,3038.2975086000515,,,3038.297524200054,None,,,1.254685900057666,0.10431439999956638,,,,,,,,,,00065,001,2026-01-20_10h45.49.248,MST_task,2024.2.0,59.73562205966894,2026-01-20 10h46.09.223422 +0530,
,Scenes\052a.jpg,26,0,27,,,,,None,j,0.03657039999961853,None,,,,,,27,0,26,3038.313796099974,,,,,,,,,,,,,,,,,,,,,,,,,,,,,,3038.297597100027,3038.313796099974,3038.7990074000554,,,,,,,,,,,,,,,,,,,,3038.822301200009,3038.8320034999633,3038.8320034999633,3038.8320034999633,3041.809445800027,None,3041.8094948000507,3041.8263665999984,3041.8263665999984,3041.87750209996,j,0.03657039999961853,None,,,,,,,,,,,,00065,001,2026-01-20_10h45.49.248,MST_task,2024.2.0,59.73562205966894,2026-01-20 10h46.09.223422 +0530,
,Scenes\023a.jpg,27,0,28,,,,,f,None,,,2.0166748999617994,0.12050520000047982,,,,28,0,27,3041.893888300052,,,,,,,,,,,,,,,,,,,,,,,,,,,,,,3041.877603400033,3041.893888300052,3042.3781255000504,,,,,,,,,,,,,,,,,,,,3042.4074716999894,3042.4294502000557,3042.4294502000557,3042.4294502000557,3045.3886889000423,f,3045.388880399987,,,3045.3888943999773,None,,,2.0166748999617994,0.12050520000047982,,,,,,,,,,00065,001,2026-01-20_10h45.49.248,MST_task,2024.2.0,59.73562205966894,2026-01-20 10h46.09.223422 +0530,
,Objects\149a.jpg,28,0,29,,,,,j,None,,,2.0976664000190794,0.13527570001315325,,,,29,0,28,3045.4054356999695,,,,,,,,,,,,,,,,,,,,,,,,,,,,,,3045.3889991999604,3045.4054356999695,3045.890593399992,,,,,,,,,,,,,,,,,,,,3045.915211000014,3045.9247653000057,3045.9247653000057,3045.9247653000057,3048.9011251999764,j,3048.9031563999597,,,3048.903175299987,None,,,2.0976664000190794,0.13527570001315325,,,,,,,,,,00065,001,2026-01-20_10h45.49.248,MST_task,2024.2.0,59.73562205966894,2026-01-20 10h46.09.223422 +0530,
,Objects\075a.jpg,29,0,30,,,,,f,None,,,1.1857784999301657,0.12016370007768273,,,,30,0,29,3048.91760289995,,,,,,,,,,,,,,,,,,,,,,,,,,,,,,3048.9032883000327,3048.91760289995,3049.402990099974,,,,,,,,,,,,3049.43605150003,,,,,,,,3049.423712800024,3049.43605150003,3049.43605150003,3049.43605150003,3052.4131828000536,f,3052.4132375000045,,,3052.4132501999848,None,,,1.1857784999301657,0.12016370007768273,,,,,,,,,,00065,001,2026-01-20_10h45.49.248,MST_task,2024.2.0,59.73562205966894,2026-01-20 10h46.09.223422 +0530,
,Objects\082a.jpg,30,0,31,,,,,j,None,,,2.362031599972397,0.09640549996402115,,,,31,0,30,3052.430011600023,,,,,,,,,,,,,,,,,,,,,,,,,,,,,,3052.4135216999566,3052.430011600023,3052.915041500004,,,,,,,,,,,,,,,,,,,,3052.9394438000163,3052.9487073000055,3052.9487073000055,3052.9487073000055,3055.925754499971,j,3055.9259463000344,,,3055.925960200024,None,,,2.362031599972397,0.09640549996402115,,,,,,,,,,00065,001,2026-01-20_10h45.49.248,MST_task,2024.2.0,59.73562205966894,2026-01-20 10h46.09.223422 +0530,
,Objects\169a.jpg,31,0,32,,,,,f,None,,,2.3850312000140548,0.12035460001789033,,,,32,0,31,3055.9421938000014,,,,,,,,,,,,,,,,,,,,,,,,,,,,,,3055.9260848000413,3055.9421938000014,3056.4274038999574,,,,,,,,,,,,,,,,,,,,3056.450634800014,3056.4606403999496,3056.4606403999496,3056.4606403999496,3059.437920999946,f,3059.437963000033,,,3059.4379747000057,None,,,2.3850312000140548,0.12035460001789033,,,,,,,,,,00065,001,2026-01-20_10h45.49.248,MST_task,2024.2.0,59.73562205966894,2026-01-20 10h46.09.223422 +0530,
,Objects\104a.jpg,32,0,33,,,,,f,None,,,0.9287127000279725,0.11309870006516576,,,,33,0,32,3059.4545022000093,,,,,,,,,,,,,,,,,,,,,,,,,,,,,,3059.4380431999452,3059.4545022000093,3059.939972299966,,,,,,,,,,,,,,,,,,,,3059.961122000008,3059.9731136000482,3059.9731136000482,3059.9731136000482,3062.9502513000043,f,3062.9502941999817,,,3062.9503062999574,None,,,0.9287127000279725,0.11309870006516576,,,,,,,,,,00065,001,2026-01-20_10h45.49.248,MST_task,2024.2.0,59.73562205966894,2026-01-20 10h46.09.223422 +0530,
,Objects\112a.jpg,33,0,34,,,,,j,None,,,1.1613348999526352,0.08799770008772612,,,,34,0,33,3062.9670732000377,,,,,,,,,,,,,,,,,,,,,,,,,,,,,,3062.9504131999565,3062.9670732000377,3063.4519506000215,,,,,,,,,,,,,,,,,,,,3063.4727625000523,3063.4853661999805,3063.4853661999805,3063.4853661999805,3066.462507499964,j,3066.462814999977,,,3066.4628275999567,None,,,1.1613348999526352,0.08799770008772612,,,,,,,,,,00065,001,2026-01-20_10h45.49.248,MST_task,2024.2.0,59.73562205966894,2026-01-20 10h46.09.223422 +0530,
,Objects\058a.jpg,34,0,35,,,,,f,None,,,2.3280956000089645,0.12115799996536225,,,,35,0,34,3066.4791175000137,,,,,,,,,,,,,,,,,,,,,,,,,,,,,,3066.4628969000187,3066.4791175000137,3066.9643059000373,,,,,,,,,,,,,,,,,,,,3066.9849465000443,3066.997535399976,3066.997535399976,3066.997535399976,3069.974714700016,f,3069.9747615000233,,,3069.974774900009,None,,,2.3280956000089645,0.12115799996536225,,,,,,,,,,00065,001,2026-01-20_10h45.49.248,MST_task,2024.2.0,59.73562205966894,2026-01-20 10h46.09.223422 +0530,
,Scenes\084a.jpg,35,0,36,,,,,j,None,,,1.3180098000448197,0.15364089992363006,,,,36,0,35,3069.9916419000365,,,,,,,,,,,,,,,,,,,,,,,,,,,,,,3069.974886800046,3069.9916419000365,3070.47647600004,,,,,,,,,,,,,,,,,,,,3070.504671899951,3070.5277485999977,3070.5277485999977,3070.5277485999977,3073.487044199952,j,3073.4884805999463,,,3073.4884999999776,None,,,1.3180098000448197,0.15364089992363006,,,,,,,,,,00065,001,2026-01-20_10h45.49.248,MST_task,2024.2.0,59.73562205966894,2026-01-20 10h46.09.223422 +0530,
,Scenes\134a.jpg,36,0,37,,,,,j,None,,,1.6695717999245971,0.11281560000497848,,,,37,0,36,3073.503807400004,,,,,,,,,,,,,,,,,,,,,,,,,,,,,,3073.488610100001,3073.503807400004,3073.988777199993,,,,,,,,,,,,,,,,,,,,3074.0133603999857,3074.040073400014,3074.040073400014,3074.040073400014,3076.999271900044,j,3076.9993127000052,,,3076.999325199984,None,,,1.6695717999245971,0.11281560000497848,,,,,,,,,,00065,001,2026-01-20_10h45.49.248,MST_task,2024.2.0,59.73562205966894,2026-01-20 10h46.09.223422 +0530,
,Scenes\078a.jpg,37,0,38,,,,,None,j,1.7821771000744775,None,,,,,,38,0,37,3077.0162177999737,,,,,,,,,,,,,,,,,,,,,,,,,,,,,,3076.9994553000433,3077.0162177999737,3077.5010789999506,,,,,,,,,,,,,,,,,,,,3077.5250421999954,3077.5511601000326,3077.5511601000326,3077.5511601000326,3080.5122914999956,None,3080.5123393000104,3080.528384599951,3080.528384599951,3082.3187601000536,j,1.7821771000744775,None,,,,,,,,,,,,00065,001,2026-01-20_10h45.49.248,MST_task,2024.2.0,59.73562205966894,2026-01-20 10h46.09.223422 +0530,
,Scenes\110a.jpg,38,0,39,,,,,j,None,,,1.3687579999677837,0.09610560000874102,,,,39,0,38,3082.3346118000336,,,,,,,,,,,,,,,,,,,,,,,,,,,,,,3082.3189008999616,3082.3346118000336,3082.8199357000412,,,,,,,,,,,,,,,,,,,,3082.843008500058,3082.8533515000017,3082.8533515000017,3082.8533515000017,3085.830347900046,j,3085.8303949000547,,,3085.8304073000327,None,,,1.3687579999677837,0.09610560000874102,,,,,,,,,,00065,001,2026-01-20_10h45.49.248,MST_task,2024.2.0,59.73562205966894,2026-01-20 10h46.09.223422 +0530,
,Scenes\183a.jpg,39,0,40,,,,,f,None,,,1.9201474000001326,0.12750149995554239,,,,40,0,39,3085.8470004999544,,,,,,,,,,,,,,,,,,,,,,,,,,,,,,3085.830524399993,3085.8470004999544,3086.332259100047,,,,,,,,,,,,,,,,,,,,3086.3564381999895,3086.3823206999805,3086.3823206999805,3086.3823206999805,3089.342514800024,f,3089.3425689999713,,,3089.3425813999493,None,,,1.9201474000001326,0.12750149995554239,,,,,,,,,,00065,001,2026-01-20_10h45.49.248,MST_task,2024.2.0,59.73562205966894,2026-01-20 10h46.09.223422 +0530,
,Scenes\131a.jpg,40,0,41,,,,,j,None,,,1.8561190000036731,0.10603200003970414,,,,41,0,40,3089.3593342000386,,,,,,,,,,,,,,,,,,,,,,,,,,,,,,3089.3428420999553,3089.3593342000386,3089.8444641999668,,,,,,,,,,,,,,,,,,,,3089.8666279000463,3089.8775981999934,3089.8775981999934,3089.8775981999934,3092.854800399975,j,3092.8548422999447,,,3092.8548550000414,None,,,1.8561190000036731,0.10603200003970414,,,,,,,,,,00065,001,2026-01-20_10h45.49.248,MST_task,2024.2.0,59.73562205966894,2026-01-20 10h46.09.223422 +0530,
,Scenes\100a.jpg,41,0,42,,,,,f,None,,,1.4085241999709979,0.12799660000018775,,,,42,0,41,3092.871762600029,,,,,,,,,,,,,,,,,,,,,,,,,,,,,,3092.854924399988,3092.871762600029,3093.356775399996,,,,,,,,,,,,,,,,,,,,3093.380134999985,3093.3896258999594,3093.3896258999594,3093.3896258999594,3096.3671280000126,f,3096.367172500002,,,3096.367184599978,None,,,1.4085241999709979,0.12799660000018775,,,,,,,,,,00065,001,2026-01-20_10h45.49.248,MST_task,2024.2.0,59.73562205966894,2026-01-20 10h46.09.223422 +0530,
,Objects\159a.jpg,42,0,43,,,,,f,None,,,1.312226100009866,0.11842760001309216,,,,43,0,42,3096.3838113000384,,,,,,,,,,,,,,,,,,,,,,,,,,,,,,3096.367292799987,3096.3838113000384,3096.8691482000286,,,,,,,,,,,,,,,,,,,,3096.8946724999696,3096.903020799975,3096.903020799975,3096.903020799975,3099.8795325000538,f,3099.8810374999885,,,3099.8810561000137,None,,,1.312226100009866,0.11842760001309216,,,,,,,,,,00065,001,2026-01-20_10h45.49.248,MST_task,2024.2.0,59.73562205966894,2026-01-20 10h46.09.223422 +0530,
,Objects\083a.jpg,43,0,44,,,,,f,None,,,1.4557239999994636,0.12862940004561096,,,,44,0,43,3099.8961107999785,,,,,,,,,,,,,,,,,,,,,,,,,,,,,,3099.881170699955,3099.8961107999785,3100.3813309000107,,,,,,,,,,,,,,,,,,,,3100.4032012999523,3100.414563999977,3100.414563999977,3100.414563999977,3103.3917123000138,f,3103.3917538999813,,,3103.3917660999577,None,,,1.4557239999994636,0.12862940004561096,,,,,,,,,,00065,001,2026-01-20_10h45.49.248,MST_task,2024.2.0,59.73562205966894,2026-01-20 10h46.09.223422 +0530,
,Objects\088a.jpg,44,0,45,,,,,j,None,,,2.231182000017725,0.11993199994321913,,,,45,0,44,3103.408537799958,,,,,,,,,,,,,,,,,,,,,,,,,,,,,,3103.391835300019,3103.408537799958,3103.8935425999807,,,,,,,,,,,,,,,,,,,,3103.916150899953,3103.9269666000037,3103.9269666000037,3103.9269666000037,3106.9041213999735,j,3106.9041774000507,,,3106.9041898000287,None,,,2.231182000017725,0.11993199994321913,,,,,,,,,,00065,001,2026-01-20_10h45.49.248,MST_task,2024.2.0,59.73562205966894,2026-01-20 10h46.09.223422 +0530,
,Objects\035a.jpg,45,0,46,,,,,j,None,,,1.839120400021784,0.1280391999753192,,,,46,0,45,3106.920834699995,,,,,,,,,,,,,,,,,,,,,,,,,,,,,,3106.904301099945,3106.920834699995,3107.4060260000406,,,,,,,,,,,,,,,,,,,,3107.4281543999678,3107.4391473999713,3107.4391473999713,3107.4391473999713,3110.4162972000195,j,3110.4165145000443,,,3110.4165873000165,None,,,1.839120400021784,0.1280391999753192,,,,,,,,,,00065,001,2026-01-20_10h45.49.248,MST_task,2024.2.0,59.73562205966894,2026-01-20 10h46.09.223422 +0530,
,Objects\025a.jpg,46,0,47,,,,,j,None,,,1.054762399988249,0.10507760010659695,,,,47,0,46,3110.43314800004,,,,,,,,,,,,,,,,,,,,,,,,,,,,,,3110.416741800029,3110.43314800004,3110.91813060001,,,,,,,,,,,,,,,,,,,,3110.939953300054,3110.951637299964,3110.951637299964,3110.951637299964,3113.9288629000075,j,3113.9289805999724,,,3113.9290392999537,None,,,1.054762399988249,0.10507760010659695,,,,,,,,,,00065,001,2026-01-20_10h45.49.248,MST_task,2024.2.0,59.73562205966894,2026-01-20 10h46.09.223422 +0530,
,Objects\157a.jpg,47,0,48,,,,,f,None,,,0.8535955999977887,0.12986169999931008,,,,48,0,47,3113.9454277999466,,,,,,,,,,,,,,,,,,,,,,,,,,,,,,3113.9291581000434,3113.9454277999466,3114.4303936000215,,,,,,,,,,,,,,,,,,,,3114.4543406999437,3114.463941400056,3114.463941400056,3114.463941400056,3117.441508800024,f,3117.4416253999807,,,3117.441667099949,None,,,0.8535955999977887,0.12986169999931008,,,,,,,,,,00065,001,2026-01-20_10h45.49.248,MST_task,2024.2.0,59.73562205966894,2026-01-20 10h46.09.223422 +0530,
,Objects\173a.jpg,48,0,49,,,,,f,None,,,2.8619302000151947,None,,,,49,0,48,3117.457763100043,,,,,,,,,,,,,,,,,,,,,,,,,,,,,,3117.441777799977,3117.457763100043,3117.942979400046,,,,,,,,,,,,,,,,,,,,3117.9653308000416,3117.976209699991,3117.976209699991,3117.976209699991,3120.953187100007,f,3120.9532428999664,,,3120.9532551999437,None,,,2.8619302000151947,None,,,,,,,,,,00065,001,2026-01-20_10h45.49.248,MST_task,2024.2.0,59.73562205966894,2026-01-20 10h46.09.223422 +0530,
,Scenes\080a.jpg,49,0,50,,,,,j,None,,,1.509978000074625,0.08086329989600927,,,,50,0,49,3120.97003159998,,,,,,,,,,,,,,,,,,,,,,,,,,,,,,3120.953362899949,3120.97003159998,3121.4552625999786,,,,,,,,,,,,,,,,,,,,3121.477978299954,3121.4880531999515,3121.4880531999515,3121.4880531999515,3124.465754100005,j,3124.4673563999822,,,3124.4673731999937,None,,,1.509978000074625,0.08086329989600927,,,,,,,,,,00065,001,2026-01-20_10h45.49.248,MST_task,2024.2.0,59.73562205966894,2026-01-20 10h46.09.223422 +0530,
,Scenes\169a.jpg,50,0,51,,,,,j,None,,,1.3175676999380812,0.09636970004066825,,,,51,0,50,3124.4822063000174,,,,,,,,,,,,,,,,,,,,,,,,,,,,,,3124.467481300002,3124.4822063000174,3124.968079400016,,,,,,,,,,,,,,,,,,,,3124.990929499967,3125.0004727999913,3125.0004727999913,3125.0004727999913,3127.9778966000304,j,3127.978096100036,,,3127.9781087000156,None,,,1.3175676999380812,0.09636970004066825,,,,,,,,,,00065,001,2026-01-20_10h45.49.248,MST_task,2024.2.0,59.73562205966894,2026-01-20 10h46.09.223422 +0530,
,Scenes\077a.jpg,51,0,52,,,,,j,None,,,2.718491500010714,0.07923239993397146,,,,52,0,51,3127.9945010000374,,,,,,,,,,,,,,,,,,,,,,,,,,,,,,3127.9781819999916,3127.9945010000374,3128.4796891000587,,,,,,,,,,,,,,,,,,,,3128.5040235000197,3128.5125807999866,3128.5125807999866,3128.5125807999866,3131.4902508000378,j,3131.4902991000563,,,3131.4903118000366,None,,,2.718491500010714,0.07923239993397146,,,,,,,,,,00065,001,2026-01-20_10h45.49.248,MST_task,2024.2.0,59.73562205966894,2026-01-20 10h46.09.223422 +0530,
,Scenes\157a.jpg,52,0,53,,,,,j,None,,,0.9720620999578387,0.07914839999284595,,,,53,0,52,3131.5069205999607,,,,,,,,,,,,,,,,,,,,,,,,,,,,,,3131.4903814999852,3131.5069205999607,3131.9926128999796,,,,,,,,,,,,,,,,,,,,3132.015498899971,3132.0426545999944,3132.0426545999944,3132.0426545999944,3135.0025069999974,j,3135.002713600057,,,3135.0027268000413,None,,,0.9720620999578387,0.07914839999284595,,,,,,,,,,00065,001,2026-01-20_10h45.49.248,MST_task,2024.2.0,59.73562205966894,2026-01-20 10h46.09.223422 +0530,
,Scenes\013a.jpg,53,0,54,,,,,j,None,,,2.531696300022304,0.08851140004117042,,,,54,0,53,3135.0191117000068,,,,,,,,,,,,,,,,,,,,,,,,,,,,,,3135.0028507000534,3135.0191117000068,3135.5043294000207,,,,,,,,,,,,,,,,,,,,3135.5287844999693,3135.5543878000462,3135.5543878000462,3135.5543878000462,3138.514708600007,j,3138.5147509999806,,,3138.51476359996,None,,,2.531696300022304,0.08851140004117042,,,,,,,,,,00065,001,2026-01-20_10h45.49.248,MST_task,2024.2.0,59.73562205966894,2026-01-20 10h46.09.223422 +0530,
,Scenes\126a.jpg,54,0,55,,,,,j,None,,,1.972785699996166,0.0795068999286741,,,,55,0,54,3138.5315232999856,,,,,,,,,,,,,,,,,,,,,,,,,,,,,,3138.5150135000004,3138.5315232999856,3139.016739899991,,,,,,,,,,,,,,,,,,,,3139.038365000044,3139.0496733000036,3139.0496733000036,3139.0496733000036,3142.027013599989,j,3142.027057599975,,,3142.027070799959,None,,,1.972785699996166,0.0795068999286741,,,,,,,,,,00065,001,2026-01-20_10h45.49.248,MST_task,2024.2.0,59.73562205966894,2026-01-20 10h46.09.223422 +0530,
,Scenes\145a.jpg,55,0,56,,,,,j,None,,,2.1238011000677943,0.12735730002168566,,,,56,0,55,3142.0438226000406,,,,,,,,,,,,,,,,,,,,,,,,,,,,,,3142.0274427999975,3142.0438226000406,3142.5288187999977,,,,,,,,,,,,,,,,,,,,3142.554213800002,3142.578867999953,3142.578867999953,3142.578867999953,3145.540079999948,j,3145.5401345000137,,,3145.540148500004,None,,,2.1238011000677943,0.12735730002168566,,,,,,,,,,00065,001,2026-01-20_10h45.49.248,MST_task,2024.2.0,59.73562205966894,2026-01-20 10h46.09.223422 +0530,
,Objects\042a.jpg,56,0,57,,,,,j,None,,,1.7542489999905229,0.09634270006790757,,,,57,0,56,3145.5562596999807,,,,,,,,,,,,,,,,,,,,,,,,,,,,,,3145.5402683999855,3145.5562596999807,3146.0413833999773,,,,,,,,,,,,,,,,,,,,3146.0659783999436,3146.075504199951,3146.075504199951,3146.075504199951,3149.051636200049,j,3149.053961000056,,,3149.0539792999625,None,,,1.7542489999905229,0.09634270006790757,,,,,,,,,,00065,001,2026-01-20_10h45.49.248,MST_task,2024.2.0,59.73562205966894,2026-01-20 10h46.09.223422 +0530,
,Objects\065a.jpg,57,0,58,,,,,j,None,,,1.6509709000820294,0.10495069995522499,,,,58,0,57,3149.0684181000106,,,,,,,,,,,,,,,,,,,,,,,,,,,,,,3149.0540499000344,3149.0684181000106,3149.553859799984,,,,,,,,,,,,3149.5868621000554,,,,,,,,3149.5746922000544,3149.5868621000554,3149.5868621000554,3149.5868621000554,3152.564019100042,j,3152.564445200027,,,3152.5644603000255,None,,,1.6509709000820294,0.10495069995522499,,,,,,,,,,00065,001,2026-01-20_10h45.49.248,MST_task,2024.2.0,59.73562205966894,2026-01-20 10h46.09.223422 +0530,
,Objects\147a.jpg,58,0,59,,,,,j,None,,,2.723076800000854,0.1051393001107499,,,,59,0,58,3152.580595999956,,,,,,,,,,,,,,,,,,,,,,,,,,,,,,3152.564573199954,3152.580595999956,3153.0659245999996,,,,,,,,,,,,,,,,,,,,3153.0892887000227,3153.099032899947,3153.099032899947,3153.099032899947,3156.0762894999934,j,3156.076344799949,,,3156.0763567000395,None,,,2.723076800000854,0.1051393001107499,,,,,,,,,,00065,001,2026-01-20_10h45.49.248,MST_task,2024.2.0,59.73562205966894,2026-01-20 10h46.09.223422 +0530,
,Objects\107a.jpg,59,0,60,,,,,j,None,,,1.1713391999946907,0.10457710002083331,,,,60,0,59,3156.0931079,,,,,,,,,,,,,,,,,,,,,,,,,,,,,,3156.076429000008,3156.0931079,3156.5781108000083,,,,,,,,,,,,,,,,,,,,3156.5987768999767,3156.6114541999996,3156.6114541999996,3156.6114541999996,3159.5885112000396,j,3159.5885666999966,,,3159.588578999974,None,,,1.1713391999946907,0.10457710002083331,,,,,,,,,,00065,001,2026-01-20_10h45.49.248,MST_task,2024.2.0,59.73562205966894,2026-01-20 10h46.09.223422 +0530,
,Objects\171a.jpg,60,0,61,,,,,j,None,,,0.9871695999754593,0.11863599997013807,,,,61,0,60,3159.605293200002,,,,,,,,,,,,,,,,,,,,,,,,,,,,,,3159.5889424999477,3159.605293200002,3160.090418100008,,,,,,,,,,,,,,,,,,,,3160.1113648000173,3160.1237612999976,3160.1237612999976,3160.1237612999976,3163.101099499967,j,3163.1011456999695,,,3163.1011585999513,None,,,0.9871695999754593,0.11863599997013807,,,,,,,,,,00065,001,2026-01-20_10h45.49.248,MST_task,2024.2.0,59.73562205966894,2026-01-20 10h46.09.223422 +0530,
,Objects\182a.jpg,61,0,62,,,,,None,j,1.312125900061801,None,,,,,,62,0,61,3163.117498000036,,,,,,,,,,,,,,,,,,,,,,,,,,,,,,3163.101309700054,3163.117498000036,3163.602874299977,,,,,,,,,,,,,,,,,,,,3163.624582999968,3163.636020099977,3163.636020099977,3163.636020099977,3166.6135205000173,None,3166.6135591999628,3166.62979669997,3166.62979669997,3167.952037299983,j,1.312125900061801,None,,,,,,,,,,,,00065,001,2026-01-20_10h45.49.248,MST_task,2024.2.0,59.73562205966894,2026-01-20 10h46.09.223422 +0530,
,Objects\036a.jpg,62,0,63,,,,,j,None,,,1.5674053999828175,0.09607630001846701,,,,63,0,62,3167.9678116999567,,,,,,,,,,,,,,,,,,,,,,,,,,,,,,3167.9521291999845,3167.9678116999567,3168.4530241000466,,,,,,,,,,,,,,,,,,,,3168.4748861000407,3168.486256700009,3168.486256700009,3168.486256700009,3171.463394499966,j,3171.463449700037,,,3171.4634618000127,None,,,1.5674053999828175,0.09607630001846701,,,,,,,,,,00065,001,2026-01-20_10h45.49.248,MST_task,2024.2.0,59.73562205966894,2026-01-20 10h46.09.223422 +0530,
,Scenes\009a.jpg,63,0,64,,,,,f,None,,,2.205736399977468,0.12820559996180236,,,,64,0,63,3171.4803322999505,,,,,,,,,,,,,,,,,,,,,,,,,,,,,,3171.463530799956,3171.4803322999505,3171.9651912000263,,,,,,,,,,,,,,,,,,,,3171.9963456999976,3172.0164086000295,3172.0164086000295,3172.0164086000295,3174.9756920000073,f,3174.9770650999853,,,3174.9770828000037,None,,,2.205736399977468,0.12820559996180236,,,,,,,,,,00065,001,2026-01-20_10h45.49.248,MST_task,2024.2.0,59.73562205966894,2026-01-20 10h46.09.223422 +0530,
,Scenes\186a.jpg,64,0,65,,,,,None,f,0.5732496000127867,None,,,,,,65,0,64,3174.99253259995,,,,,,,,,,,,,,,,,,,,,,,,,,,,,,3174.9771540999645,3174.99253259995,3175.477492899983,,,,,,,,,,,,,,,,,,,,3175.50125500001,3175.528334600036,3175.528334600036,3175.528334600036,3178.4881229000166,None,3178.4881608999567,3178.504693099996,3178.504693099996,3179.0906694000587,f,0.5732496000127867,None,,,,,,,,,,,,00065,001,2026-01-20_10h45.49.248,MST_task,2024.2.0,59.73562205966894,2026-01-20 10h46.09.223422 +0530,
,Scenes\190a.jpg,65,0,66,,,,,j,None,,,1.3227958000497892,0.10373579990118742,,,,66,0,65,3179.1074721999466,,,,,,,,,,,,,,,,,,,,,,,,,,,,,,3179.090762399952,3179.1074721999466,3179.5922871000366,,,,,,,,,,,,,,,,,,,,3179.6199576000217,3179.6430395999923,3179.6430395999923,3179.6430395999923,3182.6027322999435,j,3182.6027760000434,,,3182.6027887000237,None,,,1.3227958000497892,0.10373579990118742,,,,,,,,,,00065,001,2026-01-20_10h45.49.248,MST_task,2024.2.0,59.73562205966894,2026-01-20 10h46.09.223422 +0530,
,Scenes\092a.jpg,66,0,67,,,,,f,None,,,2.643305200035684,0.12818629993125796,,,,67,0,66,3182.6191048000474,,,,,,,,,,,,,,,,,,,,,,,,,,,,,,3182.602858499973,3182.6191048000474,3183.1043641000288,,,,,,,,,,,,,,,,,,,,3183.1280216999585,3183.1550930000376,3183.1550930000376,3183.1550930000376,3186.1149382999865,f,3186.114991600043,,,3186.115005300031,None,,,2.643305200035684,0.12818629993125796,,,,,,,,,,00065,001,2026-01-20_10h45.49.248,MST_task,2024.2.0,59.73562205966894,2026-01-20 10h46.09.223422 +0530,
,Scenes\150a.jpg,67,0,68,,,,,j,None,,,1.3727658999850973,0.11983460001647472,,,,68,0,67,3186.1316905999556,,,,,,,,,,,,,,,,,,,,,,,,,,,,,,3186.115085999947,3186.1316905999556,3186.6166343999794,,,,,,,,,,,,,,,,,,,,3186.639187499997,3186.649403700023,3186.649403700023,3186.649403700023,3189.6271879000124,j,3189.627231099992,,,3189.6272433999693,None,,,1.3727658999850973,0.11983460001647472,,,,,,,,,,00065,001,2026-01-20_10h45.49.248,MST_task,2024.2.0,59.73562205966894,2026-01-20 10h46.09.223422 +0530,
,Scenes\086a.jpg,68,0,69,,,,,j,None,,,2.5470215999521315,0.08834909996949136,,,,69,0,68,3189.6438303999603,,,,,,,,,,,,,,,,,,,,,,,,,,,,,,3189.627624799963,3189.6438303999603,3190.1287905999925,,,,,,,,,,,,,,,,,,,,3190.1550813999493,3190.178882700042,3190.178882700042,3190.178882700042,3193.139429599978,j,3193.139476099983,,,3193.1394893999677,None,,,2.5470215999521315,0.08834909996949136,,,,,,,,,,00065,001,2026-01-20_10h45.49.248,MST_task,2024.2.0,59.73562205966894,2026-01-20 10h46.09.223422 +0530,
,Scenes\026a.jpg,69,0,70,,,,,j,None,,,2.810947999940254,0.09534580004401505,,,,70,0,69,3193.1560141999507,,,,,,,,,,,,,,,,,,,,,,,,,,,,,,3193.1395617000526,3193.1560141999507,3193.6411986999447,,,,,,,,,,,,,,,,,,,,3193.671376100043,3193.692239600001,3193.692239600001,3193.692239600001,3196.6515881000087,j,3196.651656199945,,,3196.651670600055,None,,,2.810947999940254,0.09534580004401505,,,,,,,,,,00065,001,2026-01-20_10h45.49.248,MST_task,2024.2.0,59.73562205966894,2026-01-20 10h46.09.223422 +0530,
,Objects\008a.jpg,70,0,71,,,,,f,None,,,1.4182954999851063,0.11321680003311485,,,,71,0,70,3196.6684478999814,,,,,,,,,,,,,,,,,,,,,,,,,,,,,,3196.651744700037,3196.6684478999814,3197.1534111000365,,,,,,,,,,,,,,,,,,,,3197.177275300026,3197.1880237000296,3197.1880237000296,3197.1880237000296,3200.1644222999457,f,3200.166401800001,,,3200.1664198000217,None,,,1.4182954999851063,0.11321680003311485,,,,,,,,,,00065,001,2026-01-20_10h45.49.248,MST_task,2024.2.0,59.73562205966894,2026-01-20 10h46.09.223422 +0530,
,Objects\003a.jpg,71,0,72,,,,,j,None,,,1.30781589995604,0.11090390000026673,,,,72,0,71,3200.1806024999823,,,,,,,,,,,,,,,,,,,,,,,,,,,,,,3200.1665391999995,3200.1806024999823,3200.666199599975,,,,,,,,,,,,3200.699049000046,,,,,,,,3200.6895523000276,3200.699049000046,3200.699049000046,3200.699049000046,3203.676261399989,j,3203.6763047999702,,,3203.6763170999475,None,,,1.30781589995604,0.11090390000026673,,,,,,,,,,00065,001,2026-01-20_10h45.49.248,MST_task,2024.2.0,59.73562205966894,2026-01-20 10h46.09.223422 +0530,
,Objects\192a.jpg,72,0,73,,,,,f,None,,,2.2671043999725953,0.11946289998013526,,,,73,0,72,3203.693134399946,,,,,,,,,,,,,,,,,,,,,,,,,,,,,,3203.6763910000445,3203.693134399946,3204.1780552000273,,,,,,,,,,,,,,,,,,,,3204.200158499996,3204.2114740000106,3204.2114740000106,3204.2114740000106,3207.188815600006,f,3207.1888596999925,,,3207.1888719999697,None,,,2.2671043999725953,0.11946289998013526,,,,,,,,,,00065,001,2026-01-20_10h45.49.248,MST_task,2024.2.0,59.73562205966894,2026-01-20 10h46.09.223422 +0530,
,Objects\091a.jpg,73,0,74,,,,,j,None,,,2.01080130005721,0.14396210003178567,,,,74,0,73,3207.2052132999524,,,,,,,,,,,,,,,,,,,,,,,,,,,,,,3207.1889414000325,3207.2052132999524,3207.6904155999655,,,,,,,,,,,,,,,,,,,,3207.710162500036,3207.72365239996,3207.72365239996,3207.72365239996,3210.7007897000294,j,3210.70087099995,,,3210.7008855999447,None,,,2.01080130005721,0.14396210003178567,,,,,,,,,,00065,001,2026-01-20_10h45.49.248,MST_task,2024.2.0,59.73562205966894,2026-01-20 10h46.09.223422 +0530,
,Objects\116a.jpg,74,0,75,,,,,f,None,,,1.1381223000353202,0.12788779998663813,,,,75,0,74,3210.717617699993,,,,,,,,,,,,,,,,,,,,,,,,,,,,,,3210.7009916000534,3210.717617699993,3211.2025891999947,,,,,,,,,,,,,,,,,,,,3211.223166199983,3211.2360643000575,3211.2360643000575,3211.2360643000575,3214.213230399997,f,3214.2132724999683,,,3214.2132848999463,None,,,1.1381223000353202,0.12788779998663813,,,,,,,,,,00065,001,2026-01-20_10h45.49.248,MST_task,2024.2.0,59.73562205966894,2026-01-20 10h46.09.223422 +0530,
,Objects\037a.jpg,75,0,76,,,,,f,None,,,1.1302170000271872,0.09547509998083115,,,,76,0,75,3214.2298106000526,,,,,,,,,,,,,,,,,,,,,,,,,,,,,,3214.213399100001,3214.2298106000526,3214.7151672999607,,,,,,,,,,,,,,,,,,,,3214.7381575000472,3214.74832480005,3214.74832480005,3214.74832480005,3217.7255372999934,f,3217.7255794999655,,,3217.725592199946,None,,,1.1302170000271872,0.09547509998083115,,,,,,,,,,00065,001,2026-01-20_10h45.49.248,MST_task,2024.2.0,59.73562205966894,2026-01-20 10h46.09.223422 +0530,
,Objects\190a.jpg,76,0,77,,,,,f,None,,,1.953278600005433,0.16103459999430925,,,,77,0,76,3217.742216999992,,,,,,,,,,,,,,,,,,,,,,,,,,,,,,3217.7257375000045,3217.742216999992,3218.227368599968,,,,,,,,,,,,,,,,,,,,3218.249090999947,3218.260548399994,3218.260548399994,3218.260548399994,3221.2378725999733,f,3221.23791669996,,,3221.237929300056,None,,,1.953278600005433,0.16103459999430925,,,,,,,,,,00065,001,2026-01-20_10h45.49.248,MST_task,2024.2.0,59.73562205966894,2026-01-20 10h46.09.223422 +0530,
,Scenes\149a.jpg,77,0,78,,,,,f,None,,,2.431069599930197,0.13621420005802065,,,,78,0,77,3221.254511700012,,,,,,,,,,,,,,,,,,,,,,,,,,,,,,3221.2384970999556,3221.254511700012,3221.7397758000297,,,,,,,,,,,,,,,,,,,,3221.766323299962,3221.7913496999536,3221.7913496999536,3221.7913496999536,3224.7499979999848,f,3224.7513787000207,,,3224.751396100037,None,,,2.431069599930197,0.13621420005802065,,,,,,,,,,00065,001,2026-01-20_10h45.49.248,MST_task,2024.2.0,59.73562205966894,2026-01-20 10h46.09.223422 +0530,
,Scenes\022a.jpg,78,0,79,,,,,j,None,,,1.9768833999987692,0.12014789995737374,,,,79,0,78,3224.7668257999467,,,,,,,,,,,,,,,,,,,,,,,,,,,,,,3224.7514661999885,3224.7668257999467,3225.251792600029,,,,,,,,,,,,,,,,,,,,3225.271141199977,3225.2854733000277,3225.2854733000277,3225.2854733000277,3228.262281000032,j,3228.2623378999997,,,3228.2623502999777,None,,,1.9768833999987692,0.12014789995737374,,,,,,,,,,00065,001,2026-01-20_10h45.49.248,MST_task,2024.2.0,59.73562205966894,2026-01-20 10h46.09.223422 +0530,
,Scenes\178a.jpg,79,0,80,,,,,j,None,,,2.4250666999723762,0.13516440009698272,,,,80,0,79,3228.2791176999453,,,,,,,,,,,,,,,,,,,,,,,,,,,,,,3228.2626042000484,3228.2791176999453,3228.764092699974,,,,,,,,,,,,,,,,,,,,3228.7854879000224,3228.7974980999716,3228.7974980999716,3228.7974980999716,3231.7745905000484,j,3231.774634100031,,,3231.7746472000144,None,,,2.4250666999723762,0.13516440009698272,,,,,,,,,,00065,001,2026-01-20_10h45.49.248,MST_task,2024.2.0,59.73562205966894,2026-01-20 10h46.09.223422 +0530,
,Scenes\061a.jpg,80,0,81,,,,,j,None,,,1.3753281999379396,0.11967379995621741,,,,81,0,80,3231.7915354999714,,,,,,,,,,,,,,,,,,,,,,,,,,,,,,3231.774719899986,3231.7915354999714,3232.2763853999786,,,,,,,,,,,,,,,,,,,,3232.3020872999914,3232.3106248000404,3232.3106248000404,3232.3106248000404,3235.286986000021,j,3235.2873580000596,,,3235.287373399944,None,,,1.3753281999379396,0.11967379995621741,,,,,,,,,,00065,001,2026-01-20_10h45.49.248,MST_task,2024.2.0,59.73562205966894,2026-01-20 10h46.09.223422 +0530,
,Scenes\085a.jpg,81,0,82,,,,,None,j,0.34199749992694706,None,,,,,,82,0,81,3235.3035897000227,,,,,,,,,,,,,,,,,,,,,,,,,,,,,,3235.287490900024,3235.3035897000227,3235.788816299988,,,,,,,,,,,,,,,,,,,,3235.8148768000538,3235.838766800007,3235.838766800007,3235.838766800007,3238.7993026999757,None,3238.7993393000215,3238.8158982000314,3238.8158982000314,3239.1680366999935,j,0.34199749992694706,None,,,,,,,,,,,,00065,001,2026-01-20_10h45.49.248,MST_task,2024.2.0,59.73562205966894,2026-01-20 10h46.09.223422 +0530,
,Scenes\075a.jpg,82,0,83,,,,,j,None,,,1.8878723999951035,0.13578729995060712,,,,83,0,82,3239.183852700051,,,,,,,,,,,,,,,,,,,,,,,,,,,,,,3239.1681584999897,3239.183852700051,3239.669051300036,,,,,,,,,,,,,,,,,,,,3239.6901816000463,3239.7025445000036,3239.7025445000036,3239.7025445000036,3242.6795546000358,j,3242.679594999994,,,3242.679607399972,None,,,1.8878723999951035,0.13578729995060712,,,,,,,,,,00065,001,2026-01-20_10h45.49.248,MST_task,2024.2.0,59.73562205966894,2026-01-20 10h46.09.223422 +0530,
,Scenes\127a.jpg,83,0,84,,,,,j,None,,,1.9570143000455573,0.1285394000587985,,,,84,0,83,3242.6966499000555,,,,,,,,,,,,,,,,,,,,,,,,,,,,,,3242.679712699959,3242.6966499000555,3243.181646700017,,,,,,,,,,,,,,,,,,,,3243.2051050999435,3243.232638000045,3243.232638000045,3243.232638000045,3246.191719299997,j,3246.191774899955,,,3246.1917873000493,None,,,1.9570143000455573,0.1285394000587985,,,,,,,,,,00065,001,2026-01-20_10h45.49.248,MST_task,2024.2.0,59.73562205966894,2026-01-20 10h46.09.223422 +0530,
,Objects\119a.jpg,84,0,85,,,,,None,j,1.3246210999786854,None,,,,,,85,0,84,3246.208563299966,,,,,,,,,,,,,,,,,,,,,,,,,,,,,,3246.1921588999685,3246.208563299966,3246.693628499983,,,,,,,,,,,,,,,,,,,,3246.71809390001,3246.7278514000354,3246.7278514000354,3246.7278514000354,3249.7040548999794,None,3249.7062551999697,3249.7209880000446,3249.7209880000446,3251.059359899955,j,1.3246210999786854,None,,,,,,,,,,,,00065,001,2026-01-20_10h45.49.248,MST_task,2024.2.0,59.73562205966894,2026-01-20 10h46.09.223422 +0530,
,Objects\144a.jpg,85,0,86,,,,,j,None,,,1.7328543999465182,0.15199859999120235,,,,86,0,85,3251.0754855000414,,,,,,,,,,,,,,,,,,,,,,,,,,,,,,3251.059487499995,3251.0754855000414,3251.5607006000355,,,,,,,,,,,,,,,,,,,,3251.583226699964,3251.5939505000133,3251.5939505000133,3251.5939505000133,3254.5711953999707,j,3254.5712371000554,,,3254.5712491000304,None,,,1.7328543999465182,0.15199859999120235,,,,,,,,,,00065,001,2026-01-20_10h45.49.248,MST_task,2024.2.0,59.73562205966894,2026-01-20 10h46.09.223422 +0530,
,Objects\136a.jpg,86,0,87,,,,,f,None,,,0.8437118000583723,0.11994010000489652,,,,87,0,86,3254.587798899971,,,,,,,,,,,,,,,,,,,,,,,,,,,,,,3254.5713552000234,3254.587798899971,3255.0732122999616,,,,,,,,,,,,,,,,,,,,3255.09534530004,3255.106234499952,3255.106234499952,3255.106234499952,3258.0835340999765,f,3258.0835775999585,,,3258.083590400056,None,,,0.8437118000583723,0.11994010000489652,,,,,,,,,,00065,001,2026-01-20_10h45.49.248,MST_task,2024.2.0,59.73562205966894,2026-01-20 10h46.09.223422 +0530,
,Objects\056a.jpg,87,0,88,,,,,None,f,0.13744489999953657,None,,,,,,88,0,87,3258.100212499965,,,,,,,,,,,,,,,,,,,,,,,,,,,,,,3258.0837316999678,3258.100212499965,3258.585162000032,,,,,,,,,,,,,,,,,,,,3258.606525399955,3258.6187907999847,3258.6187907999847,3258.6187907999847,3261.5959881000454,None,3261.5960344000487,3261.612397399964,3261.612397399964,3261.763684500009,f,0.13744489999953657,None,,,,,,,,,,,,00065,001,2026-01-20_10h45.49.248,MST_task,2024.2.0,59.73562205966894,2026-01-20 10h46.09.223422 +0530,
,Objects\172a.jpg,88,0,89,,,,,j,None,,,1.7002329000970349,0.11277479992713779,,,,89,0,88,3261.779643799993,,,,,,,,,,,,,,,,,,,,,,,,,,,,,,3261.763771899976,3261.779643799993,3262.265028199996,,,,,,,,,,,,,,,,,,,,3262.286659699981,3262.298091799952,3262.298091799952,3262.298091799952,3265.2753795000026,j,3265.27542239998,,,3265.2754346999573,None,,,1.7002329000970349,0.11277479992713779,,,,,,,,,,00065,001,2026-01-20_10h45.49.248,MST_task,2024.2.0,59.73562205966894,2026-01-20 10h46.09.223422 +0530,
,Objects\017a.jpg,89,0,90,,,,,f,None,,,2.9161049000686035,None,,,,90,0,89,3265.2920563999796,,,,,,,,,,,,,,,,,,,,,,,,,,,,,,3265.275536900037,3265.2920563999796,3265.777163099963,,,,,,,,,,,,,,,,,,,,3265.798047899967,3265.8105860999785,3265.8105860999785,3265.8105860999785,3268.7876690999838,f,3268.7877102999482,,,3268.7877224000404,None,,,2.9161049000686035,None,,,,,,,,,,00065,001,2026-01-20_10h45.49.248,MST_task,2024.2.0,59.73562205966894,2026-01-20 10h46.09.223422 +0530,
,Objects\179a.jpg,90,0,91,,,,,f,None,,,1.7638306999579072,0.13586360006593168,,,,91,0,90,3268.8042595000006,,,,,,,,,,,,,,,,,,,,,,,,,,,,,,3268.7878055999754,3268.8042595000006,3269.289483599947,,,,,,,,,,,,,,,,,,,,3269.310574700008,3269.322683300008,3269.322683300008,3269.322683300008,3272.3000649999594,f,3272.3002598000458,,,3272.3002748000436,None,,,1.7638306999579072,0.13586360006593168,,,,,,,,,,00065,001,2026-01-20_10h45.49.248,MST_task,2024.2.0,59.73562205966894,2026-01-20 10h46.09.223422 +0530,
,Scenes\106a.jpg,91,0,92,,,,,j,None,,,1.4415563999209553,0.12024070008192211,,,,92,0,91,3272.3166723999893,,,,,,,,,,,,,,,,,,,,,,,,,,,,,,3272.3003849999513,3272.3166723999893,3272.8017365999985,,,,,,,,,,,,,,,,,,,,3272.8279501999496,3272.852481400012,3272.852481400012,3272.852481400012,3275.8122624000534,j,3275.8139950999757,,,3275.814012399991,None,,,1.4415563999209553,0.12024070008192211,,,,,,,,,,00065,001,2026-01-20_10h45.49.248,MST_task,2024.2.0,59.73562205966894,2026-01-20 10h46.09.223422 +0530,
,Scenes\074a.jpg,92,0,93,,,,,j,None,,,1.427056899992749,0.11154279997572303,,,,93,0,92,3275.828840799979,,,,,,,,,,,,,,,,,,,,,,,,,,,,,,3275.8141366000054,3275.828840799979,3276.3143243000377,,,,,,,,,,,,3276.34728560003,,,,,,,,3276.330215199967,3276.34728560003,3276.34728560003,3276.34728560003,3279.3246904000407,j,3279.3247327000136,,,3279.3247451999923,None,,,1.427056899992749,0.11154279997572303,,,,,,,,,,00065,001,2026-01-20_10h45.49.248,MST_task,2024.2.0,59.73562205966894,2026-01-20 10h46.09.223422 +0530,
,Scenes\033a.jpg,93,0,94,,,,,j,None,,,1.713055400061421,0.08100359991658479,,,,94,0,93,3279.341520900023,,,,,,,,,,,,,,,,,,,,,,,,,,,,,,3279.3248553000158,3279.341520900023,3279.8265122000594,,,,,,,,,,,,,,,,,,,,3279.8475990999723,3279.861535700038,3279.861535700038,3279.861535700038,3282.836737500038,j,3282.836780900019,,,3282.8367934999987,None,,,1.713055400061421,0.08100359991658479,,,,,,,,,,00065,001,2026-01-20_10h45.49.248,MST_task,2024.2.0,59.73562205966894,2026-01-20 10h46.09.223422 +0530,
,Scenes\154a.jpg,94,0,95,,,,,j,None,,,1.1059240000322461,0.10353309998754412,,,,95,0,94,3282.853643600014,,,,,,,,,,,,,,,,,,,,,,,,,,,,,,3282.8368656999664,3282.853643600014,3283.3386813000543,,,,,,,,,,,,,,,,,,,,3283.3587778999936,3283.372285600053,3283.372285600053,3283.372285600053,3286.3494301999453,j,3286.3494768999517,,,3286.349489400047,None,,,1.1059240000322461,0.10353309998754412,,,,,,,,,,00065,001,2026-01-20_10h45.49.248,MST_task,2024.2.0,59.73562205966894,2026-01-20 10h46.09.223422 +0530,
,Scenes\140a.jpg,95,0,96,,,,,j,None,,,1.2167091000592336,0.1045285000000149,,,,96,0,95,3286.365741000045,,,,,,,,,,,,,,,,,,,,,,,,,,,,,,3286.3496102000354,3286.365741000045,3286.8509629999753,,,,,,,,,,,,,,,,,,,,3286.8701325999573,3286.8852517999476,3286.8852517999476,3286.8852517999476,3289.8613813000266,j,3289.861428400036,,,3289.861440800014,None,,,1.2167091000592336,0.1045285000000149,,,,,,,,,,00065,001,2026-01-20_10h45.49.248,MST_task,2024.2.0,59.73562205966894,2026-01-20 10h46.09.223422 +0530,
,Scenes\065a.jpg,96,0,97,,,,,j,None,,,1.0495767999673262,0.11195719998795539,,,,97,0,96,3289.8781464999774,,,,,,,,,,,,,,,,,,,,,,,,,,,,,,3289.861554999952,3289.8781464999774,3290.363127700053,,,,,,,,,,,,,,,,,,,,3290.3858690999914,3290.396576500032,3290.396576500032,3290.396576500032,3293.373624800006,j,3293.3736881000223,,,3293.373704300029,None,,,1.0495767999673262,0.11195719998795539,,,,,,,,,,00065,001,2026-01-20_10h45.49.248,MST_task,2024.2.0,59.73562205966894,2026-01-20 10h46.09.223422 +0530,
,Scenes\018a.jpg,97,0,98,,,,,j,None,,,1.4413723000325263,0.12795369990635663,,,,98,0,97,3293.390447700047,,,,,,,,,,,,,,,,,,,,,,,,,,,,,,3293.3740914999507,3293.390447700047,3293.8755105000455,,,,,,,,,,,,,,,,,,,,3293.8954896000214,3293.9087727000006,3293.9087727000006,3293.9087727000006,3296.8859580999706,j,3296.88601440005,,,3296.886027300032,None,,,1.4413723000325263,0.12795369990635663,,,,,,,,,,00065,001,2026-01-20_10h45.49.248,MST_task,2024.2.0,59.73562205966894,2026-01-20 10h46.09.223422 +0530,
,Objects\001a.jpg,98,0,99,,,,,f,None,,,1.528751700068824,0.11222080001607537,,,,99,0,98,3296.90275020001,,,,,,,,,,,,,,,,,,,,,,,,,,,,,,3296.886359700002,3296.90275020001,3297.3877196999965,,,,,,,,,,,,,,,,,,,,3297.4141492999624,3297.421148000052,3297.421148000052,3297.421148000052,3300.3982191999676,f,3300.3998031000374,,,3300.399821200059,None,,,1.528751700068824,0.11222080001607537,,,,,,,,,,00065,001,2026-01-20_10h45.49.248,MST_task,2024.2.0,59.73562205966894,2026-01-20 10h46.09.223422 +0530,
,Objects\047a.jpg,99,0,100,,,,,f,None,,,1.1058863999787718,0.11832509993109852,,,,100,0,99,3300.4151660000207,,,,,,,,,,,,,,,,,,,,,,,,,,,,,,3300.3998972000554,3300.4151660000207,3300.900018400047,,,,,,,,,,,,,,,,,,,,3300.9223315999843,3300.93351100001,3300.93351100001,3300.93351100001,3303.9106450000545,f,3303.9106890000403,,,3303.9107014000183,None,,,1.1058863999787718,0.11832509993109852,,,,,,,,,,00065,001,2026-01-20_10h45.49.248,MST_task,2024.2.0,59.73562205966894,2026-01-20 10h46.09.223422 +0530,
,Objects\129a.jpg,100,0,101,,,,,f,None,,,1.0877219999674708,0.13639350002631545,,,,101,0,100,3303.9272236999823,,,,,,,,,,,,,,,,,,,,,,,,,,,,,,3303.910810200032,3303.9272236999823,3304.412452699966,,,,,,,,,,,,,,,,,,,,3304.4353822000558,3304.4458040000172,3304.4458040000172,3304.4458040000172,3307.4231223999523,f,3307.423179400037,,,3307.423191900016,None,,,1.0877219999674708,0.13639350002631545,,,,,,,,,,00065,001,2026-01-20_10h45.49.248,MST_task,2024.2.0,59.73562205966894,2026-01-20 10h46.09.223422 +0530,
,Objects\141a.jpg,101,0,102,,,,,j,None,,,2.0161184000317007,0.11433599994052202,,,,102,0,101,3307.4395971000195,,,,,,,,,,,,,,,,,,,,,,,,,,,,,,3307.423298000009,3307.4395971000195,3307.9247398000443,,,,,,,,,,,,,,,,,,,,3307.9456033000024,3307.957971900003,3307.957971900003,3307.957971900003,3310.935126599972,j,3310.9351691999473,,,3310.935181900044,None,,,2.0161184000317007,0.11433599994052202,,,,,,,,,,00065,001,2026-01-20_10h45.49.248,MST_task,2024.2.0,59.73562205966894,2026-01-20 10h46.09.223422 +0530,
,Objects\014a.jpg,102,0,103,,,,,f,None,,,1.2399473000550643,0.08728430001065135,,,,103,0,102,3310.951938400045,,,,,,,,,,,,,,,,,,,,,,,,,,,,,,3310.935252299998,3310.951938400045,3311.436921400018,,,,,,,,,,,,,,,,,,,,3311.4579090999905,3311.470397099969,3311.470397099969,3311.470397099969,3314.447535000043,f,3314.447578100022,,,3314.447590099997,None,,,1.2399473000550643,0.08728430001065135,,,,,,,,,,00065,001,2026-01-20_10h45.49.248,MST_task,2024.2.0,59.73562205966894,2026-01-20 10h46.09.223422 +0530,
,Objects\006a.jpg,103,0,104,,,,,f,None,,,2.63943860004656,0.12023670005146414,,,,104,0,103,3314.4641389000462,,,,,,,,,,,,,,,,,,,,,,,,,,,,,,3314.4476945999777,3314.4641389000462,3314.949326299946,,,,,,,,,,,,,,,,,,,,3314.9698127999436,3314.982607700047,3314.982607700047,3314.982607700047,3317.9599190000445,f,3317.9599624000257,,,3317.9599748000037,None,,,2.63943860004656,0.12023670005146414,,,,,,,,,,00065,001,2026-01-20_10h45.49.248,MST_task,2024.2.0,59.73562205966894,2026-01-20 10h46.09.223422 +0530,
,Objects\153a.jpg,104,0,105,,,,,f,None,,,1.8560178000479937,0.11891439999453723,,,,105,0,104,3317.976541199954,,,,,,,,,,,,,,,,,,,,,,,,,,,,,,3317.9600468999706,3317.976541199954,3318.4615153999766,,,,,,,,,,,,,,,,,,,,3318.4838487999514,3318.494995599962,3318.494995599962,3318.494995599962,3321.4721521999454,f,3321.472545000026,,,3321.472564600059,None,,,1.8560178000479937,0.11891439999453723,,,,,,,,,,00065,001,2026-01-20_10h45.49.248,MST_task,2024.2.0,59.73562205966894,2026-01-20 10h46.09.223422 +0530,
,Scenes\054a.jpg,105,0,106,,,,,j,None,,,1.0709409000119194,0.11173140001483262,,,,106,0,105,3321.488728999975,,,,,,,,,,,,,,,,,,,,,,,,,,,,,,3321.4726699000457,3321.488728999975,3321.973878000048,,,,,,,,,,,,,,,,,,,,3322.0017286000075,3322.0240167999873,3322.0240167999873,3322.0240167999873,3324.988426099997,j,3324.989757500007,,,3324.9897776000435,None,,,1.0709409000119194,0.11173140001483262,,,,,,,,,,00065,001,2026-01-20_10h45.49.248,MST_task,2024.2.0,59.73562205966894,2026-01-20 10h46.09.223422 +0530,
,Scenes\165a.jpg,106,0,107,,,,,j,None,,,1.3111044000834227,0.11079349997453392,,,,107,0,106,3325.0011624000035,,,,,,,,,,,,,,,,,,,,,,,,,,,,,,3324.989895000006,3325.0011624000035,3325.4864533999935,,,,,,,,,,,,3325.519716299954,,,,,,,,3325.504241100047,3325.519716299954,3325.519716299954,3325.519716299954,3328.4967277999967,j,3328.4970371000236,,,3328.4970509000123,None,,,1.3111044000834227,0.11079349997453392,,,,,,,,,,00065,001,2026-01-20_10h45.49.248,MST_task,2024.2.0,59.73562205966894,2026-01-20 10h46.09.223422 +0530,
,Scenes\139a.jpg,107,0,108,,,,,j,None,,,0.9807096000295132,0.09602179995272309,,,,108,0,107,3328.513319200021,,,,,,,,,,,,,,,,,,,,,,,,,,,,,,3328.4971227999777,3328.513319200021,3328.998526399955,,,,,,,,,,,,,,,,,,,,3329.017873200006,3329.0328086999943,3329.0328086999943,3329.0328086999943,3332.009024500032,j,3332.009079899988,,,3332.0090916999616,None,,,0.9807096000295132,0.09602179995272309,,,,,,,,,,00065,001,2026-01-20_10h45.49.248,MST_task,2024.2.0,59.73562205966894,2026-01-20 10h46.09.223422 +0530,
,Scenes\002a.jpg,108,0,109,,,,,j,None,,,0.9876858999487013,0.12807690002955496,,,,109,0,108,3332.025616100058,,,,,,,,,,,,,,,,,,,,,,,,,,,,,,3332.009194900049,3332.025616100058,3332.510826100013,,,,,,,,,,,,,,,,,,,,3332.5383357000537,3332.562091400032,3332.562091400032,3332.562091400032,3335.521216299967,j,3335.521257400047,,,3335.5212693000212,None,,,0.9876858999487013,0.12807690002955496,,,,,,,,,,00065,001,2026-01-20_10h45.49.248,MST_task,2024.2.0,59.73562205966894,2026-01-20 10h46.09.223422 +0530,
,Scenes\167a.jpg,109,0,110,,,,,f,None,,,2.443871400086209,0.1371180999558419,,,,110,0,109,3335.5380376999965,,,,,,,,,,,,,,,,,,,,,,,,,,,,,,3335.521390400012,3335.5380376999965,3336.0230202999664,,,,,,,,,,,,,,,,,,,,3336.049140900024,3336.0745089000557,3336.0745089000557,3336.0745089000557,3339.034320899984,f,3339.0343708000146,,,3339.034383899998,None,,,2.443871400086209,0.1371180999558419,,,,,,,,,,00065,001,2026-01-20_10h45.49.248,MST_task,2024.2.0,59.73562205966894,2026-01-20 10h46.09.223422 +0530,
,Scenes\069a.jpg,110,0,111,,,,,j,None,,,0.845136999967508,0.11109170003328472,,,,111,0,110,3339.0502246000106,,,,,,,,,,,,,,,,,,,,,,,,,,,,,,3339.034498000052,3339.0502246000106,3339.5353217000375,,,,,,,,,,,,,,,,,,,,3339.5574407000095,3339.5693809000077,3339.5693809000077,3339.5693809000077,3342.546267800033,j,3342.546318699955,,,3342.5463320000563,None,,,0.845136999967508,0.11109170003328472,,,,,,,,,,00065,001,2026-01-20_10h45.49.248,MST_task,2024.2.0,59.73562205966894,2026-01-20 10h46.09.223422 +0530,
,Scenes\171a.jpg,111,0,112,,,,,f,None,,,2.4675090999808162,0.11993060004897416,,,,112,0,111,3342.5626459999476,,,,,,,,,,,,,,,,,,,,,,,,,,,,,,3342.5464517000364,3342.5626459999476,3343.0477797000203,,,,,,,,,,,,,,,,,,,,3343.078501299955,3343.0988177000545,3343.0988177000545,3343.0988177000545,3346.058590300032,f,3346.058639300056,,,3346.058652100037,None,,,2.4675090999808162,0.11993060004897416,,,,,,,,,,00065,001,2026-01-20_10h45.49.248,MST_task,2024.2.0,59.73562205966894,2026-01-20 10h46.09.223422 +0530,
,Objects\015a.jpg,112,0,113,,,,,f,None,,,1.9242952999193221,0.13570009998511523,,,,113,0,112,3346.0748346999753,,,,,,,,,,,,,,,,,,,,,,,,,,,,,,3346.0587608000496,3346.0748346999753,3346.560321200057,,,,,,,,,,,,,,,,,,,,3346.585900999955,3346.5935547000263,3346.5935547000263,3346.5935547000263,3349.570591100026,f,3349.572701600031,,,3349.5727197000524,None,,,1.9242952999193221,0.13570009998511523,,,,,,,,,,00065,001,2026-01-20_10h45.49.248,MST_task,2024.2.0,59.73562205966894,2026-01-20 10h46.09.223422 +0530,
,Objects\078a.jpg,113,0,114,,,,,f,None,,,0.9802667000330985,0.152177199954167,,,,114,0,113,3349.587126999977,,,,,,,,,,,,,,,,,,,,,,,,,,,,,,3349.572830399964,3349.587126999977,3350.0725314000156,,,,,,,,,,,,3350.1055686000036,,,,,,,,3350.0940130000236,3350.1055686000036,3350.1055686000036,3350.1055686000036,3353.0826853000326,f,3353.0827272000024,,,3353.0827391999774,None,,,0.9802667000330985,0.152177199954167,,,,,,,,,,00065,001,2026-01-20_10h45.49.248,MST_task,2024.2.0,59.73562205966894,2026-01-20 10h46.09.223422 +0530,
,Objects\186a.jpg,114,0,115,,,,,f,None,,,2.0522191000636667,0.12797559995669872,,,,115,0,114,3353.099525799975,,,,,,,,,,,,,,,,,,,,,,,,,,,,,,3353.08280860004,3353.099525799975,3353.5845297999913,,,,,,,,,,,,,,,,,,,,3353.6070747999474,3353.6179780999664,3353.6179780999664,3353.6179780999664,3356.5949976999545,f,3356.5950521000195,,,3356.5950639999937,None,,,2.0522191000636667,0.12797559995669872,,,,,,,,,,00065,001,2026-01-20_10h45.49.248,MST_task,2024.2.0,59.73562205966894,2026-01-20 10h46.09.223422 +0530,
,Objects\103a.jpg,115,0,116,,,,,j,None,,,1.8355903999181464,0.09651220007799566,,,,116,0,115,3356.6118435000535,,,,,,,,,,,,,,,,,,,,,,,,,,,,,,3356.595133600058,3356.6118435000535,3357.096807099995,,,,,,,,,,,,,,,,,,,,3357.1188718000194,3357.130335099995,3357.130335099995,3357.130335099995,3360.1077218999853,j,3360.107770100003,,,3360.107782599982,None,,,1.8355903999181464,0.09651220007799566,,,,,,,,,,00065,001,2026-01-20_10h45.49.248,MST_task,2024.2.0,59.73562205966894,2026-01-20 10h46.09.223422 +0530,
,Objects\084a.jpg,116,0,117,,,,,f,None,,,2.7479580000508577,0.06349900003988296,,,,117,0,116,3360.124015899957,,,,,,,,,,,,,,,,,,,,,,,,,,,,,,3360.1078943000175,3360.124015899957,3360.60940820002,,,,,,,,,,,,,,,,,,,,3360.63189650001,3360.642468199949,3360.642468199949,3360.642468199949,3363.61963239999,f,3363.6196901999647,,,3363.619704099954,None,,,2.7479580000508577,0.06349900003988296,,,,,,,,,,00065,001,2026-01-20_10h45.49.248,MST_task,2024.2.0,59.73562205966894,2026-01-20 10h46.09.223422 +0530,
,Objects\095a.jpg,117,0,118,,,,,f,None,,,0.9563991000177339,0.11842699989210814,,,,118,0,117,3363.6364632999757,,,,,,,,,,,,,,,,,,,,,,,,,,,,,,3363.6199995999923,3363.6364632999757,3364.121392400004,,,,,,,,,,,,,,,,,,,,3364.1429160999833,3364.1548776000272,3364.1548776000272,3364.1548776000272,3367.132033800008,f,3367.1320748999715,,,3367.1320872999495,None,,,0.9563991000177339,0.11842699989210814,,,,,,,,,,00065,001,2026-01-20_10h45.49.248,MST_task,2024.2.0,59.73562205966894,2026-01-20 10h46.09.223422 +0530,
,Objects\187a.jpg,118,0,119,,,,,f,None,,,0.7156020000111312,0.10302829998545349,,,,119,0,118,3367.148612400051,,,,,,,,,,,,,,,,,,,,,,,,,,,,,,3367.132190400036,3367.148612400051,3367.63400369999,,,,,,,,,,,,,,,,,,,,3367.656272000051,3367.6671680000145,3367.6671680000145,3367.6671680000145,3370.644237600034,f,3370.644290199969,,,3370.6443028999493,None,,,0.7156020000111312,0.10302829998545349,,,,,,,,,,00065,001,2026-01-20_10h45.49.248,MST_task,2024.2.0,59.73562205966894,2026-01-20 10h46.09.223422 +0530,
,Scenes\119a.jpg,119,0,120,,,,,j,None,,,0.9770721000386402,0.15164179995190352,,,,120,0,119,3370.661126699997,,,,,,,,,,,,,,,,,,,,,,,,,,,,,,3370.6446899999864,3370.661126699997,3371.146116000018,,,,,,,,,,,,,,,,,,,,3371.1730301999487,3371.1971096999478,3371.1971096999478,3371.1971096999478,3374.1565057999687,j,3374.1584416000405,,,3374.158458800055,None,,,0.9770721000386402,0.15164179995190352,,,,,,,,,,00065,001,2026-01-20_10h45.49.248,MST_task,2024.2.0,59.73562205966894,2026-01-20 10h46.09.223422 +0530,
,Scenes\040a.jpg,120,0,121,,,,,f,None,,,2.6739109000191092,0.1117836000630632,,,,121,0,120,3374.173327700002,,,,,,,,,,,,,,,,,,,,,,,,,,,,,,3374.158567699953,3374.173327700002,3374.658618299989,,,,,,,,,,,,3374.70837769995,,,,,,,,3374.6850738000358,3374.70837769995,3374.70837769995,3374.70837769995,3377.668923099991,f,3377.668965399964,,,3377.6689777000574,None,,,2.6739109000191092,0.1117836000630632,,,,,,,,,,00065,001,2026-01-20_10h45.49.248,MST_task,2024.2.0,59.73562205966894,2026-01-20 10h46.09.223422 +0530,
,Scenes\166a.jpg,121,0,122,,,,,j,None,,,2.2814853999298066,0.05699780001305044,,,,122,0,121,3377.685648499988,,,,,,,,,,,,,,,,,,,,,,,,,,,,,,3377.6690824000398,3377.685648499988,3378.170817699982,,,,,,,,,,,,,,,,,,,,3378.1892448000144,3378.204075000016,3378.204075000016,3378.204075000016,3381.1814246999566,j,3381.1814804000314,,,3381.1814933000132,None,,,2.2814853999298066,0.05699780001305044,,,,,,,,,,00065,001,2026-01-20_10h45.49.248,MST_task,2024.2.0,59.73562205966894,2026-01-20 10h46.09.223422 +0530,
,Scenes\058a.jpg,122,0,123,,,,,f,None,,,1.8971314000664279,0.1365476999199018,,,,123,0,122,3381.197970899986,,,,,,,,,,,,,,,,,,,,,,,,,,,,,,3381.1815627999604,3381.197970899986,3381.683330800035,,,,,,,,,,,,,,,,,,,,3381.706783600035,3381.733088399982,3381.733088399982,3381.733088399982,3384.6935404000105,f,3384.6935958999675,,,3384.693607400055,None,,,1.8971314000664279,0.1365476999199018,,,,,,,,,,00065,001,2026-01-20_10h45.49.248,MST_task,2024.2.0,59.73562205966894,2026-01-20 10h46.09.223422 +0530,
,Scenes\130a.jpg,123,0,124,,,,,j,None,,,1.5832928000018,0.0800122000509873,,,,124,0,123,3384.710384899983,,,,,,,,,,,,,,,,,,,,,,,,,,,,,,3384.6937274000375,3384.710384899983,3385.1959811999695,,,,,,,,,,,,,,,,,,,,3385.224316500011,3385.2464773999527,3385.2464773999527,3385.2464773999527,3388.205827299971,j,3388.2058710999554,,,3388.205883900053,None,,,1.5832928000018,0.0800122000509873,,,,,,,,,,00065,001,2026-01-20_10h45.49.248,MST_task,2024.2.0,59.73562205966894,2026-01-20 10h46.09.223422 +0530,
,Scenes\164a.jpg,124,0,125,,,,,f,None,,,1.4177119999658316,0.13586769998073578,,,,125,0,124,3388.2224110000534,,,,,,,,,,,,,,,,,,,,,,,,,,,,,,3388.2059570000274,3388.2224110000534,3388.7077518999577,,,,,,,,,,,,,,,,,,,,3388.730245099985,3388.7406549999723,3388.7406549999723,3388.7406549999723,3391.7184868999757,f,3391.718530199956,,,3391.718542400049,None,,,1.4177119999658316,0.13586769998073578,,,,,,,,,,00065,001,2026-01-20_10h45.49.248,MST_task,2024.2.0,59.73562205966894,2026-01-20 10h46.09.223422 +0530,
,Scenes\097a.jpg,125,0,126,,,,,f,None,,,1.6958424999611452,0.1358915000455454,,,,126,0,125,3391.7356537999585,,,,,,,,,,,,,,,,,,,,,,,,,,,,,,3391.7186135000084,3391.7356537999585,3392.219959500013,,,,,,,,,,,,,,,,,,,,3392.240959299961,3392.254389300011,3392.254389300011,3392.254389300011,3395.2302884999663,f,3395.2303437000373,,,3395.230355800013,None,,,1.6958424999611452,0.1358915000455454,,,,,,,,,,00065,001,2026-01-20_10h45.49.248,MST_task,2024.2.0,59.73562205966894,2026-01-20 10h46.09.223422 +0530,
,Objects\178a.jpg,126,0,127,,,,,f,None,,,2.7352256000740454,0.129620699910447,,,,127,0,126,3395.247130200034,,,,,,,,,,,,,,,,,,,,,,,,,,,,,,3395.230729599949,3395.247130200034,3395.732168299961,,,,,,,,,,,,,,,,,,,,3395.7567117,3395.766429499956,3395.766429499956,3395.766429499956,3398.742880200036,f,3398.7444329999853,,,3398.7444511000067,None,,,2.7352256000740454,0.129620699910447,,,,,,,,,,00065,001,2026-01-20_10h45.49.248,MST_task,2024.2.0,59.73562205966894,2026-01-20 10h46.09.223422 +0530,
,Objects\076a.jpg,127,0,128,,,,,f,None,,,1.1600758000276983,0.13626469997689128,,,,128,0,127,3398.759607700049,,,,,,,,,,,,,,,,,,,,,,,,,,,,,,3398.744522599969,3398.759607700049,3399.245125700021,,,,,,,,,,,,,,,,,,,,3399.265397800016,3399.277926199953,3399.277926199953,3399.277926199953,3402.2549863000168,f,3402.2550281999866,,,3402.255040399963,None,,,1.1600758000276983,0.13626469997689128,,,,,,,,,,00065,001,2026-01-20_10h45.49.248,MST_task,2024.2.0,59.73562205966894,2026-01-20 10h46.09.223422 +0530,
,Objects\033a.jpg,128,0,129,,,,,j,None,,,2.239740699995309,0.10352690005674958,,,,129,0,128,3402.2719312000554,,,,,,,,,,,,,,,,,,,,,,,,,,,,,,3402.2553242000286,3402.2719312000554,3402.7574829000514,,,,,,,,,,,,,,,,,,,,3402.777577699977,3402.790325399954,3402.790325399954,3402.790325399954,3405.767301899963,j,3405.7673492999747,,,3405.767361499951,None,,,2.239740699995309,0.10352690005674958,,,,,,,,,,00065,001,2026-01-20_10h45.49.248,MST_task,2024.2.0,59.73562205966894,2026-01-20 10h46.09.223422 +0530,
,Objects\029a.jpg,129,0,130,,,,,f,None,,,1.4321902999654412,0.11952169996220618,,,,130,0,129,3405.7844586999854,,,,,,,,,,,,,,,,,,,,,,,,,,,,,,3405.767433500034,3405.7844586999854,3406.2691033999436,,,,,,,,,,,,,,,,,,,,3406.2898345000576,3406.302366000018,3406.302366000018,3406.302366000018,3409.2796419999795,f,3409.2796887999866,,,3409.2797008999623,None,,,1.4321902999654412,0.11952169996220618,,,,,,,,,,00065,001,2026-01-20_10h45.49.248,MST_task,2024.2.0,59.73562205966894,2026-01-20 10h46.09.223422 +0530,
,Objects\134a.jpg,130,0,131,,,,,j,None,,,2.038420099997893,0.12120040005538613,,,,131,0,130,3409.2963272000197,,,,,,,,,,,,,,,,,,,,,,,,,,,,,,3409.279837899958,3409.2963272000197,3409.7812814000063,,,,,,,,,,,,,,,,,,,,3409.8019794999855,3409.814958999981,3409.814958999981,3409.814958999981,3412.7920580999926,j,3412.792209099978,,,3412.792225299985,None,,,2.038420099997893,0.12120040005538613,,,,,,,,,,00065,001,2026-01-20_10h45.49.248,MST_task,2024.2.0,59.73562205966894,2026-01-20 10h46.09.223422 +0530,
,Objects\055a.jpg,131,0,132,,,,,f,None,,,1.1275426000356674,0.13670469995122403,,,,132,0,131,3412.8084899999667,,,,,,,,,,,,,,,,,,,,,,,,,,,,,,3412.792332299985,3412.8084899999667,3413.2937135000248,,,,,,,,,,,,,,,,,,,,3413.316846300033,3413.3269454999827,3413.3269454999827,3413.3269454999827,3416.304093600018,f,3416.304157900042,,,3416.3041883000406,None,,,1.1275426000356674,0.13670469995122403,,,,,,,,,,00065,001,2026-01-20_10h45.49.248,MST_task,2024.2.0,59.73562205966894,2026-01-20 10h46.09.223422 +0530,
,Objects\048a.jpg,132,0,133,,,,,j,None,,,1.7587312000105157,0.11248440004419535,,,,133,0,132,3416.3209194999654,,,,,,,,,,,,,,,,,,,,,,,,,,,,,,3416.304526400054,3416.3209194999654,3416.8058937999886,,,,,,,,,,,,,,,,,,,,3416.8280829000287,3416.8393561999546,3416.8393561999546,3416.8393561999546,3419.81648509996,j,3419.816797800013,,,3419.8168244999833,None,,,1.7587312000105157,0.11248440004419535,,,,,,,,,,00065,001,2026-01-20_10h45.49.248,MST_task,2024.2.0,59.73562205966894,2026-01-20 10h46.09.223422 +0530,
,Scenes\175a.jpg,133,0,134,,,,,j,None,,,1.1086054999614134,0.0809350999770686,,,,134,0,133,3419.833156400011,,,,,,,,,,,,,,,,,,,,,,,,,,,,,,3419.816895899945,3419.833156400011,3420.3182859000517,,,,,,,,,,,,,,,,,,,,3420.3414987999713,3420.369074300048,3420.369074300048,3420.369074300048,3423.328682100051,j,3423.3301872999873,,,3423.3302034999942,None,,,1.1086054999614134,0.0809350999770686,,,,,,,,,,00065,001,2026-01-20_10h45.49.248,MST_task,2024.2.0,59.73562205966894,2026-01-20 10h46.09.223422 +0530,
,Scenes\113a.jpg,134,0,135,,,,,j,None,,,0.8467527999309823,0.07999520003795624,,,,135,0,134,3423.345516499947,,,,,,,,,,,,,,,,,,,,,,,,,,,,,,3423.330274899956,3423.345516499947,3423.830482500023,,,,,,,,,,,,,,,,,,,,3423.8566072999965,3423.8634561999934,3423.8634561999934,3423.8634561999934,3426.841137600015,j,3426.841183900018,,,3426.841196399997,None,,,0.8467527999309823,0.07999520003795624,,,,,,,,,,00065,001,2026-01-20_10h45.49.248,MST_task,2024.2.0,59.73562205966894,2026-01-20 10h46.09.223422 +0530,
,Scenes\176a.jpg,135,0,136,,,,,j,None,,,1.2441686000674963,0.07971620000898838,,,,136,0,135,3426.8577055999776,,,,,,,,,,,,,,,,,,,,,,,,,,,,,,3426.8413170999847,3426.8577055999776,3427.3429086999968,,,,,,,,,,,,,,,,,,,,3427.3695104999933,3427.393891399959,3427.393891399959,3427.393891399959,3430.3534427999984,j,3430.353489500005,,,3430.3535016999813,None,,,1.2441686000674963,0.07971620000898838,,,,,,,,,,00065,001,2026-01-20_10h45.49.248,MST_task,2024.2.0,59.73562205966894,2026-01-20 10h46.09.223422 +0530,
,Scenes\155a.jpg,136,0,137,,,,,j,None,,,0.9572148000588641,0.08763760002329946,,,,137,0,136,3430.369996799971,,,,,,,,,,,,,,,,,,,,,,,,,,,,,,3430.353572400054,3430.369996799971,3430.855333799962,,,,,,,,,,,,,,,,,,,,3430.8806947000558,3430.905278600054,3430.905278600054,3430.905278600054,3433.865730499965,j,3433.865811800002,,,3433.8658264999976,None,,,0.9572148000588641,0.08763760002329946,,,,,,,,,,00065,001,2026-01-20_10h45.49.248,MST_task,2024.2.0,59.73562205966894,2026-01-20 10h46.09.223422 +0530,
,Scenes\147a.jpg,137,0,138,,,,,j,None,,,1.2128952000057325,0.10407899995334446,,,,138,0,137,3433.882423299947,,,,,,,,,,,,,,,,,,,,,,,,,,,,,,3433.866211400018,3433.882423299947,3434.3673696999904,,,,,,,,,,,,,,,,,,,,3434.387263700017,3434.400731300004,3434.400731300004,3434.400731300004,3437.3779002999654,j,3437.3779430000577,,,3437.377954400028,None,,,1.2128952000057325,0.10407899995334446,,,,,,,,,,00065,001,2026-01-20_10h45.49.248,MST_task,2024.2.0,59.73562205966894,2026-01-20 10h46.09.223422 +0530,
,Scenes\107a.jpg,138,0,139,,,,,j,None,,,1.661266699898988,0.09647590003442019,,,,139,0,138,3437.394710600027,,,,,,,,,,,,,,,,,,,,,,,,,,,,,,3437.3782103999984,3437.394710600027,3437.8797231999924,,,,,,,,,,,,,,,,,,,,3437.9030473999446,3437.9126333999448,3437.9126333999448,3437.9126333999448,3440.89016499999,j,3440.8902225999627,,,3440.890235100058,None,,,1.661266699898988,0.09647590003442019,,,,,,,,,,00065,001,2026-01-20_10h45.49.248,MST_task,2024.2.0,59.73562205966894,2026-01-20 10h46.09.223422 +0530,
,Scenes\093a.jpg,139,0,140,,,,,f,None,,,0.9640359999611974,0.13642690004780889,,,,140,0,139,3440.90700180002,,,,,,,,,,,,,,,,,,,,,,,,,,,,,,3440.890305100009,3440.90700180002,3441.3926028000424,,,,,,,,,,,,,,,,,,,,3441.417902200017,3441.4420672999695,3441.4420672999695,3441.4420672999695,3444.4026378999697,f,3444.402680799947,,,3444.4026928000385,None,,,0.9640359999611974,0.13642690004780889,,,,,,,,,,00065,001,2026-01-20_10h45.49.248,MST_task,2024.2.0,59.73562205966894,2026-01-20 10h46.09.223422 +0530,
,Objects\032a.jpg,140,0,141,,,,,j,None,,,2.2438495000824332,0.09652529994491488,,,,141,0,140,3444.4193214999977,,,,,,,,,,,,,,,,,,,,,,,,,,,,,,3444.402823499986,3444.4193214999977,3444.9044171000132,,,,,,,,,,,,,,,,,,,,3444.9273687000386,3444.937780700042,3444.937780700042,3444.937780700042,3447.9150471000466,j,3447.9164377000416,,,3447.916454600054,None,,,2.2438495000824332,0.09652529994491488,,,,,,,,,,00065,001,2026-01-20_10h45.49.248,MST_task,2024.2.0,59.73562205966894,2026-01-20 10h46.09.223422 +0530,
,Objects\121a.jpg,141,0,142,,,,,None,f,1.5943754999898374,None,,,,,,142,0,141,3447.9316064000595,,,,,,,,,,,,,,,,,,,,,,,,,,,,,,3447.9165693999967,3447.9316064000595,3448.416700599948,,,,,,,,,,,,,,,,,,,,3448.4376983999973,3448.4499354000436,3448.4499354000436,3448.4499354000436,3451.4271105000516,None,3451.4271589999553,3451.444027999998,3451.444027999998,3453.0502548000077,f,1.5943754999898374,None,,,,,,,,,,,,00065,001,2026-01-20_10h45.49.248,MST_task,2024.2.0,59.73562205966894,2026-01-20 10h46.09.223422 +0530,
,Objects\158a.jpg,142,0,143,,,,,f,None,,,1.460850700037554,0.1359964000293985,,,,143,0,142,3453.066148099955,,,,,,,,,,,,,,,,,,,,,,,,,,,,,,3453.0503485000227,3453.066148099955,3453.5514993000543,,,,,,,,,,,,,,,,,,,,3453.5726877000416,3453.584665099974,3453.584665099974,3453.584665099974,3456.5618965999456,f,3456.561969600036,,,3456.561987000052,None,,,1.460850700037554,0.1359964000293985,,,,,,,,,,00065,001,2026-01-20_10h45.49.248,MST_task,2024.2.0,59.73562205966894,2026-01-20 10h46.09.223422 +0530,
,Objects\018a.jpg,143,0,144,,,,,f,None,,,1.6922442999202758,0.15319370001088828,,,,144,0,143,3456.5786671000533,,,,,,,,,,,,,,,,,,,,,,,,,,,,,,3456.5621053000214,3456.5786671000533,3457.063746000058,,,,,,,,,,,,,,,,,,,,3457.0842087999918,3457.0980467000045,3457.0980467000045,3457.0980467000045,3460.07434609998,f,3460.0743885999545,,,3460.0744011000497,None,,,1.6922442999202758,0.15319370001088828,,,,,,,,,,00065,001,2026-01-20_10h45.49.248,MST_task,2024.2.0,59.73562205966894,2026-01-20 10h46.09.223422 +0530,
,Objects\128a.jpg,144,0,145,,,,,None,f,0.04290270002093166,None,,,,,,145,0,144,3460.0907445000485,,,,,,,,,,,,,,,,,,,,,,,,,,,,,,3460.0744715000037,3460.0907445000485,3460.5761876000324,,,,,,,,,,,,,,,,,,,,3460.598169200006,3460.6091345000314,3460.6091345000314,3460.6091345000314,3463.58645339997,None,3463.5866427000146,3463.603035200038,3463.603035200038,3463.65386760002,f,0.04290270002093166,None,,,,,,,,,,,,00065,001,2026-01-20_10h45.49.248,MST_task,2024.2.0,59.73562205966894,2026-01-20 10h46.09.223422 +0530,
,Objects\188a.jpg,145,0,146,,,,,f,None,,,1.3693355000577867,0.1440859999274835,,,,146,0,145,3463.6699218000285,,,,,,,,,,,,,,,,,,,,,,,,,,,,,,3463.653969899984,3463.6699218000285,3464.1552997999825,,,,,,,,,,,,,,,,,,,,3464.1776739000343,3464.188370299991,3464.188370299991,3464.188370299991,3467.165516600013,f,3467.165577000007,,,3467.1655896999873,None,,,1.3693355000577867,0.1440859999274835,,,,,,,,,,00065,001,2026-01-20_10h45.49.248,MST_task,2024.2.0,59.73562205966894,2026-01-20 10h46.09.223422 +0530,
,Objects\072a.jpg,146,0,147,,,,,f,None,,,1.2653151999693364,0.1274106000782922,,,,147,0,146,3467.182491500047,,,,,,,,,,,,,,,,,,,,,,,,,,,,,,3467.165970699978,3467.182491500047,3467.667318299995,,,,,,,,,,,,,,,,,,,,3467.6925520000514,3467.7010088999523,3467.7010088999523,3467.7010088999523,3470.6779367000563,f,3470.67797780002,,,3470.677990199998,None,,,1.2653151999693364,0.1274106000782922,,,,,,,,,,00065,001,2026-01-20_10h45.49.248,MST_task,2024.2.0,59.73562205966894,2026-01-20 10h46.09.223422 +0530,
,Scenes\031a.jpg,147,0,148,,,,,j,None,,,2.7682606000453234,0.11188979994039983,,,,148,0,147,3470.694525000057,,,,,,,,,,,,,,,,,,,,,,,,,,,,,,3470.6780592000578,3470.694525000057,3471.179917200003,,,,,,,,,,,,,,,,,,,,3471.209039199981,3471.2301329999464,3471.2301329999464,3471.2301329999464,3474.190550200059,j,3474.1924600000493,,,3474.192477899953,None,,,2.7682606000453234,0.11188979994039983,,,,,,,,,,00065,001,2026-01-20_10h45.49.248,MST_task,2024.2.0,59.73562205966894,2026-01-20 10h46.09.223422 +0530,
,Scenes\014a.jpg,148,0,149,,,,,f,None,,,2.607798899989575,0.12006900005508214,,,,149,0,148,3474.206825800007,,,,,,,,,,,,,,,,,,,,,,,,,,,,,,3474.192587699974,3474.206825800007,3474.6923952000216,,,,,,,,,,,,3474.72600210004,,,,,,,,3474.717932999949,3474.72600210004,3474.72600210004,3474.72600210004,3477.702539699967,f,3477.702579600038,,,3477.7025919000152,None,,,2.607798899989575,0.12006900005508214,,,,,,,,,,00065,001,2026-01-20_10h45.49.248,MST_task,2024.2.0,59.73562205966894,2026-01-20 10h46.09.223422 +0530,
,Scenes\144a.jpg,149,0,150,,,,,j,None,,,1.7368307000724599,0.1598459999077022,,,,150,0,149,3477.7191344000166,,,,,,,,,,,,,,,,,,,,,,,,,,,,,,3477.702662899974,3477.7191344000166,3478.2043380000396,,,,,,,,,,,,,,,,,,,,3478.226389199961,3478.237137099961,3478.237137099961,3478.237137099961,3481.2148280000547,j,3481.21486930002,,,3481.214881199994,None,,,1.7368307000724599,0.1598459999077022,,,,,,,,,,00065,001,2026-01-20_10h45.49.248,MST_task,2024.2.0,59.73562205966894,2026-01-20 10h46.09.223422 +0530,
,Scenes\172a.jpg,150,0,151,,,,,j,None,,,1.5841330999974161,0.15228619996923953,,,,151,0,150,3481.231435099966,,,,,,,,,,,,,,,,,,,,,,,,,,,,,,3481.214986499981,3481.231435099966,3481.716717500007,,,,,,,,,,,,,,,,,,,,3481.7391189000336,3481.7494911999675,3481.7494911999675,3481.7494911999675,3484.727148300037,j,3484.7271898000035,,,3484.7272022999823,None,,,1.5841330999974161,0.15228619996923953,,,,,,,,,,00065,001,2026-01-20_10h45.49.248,MST_task,2024.2.0,59.73562205966894,2026-01-20 10h46.09.223422 +0530,
,Scenes\138a.jpg,151,0,152,,,,,j,None,,,1.5199262000387534,0.1448757000034675,,,,152,0,151,3484.7443272999953,,,,,,,,,,,,,,,,,,,,,,,,,,,,,,3484.7272723000497,3484.7443272999953,3485.2290567000164,,,,,,,,,,,,,,,,,,,,3485.2518163999775,3485.261718600057,3485.261718600057,3485.261718600057,3488.2397491999436,j,3488.2397924000397,,,3488.2398045000155,None,,,1.5199262000387534,0.1448757000034675,,,,,,,,,,00065,001,2026-01-20_10h45.49.248,MST_task,2024.2.0,59.73562205966894,2026-01-20 10h46.09.223422 +0530,
,Scenes\142a.jpg,152,0,153,,,,,j,None,,,1.5586733999662101,0.10462130000814795,,,,153,0,152,3488.256032199948,,,,,,,,,,,,,,,,,,,,,,,,,,,,,,3488.2399098000024,3488.256032199948,3488.7417113999836,,,,,,,,,,,,,,,,,,,,3488.768145899987,3488.791312300018,3488.791312300018,3488.791312300018,3491.751762000029,j,3491.75180670002,,,3491.751819600002,None,,,1.5586733999662101,0.10462130000814795,,,,,,,,,,00065,001,2026-01-20_10h45.49.248,MST_task,2024.2.0,59.73562205966894,2026-01-20 10h46.09.223422 +0530,
,Scenes\017a.jpg,153,0,154,,,,,f,None,,,1.117932900087908,0.1194062998984009,,,,154,0,153,3491.7684701000107,,,,,,,,,,,,,,,,,,,,,,,,,,,,,,3491.7520831000293,3491.7684701000107,3492.2535516000353,,,,,,,,,,,,,,,,,,,,3492.281975800055,3492.3044627000345,3492.3044627000345,3492.3044627000345,3495.2640348999994,f,3495.2640949999914,,,3495.2641190000577,None,,,1.117932900087908,0.1194062998984009,,,,,,,,,,00065,001,2026-01-20_10h45.49.248,MST_task,2024.2.0,59.73562205966894,2026-01-20 10h46.09.223422 +0530,
,Objects\105a.jpg,154,0,155,,,,,f,None,,,0.902301499969326,0.13515149999875575,,,,155,0,154,3495.2806290000444,,,,,,,,,,,,,,,,,,,,,,,,,,,,,,3495.2643088999903,3495.2806290000444,3495.7658361999784,,,,,,,,,,,,,,,,,,,,3495.7895739000523,3495.800501800026,3495.800501800026,3495.800501800026,3498.7762133999495,f,3498.778473400045,,,3498.7784898000536,None,,,0.902301499969326,0.13515149999875575,,,,,,,,,,00065,001,2026-01-20_10h45.49.248,MST_task,2024.2.0,59.73562205966894,2026-01-20 10h46.09.223422 +0530,
,Objects\050a.jpg,155,0,156,,,,,f,None,,,0.9828937998972833,0.1270758000900969,,,,156,0,155,3498.793044800055,,,,,,,,,,,,,,,,,,,,,,,,,,,,,,3498.7785606000107,3498.793044800055,3499.2783169000177,,,,,,,,,,,,3499.311481600045,,,,,,,,3499.300448099966,3499.311481600045,3499.311481600045,3499.311481600045,3502.2888301999774,f,3502.2888789999997,,,3502.2888913999777,None,,,0.9828937998972833,0.1270758000900969,,,,,,,,,,00065,001,2026-01-20_10h45.49.248,MST_task,2024.2.0,59.73562205966894,2026-01-20 10h46.09.223422 +0530,
,Objects\024a.jpg,156,0,157,,,,,f,None,,,0.9580314999911934,0.1521251000231132,,,,157,0,156,3502.3053436999908,,,,,,,,,,,,,,,,,,,,,,,,,,,,,,3502.2889665999683,3502.3053436999908,3502.7904242000077,,,,,,,,,,,,,,,,,,,,3502.8123485000106,3502.8236782000167,3502.8236782000167,3502.8236782000167,3505.800816199975,f,3505.8008582999464,,,3505.8008699000347,None,,,0.9580314999911934,0.1521251000231132,,,,,,,,,,00065,001,2026-01-20_10h45.49.248,MST_task,2024.2.0,59.73562205966894,2026-01-20 10h46.09.223422 +0530,
,Objects\113a.jpg,157,0,158,,,,,f,None,,,0.8459170000860468,0.11242609994951636,,,,158,0,157,3505.8176360999933,,,,,,,,,,,,,,,,,,,,,,,,,,,,,,3505.8010524000274,3505.8176360999933,3506.3026035999646,,,,,,,,,,,,,,,,,,,,3506.3238071999513,3506.336081000045,3506.336081000045,3506.336081000045,3509.313224100042,f,3509.313265900011,,,3509.313277899986,None,,,0.8459170000860468,0.11242609994951636,,,,,,,,,,00065,001,2026-01-20_10h45.49.248,MST_task,2024.2.0,59.73562205966894,2026-01-20 10h46.09.223422 +0530,
,Objects\181a.jpg,158,0,159,,,,,j,None,,,2.6862654000287876,0.11977809993550181,,,,159,0,158,3509.329933800036,,,,,,,,,,,,,,,,,,,,,,,,,,,,,,3509.313348500058,3509.329933800036,3509.815010200022,,,,,,,,,,,,,,,,,,,,3509.8359035999747,3509.8482741999906,3509.8482741999906,3509.8482741999906,3512.8254207000136,j,3512.8255032000598,,,3512.8255200999556,None,,,2.6862654000287876,0.11977809993550181,,,,,,,,,,00065,001,2026-01-20_10h45.49.248,MST_task,2024.2.0,59.73562205966894,2026-01-20 10h46.09.223422 +0530,
,Objects\163a.jpg,159,0,160,,,,,f,None,,,1.2453223000047728,0.09569879993796349,,,,160,0,159,3512.842243500054,,,,,,,,,,,,,,,,,,,,,,,,,,,,,,3512.825876799994,3512.842243500054,3513.3272311999463,,,,,,,,,,,,,,,,,,,,3513.3497566999868,3513.3606741999974,3513.3606741999974,3513.3606741999974,3516.3378442999674,f,3516.337890399969,,,3516.337902799947,None,,,1.2453223000047728,0.09569879993796349,,,,,,,,,,00065,001,2026-01-20_10h45.49.248,MST_task,2024.2.0,59.73562205966894,2026-01-20 10h46.09.223422 +0530,
,Objects\150a.jpg,160,0,161,,,,,j,None,,,0.9414574999827892,0.15145220002159476,,,,161,0,160,3516.3545308000175,,,,,,,,,,,,,,,,,,,,,,,,,,,,,,3516.337973000016,3516.3545308000175,3516.8396198999835,,,,,,,,,,,,,,,,,,,,3516.8612637999468,3516.8729804999894,3516.8729804999894,3516.8729804999894,3519.8501103000017,j,3519.850153599982,,,3519.8501657999586,None,,,0.9414574999827892,0.15145220002159476,,,,,,,,,,00065,001,2026-01-20_10h45.49.248,MST_task,2024.2.0,59.73562205966894,2026-01-20 10h46.09.223422 +0530,
,Scenes\039a.jpg,161,0,162,,,,,j,None,,,1.5230440000304952,0.09604129998479038,,,,162,0,161,3519.86671880004,,,,,,,,,,,,,,,,,,,,,,,,,,,,,,3519.8502385000465,3519.86671880004,3520.3519273999846,,,,,,,,,,,,,,,,,,,,3520.3749525999883,3520.402630000026,3520.402630000026,3520.402630000026,3523.36241219996,j,3523.3641560999677,,,3523.3641744999913,None,,,1.5230440000304952,0.09604129998479038,,,,,,,,,,00065,001,2026-01-20_10h45.49.248,MST_task,2024.2.0,59.73562205966894,2026-01-20 10h46.09.223422 +0530,
,Scenes\088a.jpg,162,0,163,,,,,j,None,,,1.0588961999164894,0.09542860009241849,,,,163,0,162,3523.379014999955,,,,,,,,,,,,,,,,,,,,,,,,,,,,,,3523.364287400036,3523.379014999955,3523.864404199994,,,,,,,,,,,,3523.915208899998,,,,,,,,3523.8931178000057,3523.915208899998,3523.915208899998,3523.915208899998,3526.8750120999757,j,3526.8751379000023,,,3526.8751800999744,None,,,1.0588961999164894,0.09542860009241849,,,,,,,,,,00065,001,2026-01-20_10h45.49.248,MST_task,2024.2.0,59.73562205966894,2026-01-20 10h46.09.223422 +0530,
,Scenes\044a.jpg,163,0,164,,,,,None,j,0.9628647000063211,None,,,,,,164,0,163,3526.8915729,,,,,,,,,,,,,,,,,,,,,,,,,,,,,,3526.8754350000527,3526.8915729,3527.3767243999755,,,,,,,,,,,,,,,,,,,,3527.3968016,3527.409949699999,3527.409949699999,3527.409949699999,3530.3869136000285,None,3530.3869516999694,3530.4038972000126,3530.4038972000126,3531.3744733999483,j,0.9628647000063211,None,,,,,,,,,,,,00065,001,2026-01-20_10h45.49.248,MST_task,2024.2.0,59.73562205966894,2026-01-20 10h46.09.223422 +0530,
,Scenes\083a.jpg,164,0,165,,,,,j,None,,,1.3212606000015512,0.1363405000884086,,,,165,0,164,3531.3904104999965,,,,,,,,,,,,,,,,,,,,,,,,,,,,,,3531.374567699968,3531.3904104999965,3531.8756362999557,,,,,,,,,,,,,,,,,,,,3531.8986034999834,3531.908516800031,3531.908516800031,3531.908516800031,3534.8860267000273,j,3534.886082799989,,,3534.8860953999683,None,,,1.3212606000015512,0.1363405000884086,,,,,,,,,,00065,001,2026-01-20_10h45.49.248,MST_task,2024.2.0,59.73562205966894,2026-01-20 10h46.09.223422 +0530,
,Scenes\114a.jpg,165,0,166,,,,,f,None,,,1.6249495999654755,0.11973120004404336,,,,166,0,165,3534.9028215999715,,,,,,,,,,,,,,,,,,,,,,,,,,,,,,3534.886479299981,3534.9028215999715,3535.3879151999718,,,,,,,,,,,,,,,,,,,,3535.40574019996,3535.4214602999855,3535.4214602999855,3535.4214602999855,3538.398407300003,f,3538.3986072000116,,,3538.398619499989,None,,,1.6249495999654755,0.11973120004404336,,,,,,,,,,00065,001,2026-01-20_10h45.49.248,MST_task,2024.2.0,59.73562205966894,2026-01-20 10h46.09.223422 +0530,
,Scenes\066a.jpg,166,0,167,,,,,j,None,,,1.312135300016962,0.0802354000043124,,,,167,0,166,3538.415118100005,,,,,,,,,,,,,,,,,,,,,,,,,,,,,,3538.3987482000375,3538.415118100005,3538.9002041999483,,,,,,,,,,,,,,,,,,,,3538.926595099969,3538.933755200007,3538.933755200007,3538.933755200007,3541.91081130004,j,3541.911003299989,,,3541.9110314999707,None,,,1.312135300016962,0.0802354000043124,,,,,,,,,,00065,001,2026-01-20_10h45.49.248,MST_task,2024.2.0,59.73562205966894,2026-01-20 10h46.09.223422 +0530,
,Scenes\146a.jpg,167,0,168,,,,,j,None,,,2.4476696000201628,0.10420300008263439,,,,168,0,167,3541.9272860999918,,,,,,,,,,,,,,,,,,,,,,,,,,,,,,3541.9111388999736,3541.9272860999918,3542.4125106000574,,,,,,,,,,,,,,,,,,,,3542.4389707000228,3542.4624607999576,3542.4624607999576,3542.4624607999576,3545.4239158000564,j,3545.4239696000004,,,3545.4239839999937,None,,,2.4476696000201628,0.10420300008263439,,,,,,,,,,00065,001,2026-01-20_10h45.49.248,MST_task,2024.2.0,59.73562205966894,2026-01-20 10h46.09.223422 +0530,
,Objects\102a.jpg,168,0,169,,,,,f,None,,,2.200033999979496,0.12890000001061708,,,,169,0,168,3545.4396179999458,,,,,,,,,,,,,,,,,,,,,,,,,,,,,,3545.424109000014,3545.4396179999458,3545.9248301000334,,,,,,,,,,,,,,,,,,,,3545.9504135999596,3545.957525399979,3545.957525399979,3545.957525399979,3548.9354800999863,f,3548.9368922000285,,,3548.9369195000036,None,,,2.200033999979496,0.12890000001061708,,,,,,,,,,00065,001,2026-01-20_10h45.49.248,MST_task,2024.2.0,59.73562205966894,2026-01-20 10h46.09.223422 +0530,
,Objects\073a.jpg,169,0,170,,,,,f,None,,,0.9667100000660866,0.12831689999438822,,,,170,0,169,3548.952170799952,,,,,,,,,,,,,,,,,,,,,,,,,,,,,,3548.9369907999644,3548.952170799952,3549.437294399948,,,,,,,,,,,,,,,,,,,,3549.4578315999825,3549.470957600046,3549.470957600046,3549.470957600046,3552.4476119000465,f,3552.4476546000224,,,3552.447666799999,None,,,0.9667100000660866,0.12831689999438822,,,,,,,,,,00065,001,2026-01-20_10h45.49.248,MST_task,2024.2.0,59.73562205966894,2026-01-20 10h46.09.223422 +0530,
,Objects\101a.jpg,170,0,171,,,,,f,None,,,2.2796573999803513,0.1431760999839753,,,,171,0,170,3552.4641856000526,,,,,,,,,,,,,,,,,,,,,,,,,,,,,,3552.4477726999903,3552.4641856000526,3552.949409699999,,,,,,,,,,,,,,,,,,,,3552.9729019999504,3552.9826502000215,3552.9826502000215,3552.9826502000215,3555.95979350002,f,3555.959835299989,,,3555.959847699967,None,,,2.2796573999803513,0.1431760999839753,,,,,,,,,,00065,001,2026-01-20_10h45.49.248,MST_task,2024.2.0,59.73562205966894,2026-01-20 10h46.09.223422 +0530,
,Objects\034a.jpg,171,0,172,,,,,f,None,,,1.7505130000645295,0.12006899993866682,,,,172,0,171,3555.976616100059,,,,,,,,,,,,,,,,,,,,,,,,,,,,,,3555.9599172000308,3555.976616100059,3556.461636199965,,,,,,,,,,,,,,,,,,,,3556.4860099999933,3556.495289099985,3556.495289099985,3556.495289099985,3559.4722227000166,f,3559.472417199984,,,3559.4724303999683,None,,,1.7505130000645295,0.12006899993866682,,,,,,,,,,00065,001,2026-01-20_10h45.49.248,MST_task,2024.2.0,59.73562205966894,2026-01-20 10h46.09.223422 +0530,
,Objects\081a.jpg,172,0,173,,,,,j,None,,,2.374805699917488,0.07997389999218285,,,,173,0,172,3559.488784300047,,,,,,,,,,,,,,,,,,,,,,,,,,,,,,3559.4725513999583,3559.488784300047,3559.9740069999825,,,,,,,,,,,,,,,,,,,,3559.995750800008,3560.0073606000515,3560.0073606000515,3560.0073606000515,3562.984464499983,j,3562.984507999965,,,3562.9845205999445,None,,,2.374805699917488,0.07997389999218285,,,,,,,,,,00065,001,2026-01-20_10h45.49.248,MST_task,2024.2.0,59.73562205966894,2026-01-20 10h46.09.223422 +0530,
,Objects\092a.jpg,173,0,174,,,,,f,None,,,1.9423746999818832,0.08791720005683601,,,,174,0,173,3563.0012131000403,,,,,,,,,,,,,,,,,,,,,,,,,,,,,,3562.9845957000507,3563.0012131000403,3563.4863092000596,,,,,,,,,,,,,,,,,,,,3563.5071873000124,3563.519661700004,3563.519661700004,3563.519661700004,3566.49694490002,f,3566.49704799999,,,3566.497060399968,None,,,1.9423746999818832,0.08791720005683601,,,,,,,,,,00065,001,2026-01-20_10h45.49.248,MST_task,2024.2.0,59.73562205966894,2026-01-20 10h46.09.223422 +0530,
,Objects\093a.jpg,174,0,175,,,,,j,None,,,1.0784082999452949,0.09522420004941523,,,,175,0,174,3566.5133799000178,,,,,,,,,,,,,,,,,,,,,,,,,,,,,,3566.4972958000144,3566.5133799000178,3566.9986403000075,,,,,,,,,,,,,,,,,,,,3567.0208789999597,3567.032031800016,3567.032031800016,3567.032031800016,3570.0096327000065,j,3570.009673899971,,,3570.0096859999467,None,,,1.0784082999452949,0.09522420004941523,,,,,,,,,,00065,001,2026-01-20_10h45.49.248,MST_task,2024.2.0,59.73562205966894,2026-01-20 10h46.09.223422 +0530,
,Scenes\109a.jpg,175,0,176,,,,,None,j,0.34837160003371537,None,,,,,,176,0,175,3570.025823600008,,,,,,,,,,,,,,,,,,,,,,,,,,,,,,3570.009754300001,3570.025823600008,3570.510798900039,,,,,,,,,,,,,,,,,,,,3570.5342810000293,3570.5618539999705,3570.5618539999705,3570.5618539999705,3573.521349900053,None,3573.5235157000134,3573.53812859999,3573.53812859999,3573.88973429997,j,0.34837160003371537,None,,,,,,,,,,,,00065,001,2026-01-20_10h45.49.248,MST_task,2024.2.0,59.73562205966894,2026-01-20 10h46.09.223422 +0530,
,Scenes\046a.jpg,176,0,177,,,,,j,None,,,1.14119989995379,0.09624690003693104,,,,177,0,176,3573.9060632999754,,,,,,,,,,,,,,,,,,,,,,,,,,,,,,3573.889824999962,3573.9060632999754,3574.3910519999918,,,,,,,,,,,,,,,,,,,,3574.4236976000248,3574.4419985000277,3574.4419985000277,3574.4419985000277,3577.401803100016,j,3577.4018498000223,,,3577.4018626000034,None,,,1.14119989995379,0.09624690003693104,,,,,,,,,,00065,001,2026-01-20_10h45.49.248,MST_task,2024.2.0,59.73562205966894,2026-01-20 10h46.09.223422 +0530,
,Scenes\028a.jpg,177,0,178,,,,,j,None,,,0.685126299969852,0.11947240005247295,,,,178,0,177,3577.418262299965,,,,,,,,,,,,,,,,,,,,,,,,,,,,,,3577.40197789995,3577.418262299965,3577.9035040000454,,,,,,,,,,,,,,,,,,,,3577.926801100024,3577.9370106999995,3577.9370106999995,3577.9370106999995,3580.9139408000046,j,3580.9141311000567,,,3580.9141449000454,None,,,0.685126299969852,0.11947240005247295,,,,,,,,,,00065,001,2026-01-20_10h45.49.248,MST_task,2024.2.0,59.73562205966894,2026-01-20 10h46.09.223422 +0530,
,Scenes\189a.jpg,178,0,179,,,,,j,None,,,1.0056528000859544,0.09443900000769645,,,,179,0,178,3580.9306603999576,,,,,,,,,,,,,,,,,,,,,,,,,,,,,,3580.9142706999555,3580.9306603999576,3581.415901200031,,,,,,,,,,,,,,,,,,,,3581.442159899976,3581.4658339000307,3581.4658339000307,3581.4658339000307,3584.426259699976,j,3584.426301899948,,,3584.426314200042,None,,,1.0056528000859544,0.09443900000769645,,,,,,,,,,00065,001,2026-01-20_10h45.49.248,MST_task,2024.2.0,59.73562205966894,2026-01-20 10h46.09.223422 +0530,
,Scenes\029a.jpg,179,0,180,,,,,j,None,,,1.5971558999735862,0.0970089000184089,,,,180,0,179,3584.443088799948,,,,,,,,,,,,,,,,,,,,,,,,,,,,,,3584.426382799982,3584.443088799948,3584.9279734999873,,,,,,,,,,,,,,,,,,,,3584.9460531000514,3584.961291500018,3584.961291500018,3584.961291500018,3587.9384302999824,j,3587.9384746999713,,,3587.9384869999485,None,,,1.5971558999735862,0.0970089000184089,,,,,,,,,,00065,001,2026-01-20_10h45.49.248,MST_task,2024.2.0,59.73562205966894,2026-01-20 10h46.09.223422 +0530,
,Scenes\161a.jpg,180,0,181,,,,,j,None,,,1.555879499996081,0.11231569992378354,,,,181,0,180,3587.9553853999823,,,,,,,,,,,,,,,,,,,,,,,,,,,,,,3587.9385916000465,3587.9553853999823,3588.440423000022,,,,,,,,,,,,,,,,,,,,3588.4574493999826,3588.4737057000166,3588.4737057000166,3588.4737057000166,3591.450904099969,j,3591.4509699000046,,,3591.450990500045,None,,,1.555879499996081,0.11231569992378354,,,,,,,,,,00065,001,2026-01-20_10h45.49.248,MST_task,2024.2.0,59.73562205966894,2026-01-20 10h46.09.223422 +0530,
