thisN,thisTrialN,thisRepN,key_resp_3.keys,key_resp_3.rt,key_resp_3.duration,trials.thisRepN,trials.thisTrialN,trials.thisN,thisRow.t,notes,intro_page.started,text.started,key_resp.started,intro_page.stopped,key_resp.keys,key_resp.rt,key_resp.duration,instructions.started,text_2.started,key_resp_2.started,instructions.stopped,key_resp_2.keys,key_resp_2.rt,key_resp_2.duration,demo1.started,image_1.started,image_2.started,text_7.started,key_resp_6.started,text_9.started,demo1.stopped,key_resp_6.keys,key_resp_6.rt,key_resp_6.duration,demo2.started,image_5.started,image_6.started,text_11.started,text_12.started,key_resp_8.started,demo2.stopped,key_resp_8.keys,key_resp_8.rt,key_resp_8.duration,demo_conclusion.started,text_13.started,key_resp_9.started,demo_conclusion.stopped,key_resp_9.keys,key_resp_9.rt,key_resp_9.duration,start_test.started,text_6.started,key_resp_5.started,start_test.stopped,key_resp_5.keys,key_resp_5.rt,key_resp_5.duration,ISI.started,text_4.started,text_4.stopped,ISI.stopped,routine_1.started,image.started,text_3.started,key_resp_3.started,routine_1.stopped,image_path,position_of_stimuli,trials.key_resp_3.keys,trials.key_resp_3.rt,trials.key_resp_3.duration,End_page.started,text_5.started,key_resp_4.started,participant,session,date,expName,psychopyVersion,frameRate,expStart,
,,,,,,,,,,,0.0012633999999707157,0.004696399999829737,0.004696399999829737,13.752904399999807,space,13.740234200000032,None,,,,,,,,,,,,,,,,,,,,,,,,,,,,,,,,,,,,,,,,,,,,,,,,,,,,,,,,,,,00060,001,2026-01-19_17h39.04.439,MST_test,2024.2.0,60.03175679934175,2026-01-19 17h39.09.818374 +0530,
,,,,,,,,,,,,,,,,,,13.752941599999758,13.772776700000122,13.772776700000122,24.63121799999999,space,10.843471800000316,None,,,,,,,,,,,,,,,,,,,,,,,,,,,,,,,,,,,,,,,,,,,,,,,,,,,,00060,001,2026-01-19_17h39.04.439,MST_test,2024.2.0,60.03175679934175,2026-01-19 17h39.09.818374 +0530,
,,,,,,,,,,,,,,,,,,,,,,,,,24.631316999999854,24.685290500000065,24.685290500000065,24.685290500000065,24.685290500000065,24.685290500000065,29.116187799999807,space,4.4195694,None,,,,,,,,,,,,,,,,,,,,,,,,,,,,,,,,,,,,,,,,,,00060,001,2026-01-19_17h39.04.439,MST_test,2024.2.0,60.03175679934175,2026-01-19 17h39.09.818374 +0530,
,,,,,,,,,,,,,,,,,,,,,,,,,,,,,,,,,,,29.11628010000004,29.131408100000044,29.131408100000044,29.131408100000044,29.131408100000044,29.131408100000044,31.464622299999974,space,2.3169385000001057,None,,,,,,,,,,,,,,,,,,,,,,,,,,,,,,,,00060,001,2026-01-19_17h39.04.439,MST_test,2024.2.0,60.03175679934175,2026-01-19 17h39.09.818374 +0530,
,,,,,,,,,,,,,,,,,,,,,,,,,,,,,,,,,,,,,,,,,,,,,31.46467369999982,31.481003599999895,31.481003599999895,43.93068210000001,space,12.438926299999821,None,,,,,,,,,,,,,,,,,,,,,,,,,00060,001,2026-01-19_17h39.04.439,MST_test,2024.2.0,60.03175679934175,2026-01-19 17h39.09.818374 +0530,
,,,,,,,,,,,,,,,,,,,,,,,,,,,,,,,,,,,,,,,,,,,,,,,,,,,,43.93074519999982,43.9467367000002,43.9467367000002,76.53260439999985,space,32.57399680000026,None,,,,,,,,,,,,,,,,,,00060,001,2026-01-19_17h39.04.439,MST_test,2024.2.0,60.03175679934175,2026-01-19 17h39.09.818374 +0530,
0,0,1,n,2.7047942000003786,None,1,0,0,76.54718060000005,,,,,,,,,,,,,,,,,,,,,,,,,,,,,,,,,,,,,,,,,,,,,,,,,,76.54304490000004,76.54718060000005,77.14335630000005,77.03136059999997,77.14095799999996,77.14335630000005,77.14335630000005,77.14335630000005,79.86486729999979,Scenes\054a.jpg,post,n,2.7047942000003786,None,,,,00060,001,2026-01-19_17h39.04.439,MST_test,2024.2.0,60.03175679934175,2026-01-19 17h39.09.818374 +0530,
1,0,2,n,2.2967235999999502,None,2,0,1,79.8808525999998,,,,,,,,,,,,,,,,,,,,,,,,,,,,,,,,,,,,,,,,,,,,,,,,,,79.86537839999983,79.8808525999998,80.50331229999983,80.36460540000007,80.49884830000019,80.50331229999983,80.50331229999983,80.50331229999983,82.81509779999988,Foils\scenes25.jpg,none,n,2.2967235999999502,None,,,,00060,001,2026-01-19_17h39.04.439,MST_test,2024.2.0,60.03175679934175,2026-01-19 17h39.09.818374 +0530,
2,0,3,n,3.2950057000002744,None,3,0,2,82.8309220000001,,,,,,,,,,,,,,,,,,,,,,,,,,,,,,,,,,,,,,,,,,,,,,,,,,82.81545779999988,82.8309220000001,83.44188510000004,83.31511349999982,83.43936660000008,83.44188510000004,83.44188510000004,83.44188510000004,86.74806189999981,Scenes\076b.jpg,mid,n,3.2950057000002744,None,,,,00060,001,2026-01-19_17h39.04.439,MST_test,2024.2.0,60.03175679934175,2026-01-19 17h39.09.818374 +0530,
3,0,4,o,4.761568699999771,None,4,0,3,86.76427250000006,,,,,,,,,,,,,,,,,,,,,,,,,,,,,,,,,,,,,,,,,,,,,,,,,,86.7484900999998,86.76427250000006,87.28788480000003,87.24770639999997,87.28581269999995,87.28788480000003,87.28788480000003,87.28788480000003,92.06502339999997,Objects\108a.jpg,mid,o,4.761568699999771,None,,,,00060,001,2026-01-19_17h39.04.439,MST_test,2024.2.0,60.03175679934175,2026-01-19 17h39.09.818374 +0530,
4,0,5,n,1.6715215999997781,None,5,0,4,92.08092910000005,,,,,,,,,,,,,,,,,,,,,,,,,,,,,,,,,,,,,,,,,,,,,,,,,,92.06537939999998,92.08092910000005,92.60135279999986,92.56437629999982,92.5978055999999,92.60135279999986,92.60135279999986,92.60135279999986,94.28186800000003,Foils\scenes7.jpg,none,n,1.6715215999997781,None,,,,00060,001,2026-01-19_17h39.04.439,MST_test,2024.2.0,60.03175679934175,2026-01-19 17h39.09.818374 +0530,
5,0,6,n,1.2186670999999478,None,6,0,5,94.29807810000011,,,,,,,,,,,,,,,,,,,,,,,,,,,,,,,,,,,,,,,,,,,,,,,,,,94.28227520000019,94.29807810000011,94.82144629999993,94.78130180000016,94.81765339999993,94.82144629999993,94.82144629999993,94.82144629999993,96.04831000000013,Foils\058a.jpg,none,n,1.2186670999999478,None,,,,00060,001,2026-01-19_17h39.04.439,MST_test,2024.2.0,60.03175679934175,2026-01-19 17h39.09.818374 +0530,
6,0,7,s,4.462191200000234,None,7,0,6,96.06439439999986,,,,,,,,,,,,,,,,,,,,,,,,,,,,,,,,,,,,,,,,,,,,,,,,,,96.04868380000016,96.06439439999986,96.6262901,96.54797719999988,96.62358240000003,96.6262901,96.6262901,96.6262901,101.0982613000001,Scenes\034b.jpg,post,s,4.462191200000234,None,,,,00060,001,2026-01-19_17h39.04.439,MST_test,2024.2.0,60.03175679934175,2026-01-19 17h39.09.818374 +0530,
7,0,8,o,1.95383720000018,None,8,0,7,101.11399249999977,,,,,,,,,,,,,,,,,,,,,,,,,,,,,,,,,,,,,,,,,,,,,,,,,,101.09869239999989,101.11399249999977,101.6463134999999,101.59749120000015,101.64371579999988,101.6463134999999,101.6463134999999,101.6463134999999,103.61490139999978,Objects\002a.jpg,post,o,1.95383720000018,None,,,,00060,001,2026-01-19_17h39.04.439,MST_test,2024.2.0,60.03175679934175,2026-01-19 17h39.09.818374 +0530,
8,0,9,n,3.021850699999959,None,9,0,8,103.63058709999996,,,,,,,,,,,,,,,,,,,,,,,,,,,,,,,,,,,,,,,,,,,,,,,,,,103.61525110000002,103.63058709999996,104.19424780000008,104.11441819999982,104.19189629999983,104.19424780000008,104.19424780000008,104.19424780000008,107.2314136,Scenes\082a.jpg,mid,n,3.021850699999959,None,,,,00060,001,2026-01-19_17h39.04.439,MST_test,2024.2.0,60.03175679934175,2026-01-19 17h39.09.818374 +0530,
9,0,10,o,2.1279689999996663,None,10,0,9,107.2483658000001,,,,,,,,,,,,,,,,,,,,,,,,,,,,,,,,,,,,,,,,,,,,,,,,,,107.23181909999994,107.2483658000001,107.76839530000007,107.73126920000004,107.76525469999979,107.76839530000007,107.76839530000007,107.76839530000007,109.89826140000014,Objects\035a.jpg,mid,o,2.1279689999996663,None,,,,00060,001,2026-01-19_17h39.04.439,MST_test,2024.2.0,60.03175679934175,2026-01-19 17h39.09.818374 +0530,
10,0,11,o,1.5791094999999586,None,11,0,10,109.91395359999979,,,,,,,,,,,,,,,,,,,,,,,,,,,,,,,,,,,,,,,,,,,,,,,,,,109.8985189,109.91395359999979,110.43749810000008,110.3984730000002,110.43433139999979,110.43749810000008,110.43749810000008,110.43749810000008,112.03149660000008,Objects\039a.jpg,mid,o,1.5791094999999586,None,,,,00060,001,2026-01-19_17h39.04.439,MST_test,2024.2.0,60.03175679934175,2026-01-19 17h39.09.818374 +0530,
11,0,12,o,0.9560400999998819,None,12,0,11,112.04750580000018,,,,,,,,,,,,,,,,,,,,,,,,,,,,,,,,,,,,,,,,,,,,,,,,,,112.03187170000001,112.04750580000018,112.59677980000015,112.5317312000002,112.59420959999989,112.59677980000015,112.59677980000015,112.59677980000015,113.56515159999981,Scenes\101a.jpg,pre,o,0.9560400999998819,None,,,,00060,001,2026-01-19_17h39.04.439,MST_test,2024.2.0,60.03175679934175,2026-01-19 17h39.09.818374 +0530,
12,0,13,o,3.1643017999999756,None,13,0,12,113.58074889999989,,,,,,,,,,,,,,,,,,,,,,,,,,,,,,,,,,,,,,,,,,,,,,,,,,113.56550419999985,113.58074889999989,114.09983319999992,114.06509640000013,114.09686109999984,114.09983319999992,114.09983319999992,114.09983319999992,117.26483819999976,Objects\044b.jpg,mid,o,3.1643017999999756,None,,,,00060,001,2026-01-19_17h39.04.439,MST_test,2024.2.0,60.03175679934175,2026-01-19 17h39.09.818374 +0530,
13,0,14,n,1.5681069000002026,None,14,0,13,117.2809513000002,,,,,,,,,,,,,,,,,,,,,,,,,,,,,,,,,,,,,,,,,,,,,,,,,,117.26523619999989,117.2809513000002,117.81596870000021,117.76484859999982,117.81371600000011,117.81596870000021,117.81596870000021,117.81596870000021,119.39898940000012,Objects\134b.jpg,post,n,1.5681069000002026,None,,,,00060,001,2026-01-19_17h39.04.439,MST_test,2024.2.0,60.03175679934175,2026-01-19 17h39.09.818374 +0530,
14,0,15,s,1.8620397999998204,None,15,0,14,119.4142538000001,,,,,,,,,,,,,,,,,,,,,,,,,,,,,,,,,,,,,,,,,,,,,,,,,,119.39934660000017,119.4142538000001,119.93804920000002,119.89790700000003,119.93566819999978,119.93804920000002,119.93804920000002,119.93804920000002,121.81478030000017,Scenes\016a.jpg,post,s,1.8620397999998204,None,,,,00060,001,2026-01-19_17h39.04.439,MST_test,2024.2.0,60.03175679934175,2026-01-19 17h39.09.818374 +0530,
15,0,16,s,4.9089389000000665,None,16,0,15,121.83088950000001,,,,,,,,,,,,,,,,,,,,,,,,,,,,,,,,,,,,,,,,,,,,,,,,,,121.81518520000009,121.83088950000001,122.37131739999995,122.31453099999999,122.36862710000014,122.37131739999995,122.37131739999995,122.37131739999995,127.2818542,Objects\161b.jpg,post,s,4.9089389000000665,None,,,,00060,001,2026-01-19_17h39.04.439,MST_test,2024.2.0,60.03175679934175,2026-01-19 17h39.09.818374 +0530,
16,0,17,o,2.220747500000016,None,17,0,16,127.29753119999987,,,,,,,,,,,,,,,,,,,,,,,,,,,,,,,,,,,,,,,,,,,,,,,,,,127.28221110000004,127.29753119999987,127.81992600000012,127.7810986999998,127.81762759999992,127.81992600000012,127.81992600000012,127.81992600000012,130.04851819999976,Objects\024a.jpg,mid,o,2.220747500000016,None,,,,00060,001,2026-01-19_17h39.04.439,MST_test,2024.2.0,60.03175679934175,2026-01-19 17h39.09.818374 +0530,
17,0,18,n,1.4168770999999651,None,18,0,17,130.0642858000001,,,,,,,,,,,,,,,,,,,,,,,,,,,,,,,,,,,,,,,,,,,,,,,,,,130.04887289999988,130.0642858000001,130.63924080000015,130.54782539999997,130.63643709999997,130.63924080000015,130.63924080000015,130.63924080000015,132.06467049999992,Scenes\189b.jpg,mid,n,1.4168770999999651,None,,,,00060,001,2026-01-19_17h39.04.439,MST_test,2024.2.0,60.03175679934175,2026-01-19 17h39.09.818374 +0530,
18,0,19,s,2.340819200000169,None,19,0,18,132.08097959999986,,,,,,,,,,,,,,,,,,,,,,,,,,,,,,,,,,,,,,,,,,,,,,,,,,132.06502469999987,132.08097959999986,132.62789710000015,132.5645244000002,132.6253726,132.62789710000015,132.62789710000015,132.62789710000015,134.9815208,Scenes\071b.jpg,mid,s,2.340819200000169,None,,,,00060,001,2026-01-19_17h39.04.439,MST_test,2024.2.0,60.03175679934175,2026-01-19 17h39.09.818374 +0530,
19,0,20,o,1.4734302000001662,None,20,0,19,134.99840529999983,,,,,,,,,,,,,,,,,,,,,,,,,,,,,,,,,,,,,,,,,,,,,,,,,,134.98187270000017,134.99840529999983,,135.49831630000017,135.53221399999984,135.53472969999984,135.53472969999984,135.53472969999984,137.0149308,Objects\149a.jpg,pre,o,1.4734302000001662,None,,,,00060,001,2026-01-19_17h39.04.439,MST_test,2024.2.0,60.03175679934175,2026-01-19 17h39.09.818374 +0530,
20,0,21,s,3.1301280000002407,None,21,0,20,137.0307299000001,,,,,,,,,,,,,,,,,,,,,,,,,,,,,,,,,,,,,,,,,,,,,,,,,,137.01529359999995,137.0307299000001,137.5902099,137.5146547999998,137.5874576000001,137.5902099,137.5902099,137.5902099,140.73144330000014,Scenes\031b.jpg,pre,s,3.1301280000002407,None,,,,00060,001,2026-01-19_17h39.04.439,MST_test,2024.2.0,60.03175679934175,2026-01-19 17h39.09.818374 +0530,
21,0,22,n,1.285358300000098,None,22,0,21,140.7473442999999,,,,,,,,,,,,,,,,,,,,,,,,,,,,,,,,,,,,,,,,,,,,,,,,,,140.7317978000001,140.7473442999999,141.28343319999976,141.23130880000008,141.27980389999993,141.28343319999976,141.28343319999976,141.28343319999976,142.58196570000018,Foils\scenes4.jpg,none,n,1.285358300000098,None,,,,00060,001,2026-01-19_17h39.04.439,MST_test,2024.2.0,60.03175679934175,2026-01-19 17h39.09.818374 +0530,
22,0,23,s,2.435557400000107,None,23,0,22,142.59763269999985,,,,,,,,,,,,,,,,,,,,,,,,,,,,,,,,,,,,,,,,,,,,,,,,,,142.5823835000001,142.59763269999985,143.1172136,143.08139829999982,143.11488569999983,143.1172136,143.1172136,143.1172136,145.5647942999999,Objects\117a.jpg,post,s,2.435557400000107,None,,,,00060,001,2026-01-19_17h39.04.439,MST_test,2024.2.0,60.03175679934175,2026-01-19 17h39.09.818374 +0530,
23,0,24,s,1.867423300000155,None,24,0,23,145.58068360000016,,,,,,,,,,,,,,,,,,,,,,,,,,,,,,,,,,,,,,,,,,,,,,,,,,145.5652157999998,145.58068360000016,146.12530620000007,146.06440939999993,146.12309460000006,146.12530620000007,146.12530620000007,146.12530620000007,147.99862040000016,Objects\185b.jpg,pre,s,1.867423300000155,None,,,,00060,001,2026-01-19_17h39.04.439,MST_test,2024.2.0,60.03175679934175,2026-01-19 17h39.09.818374 +0530,
24,0,25,s,2.9048328000003494,None,25,0,24,148.0143164000001,,,,,,,,,,,,,,,,,,,,,,,,,,,,,,,,,,,,,,,,,,,,,,,,,,147.99897939999983,148.0143164000001,148.54346209999994,148.4981254999998,148.54069690000006,148.54346209999994,148.54346209999994,148.54346209999994,151.46545070000002,Objects\036a.jpg,mid,s,2.9048328000003494,None,,,,00060,001,2026-01-19_17h39.04.439,MST_test,2024.2.0,60.03175679934175,2026-01-19 17h39.09.818374 +0530,
25,0,26,o,1.2832482000003438,None,26,0,25,151.48092170000018,,,,,,,,,,,,,,,,,,,,,,,,,,,,,,,,,,,,,,,,,,,,,,,,,,151.46574240000018,151.48092170000018,151.9967415000001,151.96475389999978,151.99429250000003,151.9967415000001,151.9967415000001,151.9967415000001,153.28098809999983,Objects\023a.jpg,mid,o,1.2832482000003438,None,,,,00060,001,2026-01-19_17h39.04.439,MST_test,2024.2.0,60.03175679934175,2026-01-19 17h39.09.818374 +0530,
26,0,27,n,1.3869842999997672,None,27,0,26,153.29770700000017,,,,,,,,,,,,,,,,,,,,,,,,,,,,,,,,,,,,,,,,,,,,,,,,,,153.2813325000002,153.29770700000017,153.84539270000005,153.78105920000007,153.8428018999998,153.84539270000005,153.84539270000005,153.84539270000005,155.24820180000006,Scenes\174b.jpg,mid,n,1.3869842999997672,None,,,,00060,001,2026-01-19_17h39.04.439,MST_test,2024.2.0,60.03175679934175,2026-01-19 17h39.09.818374 +0530,
27,0,28,n,2.0937174999999115,None,28,0,27,155.26434879999988,,,,,,,,,,,,,,,,,,,,,,,,,,,,,,,,,,,,,,,,,,,,,,,,,,155.2486103000001,155.26434879999988,156.06634649999978,155.7484344999998,156.05804020000005,156.06634649999978,156.06634649999978,156.06634649999978,158.1653839999999,Foils\scenes26.jpg,none,n,2.0937174999999115,None,,,,00060,001,2026-01-19_17h39.04.439,MST_test,2024.2.0,60.03175679934175,2026-01-19 17h39.09.818374 +0530,
28,0,29,n,2.3378207999999177,None,29,0,28,158.18132930000002,,,,,,,,,,,,,,,,,,,,,,,,,,,,,,,,,,,,,,,,,,,,,,,,,,158.16573719999997,158.18132930000002,,158.66568019999977,158.77202639999996,158.77433689999998,158.77433689999998,158.77433689999998,161.11459990000003,Scenes\126b.jpg,post,n,2.3378207999999177,None,,,,00060,001,2026-01-19_17h39.04.439,MST_test,2024.2.0,60.03175679934175,2026-01-19 17h39.09.818374 +0530,
29,0,30,n,1.5622910000001866,None,30,0,29,161.13093889999982,,,,,,,,,,,,,,,,,,,,,,,,,,,,,,,,,,,,,,,,,,,,,,,,,,161.11496559999978,161.13093889999982,161.66295219999984,161.61465439999984,161.6602069999999,161.66295219999984,161.66295219999984,161.66295219999984,163.23188070000015,Foils\081a.jpg,none,n,1.5622910000001866,None,,,,00060,001,2026-01-19_17h39.04.439,MST_test,2024.2.0,60.03175679934175,2026-01-19 17h39.09.818374 +0530,
30,0,31,o,1.3945324999999684,None,31,0,30,163.24765939999997,,,,,,,,,,,,,,,,,,,,,,,,,,,,,,,,,,,,,,,,,,,,,,,,,,163.2323022999999,163.24765939999997,163.76546009999993,163.73134299999992,163.76308119999976,163.76546009999993,163.76546009999993,163.76546009999993,165.16445969999995,Objects\115a.jpg,pre,o,1.3945324999999684,None,,,,00060,001,2026-01-19_17h39.04.439,MST_test,2024.2.0,60.03175679934175,2026-01-19 17h39.09.818374 +0530,
31,0,32,o,1.8179230999999163,None,32,0,31,165.18095619999986,,,,,,,,,,,,,,,,,,,,,,,,,,,,,,,,,,,,,,,,,,,,,,,,,,165.16468540000005,165.18095619999986,165.71848229999978,165.66413629999988,165.7163473999999,165.71848229999978,165.71848229999978,165.71848229999978,167.54903349999995,Objects\144b.jpg,post,o,1.8179230999999163,None,,,,00060,001,2026-01-19_17h39.04.439,MST_test,2024.2.0,60.03175679934175,2026-01-19 17h39.09.818374 +0530,
32,0,33,o,1.8047093000000132,None,33,0,32,167.56431410000005,,,,,,,,,,,,,,,,,,,,,,,,,,,,,,,,,,,,,,,,,,,,,,,,,,167.549391,167.56431410000005,168.11595119999993,168.04806270000017,168.11349860000018,168.11595119999993,168.11595119999993,168.11595119999993,169.93160579999994,Scenes\177a.jpg,post,o,1.8047093000000132,None,,,,00060,001,2026-01-19_17h39.04.439,MST_test,2024.2.0,60.03175679934175,2026-01-19 17h39.09.818374 +0530,
33,0,34,s,3.4433200000003126,None,34,0,33,169.94760510000015,,,,,,,,,,,,,,,,,,,,,,,,,,,,,,,,,,,,,,,,,,,,,,,,,,169.93198059999986,169.94760510000015,,170.43198789999997,170.47427370000014,170.47670209999978,170.47670209999978,170.47670209999978,173.93123699999978,Objects\091b.jpg,pre,s,3.4433200000003126,None,,,,00060,001,2026-01-19_17h39.04.439,MST_test,2024.2.0,60.03175679934175,2026-01-19 17h39.09.818374 +0530,
34,0,35,o,1.7429557000000386,None,35,0,34,173.9472434999998,,,,,,,,,,,,,,,,,,,,,,,,,,,,,,,,,,,,,,,,,,,,,,,,,,173.93166329999985,173.9472434999998,174.53737950000004,174.43103930000007,174.53483240000014,174.53737950000004,174.53737950000004,174.53737950000004,176.28180659999998,Scenes\182a.jpg,mid,o,1.7429557000000386,None,,,,00060,001,2026-01-19_17h39.04.439,MST_test,2024.2.0,60.03175679934175,2026-01-19 17h39.09.818374 +0530,
35,0,36,o,1.3200309999997444,None,36,0,35,176.29767089999996,,,,,,,,,,,,,,,,,,,,,,,,,,,,,,,,,,,,,,,,,,,,,,,,,,176.2821742000001,176.29767089999996,176.87992059999988,176.78129609999996,176.87685030000011,176.87992059999988,176.87992059999988,176.87992059999988,178.21503540000003,Objects\182a.jpg,pre,o,1.3200309999997444,None,,,,00060,001,2026-01-19_17h39.04.439,MST_test,2024.2.0,60.03175679934175,2026-01-19 17h39.09.818374 +0530,
36,0,37,s,2.8752488000000085,None,37,0,36,178.23094839999976,,,,,,,,,,,,,,,,,,,,,,,,,,,,,,,,,,,,,,,,,,,,,,,,,,178.21539329999996,178.23094839999976,178.78144789999988,178.71467369999982,178.77887220000002,178.78144789999988,178.78144789999988,178.78144789999988,181.6655396000001,Scenes\123a.jpg,pre,s,2.8752488000000085,None,,,,00060,001,2026-01-19_17h39.04.439,MST_test,2024.2.0,60.03175679934175,2026-01-19 17h39.09.818374 +0530,
37,0,38,s,1.5394845000000714,None,38,0,37,181.68051109999988,,,,,,,,,,,,,,,,,,,,,,,,,,,,,,,,,,,,,,,,,,,,,,,,,,181.66591190000008,181.68051109999988,182.20515179999984,182.16510199999993,182.20208189999994,182.20515179999984,182.20515179999984,182.20515179999984,183.74943810000013,Foils\050a.jpg,none,s,1.5394845000000714,None,,,,00060,001,2026-01-19_17h39.04.439,MST_test,2024.2.0,60.03175679934175,2026-01-19 17h39.09.818374 +0530,
38,0,39,n,1.3616305999998985,None,39,0,38,183.7642678000002,,,,,,,,,,,,,,,,,,,,,,,,,,,,,,,,,,,,,,,,,,,,,,,,,,183.74978479999982,183.7642678000002,184.31108159999985,184.24777200000017,184.30854349999981,184.31108159999985,184.31108159999985,184.31108159999985,185.68167760000006,Scenes\130b.jpg,mid,n,1.3616305999998985,None,,,,00060,001,2026-01-19_17h39.04.439,MST_test,2024.2.0,60.03175679934175,2026-01-19 17h39.09.818374 +0530,
39,0,40,o,1.3289385000002767,None,40,0,39,185.69737290000012,,,,,,,,,,,,,,,,,,,,,,,,,,,,,,,,,,,,,,,,,,,,,,,,,,185.6820585999999,185.69737290000012,186.26310049999984,186.18146930000012,186.25984319999998,186.26310049999984,186.26310049999984,186.26310049999984,187.59831080000004,Scenes\002a.jpg,pre,o,1.3289385000002767,None,,,,00060,001,2026-01-19_17h39.04.439,MST_test,2024.2.0,60.03175679934175,2026-01-19 17h39.09.818374 +0530,
40,0,41,o,1.3244970000000649,None,41,0,40,187.6144002000001,,,,,,,,,,,,,,,,,,,,,,,,,,,,,,,,,,,,,,,,,,,,,,,,,,187.59879390000015,187.6144002000001,188.2043106000001,188.09793260000015,188.2016491999998,188.2043106000001,188.2043106000001,188.2043106000001,189.53130789999977,Scenes\070b.jpg,post,o,1.3244970000000649,None,,,,00060,001,2026-01-19_17h39.04.439,MST_test,2024.2.0,60.03175679934175,2026-01-19 17h39.09.818374 +0530,
41,0,42,n,1.5366751000001386,None,42,0,41,189.54727839999987,,,,,,,,,,,,,,,,,,,,,,,,,,,,,,,,,,,,,,,,,,,,,,,,,,189.53168730000016,189.54727839999987,190.08808390000013,190.0313415999999,190.08432700000003,190.08808390000013,190.08808390000013,190.08808390000013,191.63156769999978,Objects\022b.jpg,post,n,1.5366751000001386,None,,,,00060,001,2026-01-19_17h39.04.439,MST_test,2024.2.0,60.03175679934175,2026-01-19 17h39.09.818374 +0530,
42,0,43,o,1.9262398000000758,None,43,0,42,191.6476306999998,,,,,,,,,,,,,,,,,,,,,,,,,,,,,,,,,,,,,,,,,,,,,,,,,,191.63192149999986,191.6476306999998,192.18597580000005,192.13128909999978,192.18390480000016,192.18597580000005,192.18597580000005,192.18597580000005,194.11477400000012,Objects\154b.jpg,mid,o,1.9262398000000758,None,,,,00060,001,2026-01-19_17h39.04.439,MST_test,2024.2.0,60.03175679934175,2026-01-19 17h39.09.818374 +0530,
43,0,44,s,6.386508999999933,None,44,0,43,194.13084130000016,,,,,,,,,,,,,,,,,,,,,,,,,,,,,,,,,,,,,,,,,,,,,,,,,,194.11513830000013,194.13084130000016,194.6620157000002,194.61427520000007,194.65950870000006,194.6620157000002,194.6620157000002,194.6620157000002,201.0647002999999,Scenes\015a.jpg,post,s,6.386508999999933,None,,,,00060,001,2026-01-19_17h39.04.439,MST_test,2024.2.0,60.03175679934175,2026-01-19 17h39.09.818374 +0530,
44,0,45,o,1.5256890999999086,None,45,0,44,201.0809694999998,,,,,,,,,,,,,,,,,,,,,,,,,,,,,,,,,,,,,,,,,,,,,,,,,,201.0650698999998,201.0809694999998,201.61858029999985,201.56445059999987,201.61562259999982,201.61858029999985,201.61858029999985,201.61858029999985,203.14900540000008,Objects\057b.jpg,pre,o,1.5256890999999086,None,,,,00060,001,2026-01-19_17h39.04.439,MST_test,2024.2.0,60.03175679934175,2026-01-19 17h39.09.818374 +0530,
45,0,46,s,2.193356099999619,None,46,0,45,203.1642157000001,,,,,,,,,,,,,,,,,,,,,,,,,,,,,,,,,,,,,,,,,,,,,,,,,,203.1494778000001,203.1642157000001,203.71160989999998,203.64780849999988,203.70920260000003,203.71160989999998,203.71160989999998,203.71160989999998,205.91500099999985,Foils\105a.jpg,none,s,2.193356099999619,None,,,,00060,001,2026-01-19_17h39.04.439,MST_test,2024.2.0,60.03175679934175,2026-01-19 17h39.09.818374 +0530,
46,0,47,o,5.343751400000201,None,47,0,46,205.93094389999987,,,,,,,,,,,,,,,,,,,,,,,,,,,,,,,,,,,,,,,,,,,,,,,,,,205.9153583000002,205.93094389999987,206.4882260999998,206.41467719999991,206.48561250000012,206.4882260999998,206.4882260999998,206.4882260999998,211.8479996000001,Scenes\009a.jpg,post,o,5.343751400000201,None,,,,00060,001,2026-01-19_17h39.04.439,MST_test,2024.2.0,60.03175679934175,2026-01-19 17h39.09.818374 +0530,
47,0,48,n,1.3704658999999992,None,48,0,47,211.86391969999977,,,,,,,,,,,,,,,,,,,,,,,,,,,,,,,,,,,,,,,,,,,,,,,,,,211.84836270000005,211.86391969999977,212.39815009999984,212.3481458000001,212.3954904000002,212.39815009999984,212.39815009999984,212.39815009999984,213.78146819999984,Objects\150b.jpg,post,n,1.3704658999999992,None,,,,00060,001,2026-01-19_17h39.04.439,MST_test,2024.2.0,60.03175679934175,2026-01-19 17h39.09.818374 +0530,
48,0,49,s,1.6030691000000843,None,49,0,48,213.79761499999995,,,,,,,,,,,,,,,,,,,,,,,,,,,,,,,,,,,,,,,,,,,,,,,,,,213.7818213999999,213.79761499999995,214.3736001000002,214.28128849999985,214.37117519999993,214.3736001000002,214.3736001000002,214.3736001000002,215.9823164999998,Scenes\171b.jpg,mid,s,1.6030691000000843,None,,,,00060,001,2026-01-19_17h39.04.439,MST_test,2024.2.0,60.03175679934175,2026-01-19 17h39.09.818374 +0530,
49,0,50,s,1.114451100000224,None,50,0,49,215.99766249999993,,,,,,,,,,,,,,,,,,,,,,,,,,,,,,,,,,,,,,,,,,,,,,,,,,215.98281270000007,215.99766249999993,216.56578739999986,216.48133169999983,216.56311770000002,216.56578739999986,216.56578739999986,216.56578739999986,217.68176600000015,Scenes\040b.jpg,post,s,1.114451100000224,None,,,,00060,001,2026-01-19_17h39.04.439,MST_test,2024.2.0,60.03175679934175,2026-01-19 17h39.09.818374 +0530,
50,0,51,s,2.39279230000011,None,51,0,50,217.6976155000002,,,,,,,,,,,,,,,,,,,,,,,,,,,,,,,,,,,,,,,,,,,,,,,,,,217.68212080000012,217.6976155000002,218.22310819999984,218.18128579999984,218.22043930000018,218.22310819999984,218.22310819999984,218.22310819999984,220.6315370000002,Objects\061a.jpg,post,s,2.39279230000011,None,,,,00060,001,2026-01-19_17h39.04.439,MST_test,2024.2.0,60.03175679934175,2026-01-19 17h39.09.818374 +0530,
51,0,52,o,1.2025868999999147,None,52,0,51,220.64800239999977,,,,,,,,,,,,,,,,,,,,,,,,,,,,,,,,,,,,,,,,,,,,,,,,,,220.6319966000001,220.64800239999977,221.18197710000004,221.13175050000018,221.17954800000007,221.18197710000004,221.18197710000004,221.18197710000004,222.39822300000014,Objects\181a.jpg,post,o,1.2025868999999147,None,,,,00060,001,2026-01-19_17h39.04.439,MST_test,2024.2.0,60.03175679934175,2026-01-19 17h39.09.818374 +0530,
52,0,53,s,2.689898600000106,None,53,0,52,222.41428029999997,,,,,,,,,,,,,,,,,,,,,,,,,,,,,,,,,,,,,,,,,,,,,,,,,,222.39857560000019,222.41428029999997,222.9583902999998,222.89795550000008,222.95508070000005,222.9583902999998,222.9583902999998,222.9583902999998,225.6645284000001,Scenes\132b.jpg,pre,s,2.689898600000106,None,,,,00060,001,2026-01-19_17h39.04.439,MST_test,2024.2.0,60.03175679934175,2026-01-19 17h39.09.818374 +0530,
53,0,54,s,3.1037053999998534,None,54,0,53,225.68058629999996,,,,,,,,,,,,,,,,,,,,,,,,,,,,,,,,,,,,,,,,,,,,,,,,,,225.66485710000006,225.68058629999996,226.2163741999998,226.16462360000014,226.21359489999986,226.2163741999998,226.2163741999998,226.2163741999998,229.33163150000019,Objects\111b.jpg,pre,s,3.1037053999998534,None,,,,00060,001,2026-01-19_17h39.04.439,MST_test,2024.2.0,60.03175679934175,2026-01-19 17h39.09.818374 +0530,
54,0,55,s,5.4141474000002745,None,55,0,54,229.3475585000001,,,,,,,,,,,,,,,,,,,,,,,,,,,,,,,,,,,,,,,,,,,,,,,,,,229.3320632,229.3475585000001,229.8748403999998,229.8312989000001,229.87213310000016,229.8748403999998,229.8748403999998,229.8748403999998,235.29831849999982,Foils\scenes19.jpg,none,s,5.4141474000002745,None,,,,00060,001,2026-01-19_17h39.04.439,MST_test,2024.2.0,60.03175679934175,2026-01-19 17h39.09.818374 +0530,
55,0,56,s,4.764871300000323,None,56,0,55,235.31432589999986,,,,,,,,,,,,,,,,,,,,,,,,,,,,,,,,,,,,,,,,,,,,,,,,,,235.29867439999998,235.31432589999986,235.82767939999985,235.79810540000017,235.82545570000002,235.82767939999985,235.82767939999985,235.82767939999985,240.59842930000013,Scenes\186a.jpg,mid,s,4.764871300000323,None,,,,00060,001,2026-01-19_17h39.04.439,MST_test,2024.2.0,60.03175679934175,2026-01-19 17h39.09.818374 +0530,
56,0,57,n,1.4080653999999413,None,57,0,56,240.6154262,,,,,,,,,,,,,,,,,,,,,,,,,,,,,,,,,,,,,,,,,,,,,,,,,,240.59879679999995,240.6154262,,241.11429229999976,241.15649729999996,241.16000170000007,241.16000170000007,241.16000170000007,242.5815544000002,Foils\017a.jpg,none,n,1.4080653999999413,None,,,,00060,001,2026-01-19_17h39.04.439,MST_test,2024.2.0,60.03175679934175,2026-01-19 17h39.09.818374 +0530,
57,0,58,n,2.4361251000000266,None,58,0,57,242.59797470000012,,,,,,,,,,,,,,,,,,,,,,,,,,,,,,,,,,,,,,,,,,,,,,,,,,242.5819775,242.59797470000012,,243.08197470000005,243.23356740000008,243.2361037999999,243.2361037999999,243.2361037999999,245.6821031999998,Scenes\050a.jpg,pre,n,2.4361251000000266,None,,,,00060,001,2026-01-19_17h39.04.439,MST_test,2024.2.0,60.03175679934175,2026-01-19 17h39.09.818374 +0530,
58,0,59,n,3.094495100000131,None,59,0,58,245.69793720000007,,,,,,,,,,,,,,,,,,,,,,,,,,,,,,,,,,,,,,,,,,,,,,,,,,245.68246670000008,245.69793720000007,246.21813789999987,246.18127210000011,246.21466640000017,246.21813789999987,246.21813789999987,246.21813789999987,249.31555799999978,Foils\scenes3.jpg,none,n,3.094495100000131,None,,,,00060,001,2026-01-19_17h39.04.439,MST_test,2024.2.0,60.03175679934175,2026-01-19 17h39.09.818374 +0530,
59,0,60,n,3.0008738999999878,None,60,0,59,249.33068000000003,,,,,,,,,,,,,,,,,,,,,,,,,,,,,,,,,,,,,,,,,,,,,,,,,,249.31592060000003,249.33068000000003,249.84827360000008,249.81474329999992,249.84591520000004,249.84827360000008,249.84827360000008,249.84827360000008,252.86498489999985,Foils\066a.jpg,none,n,3.0008738999999878,None,,,,00060,001,2026-01-19_17h39.04.439,MST_test,2024.2.0,60.03175679934175,2026-01-19 17h39.09.818374 +0530,
60,0,61,n,2.349194699999771,None,61,0,60,252.88218259999985,,,,,,,,,,,,,,,,,,,,,,,,,,,,,,,,,,,,,,,,,,,,,,,,,,252.86533839999993,252.88218259999985,,253.38113900000008,253.46414379999987,253.4668873999999,253.4668873999999,253.4668873999999,255.8317222999999,Scenes\027b.jpg,post,n,2.349194699999771,None,,,,00060,001,2026-01-19_17h39.04.439,MST_test,2024.2.0,60.03175679934175,2026-01-19 17h39.09.818374 +0530,
61,0,62,n,1.1347399999999652,None,62,0,61,255.84721339999987,,,,,,,,,,,,,,,,,,,,,,,,,,,,,,,,,,,,,,,,,,,,,,,,,,255.83207869999978,255.84721339999987,256.38544550000006,256.33189919999995,256.3819957999999,256.38544550000006,256.38544550000006,256.38544550000006,257.53163240000003,Foils\093b.jpg,none,n,1.1347399999999652,None,,,,00060,001,2026-01-19_17h39.04.439,MST_test,2024.2.0,60.03175679934175,2026-01-19 17h39.09.818374 +0530,
62,0,63,n,9.739908099999866,None,63,0,62,257.5475864,,,,,,,,,,,,,,,,,,,,,,,,,,,,,,,,,,,,,,,,,,,,,,,,,,257.5319878,257.5475864,258.06872440000006,258.0313080000001,258.06608400000005,258.06872440000006,258.06872440000006,258.06872440000006,267.8147681999999,Objects\136a.jpg,pre,n,9.739908099999866,None,,,,00060,001,2026-01-19_17h39.04.439,MST_test,2024.2.0,60.03175679934175,2026-01-19 17h39.09.818374 +0530,
63,0,64,o,2.31837620000033,None,64,0,63,267.8317926999998,,,,,,,,,,,,,,,,,,,,,,,,,,,,,,,,,,,,,,,,,,,,,,,,,,267.81511869999986,267.8317926999998,,268.33161259999997,268.3595571999999,268.3617260000001,268.3617260000001,268.3617260000001,270.68165050000016,Objects\026a.jpg,mid,o,2.31837620000033,None,,,,00060,001,2026-01-19_17h39.04.439,MST_test,2024.2.0,60.03175679934175,2026-01-19 17h39.09.818374 +0530,
64,0,65,o,1.2760633999996571,None,65,0,64,270.6974694999999,,,,,,,,,,,,,,,,,,,,,,,,,,,,,,,,,,,,,,,,,,,,,,,,,,270.68206969999983,270.6974694999999,271.22011889999976,271.18066799999997,271.21771069999977,271.22011889999976,271.22011889999976,271.22011889999976,272.49794169999996,Objects\040a.jpg,mid,o,1.2760633999996571,None,,,,00060,001,2026-01-19_17h39.04.439,MST_test,2024.2.0,60.03175679934175,2026-01-19 17h39.09.818374 +0530,
65,0,66,o,1.7841816999998628,None,66,0,65,272.51409569999987,,,,,,,,,,,,,,,,,,,,,,,,,,,,,,,,,,,,,,,,,,,,,,,,,,272.4982906,272.51409569999987,273.06409110000004,272.9980667,273.06159190000017,273.06409110000004,273.06409110000004,273.06409110000004,274.8649144000001,Scenes\080a.jpg,pre,o,1.7841816999998628,None,,,,00060,001,2026-01-19_17h39.04.439,MST_test,2024.2.0,60.03175679934175,2026-01-19 17h39.09.818374 +0530,
66,0,67,n,1.1329062999998314,None,67,0,66,274.88078940000014,,,,,,,,,,,,,,,,,,,,,,,,,,,,,,,,,,,,,,,,,,,,,,,,,,274.86527320000005,274.88078940000014,275.41905989999987,275.3645797999998,275.4162505999998,275.41905989999987,275.41905989999987,275.41905989999987,276.5649475,Objects\131b.jpg,post,n,1.1329062999998314,None,,,,00060,001,2026-01-19_17h39.04.439,MST_test,2024.2.0,60.03175679934175,2026-01-19 17h39.09.818374 +0530,
67,0,68,s,4.411536699999942,None,68,0,67,276.58069909999995,,,,,,,,,,,,,,,,,,,,,,,,,,,,,,,,,,,,,,,,,,,,,,,,,,276.5652991000002,276.58069909999995,277.1162896999999,277.0646631999998,277.11349040000005,277.1162896999999,277.1162896999999,277.1162896999999,281.5313351,Objects\187a.jpg,mid,s,4.411536699999942,None,,,,00060,001,2026-01-19_17h39.04.439,MST_test,2024.2.0,60.03175679934175,2026-01-19 17h39.09.818374 +0530,
68,0,69,s,1.8624729000002844,None,69,0,68,281.5476174999999,,,,,,,,,,,,,,,,,,,,,,,,,,,,,,,,,,,,,,,,,,,,,,,,,,281.53170249999994,281.5476174999999,282.0894975000001,282.03130379999993,282.08684949999997,282.0894975000001,282.0894975000001,282.0894975000001,283.96499589999985,Objects\015b.jpg,pre,s,1.8624729000002844,None,,,,00060,001,2026-01-19_17h39.04.439,MST_test,2024.2.0,60.03175679934175,2026-01-19 17h39.09.818374 +0530,
69,0,70,s,5.327525699999569,None,70,0,69,283.9809153000001,,,,,,,,,,,,,,,,,,,,,,,,,,,,,,,,,,,,,,,,,,,,,,,,,,283.9653549999998,283.9809153000001,284.6010583000002,284.4647771,284.5985452,284.6010583000002,284.6010583000002,284.6010583000002,289.9315836999999,Scenes\061a.jpg,pre,s,5.327525699999569,None,,,,00060,001,2026-01-19_17h39.04.439,MST_test,2024.2.0,60.03175679934175,2026-01-19 17h39.09.818374 +0530,
70,0,71,n,1.715298100000382,None,71,0,70,289.94725229999995,,,,,,,,,,,,,,,,,,,,,,,,,,,,,,,,,,,,,,,,,,,,,,,,,,289.9319372,289.94725229999995,290.50097189999997,290.4315703000002,290.4981542999999,290.50097189999997,290.50097189999997,290.50097189999997,292.23162030000003,Foils\scenes22.jpg,none,n,1.715298100000382,None,,,,00060,001,2026-01-19_17h39.04.439,MST_test,2024.2.0,60.03175679934175,2026-01-19 17h39.09.818374 +0530,
71,0,72,s,1.4176791999998386,None,72,0,71,292.24792620000017,,,,,,,,,,,,,,,,,,,,,,,,,,,,,,,,,,,,,,,,,,,,,,,,,,292.2319763999999,292.24792620000017,292.8151877,292.7313509999999,292.8122512,292.8151877,292.8151877,292.8151877,294.2480357999998,Scenes\139b.jpg,post,s,1.4176791999998386,None,,,,00060,001,2026-01-19_17h39.04.439,MST_test,2024.2.0,60.03175679934175,2026-01-19 17h39.09.818374 +0530,
72,0,73,o,3.5272463000001153,None,73,0,72,294.26507549999997,,,,,,,,,,,,,,,,,,,,,,,,,,,,,,,,,,,,,,,,,,,,,,,,,,294.24839040000006,294.26507549999997,,294.7642962,294.84620749999976,294.84884250000005,294.84884250000005,294.84884250000005,298.38158079999994,Scenes\092a.jpg,mid,o,3.5272463000001153,None,,,,00060,001,2026-01-19_17h39.04.439,MST_test,2024.2.0,60.03175679934175,2026-01-19 17h39.09.818374 +0530,
73,0,74,o,1.242928099999972,None,74,0,73,298.3976163000002,,,,,,,,,,,,,,,,,,,,,,,,,,,,,,,,,,,,,,,,,,,,,,,,,,298.38195210000003,298.3976163000002,298.9570233999998,298.8812982999998,298.9544311999998,298.9570233999998,298.9570233999998,298.9570233999998,300.21495330000016,Scenes\137a.jpg,pre,o,1.242928099999972,None,,,,00060,001,2026-01-19_17h39.04.439,MST_test,2024.2.0,60.03175679934175,2026-01-19 17h39.09.818374 +0530,
74,0,75,s,4.319133800000145,None,75,0,74,300.2309614999999,,,,,,,,,,,,,,,,,,,,,,,,,,,,,,,,,,,,,,,,,,,,,,,,,,300.21531939999977,300.2309614999999,300.7610758999999,300.71463919999997,300.75843769999983,300.7610758999999,300.7610758999999,300.7610758999999,305.0817146999998,Objects\184b.jpg,pre,s,4.319133800000145,None,,,,00060,001,2026-01-19_17h39.04.439,MST_test,2024.2.0,60.03175679934175,2026-01-19 17h39.09.818374 +0530,
75,0,76,n,2.299381899999844,None,76,0,75,305.09763740000017,,,,,,,,,,,,,,,,,,,,,,,,,,,,,,,,,,,,,,,,,,,,,,,,,,305.08206870000004,305.09763740000017,305.6452602999998,305.5817261000002,305.6423205000001,305.6452602999998,305.6452602999998,305.6452602999998,307.9480976,Foils\scenes28.jpg,none,n,2.299381899999844,None,,,,00060,001,2026-01-19_17h39.04.439,MST_test,2024.2.0,60.03175679934175,2026-01-19 17h39.09.818374 +0530,
76,0,77,s,1.2136346999996022,None,77,0,76,307.96438820000003,,,,,,,,,,,,,,,,,,,,,,,,,,,,,,,,,,,,,,,,,,,,,,,,,,307.9484981999999,307.96438820000003,308.4994806999998,308.448253,308.4963094999998,308.4994806999998,308.4994806999998,308.4994806999998,309.7147936000001,Objects\052b.jpg,pre,s,1.2136346999996022,None,,,,00060,001,2026-01-19_17h39.04.439,MST_test,2024.2.0,60.03175679934175,2026-01-19 17h39.09.818374 +0530,
77,0,78,o,1.6712596000002122,None,78,0,77,309.7313522999998,,,,,,,,,,,,,,,,,,,,,,,,,,,,,,,,,,,,,,,,,,,,,,,,,,309.7149979999999,309.7313522999998,310.2825391000001,310.21469260000003,310.2802489999999,310.2825391000001,310.2825391000001,310.2825391000001,311.9653717000001,Scenes\122a.jpg,pre,o,1.6712596000002122,None,,,,00060,001,2026-01-19_17h39.04.439,MST_test,2024.2.0,60.03175679934175,2026-01-19 17h39.09.818374 +0530,
78,0,79,o,2.632546199999979,None,79,0,78,311.9809070000001,,,,,,,,,,,,,,,,,,,,,,,,,,,,,,,,,,,,,,,,,,,,,,,,,,311.9657293,311.9809070000001,312.55998850000014,312.4643804000002,312.5569408000001,312.55998850000014,312.55998850000014,312.55998850000014,315.1991409000002,Objects\120a.jpg,pre,o,2.632546199999979,None,,,,00060,001,2026-01-19_17h39.04.439,MST_test,2024.2.0,60.03175679934175,2026-01-19 17h39.09.818374 +0530,
79,0,80,s,5.4522689000000355,None,80,0,79,315.21428590000005,,,,,,,,,,,,,,,,,,,,,,,,,,,,,,,,,,,,,,,,,,,,,,,,,,315.1995691000002,315.21428590000005,315.8038919999999,315.6977031000001,315.80131789999996,315.8038919999999,315.8038919999999,315.8038919999999,321.2647799000001,Scenes\077b.jpg,pre,s,5.4522689000000355,None,,,,00060,001,2026-01-19_17h39.04.439,MST_test,2024.2.0,60.03175679934175,2026-01-19 17h39.09.818374 +0530,
80,0,81,n,2.8295915999997305,None,81,0,80,321.2812097000001,,,,,,,,,,,,,,,,,,,,,,,,,,,,,,,,,,,,,,,,,,,,,,,,,,321.2651602000001,321.2812097000001,321.8185282999998,321.7643165999998,321.8157087999998,321.8185282999998,321.8185282999998,321.8185282999998,324.66474990000006,Foils\033a.jpg,none,n,2.8295915999997305,None,,,,00060,001,2026-01-19_17h39.04.439,MST_test,2024.2.0,60.03175679934175,2026-01-19 17h39.09.818374 +0530,
81,0,82,n,1.2815896000001885,None,82,0,81,324.6809146999999,,,,,,,,,,,,,,,,,,,,,,,,,,,,,,,,,,,,,,,,,,,,,,,,,,324.6649759000002,324.6809146999999,325.2230977999998,325.1646976000002,325.22070940000003,325.2230977999998,325.2230977999998,325.2230977999998,326.51584,Foils\002a.jpg,none,n,1.2815896000001885,None,,,,00060,001,2026-01-19_17h39.04.439,MST_test,2024.2.0,60.03175679934175,2026-01-19 17h39.09.818374 +0530,
82,0,83,n,0.9374657000003026,None,83,0,82,326.53177259999984,,,,,,,,,,,,,,,,,,,,,,,,,,,,,,,,,,,,,,,,,,,,,,,,,,326.5162,326.53177259999984,327.0550767,327.01455450000003,327.0525711,327.0550767,327.0550767,327.0550767,327.99826699999994,Foils\074a.jpg,none,n,0.9374657000003026,None,,,,00060,001,2026-01-19_17h39.04.439,MST_test,2024.2.0,60.03175679934175,2026-01-19 17h39.09.818374 +0530,
83,0,84,n,1.0317970999999488,None,84,0,83,328.01426820000006,,,,,,,,,,,,,,,,,,,,,,,,,,,,,,,,,,,,,,,,,,,,,,,,,,327.9986156,328.01426820000006,328.5447515000001,328.4979619999999,328.5420365,328.5447515000001,328.5447515000001,328.5447515000001,329.5815455000002,Foils\113a.jpg,none,n,1.0317970999999488,None,,,,00060,001,2026-01-19_17h39.04.439,MST_test,2024.2.0,60.03175679934175,2026-01-19 17h39.09.818374 +0530,
84,0,85,n,1.2132956999998896,None,85,0,84,329.5976151,,,,,,,,,,,,,,,,,,,,,,,,,,,,,,,,,,,,,,,,,,,,,,,,,,329.5818875,329.5976151,330.13924929999985,330.0813545000001,330.1363513000001,330.13924929999985,330.13924929999985,330.13924929999985,331.3652480999999,Scenes\047a.jpg,mid,n,1.2132956999998896,None,,,,00060,001,2026-01-19_17h39.04.439,MST_test,2024.2.0,60.03175679934175,2026-01-19 17h39.09.818374 +0530,
85,0,86,s,2.4619128999997884,None,86,0,85,331.3815884999999,,,,,,,,,,,,,,,,,,,,,,,,,,,,,,,,,,,,,,,,,,,,,,,,,,331.36559709999983,331.3815884999999,331.91419270000006,331.8647086000001,331.91096000000016,331.91419270000006,331.91419270000006,331.91419270000006,334.3814901999999,Objects\018a.jpg,pre,s,2.4619128999997884,None,,,,00060,001,2026-01-19_17h39.04.439,MST_test,2024.2.0,60.03175679934175,2026-01-19 17h39.09.818374 +0530,
86,0,87,s,1.782973200000015,None,87,0,86,334.3975949999999,,,,,,,,,,,,,,,,,,,,,,,,,,,,,,,,,,,,,,,,,,,,,,,,,,334.3819134999999,334.3975949999999,334.93711239999993,334.88125790000004,334.93466709999984,334.93711239999993,334.93711239999993,334.93711239999993,336.73163479999994,Objects\152b.jpg,mid,s,1.782973200000015,None,,,,00060,001,2026-01-19_17h39.04.439,MST_test,2024.2.0,60.03175679934175,2026-01-19 17h39.09.818374 +0530,
87,0,88,o,2.577983900000163,None,88,0,87,336.74746300000015,,,,,,,,,,,,,,,,,,,,,,,,,,,,,,,,,,,,,,,,,,,,,,,,,,336.731992,336.74746300000015,337.3023317000002,337.2314781,337.3001284000002,337.3023317000002,337.3023317000002,337.3023317000002,339.88174160000017,Objects\172b.jpg,post,o,2.577983900000163,None,,,,00060,001,2026-01-19_17h39.04.439,MST_test,2024.2.0,60.03175679934175,2026-01-19 17h39.09.818374 +0530,
88,0,89,s,4.344007399999555,None,89,0,88,339.8973234,,,,,,,,,,,,,,,,,,,,,,,,,,,,,,,,,,,,,,,,,,,,,,,,,,339.8821770999998,339.8973234,340.4558127,340.38141970000015,340.45342870000013,340.4558127,340.4558127,340.4558127,344.8161682,Scenes\124b.jpg,pre,s,4.344007399999555,None,,,,00060,001,2026-01-19_17h39.04.439,MST_test,2024.2.0,60.03175679934175,2026-01-19 17h39.09.818374 +0530,
89,0,90,o,2.2193961000002673,None,90,0,89,344.8309721999999,,,,,,,,,,,,,,,,,,,,,,,,,,,,,,,,,,,,,,,,,,,,,,,,,,344.8165174999999,344.8309721999999,345.3884791999999,345.3147472999999,345.38562999999976,345.3884791999999,345.3884791999999,345.3884791999999,347.6149516999999,Scenes\116a.jpg,pre,o,2.2193961000002673,None,,,,00060,001,2026-01-19_17h39.04.439,MST_test,2024.2.0,60.03175679934175,2026-01-19 17h39.09.818374 +0530,
90,0,91,o,1.0436118000002352,None,91,0,90,347.6306918999999,,,,,,,,,,,,,,,,,,,,,,,,,,,,,,,,,,,,,,,,,,,,,,,,,,347.6153054000001,347.6306918999999,348.16544109999995,348.1147654000001,348.1622050000001,348.16544109999995,348.16544109999995,348.16544109999995,349.21491000000015,Scenes\097a.jpg,post,o,1.0436118000002352,None,,,,00060,001,2026-01-19_17h39.04.439,MST_test,2024.2.0,60.03175679934175,2026-01-19 17h39.09.818374 +0530,
91,0,92,s,3.0734080000001995,None,92,0,91,349.23070670000016,,,,,,,,,,,,,,,,,,,,,,,,,,,,,,,,,,,,,,,,,,,,,,,,,,349.2152618,349.23070670000016,349.78323520000004,349.7144294,349.78066020000006,349.78323520000004,349.78323520000004,349.78323520000004,352.86475900000005,Scenes\120a.jpg,mid,s,3.0734080000001995,None,,,,00060,001,2026-01-19_17h39.04.439,MST_test,2024.2.0,60.03175679934175,2026-01-19 17h39.09.818374 +0530,
92,0,93,o,1.0909857000001466,None,93,0,92,352.88061400000015,,,,,,,,,,,,,,,,,,,,,,,,,,,,,,,,,,,,,,,,,,,,,,,,,,352.8651006,352.88061400000015,,353.36534699999993,353.4025280999999,353.4058058999999,353.4058058999999,353.4058058999999,354.4984410000002,Objects\073a.jpg,post,o,1.0909857000001466,None,,,,00060,001,2026-01-19_17h39.04.439,MST_test,2024.2.0,60.03175679934175,2026-01-19 17h39.09.818374 +0530,
93,0,94,n,4.267124500000136,None,94,0,93,354.5154511999999,,,,,,,,,,,,,,,,,,,,,,,,,,,,,,,,,,,,,,,,,,,,,,,,,,354.49880440000015,354.5154511999999,,355.0143406000002,355.0505543999998,355.0533442000001,355.0533442000001,355.0533442000001,359.33125119999977,Foils\034a.jpg,none,n,4.267124500000136,None,,,,00060,001,2026-01-19_17h39.04.439,MST_test,2024.2.0,60.03175679934175,2026-01-19 17h39.09.818374 +0530,
94,0,95,n,1.3130216999998083,None,95,0,94,359.34729890000017,,,,,,,,,,,,,,,,,,,,,,,,,,,,,,,,,,,,,,,,,,,,,,,,,,359.3315977000002,359.34729890000017,359.9270078999998,359.83129180000014,359.92415549999987,359.9270078999998,359.9270078999998,359.9270078999998,361.24910679999994,Scenes\192b.jpg,mid,n,1.3130216999998083,None,,,,00060,001,2026-01-19_17h39.04.439,MST_test,2024.2.0,60.03175679934175,2026-01-19 17h39.09.818374 +0530,
95,0,96,s,3.86829009999974,None,96,0,95,361.26444219999985,,,,,,,,,,,,,,,,,,,,,,,,,,,,,,,,,,,,,,,,,,,,,,,,,,361.2494505999998,361.26444219999985,361.82101680000005,361.7481014,361.81841380000014,361.82101680000005,361.82101680000005,361.82101680000005,365.6981700000001,Scenes\103a.jpg,post,s,3.86829009999974,None,,,,00060,001,2026-01-19_17h39.04.439,MST_test,2024.2.0,60.03175679934175,2026-01-19 17h39.09.818374 +0530,
96,0,97,n,1.5373030999999173,None,97,0,96,365.71488180000006,,,,,,,,,,,,,,,,,,,,,,,,,,,,,,,,,,,,,,,,,,,,,,,,,,365.69851430000017,365.71488180000006,366.2553342000001,366.1979212000001,366.2523077000001,366.2553342000001,366.2553342000001,366.2553342000001,367.79838389999986,Scenes\087b.jpg,mid,n,1.5373030999999173,None,,,,00060,001,2026-01-19_17h39.04.439,MST_test,2024.2.0,60.03175679934175,2026-01-19 17h39.09.818374 +0530,
97,0,98,o,5.649338300000181,None,98,0,97,367.8141716,,,,,,,,,,,,,,,,,,,,,,,,,,,,,,,,,,,,,,,,,,,,,,,,,,367.79858430000013,367.8141716,368.4146703000001,368.2982895,368.4116217999999,368.4146703000001,368.4146703000001,368.4146703000001,374.0650985000002,Scenes\165a.jpg,post,o,5.649338300000181,None,,,,00060,001,2026-01-19_17h39.04.439,MST_test,2024.2.0,60.03175679934175,2026-01-19 17h39.09.818374 +0530,
98,0,99,o,0.919988199999807,None,99,0,98,374.0818601000001,,,,,,,,,,,,,,,,,,,,,,,,,,,,,,,,,,,,,,,,,,,,,,,,,,374.06545959999994,374.0818601000001,374.6798560000002,374.5647285,374.6769032000002,374.6798560000002,374.6798560000002,374.6798560000002,375.61483240000007,Scenes\006b.jpg,mid,o,0.919988199999807,None,,,,00060,001,2026-01-19_17h39.04.439,MST_test,2024.2.0,60.03175679934175,2026-01-19 17h39.09.818374 +0530,
99,0,100,o,1.0363738000000922,None,100,0,99,375.63104999999996,,,,,,,,,,,,,,,,,,,,,,,,,,,,,,,,,,,,,,,,,,,,,,,,,,375.6151748000002,375.63104999999996,376.1476269,376.11479569999983,376.14500959999987,376.1476269,376.1476269,376.1476269,377.1980950000002,Objects\127a.jpg,pre,o,1.0363738000000922,None,,,,00060,001,2026-01-19_17h39.04.439,MST_test,2024.2.0,60.03175679934175,2026-01-19 17h39.09.818374 +0530,
100,0,101,o,1.7650128999998742,None,101,0,100,377.2151838,,,,,,,,,,,,,,,,,,,,,,,,,,,,,,,,,,,,,,,,,,,,,,,,,,377.1984501000002,377.2151838,377.74847469999986,377.69808509999984,377.74598939999987,377.74847469999986,377.74847469999986,377.74847469999986,379.5148399999998,Objects\142b.jpg,pre,o,1.7650128999998742,None,,,,00060,001,2026-01-19_17h39.04.439,MST_test,2024.2.0,60.03175679934175,2026-01-19 17h39.09.818374 +0530,
101,0,102,s,2.686811399999897,None,102,0,101,379.53111820000004,,,,,,,,,,,,,,,,,,,,,,,,,,,,,,,,,,,,,,,,,,,,,,,,,,379.5150745000001,379.53111820000004,380.09024739999995,380.01464780000015,380.0876245999998,380.09024739999995,380.09024739999995,380.09024739999995,382.7814354000002,Objects\068b.jpg,mid,s,2.686811399999897,None,,,,00060,001,2026-01-19_17h39.04.439,MST_test,2024.2.0,60.03175679934175,2026-01-19 17h39.09.818374 +0530,
102,0,103,o,1.263586900000064,None,103,0,102,382.7971281,,,,,,,,,,,,,,,,,,,,,,,,,,,,,,,,,,,,,,,,,,,,,,,,,,382.7817927000001,382.7971281,383.32051709999996,383.2811268999999,383.3183127000002,383.32051709999996,383.32051709999996,383.32051709999996,384.5982737999998,Objects\101a.jpg,post,o,1.263586900000064,None,,,,00060,001,2026-01-19_17h39.04.439,MST_test,2024.2.0,60.03175679934175,2026-01-19 17h39.09.818374 +0530,
103,0,104,n,0.9988270000003467,None,104,0,103,384.61429799999996,,,,,,,,,,,,,,,,,,,,,,,,,,,,,,,,,,,,,,,,,,,,,,,,,,384.59862169999997,384.61429799999996,,385.09854799999994,385.13529149999977,385.1376736000002,385.1376736000002,385.1376736000002,386.1486445999999,Foils\049a.jpg,none,n,0.9988270000003467,None,,,,00060,001,2026-01-19_17h39.04.439,MST_test,2024.2.0,60.03175679934175,2026-01-19 17h39.09.818374 +0530,
104,0,105,s,1.4513001000000259,None,105,0,104,386.16407160000017,,,,,,,,,,,,,,,,,,,,,,,,,,,,,,,,,,,,,,,,,,,,,,,,,,386.1490466,386.16407160000017,386.68526489999977,386.64791190000005,386.6830623000001,386.68526489999977,386.68526489999977,386.68526489999977,388.1482071999999,Objects\174b.jpg,mid,s,1.4513001000000259,None,,,,00060,001,2026-01-19_17h39.04.439,MST_test,2024.2.0,60.03175679934175,2026-01-19 17h39.09.818374 +0530,
105,0,106,s,1.1539450999998735,None,106,0,105,388.1645886000001,,,,,,,,,,,,,,,,,,,,,,,,,,,,,,,,,,,,,,,,,,,,,,,,,,388.1486190999999,388.1645886000001,,388.6486662000002,388.6829899999998,388.6860074000001,388.6860074000001,388.6860074000001,389.84822570000006,Objects\025b.jpg,mid,s,1.1539450999998735,None,,,,00060,001,2026-01-19_17h39.04.439,MST_test,2024.2.0,60.03175679934175,2026-01-19 17h39.09.818374 +0530,
106,0,107,s,1.2040769000000182,None,107,0,106,389.86471489999985,,,,,,,,,,,,,,,,,,,,,,,,,,,,,,,,,,,,,,,,,,,,,,,,,,389.84857650000004,389.86471489999985,390.38868279999997,390.3479785999998,390.38615979999986,390.38868279999997,390.38868279999997,390.38868279999997,391.5981965000001,Objects\016b.jpg,post,s,1.2040769000000182,None,,,,00060,001,2026-01-19_17h39.04.439,MST_test,2024.2.0,60.03175679934175,2026-01-19 17h39.09.818374 +0530,
107,0,108,s,1.1421962999997959,None,108,0,107,391.6148026999999,,,,,,,,,,,,,,,,,,,,,,,,,,,,,,,,,,,,,,,,,,,,,,,,,,391.5985402000001,391.6148026999999,,392.09869309999976,392.1440824000001,392.14715190000015,392.14715190000015,392.14715190000015,393.2988601000002,Objects\116b.jpg,mid,s,1.1421962999997959,None,,,,00060,001,2026-01-19_17h39.04.439,MST_test,2024.2.0,60.03175679934175,2026-01-19 17h39.09.818374 +0530,
108,0,109,n,2.8393449999998666,None,109,0,108,393.3144129000002,,,,,,,,,,,,,,,,,,,,,,,,,,,,,,,,,,,,,,,,,,,,,,,,,,393.29914400000007,393.3144129000002,393.8411001999998,393.7980498000002,393.83829719999994,393.8411001999998,393.8411001999998,393.8411001999998,396.68229759999986,Objects\066b.jpg,pre,n,2.8393449999998666,None,,,,00060,001,2026-01-19_17h39.04.439,MST_test,2024.2.0,60.03175679934175,2026-01-19 17h39.09.818374 +0530,
109,0,110,n,1.5407358000002205,None,110,0,109,396.69752070000004,,,,,,,,,,,,,,,,,,,,,,,,,,,,,,,,,,,,,,,,,,,,,,,,,,396.6826546000002,396.69752070000004,397.2357713000001,397.1811653,397.2332947,397.2357713000001,397.2357713000001,397.2357713000001,398.78194029999986,Scenes\142a.jpg,pre,n,1.5407358000002205,None,,,,00060,001,2026-01-19_17h39.04.439,MST_test,2024.2.0,60.03175679934175,2026-01-19 17h39.09.818374 +0530,
110,0,111,n,0.9677566000000297,None,111,0,110,398.7977030000002,,,,,,,,,,,,,,,,,,,,,,,,,,,,,,,,,,,,,,,,,,,,,,,,,,398.78230889999986,398.7977030000002,399.3683999,399.281375,399.3650969,399.3683999,399.3683999,399.3683999,400.3488986000002,Scenes\168b.jpg,post,n,0.9677566000000297,None,,,,00060,001,2026-01-19_17h39.04.439,MST_test,2024.2.0,60.03175679934175,2026-01-19 17h39.09.818374 +0530,
111,0,112,n,2.626513000000159,None,112,0,111,400.3643154000001,,,,,,,,,,,,,,,,,,,,,,,,,,,,,,,,,,,,,,,,,,,,,,,,,,400.3492670999999,400.3643154000001,400.92538909999985,400.8480405,400.92270499999995,400.92538909999985,400.92538909999985,400.92538909999985,403.5645424999998,Foils\scenes23.jpg,none,n,2.626513000000159,None,,,,00060,001,2026-01-19_17h39.04.439,MST_test,2024.2.0,60.03175679934175,2026-01-19 17h39.09.818374 +0530,
112,0,113,n,1.2913995999997496,None,113,0,112,403.5807966000002,,,,,,,,,,,,,,,,,,,,,,,,,,,,,,,,,,,,,,,,,,,,,,,,,,403.5649067999998,403.5807966000002,404.1490586,404.06470579999996,404.1457559999999,404.1490586,404.1490586,404.1490586,405.4485923000002,Scenes\004b.jpg,post,n,1.2913995999997496,None,,,,00060,001,2026-01-19_17h39.04.439,MST_test,2024.2.0,60.03175679934175,2026-01-19 17h39.09.818374 +0530,
113,0,114,s,1.488192700000127,None,114,0,113,405.46584889999986,,,,,,,,,,,,,,,,,,,,,,,,,,,,,,,,,,,,,,,,,,,,,,,,,,405.44894079999995,405.46584889999986,,405.9653180999999,406.0202626,406.0238641000001,406.0238641000001,406.0238641000001,407.5145613999998,Scenes\066b.jpg,mid,s,1.488192700000127,None,,,,00060,001,2026-01-19_17h39.04.439,MST_test,2024.2.0,60.03175679934175,2026-01-19 17h39.09.818374 +0530,
114,0,115,s,3.8411854999999377,None,115,0,114,407.5309306999998,,,,,,,,,,,,,,,,,,,,,,,,,,,,,,,,,,,,,,,,,,,,,,,,,,407.5147968000001,407.5309306999998,408.05529690000003,408.01483069999995,408.0520714999998,408.05529690000003,408.05529690000003,408.05529690000003,411.89911649999976,Objects\028a.jpg,post,s,3.8411854999999377,None,,,,00060,001,2026-01-19_17h39.04.439,MST_test,2024.2.0,60.03175679934175,2026-01-19 17h39.09.818374 +0530,
115,0,116,o,1.2534127000003537,None,116,0,115,411.91428829999995,,,,,,,,,,,,,,,,,,,,,,,,,,,,,,,,,,,,,,,,,,,,,,,,,,411.8994536,411.91428829999995,412.46678040000006,412.3978959000001,412.4639431999999,412.46678040000006,412.46678040000006,412.46678040000006,413.7315414999998,Scenes\017b.jpg,mid,o,1.2534127000003537,None,,,,00060,001,2026-01-19_17h39.04.439,MST_test,2024.2.0,60.03175679934175,2026-01-19 17h39.09.818374 +0530,
116,0,117,o,3.278494099999989,None,117,0,116,413.7474394999999,,,,,,,,,,,,,,,,,,,,,,,,,,,,,,,,,,,,,,,,,,,,,,,,,,413.7318860999999,413.7474394999999,414.29848200000015,414.2313605999998,414.2947936999999,414.29848200000015,414.29848200000015,414.29848200000015,417.5825110999999,Objects\159b.jpg,pre,o,3.278494099999989,None,,,,00060,001,2026-01-19_17h39.04.439,MST_test,2024.2.0,60.03175679934175,2026-01-19 17h39.09.818374 +0530,
117,0,118,n,1.201552399999855,None,118,0,117,417.5975330000001,,,,,,,,,,,,,,,,,,,,,,,,,,,,,,,,,,,,,,,,,,,,,,,,,,417.5828032999998,417.5975330000001,418.11882689999993,418.0813145000002,418.116622,418.11882689999993,418.11882689999993,418.11882689999993,419.3315214999998,Foils\042a.jpg,none,n,1.201552399999855,None,,,,00060,001,2026-01-19_17h39.04.439,MST_test,2024.2.0,60.03175679934175,2026-01-19 17h39.09.818374 +0530,
118,0,119,o,2.0240915999997924,None,119,0,118,419.3475663999998,,,,,,,,,,,,,,,,,,,,,,,,,,,,,,,,,,,,,,,,,,,,,,,,,,419.3318886000002,419.3475663999998,,419.8322274000002,419.8857613,419.8883787999998,419.8883787999998,419.8883787999998,421.91454870000007,Objects\114a.jpg,mid,o,2.0240915999997924,None,,,,00060,001,2026-01-19_17h39.04.439,MST_test,2024.2.0,60.03175679934175,2026-01-19 17h39.09.818374 +0530,
119,0,120,o,4.282031600000209,None,120,0,119,421.9315872000002,,,,,,,,,,,,,,,,,,,,,,,,,,,,,,,,,,,,,,,,,,,,,,,,,,421.9148962999998,421.9315872000002,422.47855789999994,422.4146165000002,422.4760713999999,422.47855789999994,422.47855789999994,422.47855789999994,426.7651431999998,Scenes\084b.jpg,pre,o,4.282031600000209,None,,,,00060,001,2026-01-19_17h39.04.439,MST_test,2024.2.0,60.03175679934175,2026-01-19 17h39.09.818374 +0530,
120,0,121,o,1.054066000000148,None,121,0,120,426.7812687999999,,,,,,,,,,,,,,,,,,,,,,,,,,,,,,,,,,,,,,,,,,,,,,,,,,426.76549609999984,426.7812687999999,427.3618652,427.2647668999998,427.3593371000002,427.3618652,427.3618652,427.3618652,428.4315319000002,Scenes\153a.jpg,pre,o,1.054066000000148,None,,,,00060,001,2026-01-19_17h39.04.439,MST_test,2024.2.0,60.03175679934175,2026-01-19 17h39.09.818374 +0530,
121,0,122,n,3.6578724999999395,None,122,0,121,428.44735579999997,,,,,,,,,,,,,,,,,,,,,,,,,,,,,,,,,,,,,,,,,,,,,,,,,,428.4318757000001,428.44735579999997,428.9901146000002,428.93168289999994,428.9870673999999,428.9901146000002,428.9901146000002,428.9901146000002,432.64858490000006,Scenes\014b.jpg,mid,n,3.6578724999999395,None,,,,00060,001,2026-01-19_17h39.04.439,MST_test,2024.2.0,60.03175679934175,2026-01-19 17h39.09.818374 +0530,
122,0,123,o,1.528537900000174,None,123,0,122,432.66404839999996,,,,,,,,,,,,,,,,,,,,,,,,,,,,,,,,,,,,,,,,,,,,,,,,,,432.6489799000001,432.66404839999996,433.1839024000001,433.148514,433.18020609999985,433.1839024000001,433.1839024000001,433.1839024000001,434.7147494000001,Objects\020a.jpg,mid,o,1.528537900000174,None,,,,00060,001,2026-01-19_17h39.04.439,MST_test,2024.2.0,60.03175679934175,2026-01-19 17h39.09.818374 +0530,
123,0,124,n,2.329827000000023,None,124,0,123,434.7307431999998,,,,,,,,,,,,,,,,,,,,,,,,,,,,,,,,,,,,,,,,,,,,,,,,,,434.71510499999977,434.7307431999998,,435.21538569999984,435.2838280000001,435.28622170000017,435.28622170000017,435.28622170000017,437.63143009999976,Scenes\118b.jpg,pre,n,2.329827000000023,None,,,,00060,001,2026-01-19_17h39.04.439,MST_test,2024.2.0,60.03175679934175,2026-01-19 17h39.09.818374 +0530,
124,0,125,s,3.81022750000011,None,125,0,124,437.64772889999995,,,,,,,,,,,,,,,,,,,,,,,,,,,,,,,,,,,,,,,,,,,,,,,,,,437.63177700000006,437.64772889999995,438.17362839999987,438.13127369999984,438.1702945000002,438.17362839999987,438.17362839999987,438.17362839999987,441.9983698000001,Objects\065b.jpg,post,s,3.81022750000011,None,,,,00060,001,2026-01-19_17h39.04.439,MST_test,2024.2.0,60.03175679934175,2026-01-19 17h39.09.818374 +0530,
125,0,126,n,1.270795299999918,None,126,0,125,442.01433259999976,,,,,,,,,,,,,,,,,,,,,,,,,,,,,,,,,,,,,,,,,,,,,,,,,,441.99870740000006,442.01433259999976,442.54543969999986,442.49801879999995,442.5430216999998,442.54543969999986,442.54543969999986,442.54543969999986,443.83160229999976,Objects\014a.jpg,mid,n,1.270795299999918,None,,,,00060,001,2026-01-19_17h39.04.439,MST_test,2024.2.0,60.03175679934175,2026-01-19 17h39.09.818374 +0530,
126,0,127,n,3.2489142999997966,None,127,0,126,443.8478973000001,,,,,,,,,,,,,,,,,,,,,,,,,,,,,,,,,,,,,,,,,,,,,,,,,,443.8320122,443.8478973000001,444.39904879999995,444.3310330999998,444.3964397,444.39904879999995,444.39904879999995,444.39904879999995,447.6651151000001,Scenes\158a.jpg,pre,n,3.2489142999997966,None,,,,00060,001,2026-01-19_17h39.04.439,MST_test,2024.2.0,60.03175679934175,2026-01-19 17h39.09.818374 +0530,
127,0,128,o,1.079447600000094,None,128,0,127,447.68093769999996,,,,,,,,,,,,,,,,,,,,,,,,,,,,,,,,,,,,,,,,,,,,,,,,,,447.66546800000015,447.68093769999996,448.2090586999998,448.164847,448.2060932999998,448.2090586999998,448.2090586999998,448.2090586999998,449.2983499000002,Objects\088b.jpg,pre,o,1.079447600000094,None,,,,00060,001,2026-01-19_17h39.04.439,MST_test,2024.2.0,60.03175679934175,2026-01-19 17h39.09.818374 +0530,
128,0,129,o,0.9328754999996818,None,129,0,128,449.31468170000016,,,,,,,,,,,,,,,,,,,,,,,,,,,,,,,,,,,,,,,,,,,,,,,,,,449.2986950999998,449.31468170000016,449.86688700000013,449.7981028999998,449.8639865,449.86688700000013,449.86688700000013,449.86688700000013,450.8159176999998,Scenes\141a.jpg,post,o,0.9328754999996818,None,,,,00060,001,2026-01-19_17h39.04.439,MST_test,2024.2.0,60.03175679934175,2026-01-19 17h39.09.818374 +0530,
129,0,130,o,1.227973099999872,None,130,0,129,450.83097369999996,,,,,,,,,,,,,,,,,,,,,,,,,,,,,,,,,,,,,,,,,,,,,,,,,,450.8162643999999,450.83097369999996,451.3962418000001,451.31470519999993,451.3935277999999,451.3962418000001,451.3962418000001,451.3962418000001,452.6316369000001,Scenes\062a.jpg,pre,o,1.227973099999872,None,,,,00060,001,2026-01-19_17h39.04.439,MST_test,2024.2.0,60.03175679934175,2026-01-19 17h39.09.818374 +0530,
130,0,131,s,1.9099664000000303,None,131,0,130,452.64760449999994,,,,,,,,,,,,,,,,,,,,,,,,,,,,,,,,,,,,,,,,,,,,,,,,,,452.63205370000014,452.64760449999994,453.1780525999998,453.13189520000014,453.1745507999999,453.1780525999998,453.1780525999998,453.1780525999998,455.09821150000016,Objects\086b.jpg,pre,s,1.9099664000000303,None,,,,00060,001,2026-01-19_17h39.04.439,MST_test,2024.2.0,60.03175679934175,2026-01-19 17h39.09.818374 +0530,
131,0,132,n,3.6761671999997816,None,132,0,131,455.11414479999985,,,,,,,,,,,,,,,,,,,,,,,,,,,,,,,,,,,,,,,,,,,,,,,,,,455.09856200000013,455.11414479999985,455.6360255999998,455.5980488,455.63235159999977,455.6360255999998,455.6360255999998,455.6360255999998,459.3153808000002,Foils\scenes29.jpg,none,n,3.6761671999997816,None,,,,00060,001,2026-01-19_17h39.04.439,MST_test,2024.2.0,60.03175679934175,2026-01-19 17h39.09.818374 +0530,
132,0,133,n,2.8542483999999604,None,133,0,132,459.3318208999999,,,,,,,,,,,,,,,,,,,,,,,,,,,,,,,,,,,,,,,,,,,,,,,,,,459.3157210999998,459.3318208999999,459.8735538000001,459.8147613000001,459.8708799000001,459.8735538000001,459.8735538000001,459.8735538000001,462.7313352000001,Foils\020b.jpg,none,n,2.8542483999999604,None,,,,00060,001,2026-01-19_17h39.04.439,MST_test,2024.2.0,60.03175679934175,2026-01-19 17h39.09.818374 +0530,
133,0,134,s,3.933669799999734,None,134,0,133,462.74719749999986,,,,,,,,,,,,,,,,,,,,,,,,,,,,,,,,,,,,,,,,,,,,,,,,,,462.7318212,462.74719749999986,463.2742846000001,463.23122479999984,463.27192289999994,463.2742846000001,463.2742846000001,463.2742846000001,467.2146521999998,Objects\072a.jpg,post,s,3.933669799999734,None,,,,00060,001,2026-01-19_17h39.04.439,MST_test,2024.2.0,60.03175679934175,2026-01-19 17h39.09.818374 +0530,
134,0,135,s,0.8269500999999764,None,135,0,134,467.2309645999999,,,,,,,,,,,,,,,,,,,,,,,,,,,,,,,,,,,,,,,,,,,,,,,,,,467.21503399999983,467.2309645999999,467.7728014999998,467.71425150000005,467.76976030000014,467.7728014999998,467.7728014999998,467.7728014999998,468.6147377000002,Objects\157a.jpg,post,s,0.8269500999999764,None,,,,00060,001,2026-01-19_17h39.04.439,MST_test,2024.2.0,60.03175679934175,2026-01-19 17h39.09.818374 +0530,
135,0,136,s,5.702519500000108,None,136,0,135,468.6306757000002,,,,,,,,,,,,,,,,,,,,,,,,,,,,,,,,,,,,,,,,,,,,,,,,,,468.6151682999998,468.6306757000002,469.1855046999999,469.11442579999994,469.18305569999984,469.1855046999999,469.1855046999999,469.1855046999999,474.8982514999998,Foils\082a.jpg,none,s,5.702519500000108,None,,,,00060,001,2026-01-19_17h39.04.439,MST_test,2024.2.0,60.03175679934175,2026-01-19 17h39.09.818374 +0530,
136,0,137,s,2.4158525999996527,None,137,0,136,474.913865,,,,,,,,,,,,,,,,,,,,,,,,,,,,,,,,,,,,,,,,,,,,,,,,,,474.8986332999998,474.913865,475.50466959999994,475.3977169,475.50198820000014,475.50466959999994,475.50466959999994,475.50466959999994,477.9316697999998,Scenes\019b.jpg,mid,s,2.4158525999996527,None,,,,00060,001,2026-01-19_17h39.04.439,MST_test,2024.2.0,60.03175679934175,2026-01-19 17h39.09.818374 +0530,
137,0,138,s,1.0827982999999222,None,138,0,137,477.94731349999984,,,,,,,,,,,,,,,,,,,,,,,,,,,,,,,,,,,,,,,,,,,,,,,,,,477.9320133000001,477.94731349999984,478.4688921000002,478.43130059999976,478.4653228000002,478.4688921000002,478.4688921000002,478.4688921000002,479.56462809999994,Objects\102b.jpg,post,s,1.0827982999999222,None,,,,00060,001,2026-01-19_17h39.04.439,MST_test,2024.2.0,60.03175679934175,2026-01-19 17h39.09.818374 +0530,
138,0,139,n,4.297073199999886,None,139,0,138,479.5803805999999,,,,,,,,,,,,,,,,,,,,,,,,,,,,,,,,,,,,,,,,,,,,,,,,,,479.56480759999977,479.5803805999999,480.1446525000001,480.06401400000004,480.1423169999998,480.1446525000001,480.1446525000001,480.1446525000001,484.44931099999985,Scenes\049a.jpg,post,n,4.297073199999886,None,,,,00060,001,2026-01-19_17h39.04.439,MST_test,2024.2.0,60.03175679934175,2026-01-19 17h39.09.818374 +0530,
139,0,140,s,1.7292089000002306,None,140,0,139,484.4643927000002,,,,,,,,,,,,,,,,,,,,,,,,,,,,,,,,,,,,,,,,,,,,,,,,,,484.4496678999999,484.4643927000002,484.9909327999999,484.9481000999999,484.98849949999976,484.9909327999999,484.9909327999999,484.9909327999999,486.7320958999999,Objects\063b.jpg,post,s,1.7292089000002306,None,,,,00060,001,2026-01-19_17h39.04.439,MST_test,2024.2.0,60.03175679934175,2026-01-19 17h39.09.818374 +0530,
140,0,141,n,2.636872399999902,None,141,0,140,486.7475592999999,,,,,,,,,,,,,,,,,,,,,,,,,,,,,,,,,,,,,,,,,,,,,,,,,,486.7326087000001,486.7475592999999,,487.2323701,487.2970888,487.2995251000002,487.2995251000002,487.2995251000002,489.9482198999999,Foils\009a.jpg,none,n,2.636872399999902,None,,,,00060,001,2026-01-19_17h39.04.439,MST_test,2024.2.0,60.03175679934175,2026-01-19 17h39.09.818374 +0530,
141,0,142,o,1.7885857999999644,None,142,0,141,489.9647104999999,,,,,,,,,,,,,,,,,,,,,,,,,,,,,,,,,,,,,,,,,,,,,,,,,,489.9485645,489.9647104999999,490.54834329999994,490.4475687999998,490.54560919999994,490.54834329999994,490.54834329999994,490.54834329999994,492.3490416999998,Scenes\020a.jpg,mid,o,1.7885857999999644,None,,,,00060,001,2026-01-19_17h39.04.439,MST_test,2024.2.0,60.03175679934175,2026-01-19 17h39.09.818374 +0530,
142,0,143,n,1.0896898999999394,None,143,0,142,492.36414990000003,,,,,,,,,,,,,,,,,,,,,,,,,,,,,,,,,,,,,,,,,,,,,,,,,,492.3494136999998,492.36414990000003,492.9260233,492.8481271999999,492.92254589999993,492.9260233,492.9260233,492.9260233,494.0319405,Foils\scenes20.jpg,none,n,1.0896898999999394,None,,,,00060,001,2026-01-19_17h39.04.439,MST_test,2024.2.0,60.03175679934175,2026-01-19 17h39.09.818374 +0530,
143,0,144,n,1.1670979999998963,None,144,0,143,494.0476610999999,,,,,,,,,,,,,,,,,,,,,,,,,,,,,,,,,,,,,,,,,,,,,,,,,,494.0322894000001,494.0476610999999,,494.53227370000013,494.6066931999999,494.6092924999998,494.6092924999998,494.6092924999998,495.78126380000003,Scenes\091b.jpg,pre,n,1.1670979999998963,None,,,,00060,001,2026-01-19_17h39.04.439,MST_test,2024.2.0,60.03175679934175,2026-01-19 17h39.09.818374 +0530,
144,0,145,n,4.312935700000253,None,145,0,144,495.79757979999977,,,,,,,,,,,,,,,,,,,,,,,,,,,,,,,,,,,,,,,,,,,,,,,,,,495.78164190000007,495.79757979999977,496.33560579999994,496.2812746999998,496.3330326999999,496.33560579999994,496.33560579999994,496.33560579999994,500.6658947000001,Foils\057a.jpg,none,n,4.312935700000253,None,,,,00060,001,2026-01-19_17h39.04.439,MST_test,2024.2.0,60.03175679934175,2026-01-19 17h39.09.818374 +0530,
145,0,146,s,1.2469550999999228,None,146,0,145,500.68103789999986,,,,,,,,,,,,,,,,,,,,,,,,,,,,,,,,,,,,,,,,,,,,,,,,,,500.6662531000002,500.68103789999986,501.20102289999977,501.1647287999999,501.19861649999984,501.20102289999977,501.20102289999977,501.20102289999977,502.46495030000005,Objects\080b.jpg,pre,s,1.2469550999999228,None,,,,00060,001,2026-01-19_17h39.04.439,MST_test,2024.2.0,60.03175679934175,2026-01-19 17h39.09.818374 +0530,
146,0,147,o,1.5531578000000081,None,147,0,146,502.4815589,,,,,,,,,,,,,,,,,,,,,,,,,,,,,,,,,,,,,,,,,,,,,,,,,,502.4653179000002,502.4815589,503.0465211999999,502.9650735,503.0438316999998,503.0465211999999,503.0465211999999,503.0465211999999,504.6153333000002,Scenes\181a.jpg,post,o,1.5531578000000081,None,,,,00060,001,2026-01-19_17h39.04.439,MST_test,2024.2.0,60.03175679934175,2026-01-19 17h39.09.818374 +0530,
147,0,148,n,2.7635331999999835,None,148,0,147,504.63085980000005,,,,,,,,,,,,,,,,,,,,,,,,,,,,,,,,,,,,,,,,,,,,,,,,,,504.6156793,504.63085980000005,505.1568532000001,505.1145925000001,505.15419900000006,505.1568532000001,505.1568532000001,505.1568532000001,507.93189649999977,Foils\098a.jpg,none,n,2.7635331999999835,None,,,,00060,001,2026-01-19_17h39.04.439,MST_test,2024.2.0,60.03175679934175,2026-01-19 17h39.09.818374 +0530,
148,0,149,o,1.919907399999829,None,149,0,148,507.9478583,,,,,,,,,,,,,,,,,,,,,,,,,,,,,,,,,,,,,,,,,,,,,,,,,,507.9322791999998,507.9478583,508.4723917000001,508.4315703000002,508.4703592000001,508.4723917000001,508.4723917000001,508.4723917000001,510.3979634000002,Objects\051a.jpg,mid,o,1.919907399999829,None,,,,00060,001,2026-01-19_17h39.04.439,MST_test,2024.2.0,60.03175679934175,2026-01-19 17h39.09.818374 +0530,
149,0,150,n,3.2382368999997198,None,150,0,149,510.41525379999985,,,,,,,,,,,,,,,,,,,,,,,,,,,,,,,,,,,,,,,,,,,,,,,,,,510.3983131,510.41525379999985,,510.9146254000002,511.0396329,511.0420551000002,511.0420551000002,511.0420551000002,514.2817654999999,Scenes\104b.jpg,post,n,3.2382368999997198,None,,,,00060,001,2026-01-19_17h39.04.439,MST_test,2024.2.0,60.03175679934175,2026-01-19 17h39.09.818374 +0530,
,,,,,,,,,,,,,,,,,,,,,,,,,,,,,,,,,,,,,,,,,,,,,,,,,,,,,,,,,,,,,,,,,,,,,,,,,514.2820109999998,514.2976586999998,514.2976586999998,,,,,,,,
