Sl_no,image_path,thisN,thisTrialN,thisRepN,key_resp_5.keys,key_resp_7.keys,key_resp_7.rt,key_resp_7.duration,key_resp_5.rt,key_resp_5.duration,key_resp_9.keys,key_resp_9.rt,key_resp_9.duration,key_resp_8.keys,practice.thisRepN,practice.thisTrialN,practice.thisN,trials.thisRepN,trials.thisTrialN,trials.thisN,thisRow.t,notes,welcome_page.started,text.started,key_resp.started,welcome_page.stopped,key_resp.keys,key_resp.rt,key_resp.duration,instructions.started,ins.started,key_resp_2.started,instructions.stopped,key_resp_2.keys,key_resp_2.rt,key_resp_2.duration,instructions_2.started,text_10.started,key_resp_10.started,instructions_2.stopped,key_resp_10.keys,key_resp_10.rt,key_resp_10.duration,objects_only_instruction.started,text_3.started,key_resp_3.started,objects_only_instruction.stopped,key_resp_3.keys,key_resp_3.rt,key_resp_3.duration,ISI.started,text_4.started,text_4.stopped,ISI.stopped,practice_block.started,image.started,text_5.started,key_resp_5.started,practice_block.stopped,practice.key_resp_5.keys,indoor_outdoor.started,text_7.started,key_resp_7.started,indoor_outdoor.stopped,practice.key_resp_7.keys,practice.key_resp_7.rt,practice.key_resp_7.duration,image.stopped,text_5.stopped,key_resp_5.stopped,practice.key_resp_5.rt,practice.key_resp_5.duration,practice_to_main.started,text_2.started,key_resp_4.started,practice_to_main.stopped,key_resp_4.keys,key_resp_4.rt,key_resp_4.duration,objects.started,image_2.started,text_9.started,key_resp_9.started,objects.stopped,trials.key_resp_9.keys,trials.key_resp_9.rt,trials.key_resp_9.duration,encoding_task.started,encoding_task.stopped,trials.key_resp_8.keys,image_2.stopped,text_9.stopped,key_resp_9.stopped,end_experiment.started,text_6.started,key_resp_6.started,end_experiment.stopped,key_resp_6.keys,key_resp_6.rt,key_resp_6.duration,list_of_stimuli,encoding_task_accuracy,participant,session,date,expName,psychopyVersion,frameRate,expStart,
,,,,,,,,,,,,,,,,,,,,,,,0.0013475000159814954,0.002941699989605695,0.002941699989605695,8.48437570000533,space,8.479200300003868,None,,,,,,,,,,,,,,,,,,,,,,,,,,,,,,,,,,,,,,,,,,,,,,,,,,,,,,,,,,,,,,,,,,,,,,,,,,00066,001,2026-01-20_12h00.59.817,MST_task,2024.2.0,60.47375134981442,2026-01-20 12h01.08.762194 +0530,
,,,,,,,,,,,,,,,,,,,,,,,,,,,,,,8.484406600007787,8.499173499993049,8.499173499993049,20.799509299977217,space,12.28776179999113,None,,,,,,,,,,,,,,,,,,,,,,,,,,,,,,,,,,,,,,,,,,,,,,,,,,,,,,,,,,,,,,,,,,,00066,001,2026-01-20_12h00.59.817,MST_task,2024.2.0,60.47375134981442,2026-01-20 12h01.08.762194 +0530,
,,,,,,,,,,,,,,,,,,,,,,,,,,,,,,,,,,,,,20.799535600002855,20.815790900029242,20.815790900029242,49.6827027000254,space,28.85033669997938,None,,,,,,,,,,,,,,,,,,,,,,,,,,,,,,,,,,,,,,,,,,,,,,,,,,,,,,,,,,,,00066,001,2026-01-20_12h00.59.817,MST_task,2024.2.0,60.47375134981442,2026-01-20 12h01.08.762194 +0530,
,,,,,,,,,,,,,,,,,,,,,,,,,,,,,,,,,,,,,,,,,,,,49.682735199981835,49.69925280002644,49.69925280002644,123.64964269998018,space,73.94347619998734,None,,,,,,,,,,,,,,,,,,,,,,,,,,,,,,,,,,,,,,,,,,,,,,,,,,,,,00066,001,2026-01-20_12h00.59.817,MST_task,2024.2.0,60.47375134981442,2026-01-20 12h01.08.762194 +0530,
6,practice_images/158a.jpg,0,0,1,None,j,0.012797500006854534,None,,,,,,,1,0,0,,,,123.66594510001596,,,,,,,,,,,,,,,,,,,,,,,,,,,,,,123.66378729999997,123.66594510001596,124.1740804000292,124.14941499999259,124.16291910002474,124.1740804000292,124.1740804000292,124.1740804000292,127.16601320001064,None,127.16781419998733,127.18244000000414,127.18244000000414,127.19983030000003,j,0.012797500006854534,None,,,,,,,,,,,,,,,,,,,,,,,,,,,,,,,,,,,,00066,001,2026-01-20_12h00.59.817,MST_task,2024.2.0,60.47375134981442,2026-01-20 12h01.08.762194 +0530,
2,practice_images/031a.jpg,1,1,1,f,None,,,1.805974899965804,0.08899290004046634,,,,,1,1,1,,,,127.21589699998731,,,,,,,,,,,,,,,,,,,,,,,,,,,,,,127.19991379999556,127.21589699998731,127.71609699999681,127.6994436000241,127.7075491999858,127.71609699999681,127.71609699999681,127.71609699999681,130.69951960002072,f,130.69955630000914,,,130.6995687999879,None,,,130.71581570000853,130.71581570000853,130.71581570000853,1.805974899965804,0.08899290004046634,,,,,,,,,,,,,,,,,,,,,,,,,,,,,,,00066,001,2026-01-20_12h00.59.817,MST_task,2024.2.0,60.47375134981442,2026-01-20 12h01.08.762194 +0530,
1,practice_images/013a.jpg,2,2,1,None,j,0.218836999963969,None,,,,,,,1,2,2,,,,130.71581570000853,,,,,,,,,,,,,,,,,,,,,,,,,,,,,,130.69963200000348,130.71581570000853,131.2160709000309,131.1996622000006,131.20827499998268,131.2160709000309,131.2160709000309,131.2160709000309,134.1997085000039,None,134.19974100001855,134.2157558000181,134.2157558000181,134.4497233000002,j,0.218836999963969,None,134.2157558000181,134.2157558000181,134.2157558000181,,,,,,,,,,,,,,,,,,,,,,,,,,,,,,,,,00066,001,2026-01-20_12h00.59.817,MST_task,2024.2.0,60.47375134981442,2026-01-20 12h01.08.762194 +0530,
7,practice_images/166a.jpg,3,3,1,f,None,,,1.4684859999688342,0.11200480000115931,,,,,1,3,3,,,,134.46578470000532,,,,,,,,,,,,,,,,,,,,,,,,,,,,,,134.44981289998395,134.46578470000532,134.96605400001863,134.94943099998636,134.957221699995,134.96605400001863,134.96605400001863,134.96605400001863,137.94961790001253,f,137.949655000004,,,137.94966829998884,None,,,137.96577770001022,137.96577770001022,137.96577770001022,1.4684859999688342,0.11200480000115931,,,,,,,,,,,,,,,,,,,,,,,,,,,,,,,00066,001,2026-01-20_12h00.59.817,MST_task,2024.2.0,60.47375134981442,2026-01-20 12h01.08.762194 +0530,
8,practice_images/178a.jpg,4,4,1,j,None,,,1.4160483999876305,0.1285490000154823,,,,,1,4,4,,,,137.96577770001022,,,,,,,,,,,,,,,,,,,,,,,,,,,,,,137.94973460002802,137.96577770001022,138.46602130000247,138.4494506000192,138.4574883999885,138.46602130000247,138.46602130000247,138.46602130000247,141.44949630001793,j,141.44953729998088,,,141.4495497000171,None,,,141.46583990001818,141.46583990001818,141.46583990001818,1.4160483999876305,0.1285490000154823,,,,,,,,,,,,,,,,,,,,,,,,,,,,,,,00066,001,2026-01-20_12h00.59.817,MST_task,2024.2.0,60.47375134981442,2026-01-20 12h01.08.762194 +0530,
4,practice_images/002b.jpg,5,5,1,j,None,,,1.8601307000499219,0.11199959996156394,,,,,1,5,5,,,,141.46583990001818,,,,,,,,,,,,,,,,,,,,,,,,,,,,,,141.44961399998283,141.46583990001818,141.9660303000128,141.94935050001368,141.9620107000228,141.9660303000128,141.9660303000128,141.9660303000128,144.9496583000291,j,144.95243220002158,,,144.95245119999163,None,,,144.9658126999857,144.9658126999857,144.9658126999857,1.8601307000499219,0.11199959996156394,,,,,,,,,,,,,,,,,,,,,,,,,,,,,,,00066,001,2026-01-20_12h00.59.817,MST_task,2024.2.0,60.47375134981442,2026-01-20 12h01.08.762194 +0530,
9,practice_images/180a.jpg,6,6,1,j,None,,,1.5208931000088342,0.11190759995952249,,,,,1,6,6,,,,144.9658126999857,,,,,,,,,,,,,,,,,,,,,,,,,,,,,,144.9525195999886,144.9658126999857,145.46597329998622,145.44941400003154,145.4573186999769,145.46597329998622,145.46597329998622,145.46597329998622,148.44955090002622,j,148.44958800001768,,,148.4496000999934,None,,,148.4658144999994,148.4658144999994,148.4658144999994,1.5208931000088342,0.11190759995952249,,,,,,,,,,,,,,,,,,,,,,,,,,,,,,,00066,001,2026-01-20_12h00.59.817,MST_task,2024.2.0,60.47375134981442,2026-01-20 12h01.08.762194 +0530,
5,practice_images/139a.jpg,7,7,1,j,None,,,2.3491830000421032,0.09590939996996894,,,,,1,7,7,,,,148.4658144999994,,,,,,,,,,,,,,,,,,,,,,,,,,,,,,148.44966330000898,148.4658144999994,148.9660303000128,148.9494093999965,148.95721760002198,148.9660303000128,148.9660303000128,148.9660303000128,151.9497131999815,j,151.94975049997447,,,151.94976410001982,None,,,151.96581800002605,151.96581800002605,151.96581800002605,2.3491830000421032,0.09590939996996894,,,,,,,,,,,,,,,,,,,,,,,,,,,,,,,00066,001,2026-01-20_12h00.59.817,MST_task,2024.2.0,60.47375134981442,2026-01-20 12h01.08.762194 +0530,
3,practice_images/037a.jpg,8,8,1,f,None,,,1.1127412000205368,0.09600449999561533,,,,,1,8,8,,,,151.96581800002605,,,,,,,,,,,,,,,,,,,,,,,,,,,,,,151.94982929999242,151.96581800002605,152.46597189997556,152.44934360001935,152.45726860000286,152.46597189997556,152.46597189997556,152.46597189997556,155.44963380001718,f,155.44967200001702,,,155.44968510000035,None,,,155.46581750002224,155.46581750002224,155.46581750002224,1.1127412000205368,0.09600449999561533,,,,,,,,,,,,,,,,,,,,,,,,,,,,,,,00066,001,2026-01-20_12h00.59.817,MST_task,2024.2.0,60.47375134981442,2026-01-20 12h01.08.762194 +0530,
10,practice_images/182a.jpg,9,9,1,f,None,,,0.9168185999733396,0.12009000004036352,,,,,1,9,9,,,,155.46581750002224,,,,,,,,,,,,,,,,,,,,,,,,,,,,,,155.44975089997752,155.46581750002224,155.96613489999436,155.9497186000226,155.95780009997543,155.96613489999436,155.96613489999436,155.96613489999436,158.94981740001822,f,158.9498598999926,,,158.94987419998506,None,,,158.96581670001615,158.96581670001615,158.96581670001615,0.9168185999733396,0.12009000004036352,,,,,,,,,,,,,,,,,,,,,,,,,,,,,,,00066,001,2026-01-20_12h00.59.817,MST_task,2024.2.0,60.47375134981442,2026-01-20 12h01.08.762194 +0530,
,,,,,,,,,,,,,,,,,,,,,,,,,,,,,,,,,,,,,,,,,,,,,,,,,,,,,,,,,,,,,,,,,,,,,,,,,158.9499195999815,158.96581670001615,158.96581670001615,172.39972280000802,space,13.429359400004614,None,,,,,,,,,,,,,,,,,,,,,,,,00066,001,2026-01-20_12h00.59.817,MST_task,2024.2.0,60.47375134981442,2026-01-20 12h01.08.762194 +0530,
,Scenes\158a.jpg,0,0,1,,,,,,,j,1.0111455000005662,0.08858239999972284,None,,,,1,0,0,172.41582170000765,,,,,,,,,,,,,,,,,,,,,,,,,,,,,,172.40049079997698,172.41582170000765,172.9273595000268,172.89939159998903,,,,,,,,,,,,,,,,,,,,,,,,,,172.92416930000763,172.9273595000268,172.9273595000268,172.9273595000268,175.9160789999878,j,1.0111455000005662,0.08858239999972284,175.9183768000221,175.91840429999866,None,,,,,,,,,,,,,00066,001,2026-01-20_12h00.59.817,MST_task,2024.2.0,60.47375134981442,2026-01-20 12h01.08.762194 +0530,
,Scenes\061a.jpg,1,0,2,,,,,,,j,1.2587257999693975,0.1109013999812305,None,,,,2,0,1,175.93234579998534,,,,,,,,,,,,,,,,,,,,,,,,,,,,,,175.9184786999831,175.93234579998534,176.4326028000214,176.41645449999487,,,,,,,,,,,,,,,,,,,,,,,,,,176.4300664999755,176.4326028000214,176.4326028000214,176.4326028000214,179.41640410001855,j,1.2587257999693975,0.1109013999812305,179.4164552000002,179.4164670999744,None,179.4323428000207,179.4323428000207,179.4323428000207,,,,,,,,,,00066,001,2026-01-20_12h00.59.817,MST_task,2024.2.0,60.47375134981442,2026-01-20 12h01.08.762194 +0530,
,Scenes\077a.jpg,2,0,3,,,,,,,j,1.4064586999593303,0.11848970002029091,None,,,,3,0,2,179.4323428000207,,,,,,,,,,,,,,,,,,,,,,,,,,,,,,179.4165609999909,179.4323428000207,179.93354910000926,179.91613660001894,,,,,,,,,,,,,,,,,,,,,,,,,,179.9313100000145,179.93354910000926,179.93354910000926,179.93354910000926,182.91631850000704,j,1.4064586999593303,0.11848970002029091,182.9163592000259,182.916370299994,None,182.93244000000414,182.93244000000414,182.93244000000414,,,,,,,,,,00066,001,2026-01-20_12h00.59.817,MST_task,2024.2.0,60.47375134981442,2026-01-20 12h01.08.762194 +0530,
,Scenes\025a.jpg,3,0,4,,,,,,,j,0.8974607999552973,0.11102150002261624,None,,,,4,0,3,182.93244000000414,,,,,,,,,,,,,,,,,,,,,,,,,,,,,,182.9164361000294,182.93244000000414,183.4416127000004,183.41631090000737,,,,,,,,,,,,,,,,,,,,,,,,,,183.43849000002956,183.4416127000004,183.4416127000004,183.4416127000004,186.43256310001016,j,0.8974607999552973,0.11102150002261624,186.4326093000127,186.43262209999375,None,,,,,,,,,,,,,00066,001,2026-01-20_12h00.59.817,MST_task,2024.2.0,60.47375134981442,2026-01-20 12h01.08.762194 +0530,
,Scenes\168a.jpg,4,0,5,,,,,,,j,1.0844900999800302,0.12062820000573993,None,,,,5,0,4,186.44914650003193,,,,,,,,,,,,,,,,,,,,,,,,,,,,,,186.43269200000213,186.44914650003193,186.9497674999875,186.93260679999366,,,,,,,,,,,,,,,,,,,,,,,,,,186.94651009998051,186.9497674999875,186.9497674999875,186.9497674999875,189.93289970001206,j,1.0844900999800302,0.12062820000573993,189.93294530001003,189.93295819999184,None,,,,,,,,,,,,,00066,001,2026-01-20_12h00.59.817,MST_task,2024.2.0,60.47375134981442,2026-01-20 12h01.08.762194 +0530,
,Scenes\079a.jpg,5,0,6,,,,,,,j,1.2565964999957941,0.11207309999736026,None,,,,6,0,5,189.94929910002975,,,,,,,,,,,,,,,,,,,,,,,,,,,,,,189.93302489997586,189.94929910002975,190.4501252999762,190.4328798999777,,,,,,,,,,,,,,,,,,,,,,,,,,190.44505099998787,190.4501252999762,190.4501252999762,190.4501252999762,193.43303329998162,j,1.2565964999957941,0.11207309999736026,193.433082500007,193.43309399997815,None,193.4492717999965,193.4492717999965,193.4492717999965,,,,,,,,,,00066,001,2026-01-20_12h00.59.817,MST_task,2024.2.0,60.47375134981442,2026-01-20 12h01.08.762194 +0530,
,Scenes\009a.jpg,6,0,7,,,,,,,f,1.641457799996715,0.11999800003832206,None,,,,7,0,6,193.4492717999965,,,,,,,,,,,,,,,,,,,,,,,,,,,,,,193.43319150002208,193.4492717999965,193.95299110002816,193.93283860001247,,,,,,,,,,,,,,,,,,,,,,,,,,193.95052319997922,193.95299110002816,193.95299110002816,193.95299110002816,196.94953089999035,f,1.641457799996715,0.11999800003832206,196.94957900000736,196.9495915999869,None,,,,,,,,,,,,,00066,001,2026-01-20_12h00.59.817,MST_task,2024.2.0,60.47375134981442,2026-01-20 12h01.08.762194 +0530,
,Objects\061a.jpg,7,0,8,,,,,,,j,1.8590545000042766,0.11250089999521151,None,,,,8,0,7,196.96592869999586,,,,,,,,,,,,,,,,,,,,,,,,,,,,,,196.9496627000044,196.96592869999586,,197.4498525999952,,,,,,,,,,,,,,,,,,,,,,,,,,197.46863190003205,197.47105230001034,197.47105230001034,197.47105230001034,200.46622840000782,j,1.8590545000042766,0.11250089999521151,200.4714439000236,200.4714643000043,None,,,,,,,,,,,,,00066,001,2026-01-20_12h00.59.817,MST_task,2024.2.0,60.47375134981442,2026-01-20 12h01.08.762194 +0530,
,Objects\082a.jpg,8,0,9,,,,,,,j,2.027319900051225,0.11999319994356483,None,,,,9,0,8,200.48262460000115,,,,,,,,,,,,,,,,,,,,,,,,,,,,,,200.4715657000197,200.48262460000115,200.98278140003094,200.96640720003052,,,,,,,,,,,,,,,,,,,,,,,,,,200.97641850000946,200.98278140003094,200.98278140003094,200.98278140003094,203.9664762999746,j,2.027319900051225,0.11999319994356483,203.96651880000718,203.96653029997833,None,203.98251280002296,203.98251280002296,203.98251280002296,,,,,,,,,,00066,001,2026-01-20_12h00.59.817,MST_task,2024.2.0,60.47375134981442,2026-01-20 12h01.08.762194 +0530,
,Objects\048a.jpg,9,0,10,,,,,,,f,2.1370056999730878,0.11106350005138665,None,,,,10,0,9,203.98251280002296,,,,,,,,,,,,,,,,,,,,,,,,,,,,,,203.9666287000291,203.98251280002296,204.48280820000218,204.46616449998692,,,,,,,,,,,,,,,,,,,,,,,,,,204.47804229997564,204.48280820000218,204.48280820000218,204.48280820000218,207.46655760001158,f,2.1370056999730878,0.11106350005138665,207.46660069999052,207.46661250002217,None,207.4825227999827,207.4825227999827,207.4825227999827,,,,,,,,,,00066,001,2026-01-20_12h00.59.817,MST_task,2024.2.0,60.47375134981442,2026-01-20 12h01.08.762194 +0530,
,Objects\160a.jpg,10,0,11,,,,,,,f,1.1391733000054955,0.12115489999996498,None,,,,11,0,10,207.4825227999827,,,,,,,,,,,,,,,,,,,,,,,,,,,,,,207.4666810000199,207.4825227999827,207.98285780003062,207.9664925999823,,,,,,,,,,,,,,,,,,,,,,,,,,207.97642169997562,207.98285780003062,207.98285780003062,207.98285780003062,210.96637530002045,f,1.1391733000054955,0.12115489999996498,210.96641719999025,210.96642840001732,None,210.98264900001232,210.98264900001232,210.98264900001232,,,,,,,,,,00066,001,2026-01-20_12h00.59.817,MST_task,2024.2.0,60.47375134981442,2026-01-20 12h01.08.762194 +0530,
,Objects\135a.jpg,11,0,12,,,,,,,f,0.8638981000403874,0.1435698999557644,None,,,,12,0,11,210.98264900001232,,,,,,,,,,,,,,,,,,,,,,,,,,,,,,210.96649349998916,210.98264900001232,211.48284289997537,211.46610389999114,,,,,,,,,,,,,,,,,,,,,,,,,,211.47569849999854,211.48284289997537,211.48284289997537,211.48284289997537,214.46641039999668,f,0.8638981000403874,0.1435698999557644,214.46645270002773,214.46646399999736,None,214.48262450000038,214.48262450000038,214.48262450000038,,,,,,,,,,00066,001,2026-01-20_12h00.59.817,MST_task,2024.2.0,60.47375134981442,2026-01-20 12h01.08.762194 +0530,
,Objects\108a.jpg,12,0,13,,,,,,,j,0.9323357000248507,0.13601710001239553,None,,,,13,0,12,214.48262450000038,,,,,,,,,,,,,,,,,,,,,,,,,,,,,,214.46656129998155,214.48262450000038,214.9825861999998,214.9661382000195,,,,,,,,,,,,,,,,,,,,,,,,,,214.97525770001812,214.9825861999998,214.9825861999998,214.9825861999998,217.9665613999823,j,0.9323357000248507,0.13601710001239553,217.96660889999475,217.96662050002487,None,217.98254019999877,217.98254019999877,217.98254019999877,,,,,,,,,,00066,001,2026-01-20_12h00.59.817,MST_task,2024.2.0,60.47375134981442,2026-01-20 12h01.08.762194 +0530,
,Objects\058a.jpg,13,0,14,,,,,,,f,1.001254400005564,0.13503130001481622,None,,,,14,0,13,217.98254019999877,,,,,,,,,,,,,,,,,,,,,,,,,,,,,,217.96672899997793,217.98254019999877,218.48263600002974,218.4661197999958,,,,,,,,,,,,,,,,,,,,,,,,,,218.47575049998704,218.48263600002974,218.48263600002974,218.48263600002974,221.4666737000225,f,1.001254400005564,0.13503130001481622,221.4667220999836,221.4667343000183,None,221.48303389997454,221.48303389997454,221.48303389997454,,,,,,,,,,00066,001,2026-01-20_12h00.59.817,MST_task,2024.2.0,60.47375134981442,2026-01-20 12h01.08.762194 +0530,
,Scenes\062a.jpg,14,0,15,,,,,,,j,1.220101400045678,0.14357580000068992,None,,,,15,0,14,221.48303389997454,,,,,,,,,,,,,,,,,,,,,,,,,,,,,,221.46680840000045,221.48303389997454,221.99117789999582,221.9662100999849,,,,,,,,,,,,,,,,,,,,,,,,,,221.9885498000076,221.99117789999582,221.99117789999582,221.99117789999582,224.98284270003205,j,1.220101400045678,0.14357580000068992,224.9844877999858,224.9845072000171,None,,,,,,,,,,,,,00066,001,2026-01-20_12h00.59.817,MST_task,2024.2.0,60.47375134981442,2026-01-20 12h01.08.762194 +0530,
,Scenes\163a.jpg,15,0,16,,,,,,,j,1.2853737999685109,0.11988489999203011,None,,,,16,0,15,224.9992949999869,,,,,,,,,,,,,,,,,,,,,,,,,,,,,,224.98461719998159,224.9992949999869,225.50142899999628,225.48312049999367,,,,,,,,,,,,,,,,,,,,,,,,,,225.49891339999158,225.50142899999628,225.50142899999628,225.50142899999628,228.4994885000051,j,1.2853737999685109,0.11988489999203011,228.49953879998066,228.49955250002677,None,,,,,,,,,,,,,00066,001,2026-01-20_12h00.59.817,MST_task,2024.2.0,60.47375134981442,2026-01-20 12h01.08.762194 +0530,
,Scenes\014a.jpg,16,0,17,,,,,,,j,1.097476800030563,0.136529499955941,None,,,,17,0,16,228.51592500001425,,,,,,,,,,,,,,,,,,,,,,,,,,,,,,228.49966839997796,228.51592500001425,229.01663600001484,228.99960280000232,,,,,,,,,,,,,,,,,,,,,,,,,,229.01113290002104,229.01663600001484,229.01663600001484,229.01663600001484,231.99993679998443,j,1.097476800030563,0.136529499955941,231.9999806000269,231.9999925000011,None,232.01588959997753,232.01588959997753,232.01588959997753,,,,,,,,,,00066,001,2026-01-20_12h00.59.817,MST_task,2024.2.0,60.47375134981442,2026-01-20 12h01.08.762194 +0530,
,Scenes\175a.jpg,17,0,18,,,,,,,j,2.357738499995321,0.11258079996332526,None,,,,18,0,17,232.01588959997753,,,,,,,,,,,,,,,,,,,,,,,,,,,,,,232.00005979998969,232.01588959997753,232.5163504999946,232.4994756000233,,,,,,,,,,,,,,,,,,,,,,,,,,232.51167959999293,232.5163504999946,232.5163504999946,232.5163504999946,235.49974190001376,j,2.357738499995321,0.11258079996332526,235.49978539999574,235.49979680002434,None,235.51596150000114,235.51596150000114,235.51596150000114,,,,,,,,,,00066,001,2026-01-20_12h00.59.817,MST_task,2024.2.0,60.47375134981442,2026-01-20 12h01.08.762194 +0530,
,Scenes\110a.jpg,18,0,19,,,,,,,j,1.0654618999687955,0.15223970002261922,None,,,,19,0,18,235.51596150000114,,,,,,,,,,,,,,,,,,,,,,,,,,,,,,235.49986250000075,235.51596150000114,236.01727299997583,235.99974529998144,,,,,,,,,,,,,,,,,,,,,,,,,,236.01491550001083,236.01727299997583,236.01727299997583,236.01727299997583,239.01603090000572,j,1.0654618999687955,0.15223970002261922,239.0160726000322,239.01608490000945,None,,,,,,,,,,,,,00066,001,2026-01-20_12h00.59.817,MST_task,2024.2.0,60.47375134981442,2026-01-20 12h01.08.762194 +0530,
,Scenes\081a.jpg,19,0,20,,,,,,,j,0.7208387000137009,0.11994389997562394,None,,,,20,0,19,239.03262610000093,,,,,,,,,,,,,,,,,,,,,,,,,,,,,,239.01619049999863,239.03262610000093,239.53732699999819,239.51606420002645,,,,,,,,,,,,,,,,,,,,,,,,,,239.5346072000102,239.53732699999819,239.53732699999819,239.53732699999819,242.51625899999635,j,0.7208387000137009,0.11994389997562394,242.51629970001522,242.5163113999879,None,,,,,,,,,,,,,00066,001,2026-01-20_12h00.59.817,MST_task,2024.2.0,60.47375134981442,2026-01-20 12h01.08.762194 +0530,
,Scenes\067a.jpg,20,0,21,,,,,,,j,0.7769881000276655,0.14445679995696992,None,,,,21,0,20,242.53256939997664,,,,,,,,,,,,,,,,,,,,,,,,,,,,,,242.5164079000242,242.53256939997664,243.033834700007,243.01615510002011,,,,,,,,,,,,,,,,,,,,,,,,,,243.03131980000762,243.033834700007,243.033834700007,243.033834700007,246.03292299999157,j,0.7769881000276655,0.14445679995696992,246.03299710003193,246.0330119000282,None,,,,,,,,,,,,,00066,001,2026-01-20_12h00.59.817,MST_task,2024.2.0,60.47375134981442,2026-01-20 12h01.08.762194 +0530,
,Objects\088a.jpg,21,0,22,,,,,,,f,1.8846036999602802,0.11963740002829581,None,,,,22,0,21,246.04926190001424,,,,,,,,,,,,,,,,,,,,,,,,,,,,,,246.03312269999878,246.04926190001424,246.54999390000012,246.5330114000244,,,,,,,,,,,,,,,,,,,,,,,,,,246.54735529999016,246.54999390000012,246.54999390000012,246.54999390000012,249.533093200007,f,1.8846036999602802,0.11963740002829581,249.53527470002882,249.53529410000192,None,249.54914570000255,249.54914570000255,249.54914570000255,,,,,,,,,,00066,001,2026-01-20_12h00.59.817,MST_task,2024.2.0,60.47375134981442,2026-01-20 12h01.08.762194 +0530,
,Objects\039a.jpg,22,0,23,,,,,,,j,1.0184307999443263,0.13505340000847355,None,,,,23,0,22,249.54914570000255,,,,,,,,,,,,,,,,,,,,,,,,,,,,,,249.53540529997554,249.54914570000255,250.04948440002045,250.03264669998316,,,,,,,,,,,,,,,,,,,,,,,,,,250.0421570999897,250.04948440002045,250.04948440002045,250.04948440002045,253.03285760001745,j,1.0184307999443263,0.13505340000847355,253.03289789997507,253.03290940000443,None,253.0491927000112,253.0491927000112,253.0491927000112,,,,,,,,,,00066,001,2026-01-20_12h00.59.817,MST_task,2024.2.0,60.47375134981442,2026-01-20 12h01.08.762194 +0530,
,Objects\001a.jpg,23,0,24,,,,,,,f,0.9419461999787018,0.12686800002120435,None,,,,24,0,23,253.0491927000112,,,,,,,,,,,,,,,,,,,,,,,,,,,,,,253.03300689999014,253.0491927000112,253.54942589998245,253.53281180001795,,,,,,,,,,,,,,,,,,,,,,,,,,253.54329250002047,253.54942589998245,253.54942589998245,253.54942589998245,256.5331590999849,f,0.9419461999787018,0.12686800002120435,256.53320529998746,256.5332169000176,None,256.54916070000036,256.54916070000036,256.54916070000036,,,,,,,,,,00066,001,2026-01-20_12h00.59.817,MST_task,2024.2.0,60.47375134981442,2026-01-20 12h01.08.762194 +0530,
,Objects\044a.jpg,24,0,25,,,,,,,f,0.8415627999929711,0.12753329996485263,None,,,,25,0,24,256.54916070000036,,,,,,,,,,,,,,,,,,,,,,,,,,,,,,256.53328530001454,256.54916070000036,257.04941759997746,257.0328277000226,,,,,,,,,,,,,,,,,,,,,,,,,,257.0421343999915,257.04941759997746,257.04941759997746,257.04941759997746,260.0330227999948,f,0.8415627999929711,0.12753329996485263,260.03306410001824,260.0330749999848,None,260.04912109998986,260.04912109998986,260.04912109998986,,,,,,,,,,00066,001,2026-01-20_12h00.59.817,MST_task,2024.2.0,60.47375134981442,2026-01-20 12h01.08.762194 +0530,
,Objects\095a.jpg,25,0,26,,,,,,,f,0.9409284999710508,0.15221420000307262,None,,,,26,0,25,260.04912109998986,,,,,,,,,,,,,,,,,,,,,,,,,,,,,,260.0331410000217,260.04912109998986,260.54937989998143,260.5328564000083,,,,,,,,,,,,,,,,,,,,,,,,,,260.54260430001887,260.54937989998143,260.54937989998143,260.54937989998143,263.53291529999115,f,0.9409284999710508,0.15221420000307262,263.5329598999815,263.5329711000086,None,263.54920389998006,263.54920389998006,263.54920389998006,,,,,,,,,,00066,001,2026-01-20_12h00.59.817,MST_task,2024.2.0,60.47375134981442,2026-01-20 12h01.08.762194 +0530,
,Objects\076a.jpg,26,0,27,,,,,,,f,0.7369654000503942,0.1527864999952726,None,,,,27,0,26,263.54920389998006,,,,,,,,,,,,,,,,,,,,,,,,,,,,,,263.533076599997,263.54920389998006,264.04941300000064,264.03272229997674,,,,,,,,,,,,,,,,,,,,,,,,,,264.04233369999565,264.04941300000064,264.04941300000064,264.04941300000064,267.033357599983,f,0.7369654000503942,0.1527864999952726,267.03341279999586,267.03342520003207,None,267.0497475999873,267.0497475999873,267.0497475999873,,,,,,,,,,00066,001,2026-01-20_12h00.59.817,MST_task,2024.2.0,60.47375134981442,2026-01-20 12h01.08.762194 +0530,
,Objects\180a.jpg,27,0,28,,,,,,,f,1.0528928999556229,0.11999710003146902,None,,,,28,0,27,267.0497475999873,,,,,,,,,,,,,,,,,,,,,,,,,,,,,,267.03354169998784,267.0497475999873,267.5493744999985,267.532764100004,,,,,,,,,,,,,,,,,,,,,,,,,,267.54221859999234,267.5493744999985,267.5493744999985,267.5493744999985,270.5331855000113,f,1.0528928999556229,0.11999710003146902,270.53322729998035,270.53323840000667,None,270.54915370000526,270.54915370000526,270.54915370000526,,,,,,,,,,00066,001,2026-01-20_12h00.59.817,MST_task,2024.2.0,60.47375134981442,2026-01-20 12h01.08.762194 +0530,
,Scenes\003a.jpg,28,0,29,,,,,,,j,1.131311800039839,0.13606839999556541,None,,,,29,0,28,270.54915370000526,,,,,,,,,,,,,,,,,,,,,,,,,,,,,,270.5333052999922,270.54915370000526,271.05563610000536,271.03264260001015,,,,,,,,,,,,,,,,,,,,,,,,,,271.05332649999764,271.05563610000536,271.05563610000536,271.05563610000536,274.04951310000615,j,1.131311800039839,0.13606839999556541,274.05140360002406,274.0514317000052,None,,,,,,,,,,,,,00066,001,2026-01-20_12h00.59.817,MST_task,2024.2.0,60.47375134981442,2026-01-20 12h01.08.762194 +0530,
,Scenes\113a.jpg,29,0,30,,,,,,,j,2.1478094000485726,0.11199770000530407,None,,,,30,0,29,274.06584470003145,,,,,,,,,,,,,,,,,,,,,,,,,,,,,,274.0515516999876,274.06584470003145,274.5664088000194,274.54945619998034,,,,,,,,,,,,,,,,,,,,,,,,,,274.56099309999263,274.5664088000194,274.5664088000194,274.5664088000194,277.55001190002076,j,2.1478094000485726,0.11199770000530407,277.55006059998414,277.55007270001806,None,277.56594659999246,277.56594659999246,277.56594659999246,,,,,,,,,,00066,001,2026-01-20_12h00.59.817,MST_task,2024.2.0,60.47375134981442,2026-01-20 12h01.08.762194 +0530,
,Scenes\123a.jpg,30,0,31,,,,,,,j,0.9601603000191972,0.15198879997478798,None,,,,31,0,30,277.56594659999246,,,,,,,,,,,,,,,,,,,,,,,,,,,,,,277.55019119998906,277.56594659999246,278.06633190001594,278.0494532000157,,,,,,,,,,,,,,,,,,,,,,,,,,278.0620005999808,278.06633190001594,278.06633190001594,278.06633190001594,281.05001180002,j,0.9601603000191972,0.15198879997478798,281.0500641000108,281.05007629998727,None,281.06599889998324,281.06599889998324,281.06599889998324,,,,,,,,,,00066,001,2026-01-20_12h00.59.817,MST_task,2024.2.0,60.47375134981442,2026-01-20 12h01.08.762194 +0530,
,Scenes\131a.jpg,31,0,32,,,,,,,j,1.5385188000509515,0.14369639998767525,None,,,,32,0,31,281.06599889998324,,,,,,,,,,,,,,,,,,,,,,,,,,,,,,281.0501960000256,281.06599889998324,281.5681389999809,281.54941739997594,,,,,,,,,,,,,,,,,,,,,,,,,,281.56571330002043,281.5681389999809,281.5681389999809,281.5681389999809,284.5661561000161,j,1.5385188000509515,0.14369639998767525,284.56619679997675,284.5662091000122,None,,,,,,,,,,,,,00066,001,2026-01-20_12h00.59.817,MST_task,2024.2.0,60.47375134981442,2026-01-20 12h01.08.762194 +0530,
,Scenes\090a.jpg,32,0,33,,,,,,,j,0.9893716999795288,0.12800030002836138,None,,,,33,0,32,284.58238350000465,,,,,,,,,,,,,,,,,,,,,,,,,,,,,,284.5662763,284.58238350000465,285.08496170002036,285.0661410000175,,,,,,,,,,,,,,,,,,,,,,,,,,285.0825828000088,285.08496170002036,285.08496170002036,285.08496170002036,288.0828964000102,j,0.9893716999795288,0.12800030002836138,288.08294729999034,288.08296049997443,None,,,,,,,,,,,,,00066,001,2026-01-20_12h00.59.817,MST_task,2024.2.0,60.47375134981442,2026-01-20 12h01.08.762194 +0530,
,Scenes\083a.jpg,33,0,34,,,,,,,j,1.0185668999911286,0.11199830000987276,None,,,,34,0,33,288.0993268000311,,,,,,,,,,,,,,,,,,,,,,,,,,,,,,288.0830786000006,288.0993268000311,288.6005851000082,288.58278629998676,,,,,,,,,,,,,,,,,,,,,,,,,,288.59790659998544,288.6005851000082,288.6005851000082,288.6005851000082,291.59948039997835,j,1.0185668999911286,0.11199830000987276,291.5995260999771,291.59953910001786,None,,,,,,,,,,,,,00066,001,2026-01-20_12h00.59.817,MST_task,2024.2.0,60.47375134981442,2026-01-20 12h01.08.762194 +0530,
,Scenes\019a.jpg,34,0,35,,,,,,,f,1.5671226999838836,0.1431014999980107,None,,,,35,0,34,291.6158801999991,,,,,,,,,,,,,,,,,,,,,,,,,,,,,,291.59964129998116,291.6158801999991,292.1166170000215,292.09936970000854,,,,,,,,,,,,,,,,,,,,,,,,,,292.1139464000007,292.1166170000215,292.1166170000215,292.1166170000215,295.09972080000443,f,1.5671226999838836,0.1431014999980107,295.09976319997804,295.09977460000664,None,295.11586740001803,295.11586740001803,295.11586740001803,,,,,,,,,,00066,001,2026-01-20_12h00.59.817,MST_task,2024.2.0,60.47375134981442,2026-01-20 12h01.08.762194 +0530,
,Objects\103a.jpg,35,0,36,,,,,,,f,1.7784544000169262,0.13599209999665618,None,,,,36,0,35,295.11586740001803,,,,,,,,,,,,,,,,,,,,,,,,,,,,,,295.0998400999815,295.11586740001803,295.6163525999873,295.5994911000016,,,,,,,,,,,,,,,,,,,,,,,,,,295.6118614000152,295.6163525999873,295.6163525999873,295.6163525999873,298.60001310001826,f,1.7784544000169262,0.13599209999665618,298.6024001999758,298.6024239999824,None,298.6161611999851,298.6161611999851,298.6161611999851,,,,,,,,,,00066,001,2026-01-20_12h00.59.817,MST_task,2024.2.0,60.47375134981442,2026-01-20 12h01.08.762194 +0530,
,Objects\154a.jpg,36,0,37,,,,,,,j,1.4546505000325851,0.11292129999492317,None,,,,37,0,36,298.6161611999851,,,,,,,,,,,,,,,,,,,,,,,,,,,,,,298.6025513000204,298.6161611999851,299.1161220999784,299.0996293000062,,,,,,,,,,,,,,,,,,,,,,,,,,299.1094785000314,299.1161220999784,299.1161220999784,299.1161220999784,302.09976549999556,j,1.4546505000325851,0.11292129999492317,302.09980670001823,302.09981779998634,None,302.1158579000039,302.1158579000039,302.1158579000039,,,,,,,,,,00066,001,2026-01-20_12h00.59.817,MST_task,2024.2.0,60.47375134981442,2026-01-20 12h01.08.762194 +0530,
,Objects\081a.jpg,37,0,38,,,,,,,f,1.2030593999661505,0.13599260000046343,None,,,,38,0,37,302.1158579000039,,,,,,,,,,,,,,,,,,,,,,,,,,,,,,302.0999137000181,302.1158579000039,302.61608800000977,302.5994065999985,,,,,,,,,,,,,,,,,,,,,,,,,,302.60879690002184,302.61608800000977,302.61608800000977,302.61608800000977,305.59968819998903,f,1.2030593999661505,0.13599260000046343,305.5997289000079,305.5997404999798,None,305.6158702999819,305.6158702999819,305.6158702999819,,,,,,,,,,00066,001,2026-01-20_12h00.59.817,MST_task,2024.2.0,60.47375134981442,2026-01-20 12h01.08.762194 +0530,
,Objects\020a.jpg,38,0,39,,,,,,,f,1.1504455999820493,0.12804979999782518,None,,,,39,0,38,305.6158702999819,,,,,,,,,,,,,,,,,,,,,,,,,,,,,,305.5998057000106,305.6158702999819,306.1160902000265,306.09954590001144,,,,,,,,,,,,,,,,,,,,,,,,,,306.1107892,306.1160902000265,306.1160902000265,306.1160902000265,309.0999932999839,f,1.1504455999820493,0.12804979999782518,309.10004240000853,309.10005429998273,None,309.1158605000237,309.1158605000237,309.1158605000237,,,,,,,,,,00066,001,2026-01-20_12h00.59.817,MST_task,2024.2.0,60.47375134981442,2026-01-20 12h01.08.762194 +0530,
,Objects\023a.jpg,39,0,40,,,,,,,f,1.0022546999971382,0.1285139000392519,None,,,,40,0,39,309.1158605000237,,,,,,,,,,,,,,,,,,,,,,,,,,,,,,309.10016680002445,309.1158605000237,309.61617470002966,309.5995901999995,,,,,,,,,,,,,,,,,,,,,,,,,,309.6086575000081,309.61617470002966,309.61617470002966,309.61617470002966,312.59988970000995,f,1.0022546999971382,0.1285139000392519,312.5999316999805,312.5999432000099,None,312.6159190000035,312.6159190000035,312.6159190000035,,,,,,,,,,00066,001,2026-01-20_12h00.59.817,MST_task,2024.2.0,60.47375134981442,2026-01-20 12h01.08.762194 +0530,
,Objects\187a.jpg,40,0,41,,,,,,,f,0.8871377999894321,0.1108959999983199,None,,,,41,0,40,312.6159190000035,,,,,,,,,,,,,,,,,,,,,,,,,,,,,,312.6000074999756,312.6159190000035,313.1163765999954,313.0995973999961,,,,,,,,,,,,,,,,,,,,,,,,,,313.10860590002267,313.1163765999954,313.1163765999954,313.1163765999954,316.0997557999799,f,0.8871377999894321,0.1108959999983199,316.09979730000487,316.0998083000304,None,316.1159699999844,316.1159699999844,316.1159699999844,,,,,,,,,,00066,001,2026-01-20_12h00.59.817,MST_task,2024.2.0,60.47375134981442,2026-01-20 12h01.08.762194 +0530,
,Objects\005a.jpg,41,0,42,,,,,,,f,0.7546034000115469,0.11946939997142181,None,,,,42,0,41,316.1159699999844,,,,,,,,,,,,,,,,,,,,,,,,,,,,,,316.09990829997696,316.1159699999844,316.6162448999821,316.5997967000003,,,,,,,,,,,,,,,,,,,,,,,,,,316.6099295000313,316.6162448999821,316.6162448999821,316.6162448999821,319.6000572000048,f,0.7546034000115469,0.11946939997142181,319.60010959999636,319.60012259997893,None,,,,,,,,,,,,,00066,001,2026-01-20_12h00.59.817,MST_task,2024.2.0,60.47375134981442,2026-01-20 12h01.08.762194 +0530,
,Scenes\002a.jpg,42,0,43,,,,,,,j,1.0241128000197932,0.12812049995409325,None,,,,43,0,42,319.61603680002736,,,,,,,,,,,,,,,,,,,,,,,,,,,,,,319.6002417000127,319.61603680002736,320.1220042000059,320.0996202999959,,,,,,,,,,,,,,,,,,,,,,,,,,320.1195558999898,320.1220042000059,320.1220042000059,320.1220042000059,323.11621609999565,j,1.0241128000197932,0.12812049995409325,323.11786060000304,323.11787890002597,None,,,,,,,,,,,,,00066,001,2026-01-20_12h00.59.817,MST_task,2024.2.0,60.47375134981442,2026-01-20 12h01.08.762194 +0530,
,Scenes\111a.jpg,43,0,44,,,,,,,j,1.2889061000314541,0.1369465999887325,None,,,,44,0,43,323.1326256999746,,,,,,,,,,,,,,,,,,,,,,,,,,,,,,323.11798560002353,323.1326256999746,323.633247699996,323.61626009998145,,,,,,,,,,,,,,,,,,,,,,,,,,323.62892009998905,323.633247699996,323.633247699996,323.633247699996,326.61662799998885,j,1.2889061000314541,0.1369465999887325,326.6166674999986,326.6166783000226,None,326.63255909999134,326.63255909999134,326.63255909999134,,,,,,,,,,00066,001,2026-01-20_12h00.59.817,MST_task,2024.2.0,60.47375134981442,2026-01-20 12h01.08.762194 +0530,
,Scenes\192a.jpg,44,0,45,,,,,,,j,1.3011045000166632,0.13599889999022707,None,,,,45,0,44,326.63255909999134,,,,,,,,,,,,,,,,,,,,,,,,,,,,,,326.61674490000587,326.63255909999134,327.13302629999816,327.1162330000079,,,,,,,,,,,,,,,,,,,,,,,,,,327.1293688000296,327.13302629999816,327.13302629999816,327.13302629999816,330.11644509999314,j,1.3011045000166632,0.13599889999022707,330.1164871000219,330.11649789998773,None,330.13274219998857,330.13274219998857,330.13274219998857,,,,,,,,,,00066,001,2026-01-20_12h00.59.817,MST_task,2024.2.0,60.47375134981442,2026-01-20 12h01.08.762194 +0530,
,Scenes\118a.jpg,45,0,46,,,,,,,j,1.4416059000068344,0.1194225000217557,None,,,,46,0,45,330.13274219998857,,,,,,,,,,,,,,,,,,,,,,,,,,,,,,330.11656260001473,330.13274219998857,330.633256000001,330.6161382999853,,,,,,,,,,,,,,,,,,,,,,,,,,330.62804769998183,330.633256000001,330.633256000001,330.633256000001,333.6164392000064,j,1.4416059000068344,0.1194225000217557,333.6164818999823,333.61649350001244,None,333.63264500000514,333.63264500000514,333.63264500000514,,,,,,,,,,00066,001,2026-01-20_12h00.59.817,MST_task,2024.2.0,60.47375134981442,2026-01-20 12h01.08.762194 +0530,
,Scenes\039a.jpg,46,0,47,,,,,,,j,0.9502913000178523,0.10407939995639026,None,,,,47,0,46,333.63264500000514,,,,,,,,,,,,,,,,,,,,,,,,,,,,,,333.61659049999435,333.63264500000514,334.1328700000304,334.11632610001834,,,,,,,,,,,,,,,,,,,,,,,,,,334.1279057000065,334.1328700000304,334.1328700000304,334.1328700000304,337.1165954999742,j,0.9502913000178523,0.10407939995639026,337.11663579999004,337.1166470000171,None,337.1325532000046,337.1325532000046,337.1325532000046,,,,,,,,,,00066,001,2026-01-20_12h00.59.817,MST_task,2024.2.0,60.47375134981442,2026-01-20 12h01.08.762194 +0530,
,Scenes\054a.jpg,47,0,48,,,,,,,j,0.7331943999743089,0.11999939999077469,None,,,,48,0,47,337.1325532000046,,,,,,,,,,,,,,,,,,,,,,,,,,,,,,337.11674440000206,337.1325532000046,337.6375223000068,337.6162925999961,,,,,,,,,,,,,,,,,,,,,,,,,,337.6350965999882,337.6375223000068,337.6375223000068,337.6375223000068,340.6329091999796,j,0.7331943999743089,0.11999939999077469,340.63295160001144,340.6329637999879,None,,,,,,,,,,,,,00066,001,2026-01-20_12h00.59.817,MST_task,2024.2.0,60.47375134981442,2026-01-20 12h01.08.762194 +0530,
,Scenes\112a.jpg,48,0,49,,,,,,,j,0.9339632999617606,0.11866259999806061,None,,,,49,0,48,340.64932070003124,,,,,,,,,,,,,,,,,,,,,,,,,,,,,,340.6330616999767,340.64932070003124,341.1499158000224,341.13290399999823,,,,,,,,,,,,,,,,,,,,,,,,,,341.14733730000444,341.1499158000224,341.1499158000224,341.1499158000224,344.13302499998827,j,0.9339632999617606,0.11866259999806061,344.13306670001475,344.1330781999859,None,344.14935969997896,344.14935969997896,344.14935969997896,,,,,,,,,,00066,001,2026-01-20_12h00.59.817,MST_task,2024.2.0,60.47375134981442,2026-01-20 12h01.08.762194 +0530,
,Objects\164a.jpg,49,0,50,,,,,,,f,1.1284131999709643,0.11198640003567562,None,,,,50,0,49,344.14935969997896,,,,,,,,,,,,,,,,,,,,,,,,,,,,,,344.1331445000251,344.14935969997896,344.64973880001344,344.6328242000309,,,,,,,,,,,,,,,,,,,,,,,,,,344.64544799999567,344.64973880001344,344.64973880001344,344.64973880001344,347.6333011999959,f,1.1284131999709643,0.11198640003567562,347.63543269998627,347.63545090000844,None,347.64933099999325,347.64933099999325,347.64933099999325,,,,,,,,,,00066,001,2026-01-20_12h00.59.817,MST_task,2024.2.0,60.47375134981442,2026-01-20 12h01.08.762194 +0530,
,Objects\031a.jpg,50,0,51,,,,,,,j,0.7972462000325322,0.10391569999046624,None,,,,51,0,50,347.64933099999325,,,,,,,,,,,,,,,,,,,,,,,,,,,,,,347.63555250002537,347.64933099999325,348.1495016000117,348.13291460002074,,,,,,,,,,,,,,,,,,,,,,,,,,348.14277279999806,348.1495016000117,348.1495016000117,348.1495016000117,351.13308070000494,j,0.7972462000325322,0.10391569999046624,351.13312230003066,351.13313349999953,None,351.14923610002734,351.14923610002734,351.14923610002734,,,,,,,,,,00066,001,2026-01-20_12h00.59.817,MST_task,2024.2.0,60.47375134981442,2026-01-20 12h01.08.762194 +0530,
,Objects\171a.jpg,51,0,52,,,,,,,j,1.0570888000074774,0.12701200001174584,None,,,,52,0,51,351.14923610002734,,,,,,,,,,,,,,,,,,,,,,,,,,,,,,351.13323199999286,351.14923610002734,351.65003239997895,351.6331532999757,,,,,,,,,,,,,,,,,,,,,,,,,,351.6440549999825,351.65003239997895,351.65003239997895,351.65003239997895,354.6331431000144,j,1.0570888000074774,0.12701200001174584,354.6331863999949,354.6331983000273,None,354.64919279998867,354.64919279998867,354.64919279998867,,,,,,,,,,00066,001,2026-01-20_12h00.59.817,MST_task,2024.2.0,60.47375134981442,2026-01-20 12h01.08.762194 +0530,
,Objects\042a.jpg,52,0,53,,,,,,,j,1.7806665999814868,0.10397419997025281,None,,,,53,0,52,354.64919279998867,,,,,,,,,,,,,,,,,,,,,,,,,,,,,,354.63329899997916,354.64919279998867,355.1494894999778,355.1329945999896,,,,,,,,,,,,,,,,,,,,,,,,,,355.1433942000149,355.1494894999778,355.1494894999778,355.1494894999778,358.1330761000281,j,1.7806665999814868,0.10397419997025281,358.1331219000276,358.13313339999877,None,358.14917470002547,358.14917470002547,358.14917470002547,,,,,,,,,,00066,001,2026-01-20_12h00.59.817,MST_task,2024.2.0,60.47375134981442,2026-01-20 12h01.08.762194 +0530,
,Objects\089a.jpg,53,0,54,,,,,,,j,0.7685407000244595,0.14456220000283793,None,,,,54,0,53,358.14917470002547,,,,,,,,,,,,,,,,,,,,,,,,,,,,,,358.13320229999954,358.14917470002547,358.64952869998524,358.63309229997685,,,,,,,,,,,,,,,,,,,,,,,,,,358.6428404999897,358.64952869998524,358.64952869998524,358.64952869998524,361.63337769999634,j,0.7685407000244595,0.14456220000283793,361.6334192000213,361.6334307999932,None,361.6493373999838,361.6493373999838,361.6493373999838,,,,,,,,,,00066,001,2026-01-20_12h00.59.817,MST_task,2024.2.0,60.47375134981442,2026-01-20 12h01.08.762194 +0530,
,Objects\121a.jpg,54,0,55,,,,,,,f,0.9166762999957427,0.12848350004060194,None,,,,55,0,54,361.6493373999838,,,,,,,,,,,,,,,,,,,,,,,,,,,,,,361.6335283999797,361.6493373999838,362.1495780000114,362.1330928999814,,,,,,,,,,,,,,,,,,,,,,,,,,362.1424730999861,362.1495780000114,362.1495780000114,362.1495780000114,365.1332760999794,f,0.9166762999957427,0.12848350004060194,365.13331710000057,365.13332830002764,None,365.1492874000105,365.1492874000105,365.1492874000105,,,,,,,,,,00066,001,2026-01-20_12h00.59.817,MST_task,2024.2.0,60.47375134981442,2026-01-20 12h01.08.762194 +0530,
,Objects\185a.jpg,55,0,56,,,,,,,f,0.8171013999963179,0.13648859999375418,None,,,,56,0,55,365.1492874000105,,,,,,,,,,,,,,,,,,,,,,,,,,,,,,365.13339239999186,365.1492874000105,365.64948369999183,365.6327854000265,,,,,,,,,,,,,,,,,,,,,,,,,,365.6434440999874,365.64948369999183,365.64948369999183,365.64948369999183,368.63301130000036,f,0.8171013999963179,0.13648859999375418,368.6330586000113,368.6330704999855,None,368.6491603999748,368.6491603999748,368.6491603999748,,,,,,,,,,00066,001,2026-01-20_12h00.59.817,MST_task,2024.2.0,60.47375134981442,2026-01-20 12h01.08.762194 +0530,
,Scenes\070a.jpg,56,0,57,,,,,,,j,1.4644431000342593,0.10397429997101426,None,,,,57,0,56,368.6491603999748,,,,,,,,,,,,,,,,,,,,,,,,,,,,,,368.63316760002635,368.6491603999748,369.15502020000713,369.132887499989,,,,,,,,,,,,,,,,,,,,,,,,,,369.1523206999991,369.15502020000713,369.15502020000713,369.15502020000713,372.1495073999977,j,1.4644431000342593,0.10397429997101426,372.15166730002966,372.15169139998034,None,,,,,,,,,,,,,00066,001,2026-01-20_12h00.59.817,MST_task,2024.2.0,60.47375134981442,2026-01-20 12h01.08.762194 +0530,
,Scenes\034a.jpg,57,0,58,,,,,,,f,1.3289574999944307,0.1025853999890387,None,,,,58,0,57,372.16599010000937,,,,,,,,,,,,,,,,,,,,,,,,,,,,,,372.1518141999841,372.16599010000937,372.6746817000094,372.64960240002256,,,,,,,,,,,,,,,,,,,,,,,,,,372.67214079998666,372.6746817000094,372.6746817000094,372.6746817000094,375.66615260002436,f,1.3289574999944307,0.1025853999890387,375.6662042000098,375.6662168999901,None,,,,,,,,,,,,,00066,001,2026-01-20_12h00.59.817,MST_task,2024.2.0,60.47375134981442,2026-01-20 12h01.08.762194 +0530,
,Scenes\085a.jpg,58,0,59,,,,,,,j,1.1207031999947503,0.11200010002357885,None,,,,59,0,58,375.68241250002757,,,,,,,,,,,,,,,,,,,,,,,,,,,,,,375.66631820000475,375.68241250002757,376.18575399997644,376.1664595999755,,,,,,,,,,,,,,,,,,,,,,,,,,376.1833347000065,376.18575399997644,376.18575399997644,376.18575399997644,379.1827796000289,j,1.1207031999947503,0.11200010002357885,379.18303559999913,379.18305440002587,None,,,,,,,,,,,,,00066,001,2026-01-20_12h00.59.817,MST_task,2024.2.0,60.47375134981442,2026-01-20 12h01.08.762194 +0530,
,Scenes\154a.jpg,59,0,60,,,,,,,j,1.0954067999846302,0.1200595999835059,None,,,,60,0,59,379.1992182999966,,,,,,,,,,,,,,,,,,,,,,,,,,,,,,379.18317159998696,379.1992182999966,379.69978700001957,379.6827387000085,,,,,,,,,,,,,,,,,,,,,,,,,,379.69553510000696,379.69978700001957,379.69978700001957,379.69978700001957,382.68295119999675,j,1.0954067999846302,0.1200595999835059,382.68299619999016,382.6830077000195,None,382.69943019998027,382.69943019998027,382.69943019998027,,,,,,,,,,00066,001,2026-01-20_12h00.59.817,MST_task,2024.2.0,60.47375134981442,2026-01-20 12h01.08.762194 +0530,
,Scenes\120a.jpg,60,0,61,,,,,,,j,1.2428175000241026,0.11174859997117892,None,,,,61,0,60,382.69943019998027,,,,,,,,,,,,,,,,,,,,,,,,,,,,,,382.6831056000083,382.69943019998027,383.19992310000816,383.1826794000226,,,,,,,,,,,,,,,,,,,,,,,,,,383.1973366999882,383.19992310000816,383.19992310000816,383.19992310000816,386.1830275999964,j,1.2428175000241026,0.11174859997117892,386.18306840001605,386.1830795999849,None,386.1992331999936,386.1992331999936,386.1992331999936,,,,,,,,,,00066,001,2026-01-20_12h00.59.817,MST_task,2024.2.0,60.47375134981442,2026-01-20 12h01.08.762194 +0530,
,Scenes\134a.jpg,61,0,62,,,,,,,j,0.9952231999486685,0.14365030004410073,None,,,,62,0,61,386.1992331999936,,,,,,,,,,,,,,,,,,,,,,,,,,,,,,386.1831770000281,386.1992331999936,386.7033343000221,386.6830399000319,,,,,,,,,,,,,,,,,,,,,,,,,,386.70096139999805,386.7033343000221,386.7033343000221,386.7033343000221,389.699559300032,j,0.9952231999486685,0.14365030004410073,389.6996043000254,389.6996164000011,None,,,,,,,,,,,,,00066,001,2026-01-20_12h00.59.817,MST_task,2024.2.0,60.47375134981442,2026-01-20 12h01.08.762194 +0530,
,Scenes\155a.jpg,62,0,63,,,,,,,j,1.0016641999827698,0.13601309998193756,None,,,,63,0,62,389.71589589997893,,,,,,,,,,,,,,,,,,,,,,,,,,,,,,389.69972360000247,389.71589589997893,390.2165945000015,390.19960829999764,,,,,,,,,,,,,,,,,,,,,,,,,,390.21414509997703,390.2165945000015,390.2165945000015,390.2165945000015,393.1997907999903,j,1.0016641999827698,0.13601309998193756,393.1998317000107,393.19984289997956,None,393.2161645999877,393.2161645999877,393.2161645999877,,,,,,,,,,00066,001,2026-01-20_12h00.59.817,MST_task,2024.2.0,60.47375134981442,2026-01-20 12h01.08.762194 +0530,
,Objects\038a.jpg,63,0,64,,,,,,,f,0.8945968999760225,0.1439997000270523,None,,,,64,0,63,393.2161645999877,,,,,,,,,,,,,,,,,,,,,,,,,,,,,,393.20038200001,393.2161645999877,393.71634659997653,393.6994011999923,,,,,,,,,,,,,,,,,,,,,,,,,,393.7112334999838,393.71634659997653,393.71634659997653,393.71634659997653,396.69973870000103,f,0.8945968999760225,0.1439997000270523,396.7018012999906,396.701819400012,None,396.7160793999792,396.7160793999792,396.7160793999792,,,,,,,,,,00066,001,2026-01-20_12h00.59.817,MST_task,2024.2.0,60.47375134981442,2026-01-20 12h01.08.762194 +0530,
,Objects\046a.jpg,64,0,65,,,,,,,f,1.1228198000462726,0.1353637999854982,None,,,,65,0,64,396.7160793999792,,,,,,,,,,,,,,,,,,,,,,,,,,,,,,396.7019221999799,396.7160793999792,397.21610620000865,397.1996135999798,,,,,,,,,,,,,,,,,,,,,,,,,,397.2094887000276,397.21610620000865,397.21610620000865,397.21610620000865,400.19973920000484,f,1.1228198000462726,0.1353637999854982,400.19977930001915,400.199790499988,None,400.21589220000897,400.21589220000897,400.21589220000897,,,,,,,,,,00066,001,2026-01-20_12h00.59.817,MST_task,2024.2.0,60.47375134981442,2026-01-20 12h01.08.762194 +0530,
,Objects\067a.jpg,65,0,66,,,,,,,j,1.6946742000291124,0.12005019997013733,None,,,,66,0,65,400.21589220000897,,,,,,,,,,,,,,,,,,,,,,,,,,,,,,400.1998560000211,400.21589220000897,400.7160865999758,400.6994158999878,,,,,,,,,,,,,,,,,,,,,,,,,,400.70900309999706,400.7160865999758,400.7160865999758,400.7160865999758,403.699819499976,j,1.6946742000291124,0.12005019997013733,403.6998753999942,403.69988740002736,None,403.7158886999823,403.7158886999823,403.7158886999823,,,,,,,,,,00066,001,2026-01-20_12h00.59.817,MST_task,2024.2.0,60.47375134981442,2026-01-20 12h01.08.762194 +0530,
,Objects\004a.jpg,66,0,67,,,,,,,f,1.0427670999779366,0.12930490000871941,None,,,,67,0,66,403.7158886999823,,,,,,,,,,,,,,,,,,,,,,,,,,,,,,403.69995520001976,403.7158886999823,404.2161848000251,404.19941210001707,,,,,,,,,,,,,,,,,,,,,,,,,,404.2092332000029,404.2161848000251,404.2161848000251,404.2161848000251,407.19971509999596,f,1.0427670999779366,0.12930490000871941,407.1997561000171,407.1997671999852,None,407.2159028000315,407.2159028000315,407.2159028000315,,,,,,,,,,00066,001,2026-01-20_12h00.59.817,MST_task,2024.2.0,60.47375134981442,2026-01-20 12h01.08.762194 +0530,
,Objects\091a.jpg,67,0,68,,,,,,,j,1.1661475999862887,0.11177560000214726,None,,,,68,0,67,407.2159028000315,,,,,,,,,,,,,,,,,,,,,,,,,,,,,,407.19983260001754,407.2159028000315,407.716213000007,407.6995049000252,,,,,,,,,,,,,,,,,,,,,,,,,,407.70897909998894,407.716213000007,407.716213000007,407.716213000007,410.6998498000321,j,1.1661475999862887,0.11177560000214726,410.69989390001865,410.6999056999921,None,410.7159446000005,410.7159446000005,410.7159446000005,,,,,,,,,,00066,001,2026-01-20_12h00.59.817,MST_task,2024.2.0,60.47375134981442,2026-01-20 12h01.08.762194 +0530,
,Objects\141a.jpg,68,0,69,,,,,,,j,1.7623116999748163,0.11180320003768429,None,,,,69,0,68,410.7159446000005,,,,,,,,,,,,,,,,,,,,,,,,,,,,,,410.70002250000834,410.7159446000005,411.21609020000324,411.19947629998205,,,,,,,,,,,,,,,,,,,,,,,,,,411.20838760002516,411.21609020000324,411.21609020000324,411.21609020000324,414.1997867000173,j,1.7623116999748163,0.11180320003768429,414.19982510001864,414.199836099986,None,414.2158334000269,414.2158334000269,414.2158334000269,,,,,,,,,,00066,001,2026-01-20_12h00.59.817,MST_task,2024.2.0,60.47375134981442,2026-01-20 12h01.08.762194 +0530,
,Objects\104a.jpg,69,0,70,,,,,,,f,1.1100151999853551,0.1370865000062622,None,,,,70,0,69,414.2158334000269,,,,,,,,,,,,,,,,,,,,,,,,,,,,,,414.1999013000168,414.2158334000269,414.71622629999183,414.69944860000396,,,,,,,,,,,,,,,,,,,,,,,,,,414.7088404999813,414.71622629999183,414.71622629999183,414.71622629999183,417.69980080000823,f,1.1100151999853551,0.1370865000062622,417.6998434999841,417.6998542000074,None,417.7159195999848,417.7159195999848,417.7159195999848,,,,,,,,,,00066,001,2026-01-20_12h00.59.817,MST_task,2024.2.0,60.47375134981442,2026-01-20 12h01.08.762194 +0530,
,Scenes\016a.jpg,70,0,71,,,,,,,j,1.52266050002072,0.11186499998439103,None,,,,71,0,70,417.7159195999848,,,,,,,,,,,,,,,,,,,,,,,,,,,,,,417.699957099976,417.7159195999848,418.21641440002713,418.19943360000616,,,,,,,,,,,,,,,,,,,,,,,,,,418.211154300021,418.21641440002713,418.21641440002713,418.21641440002713,421.19980880001094,j,1.52266050002072,0.11186499998439103,421.2014687000192,421.2014864999801,None,421.2159381000092,421.2159381000092,421.2159381000092,,,,,,,,,,00066,001,2026-01-20_12h00.59.817,MST_task,2024.2.0,60.47375134981442,2026-01-20 12h01.08.762194 +0530,
,Scenes\121a.jpg,71,0,72,,,,,,,j,0.9730849000043236,0.1038330000010319,None,,,,72,0,71,421.2159381000092,,,,,,,,,,,,,,,,,,,,,,,,,,,,,,421.2015878999955,421.2159381000092,421.71779899997637,421.6995108000119,,,,,,,,,,,,,,,,,,,,,,,,,,421.71561409998685,421.71779899997637,421.71779899997637,421.71779899997637,424.71608550002566,j,0.9730849000043236,0.1038330000010319,424.716125499981,424.7161379000172,None,,,,,,,,,,,,,00066,001,2026-01-20_12h00.59.817,MST_task,2024.2.0,60.47375134981442,2026-01-20 12h01.08.762194 +0530,
,Scenes\100a.jpg,72,0,73,,,,,,,f,1.7350297999801114,0.1199365999782458,None,,,,73,0,72,424.7324556999956,,,,,,,,,,,,,,,,,,,,,,,,,,,,,,424.7162410999881,424.7324556999956,425.2356604000088,425.2160728999879,,,,,,,,,,,,,,,,,,,,,,,,,,425.23322280001594,425.2356604000088,425.2356604000088,425.2356604000088,428.23267679999117,f,1.7350297999801114,0.1199365999782458,428.2327240000013,428.23273629997857,None,,,,,,,,,,,,,00066,001,2026-01-20_12h00.59.817,MST_task,2024.2.0,60.47375134981442,2026-01-20 12h01.08.762194 +0530,
,Scenes\010a.jpg,73,0,74,,,,,,,j,1.4162775999866426,0.10302999999839813,None,,,,74,0,73,428.24923740001395,,,,,,,,,,,,,,,,,,,,,,,,,,,,,,428.23283599998103,428.24923740001395,428.7553799999878,428.73277459997917,,,,,,,,,,,,,,,,,,,,,,,,,,428.75287690002006,428.7553799999878,428.7553799999878,428.7553799999878,431.7328763999976,j,1.4162775999866426,0.10302999999839813,431.7329168000142,431.7329284999869,None,,,,,,,,,,,,,00066,001,2026-01-20_12h00.59.817,MST_task,2024.2.0,60.47375134981442,2026-01-20 12h01.08.762194 +0530,
,Scenes\080a.jpg,74,0,75,,,,,,,j,1.321127399976831,0.13654550001956522,None,,,,75,0,74,431.74935150000965,,,,,,,,,,,,,,,,,,,,,,,,,,,,,,431.7330257000285,431.74935150000965,432.24988600000506,432.2329479000182,,,,,,,,,,,,,,,,,,,,,,,,,,432.2459062000271,432.24988600000506,432.24988600000506,432.24988600000506,435.23312260000966,j,1.321127399976831,0.13654550001956522,435.2331636000308,435.23317590000806,None,,,,,,,,,,,,,00066,001,2026-01-20_12h00.59.817,MST_task,2024.2.0,60.47375134981442,2026-01-20 12h01.08.762194 +0530,
,Scenes\029a.jpg,75,0,76,,,,,,,j,1.0020882000098936,0.11143779999110848,None,,,,76,0,75,435.2493011999759,,,,,,,,,,,,,,,,,,,,,,,,,,,,,,435.23327840003185,435.2493011999759,435.7527991000097,435.732845999999,,,,,,,,,,,,,,,,,,,,,,,,,,435.7502110999776,435.7527991000097,435.7527991000097,435.7527991000097,438.74957629997516,j,1.0020882000098936,0.11143779999110848,438.7496164999902,438.74962860002415,None,,,,,,,,,,,,,00066,001,2026-01-20_12h00.59.817,MST_task,2024.2.0,60.47375134981442,2026-01-20 12h01.08.762194 +0530,
,Scenes\146a.jpg,76,0,77,,,,,,,j,0.8869266000110656,0.1596576000447385,None,,,,77,0,76,438.76599869999336,,,,,,,,,,,,,,,,,,,,,,,,,,,,,,438.7497308999882,438.76599869999336,439.2680548999924,439.2496885000146,,,,,,,,,,,,,,,,,,,,,,,,,,439.26572500000475,439.2680548999924,439.2680548999924,439.2680548999924,442.26622440002393,j,0.8869266000110656,0.1596576000447385,442.26627449999796,442.26628949999576,None,,,,,,,,,,,,,00066,001,2026-01-20_12h00.59.817,MST_task,2024.2.0,60.47375134981442,2026-01-20 12h01.08.762194 +0530,
,Objects\131a.jpg,77,0,78,,,,,,,f,1.6364387000212446,0.13512639998225495,None,,,,78,0,77,442.2826727000065,,,,,,,,,,,,,,,,,,,,,,,,,,,,,,442.2664122999995,442.2826727000065,442.78314060001867,442.7662808999885,,,,,,,,,,,,,,,,,,,,,,,,,,442.778542199987,442.78314060001867,442.78314060001867,442.78314060001867,445.76655529998243,f,1.6364387000212446,0.13512639998225495,445.76863200002117,445.7686502999859,None,445.7827454999788,445.7827454999788,445.7827454999788,,,,,,,,,,00066,001,2026-01-20_12h00.59.817,MST_task,2024.2.0,60.47375134981442,2026-01-20 12h01.08.762194 +0530,
,Objects\098a.jpg,78,0,79,,,,,,,f,0.9440121999941766,0.1438332999823615,None,,,,79,0,78,445.7827454999788,,,,,,,,,,,,,,,,,,,,,,,,,,,,,,445.7687248000293,445.7827454999788,446.2829045000253,446.26627349999035,,,,,,,,,,,,,,,,,,,,,,,,,,446.2752999999793,446.2829045000253,446.2829045000253,446.2829045000253,449.2668203000212,f,0.9440121999941766,0.1438332999823615,449.26686909998534,449.2668811000185,None,449.28250109998044,449.28250109998044,449.28250109998044,,,,,,,,,,00066,001,2026-01-20_12h00.59.817,MST_task,2024.2.0,60.47375134981442,2026-01-20 12h01.08.762194 +0530,
,Objects\182a.jpg,79,0,80,,,,,,,f,0.8514326000004075,0.12798130000010133,None,,,,80,0,79,449.28250109998044,,,,,,,,,,,,,,,,,,,,,,,,,,,,,,449.26699279999593,449.28250109998044,449.7828119000187,449.7661507999874,,,,,,,,,,,,,,,,,,,,,,,,,,449.77569969999604,449.7828119000187,449.7828119000187,449.7828119000187,452.76653710001847,f,0.8514326000004075,0.12798130000010133,452.7665768000297,452.76658809999935,None,452.78322450001724,452.78322450001724,452.78322450001724,,,,,,,,,,00066,001,2026-01-20_12h00.59.817,MST_task,2024.2.0,60.47375134981442,2026-01-20 12h01.08.762194 +0530,
,Objects\010a.jpg,80,0,81,,,,,,,f,0.6872487999498844,0.12083400000119582,None,,,,81,0,80,452.78322450001724,,,,,,,,,,,,,,,,,,,,,,,,,,,,,,452.7666529000271,452.78322450001724,453.28290440002456,453.2662133999984,,,,,,,,,,,,,,,,,,,,,,,,,,453.275518200011,453.28290440002456,453.28290440002456,453.28290440002456,456.26647869998123,f,0.6872487999498844,0.12083400000119582,456.2665200000047,456.2665308000287,None,456.2826743000187,456.2826743000187,456.2826743000187,,,,,,,,,,00066,001,2026-01-20_12h00.59.817,MST_task,2024.2.0,60.47375134981442,2026-01-20 12h01.08.762194 +0530,
,Objects\014a.jpg,81,0,82,,,,,,,f,0.6360529999947175,0.143590799998492,None,,,,82,0,81,456.2826743000187,,,,,,,,,,,,,,,,,,,,,,,,,,,,,,456.2665962000028,456.2826743000187,456.7828562000068,456.7661905999994,,,,,,,,,,,,,,,,,,,,,,,,,,456.7757805000292,456.7828562000068,456.7828562000068,456.7828562000068,459.76685489999363,f,0.6360529999947175,0.143590799998492,459.76690759998746,459.76692060002824,None,459.78250959998695,459.78250959998695,459.78250959998695,,,,,,,,,,00066,001,2026-01-20_12h00.59.817,MST_task,2024.2.0,60.47375134981442,2026-01-20 12h01.08.762194 +0530,
,Objects\117a.jpg,82,0,83,,,,,,,f,0.8080603000125848,0.12000220001209527,None,,,,83,0,82,459.78250959998695,,,,,,,,,,,,,,,,,,,,,,,,,,,,,,459.76703649997944,459.78250959998695,460.2828157999902,460.26622490002774,,,,,,,,,,,,,,,,,,,,,,,,,,460.27557830000296,460.2828157999902,460.2828157999902,460.2828157999902,463.2664789999835,f,0.8080603000125848,0.12000220001209527,463.26651899999706,463.2665303000249,None,463.28252459998475,463.28252459998475,463.28252459998475,,,,,,,,,,00066,001,2026-01-20_12h00.59.817,MST_task,2024.2.0,60.47375134981442,2026-01-20 12h01.08.762194 +0530,
,Objects\075a.jpg,83,0,84,,,,,,,f,0.6838384000002407,0.1365290999528952,None,,,,84,0,83,463.28252459998475,,,,,,,,,,,,,,,,,,,,,,,,,,,,,,463.266595699999,463.28252459998475,463.7827736000181,463.76618530001724,,,,,,,,,,,,,,,,,,,,,,,,,,463.7751042000018,463.7827736000181,463.7827736000181,463.7827736000181,466.76637520000804,f,0.6838384000002407,0.1365290999528952,466.7664164000307,466.76642719999654,None,466.78251609997824,466.78251609997824,466.78251609997824,,,,,,,,,,00066,001,2026-01-20_12h00.59.817,MST_task,2024.2.0,60.47375134981442,2026-01-20 12h01.08.762194 +0530,
,Scenes\186a.jpg,84,0,85,,,,,,,j,1.6458014999516308,0.13701050000963733,None,,,,85,0,84,466.78251609997824,,,,,,,,,,,,,,,,,,,,,,,,,,,,,,466.7665226000245,466.78251609997824,467.28505679999944,467.2663105999818,,,,,,,,,,,,,,,,,,,,,,,,,,467.28238769999007,467.28505679999944,467.28505679999944,467.28505679999944,470.2826816000161,j,1.6458014999516308,0.13701050000963733,470.28448500001105,470.28450539999176,None,,,,,,,,,,,,,00066,001,2026-01-20_12h00.59.817,MST_task,2024.2.0,60.47375134981442,2026-01-20 12h01.08.762194 +0530,
,Scenes\033a.jpg,85,0,86,,,,,,,j,0.8503141999826767,0.12105020001763478,None,,,,86,0,85,470.29919819999486,,,,,,,,,,,,,,,,,,,,,,,,,,,,,,470.2845760000055,470.29919819999486,470.79990430001635,470.7827341000084,,,,,,,,,,,,,,,,,,,,,,,,,,470.79287990002194,470.79990430001635,470.79990430001635,470.79990430001635,473.7831759999972,j,0.8503141999826767,0.12105020001763478,473.7832179000252,473.78322939999634,None,473.79921319999266,473.79921319999266,473.79921319999266,,,,,,,,,,00066,001,2026-01-20_12h00.59.817,MST_task,2024.2.0,60.47375134981442,2026-01-20 12h01.08.762194 +0530,
,Scenes\187a.jpg,86,0,87,,,,,,,j,0.8770652000093833,0.11974850000115111,None,,,,87,0,86,473.79921319999266,,,,,,,,,,,,,,,,,,,,,,,,,,,,,,473.7832945000264,473.79921319999266,474.30177259998163,474.2827987999772,,,,,,,,,,,,,,,,,,,,,,,,,,474.2992106000311,474.30177259998163,474.30177259998163,474.30177259998163,477.29951260000234,j,0.8770652000093833,0.11974850000115111,477.2995546000311,477.2995660000015,None,,,,,,,,,,,,,00066,001,2026-01-20_12h00.59.817,MST_task,2024.2.0,60.47375134981442,2026-01-20 12h01.08.762194 +0530,
,Scenes\172a.jpg,87,0,88,,,,,,,j,1.5060029000160284,0.1280166999786161,None,,,,88,0,87,477.31586690002587,,,,,,,,,,,,,,,,,,,,,,,,,,,,,,477.2996326999855,477.31586690002587,477.8163979999954,477.7995793999871,,,,,,,,,,,,,,,,,,,,,,,,,,477.8131898000138,477.8163979999954,477.8163979999954,477.8163979999954,480.7996387000312,j,1.5060029000160284,0.1280166999786161,480.7996897000121,480.7997031999985,None,,,,,,,,,,,,,00066,001,2026-01-20_12h00.59.817,MST_task,2024.2.0,60.47375134981442,2026-01-20 12h01.08.762194 +0530,
,Scenes\114a.jpg,88,0,89,,,,,,,f,1.033737999969162,0.15231969999149442,None,,,,89,0,88,480.81594950001454,,,,,,,,,,,,,,,,,,,,,,,,,,,,,,480.79977959999815,480.81594950001454,481.3208426000201,481.2995137000107,,,,,,,,,,,,,,,,,,,,,,,,,,481.3183434000239,481.3208426000201,481.3208426000201,481.3208426000201,484.3161858000094,f,1.033737999969162,0.15231969999149442,484.3162269000313,484.31623850000324,None,,,,,,,,,,,,,00066,001,2026-01-20_12h00.59.817,MST_task,2024.2.0,60.47375134981442,2026-01-20 12h01.08.762194 +0530,
,Scenes\182a.jpg,89,0,90,,,,,,,j,1.481342200015206,0.1443857999984175,None,,,,90,0,89,484.33242649998283,,,,,,,,,,,,,,,,,,,,,,,,,,,,,,484.3163368999958,484.33242649998283,484.8331292999792,484.8161703000078,,,,,,,,,,,,,,,,,,,,,,,,,,484.82899650000036,484.8331292999792,484.8331292999792,484.8331292999792,487.81663170002867,j,1.481342200015206,0.1443857999984175,487.8166779000312,487.8166898000054,None,487.8325416999869,487.8325416999869,487.8325416999869,,,,,,,,,,00066,001,2026-01-20_12h00.59.817,MST_task,2024.2.0,60.47375134981442,2026-01-20 12h01.08.762194 +0530,
,Scenes\031a.jpg,90,0,91,,,,,,,f,1.4332866999902762,0.12830789998406544,None,,,,91,0,90,487.8325416999869,,,,,,,,,,,,,,,,,,,,,,,,,,,,,,487.8167581000016,487.8325416999869,488.3372322000214,488.3161296999897,,,,,,,,,,,,,,,,,,,,,,,,,,488.33503519999795,488.3372322000214,488.3372322000214,488.3372322000214,491.33283630001824,f,1.4332866999902762,0.12830789998406544,491.3328822000185,491.33289449999575,None,,,,,,,,,,,,,00066,001,2026-01-20_12h00.59.817,MST_task,2024.2.0,60.47375134981442,2026-01-20 12h01.08.762194 +0530,
,Objects\119a.jpg,91,0,92,,,,,,,f,1.328423600003589,0.14510229998268187,None,,,,92,0,91,491.34927940001944,,,,,,,,,,,,,,,,,,,,,,,,,,,,,,491.3330076999846,491.34927940001944,491.849767000007,491.8327296000207,,,,,,,,,,,,,,,,,,,,,,,,,,491.84517490002327,491.849767000007,491.849767000007,491.849767000007,494.8332283999771,f,1.328423600003589,0.14510229998268187,494.83539720001863,494.83541649999097,None,494.8492324000108,494.8492324000108,494.8492324000108,,,,,,,,,,00066,001,2026-01-20_12h00.59.817,MST_task,2024.2.0,60.47375134981442,2026-01-20 12h01.08.762194 +0530,
,Objects\059a.jpg,92,0,93,,,,,,,j,2.4701774999848567,0.08691569999791682,None,,,,93,0,92,494.8492324000108,,,,,,,,,,,,,,,,,,,,,,,,,,,,,,494.8355214999756,494.8492324000108,495.349440400023,495.33276690001367,,,,,,,,,,,,,,,,,,,,,,,,,,495.3425949999946,495.349440400023,495.349440400023,495.349440400023,498.3330049000215,j,2.4701774999848567,0.08691569999791682,498.3330453999806,498.33305620000465,None,498.3492648000247,498.3492648000247,498.3492648000247,,,,,,,,,,00066,001,2026-01-20_12h00.59.817,MST_task,2024.2.0,60.47375134981442,2026-01-20 12h01.08.762194 +0530,
,Objects\094a.jpg,93,0,94,,,,,,,f,0.8486809000023641,0.14400169998407364,None,,,,94,0,93,498.3492648000247,,,,,,,,,,,,,,,,,,,,,,,,,,,,,,498.3331548999995,498.3492648000247,498.84955129999435,498.83275250002043,,,,,,,,,,,,,,,,,,,,,,,,,,498.84145339997485,498.84955129999435,498.84955129999435,498.84955129999435,501.83293750003213,f,0.8486809000023641,0.14400169998407364,501.8329795000027,501.83299179997994,None,501.8492497000261,501.8492497000261,501.8492497000261,,,,,,,,,,00066,001,2026-01-20_12h00.59.817,MST_task,2024.2.0,60.47375134981442,2026-01-20 12h01.08.762194 +0530,
,Objects\071a.jpg,94,0,95,,,,,,,f,1.1894000000320375,0.14493409998249263,None,,,,95,0,94,501.8492497000261,,,,,,,,,,,,,,,,,,,,,,,,,,,,,,501.8330903000315,501.8492497000261,502.3494244000176,502.3327483999892,,,,,,,,,,,,,,,,,,,,,,,,,,502.34189139999216,502.3494244000176,502.3494244000176,502.3494244000176,505.3330519000301,f,1.1894000000320375,0.14493409998249263,505.33309790003113,505.3331093000015,None,505.349263400014,505.349263400014,505.349263400014,,,,,,,,,,00066,001,2026-01-20_12h00.59.817,MST_task,2024.2.0,60.47375134981442,2026-01-20 12h01.08.762194 +0530,
,Objects\008a.jpg,95,0,96,,,,,,,f,0.7287985000293702,0.1359583999728784,None,,,,96,0,95,505.349263400014,,,,,,,,,,,,,,,,,,,,,,,,,,,,,,505.3332087000017,505.349263400014,505.8495157000143,505.83271909999894,,,,,,,,,,,,,,,,,,,,,,,,,,505.84224720002385,505.8495157000143,505.8495157000143,505.8495157000143,508.83310719998553,f,0.7287985000293702,0.1359583999728784,508.83314679999603,508.83315760002006,None,508.84922089998145,508.84922089998145,508.84922089998145,,,,,,,,,,00066,001,2026-01-20_12h00.59.817,MST_task,2024.2.0,60.47375134981442,2026-01-20 12h01.08.762194 +0530,
,Objects\016a.jpg,96,0,97,,,,,,,f,0.6446923000039533,0.12104769999859855,None,,,,97,0,96,508.84922089998145,,,,,,,,,,,,,,,,,,,,,,,,,,,,,,508.83325640001567,508.84922089998145,509.34955029998673,509.3328225000296,,,,,,,,,,,,,,,,,,,,,,,,,,509.34228450001683,509.34955029998673,509.34955029998673,509.34955029998673,512.3331390999956,f,0.6446923000039533,0.12104769999859855,512.3331895000301,512.3332010000013,None,512.3493305000011,512.3493305000011,512.3493305000011,,,,,,,,,,00066,001,2026-01-20_12h00.59.817,MST_task,2024.2.0,60.47375134981442,2026-01-20 12h01.08.762194 +0530,
,Objects\149a.jpg,97,0,98,,,,,,,j,0.7768434999743477,0.1199985999846831,None,,,,98,0,97,512.3493305000011,,,,,,,,,,,,,,,,,,,,,,,,,,,,,,512.3333072999958,512.3493305000011,512.8495010000188,512.8328544999822,,,,,,,,,,,,,,,,,,,,,,,,,,512.8430308999959,512.8495010000188,512.8495010000188,512.8495010000188,515.8330243999953,j,0.7768434999743477,0.1199985999846831,515.833067599975,515.8330790000036,None,515.849298599991,515.849298599991,515.849298599991,,,,,,,,,,00066,001,2026-01-20_12h00.59.817,MST_task,2024.2.0,60.47375134981442,2026-01-20 12h01.08.762194 +0530,
,Scenes\132a.jpg,98,0,99,,,,,,,j,1.6999972000485286,0.09598099999129772,None,,,,99,0,98,515.849298599991,,,,,,,,,,,,,,,,,,,,,,,,,,,,,,515.8331737000262,515.849298599991,516.3508742999984,516.3328140000231,,,,,,,,,,,,,,,,,,,,,,,,,,516.3486209000112,516.3508742999984,516.3508742999984,516.3508742999984,519.3495279999916,j,1.6999972000485286,0.09598099999129772,519.3512008999824,519.3512169999885,None,,,,,,,,,,,,,00066,001,2026-01-20_12h00.59.817,MST_task,2024.2.0,60.47375134981442,2026-01-20 12h01.08.762194 +0530,
,Scenes\076a.jpg,99,0,100,,,,,,,j,1.0286421999917366,0.11200309998821467,None,,,,100,0,99,519.3658887000056,,,,,,,,,,,,,,,,,,,,,,,,,,,,,,519.351283200027,519.3658887000056,519.8776169000193,519.8496406999766,,,,,,,,,,,,,,,,,,,,,,,,,,519.8750502999756,519.8776169000193,519.8776169000193,519.8776169000193,522.8661921999883,j,1.0286421999917366,0.11200309998821467,522.8662323000026,522.866244099976,None,,,,,,,,,,,,,00066,001,2026-01-20_12h00.59.817,MST_task,2024.2.0,60.47375134981442,2026-01-20 12h01.08.762194 +0530,
,Scenes\005a.jpg,100,0,101,,,,,,,f,1.6096635000430979,0.12022199999773875,None,,,,101,0,100,522.8824470000109,,,,,,,,,,,,,,,,,,,,,,,,,,,,,,522.8663514999789,522.8824470000109,523.3854731000029,523.3661821000278,,,,,,,,,,,,,,,,,,,,,,,,,,523.3830921999761,523.3854731000029,523.3854731000029,523.3854731000029,526.3827846000204,f,1.6096635000430979,0.12022199999773875,526.3828240000294,526.3828355000005,None,,,,,,,,,,,,,00066,001,2026-01-20_12h00.59.817,MST_task,2024.2.0,60.47375134981442,2026-01-20 12h01.08.762194 +0530,
,Scenes\176a.jpg,101,0,102,,,,,,,j,1.0260123999905773,0.11203740001656115,None,,,,102,0,101,526.3991860999959,,,,,,,,,,,,,,,,,,,,,,,,,,,,,,526.3829108999926,526.3991860999959,526.9049866999849,526.8827821000014,,,,,,,,,,,,,,,,,,,,,,,,,,526.9024004000239,526.9049866999849,526.9049866999849,526.9049866999849,529.8995512999827,j,1.0260123999905773,0.11203740001656115,529.8996020000195,529.8996143999975,None,,,,,,,,,,,,,00066,001,2026-01-20_12h00.59.817,MST_task,2024.2.0,60.47375134981442,2026-01-20 12h01.08.762194 +0530,
,Scenes\097a.jpg,102,0,103,,,,,,,f,1.1298734999727458,0.13652810000348836,None,,,,103,0,102,529.9159446000122,,,,,,,,,,,,,,,,,,,,,,,,,,,,,,529.8996850000112,529.9159446000122,530.4164357000263,530.399612499983,,,,,,,,,,,,,,,,,,,,,,,,,,530.408391200006,530.4164357000263,530.4164357000263,530.4164357000263,533.399707900011,f,1.1298734999727458,0.13652810000348836,533.3997584999888,533.3997717000311,None,,,,,,,,,,,,,00066,001,2026-01-20_12h00.59.817,MST_task,2024.2.0,60.47375134981442,2026-01-20 12h01.08.762194 +0530,
,Scenes\152a.jpg,103,0,104,,,,,,,j,1.0383006999618374,0.13592490000883117,None,,,,104,0,103,533.4159678000142,,,,,,,,,,,,,,,,,,,,,,,,,,,,,,533.3998843000154,533.4159678000142,533.9166535999975,533.899447600008,,,,,,,,,,,,,,,,,,,,,,,,,,533.9118269000319,533.9166535999975,533.9166535999975,533.9166535999975,536.8997152000084,j,1.0383006999618374,0.13592490000883117,536.8997550000204,536.899765899987,None,536.9159356000018,536.9159356000018,536.9159356000018,,,,,,,,,,00066,001,2026-01-20_12h00.59.817,MST_task,2024.2.0,60.47375134981442,2026-01-20 12h01.08.762194 +0530,
,Scenes\119a.jpg,104,0,105,,,,,,,j,0.98398909997195,0.16105870000319555,None,,,,105,0,104,536.9159356000018,,,,,,,,,,,,,,,,,,,,,,,,,,,,,,536.8998691000161,536.9159356000018,537.4185847999761,537.3996982999961,,,,,,,,,,,,,,,,,,,,,,,,,,537.4162513000192,537.4185847999761,537.4185847999761,537.4185847999761,540.4161981000216,j,0.98398909997195,0.16105870000319555,540.4162796000019,540.4162951000035,None,,,,,,,,,,,,,00066,001,2026-01-20_12h00.59.817,MST_task,2024.2.0,60.47375134981442,2026-01-20 12h01.08.762194 +0530,
,Objects\126a.jpg,105,0,106,,,,,,,f,1.237142900004983,0.15199520002352074,None,,,,106,0,105,540.4324679999845,,,,,,,,,,,,,,,,,,,,,,,,,,,,,,540.4164025000064,540.4324679999845,540.9331066000159,540.9161950999987,,,,,,,,,,,,,,,,,,,,,,,,,,540.9284864999936,540.9331066000159,540.9331066000159,540.9331066000159,543.9167451999965,f,1.237142900004983,0.15199520002352074,543.9188480000012,543.9188658000203,None,,,,,,,,,,,,,00066,001,2026-01-20_12h00.59.817,MST_task,2024.2.0,60.47375134981442,2026-01-20 12h01.08.762194 +0530,
,Objects\053a.jpg,106,0,107,,,,,,,f,0.7136249999748543,0.136037899996154,None,,,,107,0,106,543.9325399000081,,,,,,,,,,,,,,,,,,,,,,,,,,,,,,543.91894459998,543.9325399000081,544.4328188999789,544.4161737000104,,,,,,,,,,,,,,,,,,,,,,,,,,544.4254368999973,544.4328188999789,544.4328188999789,544.4328188999789,547.4165373999858,f,0.7136249999748543,0.136037899996154,547.4165786000085,547.416591199988,None,547.4324938000063,547.4324938000063,547.4324938000063,,,,,,,,,,00066,001,2026-01-20_12h00.59.817,MST_task,2024.2.0,60.47375134981442,2026-01-20 12h01.08.762194 +0530,
,Objects\137a.jpg,107,0,108,,,,,,,j,1.382024199992884,0.09599419997539371,None,,,,108,0,107,547.4324938000063,,,,,,,,,,,,,,,,,,,,,,,,,,,,,,547.4166924000019,547.4324938000063,547.932988399989,547.9161451000255,,,,,,,,,,,,,,,,,,,,,,,,,,547.9275307999924,547.932988399989,547.932988399989,547.932988399989,550.9167030000244,j,1.382024199992884,0.09599419997539371,550.9167450999958,550.9167567000259,None,550.932644799992,550.932644799992,550.932644799992,,,,,,,,,,00066,001,2026-01-20_12h00.59.817,MST_task,2024.2.0,60.47375134981442,2026-01-20 12h01.08.762194 +0530,
,Objects\026a.jpg,108,0,109,,,,,,,f,1.201699900033418,0.11165739997522905,None,,,,109,0,108,550.932644799992,,,,,,,,,,,,,,,,,,,,,,,,,,,,,,550.9168249000213,550.932644799992,551.4330249999766,551.4162701999885,,,,,,,,,,,,,,,,,,,,,,,,,,551.4275399000035,551.4330249999766,551.4330249999766,551.4330249999766,554.416637199989,f,1.201699900033418,0.11165739997522905,554.4166807000292,554.4166916999966,None,554.4326536000008,554.4326536000008,554.4326536000008,,,,,,,,,,00066,001,2026-01-20_12h00.59.817,MST_task,2024.2.0,60.47375134981442,2026-01-20 12h01.08.762194 +0530,
,Objects\085a.jpg,109,0,110,,,,,,,j,0.9341486999765038,0.11100189998978749,None,,,,110,0,109,554.4326536000008,,,,,,,,,,,,,,,,,,,,,,,,,,,,,,554.4167962999782,554.4326536000008,554.9329908000072,554.9164275000221,,,,,,,,,,,,,,,,,,,,,,,,,,554.925657099986,554.9329908000072,554.9329908000072,554.9329908000072,557.9167949000257,j,0.9341486999765038,0.11100189998978749,557.9168362999917,557.9168475000188,None,557.9326295999927,557.9326295999927,557.9326295999927,,,,,,,,,,00066,001,2026-01-20_12h00.59.817,MST_task,2024.2.0,60.47375134981442,2026-01-20 12h01.08.762194 +0530,
,Objects\178a.jpg,110,0,111,,,,,,,f,0.9463158000144176,0.12708790000760928,None,,,,111,0,110,557.9326295999927,,,,,,,,,,,,,,,,,,,,,,,,,,,,,,557.9169465000159,557.9326295999927,558.4328000000096,558.4165970999748,,,,,,,,,,,,,,,,,,,,,,,,,,558.4291845000116,558.4328000000096,558.4328000000096,558.4328000000096,561.4167917000013,f,0.9463158000144176,0.12708790000760928,561.416844899999,561.4168583999854,None,561.4326523999916,561.4326523999916,561.4326523999916,,,,,,,,,,00066,001,2026-01-20_12h00.59.817,MST_task,2024.2.0,60.47375134981442,2026-01-20 12h01.08.762194 +0530,
,Objects\033a.jpg,111,0,112,,,,,,,f,0.7572664000326768,0.13599899999098852,None,,,,112,0,111,561.4326523999916,,,,,,,,,,,,,,,,,,,,,,,,,,,,,,561.4169289999991,561.4326523999916,561.9329378000111,561.9162080999813,,,,,,,,,,,,,,,,,,,,,,,,,,561.9262459999882,561.9329378000111,561.9329378000111,561.9329378000111,564.9167175000184,f,0.7572664000326768,0.13599899999098852,564.9167587999837,564.9167701000115,None,564.9328417999786,564.9328417999786,564.9328417999786,,,,,,,,,,00066,001,2026-01-20_12h00.59.817,MST_task,2024.2.0,60.47375134981442,2026-01-20 12h01.08.762194 +0530,
,Scenes\059a.jpg,112,0,113,,,,,,,j,1.0661525999894366,0.12691569997696206,None,,,,113,0,112,564.9328417999786,,,,,,,,,,,,,,,,,,,,,,,,,,,,,,564.9168352999841,564.9328417999786,565.4411370999878,565.4164736000239,,,,,,,,,,,,,,,,,,,,,,,,,,565.4384282000246,565.4411370999878,565.4411370999878,565.4411370999878,568.4329574999865,j,1.0661525999894366,0.12691569997696206,568.434811300016,568.4348308999906,None,,,,,,,,,,,,,00066,001,2026-01-20_12h00.59.817,MST_task,2024.2.0,60.47375134981442,2026-01-20 12h01.08.762194 +0530,
,Scenes\153a.jpg,113,0,114,,,,,,,j,1.0455853000166826,0.11995379999279976,None,,,,114,0,113,568.4493625999894,,,,,,,,,,,,,,,,,,,,,,,,,,,,,,568.4349418000202,568.4493625999894,568.9498568000272,568.9331021999824,,,,,,,,,,,,,,,,,,,,,,,,,,568.9472263000207,568.9498568000272,568.9498568000272,568.9498568000272,571.9333462999784,j,1.0455853000166826,0.11995379999279976,571.9333886000095,571.9334000999806,None,571.9494015999953,571.9494015999953,571.9494015999953,,,,,,,,,,00066,001,2026-01-20_12h00.59.817,MST_task,2024.2.0,60.47375134981442,2026-01-20 12h01.08.762194 +0530,
,Scenes\008a.jpg,114,0,115,,,,,,,f,0.9290228000027128,0.13543049996951595,None,,,,115,0,114,571.9494015999953,,,,,,,,,,,,,,,,,,,,,,,,,,,,,,571.9334992999793,571.9494015999953,572.4498370999936,572.4331407999853,,,,,,,,,,,,,,,,,,,,,,,,,,572.4465837000171,572.4498370999936,572.4498370999936,572.4498370999936,575.4331450000172,f,0.9290228000027128,0.13543049996951595,575.4331853999756,575.433196900005,None,575.4493728000089,575.4493728000089,575.4493728000089,,,,,,,,,,00066,001,2026-01-20_12h00.59.817,MST_task,2024.2.0,60.47375134981442,2026-01-20 12h01.08.762194 +0530,
,Scenes\006a.jpg,115,0,116,,,,,,,f,1.548980199964717,0.13550760003272444,None,,,,116,0,115,575.4493728000089,,,,,,,,,,,,,,,,,,,,,,,,,,,,,,575.4332623999799,575.4493728000089,575.9499353999854,575.9329145000083,,,,,,,,,,,,,,,,,,,,,,,,,,575.9459574000211,575.9499353999854,575.9499353999854,575.9499353999854,578.9333018999896,f,1.548980199964717,0.13550760003272444,578.9333448000252,578.9333570000017,None,578.9493946000002,578.9493946000002,578.9493946000002,,,,,,,,,,00066,001,2026-01-20_12h00.59.817,MST_task,2024.2.0,60.47375134981442,2026-01-20 12h01.08.762194 +0530,
,Scenes\137a.jpg,116,0,117,,,,,,,j,1.3618132999981754,0.11100229999283329,None,,,,117,0,116,578.9493946000002,,,,,,,,,,,,,,,,,,,,,,,,,,,,,,578.9334221000317,578.9493946000002,579.4498887999798,579.4329850000213,,,,,,,,,,,,,,,,,,,,,,,,,,579.4468028999981,579.4498887999798,579.4498887999798,579.4498887999798,582.4331443000119,j,1.3618132999981754,0.11100229999283329,582.4331862999825,582.433197300008,None,582.4494072999805,582.4494072999805,582.4494072999805,,,,,,,,,,00066,001,2026-01-20_12h00.59.817,MST_task,2024.2.0,60.47375134981442,2026-01-20 12h01.08.762194 +0530,
,Scenes\049a.jpg,117,0,118,,,,,,,j,0.9646928000147454,0.13596899999538437,None,,,,118,0,117,582.4494072999805,,,,,,,,,,,,,,,,,,,,,,,,,,,,,,582.4332957000006,582.4494072999805,582.950023500016,582.9329222000088,,,,,,,,,,,,,,,,,,,,,,,,,,582.945833500009,582.950023500016,582.950023500016,582.950023500016,585.9333068000269,j,0.9646928000147454,0.13596899999538437,585.9333531000302,585.9333657000097,None,585.9494003999862,585.9494003999862,585.9494003999862,,,,,,,,,,00066,001,2026-01-20_12h00.59.817,MST_task,2024.2.0,60.47375134981442,2026-01-20 12h01.08.762194 +0530,
,Scenes\022a.jpg,118,0,119,,,,,,,j,1.6338035999797285,0.1350391000160016,None,,,,119,0,118,585.9494003999862,,,,,,,,,,,,,,,,,,,,,,,,,,,,,,585.9334795000032,585.9494003999862,586.449911499978,586.4329432999948,,,,,,,,,,,,,,,,,,,,,,,,,,586.443027900008,586.449911499978,586.449911499978,586.449911499978,589.4333963000099,j,1.6338035999797285,0.1350391000160016,589.4334358000197,589.4334470999893,None,589.4493095999933,589.4493095999933,589.4493095999933,,,,,,,,,,00066,001,2026-01-20_12h00.59.817,MST_task,2024.2.0,60.47375134981442,2026-01-20 12h01.08.762194 +0530,
,Objects\070a.jpg,119,0,120,,,,,,,f,0.9403711000340991,0.14421569998376071,None,,,,120,0,119,589.4493095999933,,,,,,,,,,,,,,,,,,,,,,,,,,,,,,589.4335452999803,589.4493095999933,589.9498142999946,589.9331967000035,,,,,,,,,,,,,,,,,,,,,,,,,,589.9461534000002,589.9498142999946,589.9498142999946,589.9498142999946,592.9347949000075,f,0.9403711000340991,0.14421569998376071,592.937466399977,592.9374877000228,None,,,,,,,,,,,,,00066,001,2026-01-20_12h00.59.817,MST_task,2024.2.0,60.47375134981442,2026-01-20 12h01.08.762194 +0530,
,Objects\060a.jpg,120,0,121,,,,,,,f,0.8420391000108793,0.11096760001964867,None,,,,121,0,120,592.9494140000315,,,,,,,,,,,,,,,,,,,,,,,,,,,,,,592.9375659999787,592.9494140000315,593.449572100013,593.4329640999786,,,,,,,,,,,,,,,,,,,,,,,,,,593.4420975000248,593.449572100013,593.449572100013,593.449572100013,596.4332095999853,f,0.8420391000108793,0.11096760001964867,596.4332563999924,596.4332677000202,None,596.4493253999972,596.4493253999972,596.4493253999972,,,,,,,,,,00066,001,2026-01-20_12h00.59.817,MST_task,2024.2.0,60.47375134981442,2026-01-20 12h01.08.762194 +0530,
,Objects\009a.jpg,121,0,122,,,,,,,f,0.7733085000072606,0.1438336999854073,None,,,,122,0,121,596.4493253999972,,,,,,,,,,,,,,,,,,,,,,,,,,,,,,596.4333340000012,596.4493253999972,596.9496429000283,596.9329113999847,,,,,,,,,,,,,,,,,,,,,,,,,,596.9422769999946,596.9496429000283,596.9496429000283,596.9496429000283,599.9331096999813,f,0.7733085000072606,0.1438336999854073,599.9331520000123,599.9331630999804,None,599.94931180001,599.94931180001,599.94931180001,,,,,,,,,,00066,001,2026-01-20_12h00.59.817,MST_task,2024.2.0,60.47375134981442,2026-01-20 12h01.08.762194 +0530,
,Objects\079a.jpg,122,0,123,,,,,,,j,1.0008430000161752,0.11208170000463724,None,,,,123,0,122,599.94931180001,,,,,,,,,,,,,,,,,,,,,,,,,,,,,,599.9332274000044,599.94931180001,600.4497257000185,600.433001700032,,,,,,,,,,,,,,,,,,,,,,,,,,600.4430132000125,600.4497257000185,600.4497257000185,600.4497257000185,603.4332004999742,j,1.0008430000161752,0.11208170000463724,603.4332441000151,603.4332560999901,None,603.4494021999999,603.4494021999999,603.4494021999999,,,,,,,,,,00066,001,2026-01-20_12h00.59.817,MST_task,2024.2.0,60.47375134981442,2026-01-20 12h01.08.762194 +0530,
,Objects\138a.jpg,123,0,124,,,,,,,j,0.8614022000110708,0.1443347000167705,None,,,,124,0,123,603.4494021999999,,,,,,,,,,,,,,,,,,,,,,,,,,,,,,603.4333535999758,603.4494021999999,603.9495807000203,603.9328803999815,,,,,,,,,,,,,,,,,,,,,,,,,,603.9420084999874,603.9495807000203,603.9495807000203,603.9495807000203,606.9332534000278,j,0.8614022000110708,0.1443347000167705,606.9332936999854,606.933305100014,None,606.949380200007,606.949380200007,606.949380200007,,,,,,,,,,00066,001,2026-01-20_12h00.59.817,MST_task,2024.2.0,60.47375134981442,2026-01-20 12h01.08.762194 +0530,
,Objects\007a.jpg,124,0,125,,,,,,,f,1.120920900022611,0.13606069999514148,None,,,,125,0,124,606.949380200007,,,,,,,,,,,,,,,,,,,,,,,,,,,,,,606.9333998999791,606.949380200007,607.4496412000153,607.4329710000311,,,,,,,,,,,,,,,,,,,,,,,,,,607.4420556999976,607.4496412000153,607.4496412000153,607.4496412000153,610.4332828000188,f,1.120920900022611,0.13606069999514148,610.4333309999784,610.4333435000153,None,610.4492833000259,610.4492833000259,610.4492833000259,,,,,,,,,,00066,001,2026-01-20_12h00.59.817,MST_task,2024.2.0,60.47375134981442,2026-01-20 12h01.08.762194 +0530,
,Objects\152a.jpg,125,0,126,,,,,,,f,1.7732716999598779,0.12745490000816062,None,,,,126,0,125,610.4492833000259,,,,,,,,,,,,,,,,,,,,,,,,,,,,,,610.4334115000092,610.4492833000259,610.9496776000015,610.9329657999915,,,,,,,,,,,,,,,,,,,,,,,,,,610.9436421000282,610.9496776000015,610.9496776000015,610.9496776000015,613.932999200013,f,1.7732716999598779,0.12745490000816062,613.933040199976,613.9330513000023,None,613.9493030000012,613.9493030000012,613.9493030000012,,,,,,,,,,00066,001,2026-01-20_12h00.59.817,MST_task,2024.2.0,60.47375134981442,2026-01-20 12h01.08.762194 +0530,
,Scenes\072a.jpg,126,0,127,,,,,,,j,1.2843307000002824,0.10422859998652712,None,,,,127,0,126,613.9493030000012,,,,,,,,,,,,,,,,,,,,,,,,,,,,,,613.9331494999933,613.9493030000012,614.4545045000268,614.4328458000091,,,,,,,,,,,,,,,,,,,,,,,,,,614.4519919999875,614.4545045000268,614.4545045000268,614.4545045000268,617.4495556000038,j,1.2843307000002824,0.10422859998652712,617.4512294000015,617.4512477000244,None,,,,,,,,,,,,,00066,001,2026-01-20_12h00.59.817,MST_task,2024.2.0,60.47375134981442,2026-01-20 12h01.08.762194 +0530,
,Scenes\086a.jpg,127,0,128,,,,,,,j,1.2552526000072248,0.11199770000530407,None,,,,128,0,127,617.4658804999781,,,,,,,,,,,,,,,,,,,,,,,,,,,,,,617.4513525000075,617.4658804999781,617.9716168000014,617.9497523999889,,,,,,,,,,,,,,,,,,,,,,,,,,617.9691173000028,617.9716168000014,617.9716168000014,617.9716168000014,620.9662450000178,j,1.2552526000072248,0.11199770000530407,620.9663242999814,620.966339799983,None,,,,,,,,,,,,,00066,001,2026-01-20_12h00.59.817,MST_task,2024.2.0,60.47375134981442,2026-01-20 12h01.08.762194 +0530,
,Scenes\164a.jpg,128,0,129,,,,,,,f,1.0146657999721356,0.1424059999990277,None,,,,129,0,128,620.9825404000003,,,,,,,,,,,,,,,,,,,,,,,,,,,,,,620.9664186000009,620.9825404000003,621.4851879000198,621.4662600000156,,,,,,,,,,,,,,,,,,,,,,,,,,621.4827361999778,621.4851879000198,621.4851879000198,621.4851879000198,624.4828367999871,f,1.0146657999721356,0.1424059999990277,624.4828790000174,624.4828917999985,None,,,,,,,,,,,,,00066,001,2026-01-20_12h00.59.817,MST_task,2024.2.0,60.47375134981442,2026-01-20 12h01.08.762194 +0530,
,Scenes\183a.jpg,129,0,130,,,,,,,f,0.6909474999993108,0.12045420001959428,None,,,,130,0,129,624.4993025999865,,,,,,,,,,,,,,,,,,,,,,,,,,,,,,624.4829608,624.4993025999865,625.0000918000005,624.9827233999968,,,,,,,,,,,,,,,,,,,,,,,,,,624.9978092000238,625.0000918000005,625.0000918000005,625.0000918000005,627.9830857000197,f,0.6909474999993108,0.12045420001959428,627.9831256999751,627.9831368000014,None,627.9992937999777,627.9992937999777,627.9992937999777,,,,,,,,,,00066,001,2026-01-20_12h00.59.817,MST_task,2024.2.0,60.47375134981442,2026-01-20 12h01.08.762194 +0530,
,Scenes\096a.jpg,130,0,131,,,,,,,j,0.7750058000092395,0.1361019000178203,None,,,,131,0,130,627.9992937999777,,,,,,,,,,,,,,,,,,,,,,,,,,,,,,627.9832353999955,627.9992937999777,628.4998243000009,628.4827250000089,,,,,,,,,,,,,,,,,,,,,,,,,,628.4940071000019,628.4998243000009,628.4998243000009,628.4998243000009,631.4835903000203,j,0.7750058000092395,0.1361019000178203,631.4836428000126,631.4836559999967,None,631.4997534999857,631.4997534999857,631.4997534999857,,,,,,,,,,00066,001,2026-01-20_12h00.59.817,MST_task,2024.2.0,60.47375134981442,2026-01-20 12h01.08.762194 +0530,
,Scenes\051a.jpg,131,0,132,,,,,,,j,0.9547111000283621,0.11198260000674054,None,,,,132,0,131,631.4997534999857,,,,,,,,,,,,,,,,,,,,,,,,,,,,,,631.4837778999936,631.4997534999857,631.9997853999957,631.9827220999869,,,,,,,,,,,,,,,,,,,,,,,,,,631.9945402999874,631.9997853999957,631.9997853999957,631.9997853999957,634.9831989000086,j,0.9547111000283621,0.11198260000674054,634.9832410999807,634.9832525000093,None,634.9992915000184,634.9992915000184,634.9992915000184,,,,,,,,,,00066,001,2026-01-20_12h00.59.817,MST_task,2024.2.0,60.47375134981442,2026-01-20 12h01.08.762194 +0530,
,Scenes\024a.jpg,132,0,133,,,,,,,j,0.8870134000317194,0.13628529995912686,None,,,,133,0,132,634.9992915000184,,,,,,,,,,,,,,,,,,,,,,,,,,,,,,634.9833516000072,634.9992915000184,635.4998300999869,635.4828031000216,,,,,,,,,,,,,,,,,,,,,,,,,,635.4953873999766,635.4998300999869,635.4998300999869,635.4998300999869,638.4833477999782,j,0.8870134000317194,0.13628529995912686,638.4833982000127,638.4834112999961,None,638.4994004999753,638.4994004999753,638.4994004999753,,,,,,,,,,00066,001,2026-01-20_12h00.59.817,MST_task,2024.2.0,60.47375134981442,2026-01-20 12h01.08.762194 +0530,
,Objects\165a.jpg,133,0,134,,,,,,,f,0.7547733000246808,0.14407659997232258,None,,,,134,0,133,638.4994004999753,,,,,,,,,,,,,,,,,,,,,,,,,,,,,,638.483529500023,638.4994004999753,638.9997655000188,638.9828129999805,,,,,,,,,,,,,,,,,,,,,,,,,,638.9953434999916,638.9997655000188,638.9997655000188,638.9997655000188,641.9833312000264,f,0.7547733000246808,0.14407659997232258,641.9856814999948,641.9857020999771,None,641.9993225000217,641.9993225000217,641.9993225000217,,,,,,,,,,00066,001,2026-01-20_12h00.59.817,MST_task,2024.2.0,60.47375134981442,2026-01-20 12h01.08.762194 +0530,
,Objects\145a.jpg,134,0,135,,,,,,,f,0.6721276000025682,0.12707139999838546,None,,,,135,0,134,641.9993225000217,,,,,,,,,,,,,,,,,,,,,,,,,,,,,,641.9858220000169,641.9993225000217,642.499460400024,642.4828181000194,,,,,,,,,,,,,,,,,,,,,,,,,,642.4916235000128,642.499460400024,642.499460400024,642.499460400024,645.4831483000307,f,0.6721276000025682,0.12707139999838546,645.4831891999929,645.4832007000223,None,645.4992419999908,645.4992419999908,645.4992419999908,,,,,,,,,,00066,001,2026-01-20_12h00.59.817,MST_task,2024.2.0,60.47375134981442,2026-01-20 12h01.08.762194 +0530,
,Objects\032a.jpg,135,0,136,,,,,,,j,0.9715613999869674,0.13510600000154227,None,,,,136,0,135,645.4992419999908,,,,,,,,,,,,,,,,,,,,,,,,,,,,,,645.4832991000148,645.4992419999908,645.9995372000267,645.9828168000095,,,,,,,,,,,,,,,,,,,,,,,,,,645.992077199975,645.9995372000267,645.9995372000267,645.9995372000267,648.9831604000065,j,0.9715613999869674,0.13510600000154227,648.9832073000143,648.9832181999809,None,648.999241499987,648.999241499987,648.999241499987,,,,,,,,,,00066,001,2026-01-20_12h00.59.817,MST_task,2024.2.0,60.47375134981442,2026-01-20 12h01.08.762194 +0530,
,Objects\181a.jpg,136,0,137,,,,,,,j,0.8951200000010431,0.11164449999341741,None,,,,137,0,136,648.999241499987,,,,,,,,,,,,,,,,,,,,,,,,,,,,,,648.9833178999834,648.999241499987,649.4995399999898,649.4828672999865,,,,,,,,,,,,,,,,,,,,,,,,,,649.492264600005,649.4995399999898,649.4995399999898,649.4995399999898,652.4833779999753,j,0.8951200000010431,0.11164449999341741,652.4834255999885,652.4834378000232,None,652.4993923000293,652.4993923000293,652.4993923000293,,,,,,,,,,00066,001,2026-01-20_12h00.59.817,MST_task,2024.2.0,60.47375134981442,2026-01-20 12h01.08.762194 +0530,
,Objects\122a.jpg,137,0,138,,,,,,,f,0.7069449000409804,0.15197730000363663,None,,,,138,0,137,652.4993923000293,,,,,,,,,,,,,,,,,,,,,,,,,,,,,,652.4835072000278,652.4993923000293,652.9995369000244,652.9827359999763,,,,,,,,,,,,,,,,,,,,,,,,,,652.9920587000088,652.9995369000244,652.9995369000244,652.9995369000244,655.9830944000278,f,0.7069449000409804,0.15197730000363663,655.983141899982,655.9831539000152,None,655.9993271999992,655.9993271999992,655.9993271999992,,,,,,,,,,00066,001,2026-01-20_12h00.59.817,MST_task,2024.2.0,60.47375134981442,2026-01-20 12h01.08.762194 +0530,
,Objects\136a.jpg,138,0,139,,,,,,,f,0.6630526999942958,0.1437770000193268,None,,,,139,0,138,655.9993271999992,,,,,,,,,,,,,,,,,,,,,,,,,,,,,,655.9832313000225,655.9993271999992,656.4995177999954,656.4829424999771,,,,,,,,,,,,,,,,,,,,,,,,,,656.4927257000236,656.4995177999954,656.4995177999954,656.4995177999954,659.4829865000211,f,0.6630526999942958,0.1437770000193268,659.4830282999901,659.4830394000164,None,659.4993342999951,659.4993342999951,659.4993342999951,,,,,,,,,,00066,001,2026-01-20_12h00.59.817,MST_task,2024.2.0,60.47375134981442,2026-01-20 12h01.08.762194 +0530,
,Objects\083a.jpg,139,0,140,,,,,,,f,0.6510304000112228,0.1280094999819994,None,,,,140,0,139,659.4993342999951,,,,,,,,,,,,,,,,,,,,,,,,,,,,,,659.4831385000143,659.4993342999951,659.9994888000074,659.9828325000126,,,,,,,,,,,,,,,,,,,,,,,,,,659.9919470000314,659.9994888000074,659.9994888000074,659.9994888000074,662.9833794999868,f,0.6510304000112228,0.1280094999819994,662.9834284000099,662.9834408999886,None,662.9993391999742,662.9993391999742,662.9993391999742,,,,,,,,,,00066,001,2026-01-20_12h00.59.817,MST_task,2024.2.0,60.47375134981442,2026-01-20 12h01.08.762194 +0530,
,Scenes\160a.jpg,140,0,141,,,,,,,j,0.8602951999637298,0.13599810004234314,None,,,,141,0,140,662.9993391999742,,,,,,,,,,,,,,,,,,,,,,,,,,,,,,662.9835084999795,662.9993391999742,663.502853700018,663.4830329000251,,,,,,,,,,,,,,,,,,,,,,,,,,663.5003257999779,663.502853700018,663.502853700018,663.502853700018,666.4995636999956,j,0.8602951999637298,0.13599810004234314,666.501351999992,666.5013715000241,None,,,,,,,,,,,,,00066,001,2026-01-20_12h00.59.817,MST_task,2024.2.0,60.47375134981442,2026-01-20 12h01.08.762194 +0530,
,Scenes\141a.jpg,141,0,142,,,,,,,j,0.8099092000047676,0.1279960999963805,None,,,,142,0,141,666.5159037000267,,,,,,,,,,,,,,,,,,,,,,,,,,,,,,666.5014737999882,666.5159037000267,667.0164885999984,666.9995383999776,,,,,,,,,,,,,,,,,,,,,,,,,,667.0117026999942,667.0164885999984,667.0164885999984,667.0164885999984,669.9998986999854,j,0.8099092000047676,0.1279960999963805,669.9999393000035,669.9999498000252,None,670.0160279999836,670.0160279999836,670.0160279999836,,,,,,,,,,00066,001,2026-01-20_12h00.59.817,MST_task,2024.2.0,60.47375134981442,2026-01-20 12h01.08.762194 +0530,
,Scenes\126a.jpg,142,0,143,,,,,,,j,0.7954626000137068,0.13503349997336045,None,,,,143,0,142,670.0160279999836,,,,,,,,,,,,,,,,,,,,,,,,,,,,,,670.0000480000162,670.0160279999836,670.5198428999865,670.4997322999989,,,,,,,,,,,,,,,,,,,,,,,,,,670.5172805999755,670.5198428999865,670.5198428999865,670.5198428999865,673.5163419999881,j,0.7954626000137068,0.13503349997336045,673.5163859000313,673.5163992000162,None,,,,,,,,,,,,,00066,001,2026-01-20_12h00.59.817,MST_task,2024.2.0,60.47375134981442,2026-01-20 12h01.08.762194 +0530,
,Scenes\136a.jpg,143,0,144,,,,,,,f,0.8976885000010952,0.1361773000098765,None,,,,144,0,143,673.5327672000276,,,,,,,,,,,,,,,,,,,,,,,,,,,,,,673.5165071000229,673.5327672000276,674.0332650999771,674.0162739999942,,,,,,,,,,,,,,,,,,,,,,,,,,674.029319800029,674.0332650999771,674.0332650999771,674.0332650999771,677.0167297000298,f,0.8976885000010952,0.1361773000098765,677.0167735000141,677.016785099986,None,677.0327197000152,677.0327197000152,677.0327197000152,,,,,,,,,,00066,001,2026-01-20_12h00.59.817,MST_task,2024.2.0,60.47375134981442,2026-01-20 12h01.08.762194 +0530,
,Scenes\159a.jpg,144,0,145,,,,,,,j,0.9051937999902293,0.11200459999963641,None,,,,145,0,144,677.0327197000152,,,,,,,,,,,,,,,,,,,,,,,,,,,,,,677.0168878000113,677.0327197000152,677.5380333000212,677.5162472000229,,,,,,,,,,,,,,,,,,,,,,,,,,677.5355881000287,677.5380333000212,677.5380333000212,677.5380333000212,680.5328769999905,j,0.9051937999902293,0.11200459999963641,680.5329189000186,680.5329322000034,None,,,,,,,,,,,,,00066,001,2026-01-20_12h00.59.817,MST_task,2024.2.0,60.47375134981442,2026-01-20 12h01.08.762194 +0530,
,Scenes\018a.jpg,145,0,146,,,,,,,f,1.2564098999719135,0.15309720003278926,None,,,,146,0,145,680.549416200025,,,,,,,,,,,,,,,,,,,,,,,,,,,,,,680.5330332000158,680.549416200025,681.0498674000264,681.03312680003,,,,,,,,,,,,,,,,,,,,,,,,,,681.0473004999803,681.0498674000264,681.0498674000264,681.0498674000264,684.0333653999842,f,1.2564098999719135,0.15309720003278926,684.0334099999745,684.0334218000062,None,684.0493484999752,684.0493484999752,684.0493484999752,,,,,,,,,,00066,001,2026-01-20_12h00.59.817,MST_task,2024.2.0,60.47375134981442,2026-01-20 12h01.08.762194 +0530,
,Scenes\185a.jpg,146,0,147,,,,,,,j,0.87672639999073,0.12796310003614053,None,,,,147,0,146,684.0493484999752,,,,,,,,,,,,,,,,,,,,,,,,,,,,,,684.0334930000245,684.0493484999752,684.5499121000175,684.532999099989,,,,,,,,,,,,,,,,,,,,,,,,,,684.546623400005,684.5499121000175,684.5499121000175,684.5499121000175,687.5331772000063,j,0.87672639999073,0.12796310003614053,687.5332189999754,687.5332307000062,None,687.5494218000094,687.5494218000094,687.5494218000094,,,,,,,,,,00066,001,2026-01-20_12h00.59.817,MST_task,2024.2.0,60.47375134981442,2026-01-20 12h01.08.762194 +0530,
,Objects\003a.jpg,147,0,148,,,,,,,j,1.641061800008174,0.12024299998302013,None,,,,148,0,147,687.5494218000094,,,,,,,,,,,,,,,,,,,,,,,,,,,,,,687.5332962999819,687.5494218000094,688.0500219999813,688.0330324000097,,,,,,,,,,,,,,,,,,,,,,,,,,688.0458738000016,688.0500219999813,688.0500219999813,688.0500219999813,691.0334119999898,j,1.641061800008174,0.12024299998302013,691.0355101000168,691.03552819998,None,691.0494432999985,691.0494432999985,691.0494432999985,,,,,,,,,,00066,001,2026-01-20_12h00.59.817,MST_task,2024.2.0,60.47375134981442,2026-01-20 12h01.08.762194 +0530,
,Objects\040a.jpg,148,0,149,,,,,,,f,1.0132458000443876,0.11911390000022948,None,,,,149,0,148,691.0494432999985,,,,,,,,,,,,,,,,,,,,,,,,,,,,,,691.0355972999823,691.0494432999985,691.5498006999842,691.532966000028,,,,,,,,,,,,,,,,,,,,,,,,,,691.5433131000027,691.5498006999842,691.5498006999842,691.5498006999842,694.5333810999873,f,1.0132458000443876,0.11911390000022948,694.5334221000085,694.5334338999819,None,694.5493876999826,694.5493876999826,694.5493876999826,,,,,,,,,,00066,001,2026-01-20_12h00.59.817,MST_task,2024.2.0,60.47375134981442,2026-01-20 12h01.08.762194 +0530,
,Objects\077a.jpg,149,0,150,,,,,,,j,1.0406018000212498,0.11998229997698218,None,,,,150,0,149,694.5493876999826,,,,,,,,,,,,,,,,,,,,,,,,,,,,,,694.533501500031,694.5493876999826,695.0496746000135,695.0330001999973,,,,,,,,,,,,,,,,,,,,,,,,,,695.0420285,695.0496746000135,695.0496746000135,695.0496746000135,698.0333495999803,j,1.0406018000212498,0.11998229997698218,698.0333901999984,698.033401600027,None,698.049382199999,698.049382199999,698.049382199999,,,,,,,,,,00066,001,2026-01-20_12h00.59.817,MST_task,2024.2.0,60.47375134981442,2026-01-20 12h01.08.762194 +0530,
,Objects\065a.jpg,150,0,151,,,,,,,j,1.189699999988079,0.11202460003551096,None,,,,151,0,150,698.049382199999,,,,,,,,,,,,,,,,,,,,,,,,,,,,,,698.0334962999914,698.049382199999,698.5496467999765,698.5329031000147,,,,,,,,,,,,,,,,,,,,,,,,,,698.5418455000035,698.5496467999765,698.5496467999765,698.5496467999765,701.5334076000145,j,1.189699999988079,0.11202460003551096,701.5334520000033,701.533463699976,None,701.549372599984,701.549372599984,701.549372599984,,,,,,,,,,00066,001,2026-01-20_12h00.59.817,MST_task,2024.2.0,60.47375134981442,2026-01-20 12h01.08.762194 +0530,
,Objects\057a.jpg,151,0,152,,,,,,,f,1.5537171000032686,0.12689700000919402,None,,,,152,0,151,701.549372599984,,,,,,,,,,,,,,,,,,,,,,,,,,,,,,701.5335851000273,701.549372599984,702.0497215000214,702.033155800018,,,,,,,,,,,,,,,,,,,,,,,,,,702.0427940000081,702.0497215000214,702.0497215000214,702.0497215000214,705.0332941000233,f,1.5537171000032686,0.12689700000919402,705.0333360999939,705.0333476000233,None,705.0494909000117,705.0494909000117,705.0494909000117,,,,,,,,,,00066,001,2026-01-20_12h00.59.817,MST_task,2024.2.0,60.47375134981442,2026-01-20 12h01.08.762194 +0530,
,Objects\170a.jpg,152,0,153,,,,,,,f,1.477171599981375,0.13586360000772402,None,,,,153,0,152,705.0494909000117,,,,,,,,,,,,,,,,,,,,,,,,,,,,,,705.0334131999989,705.0494909000117,705.5496619999758,705.5329864000087,,,,,,,,,,,,,,,,,,,,,,,,,,705.5412072999752,705.5496619999758,705.5496619999758,705.5496619999758,708.5331651000306,f,1.477171599981375,0.13586360000772402,708.5332147000008,708.5332261000294,None,708.5494193999912,708.5494193999912,708.5494193999912,,,,,,,,,,00066,001,2026-01-20_12h00.59.817,MST_task,2024.2.0,60.47375134981442,2026-01-20 12h01.08.762194 +0530,
,Objects\130a.jpg,153,0,154,,,,,,,f,1.529387200018391,0.11199880001368001,None,,,,154,0,153,708.5494193999912,,,,,,,,,,,,,,,,,,,,,,,,,,,,,,708.5332916000043,708.5494193999912,709.0495062000118,709.0329155999934,,,,,,,,,,,,,,,,,,,,,,,,,,709.0422502000001,709.0495062000118,709.0495062000118,709.0495062000118,712.0332927000127,f,1.529387200018391,0.11199880001368001,712.0333423999837,712.0333542000153,None,712.0493798999814,712.0493798999814,712.0493798999814,,,,,,,,,,00066,001,2026-01-20_12h00.59.817,MST_task,2024.2.0,60.47375134981442,2026-01-20 12h01.08.762194 +0530,
,Scenes\102a.jpg,154,0,155,,,,,,,f,1.1102630000095814,0.1363413999788463,None,,,,155,0,154,712.0493798999814,,,,,,,,,,,,,,,,,,,,,,,,,,,,,,712.03353960003,712.0493798999814,712.556293600006,712.5328815000248,,,,,,,,,,,,,,,,,,,,,,,,,,712.5538953000214,712.556293600006,712.556293600006,712.556293600006,715.549702999997,f,1.1102630000095814,0.1363413999788463,715.5515620000078,715.5515815999825,None,,,,,,,,,,,,,00066,001,2026-01-20_12h00.59.817,MST_task,2024.2.0,60.47375134981442,2026-01-20 12h01.08.762194 +0530,
,Scenes\127a.jpg,155,0,156,,,,,,,j,0.8636407999438234,0.13551060005556792,None,,,,156,0,155,715.5661511999788,,,,,,,,,,,,,,,,,,,,,,,,,,,,,,715.5516829999979,715.5661511999788,716.0673076999956,716.0496770999744,,,,,,,,,,,,,,,,,,,,,,,,,,716.0649416000233,716.0673076999956,716.0673076999956,716.0673076999956,719.0663439999917,j,0.8636407999438234,0.13551060005556792,719.0663926000125,719.066404799989,None,,,,,,,,,,,,,00066,001,2026-01-20_12h00.59.817,MST_task,2024.2.0,60.47375134981442,2026-01-20 12h01.08.762194 +0530,
,Scenes\116a.jpg,156,0,157,,,,,,,j,0.8354787999996915,0.12810720002744347,None,,,,157,0,156,719.0826726999949,,,,,,,,,,,,,,,,,,,,,,,,,,,,,,719.0665034999838,719.0826726999949,719.5832987999893,719.5663434999879,,,,,,,,,,,,,,,,,,,,,,,,,,719.5799961999874,719.5832987999893,719.5832987999893,719.5832987999893,722.566692900029,j,0.8354787999996915,0.12810720002744347,722.5667412999901,722.5667539000278,None,722.5825586999999,722.5825586999999,722.5825586999999,,,,,,,,,,00066,001,2026-01-20_12h00.59.817,MST_task,2024.2.0,60.47375134981442,2026-01-20 12h01.08.762194 +0530,
,Scenes\109a.jpg,157,0,158,,,,,,,j,1.8800773999537341,0.12626930000260472,None,,,,158,0,157,722.5825586999999,,,,,,,,,,,,,,,,,,,,,,,,,,,,,,722.5668659000075,722.5825586999999,723.0839415999944,723.0663556000218,,,,,,,,,,,,,,,,,,,,,,,,,,723.0816475999891,723.0839415999944,723.0839415999944,723.0839415999944,726.0830499000149,j,1.8800773999537341,0.12626930000260472,726.0830910999794,726.0831031000125,None,,,,,,,,,,,,,00066,001,2026-01-20_12h00.59.817,MST_task,2024.2.0,60.47375134981442,2026-01-20 12h01.08.762194 +0530,
,Scenes\063a.jpg,158,0,159,,,,,,,j,0.7766543000470847,0.14398749999236315,None,,,,159,0,158,726.0994302000036,,,,,,,,,,,,,,,,,,,,,,,,,,,,,,726.0831711000064,726.0994302000036,726.6017137999879,726.5830166999949,,,,,,,,,,,,,,,,,,,,,,,,,,726.5993772000074,726.6017137999879,726.6017137999879,726.6017137999879,729.5995865000295,j,0.7766543000470847,0.14398749999236315,729.5996286000009,729.5996403999743,None,,,,,,,,,,,,,00066,001,2026-01-20_12h00.59.817,MST_task,2024.2.0,60.47375134981442,2026-01-20 12h01.08.762194 +0530,
,Scenes\001a.jpg,159,0,160,,,,,,,f,0.8807644000044093,0.11299789999611676,None,,,,160,0,159,729.6159172999905,,,,,,,,,,,,,,,,,,,,,,,,,,,,,,729.599779799988,729.6159172999905,730.1215815999894,730.0995383000118,,,,,,,,,,,,,,,,,,,,,,,,,,730.1192022000323,730.1215815999894,730.1215815999894,730.1215815999894,733.116325400013,f,0.8807644000044093,0.11299789999611676,733.1163709000102,733.1163835999905,None,,,,,,,,,,,,,00066,001,2026-01-20_12h00.59.817,MST_task,2024.2.0,60.47375134981442,2026-01-20 12h01.08.762194 +0530,
,Scenes\107a.jpg,160,0,161,,,,,,,j,0.9778717999579385,0.10414940002374351,None,,,,161,0,160,733.1324888999807,,,,,,,,,,,,,,,,,,,,,,,,,,,,,,733.1165041999775,733.1324888999807,733.6333179000067,733.616456400021,,,,,,,,,,,,,,,,,,,,,,,,,,733.6307818000205,733.6333179000067,733.6333179000067,733.6333179000067,736.6164565000217,j,0.9778717999579385,0.10414940002374351,736.6164965999778,736.6165072000003,None,736.6335403000121,736.6335403000121,736.6335403000121,,,,,,,,,,00066,001,2026-01-20_12h00.59.817,MST_task,2024.2.0,60.47375134981442,2026-01-20 12h01.08.762194 +0530,
,Objects\155a.jpg,161,0,162,,,,,,,f,0.821743400010746,0.13624630001140758,None,,,,162,0,161,736.6335403000121,,,,,,,,,,,,,,,,,,,,,,,,,,,,,,736.6165711000212,736.6335403000121,737.1331148000318,737.1162767999922,,,,,,,,,,,,,,,,,,,,,,,,,,737.1288368999958,737.1331148000318,737.1331148000318,737.1331148000318,740.1165074000019,f,0.821743400010746,0.13624630001140758,740.1186823999742,740.1186999999918,None,740.1325773000135,740.1325773000135,740.1325773000135,,,,,,,,,,00066,001,2026-01-20_12h00.59.817,MST_task,2024.2.0,60.47375134981442,2026-01-20 12h01.08.762194 +0530,
