thisN,thisTrialN,thisRepN,key_resp_3.keys,key_resp_3.rt,key_resp_3.duration,trials.thisRepN,trials.thisTrialN,trials.thisN,thisRow.t,notes,intro_page.started,text.started,key_resp.started,intro_page.stopped,key_resp.keys,key_resp.rt,key_resp.duration,instructions.started,text_2.started,key_resp_2.started,instructions.stopped,key_resp_2.keys,key_resp_2.rt,key_resp_2.duration,demo1.started,image_1.started,image_2.started,text_7.started,key_resp_6.started,text_9.started,demo1.stopped,key_resp_6.keys,key_resp_6.rt,key_resp_6.duration,demo2.started,image_5.started,image_6.started,text_11.started,text_12.started,key_resp_8.started,demo2.stopped,key_resp_8.keys,key_resp_8.rt,key_resp_8.duration,demo_conclusion.started,text_13.started,key_resp_9.started,demo_conclusion.stopped,key_resp_9.keys,key_resp_9.rt,key_resp_9.duration,start_test.started,text_6.started,key_resp_5.started,start_test.stopped,key_resp_5.keys,key_resp_5.rt,key_resp_5.duration,ISI.started,text_4.started,ISI.stopped,routine_1.started,image.started,text_3.started,key_resp_3.started,routine_1.stopped,image_path,position_of_stimuli,trials.key_resp_3.keys,trials.key_resp_3.rt,trials.key_resp_3.duration,End_page.started,text_5.started,key_resp_4.started,End_page.stopped,key_resp_4.keys,key_resp_4.rt,key_resp_4.duration,participant,session,date,expName,psychopyVersion,frameRate,expStart,
,,,,,,,,,,,0.014919899986125529,0.031188099994324148,0.031188099994324148,2.828306999988854,space,2.7865881000179797,None,,,,,,,,,,,,,,,,,,,,,,,,,,,,,,,,,,,,,,,,,,,,,,,,,,,,,,,,,,,,,,00065,001,2026-01-20_11h58.49.978,MST_test,2024.2.0,59.81626835772207,2026-01-20 11h59.03.322922 +0530,
,,,,,,,,,,,,,,,,,,2.828341400017962,2.8592805999796838,2.8592805999796838,23.599552299943753,space,20.73489080008585,None,,,,,,,,,,,,,,,,,,,,,,,,,,,,,,,,,,,,,,,,,,,,,,,,,,,,,,,00065,001,2026-01-20_11h58.49.978,MST_test,2024.2.0,59.81626835772207,2026-01-20 11h59.03.322922 +0530,
,,,,,,,,,,,,,,,,,,,,,,,,,23.59958109993022,23.615501799969934,23.615501799969934,23.615501799969934,23.615501799969934,23.615501799969934,29.80432330002077,space,6.179599099908955,None,,,,,,,,,,,,,,,,,,,,,,,,,,,,,,,,,,,,,,,,,,,,,00065,001,2026-01-20_11h58.49.978,MST_test,2024.2.0,59.81626835772207,2026-01-20 11h59.03.322922 +0530,
,,,,,,,,,,,,,,,,,,,,,,,,,,,,,,,,,,,29.804354900028557,29.820339399972,29.820339399972,29.820339399972,29.820339399972,29.820339399972,34.604431099956855,space,4.773153099929914,None,,,,,,,,,,,,,,,,,,,,,,,,,,,,,,,,,,,00065,001,2026-01-20_11h58.49.978,MST_test,2024.2.0,59.81626835772207,2026-01-20 11h59.03.322922 +0530,
,,,,,,,,,,,,,,,,,,,,,,,,,,,,,,,,,,,,,,,,,,,,,34.60447210003622,34.620946699986234,34.620946699986234,48.23578919994179,space,13.612764699966647,None,,,,,,,,,,,,,,,,,,,,,,,,,,,,00065,001,2026-01-20_11h58.49.978,MST_test,2024.2.0,59.81626835772207,2026-01-20 11h59.03.322922 +0530,
,,,,,,,,,,,,,,,,,,,,,,,,,,,,,,,,,,,,,,,,,,,,,,,,,,,,48.23581949993968,48.25189339998178,48.25189339998178,95.40098159993067,space,47.1334332000697,None,,,,,,,,,,,,,,,,,,,,,00065,001,2026-01-20_11h58.49.978,MST_test,2024.2.0,59.81626835772207,2026-01-20 11h59.03.322922 +0530,
0,0,1,s,8.353627399890684,None,1,0,0,95.41707979992498,,,,,,,,,,,,,,,,,,,,,,,,,,,,,,,,,,,,,,,,,,,,,,,,,,95.404673299985,95.41707979992498,95.9022483000299,95.92476239998359,95.9365259000333,95.9365259000333,95.9365259000333,104.29883189999964,Scenes\119a.jpg,post,s,8.353627399890684,None,,,,,,,,00065,001,2026-01-20_11h58.49.978,MST_test,2024.2.0,59.81626835772207,2026-01-20 11h59.03.322922 +0530,
1,0,2,o,3.3266617000335827,None,2,0,1,104.31484399992041,,,,,,,,,,,,,,,,,,,,,,,,,,,,,,,,,,,,,,,,,,,,,,,,,,104.29892640002072,104.31484399992041,104.80003419995774,104.81680899998173,104.83456899994053,104.83456899994053,104.83456899994053,108.16335789998993,Objects\036a.jpg,pre,o,3.3266617000335827,None,,,,,,,,00065,001,2026-01-20_11h58.49.978,MST_test,2024.2.0,59.81626835772207,2026-01-20 11h59.03.322922 +0530,
2,0,3,n,4.423631999990903,None,3,0,2,108.17888579994906,,,,,,,,,,,,,,,,,,,,,,,,,,,,,,,,,,,,,,,,,,,,,,,,,,108.1634585999418,108.17888579994906,108.6643175999634,108.6847716999473,108.6981990999775,108.6981990999775,108.6981990999775,113.1296836999245,Foils\scenes20.jpg,none,n,4.423631999990903,None,,,,,,,,00065,001,2026-01-20_11h58.49.978,MST_test,2024.2.0,59.81626835772207,2026-01-20 11h59.03.322922 +0530,
3,0,4,s,2.881347300019115,None,4,0,3,113.14590190001763,,,,,,,,,,,,,,,,,,,,,,,,,,,,,,,,,,,,,,,,,,,,,,,,,,113.12977729993872,113.14590190001763,113.6311176000163,113.65404289995786,113.66449539992027,113.66449539992027,113.66449539992027,116.55818839999847,Objects\148b.jpg,mid,s,2.881347300019115,None,,,,,,,,00065,001,2026-01-20_11h58.49.978,MST_test,2024.2.0,59.81626835772207,2026-01-20 11h59.03.322922 +0530,
4,0,5,s,4.676447300007567,None,5,0,4,116.57583169999998,,,,,,,,,,,,,,,,,,,,,,,,,,,,,,,,,,,,,,,,,,,,,,,,,,116.5582851000363,116.57583169999998,117.05934839998372,117.082234099973,117.09313970000949,117.09313970000949,117.09313970000949,121.77700809994712,Foils\066a.jpg,none,s,4.676447300007567,None,,,,,,,,00065,001,2026-01-20_11h58.49.978,MST_test,2024.2.0,59.81626835772207,2026-01-20 11h59.03.322922 +0530,
5,0,6,n,2.810117300017737,None,6,0,5,121.79269609996118,,,,,,,,,,,,,,,,,,,,,,,,,,,,,,,,,,,,,,,,,,,,,,,,,,121.77710199996363,121.79269609996118,122.27793370001018,122.30186310003046,122.31135550001636,122.31135550001636,122.31135550001636,125.13833310001064,Foils\081a.jpg,none,n,2.810117300017737,None,,,,,,,,00065,001,2026-01-20_11h58.49.978,MST_test,2024.2.0,59.81626835772207,2026-01-20 11h59.03.322922 +0530,
6,0,7,o,3.8807396999327466,None,7,0,6,125.15447239996865,,,,,,,,,,,,,,,,,,,,,,,,,,,,,,,,,,,,,,,,,,,,,,,,,,125.13842229999136,125.15447239996865,125.6399589999346,125.66420440003276,125.67306599998847,125.67306599998847,125.67306599998847,129.57061269995756,Scenes\097b.jpg,pre,o,3.8807396999327466,None,,,,,,,,00065,001,2026-01-20_11h58.49.978,MST_test,2024.2.0,59.81626835772207,2026-01-20 11h59.03.322922 +0530,
7,0,8,o,1.9116306999931112,None,8,0,7,129.58664649992716,,,,,,,,,,,,,,,,,,,,,,,,,,,,,,,,,,,,,,,,,,,,,,,,,,129.57072910002898,129.58664649992716,130.07186349993572,130.08598829992115,130.10548939998262,130.10548939998262,130.10548939998262,132.02940460003447,Scenes\180a.jpg,pre,o,1.9116306999931112,None,,,,,,,,00065,001,2026-01-20_11h58.49.978,MST_test,2024.2.0,59.81626835772207,2026-01-20 11h59.03.322922 +0530,
8,0,9,s,1.7645640999544412,None,9,0,8,132.0452778999461,,,,,,,,,,,,,,,,,,,,,,,,,,,,,,,,,,,,,,,,,,,,,,,,,,132.0294961000327,132.0452778999461,132.53046649997123,132.55471659998875,132.58146399992984,132.58146399992984,132.58146399992984,134.3542174999602,Scenes\157b.jpg,mid,s,1.7645640999544412,None,,,,,,,,00065,001,2026-01-20_11h58.49.978,MST_test,2024.2.0,59.81626835772207,2026-01-20 11h59.03.322922 +0530,
9,0,10,o,1.9357800000580028,None,10,0,9,134.3708057999611,,,,,,,,,,,,,,,,,,,,,,,,,,,,,,,,,,,,,,,,,,,,,,,,,,134.35432949999813,134.3708057999611,134.85519519995432,134.86966279998887,134.88936429994646,134.88936429994646,134.88936429994646,136.82955689996015,Scenes\109a.jpg,post,o,1.9357800000580028,None,,,,,,,,00065,001,2026-01-20_11h58.49.978,MST_test,2024.2.0,59.81626835772207,2026-01-20 11h59.03.322922 +0530,
10,0,11,o,2.0035416999598965,None,11,0,10,136.84552239999175,,,,,,,,,,,,,,,,,,,,,,,,,,,,,,,,,,,,,,,,,,,,,,,,,,136.82964929996524,136.84552239999175,137.3306041000178,137.35338430001866,137.3815431999974,137.3815431999974,137.3815431999974,139.3885556999594,Scenes\026a.jpg,pre,o,2.0035416999598965,None,,,,,,,,00065,001,2026-01-20_11h58.49.978,MST_test,2024.2.0,59.81626835772207,2026-01-20 11h59.03.322922 +0530,
11,0,12,s,2.062238300102763,None,12,0,11,139.40449260000605,,,,,,,,,,,,,,,,,,,,,,,,,,,,,,,,,,,,,,,,,,,,,,,,,,139.3886714000255,139.40449260000605,139.8897199999774,139.90648759994656,139.92363889992703,139.92363889992703,139.92363889992703,141.9974861999508,Objects\044a.jpg,post,s,2.062238300102763,None,,,,,,,,00065,001,2026-01-20_11h58.49.978,MST_test,2024.2.0,59.81626835772207,2026-01-20 11h59.03.322922 +0530,
12,0,13,n,4.5233931000111625,None,13,0,12,142.01361150003504,,,,,,,,,,,,,,,,,,,,,,,,,,,,,,,,,,,,,,,,,,,,,,,,,,141.99758339999244,142.01361150003504,142.498585299938,142.52960569993593,142.54988019994926,142.54988019994926,142.54988019994926,147.08193869993556,Foils\scenes22.jpg,none,n,4.5233931000111625,None,,,,,,,,00065,001,2026-01-20_11h58.49.978,MST_test,2024.2.0,59.81626835772207,2026-01-20 11h59.03.322922 +0530,
13,0,14,s,2.0937073999084532,None,14,0,13,147.0986815999495,,,,,,,,,,,,,,,,,,,,,,,,,,,,,,,,,,,,,,,,,,,,,,,,,,147.08203859999776,147.0986815999495,147.58306219999213,147.65990049997345,147.68462990003172,147.68462990003172,147.68462990003172,149.79178259999026,Foils\scenes15.jpg,none,s,2.0937073999084532,None,,,,,,,,00065,001,2026-01-20_11h58.49.978,MST_test,2024.2.0,59.81626835772207,2026-01-20 11h59.03.322922 +0530,
14,0,15,o,2.0974647999973968,None,15,0,14,149.80746379995253,,,,,,,,,,,,,,,,,,,,,,,,,,,,,,,,,,,,,,,,,,,,,,,,,,149.79188289993908,149.80746379995253,150.29282380000222,150.322868200019,150.3435949999839,150.3435949999839,150.3435949999839,152.45074969995767,Scenes\179a.jpg,mid,o,2.0974647999973968,None,,,,,,,,00065,001,2026-01-20_11h58.49.978,MST_test,2024.2.0,59.81626835772207,2026-01-20 11h59.03.322922 +0530,
15,0,16,o,1.278021499980241,None,16,0,15,152.46679289999884,,,,,,,,,,,,,,,,,,,,,,,,,,,,,,,,,,,,,,,,,,,,,,,,,,152.45084659999702,152.46679289999884,152.95208590000402,152.98353069997393,153.0034192999592,153.0034192999592,153.0034192999592,154.29067989997566,Scenes\104a.jpg,post,o,1.278021499980241,None,,,,,,,,00065,001,2026-01-20_11h58.49.978,MST_test,2024.2.0,59.81626835772207,2026-01-20 11h59.03.322922 +0530,
16,0,17,s,3.02378679998219,None,17,0,16,154.30668519996107,,,,,,,,,,,,,,,,,,,,,,,,,,,,,,,,,,,,,,,,,,,,,,,,,,154.29077279998455,154.30668519996107,154.79165159992408,154.81476199999452,154.82600799994543,154.82600799994543,154.82600799994543,157.85319880000316,Objects\091b.jpg,mid,s,3.02378679998219,None,,,,,,,,00065,001,2026-01-20_11h58.49.978,MST_test,2024.2.0,59.81626835772207,2026-01-20 11h59.03.322922 +0530,
17,0,18,n,2.93358840001747,None,18,0,17,157.86903509998228,,,,,,,,,,,,,,,,,,,,,,,,,,,,,,,,,,,,,,,,,,,,,,,,,,157.853293400025,157.86903509998228,158.35423259995878,158.37332429992966,158.38817960000597,158.38817960000597,158.38817960000597,161.33228520001285,Foils\scenes7.jpg,none,n,2.93358840001747,None,,,,,,,,00065,001,2026-01-20_11h58.49.978,MST_test,2024.2.0,59.81626835772207,2026-01-20 11h59.03.322922 +0530,
18,0,19,s,1.5346508999355137,None,19,0,18,161.34800999995787,,,,,,,,,,,,,,,,,,,,,,,,,,,,,,,,,,,,,,,,,,,,,,,,,,161.33239120000508,161.34800999995787,161.83298079995438,161.85631569998804,161.86675689998083,161.86675689998083,161.86675689998083,163.4060292999493,Objects\173b.jpg,pre,s,1.5346508999355137,None,,,,,,,,00065,001,2026-01-20_11h58.49.978,MST_test,2024.2.0,59.81626835772207,2026-01-20 11h59.03.322922 +0530,
19,0,20,o,2.8690113000338897,None,20,0,19,163.42205129994545,,,,,,,,,,,,,,,,,,,,,,,,,,,,,,,,,,,,,,,,,,,,,,,,,,163.4061270999955,163.42205129994545,163.9072814999381,163.9318353999406,163.94052429997828,163.94052429997828,163.94052429997828,166.81759029999375,Objects\161b.jpg,mid,o,2.8690113000338897,None,,,,,,,,00065,001,2026-01-20_11h58.49.978,MST_test,2024.2.0,59.81626835772207,2026-01-20 11h59.03.322922 +0530,
20,0,21,n,6.744867200031877,None,21,0,20,166.8337589999428,,,,,,,,,,,,,,,,,,,,,,,,,,,,,,,,,,,,,,,,,,,,,,,,,,166.81768550002016,166.8337589999428,167.32010749995243,167.3426299999701,167.3522335999878,167.3522335999878,167.3522335999878,174.1098953000037,Foils\033a.jpg,none,n,6.744867200031877,None,,,,,,,,00065,001,2026-01-20_11h58.49.978,MST_test,2024.2.0,59.81626835772207,2026-01-20 11h59.03.322922 +0530,
21,0,22,s,4.980616599903442,None,22,0,21,174.12598739995155,,,,,,,,,,,,,,,,,,,,,,,,,,,,,,,,,,,,,,,,,,,,,,,,,,174.1099882000126,174.12598739995155,174.61171590001322,174.63370240002405,174.6444508000277,174.6444508000277,174.6444508000277,179.62877469998784,Foils\049a.jpg,none,s,4.980616599903442,None,,,,,,,,00065,001,2026-01-20_11h58.49.978,MST_test,2024.2.0,59.81626835772207,2026-01-20 11h59.03.322922 +0530,
22,0,23,s,3.237258200068027,None,23,0,22,179.64528499997687,,,,,,,,,,,,,,,,,,,,,,,,,,,,,,,,,,,,,,,,,,,,,,,,,,179.62886990001425,179.64528499997687,180.1301928999601,180.1534102000296,180.1638383999234,180.1638383999234,180.1638383999234,183.40884259995073,Scenes\008b.jpg,pre,s,3.237258200068027,None,,,,,,,,00065,001,2026-01-20_11h58.49.978,MST_test,2024.2.0,59.81626835772207,2026-01-20 11h59.03.322922 +0530,
23,0,24,s,1.9380476000951603,None,24,0,23,183.4249108999502,,,,,,,,,,,,,,,,,,,,,,,,,,,,,,,,,,,,,,,,,,,,,,,,,,183.40893569996115,183.4249108999502,183.91012729995418,183.9328459999524,183.943467300036,183.943467300036,183.943467300036,185.88420820003375,Objects\021b.jpg,post,s,1.9380476000951603,None,,,,,,,,00065,001,2026-01-20_11h58.49.978,MST_test,2024.2.0,59.81626835772207,2026-01-20 11h59.03.322922 +0530,
24,0,25,o,2.764846900012344,None,25,0,24,185.90035679994617,,,,,,,,,,,,,,,,,,,,,,,,,,,,,,,,,,,,,,,,,,,,,,,,,,185.88430549995974,185.90035679994617,186.38562479999382,186.4172051999485,186.43626899993978,186.43626899993978,186.43626899993978,189.2125097999815,Scenes\079b.jpg,post,o,2.764846900012344,None,,,,,,,,00065,001,2026-01-20_11h58.49.978,MST_test,2024.2.0,59.81626835772207,2026-01-20 11h59.03.322922 +0530,
25,0,26,o,1.40465799998492,None,26,0,25,189.22873560001608,,,,,,,,,,,,,,,,,,,,,,,,,,,,,,,,,,,,,,,,,,,,,,,,,,189.2126134999562,189.22873560001608,189.71368769998662,189.74448069999926,189.76460500003304,189.76460500003304,189.76460500003304,191.1863017999567,Scenes\093a.jpg,pre,o,1.40465799998492,None,,,,,,,,00065,001,2026-01-20_11h58.49.978,MST_test,2024.2.0,59.81626835772207,2026-01-20 11h59.03.322922 +0530,
26,0,27,o,3.2154816000256687,None,27,0,26,191.20222760003526,,,,,,,,,,,,,,,,,,,,,,,,,,,,,,,,,,,,,,,,,,,,,,,,,,191.18639449996408,191.20222760003526,191.68734359997325,191.7155255000107,191.7380232999567,191.7380232999567,191.7380232999567,194.96594559994992,Scenes\055a.jpg,mid,o,3.2154816000256687,None,,,,,,,,00065,001,2026-01-20_11h58.49.978,MST_test,2024.2.0,59.81626835772207,2026-01-20 11h59.03.322922 +0530,
27,0,28,o,3.2441756000043824,None,28,0,27,194.98205510003027,,,,,,,,,,,,,,,,,,,,,,,,,,,,,,,,,,,,,,,,,,,,,,,,,,194.96604490000755,194.98205510003027,195.46724149992224,195.50304229999892,195.51721249998081,195.51721249998081,195.51721249998081,198.7629334999947,Scenes\149b.jpg,post,o,3.2441756000043824,None,,,,,,,,00065,001,2026-01-20_11h58.49.978,MST_test,2024.2.0,59.81626835772207,2026-01-20 11h59.03.322922 +0530,
28,0,29,s,1.3506571999751031,None,29,0,28,198.7793129000347,,,,,,,,,,,,,,,,,,,,,,,,,,,,,,,,,,,,,,,,,,,,,,,,,,198.76302940002643,198.7793129000347,199.26428779994603,199.28119839995634,199.2990976999281,199.2990976999281,199.2990976999281,200.6524707999779,Foils\scenes2.jpg,none,s,1.3506571999751031,None,,,,,,,,00065,001,2026-01-20_11h58.49.978,MST_test,2024.2.0,59.81626835772207,2026-01-20 11h59.03.322922 +0530,
29,0,30,o,1.9420259000035003,None,30,0,29,200.66862489993218,,,,,,,,,,,,,,,,,,,,,,,,,,,,,,,,,,,,,,,,,,,,,,,,,,200.65256740001496,200.66862489993218,201.15383049997035,201.17065610003192,201.18785640003625,201.18785640003625,201.18785640003625,203.1446895999834,Objects\185a.jpg,mid,o,1.9420259000035003,None,,,,,,,,00065,001,2026-01-20_11h58.49.978,MST_test,2024.2.0,59.81626835772207,2026-01-20 11h59.03.322922 +0530,
30,0,31,o,2.2096351999789476,None,31,0,30,203.16069970000535,,,,,,,,,,,,,,,,,,,,,,,,,,,,,,,,,,,,,,,,,,,,,,,,,,203.1447866000235,203.16069970000535,203.6459775000112,203.6740893999813,203.6958878999576,203.6958878999576,203.6958878999576,205.921112800017,Scenes\041a.jpg,mid,o,2.2096351999789476,None,,,,,,,,00065,001,2026-01-20_11h58.49.978,MST_test,2024.2.0,59.81626835772207,2026-01-20 11h59.03.322922 +0530,
31,0,32,o,1.985199399990961,None,32,0,31,205.9371950000059,,,,,,,,,,,,,,,,,,,,,,,,,,,,,,,,,,,,,,,,,,,,,,,,,,205.92121009994298,205.9371950000059,206.42222189996392,206.457130099996,206.47225049999543,206.47225049999543,206.47225049999543,208.46414289996028,Scenes\143b.jpg,mid,o,1.985199399990961,None,,,,,,,,00065,001,2026-01-20_11h58.49.978,MST_test,2024.2.0,59.81626835772207,2026-01-20 11h59.03.322922 +0530,
32,0,33,s,2.06763740000315,None,33,0,32,208.4793214999372,,,,,,,,,,,,,,,,,,,,,,,,,,,,,,,,,,,,,,,,,,,,,,,,,,208.464234199957,208.4793214999372,208.96483800001442,208.99711060000118,209.01460170000792,209.01460170000792,209.01460170000792,211.08947180001996,Scenes\084a.jpg,post,s,2.06763740000315,None,,,,,,,,00065,001,2026-01-20_11h58.49.978,MST_test,2024.2.0,59.81626835772207,2026-01-20 11h59.03.322922 +0530,
33,0,34,s,2.115157700027339,None,34,0,33,211.10516309994273,,,,,,,,,,,,,,,,,,,,,,,,,,,,,,,,,,,,,,,,,,,,,,,,,,211.08956679992843,211.10516309994273,211.59038429998327,211.611441200017,211.62372709996998,211.62372709996998,211.62372709996998,213.74833610001951,Scenes\039a.jpg,post,s,2.115157700027339,None,,,,,,,,00065,001,2026-01-20_11h58.49.978,MST_test,2024.2.0,59.81626835772207,2026-01-20 11h59.03.322922 +0530,
34,0,35,s,2.3660823999671265,None,35,0,34,213.76461900002323,,,,,,,,,,,,,,,,,,,,,,,,,,,,,,,,,,,,,,,,,,,,,,,,,,213.74843179993331,213.76461900002323,214.24972349999007,214.2727932999842,214.28305169998202,214.28305169998202,214.28305169998202,216.65918690001126,Foils\086a.jpg,none,s,2.3660823999671265,None,,,,,,,,00065,001,2026-01-20_11h58.49.978,MST_test,2024.2.0,59.81626835772207,2026-01-20 11h59.03.322922 +0530,
35,0,36,n,2.903244699933566,None,36,0,35,216.6757145000156,,,,,,,,,,,,,,,,,,,,,,,,,,,,,,,,,,,,,,,,,,,,,,,,,,216.65928239992354,216.6757145000156,217.1604208999779,217.18710500001907,217.21038609999232,217.21038609999232,217.21038609999232,220.12072439992335,Scenes\155a.jpg,mid,n,2.903244699933566,None,,,,,,,,00065,001,2026-01-20_11h58.49.978,MST_test,2024.2.0,59.81626835772207,2026-01-20 11h59.03.322922 +0530,
36,0,37,n,4.481950599933043,None,37,0,36,220.1370402999455,,,,,,,,,,,,,,,,,,,,,,,,,,,,,,,,,,,,,,,,,,,,,,,,,,220.1208176999353,220.1370402999455,220.621916999924,220.6398420999758,220.65642290003598,220.65642290003598,220.65642290003598,225.15503249992616,Scenes\061a.jpg,mid,n,4.481950599933043,None,,,,,,,,00065,001,2026-01-20_11h58.49.978,MST_test,2024.2.0,59.81626835772207,2026-01-20 11h59.03.322922 +0530,
37,0,38,s,2.464015999925323,None,38,0,37,225.1711070999736,,,,,,,,,,,,,,,,,,,,,,,,,,,,,,,,,,,,,,,,,,,,,,,,,,225.15512519993354,225.1711070999736,225.65633669996168,225.6873700999422,225.706276300014,225.706276300014,225.706276300014,228.1830843000207,Scenes\007b.jpg,pre,s,2.464015999925323,None,,,,,,,,00065,001,2026-01-20_11h58.49.978,MST_test,2024.2.0,59.81626835772207,2026-01-20 11h59.03.322922 +0530,
38,0,39,s,1.6213746999856085,None,39,0,38,228.1986646000296,,,,,,,,,,,,,,,,,,,,,,,,,,,,,,,,,,,,,,,,,,,,,,,,,,228.18318309995811,228.1986646000296,228.68347229994833,228.7074283999391,228.71693599992432,228.71693599992432,228.71693599992432,230.3400413999334,Objects\110b.jpg,mid,s,1.6213746999856085,None,,,,,,,,00065,001,2026-01-20_11h58.49.978,MST_test,2024.2.0,59.81626835772207,2026-01-20 11h59.03.322922 +0530,
39,0,40,o,2.9805980999954045,None,40,0,39,230.35622249997687,,,,,,,,,,,,,,,,,,,,,,,,,,,,,,,,,,,,,,,,,,,,,,,,,,230.3401523999637,230.35622249997687,230.84153989993501,230.88783040002454,230.90947730001062,230.90947730001062,230.90947730001062,233.90221380000003,Scenes\023b.jpg,pre,o,2.9805980999954045,None,,,,,,,,00065,001,2026-01-20_11h58.49.978,MST_test,2024.2.0,59.81626835772207,2026-01-20 11h59.03.322922 +0530,
40,0,41,o,2.155533199897036,None,41,0,40,233.91871270001866,,,,,,,,,,,,,,,,,,,,,,,,,,,,,,,,,,,,,,,,,,,,,,,,,,233.90230940002948,233.91871270001866,234.4035071999533,234.4368088999763,234.45450420002453,234.45450420002453,234.45450420002453,236.61190929997247,Scenes\018b.jpg,pre,o,2.155533199897036,None,,,,,,,,00065,001,2026-01-20_11h58.49.978,MST_test,2024.2.0,59.81626835772207,2026-01-20 11h59.03.322922 +0530,
41,0,42,o,1.7420267999405041,None,42,0,41,236.6280089999782,,,,,,,,,,,,,,,,,,,,,,,,,,,,,,,,,,,,,,,,,,,,,,,,,,236.61201309994794,236.6280089999782,237.11299309995957,237.13741329999175,237.14722679997794,237.14722679997794,237.14722679997794,238.90315789997112,Objects\113b.jpg,mid,o,1.7420267999405041,None,,,,,,,,00065,001,2026-01-20_11h58.49.978,MST_test,2024.2.0,59.81626835772207,2026-01-20 11h59.03.322922 +0530,
42,0,43,n,2.3557016999693587,None,43,0,42,238.91937589994632,,,,,,,,,,,,,,,,,,,,,,,,,,,,,,,,,,,,,,,,,,,,,,,,,,238.90326149994507,238.91937589994632,239.40434439992532,239.42630679998547,239.4378277999349,239.4378277999349,239.4378277999349,241.7969405000331,Objects\105b.jpg,post,n,2.3557016999693587,None,,,,,,,,00065,001,2026-01-20_11h58.49.978,MST_test,2024.2.0,59.81626835772207,2026-01-20 11h59.03.322922 +0530,
43,0,44,n,1.1263068999396637,None,44,0,43,241.8128569999244,,,,,,,,,,,,,,,,,,,,,,,,,,,,,,,,,,,,,,,,,,,,,,,,,,241.7970363999484,241.8128569999244,242.2983783999225,242.3186721999664,242.33147390000522,242.33147390000522,242.33147390000522,243.46959049999714,Foils\097a.jpg,none,n,1.1263068999396637,None,,,,,,,,00065,001,2026-01-20_11h58.49.978,MST_test,2024.2.0,59.81626835772207,2026-01-20 11h59.03.322922 +0530,
44,0,45,o,2.094172799959779,None,45,0,44,243.48541389999446,,,,,,,,,,,,,,,,,,,,,,,,,,,,,,,,,,,,,,,,,,,,,,,,,,243.4696875999216,243.48541389999446,243.97061580000445,243.98409779998474,244.00385290000122,244.00385290000122,244.00385290000122,246.1116386000067,Objects\150a.jpg,pre,o,2.094172799959779,None,,,,,,,,00065,001,2026-01-20_11h58.49.978,MST_test,2024.2.0,59.81626835772207,2026-01-20 11h59.03.322922 +0530,
45,0,46,s,2.8829512000083923,None,46,0,45,246.12811019993387,,,,,,,,,,,,,,,,,,,,,,,,,,,,,,,,,,,,,,,,,,,,,,,,,,246.11173499992583,246.12811019993387,246.61309529992286,246.63470469997264,246.6465734000085,246.6465734000085,246.6465734000085,249.5404392000055,Foils\065a.jpg,none,s,2.8829512000083923,None,,,,,,,,00065,001,2026-01-20_11h58.49.978,MST_test,2024.2.0,59.81626835772207,2026-01-20 11h59.03.322922 +0530,
46,0,47,s,1.494361100019887,None,47,0,46,249.5567868000362,,,,,,,,,,,,,,,,,,,,,,,,,,,,,,,,,,,,,,,,,,,,,,,,,,249.540536699933,249.5567868000362,250.04175650002435,250.06156659999397,250.07523570000194,250.07523570000194,250.07523570000194,251.58089999994263,Objects\096b.jpg,post,s,1.494361100019887,None,,,,,,,,00065,001,2026-01-20_11h58.49.978,MST_test,2024.2.0,59.81626835772207,2026-01-20 11h59.03.322922 +0530,
47,0,48,s,3.5076758000068367,None,48,0,47,251.5971550999675,,,,,,,,,,,,,,,,,,,,,,,,,,,,,,,,,,,,,,,,,,,,,,,,,,251.58099599997513,251.5971550999675,252.08235459995922,252.12784500000998,252.1498816999374,252.1498816999374,252.1498816999374,255.66185020003468,Scenes\034a.jpg,pre,s,3.5076758000068367,None,,,,,,,,00065,001,2026-01-20_11h58.49.978,MST_test,2024.2.0,59.81626835772207,2026-01-20 11h59.03.322922 +0530,
48,0,49,o,1.9564429000020027,None,49,0,48,255.6781865999801,,,,,,,,,,,,,,,,,,,,,,,,,,,,,,,,,,,,,,,,,,,,,,,,,,255.66195510001853,255.6781865999801,256.1633261999814,256.18799330003094,256.1967631999869,256.1967631999869,256.1967631999869,258.1540511000203,Objects\034b.jpg,mid,o,1.9564429000020027,None,,,,,,,,00065,001,2026-01-20_11h58.49.978,MST_test,2024.2.0,59.81626835772207,2026-01-20 11h59.03.322922 +0530,
49,0,50,s,4.582848599995486,None,50,0,49,258.17001669993624,,,,,,,,,,,,,,,,,,,,,,,,,,,,,,,,,,,,,,,,,,,,,,,,,,258.15414509992115,258.17001669993624,258.655273500015,258.69429319992196,258.7060674999375,258.7060674999375,258.7060674999375,263.3053025000263,Scenes\043b.jpg,mid,s,4.582848599995486,None,,,,,,,,00065,001,2026-01-20_11h58.49.978,MST_test,2024.2.0,59.81626835772207,2026-01-20 11h59.03.322922 +0530,
50,0,51,s,1.3296784999547526,None,51,0,50,263.32137879997026,,,,,,,,,,,,,,,,,,,,,,,,,,,,,,,,,,,,,,,,,,,,,,,,,,263.3053970999317,263.32137879997026,263.80658700002823,263.8291921999771,263.8402373000281,263.8402373000281,263.8402373000281,265.1785350999562,Objects\008b.jpg,post,s,1.3296784999547526,None,,,,,,,,00065,001,2026-01-20_11h58.49.978,MST_test,2024.2.0,59.81626835772207,2026-01-20 11h59.03.322922 +0530,
51,0,52,s,2.1606863999040797,None,52,0,51,265.19473079999443,,,,,,,,,,,,,,,,,,,,,,,,,,,,,,,,,,,,,,,,,,,,,,,,,,265.17863249999937,265.19473079999443,265.67988089995924,265.7133227000013,265.72990000003483,265.72990000003483,265.72990000003483,267.90461420000065,Scenes\054a.jpg,post,s,2.1606863999040797,None,,,,,,,,00065,001,2026-01-20_11h58.49.978,MST_test,2024.2.0,59.81626835772207,2026-01-20 11h59.03.322922 +0530,
52,0,53,o,1.8745823000790551,None,53,0,52,267.920973100001,,,,,,,,,,,,,,,,,,,,,,,,,,,,,,,,,,,,,,,,,,,,,,,,,,267.9047112999251,267.920973100001,268.40665010001976,268.42106640001293,268.4393562999321,268.4393562999321,268.4393562999321,270.32983740000054,Objects\098a.jpg,mid,o,1.8745823000790551,None,,,,,,,,00065,001,2026-01-20_11h58.49.978,MST_test,2024.2.0,59.81626835772207,2026-01-20 11h59.03.322922 +0530,
53,0,54,o,2.1204094000859186,None,54,0,53,270.3461283999495,,,,,,,,,,,,,,,,,,,,,,,,,,,,,,,,,,,,,,,,,,,,,,,,,,270.3299383999547,270.3461283999495,270.831365799997,270.8563149999827,270.8655858000275,270.8655858000275,270.8655858000275,272.99021850002464,Scenes\127a.jpg,pre,o,2.1204094000859186,None,,,,,,,,00065,001,2026-01-20_11h58.49.978,MST_test,2024.2.0,59.81626835772207,2026-01-20 11h59.03.322922 +0530,
54,0,55,s,1.5641078000189736,None,55,0,54,273.0054720999906,,,,,,,,,,,,,,,,,,,,,,,,,,,,,,,,,,,,,,,,,,,,,,,,,,272.9903131999308,273.0054720999906,273.4906673999503,273.5186885999283,273.5419772999594,273.5419772999594,273.5419772999594,275.1135725999484,Scenes\083a.jpg,mid,s,1.5641078000189736,None,,,,,,,,00065,001,2026-01-20_11h58.49.978,MST_test,2024.2.0,59.81626835772207,2026-01-20 11h59.03.322922 +0530,
55,0,56,o,1.8648937999969348,None,56,0,55,275.1294806000078,,,,,,,,,,,,,,,,,,,,,,,,,,,,,,,,,,,,,,,,,,,,,,,,,,275.11367390002124,275.1294806000078,275.6147346999496,275.62971260002814,275.64869059994817,275.64869059994817,275.64869059994817,277.5217971999664,Objects\103a.jpg,mid,o,1.8648937999969348,None,,,,,,,,00065,001,2026-01-20_11h58.49.978,MST_test,2024.2.0,59.81626835772207,2026-01-20 11h59.03.322922 +0530,
56,0,57,n,1.5447595999576151,None,57,0,56,277.537960799993,,,,,,,,,,,,,,,,,,,,,,,,,,,,,,,,,,,,,,,,,,,,,,,,,,277.5218889999669,277.537960799993,278.0229180000024,278.0476105000125,278.05641620000824,278.05641620000824,278.05641620000824,279.61242449993733,Foils\106a.jpg,none,n,1.5447595999576151,None,,,,,,,,00065,001,2026-01-20_11h58.49.978,MST_test,2024.2.0,59.81626835772207,2026-01-20 11h59.03.322922 +0530,
57,0,58,n,1.3813972000498325,None,58,0,57,279.6286052999785,,,,,,,,,,,,,,,,,,,,,,,,,,,,,,,,,,,,,,,,,,,,,,,,,,279.61251859995537,279.6286052999785,280.11358509992715,280.13091900001746,280.1479140999727,280.1479140999727,280.1479140999727,281.5358519000001,Foils\scenes8.jpg,none,n,1.3813972000498325,None,,,,,,,,00065,001,2026-01-20_11h58.49.978,MST_test,2024.2.0,59.81626835772207,2026-01-20 11h59.03.322922 +0530,
58,0,59,n,0.8432197000365704,None,59,0,58,281.552008699975,,,,,,,,,,,,,,,,,,,,,,,,,,,,,,,,,,,,,,,,,,,,,,,,,,281.53594450000674,281.552008699975,282.03696749999654,282.0540812999243,282.070462099975,282.070462099975,282.070462099975,282.92405359994154,Foils\scenes13.jpg,none,n,0.8432197000365704,None,,,,,,,,00065,001,2026-01-20_11h58.49.978,MST_test,2024.2.0,59.81626835772207,2026-01-20 11h59.03.322922 +0530,
59,0,60,n,1.0139221999561414,None,60,0,59,282.9401906999992,,,,,,,,,,,,,,,,,,,,,,,,,,,,,,,,,,,,,,,,,,,,,,,,,,282.9241557000205,282.9401906999992,283.42517729999963,283.4566752000246,283.47599499998614,283.47599499998614,283.47599499998614,284.49642859993037,Scenes\177b.jpg,mid,n,1.0139221999561414,None,,,,,,,,00065,001,2026-01-20_11h58.49.978,MST_test,2024.2.0,59.81626835772207,2026-01-20 11h59.03.322922 +0530,
60,0,61,o,1.6024531000293791,None,61,0,60,284.51237779995427,,,,,,,,,,,,,,,,,,,,,,,,,,,,,,,,,,,,,,,,,,,,,,,,,,284.4965250999667,284.51237779995427,284.9974780000048,285.0133966000285,285.0308214999968,285.0308214999968,285.0308214999968,286.6371100000106,Objects\149a.jpg,post,o,1.6024531000293791,None,,,,,,,,00065,001,2026-01-20_11h58.49.978,MST_test,2024.2.0,59.81626835772207,2026-01-20 11h59.03.322922 +0530,
61,0,62,s,1.692056900006719,None,62,0,61,286.65320359996986,,,,,,,,,,,,,,,,,,,,,,,,,,,,,,,,,,,,,,,,,,,,,,,,,,286.6372071999358,286.65320359996986,287.1381918999832,287.17006769997533,287.18926689994987,287.18926689994987,287.18926689994987,288.8952125000069,Scenes\123b.jpg,pre,s,1.692056900006719,None,,,,,,,,00065,001,2026-01-20_11h58.49.978,MST_test,2024.2.0,59.81626835772207,2026-01-20 11h59.03.322922 +0530,
62,0,63,s,1.5247279999312013,None,63,0,62,288.9114159999881,,,,,,,,,,,,,,,,,,,,,,,,,,,,,,,,,,,,,,,,,,,,,,,,,,288.89532000001054,288.9114159999881,289.3962081000209,289.4174127000151,289.4295838000253,289.4295838000253,289.4295838000253,290.96888049994595,Objects\093b.jpg,pre,s,1.5247279999312013,None,,,,,,,,00065,001,2026-01-20_11h58.49.978,MST_test,2024.2.0,59.81626835772207,2026-01-20 11h59.03.322922 +0530,
63,0,64,o,2.7617827999638394,None,64,0,63,290.98506229999475,,,,,,,,,,,,,,,,,,,,,,,,,,,,,,,,,,,,,,,,,,,,,,,,,,290.9689714999404,290.98506229999475,291.4700609999709,291.48425149999093,291.5035002999939,291.5035002999939,291.5035002999939,294.28066669998225,Objects\072a.jpg,pre,o,2.7617827999638394,None,,,,,,,,00065,001,2026-01-20_11h58.49.978,MST_test,2024.2.0,59.81626835772207,2026-01-20 11h59.03.322922 +0530,
64,0,65,n,2.3702160000102594,None,65,0,64,294.29654340003617,,,,,,,,,,,,,,,,,,,,,,,,,,,,,,,,,,,,,,,,,,,,,,,,,,294.2807581999805,294.29654340003617,294.78206460003275,294.80507859995123,294.8149906999897,294.8149906999897,294.8149906999897,297.19053579994943,Foils\074a.jpg,none,n,2.3702160000102594,None,,,,,,,,00065,001,2026-01-20_11h58.49.978,MST_test,2024.2.0,59.81626835772207,2026-01-20 11h59.03.322922 +0530,
65,0,66,s,1.939734200015664,None,66,0,65,297.2068409000058,,,,,,,,,,,,,,,,,,,,,,,,,,,,,,,,,,,,,,,,,,,,,,,,,,297.1906315999804,297.2068409000058,297.69197789998725,297.73389979999047,297.7427491999697,297.7427491999697,297.7427491999697,299.68329399998765,Scenes\001a.jpg,mid,s,1.939734200015664,None,,,,,,,,00065,001,2026-01-20_11h58.49.978,MST_test,2024.2.0,59.81626835772207,2026-01-20 11h59.03.322922 +0530,
66,0,67,o,2.545433899969794,None,67,0,66,299.69878089998383,,,,,,,,,,,,,,,,,,,,,,,,,,,,,,,,,,,,,,,,,,,,,,,,,,299.6833867999958,299.69878089998383,300.18417909997515,300.1996970999753,300.21723059995566,300.21723059995566,300.21723059995566,302.77672860003076,Objects\058a.jpg,pre,o,2.545433899969794,None,,,,,,,,00065,001,2026-01-20_11h58.49.978,MST_test,2024.2.0,59.81626835772207,2026-01-20 11h59.03.322922 +0530,
67,0,68,o,2.746163500007242,None,68,0,67,302.79311379999854,,,,,,,,,,,,,,,,,,,,,,,,,,,,,,,,,,,,,,,,,,,,,,,,,,302.7768247999484,302.79311379999854,303.2782726000296,303.30132239998784,303.3113997000037,303.3113997000037,303.3113997000037,306.0715631999774,Objects\007b.jpg,post,o,2.746163500007242,None,,,,,,,,00065,001,2026-01-20_11h58.49.978,MST_test,2024.2.0,59.81626835772207,2026-01-20 11h59.03.322922 +0530,
68,0,69,o,1.2111755000660196,None,69,0,68,306.0878335000016,,,,,,,,,,,,,,,,,,,,,,,,,,,,,,,,,,,,,,,,,,,,,,,,,,306.0716582000023,306.0878335000016,306.57302869996056,306.5865678000264,306.6062681999756,306.6062681999756,306.6062681999756,307.828402300016,Objects\169a.jpg,mid,o,1.2111755000660196,None,,,,,,,,00065,001,2026-01-20_11h58.49.978,MST_test,2024.2.0,59.81626835772207,2026-01-20 11h59.03.322922 +0530,
69,0,70,s,1.4389611000660807,None,70,0,69,307.84398529992905,,,,,,,,,,,,,,,,,,,,,,,,,,,,,,,,,,,,,,,,,,,,,,,,,,307.82849460002035,307.84398529992905,308.3292916000355,308.3511967000086,308.3624245999381,308.3624245999381,308.3624245999381,309.8179414999904,Objects\063b.jpg,pre,s,1.4389611000660807,None,,,,,,,,00065,001,2026-01-20_11h58.49.978,MST_test,2024.2.0,59.81626835772207,2026-01-20 11h59.03.322922 +0530,
70,0,71,o,1.9034693000139669,None,71,0,70,309.83439410000574,,,,,,,,,,,,,,,,,,,,,,,,,,,,,,,,,,,,,,,,,,,,,,,,,,309.81804769998416,309.83439410000574,310.31947049999144,310.34148109995294,310.3538187999511,310.3538187999511,310.3538187999511,312.26025920000393,Scenes\162a.jpg,mid,o,1.9034693000139669,None,,,,,,,,00065,001,2026-01-20_11h58.49.978,MST_test,2024.2.0,59.81626835772207,2026-01-20 11h59.03.322922 +0530,
71,0,72,o,1.013893899973482,None,72,0,71,312.2762806999963,,,,,,,,,,,,,,,,,,,,,,,,,,,,,,,,,,,,,,,,,,,,,,,,,,312.26035380002577,312.2762806999963,312.7612396000186,312.785348800011,312.7956372000044,312.7956372000044,312.7956372000044,313.8155910000205,Scenes\110a.jpg,mid,o,1.013893899973482,None,,,,,,,,00065,001,2026-01-20_11h58.49.978,MST_test,2024.2.0,59.81626835772207,2026-01-20 11h59.03.322922 +0530,
72,0,73,o,1.1800250000087544,None,73,0,72,313.83184589992743,,,,,,,,,,,,,,,,,,,,,,,,,,,,,,,,,,,,,,,,,,,,,,,,,,313.81568060000427,313.83184589992743,314.3167064000154,314.34178509993944,314.3501555999974,314.3501555999974,314.3501555999974,315.5382802999811,Scenes\006a.jpg,post,o,1.1800250000087544,None,,,,,,,,00065,001,2026-01-20_11h58.49.978,MST_test,2024.2.0,59.81626835772207,2026-01-20 11h59.03.322922 +0530,
73,0,74,s,2.191221800050698,None,74,0,73,315.55442810000386,,,,,,,,,,,,,,,,,,,,,,,,,,,,,,,,,,,,,,,,,,,,,,,,,,315.5383711999748,315.55442810000386,316.03951329994015,316.0637320999522,316.0737575999228,316.0737575999228,316.0737575999228,318.28121960000135,Objects\141b.jpg,mid,s,2.191221800050698,None,,,,,,,,00065,001,2026-01-20_11h58.49.978,MST_test,2024.2.0,59.81626835772207,2026-01-20 11h59.03.322922 +0530,
74,0,75,o,1.2415761000011116,None,75,0,74,318.2973703999305,,,,,,,,,,,,,,,,,,,,,,,,,,,,,,,,,,,,,,,,,,,,,,,,,,318.2813105999958,318.2973703999305,318.7824424999999,318.81305019999854,318.83241889998317,318.83241889998317,318.83241889998317,320.08794430003036,Scenes\174a.jpg,pre,o,1.2415761000011116,None,,,,,,,,00065,001,2026-01-20_11h58.49.978,MST_test,2024.2.0,59.81626835772207,2026-01-20 11h59.03.322922 +0530,
75,0,76,s,1.6898582000285387,None,76,0,75,320.10386759997346,,,,,,,,,,,,,,,,,,,,,,,,,,,,,,,,,,,,,,,,,,,,,,,,,,320.08804289996624,320.10386759997346,320.5889321999857,320.62663139996585,320.63923029997386,320.63923029997386,320.63923029997386,322.3452745999675,Scenes\171b.jpg,pre,s,1.6898582000285387,None,,,,,,,,00065,001,2026-01-20_11h58.49.978,MST_test,2024.2.0,59.81626835772207,2026-01-20 11h59.03.322922 +0530,
76,0,77,s,1.4018968000309542,None,77,0,76,322.3617644000333,,,,,,,,,,,,,,,,,,,,,,,,,,,,,,,,,,,,,,,,,,,,,,,,,,322.3453720000107,322.3617644000333,322.8467128999764,322.8633403999265,322.8800781000173,322.8800781000173,322.8800781000173,324.2857188000344,Objects\184a.jpg,pre,s,1.4018968000309542,None,,,,,,,,00065,001,2026-01-20_11h58.49.978,MST_test,2024.2.0,59.81626835772207,2026-01-20 11h59.03.322922 +0530,
77,0,78,n,1.1586314999731258,None,78,0,77,324.30162009992637,,,,,,,,,,,,,,,,,,,,,,,,,,,,,,,,,,,,,,,,,,,,,,,,,,324.28581089992076,324.30162009992637,324.7868125999812,324.80828909995034,324.8200619999552,324.8200619999552,324.8200619999552,325.991522999946,Foils\057a.jpg,none,n,1.1586314999731258,None,,,,,,,,00065,001,2026-01-20_11h58.49.978,MST_test,2024.2.0,59.81626835772207,2026-01-20 11h59.03.322922 +0530,
78,0,79,s,2.5384966999990866,None,79,0,78,326.0076911000069,,,,,,,,,,,,,,,,,,,,,,,,,,,,,,,,,,,,,,,,,,,,,,,,,,325.9916202999884,326.0076911000069,326.4926860999549,326.51744890003465,326.5271246000193,326.5271246000193,326.5271246000193,329.0688591999933,Scenes\188a.jpg,pre,s,2.5384966999990866,None,,,,,,,,00065,001,2026-01-20_11h58.49.978,MST_test,2024.2.0,59.81626835772207,2026-01-20 11h59.03.322922 +0530,
79,0,80,n,1.9990692000137642,None,80,0,79,329.08515209995676,,,,,,,,,,,,,,,,,,,,,,,,,,,,,,,,,,,,,,,,,,,,,,,,,,329.06895149999764,329.08515209995676,329.5702309999615,329.5963746999623,329.6028232999379,329.6028232999379,329.6028232999379,331.6112048999639,Foils\002a.jpg,none,n,1.9990692000137642,None,,,,,,,,00065,001,2026-01-20_11h58.49.978,MST_test,2024.2.0,59.81626835772207,2026-01-20 11h59.03.322922 +0530,
80,0,81,n,1.33328070002608,None,81,0,80,331.6272670000326,,,,,,,,,,,,,,,,,,,,,,,,,,,,,,,,,,,,,,,,,,,,,,,,,,331.6112954999553,331.6272670000326,332.1126463999972,332.15705139993224,332.18018389993813,332.18018389993813,332.18018389993813,333.51794329995755,Scenes\038b.jpg,post,n,1.33328070002608,None,,,,,,,,00065,001,2026-01-20_11h58.49.978,MST_test,2024.2.0,59.81626835772207,2026-01-20 11h59.03.322922 +0530,
81,0,82,n,1.1797998000402004,None,82,0,81,333.534182399977,,,,,,,,,,,,,,,,,,,,,,,,,,,,,,,,,,,,,,,,,,,,,,,,,,333.51803509995807,333.534182399977,334.01901699998416,334.0610696999356,334.07024399994407,334.07024399994407,334.07024399994407,335.2572393999435,Scenes\012b.jpg,pre,n,1.1797998000402004,None,,,,,,,,00065,001,2026-01-20_11h58.49.978,MST_test,2024.2.0,59.81626835772207,2026-01-20 11h59.03.322922 +0530,
82,0,83,o,2.5362392000388354,None,83,0,82,335.2735007000156,,,,,,,,,,,,,,,,,,,,,,,,,,,,,,,,,,,,,,,,,,,,,,,,,,335.2573656999739,335.2735007000156,335.7584613999352,335.7745768999448,335.79304539994337,335.79304539994337,335.79304539994337,338.3348323999671,Objects\071a.jpg,pre,o,2.5362392000388354,None,,,,,,,,00065,001,2026-01-20_11h58.49.978,MST_test,2024.2.0,59.81626835772207,2026-01-20 11h59.03.322922 +0530,
83,0,84,n,2.186594199971296,None,84,0,83,338.3508040999295,,,,,,,,,,,,,,,,,,,,,,,,,,,,,,,,,,,,,,,,,,,,,,,,,,338.33492890000343,338.3508040999295,338.8360091999639,338.86424080003053,338.8871370999841,338.8871370999841,338.8871370999841,341.0777992999647,Objects\051b.jpg,post,n,2.186594199971296,None,,,,,,,,00065,001,2026-01-20_11h58.49.978,MST_test,2024.2.0,59.81626835772207,2026-01-20 11h59.03.322922 +0530,
84,0,85,o,1.333309100009501,None,85,0,84,341.09386060002726,,,,,,,,,,,,,,,,,,,,,,,,,,,,,,,,,,,,,,,,,,,,,,,,,,341.07789149996825,341.09386060002726,341.578906300012,341.59449940000195,341.6123088999884,341.6123088999884,341.6123088999884,342.95098590001,Objects\048a.jpg,pre,o,1.333309100009501,None,,,,,,,,00065,001,2026-01-20_11h58.49.978,MST_test,2024.2.0,59.81626835772207,2026-01-20 11h59.03.322922 +0530,
85,0,86,s,1.3557601000647992,None,86,0,85,342.9669874999672,,,,,,,,,,,,,,,,,,,,,,,,,,,,,,,,,,,,,,,,,,,,,,,,,,342.9510752999922,342.9669874999672,343.4521606999915,343.4741823999211,343.4854245999595,343.4854245999595,343.4854245999595,344.857654399937,Objects\107b.jpg,mid,s,1.3557601000647992,None,,,,,,,,00065,001,2026-01-20_11h58.49.978,MST_test,2024.2.0,59.81626835772207,2026-01-20 11h59.03.322922 +0530,
86,0,87,s,1.6733192999381572,None,87,0,86,344.8737686999375,,,,,,,,,,,,,,,,,,,,,,,,,,,,,,,,,,,,,,,,,,,,,,,,,,344.8577504999703,344.8737686999375,345.3587434999645,345.3820302999811,345.39221419999376,345.39221419999376,345.39221419999376,347.08206729998346,Objects\022b.jpg,pre,s,1.6733192999381572,None,,,,,,,,00065,001,2026-01-20_11h58.49.978,MST_test,2024.2.0,59.81626835772207,2026-01-20 11h59.03.322922 +0530,
87,0,88,s,0.8085809000767767,None,88,0,87,347.09821319999173,,,,,,,,,,,,,,,,,,,,,,,,,,,,,,,,,,,,,,,,,,,,,,,,,,347.0821647000266,347.09821319999173,347.5833150999388,347.59727339993697,347.61713559995405,347.61713559995405,347.61713559995405,348.4367100999225,Objects\138a.jpg,pre,s,0.8085809000767767,None,,,,,,,,00065,001,2026-01-20_11h58.49.978,MST_test,2024.2.0,59.81626835772207,2026-01-20 11h59.03.322922 +0530,
88,0,89,s,0.7582302999217063,None,89,0,88,348.452860499965,,,,,,,,,,,,,,,,,,,,,,,,,,,,,,,,,,,,,,,,,,,,,,,,,,348.4368642999325,348.452860499965,348.93817590002436,348.9599016000284,348.9713050000137,348.9713050000137,348.9713050000137,349.74143159994856,Foils\093b.jpg,none,s,0.7582302999217063,None,,,,,,,,00065,001,2026-01-20_11h58.49.978,MST_test,2024.2.0,59.81626835772207,2026-01-20 11h59.03.322922 +0530,
89,0,90,n,1.2860874999314547,None,90,0,89,349.75754070002586,,,,,,,,,,,,,,,,,,,,,,,,,,,,,,,,,,,,,,,,,,,,,,,,,,349.74154780001845,349.75754070002586,350.24250089994166,350.2634355999762,350.27600439998787,350.27600439998787,350.27600439998787,351.56433840002865,Foils\026a.jpg,none,n,1.2860874999314547,None,,,,,,,,00065,001,2026-01-20_11h58.49.978,MST_test,2024.2.0,59.81626835772207,2026-01-20 11h59.03.322922 +0530,
90,0,91,o,1.1976288000587374,None,91,0,90,351.5805931999348,,,,,,,,,,,,,,,,,,,,,,,,,,,,,,,,,,,,,,,,,,,,,,,,,,351.56442970002536,351.5805931999348,352.0655710999854,352.0889843000332,352.0999991999706,352.0999991999706,352.0999991999706,353.30396399996243,Scenes\175a.jpg,post,o,1.1976288000587374,None,,,,,,,,00065,001,2026-01-20_11h58.49.978,MST_test,2024.2.0,59.81626835772207,2026-01-20 11h59.03.322922 +0530,
91,0,92,s,1.210909300018102,None,92,0,91,353.31990999996196,,,,,,,,,,,,,,,,,,,,,,,,,,,,,,,,,,,,,,,,,,,,,,,,,,353.30405369994696,353.31990999996196,353.805276399944,353.82086480001453,353.83833990001585,353.83833990001585,353.83833990001585,355.0600443999283,Objects\159a.jpg,post,s,1.210909300018102,None,,,,,,,,00065,001,2026-01-20_11h58.49.978,MST_test,2024.2.0,59.81626835772207,2026-01-20 11h59.03.322922 +0530,
92,0,93,s,1.981091700028628,None,93,0,92,355.0760497000301,,,,,,,,,,,,,,,,,,,,,,,,,,,,,,,,,,,,,,,,,,,,,,,,,,355.06013360002544,355.0760497000301,355.56128489994444,355.60435379995033,355.6118874999229,355.6118874999229,355.6118874999229,357.60215359996073,Scenes\170b.jpg,post,s,1.981091700028628,None,,,,,,,,00065,001,2026-01-20_11h58.49.978,MST_test,2024.2.0,59.81626835772207,2026-01-20 11h59.03.322922 +0530,
93,0,94,s,2.4400669999886304,None,94,0,93,357.6182750000153,,,,,,,,,,,,,,,,,,,,,,,,,,,,,,,,,,,,,,,,,,,,,,,,,,357.60226039995905,357.6182750000153,358.1035197000019,358.1205609999597,358.1375031999778,358.1375031999778,358.1375031999778,360.5789390000282,Foils\scenes19.jpg,none,s,2.4400669999886304,None,,,,,,,,00065,001,2026-01-20_11h58.49.978,MST_test,2024.2.0,59.81626835772207,2026-01-20 11h59.03.322922 +0530,
94,0,95,n,1.054144399939105,None,95,0,94,360.59513659996446,,,,,,,,,,,,,,,,,,,,,,,,,,,,,,,,,,,,,,,,,,,,,,,,,,360.57903739996254,360.59513659996446,361.0807310999371,361.103545299964,361.1148809000151,361.1148809000151,361.1148809000151,362.1849242999451,Foils\017a.jpg,none,n,1.054144399939105,None,,,,,,,,00065,001,2026-01-20_11h58.49.978,MST_test,2024.2.0,59.81626835772207,2026-01-20 11h59.03.322922 +0530,
95,0,96,o,1.4244086999678984,None,96,0,95,362.2009981999872,,,,,,,,,,,,,,,,,,,,,,,,,,,,,,,,,,,,,,,,,,,,,,,,,,362.18502049997915,362.2009981999872,362.68639459996484,362.7206520999316,362.7371037999401,362.7371037999401,362.7371037999401,364.17518060002476,Scenes\002a.jpg,mid,o,1.4244086999678984,None,,,,,,,,00065,001,2026-01-20_11h58.49.978,MST_test,2024.2.0,59.81626835772207,2026-01-20 11h59.03.322922 +0530,
96,0,97,s,2.1398514000466093,None,97,0,96,364.1913084000116,,,,,,,,,,,,,,,,,,,,,,,,,,,,,,,,,,,,,,,,,,,,,,,,,,364.1752705000108,364.1913084000116,364.67668869998306,364.69940649997443,364.70974339998793,364.70974339998793,364.70974339998793,366.85118769994006,Objects\187b.jpg,pre,s,2.1398514000466093,None,,,,,,,,00065,001,2026-01-20_11h58.49.978,MST_test,2024.2.0,59.81626835772207,2026-01-20 11h59.03.322922 +0530,
97,0,98,s,1.3116220000665635,None,98,0,97,366.8674619999947,,,,,,,,,,,,,,,,,,,,,,,,,,,,,,,,,,,,,,,,,,,,,,,,,,366.8512840999756,366.8674619999947,367.3525763999205,367.3746429999592,367.3858949999558,367.3858949999558,367.3858949999558,368.7077569999965,Objects\170b.jpg,post,s,1.3116220000665635,None,,,,,,,,00065,001,2026-01-20_11h58.49.978,MST_test,2024.2.0,59.81626835772207,2026-01-20 11h59.03.322922 +0530,
98,0,99,n,3.071385199902579,None,99,0,98,368.7241052000318,,,,,,,,,,,,,,,,,,,,,,,,,,,,,,,,,,,,,,,,,,,,,,,,,,368.70785080001224,368.7241052000318,369.20892809994984,369.2314258000115,369.24240580003243,369.24240580003243,369.24240580003243,372.3204519000137,Objects\175b.jpg,mid,n,3.071385199902579,None,,,,,,,,00065,001,2026-01-20_11h58.49.978,MST_test,2024.2.0,59.81626835772207,2026-01-20 11h59.03.322922 +0530,
99,0,100,s,1.6583190000383183,None,100,0,99,372.3366396999918,,,,,,,,,,,,,,,,,,,,,,,,,,,,,,,,,,,,,,,,,,,,,,,,,,372.320541699999,372.3366396999918,372.82169449992944,372.8451422000071,372.855211099959,372.855211099959,372.855211099959,374.52817389997654,Objects\018b.jpg,mid,s,1.6583190000383183,None,,,,,,,,00065,001,2026-01-20_11h58.49.978,MST_test,2024.2.0,59.81626835772207,2026-01-20 11h59.03.322922 +0530,
100,0,101,s,1.9469087000470608,None,101,0,100,374.54434449994005,,,,,,,,,,,,,,,,,,,,,,,,,,,,,,,,,,,,,,,,,,,,,,,,,,374.52827320003416,374.54434449994005,375.02930159994867,375.0489855000051,375.0627879999811,375.0627879999811,375.0627879999811,377.02028739999514,Objects\120b.jpg,pre,s,1.9469087000470608,None,,,,,,,,00065,001,2026-01-20_11h58.49.978,MST_test,2024.2.0,59.81626835772207,2026-01-20 11h59.03.322922 +0530,
101,0,102,o,1.2066089999862015,None,102,0,101,377.03641589998733,,,,,,,,,,,,,,,,,,,,,,,,,,,,,,,,,,,,,,,,,,,,,,,,,,377.0203798000002,377.03641589998733,377.52136699995026,377.5440915999934,377.5548573000124,377.5548573000124,377.5548573000124,378.7763949999353,Objects\041b.jpg,post,o,1.2066089999862015,None,,,,,,,,00065,001,2026-01-20_11h58.49.978,MST_test,2024.2.0,59.81626835772207,2026-01-20 11h59.03.322922 +0530,
102,0,103,n,1.8745603999122977,None,103,0,102,378.79256550001446,,,,,,,,,,,,,,,,,,,,,,,,,,,,,,,,,,,,,,,,,,,,,,,,,,378.776486299932,378.79256550001446,379.2776894000126,379.30263129994273,379.3111569000175,379.3111569000175,379.3111569000175,381.201427699998,Foils\009a.jpg,none,n,1.8745603999122977,None,,,,,,,,00065,001,2026-01-20_11h58.49.978,MST_test,2024.2.0,59.81626835772207,2026-01-20 11h59.03.322922 +0530,
103,0,104,o,1.5839724000543356,None,104,0,103,381.21771290001925,,,,,,,,,,,,,,,,,,,,,,,,,,,,,,,,,,,,,,,,,,,,,,,,,,381.20151869999245,381.21771290001925,381.7026826000074,381.73590780002996,381.7536484999582,381.7536484999582,381.7536484999582,383.34250149992295,Scenes\094a.jpg,post,o,1.5839724000543356,None,,,,,,,,00065,001,2026-01-20_11h58.49.978,MST_test,2024.2.0,59.81626835772207,2026-01-20 11h59.03.322922 +0530,
104,0,105,o,1.6747596999630332,None,105,0,104,383.3585553999292,,,,,,,,,,,,,,,,,,,,,,,,,,,,,,,,,,,,,,,,,,,,,,,,,,383.3425937999273,383.3585553999292,383.8436236999696,383.87266979995184,383.8948131999932,383.8948131999932,383.8948131999932,385.5834868999664,Scenes\100a.jpg,pre,o,1.6747596999630332,None,,,,,,,,00065,001,2026-01-20_11h58.49.978,MST_test,2024.2.0,59.81626835772207,2026-01-20 11h59.03.322922 +0530,
105,0,106,s,2.5865435000741854,None,106,0,105,385.5996086000232,,,,,,,,,,,,,,,,,,,,,,,,,,,,,,,,,,,,,,,,,,,,,,,,,,385.5835762999486,385.5996086000232,386.08482999994885,386.0993610000005,386.11909309995826,386.11909309995826,386.11909309995826,388.7115099999355,Objects\001a.jpg,post,s,2.5865435000741854,None,,,,,,,,00065,001,2026-01-20_11h58.49.978,MST_test,2024.2.0,59.81626835772207,2026-01-20 11h59.03.322922 +0530,
106,0,107,n,2.755341300042346,None,107,0,106,388.7272614999674,,,,,,,,,,,,,,,,,,,,,,,,,,,,,,,,,,,,,,,,,,,,,,,,,,388.7116046999581,388.7272614999674,389.2131135999225,389.2354582999833,389.2456791999284,389.2456791999284,389.2456791999284,392.0073884000303,Foils\073a.jpg,none,n,2.755341300042346,None,,,,,,,,00065,001,2026-01-20_11h58.49.978,MST_test,2024.2.0,59.81626835772207,2026-01-20 11h59.03.322922 +0530,
107,0,108,s,1.8442346999654546,None,108,0,107,392.0226614000276,,,,,,,,,,,,,,,,,,,,,,,,,,,,,,,,,,,,,,,,,,,,,,,,,,392.00748639996164,392.0226614000276,392.5074836999411,392.5308620999567,392.5408994000172,392.5408994000172,392.5408994000172,394.3976363999536,Objects\190b.jpg,pre,s,1.8442346999654546,None,,,,,,,,00065,001,2026-01-20_11h58.49.978,MST_test,2024.2.0,59.81626835772207,2026-01-20 11h59.03.322922 +0530,
108,0,109,n,1.636674900073558,None,109,0,108,394.413804300013,,,,,,,,,,,,,,,,,,,,,,,,,,,,,,,,,,,,,,,,,,,,,,,,,,394.3977266999427,394.413804300013,394.8991904000286,394.9158582999371,394.93312349996995,394.93312349996995,394.93312349996995,396.57234720001,Foils\scenes3.jpg,none,n,1.636674900073558,None,,,,,,,,00065,001,2026-01-20_11h58.49.978,MST_test,2024.2.0,59.81626835772207,2026-01-20 11h59.03.322922 +0530,
109,0,110,s,1.4231806000461802,None,110,0,109,396.5882243999513,,,,,,,,,,,,,,,,,,,,,,,,,,,,,,,,,,,,,,,,,,,,,,,,,,396.57244429993443,396.5882243999513,397.0732746999711,397.09581969992723,397.1066603999352,397.1066603999352,397.1066603999352,398.54565679992083,Objects\178b.jpg,post,s,1.4231806000461802,None,,,,,,,,00065,001,2026-01-20_11h58.49.978,MST_test,2024.2.0,59.81626835772207,2026-01-20 11h59.03.322922 +0530,
110,0,111,n,1.4328438999364153,None,111,0,110,398.5616717999801,,,,,,,,,,,,,,,,,,,,,,,,,,,,,,,,,,,,,,,,,,,,,,,,,,398.54575329995714,398.5616717999801,399.04706349992193,399.0690769000212,399.0801151000196,399.0801151000196,399.0801151000196,400.51939529995434,Foils\058a.jpg,none,n,1.4328438999364153,None,,,,,,,,00065,001,2026-01-20_11h58.49.978,MST_test,2024.2.0,59.81626835772207,2026-01-20 11h59.03.322922 +0530,
111,0,112,s,1.9065226999809965,None,112,0,111,400.5352677999763,,,,,,,,,,,,,,,,,,,,,,,,,,,,,,,,,,,,,,,,,,,,,,,,,,400.51949129998684,400.5352677999763,401.0206322999438,401.05922719999216,401.07116619998123,401.07116619998123,401.07116619998123,402.9945432000095,Scenes\031b.jpg,post,s,1.9065226999809965,None,,,,,,,,00065,001,2026-01-20_11h58.49.978,MST_test,2024.2.0,59.81626835772207,2026-01-20 11h59.03.322922 +0530,
112,0,113,s,3.112372100003995,None,113,0,112,403.010578299989,,,,,,,,,,,,,,,,,,,,,,,,,,,,,,,,,,,,,,,,,,,,,,,,,,402.99464449996594,403.010578299989,403.49589639995247,403.5189417999936,403.5290345000103,403.5290345000103,403.5290345000103,406.65743120003026,Objects\189b.jpg,mid,s,3.112372100003995,None,,,,,,,,00065,001,2026-01-20_11h58.49.978,MST_test,2024.2.0,59.81626835772207,2026-01-20 11h59.03.322922 +0530,
113,0,114,n,2.104097199975513,None,114,0,113,406.6734041000018,,,,,,,,,,,,,,,,,,,,,,,,,,,,,,,,,,,,,,,,,,,,,,,,,,406.6575249999296,406.6734041000018,407.1586215000134,407.1757429999998,407.1929986999603,407.1929986999603,407.1929986999603,409.30086730001494,Foils\scenes30.jpg,none,n,2.104097199975513,None,,,,,,,,00065,001,2026-01-20_11h58.49.978,MST_test,2024.2.0,59.81626835772207,2026-01-20 11h59.03.322922 +0530,
114,0,115,s,2.0314752999693155,None,115,0,114,409.3161316999467,,,,,,,,,,,,,,,,,,,,,,,,,,,,,,,,,,,,,,,,,,,,,,,,,,409.30096789996605,409.3161316999467,409.80108559993096,409.824594900012,409.8345548999496,409.8345548999496,409.8345548999496,411.8757073000306,Objects\042b.jpg,post,s,2.0314752999693155,None,,,,,,,,00065,001,2026-01-20_11h58.49.978,MST_test,2024.2.0,59.81626835772207,2026-01-20 11h59.03.322922 +0530,
115,0,116,o,1.1518077000509948,None,116,0,115,411.8917913000332,,,,,,,,,,,,,,,,,,,,,,,,,,,,,,,,,,,,,,,,,,,,,,,,,,411.87579910003114,411.8917913000332,412.3768823000137,412.3912724999245,412.41025359998457,412.41025359998457,412.41025359998457,413.564973999979,Objects\035a.jpg,mid,o,1.1518077000509948,None,,,,,,,,00065,001,2026-01-20_11h58.49.978,MST_test,2024.2.0,59.81626835772207,2026-01-20 11h59.03.322922 +0530,
116,0,117,s,3.726191900088452,None,117,0,116,413.58094110002276,,,,,,,,,,,,,,,,,,,,,,,,,,,,,,,,,,,,,,,,,,,,,,,,,,413.5650732999202,413.58094110002276,414.0661534999963,414.08013829996344,414.09958309994545,414.09958309994545,414.09958309994545,417.8296475999523,Objects\151a.jpg,post,s,3.726191900088452,None,,,,,,,,00065,001,2026-01-20_11h58.49.978,MST_test,2024.2.0,59.81626835772207,2026-01-20 11h59.03.322922 +0530,
117,0,118,s,1.1573495999909937,None,118,0,117,417.84619509999175,,,,,,,,,,,,,,,,,,,,,,,,,,,,,,,,,,,,,,,,,,,,,,,,,,417.8297676999355,417.84619509999175,418.3311197999865,418.35477259999607,418.36460760002956,418.36460760002956,418.36460760002956,419.5357770000119,Objects\146b.jpg,mid,s,1.1573495999909937,None,,,,,,,,00065,001,2026-01-20_11h58.49.978,MST_test,2024.2.0,59.81626835772207,2026-01-20 11h59.03.322922 +0530,
118,0,119,s,1.1141330999089405,None,119,0,118,419.5520386999706,,,,,,,,,,,,,,,,,,,,,,,,,,,,,,,,,,,,,,,,,,,,,,,,,,419.53587379993405,419.5520386999706,420.03705339995213,420.0666782000335,420.08804830000736,420.08804830000736,420.08804830000736,421.20832859992515,Scenes\153b.jpg,post,s,1.1141330999089405,None,,,,,,,,00065,001,2026-01-20_11h58.49.978,MST_test,2024.2.0,59.81626835772207,2026-01-20 11h59.03.322922 +0530,
119,0,120,s,0.9624888000544161,None,120,0,119,421.22443980001844,,,,,,,,,,,,,,,,,,,,,,,,,,,,,,,,,,,,,,,,,,,,,,,,,,421.2084170000162,421.22443980001844,421.7106406999519,421.72546620003413,421.7428247999633,421.7428247999633,421.7428247999633,422.7141743999673,Objects\015a.jpg,post,s,0.9624888000544161,None,,,,,,,,00065,001,2026-01-20_11h58.49.978,MST_test,2024.2.0,59.81626835772207,2026-01-20 11h59.03.322922 +0530,
120,0,121,o,1.5385450999019668,None,121,0,120,422.72989920002874,,,,,,,,,,,,,,,,,,,,,,,,,,,,,,,,,,,,,,,,,,,,,,,,,,422.71427829994354,422.72989920002874,423.21475069993176,423.2277068999829,423.24836929992307,423.24836929992307,423.24836929992307,424.7877121999627,Objects\089a.jpg,pre,o,1.5385450999019668,None,,,,,,,,00065,001,2026-01-20_11h58.49.978,MST_test,2024.2.0,59.81626835772207,2026-01-20 11h59.03.322922 +0530,
121,0,122,n,1.1197039999533445,None,122,0,121,424.80357069999445,,,,,,,,,,,,,,,,,,,,,,,,,,,,,,,,,,,,,,,,,,,,,,,,,,424.787804099964,424.80357069999445,425.2887887000106,425.3099675999256,425.32200829999056,425.32200829999056,425.32200829999056,426.4433431000216,Foils\090a.jpg,none,n,1.1197039999533445,None,,,,,,,,00065,001,2026-01-20_11h58.49.978,MST_test,2024.2.0,59.81626835772207,2026-01-20 11h59.03.322922 +0530,
122,0,123,s,3.74420930002816,None,123,0,122,426.45948640001006,,,,,,,,,,,,,,,,,,,,,,,,,,,,,,,,,,,,,,,,,,,,,,,,,,426.4434381999308,426.45948640001006,426.9446821999736,426.9674093000358,426.97794140002225,426.97794140002225,426.97794140002225,430.72518489998765,Scenes\154a.jpg,mid,s,3.74420930002816,None,,,,,,,,00065,001,2026-01-20_11h58.49.978,MST_test,2024.2.0,59.81626835772207,2026-01-20 11h59.03.322922 +0530,
123,0,124,s,1.5494505999376997,None,124,0,123,430.7410205999622,,,,,,,,,,,,,,,,,,,,,,,,,,,,,,,,,,,,,,,,,,,,,,,,,,430.72527649998665,430.7410205999622,431.2262153000338,431.24739529995713,431.2604325999273,431.2604325999273,431.2604325999273,432.81569069996476,Scenes\053b.jpg,pre,s,1.5494505999376997,None,,,,,,,,00065,001,2026-01-20_11h58.49.978,MST_test,2024.2.0,59.81626835772207,2026-01-20 11h59.03.322922 +0530,
124,0,125,o,1.0820736000314355,None,125,0,124,432.83264659997076,,,,,,,,,,,,,,,,,,,,,,,,,,,,,,,,,,,,,,,,,,,,,,,,,,432.815786399995,432.83264659997076,433.3170617999276,433.3566979999887,433.36794799997006,433.36794799997006,433.36794799997006,434.45499240001664,Scenes\120a.jpg,post,o,1.0820736000314355,None,,,,,,,,00065,001,2026-01-20_11h58.49.978,MST_test,2024.2.0,59.81626835772207,2026-01-20 11h59.03.322922 +0530,
125,0,126,o,1.5790457000257447,None,126,0,125,434.4707922999514,,,,,,,,,,,,,,,,,,,,,,,,,,,,,,,,,,,,,,,,,,,,,,,,,,434.45508580002934,434.4707922999514,434.95595770003274,434.9827786999522,435.00593660003506,435.00593660003506,435.00593660003506,436.59570269996766,Scenes\092a.jpg,mid,o,1.5790457000257447,None,,,,,,,,00065,001,2026-01-20_11h58.49.978,MST_test,2024.2.0,59.81626835772207,2026-01-20 11h59.03.322922 +0530,
126,0,127,n,2.502136200084351,None,127,0,126,436.61170879995916,,,,,,,,,,,,,,,,,,,,,,,,,,,,,,,,,,,,,,,,,,,,,,,,,,436.5957954999758,436.61170879995916,437.09668640000746,437.1210209999699,437.1314135999419,437.1314135999419,437.1314135999419,439.63965619995724,Foils\101b.jpg,none,n,2.502136200084351,None,,,,,,,,00065,001,2026-01-20_11h58.49.978,MST_test,2024.2.0,59.81626835772207,2026-01-20 11h59.03.322922 +0530,
127,0,128,o,1.458538300008513,None,128,0,127,439.6557455000002,,,,,,,,,,,,,,,,,,,,,,,,,,,,,,,,,,,,,,,,,,,,,,,,,,439.63975480000954,439.6557455000002,440.1410379000008,440.1720937000355,440.19091300002765,440.19091300002765,440.19091300002765,441.6632606999483,Scenes\089a.jpg,mid,o,1.458538300008513,None,,,,,,,,00065,001,2026-01-20_11h58.49.978,MST_test,2024.2.0,59.81626835772207,2026-01-20 11h59.03.322922 +0530,
128,0,129,o,1.378982700058259,None,129,0,128,441.67945739999413,,,,,,,,,,,,,,,,,,,,,,,,,,,,,,,,,,,,,,,,,,,,,,,,,,441.66335449996404,441.67945739999413,442.1644042999251,442.1960634000134,442.21463069994934,442.21463069994934,442.21463069994934,443.6038945999462,Scenes\146a.jpg,pre,o,1.378982700058259,None,,,,,,,,00065,001,2026-01-20_11h58.49.978,MST_test,2024.2.0,59.81626835772207,2026-01-20 11h59.03.322922 +0530,
129,0,130,o,0.9506101000588387,None,130,0,129,443.61959399993066,,,,,,,,,,,,,,,,,,,,,,,,,,,,,,,,,,,,,,,,,,,,,,,,,,443.6039859999437,443.61959399993066,444.10454440000467,444.1293619000353,444.13889419997577,444.13889419997577,444.13889419997577,445.0919601999922,Scenes\168a.jpg,post,o,0.9506101000588387,None,,,,,,,,00065,001,2026-01-20_11h58.49.978,MST_test,2024.2.0,59.81626835772207,2026-01-20 11h59.03.322922 +0530,
130,0,131,o,1.1575930999824777,None,131,0,130,445.1081286999397,,,,,,,,,,,,,,,,,,,,,,,,,,,,,,,,,,,,,,,,,,,,,,,,,,445.09205650002696,445.1081286999397,445.59312939993106,445.60976969997864,445.62751959997695,445.62751959997695,445.62751959997695,446.79788600001484,Objects\029a.jpg,mid,o,1.1575930999824777,None,,,,,,,,00065,001,2026-01-20_11h58.49.978,MST_test,2024.2.0,59.81626835772207,2026-01-20 11h59.03.322922 +0530,
131,0,132,s,1.8994614999974146,None,132,0,131,446.8139841000084,,,,,,,,,,,,,,,,,,,,,,,,,,,,,,,,,,,,,,,,,,,,,,,,,,446.79797760001384,446.8139841000084,447.2992084999569,447.3291878999444,447.34997169999406,447.34997169999406,447.34997169999406,449.25651099998504,Scenes\106a.jpg,post,s,1.8994614999974146,None,,,,,,,,00065,001,2026-01-20_11h58.49.978,MST_test,2024.2.0,59.81626835772207,2026-01-20 11h59.03.322922 +0530,
132,0,133,o,1.2485603999812156,None,133,0,132,449.27272899996024,,,,,,,,,,,,,,,,,,,,,,,,,,,,,,,,,,,,,,,,,,,,,,,,,,449.25661499996204,449.27272899996024,449.75819680001587,449.79792679997627,449.8090189999202,449.8090189999202,449.8090189999202,451.06283229996916,Scenes\009a.jpg,post,o,1.2485603999812156,None,,,,,,,,00065,001,2026-01-20_11h58.49.978,MST_test,2024.2.0,59.81626835772207,2026-01-20 11h59.03.322922 +0530,
133,0,134,s,2.587317500030622,None,134,0,133,451.07920949999243,,,,,,,,,,,,,,,,,,,,,,,,,,,,,,,,,,,,,,,,,,,,,,,,,,451.06296270003077,451.07920949999243,451.5641560999211,451.58920849999413,451.5988885000115,451.5988885000115,451.5988885000115,454.19052389997523,Objects\153b.jpg,pre,s,2.587317500030622,None,,,,,,,,00065,001,2026-01-20_11h58.49.978,MST_test,2024.2.0,59.81626835772207,2026-01-20 11h59.03.322922 +0530,
134,0,135,s,1.7801910999696702,None,135,0,134,454.2065318999812,,,,,,,,,,,,,,,,,,,,,,,,,,,,,,,,,,,,,,,,,,,,,,,,,,454.19061569997575,454.2065318999812,454.6917425999418,454.7150397999212,454.7253055999754,454.7253055999754,454.7253055999754,456.51537989999633,Objects\119b.jpg,post,s,1.7801910999696702,None,,,,,,,,00065,001,2026-01-20_11h58.49.978,MST_test,2024.2.0,59.81626835772207,2026-01-20 11h59.03.322922 +0530,
135,0,136,s,0.7751403999282047,None,136,0,135,456.53134969994426,,,,,,,,,,,,,,,,,,,,,,,,,,,,,,,,,,,,,,,,,,,,,,,,,,456.51546889997553,456.53134969994426,457.01658369996585,457.03077950002626,457.0500555000035,457.0500555000035,457.0500555000035,457.8368608999299,Objects\108a.jpg,post,s,0.7751403999282047,None,,,,,,,,00065,001,2026-01-20_11h58.49.978,MST_test,2024.2.0,59.81626835772207,2026-01-20 11h59.03.322922 +0530,
136,0,137,s,1.6772482000524178,None,137,0,136,457.852768199984,,,,,,,,,,,,,,,,,,,,,,,,,,,,,,,,,,,,,,,,,,,,,,,,,,457.83695229992736,457.852768199984,458.33785120001994,458.3694554999238,458.3885893999832,458.3885893999832,458.3885893999832,460.0777692999691,Scenes\145a.jpg,pre,s,1.6772482000524178,None,,,,,,,,00065,001,2026-01-20_11h58.49.978,MST_test,2024.2.0,59.81626835772207,2026-01-20 11h59.03.322922 +0530,
137,0,138,s,4.995438200072385,None,138,0,137,460.0938273000065,,,,,,,,,,,,,,,,,,,,,,,,,,,,,,,,,,,,,,,,,,,,,,,,,,460.07786099996883,460.0938273000065,460.57906839996576,460.62175699998625,460.63011819997337,460.63011819997337,460.63011819997337,465.6305676000193,Scenes\017b.jpg,pre,s,4.995438200072385,None,,,,,,,,00065,001,2026-01-20_11h58.49.978,MST_test,2024.2.0,59.81626835772207,2026-01-20 11h59.03.322922 +0530,
138,0,139,s,1.0192927999887615,None,139,0,138,465.64660330000333,,,,,,,,,,,,,,,,,,,,,,,,,,,,,,,,,,,,,,,,,,,,,,,,,,465.6306749000214,465.64660330000333,466.13183520000894,466.1566789000062,466.1659501999384,466.1659501999384,466.1659501999384,467.18599509994965,Objects\056b.jpg,mid,s,1.0192927999887615,None,,,,,,,,00065,001,2026-01-20_11h58.49.978,MST_test,2024.2.0,59.81626835772207,2026-01-20 11h59.03.322922 +0530,
139,0,140,n,1.4228294999338686,None,140,0,139,467.20205480000004,,,,,,,,,,,,,,,,,,,,,,,,,,,,,,,,,,,,,,,,,,,,,,,,,,467.18609780003317,467.20205480000004,467.6877136999974,467.72458849998657,467.738450899953,467.738450899953,467.738450899953,469.1764474000083,Scenes\172b.jpg,mid,n,1.4228294999338686,None,,,,,,,,00065,001,2026-01-20_11h58.49.978,MST_test,2024.2.0,59.81626835772207,2026-01-20 11h59.03.322922 +0530,
140,0,141,n,1.4505292000249028,None,141,0,140,469.19248630001675,,,,,,,,,,,,,,,,,,,,,,,,,,,,,,,,,,,,,,,,,,,,,,,,,,469.1765498999739,469.19248630001675,469.677431399934,469.70051709993277,469.71095799992327,469.71095799992327,469.71095799992327,471.16679940000176,Foils\042a.jpg,none,n,1.4505292000249028,None,,,,,,,,00065,001,2026-01-20_11h58.49.978,MST_test,2024.2.0,59.81626835772207,2026-01-20 11h59.03.322922 +0530,
141,0,142,s,1.7402034999104217,None,142,0,141,471.18286739999894,,,,,,,,,,,,,,,,,,,,,,,,,,,,,,,,,,,,,,,,,,,,,,,,,,471.1668959999224,471.18286739999894,471.6679110999685,471.6915172999725,471.7013245000271,471.7013245000271,471.7013245000271,473.45819359994493,Objects\020b.jpg,mid,s,1.7402034999104217,None,,,,,,,,00065,001,2026-01-20_11h58.49.978,MST_test,2024.2.0,59.81626835772207,2026-01-20 11h59.03.322922 +0530,
142,0,143,o,0.888050000066869,None,143,0,142,473.4740217999788,,,,,,,,,,,,,,,,,,,,,,,,,,,,,,,,,,,,,,,,,,,,,,,,,,473.4582896999782,473.4740217999788,473.9592241999926,473.99242429994047,474.0093058999628,474.0093058999628,474.0093058999628,474.912818999961,Scenes\080b.jpg,post,o,0.888050000066869,None,,,,,,,,00065,001,2026-01-20_11h58.49.978,MST_test,2024.2.0,59.81626835772207,2026-01-20 11h59.03.322922 +0530,
143,0,144,o,0.9546855000080541,None,144,0,143,474.92924079997465,,,,,,,,,,,,,,,,,,,,,,,,,,,,,,,,,,,,,,,,,,,,,,,,,,474.91291650000494,474.92924079997465,475.4142233999446,475.4290297999978,475.44772259995807,475.44772259995807,475.44772259995807,476.41836579993833,Objects\180a.jpg,pre,o,0.9546855000080541,None,,,,,,,,00065,001,2026-01-20_11h58.49.978,MST_test,2024.2.0,59.81626835772207,2026-01-20 11h59.03.322922 +0530,
144,0,145,s,2.2091991999186575,None,145,0,144,476.4343711999245,,,,,,,,,,,,,,,,,,,,,,,,,,,,,,,,,,,,,,,,,,,,,,,,,,476.41846590000205,476.4343711999245,476.92019440000877,476.9442819999531,476.9529426000081,476.9529426000081,476.9529426000081,479.178058499936,Objects\102b.jpg,post,s,2.2091991999186575,None,,,,,,,,00065,001,2026-01-20_11h58.49.978,MST_test,2024.2.0,59.81626835772207,2026-01-20 11h59.03.322922 +0530,
145,0,146,s,1.0732693000463769,None,146,0,145,479.19414269994013,,,,,,,,,,,,,,,,,,,,,,,,,,,,,,,,,,,,,,,,,,,,,,,,,,479.17816270003095,479.19414269994013,479.67923739994876,479.70004040002823,479.7126424999442,479.7126424999442,479.7126424999442,480.800396299921,Objects\032b.jpg,post,s,1.0732693000463769,None,,,,,,,,00065,001,2026-01-20_11h58.49.978,MST_test,2024.2.0,59.81626835772207,2026-01-20 11h59.03.322922 +0530,
146,0,147,s,1.906815499998629,None,147,0,146,480.8164146000054,,,,,,,,,,,,,,,,,,,,,,,,,,,,,,,,,,,,,,,,,,,,,,,,,,480.800490399939,480.8164146000054,481.30160849995445,481.3260290999897,481.33483409998007,481.33483409998007,481.33483409998007,483.24240779993124,Objects\069b.jpg,pre,s,1.906815499998629,None,,,,,,,,00065,001,2026-01-20_11h58.49.978,MST_test,2024.2.0,59.81626835772207,2026-01-20 11h59.03.322922 +0530,
147,0,148,o,1.512620500056073,None,148,0,147,483.2583885999629,,,,,,,,,,,,,,,,,,,,,,,,,,,,,,,,,,,,,,,,,,,,,,,,,,483.2425054999767,483.2583885999629,483.74336969992146,483.7720085999463,483.7935932999244,483.7935932999244,483.7935932999244,485.31630629999563,Scenes\058a.jpg,mid,o,1.512620500056073,None,,,,,,,,00065,001,2026-01-20_11h58.49.978,MST_test,2024.2.0,59.81626835772207,2026-01-20 11h59.03.322922 +0530,
148,0,149,s,2.302540999953635,None,149,0,148,485.33233070001006,,,,,,,,,,,,,,,,,,,,,,,,,,,,,,,,,,,,,,,,,,,,,,,,,,485.31639839999843,485.33233070001006,485.81740429997444,485.8569105999777,485.8675822999794,485.8675822999794,485.8675822999794,488.1761097999988,Scenes\189b.jpg,mid,s,2.302540999953635,None,,,,,,,,00065,001,2026-01-20_11h58.49.978,MST_test,2024.2.0,59.81626835772207,2026-01-20 11h59.03.322922 +0530,
149,0,150,s,1.1945209000259638,None,150,0,149,488.19233849993907,,,,,,,,,,,,,,,,,,,,,,,,,,,,,,,,,,,,,,,,,,,,,,,,,,488.17620470002294,488.19233849993907,488.6774641999509,488.6996235999977,488.7108172000153,488.7108172000153,488.7108172000153,489.91546469996683,Objects\179b.jpg,pre,s,1.1945209000259638,None,,,,,,,,00065,001,2026-01-20_11h58.49.978,MST_test,2024.2.0,59.81626835772207,2026-01-20 11h59.03.322922 +0530,
,,,,,,,,,,,,,,,,,,,,,,,,,,,,,,,,,,,,,,,,,,,,,,,,,,,,,,,,,,,,,,,,,,,,,,,,489.91553969995584,489.93176159996074,489.93176159996074,491.63819279999007,space,1.69345860008616,None,00065,001,2026-01-20_11h58.49.978,MST_test,2024.2.0,59.81626835772207,2026-01-20 11h59.03.322922 +0530,
