Sl_no,image_path,thisN,thisTrialN,thisRepN,key_resp_5.keys,key_resp_5.rt,key_resp_5.duration,key_resp_7.keys,key_resp_7.rt,key_resp_7.duration,key_resp_9.keys,key_resp_9.rt,key_resp_9.duration,key_resp_8.keys,key_resp_8.rt,key_resp_8.duration,practice.thisRepN,practice.thisTrialN,practice.thisN,trials.thisRepN,trials.thisTrialN,trials.thisN,thisRow.t,notes,welcome_page.started,text.started,key_resp.started,welcome_page.stopped,key_resp.keys,key_resp.rt,key_resp.duration,instructions.started,ins.started,key_resp_2.started,instructions.stopped,key_resp_2.keys,key_resp_2.rt,key_resp_2.duration,instructions_2.started,text_10.started,key_resp_10.started,instructions_2.stopped,key_resp_10.keys,key_resp_10.rt,key_resp_10.duration,objects_only_instruction.started,text_3.started,key_resp_3.started,objects_only_instruction.stopped,key_resp_3.keys,key_resp_3.rt,key_resp_3.duration,ISI.started,text_4.started,ISI.stopped,practice_block.started,image.started,text_5.started,key_resp_5.started,practice_block.stopped,practice.key_resp_5.keys,practice.key_resp_5.rt,practice.key_resp_5.duration,indoor_outdoor.started,indoor_outdoor.stopped,practice.key_resp_7.keys,text_4.stopped,image.stopped,text_5.stopped,key_resp_5.stopped,text_7.started,key_resp_7.started,practice.key_resp_7.rt,practice.key_resp_7.duration,practice_to_main.started,text_2.started,key_resp_4.started,practice_to_main.stopped,key_resp_4.keys,key_resp_4.rt,key_resp_4.duration,objects.started,image_2.started,text_9.started,key_resp_9.started,objects.stopped,trials.key_resp_9.keys,trials.key_resp_9.rt,trials.key_resp_9.duration,encoding_task.started,encoding_task.stopped,trials.key_resp_8.keys,image_2.stopped,text_9.stopped,key_resp_9.stopped,text_8.started,key_resp_8.started,trials.key_resp_8.rt,trials.key_resp_8.duration,end_experiment.started,text_6.started,key_resp_6.started,end_experiment.stopped,key_resp_6.keys,key_resp_6.rt,key_resp_6.duration,list_of_stimuli,encoding_task_accuracy,participant,session,date,expName,psychopyVersion,frameRate,expStart,
,,,,,,,,,,,,,,,,,,,,,,,,,0.001110799959860742,0.002699799952097237,0.002699799952097237,65.47555839997949,space,65.466698299977,None,,,,,,,,,,,,,,,,,,,,,,,,,,,,,,,,,,,,,,,,,,,,,,,,,,,,,,,,,,,,,,,,,,,,,,,,,,,,,,00064,001,2026-01-19_21h51.27.317,MST_task,2024.2.0,59.96710205561136,2026-01-19 21h51.36.225488 +0530,
,,,,,,,,,,,,,,,,,,,,,,,,,,,,,,,,65.47559389995877,65.4896863999893,65.4896863999893,80.47364229999948,space,14.971915199945215,None,,,,,,,,,,,,,,,,,,,,,,,,,,,,,,,,,,,,,,,,,,,,,,,,,,,,,,,,,,,,,,,,,,,,,,,00064,001,2026-01-19_21h51.27.317,MST_task,2024.2.0,59.96710205561136,2026-01-19 21h51.36.225488 +0530,
,,,,,,,,,,,,,,,,,,,,,,,,,,,,,,,,,,,,,,,80.4736727999989,80.48974279995309,80.48974279995309,98.10693989996798,space,17.61091160000069,None,,,,,,,,,,,,,,,,,,,,,,,,,,,,,,,,,,,,,,,,,,,,,,,,,,,,,,,,,,,,,,,,00064,001,2026-01-19_21h51.27.317,MST_task,2024.2.0,59.96710205561136,2026-01-19 21h51.36.225488 +0530,
,,,,,,,,,,,,,,,,,,,,,,,,,,,,,,,,,,,,,,,,,,,,,,98.10697079997044,98.12320189998718,98.12320189998718,145.0734800999635,space,46.938391700037755,None,,,,,,,,,,,,,,,,,,,,,,,,,,,,,,,,,,,,,,,,,,,,,,,,,,,,,,,,,00064,001,2026-01-19_21h51.27.317,MST_task,2024.2.0,59.96710205561136,2026-01-19 21h51.36.225488 +0530,
9,practice_images/180a.jpg,0,0,1,f,1.471780400024727,0.1680136999930255,None,,,,,,,,,1,0,0,,,,145.0961087999749,,,,,,,,,,,,,,,,,,,,,,,,,,,,,,145.09390849998454,145.0961087999749,145.58984619996045,145.60320139996475,145.61360639997292,145.61360639997292,145.61360639997292,148.5899972000043,f,1.471780400024727,0.1680136999930255,148.59176979999756,148.59179139998741,None,,,,,,,,,,,,,,,,,,,,,,,,,,,,,,,,,,,,,,,,,,,00064,001,2026-01-19_21h51.27.317,MST_task,2024.2.0,59.96710205561136,2026-01-19 21h51.36.225488 +0530,
3,practice_images/037a.jpg,1,1,1,f,1.4106762000010349,0.17600670002866536,None,,,,,,,,,1,1,1,,,,148.60641299997224,,,,,,,,,,,,,,,,,,,,,,,,,,,,,,148.5918666999787,148.60641299997224,149.09022179996828,149.09891949995654,149.10660949995508,149.10660949995508,149.10660949995508,152.09008519997587,f,1.4106762000010349,0.17600670002866536,152.090127799951,152.09014139999636,None,149.10660949995508,152.10641639999812,152.10641639999812,152.10641639999812,,,,,,,,,,,,,,,,,,,,,,,,,,,,,,,,,,,,,,,00064,001,2026-01-19_21h51.27.317,MST_task,2024.2.0,59.96710205561136,2026-01-19 21h51.36.225488 +0530,
10,practice_images/182a.jpg,2,2,1,f,0.9345077000325546,0.21590449998620898,None,,,,,,,,,1,2,2,,,,152.10641639999812,,,,,,,,,,,,,,,,,,,,,,,,,,,,,,152.0902051999583,152.10641639999812,152.58993849996477,152.5977609999827,152.6068808999844,152.6068808999844,152.6068808999844,155.59013809997123,f,0.9345077000325546,0.21590449998620898,155.59018529998139,155.59019839996472,None,152.6068808999844,155.60635869996622,155.60635869996622,155.60635869996622,,,,,,,,,,,,,,,,,,,,,,,,,,,,,,,,,,,,,,,00064,001,2026-01-19_21h51.27.317,MST_task,2024.2.0,59.96710205561136,2026-01-19 21h51.36.225488 +0530,
5,practice_images/139a.jpg,3,3,1,j,1.5382106000324711,0.21600000001490116,None,,,,,,,,,1,3,3,,,,155.60635869996622,,,,,,,,,,,,,,,,,,,,,,,,,,,,,,155.59026169998106,155.60635869996622,156.09002359997248,156.0981053999858,156.10664249997353,156.10664249997353,156.10664249997353,159.09032019996084,j,1.5382106000324711,0.21600000001490116,159.0903624999919,159.0903761999798,None,156.10664249997353,159.10641109995777,159.10641109995777,159.10641109995777,,,,,,,,,,,,,,,,,,,,,,,,,,,,,,,,,,,,,,,00064,001,2026-01-19_21h51.27.317,MST_task,2024.2.0,59.96710205561136,2026-01-19 21h51.36.225488 +0530,
7,practice_images/166a.jpg,4,4,1,f,1.4143964999821037,0.22406859998591244,None,,,,,,,,,1,4,4,,,,159.10641109995777,,,,,,,,,,,,,,,,,,,,,,,,,,,,,,159.0904421999585,159.10641109995777,159.5899897000054,159.59805139998207,159.60663029999705,159.60663029999705,159.60663029999705,162.59022009995533,f,1.4143964999821037,0.22406859998591244,162.59026009996887,162.59027299995068,None,159.60663029999705,162.6065571999643,162.6065571999643,162.6065571999643,,,,,,,,,,,,,,,,,,,,,,,,,,,,,,,,,,,,,,,00064,001,2026-01-19_21h51.27.317,MST_task,2024.2.0,59.96710205561136,2026-01-19 21h51.36.225488 +0530,
1,practice_images/013a.jpg,5,5,1,None,,,f,0.21011889999499545,None,,,,,,,1,5,5,,,,162.6065571999643,,,,,,,,,,,,,,,,,,,,,,,,,,,,,,162.59034329996211,162.6065571999643,163.0901748999604,163.10205929999938,163.1066695000045,163.1066695000045,163.1066695000045,166.09023809997598,None,,,166.09305569995195,166.3236181999673,f,163.1066695000045,166.1065923999995,166.1065923999995,166.1065923999995,166.1065923999995,166.1065923999995,0.21011889999499545,None,,,,,,,,,,,,,,,,,,,,,,,,,,,,,,,,,,,00064,001,2026-01-19_21h51.27.317,MST_task,2024.2.0,59.96710205561136,2026-01-19 21h51.36.225488 +0530,
2,practice_images/031a.jpg,6,6,1,f,2.10072729998501,0.19255939999129623,None,,,,,,,,,1,6,6,,,,166.3398167999694,,,,,,,,,,,,,,,,,,,,,,,,,,,,,,166.32370339997578,166.3398167999694,166.8235316000064,166.83214709995082,166.83999979996588,166.83999979996588,166.83999979996588,169.82368979998864,f,2.10072729998501,0.19255939999129623,169.82372819999,169.8237418999779,None,166.83999979996588,169.83979759999784,169.83979759999784,169.83979759999784,,,,,,,,,,,,,,,,,,,,,,,,,,,,,,,,,,,,,,,00064,001,2026-01-19_21h51.27.317,MST_task,2024.2.0,59.96710205561136,2026-01-19 21h51.36.225488 +0530,
6,practice_images/158a.jpg,7,7,1,f,1.6407158999936655,0.23211789998458698,None,,,,,,,,,1,7,7,,,,169.83979759999784,,,,,,,,,,,,,,,,,,,,,,,,,,,,,,169.82381499995245,169.83979759999784,170.32346719998168,170.33184979995713,170.3400507000042,170.3400507000042,170.3400507000042,173.32345889997669,f,1.6407158999936655,0.23211789998458698,173.32349669997348,173.32350989995757,None,170.3400507000042,173.3398576999898,173.3398576999898,173.3398576999898,,,,,,,,,,,,,,,,,,,,,,,,,,,,,,,,,,,,,,,00064,001,2026-01-19_21h51.27.317,MST_task,2024.2.0,59.96710205561136,2026-01-19 21h51.36.225488 +0530,
4,practice_images/002b.jpg,8,8,1,j,1.1247899000300094,0.1839872999698855,None,,,,,,,,,1,8,8,,,,173.3398576999898,,,,,,,,,,,,,,,,,,,,,,,,,,,,,,173.32357339997543,173.3398576999898,173.82350189995486,173.8319297999842,173.84004109998932,173.84004109998932,173.84004109998932,176.82373839995125,j,1.1247899000300094,0.1839872999698855,176.82378009997774,176.8237928999588,None,173.84004109998932,176.83985619997839,176.83985619997839,176.83985619997839,,,,,,,,,,,,,,,,,,,,,,,,,,,,,,,,,,,,,,,00064,001,2026-01-19_21h51.27.317,MST_task,2024.2.0,59.96710205561136,2026-01-19 21h51.36.225488 +0530,
8,practice_images/178a.jpg,9,9,1,f,1.0487252000020817,0.23187240003608167,None,,,,,,,,,1,9,9,,,,176.83985619997839,,,,,,,,,,,,,,,,,,,,,,,,,,,,,,176.8238585999934,176.83985619997839,177.32338089996483,177.33330239995848,177.34009839995997,177.34009839995997,177.34009839995997,180.3236026999657,f,1.0487252000020817,0.23187240003608167,180.32364029996097,180.32365330000175,None,177.34009839995997,180.33990939997602,180.33990939997602,180.33990939997602,,,,,,,,,,,,,,,,,,,,,,,,,,,,,,,,,,,,,,,00064,001,2026-01-19_21h51.27.317,MST_task,2024.2.0,59.96710205561136,2026-01-19 21h51.36.225488 +0530,
,,,,,,,,,,,,,,,,,,,,,,,,,,,,,,,,,,,,,,,,,,,,,,,,,,,,,,,,,,,,,,,,,,,,,,,,,,,180.3236942999647,180.33990939997602,180.33990939997602,192.9403134000022,space,12.593528600002173,None,,,,,,,,,,,,,,,,,,,,,,,,,,,,00064,001,2026-01-19_21h51.27.317,MST_task,2024.2.0,59.96710205561136,2026-01-19 21h51.36.225488 +0530,
,Scenes\021a.jpg,0,0,1,,,,,,,j,2.2482079000328667,0.19200849998742342,None,,,,,,1,0,0,192.95648539997637,,,,,,,,,,,,,,,,,,,,,,,,,,,,,,192.94107359996997,192.95648539997637,193.44018959999084,,,,,,,,,,,,193.4685111999861,,,,,,,,,,,,,,,193.46523689996684,193.4685111999861,193.4685111999861,193.4685111999861,196.45680129999528,j,2.2482079000328667,0.19200849998742342,196.45853069995064,196.4585496999789,None,,,,,,,,,,,,,,,,,00064,001,2026-01-19_21h51.27.317,MST_task,2024.2.0,59.96710205561136,2026-01-19 21h51.36.225488 +0530,
,Scenes\034a.jpg,1,0,2,,,,,,,j,1.6551413999986835,0.1999871000298299,None,,,,,,2,0,1,196.47320509998826,,,,,,,,,,,,,,,,,,,,,,,,,,,,,,196.45861689996673,196.47320509998826,196.95678690000204,,,,,,,,,,,,196.97351839998737,,,,,,,,,,,,,,,196.97024549997877,196.97351839998737,196.97351839998737,196.97351839998737,199.9570851000026,j,1.6551413999986835,0.1999871000298299,199.95712799998,199.9571393999504,None,199.97320019995095,199.97320019995095,199.97320019995095,,,,,,,,,,,,,,00064,001,2026-01-19_21h51.27.317,MST_task,2024.2.0,59.96710205561136,2026-01-19 21h51.36.225488 +0530,
,Scenes\032a.jpg,2,0,3,,,,,,,j,1.2313786000013351,0.20858490001410246,None,,,,,,3,0,2,199.97320019995095,,,,,,,,,,,,,,,,,,,,,,,,,,,,,,199.95723040000303,199.97320019995095,200.4568438999704,,,,,,,,,,,,200.48527109995484,,,,,,,,,,,,,,,200.48243410000578,200.48527109995484,200.48527109995484,200.48527109995484,203.47333419998176,j,1.2313786000013351,0.20858490001410246,203.47337709995918,203.47338929999387,None,,,,,,,,,,,,,,,,,00064,001,2026-01-19_21h51.27.317,MST_task,2024.2.0,59.96710205561136,2026-01-19 21h51.36.225488 +0530,
,Scenes\065a.jpg,3,0,4,,,,,,,j,1.3904849999817088,0.14399890002096072,None,,,,,,4,0,3,203.4898506999598,,,,,,,,,,,,,,,,,,,,,,,,,,,,,,203.4734591000015,203.4898506999598,203.97343670000555,,,,,,,,,,,,203.99033669999335,,,,,,,,,,,,,,,203.98721859999932,203.99033669999335,203.99033669999335,203.99033669999335,206.9738129999605,j,1.3904849999817088,0.14399890002096072,206.9738600999699,206.9738711999962,None,206.98975379997864,206.98975379997864,206.98975379997864,,,,,,,,,,,,,,00064,001,2026-01-19_21h51.27.317,MST_task,2024.2.0,59.96710205561136,2026-01-19 21h51.36.225488 +0530,
,Scenes\153a.jpg,4,0,5,,,,,,,j,1.2102069000247866,0.14398959995014593,None,,,,,,5,0,4,206.98975379997864,,,,,,,,,,,,,,,,,,,,,,,,,,,,,,206.97397359996103,206.98975379997864,207.47335729998304,,,,,,,,,,,,207.49046219995944,,,,,,,,,,,,,,,207.48553109995555,207.49046219995944,207.49046219995944,207.49046219995944,210.47384409996448,j,1.2102069000247866,0.14398959995014593,210.47388609999325,210.47389699995983,None,210.48985049995827,210.48985049995827,210.48985049995827,,,,,,,,,,,,,,00064,001,2026-01-19_21h51.27.317,MST_task,2024.2.0,59.96710205561136,2026-01-19 21h51.36.225488 +0530,
,Scenes\177a.jpg,5,0,6,,,,,,,j,0.9838075999869034,0.1507844000007026,None,,,,,,6,0,5,210.48985049995827,,,,,,,,,,,,,,,,,,,,,,,,,,,,,,210.47399529995164,210.48985049995827,210.9734178999788,,,,,,,,,,,,210.99013930000365,,,,,,,,,,,,,,,210.97938799997792,210.99013930000365,210.99013930000365,210.99013930000365,213.9738458999782,j,0.9838075999869034,0.1507844000007026,213.97389249998378,213.97390369995264,None,213.98988189996453,213.98988189996453,213.98988189996453,,,,,,,,,,,,,,00064,001,2026-01-19_21h51.27.317,MST_task,2024.2.0,59.96710205561136,2026-01-19 21h51.36.225488 +0530,
,Scenes\051a.jpg,6,0,7,,,,,,,j,1.0184905999922194,0.15191010001581162,None,,,,,,7,0,6,213.98988189996453,,,,,,,,,,,,,,,,,,,,,,,,,,,,,,213.97396989999106,213.98988189996453,214.4734308999614,,,,,,,,,,,,214.49055149999913,,,,,,,,,,,,,,,214.486124499992,214.49055149999913,214.49055149999913,214.49055149999913,217.47364059998654,j,1.0184905999922194,0.15191010001581162,217.4736830999609,217.47369379998418,None,217.48987979994854,217.48987979994854,217.48987979994854,,,,,,,,,,,,,,00064,001,2026-01-19_21h51.27.317,MST_task,2024.2.0,59.96710205561136,2026-01-19 21h51.36.225488 +0530,
,Objects\168a.jpg,7,0,8,,,,,,,f,1.4236521000275388,0.17685059999348596,None,,,,,,8,0,7,217.48987979994854,,,,,,,,,,,,,,,,,,,,,,,,,,,,,,217.4737886999501,217.48987979994854,217.9735354000004,,,,,,,,,,,,217.99703929998213,,,,,,,,,,,,,,,217.99464859999716,217.99703929998213,217.99703929998213,217.99703929998213,220.9901314000017,f,1.4236521000275388,0.17685059999348596,220.99320189998252,220.9932201000047,None,,,,,,,,,,,,,,,,,00064,001,2026-01-19_21h51.27.317,MST_task,2024.2.0,59.96710205561136,2026-01-19 21h51.36.225488 +0530,
,Objects\096a.jpg,8,0,9,,,,,,,f,1.2342827999964356,0.19197949999943376,None,,,,,,9,0,8,221.00642549997428,,,,,,,,,,,,,,,,,,,,,,,,,,,,,,220.99332959996536,221.00642549997428,221.4899577999604,,,,,,,,,,,,221.50664709997363,,,,,,,,,,,,,,,221.50020239996957,221.50664709997363,221.50664709997363,221.50664709997363,224.49054919998161,f,1.2342827999964356,0.19197949999943376,224.49059780000243,224.49060919997282,None,224.5064318999648,224.5064318999648,224.5064318999648,,,,,,,,,,,,,,00064,001,2026-01-19_21h51.27.317,MST_task,2024.2.0,59.96710205561136,2026-01-19 21h51.36.225488 +0530,
,Objects\009a.jpg,9,0,10,,,,,,,f,1.3744639999931678,0.14403510000556707,None,,,,,,10,0,9,224.5064318999648,,,,,,,,,,,,,,,,,,,,,,,,,,,,,,224.49067879997892,224.5064318999648,224.98997699999018,,,,,,,,,,,,225.0066186999902,,,,,,,,,,,,,,,224.99884379998548,225.0066186999902,225.0066186999902,225.0066186999902,227.99027690000366,f,1.3744639999931678,0.14403510000556707,227.9903212999925,227.99033259996213,None,228.0064326999709,228.0064326999709,228.0064326999709,,,,,,,,,,,,,,00064,001,2026-01-19_21h51.27.317,MST_task,2024.2.0,59.96710205561136,2026-01-19 21h51.36.225488 +0530,
,Objects\118a.jpg,10,0,11,,,,,,,f,0.9306162999710068,0.19141249998938292,None,,,,,,11,0,10,228.0064326999709,,,,,,,,,,,,,,,,,,,,,,,,,,,,,,227.99039900000207,228.0064326999709,228.49003519996768,,,,,,,,,,,,228.50667959998827,,,,,,,,,,,,,,,228.50029759999597,228.50667959998827,228.50667959998827,228.50667959998827,231.49034309998387,f,0.9306162999710068,0.19141249998938292,231.4903864999651,231.4903975999914,None,231.50638109998545,231.50638109998545,231.50638109998545,,,,,,,,,,,,,,00064,001,2026-01-19_21h51.27.317,MST_task,2024.2.0,59.96710205561136,2026-01-19 21h51.36.225488 +0530,
,Objects\093a.jpg,11,0,12,,,,,,,j,1.1430360000231303,0.17699680000077933,None,,,,,,12,0,11,231.50638109998545,,,,,,,,,,,,,,,,,,,,,,,,,,,,,,231.4904635999701,231.50638109998545,231.99010339996312,,,,,,,,,,,,232.006629099953,,,,,,,,,,,,,,,231.99960479995934,232.006629099953,232.006629099953,232.006629099953,234.99025370000163,j,1.1430360000231303,0.17699680000077933,234.9902956999722,234.99030669999775,None,235.00643519998994,235.00643519998994,235.00643519998994,,,,,,,,,,,,,,00064,001,2026-01-19_21h51.27.317,MST_task,2024.2.0,59.96710205561136,2026-01-19 21h51.36.225488 +0530,
,Objects\078a.jpg,12,0,13,,,,,,,j,1.3539998000487685,0.15209009998943657,None,,,,,,13,0,12,235.00643519998994,,,,,,,,,,,,,,,,,,,,,,,,,,,,,,234.990373299981,235.00643519998994,235.48996549996082,,,,,,,,,,,,235.5067402999848,,,,,,,,,,,,,,,235.50128309999127,235.5067402999848,235.5067402999848,235.5067402999848,238.49047199997585,j,1.3539998000487685,0.15209009998943657,238.49051699996926,238.49052839999786,None,238.50638789997902,238.50638789997902,238.50638789997902,,,,,,,,,,,,,,00064,001,2026-01-19_21h51.27.317,MST_task,2024.2.0,59.96710205561136,2026-01-19 21h51.36.225488 +0530,
,Objects\154a.jpg,13,0,14,,,,,,,j,0.846874300041236,0.15995639999164268,None,,,,,,14,0,13,238.50638789997902,,,,,,,,,,,,,,,,,,,,,,,,,,,,,,238.4905949999811,238.50638789997902,238.99004379997496,,,,,,,,,,,,239.00660599995172,,,,,,,,,,,,,,,238.99276120000286,239.00660599995172,239.00660599995172,239.00660599995172,241.99061249999795,j,0.846874300041236,0.15995639999164268,241.99065959994914,241.9906710999785,None,242.00644889997784,242.00644889997784,242.00644889997784,,,,,,,,,,,,,,00064,001,2026-01-19_21h51.27.317,MST_task,2024.2.0,59.96710205561136,2026-01-19 21h51.36.225488 +0530,
,Scenes\107a.jpg,14,0,15,,,,,,,j,1.8154689999646507,0.192321999988053,None,,,,,,15,0,14,242.00644889997784,,,,,,,,,,,,,,,,,,,,,,,,,,,,,,241.99077669996768,242.00644889997784,242.48998089996167,,,,,,,,,,,,242.50927009998122,,,,,,,,,,,,,,,242.50685499998508,242.50927009998122,242.50927009998122,242.50927009998122,245.50667159998557,j,1.8154689999646507,0.192321999988053,245.50833300000522,245.50835239997832,None,,,,,,,,,,,,,,,,,00064,001,2026-01-19_21h51.27.317,MST_task,2024.2.0,59.96710205561136,2026-01-19 21h51.36.225488 +0530,
,Scenes\131a.jpg,15,0,16,,,,,,,j,0.9734607000136748,0.18472280004061759,None,,,,,,16,0,15,245.52294469997287,,,,,,,,,,,,,,,,,,,,,,,,,,,,,,245.50842289999127,245.52294469997287,246.00669019995257,,,,,,,,,,,,246.0234977999935,,,,,,,,,,,,,,,246.01569699996617,246.0234977999935,246.0234977999935,246.0234977999935,249.00720049999654,j,0.9734607000136748,0.18472280004061759,249.00724740000442,249.00725839997176,None,249.02308989997255,249.02308989997255,249.02308989997255,,,,,,,,,,,,,,00064,001,2026-01-19_21h51.27.317,MST_task,2024.2.0,59.96710205561136,2026-01-19 21h51.36.225488 +0530,
,Scenes\014a.jpg,16,0,17,,,,,,,j,0.8419082000036724,0.16099920001579449,None,,,,,,17,0,16,249.02308989997255,,,,,,,,,,,,,,,,,,,,,,,,,,,,,,249.00732589996187,249.02308989997255,249.50681219995022,,,,,,,,,,,,249.52352099999553,,,,,,,,,,,,,,,249.51186899997992,249.52352099999553,249.52352099999553,249.52352099999553,252.50707579997834,j,0.8419082000036724,0.16099920001579449,252.50712159997784,252.50713319994975,None,252.52307909994852,252.52307909994852,252.52307909994852,,,,,,,,,,,,,,00064,001,2026-01-19_21h51.27.317,MST_task,2024.2.0,59.96710205561136,2026-01-19 21h51.36.225488 +0530,
,Scenes\141a.jpg,17,0,18,,,,,,,j,0.8700583000318147,0.18398899998283014,None,,,,,,18,0,17,252.52307909994852,,,,,,,,,,,,,,,,,,,,,,,,,,,,,,252.50720249995356,252.52307909994852,253.00666469999123,,,,,,,,,,,,253.02354399999604,,,,,,,,,,,,,,,253.01824049995048,253.02354399999604,253.02354399999604,253.02354399999604,256.00702889997046,j,0.8700583000318147,0.18398899998283014,256.00707239995245,256.0070836999803,None,256.022976999986,256.022976999986,256.022976999986,,,,,,,,,,,,,,00064,001,2026-01-19_21h51.27.317,MST_task,2024.2.0,59.96710205561136,2026-01-19 21h51.36.225488 +0530,
,Scenes\066a.jpg,18,0,19,,,,,,,j,1.4821695000282489,0.1837649999652058,None,,,,,,19,0,18,256.022976999986,,,,,,,,,,,,,,,,,,,,,,,,,,,,,,256.0071808999637,256.022976999986,256.5067596999579,,,,,,,,,,,,256.52365569997346,,,,,,,,,,,,,,,256.5176835999591,256.52365569997346,256.52365569997346,256.52365569997346,259.506948299997,j,1.4821695000282489,0.1837649999652058,259.5069897999638,259.5070007999893,None,259.52299619995756,259.52299619995756,259.52299619995756,,,,,,,,,,,,,,00064,001,2026-01-19_21h51.27.317,MST_task,2024.2.0,59.96710205561136,2026-01-19 21h51.36.225488 +0530,
,Scenes\172a.jpg,19,0,20,,,,,,,j,1.1910375999868847,0.16704730002675205,None,,,,,,20,0,19,259.52299619995756,,,,,,,,,,,,,,,,,,,,,,,,,,,,,,259.50711019994924,259.52299619995756,260.00671279995004,,,,,,,,,,,,260.0234086999553,,,,,,,,,,,,,,,260.0197642999701,260.0234086999553,260.0234086999553,260.0234086999553,263.0069919999805,j,1.1910375999868847,0.16704730002675205,263.0070341999526,263.0070455999812,None,263.0230584999663,263.0230584999663,263.0230584999663,,,,,,,,,,,,,,00064,001,2026-01-19_21h51.27.317,MST_task,2024.2.0,59.96710205561136,2026-01-19 21h51.36.225488 +0530,
,Scenes\167a.jpg,20,0,21,,,,,,,f,0.97487859998364,0.2486662000301294,None,,,,,,21,0,20,263.0230584999663,,,,,,,,,,,,,,,,,,,,,,,,,,,,,,263.0071115999599,263.0230584999663,263.5067757999641,,,,,,,,,,,,263.5263044000021,,,,,,,,,,,,,,,263.5239383999724,263.5263044000021,263.5263044000021,263.5263044000021,266.5233411999652,f,0.97487859998364,0.2486662000301294,266.52338509995025,266.523397699988,None,,,,,,,,,,,,,,,,,00064,001,2026-01-19_21h51.27.317,MST_task,2024.2.0,59.96710205561136,2026-01-19 21h51.36.225488 +0530,
,Objects\147a.jpg,21,0,22,,,,,,,f,2.084679600025993,0.168001199956052,None,,,,,,22,0,21,266.53974829998333,,,,,,,,,,,,,,,,,,,,,,,,,,,,,,266.52349920000415,266.53974829998333,267.0232563999598,,,,,,,,,,,,267.04065689997515,,,,,,,,,,,,,,,267.0350739999558,267.04065689997515,267.04065689997515,267.04065689997515,270.02362059999723,f,2.084679600025993,0.168001199956052,270.0257144999923,270.02573299995856,None,270.03979269997217,270.03979269997217,270.03979269997217,,,,,,,,,,,,,,00064,001,2026-01-19_21h51.27.317,MST_task,2024.2.0,59.96710205561136,2026-01-19 21h51.36.225488 +0530,
,Objects\102a.jpg,22,0,23,,,,,,,f,0.9689850000431761,0.1602943000034429,None,,,,,,23,0,22,270.03979269997217,,,,,,,,,,,,,,,,,,,,,,,,,,,,,,270.0258040999761,270.03979269997217,270.52318999997806,,,,,,,,,,,,270.54003159998683,,,,,,,,,,,,,,,270.5326256999979,270.54003159998683,270.54003159998683,270.54003159998683,273.5238056999515,f,0.9689850000431761,0.1602943000034429,273.5238682999625,273.52388009999413,None,273.53982609999366,273.53982609999366,273.53982609999366,,,,,,,,,,,,,,00064,001,2026-01-19_21h51.27.317,MST_task,2024.2.0,59.96710205561136,2026-01-19 21h51.36.225488 +0530,
,Objects\025a.jpg,23,0,24,,,,,,,j,0.9417395000346005,0.1754106999724172,None,,,,,,24,0,23,273.53982609999366,,,,,,,,,,,,,,,,,,,,,,,,,,,,,,273.5239505000063,273.53982609999366,274.02333080000244,,,,,,,,,,,,274.0399574000039,,,,,,,,,,,,,,,274.02587329997914,274.0399574000039,274.0399574000039,274.0399574000039,277.0235359999933,j,0.9417395000346005,0.1754106999724172,277.0235799999791,277.02359129994875,None,277.03979969996726,277.03979969996726,277.03979969996726,,,,,,,,,,,,,,00064,001,2026-01-19_21h51.27.317,MST_task,2024.2.0,59.96710205561136,2026-01-19 21h51.36.225488 +0530,
,Objects\164a.jpg,24,0,25,,,,,,,f,1.233721799973864,0.20019499998306856,None,,,,,,25,0,24,277.03979969996726,,,,,,,,,,,,,,,,,,,,,,,,,,,,,,277.02368859999115,277.03979969996726,277.523260499991,,,,,,,,,,,,277.54006309999386,,,,,,,,,,,,,,,277.53247109998483,277.54006309999386,277.54006309999386,277.54006309999386,280.5234959999798,f,1.233721799973864,0.20019499998306856,280.52354399999604,280.5235557999695,None,280.53979710000567,280.53979710000567,280.53979710000567,,,,,,,,,,,,,,00064,001,2026-01-19_21h51.27.317,MST_task,2024.2.0,59.96710205561136,2026-01-19 21h51.36.225488 +0530,
,Objects\108a.jpg,25,0,26,,,,,,,j,1.3573932000435889,0.15117869997629896,None,,,,,,26,0,25,280.53979710000567,,,,,,,,,,,,,,,,,,,,,,,,,,,,,,280.52365519996965,280.53979710000567,281.0234469999559,,,,,,,,,,,,281.0401500999578,,,,,,,,,,,,,,,281.02630299999146,281.0401500999578,281.0401500999578,281.0401500999578,284.02377659996273,j,1.3573932000435889,0.15117869997629896,284.02381769998465,284.02382849995047,None,284.0398738999502,284.0398738999502,284.0398738999502,,,,,,,,,,,,,,00064,001,2026-01-19_21h51.27.317,MST_task,2024.2.0,59.96710205561136,2026-01-19 21h51.36.225488 +0530,
,Objects\073a.jpg,26,0,27,,,,,,,f,0.9612895000027493,0.191776400024537,None,,,,,,27,0,26,284.0398738999502,,,,,,,,,,,,,,,,,,,,,,,,,,,,,,284.0239262999967,284.0398738999502,284.52351470000576,,,,,,,,,,,,284.5400488000014,,,,,,,,,,,,,,,284.5331310000038,284.5400488000014,284.5400488000014,284.5400488000014,287.52380169997923,f,0.9612895000027493,0.191776400024537,287.5238526999601,287.523864399991,None,287.5398448999622,287.5398448999622,287.5398448999622,,,,,,,,,,,,,,00064,001,2026-01-19_21h51.27.317,MST_task,2024.2.0,59.96710205561136,2026-01-19 21h51.36.225488 +0530,
,Objects\008a.jpg,27,0,28,,,,,,,f,1.2125956999952905,0.1679905999917537,None,,,,,,28,0,27,287.5398448999622,,,,,,,,,,,,,,,,,,,,,,,,,,,,,,287.5239678999642,287.5398448999622,288.0233427999774,,,,,,,,,,,,288.04012419999344,,,,,,,,,,,,,,,288.03277119999984,288.04012419999344,288.04012419999344,288.04012419999344,291.0237008999684,f,1.2125956999952905,0.1679905999917537,291.02374400000554,291.02375529997516,None,291.03981269994983,291.03981269994983,291.03981269994983,,,,,,,,,,,,,,00064,001,2026-01-19_21h51.27.317,MST_task,2024.2.0,59.96710205561136,2026-01-19 21h51.36.225488 +0530,
,Scenes\106a.jpg,28,0,29,,,,,,,j,1.5884439999936149,0.17699990002438426,None,,,,,,29,0,28,291.03981269994983,,,,,,,,,,,,,,,,,,,,,,,,,,,,,,291.0238790999865,291.03981269994983,291.5234141999972,,,,,,,,,,,,291.54472689999966,,,,,,,,,,,,,,,291.542198799958,291.54472689999966,291.54472689999966,291.54472689999966,294.54008459998295,j,1.5884439999936149,0.17699990002438426,294.5417646999704,294.54178209998645,None,,,,,,,,,,,,,,,,,00064,001,2026-01-19_21h51.27.317,MST_task,2024.2.0,59.96710205561136,2026-01-19 21h51.36.225488 +0530,
,Scenes\146a.jpg,29,0,30,,,,,,,j,1.5614056999911554,0.16693649999797344,None,,,,,,30,0,29,294.55658309999853,,,,,,,,,,,,,,,,,,,,,,,,,,,,,,294.5418849999551,294.55658309999853,295.04012520000106,,,,,,,,,,,,295.0603680999484,,,,,,,,,,,,,,,295.0580201999983,295.0603680999484,295.0603680999484,295.0603680999484,298.05687079997733,j,1.5614056999911554,0.16693649999797344,298.05694629997015,298.05695899995044,None,,,,,,,,,,,,,,,,,00064,001,2026-01-19_21h51.27.317,MST_task,2024.2.0,59.96710205561136,2026-01-19 21h51.36.225488 +0530,
,Scenes\170a.jpg,30,0,31,,,,,,,j,1.3240255999844521,0.16035069996723905,None,,,,,,31,0,30,298.07323310000356,,,,,,,,,,,,,,,,,,,,,,,,,,,,,,298.0570604999666,298.07323310000356,298.55684279999696,,,,,,,,,,,,298.5772318999516,,,,,,,,,,,,,,,298.5747069999925,298.5772318999516,298.5772318999516,298.5772318999516,301.57352599996375,j,1.3240255999844521,0.16035069996723905,301.5735685999971,301.5735804999713,None,,,,,,,,,,,,,,,,,00064,001,2026-01-19_21h51.27.317,MST_task,2024.2.0,59.96710205561136,2026-01-19 21h51.36.225488 +0530,
,Scenes\191a.jpg,31,0,32,,,,,,,j,2.3953244999866,0.15960399998584762,None,,,,,,32,0,31,301.5898348999908,,,,,,,,,,,,,,,,,,,,,,,,,,,,,,301.573657299974,301.5898348999908,302.0733692999929,,,,,,,,,,,,302.09039019997,,,,,,,,,,,,,,,302.0801711999811,302.09039019997,302.09039019997,302.09039019997,305.0737499999814,j,2.3953244999866,0.15960399998584762,305.0737964999862,305.07380849996116,None,305.0897893999936,305.0897893999936,305.0897893999936,,,,,,,,,,,,,,00064,001,2026-01-19_21h51.27.317,MST_task,2024.2.0,59.96710205561136,2026-01-19 21h51.36.225488 +0530,
,Scenes\055a.jpg,32,0,33,,,,,,,j,1.470151400018949,0.18400210002437234,None,,,,,,33,0,32,305.0897893999936,,,,,,,,,,,,,,,,,,,,,,,,,,,,,,305.07387629995355,305.0897893999936,305.5734392000013,,,,,,,,,,,,305.5910473999684,,,,,,,,,,,,,,,305.58868709998205,305.5910473999684,305.5910473999684,305.5910473999684,308.59017889999086,j,1.470151400018949,0.18400210002437234,308.5902206999599,308.5902320999885,None,,,,,,,,,,,,,,,,,00064,001,2026-01-19_21h51.27.317,MST_task,2024.2.0,59.96710205561136,2026-01-19 21h51.36.225488 +0530,
,Scenes\112a.jpg,33,0,34,,,,,,,j,2.6892729999963194,0.15997030003927648,None,,,,,,34,0,33,308.606610799965,,,,,,,,,,,,,,,,,,,,,,,,,,,,,,308.5902990999748,308.606610799965,309.09023169998545,,,,,,,,,,,,309.10787349997554,,,,,,,,,,,,,,,309.10534909996204,309.10787349997554,309.10787349997554,309.10787349997554,312.0905479999492,j,2.6892729999963194,0.15997030003927648,312.09059159999015,312.09060349996435,None,,,,,,,,,,,,,,,,,00064,001,2026-01-19_21h51.27.317,MST_task,2024.2.0,59.96710205561136,2026-01-19 21h51.36.225488 +0530,
,Scenes\023a.jpg,34,0,35,,,,,,,f,1.0719017999945208,0.20103420002851635,None,,,,,,35,0,34,312.10640190000413,,,,,,,,,,,,,,,,,,,,,,,,,,,,,,312.09067339997273,312.10640190000413,312.59026019996963,,,,,,,,,,,,312.61272929998813,,,,,,,,,,,,,,,312.6101441999781,312.61272929998813,312.61272929998813,312.61272929998813,315.6074878999498,f,1.0719017999945208,0.20103420002851635,315.6075340999523,315.6075465999893,None,,,,,,,,,,,,,,,,,00064,001,2026-01-19_21h51.27.317,MST_task,2024.2.0,59.96710205561136,2026-01-19 21h51.36.225488 +0530,
,Objects\082a.jpg,35,0,36,,,,,,,j,1.8253454999648966,0.17599940003128722,None,,,,,,36,0,35,315.6230872999877,,,,,,,,,,,,,,,,,,,,,,,,,,,,,,315.6076487999526,315.6230872999877,316.1067586999852,,,,,,,,,,,,316.1239078999497,,,,,,,,,,,,,,,316.11960309999995,316.1239078999497,316.1239078999497,316.1239078999497,319.1069993999554,j,1.8253454999648966,0.17599940003128722,319.1091252999613,319.1091434999835,None,319.12299139995594,319.12299139995594,319.12299139995594,,,,,,,,,,,,,,00064,001,2026-01-19_21h51.27.317,MST_task,2024.2.0,59.96710205561136,2026-01-19 21h51.36.225488 +0530,
,Objects\092a.jpg,36,0,37,,,,,,,f,1.6216635000309907,0.18424839997896925,None,,,,,,37,0,36,319.12299139995594,,,,,,,,,,,,,,,,,,,,,,,,,,,,,,319.1092443999951,319.12299139995594,319.60689959995216,,,,,,,,,,,,319.6232868999941,,,,,,,,,,,,,,,319.61660209996626,319.6232868999941,319.6232868999941,319.6232868999941,322.6070870999829,f,1.6216635000309907,0.18424839997896925,322.6071351999999,322.60714649996953,None,322.6230106999865,322.6230106999865,322.6230106999865,,,,,,,,,,,,,,00064,001,2026-01-19_21h51.27.317,MST_task,2024.2.0,59.96710205561136,2026-01-19 21h51.36.225488 +0530,
,Objects\192a.jpg,37,0,38,,,,,,,f,1.0499917999841273,0.1600931000430137,None,,,,,,38,0,37,322.6230106999865,,,,,,,,,,,,,,,,,,,,,,,,,,,,,,322.6072549999808,322.6230106999865,323.10737029998563,,,,,,,,,,,,323.1235327000031,,,,,,,,,,,,,,,323.1166048999876,323.1235327000031,323.1235327000031,323.1235327000031,326.1069478999707,f,1.0499917999841273,0.1600931000430137,326.10699119995115,326.1070019999752,None,326.1230885999976,326.1230885999976,326.1230885999976,,,,,,,,,,,,,,00064,001,2026-01-19_21h51.27.317,MST_task,2024.2.0,59.96710205561136,2026-01-19 21h51.36.225488 +0530,
,Objects\167a.jpg,38,0,39,,,,,,,f,1.99747760000173,0.15998830000171438,None,,,,,,39,0,38,326.1230885999976,,,,,,,,,,,,,,,,,,,,,,,,,,,,,,326.10706879995996,326.1230885999976,326.6068940999685,,,,,,,,,,,,326.6232457999722,,,,,,,,,,,,,,,326.61670409998624,326.6232457999722,326.6232457999722,326.6232457999722,329.60701139998855,f,1.99747760000173,0.15998830000171438,329.60705619998043,329.60708019998856,None,329.6230095999781,329.6230095999781,329.6230095999781,,,,,,,,,,,,,,00064,001,2026-01-19_21h51.27.317,MST_task,2024.2.0,59.96710205561136,2026-01-19 21h51.36.225488 +0530,
,Objects\013a.jpg,39,0,40,,,,,,,j,1.0903046000166796,0.1911784000112675,None,,,,,,40,0,39,329.6230095999781,,,,,,,,,,,,,,,,,,,,,,,,,,,,,,329.6071478999802,329.6230095999781,330.106925399974,,,,,,,,,,,,330.12326849997044,,,,,,,,,,,,,,,330.11640909995185,330.12326849997044,330.12326849997044,330.12326849997044,333.107383799972,j,1.0903046000166796,0.1911784000112675,333.1074327999959,333.1074445999693,None,333.1231617999729,333.1231617999729,333.1231617999729,,,,,,,,,,,,,,00064,001,2026-01-19_21h51.27.317,MST_task,2024.2.0,59.96710205561136,2026-01-19 21h51.36.225488 +0530,
,Objects\113a.jpg,40,0,41,,,,,,,f,0.830230199964717,0.19201530003920197,None,,,,,,41,0,40,333.1231617999729,,,,,,,,,,,,,,,,,,,,,,,,,,,,,,333.10751479998,333.1231617999729,333.6067111999728,,,,,,,,,,,,333.6231852999772,,,,,,,,,,,,,,,333.61620369995944,333.6231852999772,333.6231852999772,333.6231852999772,336.60697409999557,f,0.830230199964717,0.19201530003920197,336.60702019999735,336.60703159996774,None,336.62308190000476,336.62308190000476,336.62308190000476,,,,,,,,,,,,,,00064,001,2026-01-19_21h51.27.317,MST_task,2024.2.0,59.96710205561136,2026-01-19 21h51.36.225488 +0530,
,Objects\038a.jpg,41,0,42,,,,,,,f,1.3134191000135615,0.19221820001257583,None,,,,,,42,0,41,336.62308190000476,,,,,,,,,,,,,,,,,,,,,,,,,,,,,,336.6070992999594,336.62308190000476,337.1067398999585,,,,,,,,,,,,337.1233130999608,,,,,,,,,,,,,,,337.1092033999739,337.1233130999608,337.1233130999608,337.1233130999608,340.1071258999873,f,1.3134191000135615,0.19221820001257583,340.10717489995295,340.1071858999785,None,340.1230216999538,340.1230216999538,340.1230216999538,,,,,,,,,,,,,,00064,001,2026-01-19_21h51.27.317,MST_task,2024.2.0,59.96710205561136,2026-01-19 21h51.36.225488 +0530,
,Scenes\029a.jpg,42,0,43,,,,,,,j,1.2472144999774173,0.21671310003148392,None,,,,,,43,0,42,340.1230216999538,,,,,,,,,,,,,,,,,,,,,,,,,,,,,,340.1072924999753,340.1230216999538,340.60676429996965,,,,,,,,,,,,340.6298919999972,,,,,,,,,,,,,,,340.627577999956,340.6298919999972,340.6298919999972,340.6298919999972,343.62331369996537,j,1.2472144999774173,0.21671310003148392,343.6251843999489,343.6252072000061,None,,,,,,,,,,,,,,,,,00064,001,2026-01-19_21h51.27.317,MST_task,2024.2.0,59.96710205561136,2026-01-19 21h51.36.225488 +0530,
,Scenes\149a.jpg,43,0,44,,,,,,,f,1.4814424000214785,0.2074136000010185,None,,,,,,44,0,43,343.6398066999973,,,,,,,,,,,,,,,,,,,,,,,,,,,,,,343.62533099995926,343.6398066999973,344.12327519996325,,,,,,,,,,,,344.1400219000061,,,,,,,,,,,,,,,344.13734989997465,344.1400219000061,344.1400219000061,344.1400219000061,347.1235358999693,f,1.4814424000214785,0.2074136000010185,347.123577499995,347.12358849996235,None,347.1398152000038,347.1398152000038,347.1398152000038,,,,,,,,,,,,,,00064,001,2026-01-19_21h51.27.317,MST_task,2024.2.0,59.96710205561136,2026-01-19 21h51.36.225488 +0530,
,Scenes\152a.jpg,44,0,45,,,,,,,j,1.0602292999974452,0.1929375000181608,None,,,,,,45,0,44,347.1398152000038,,,,,,,,,,,,,,,,,,,,,,,,,,,,,,347.12365349999163,347.1398152000038,347.6233246999909,,,,,,,,,,,,347.6404917999753,,,,,,,,,,,,,,,347.63600509997923,347.6404917999753,347.6404917999753,347.6404917999753,350.6235999999917,j,1.0602292999974452,0.1929375000181608,350.62364489998436,350.6236563999555,None,350.6398377000005,350.6398377000005,350.6398377000005,,,,,,,,,,,,,,00064,001,2026-01-19_21h51.27.317,MST_task,2024.2.0,59.96710205561136,2026-01-19 21h51.36.225488 +0530,
,Scenes\006a.jpg,45,0,46,,,,,,,f,1.8251190999872051,0.19135699997423217,None,,,,,,46,0,45,350.6398377000005,,,,,,,,,,,,,,,,,,,,,,,,,,,,,,350.6237637999584,350.6398377000005,351.1234612999833,,,,,,,,,,,,351.1403243999812,,,,,,,,,,,,,,,351.13752559997374,351.1403243999812,351.1403243999812,351.1403243999812,354.12357479997445,f,1.8251190999872051,0.19135699997423217,354.12361700000474,354.12362809997285,None,354.13980339997215,354.13980339997215,354.13980339997215,,,,,,,,,,,,,,00064,001,2026-01-19_21h51.27.317,MST_task,2024.2.0,59.96710205561136,2026-01-19 21h51.36.225488 +0530,
,Scenes\110a.jpg,46,0,47,,,,,,,j,1.0375650000059977,0.19230529997730628,None,,,,,,47,0,46,354.13980339997215,,,,,,,,,,,,,,,,,,,,,,,,,,,,,,354.1236921999953,354.13980339997215,354.6232805000036,,,,,,,,,,,,354.6403763999697,,,,,,,,,,,,,,,354.63112779997755,354.6403763999697,354.6403763999697,354.6403763999697,357.6236537999939,j,1.0375650000059977,0.19230529997730628,357.6236956999637,357.62370669998927,None,357.6397546999506,357.6397546999506,357.6397546999506,,,,,,,,,,,,,,00064,001,2026-01-19_21h51.27.317,MST_task,2024.2.0,59.96710205561136,2026-01-19 21h51.36.225488 +0530,
,Scenes\043a.jpg,47,0,48,,,,,,,j,1.1049961999524385,0.18403380003292114,None,,,,,,48,0,47,357.6397546999506,,,,,,,,,,,,,,,,,,,,,,,,,,,,,,357.62380329996813,357.6397546999506,358.12334249995183,,,,,,,,,,,,358.14038479997544,,,,,,,,,,,,,,,358.136357499985,358.14038479997544,358.14038479997544,358.14038479997544,361.1235590999713,j,1.1049961999524385,0.18403380003292114,361.12360069999704,361.1236124999705,None,361.1398048999836,361.1398048999836,361.1398048999836,,,,,,,,,,,,,,00064,001,2026-01-19_21h51.27.317,MST_task,2024.2.0,59.96710205561136,2026-01-19 21h51.36.225488 +0530,
,Scenes\157a.jpg,48,0,49,,,,,,,j,1.3239046999951825,0.1828447000007145,None,,,,,,49,0,48,361.1398048999836,,,,,,,,,,,,,,,,,,,,,,,,,,,,,,361.1237087000045,361.1398048999836,361.6232644999982,,,,,,,,,,,,361.6419790999498,,,,,,,,,,,,,,,361.6397214999888,361.6419790999498,361.6419790999498,361.6419790999498,364.64004169998225,j,1.3239046999951825,0.1828447000007145,364.640083199949,364.64009519998217,None,,,,,,,,,,,,,,,,,00064,001,2026-01-19_21h51.27.317,MST_task,2024.2.0,59.96710205561136,2026-01-19 21h51.36.225488 +0530,
,Objects\063a.jpg,49,0,50,,,,,,,f,1.520370999991428,0.21604089997708797,None,,,,,,50,0,49,364.6567428999697,,,,,,,,,,,,,,,,,,,,,,,,,,,,,,364.6401928999694,364.6567428999697,365.1399897999945,,,,,,,,,,,,365.15696059999755,,,,,,,,,,,,,,,365.1517367999768,365.15696059999755,365.15696059999755,365.15696059999755,368.1404137999634,f,1.520370999991428,0.21604089997708797,368.14256449998356,368.1425828000065,None,368.1564401999931,368.1564401999931,368.1564401999931,,,,,,,,,,,,,,00064,001,2026-01-19_21h51.27.317,MST_task,2024.2.0,59.96710205561136,2026-01-19 21h51.36.225488 +0530,
,Objects\011a.jpg,50,0,51,,,,,,,j,2.741076000034809,0.16724579996662214,None,,,,,,51,0,50,368.1564401999931,,,,,,,,,,,,,,,,,,,,,,,,,,,,,,368.1426852999721,368.1564401999931,368.64006010000594,,,,,,,,,,,,368.65666360000614,,,,,,,,,,,,,,,368.6496309999493,368.65666360000614,368.65666360000614,368.65666360000614,371.64032710000174,j,2.741076000034809,0.16724579996662214,371.6403726999997,371.6403838999686,None,371.6564892999595,371.6564892999595,371.6564892999595,,,,,,,,,,,,,,00064,001,2026-01-19_21h51.27.317,MST_task,2024.2.0,59.96710205561136,2026-01-19 21h51.36.225488 +0530,
,Objects\016a.jpg,51,0,52,,,,,,,f,0.9698054000036791,0.19060589995933697,None,,,,,,52,0,51,371.6564892999595,,,,,,,,,,,,,,,,,,,,,,,,,,,,,,371.6404472999857,371.6564892999595,372.140151999949,,,,,,,,,,,,372.1567262999597,,,,,,,,,,,,,,,372.1492689999868,372.1567262999597,372.1567262999597,372.1567262999597,375.14034799998626,f,0.9698054000036791,0.19060589995933697,375.14039409998804,375.1404053999577,None,375.15649520000443,375.15649520000443,375.15649520000443,,,,,,,,,,,,,,00064,001,2026-01-19_21h51.27.317,MST_task,2024.2.0,59.96710205561136,2026-01-19 21h51.36.225488 +0530,
,Objects\069a.jpg,52,0,53,,,,,,,j,1.3329996000393294,0.17546319996472448,None,,,,,,53,0,52,375.15649520000443,,,,,,,,,,,,,,,,,,,,,,,,,,,,,,375.14054599998053,375.15649520000443,375.64017239998793,,,,,,,,,,,,375.65672359999735,,,,,,,,,,,,,,,375.6489841999719,375.65672359999735,375.65672359999735,375.65672359999735,378.64036609994946,j,1.3329996000393294,0.17546319996472448,378.6404086999828,378.6404202999547,None,378.6564779999899,378.6564779999899,378.6564779999899,,,,,,,,,,,,,,00064,001,2026-01-19_21h51.27.317,MST_task,2024.2.0,59.96710205561136,2026-01-19 21h51.36.225488 +0530,
,Objects\152a.jpg,53,0,54,,,,,,,f,1.1369340000092052,0.18371660000411794,None,,,,,,54,0,53,378.6564779999899,,,,,,,,,,,,,,,,,,,,,,,,,,,,,,378.6405162999872,378.6564779999899,379.1400430999929,,,,,,,,,,,,379.1567123999703,,,,,,,,,,,,,,,379.14275619998807,379.1567123999703,379.1567123999703,379.1567123999703,382.1406582999625,f,1.1369340000092052,0.18371660000411794,382.1407129999716,382.1407263999572,None,382.1565523999743,382.1565523999743,382.1565523999743,,,,,,,,,,,,,,00064,001,2026-01-19_21h51.27.317,MST_task,2024.2.0,59.96710205561136,2026-01-19 21h51.36.225488 +0530,
,Objects\130a.jpg,54,0,55,,,,,,,j,0.9815484999562614,0.19095399999059737,None,,,,,,55,0,54,382.1565523999743,,,,,,,,,,,,,,,,,,,,,,,,,,,,,,382.14083779999055,382.1565523999743,382.64010279998183,,,,,,,,,,,,382.6566550999996,,,,,,,,,,,,,,,382.64901799999643,382.6566550999996,382.6566550999996,382.6566550999996,385.64040569995996,j,0.9815484999562614,0.19095399999059737,385.6404526999686,385.64046450000023,None,385.6564845999819,385.6564845999819,385.6564845999819,,,,,,,,,,,,,,00064,001,2026-01-19_21h51.27.317,MST_task,2024.2.0,59.96710205561136,2026-01-19 21h51.36.225488 +0530,
,Objects\029a.jpg,55,0,56,,,,,,,f,1.2320547999697737,0.19213390001095831,None,,,,,,56,0,55,385.6564845999819,,,,,,,,,,,,,,,,,,,,,,,,,,,,,,385.6405331999995,385.6564845999819,386.140102299978,,,,,,,,,,,,386.1567800999619,,,,,,,,,,,,,,,386.1492115999572,386.1567800999619,386.1567800999619,386.1567800999619,389.14036379999015,f,1.2320547999697737,0.19213390001095831,389.1404058999615,389.14041679998627,None,389.156428999966,389.156428999966,389.156428999966,,,,,,,,,,,,,,00064,001,2026-01-19_21h51.27.317,MST_task,2024.2.0,59.96710205561136,2026-01-19 21h51.36.225488 +0530,
,Scenes\022a.jpg,56,0,57,,,,,,,j,2.2598927000071853,0.17660459998296574,None,,,,,,57,0,56,389.156428999966,,,,,,,,,,,,,,,,,,,,,,,,,,,,,,389.14051279996056,389.156428999966,389.6399962999858,,,,,,,,,,,,389.6570056999917,,,,,,,,,,,,,,,389.6457050999743,389.6570056999917,389.6570056999917,389.6570056999917,392.64048849995015,j,2.2598927000071853,0.17660459998296574,392.64212489995407,392.6421428999747,None,392.65652520000003,392.65652520000003,392.65652520000003,,,,,,,,,,,,,,00064,001,2026-01-19_21h51.27.317,MST_task,2024.2.0,59.96710205561136,2026-01-19 21h51.36.225488 +0530,
,Scenes\122a.jpg,57,0,58,,,,,,,f,1.3019568999879993,0.20801050000591204,None,,,,,,58,0,57,392.65652520000003,,,,,,,,,,,,,,,,,,,,,,,,,,,,,,392.6422445999924,392.65652520000003,393.14008329994977,,,,,,,,,,,,393.1590131999692,,,,,,,,,,,,,,,393.156864199962,393.1590131999692,393.1590131999692,393.1590131999692,396.1567697999999,f,1.3019568999879993,0.20801050000591204,396.1568121999735,396.15682400000514,None,,,,,,,,,,,,,,,,,00064,001,2026-01-19_21h51.27.317,MST_task,2024.2.0,59.96710205561136,2026-01-19 21h51.36.225488 +0530,
,Scenes\020a.jpg,58,0,59,,,,,,,f,1.5514246000093408,0.17662029998609796,None,,,,,,59,0,58,396.17306959995767,,,,,,,,,,,,,,,,,,,,,,,,,,,,,,396.1569278999814,396.17306959995767,396.6567783000064,,,,,,,,,,,,396.67779869999504,,,,,,,,,,,,,,,396.67521580000175,396.67779869999504,396.67779869999504,396.67779869999504,399.67337699997006,f,1.5514246000093408,0.17662029998609796,399.67342569999164,399.6734384999727,None,,,,,,,,,,,,,,,,,00064,001,2026-01-19_21h51.27.317,MST_task,2024.2.0,59.96710205561136,2026-01-19 21h51.36.225488 +0530,
,Scenes\013a.jpg,59,0,60,,,,,,,j,1.1813288999837823,0.1920322000514716,None,,,,,,60,0,59,399.6898631999502,,,,,,,,,,,,,,,,,,,,,,,,,,,,,,399.6735602999688,399.6898631999502,400.17334179999307,,,,,,,,,,,,400.192006999976,,,,,,,,,,,,,,,400.1894691999769,400.192006999976,400.192006999976,400.192006999976,403.1900962999789,j,1.1813288999837823,0.1920322000514716,403.1901433999883,403.1901593999937,None,,,,,,,,,,,,,,,,,00064,001,2026-01-19_21h51.27.317,MST_task,2024.2.0,59.96710205561136,2026-01-19 21h51.36.225488 +0530,
,Scenes\130a.jpg,60,0,61,,,,,,,f,1.4464331999770366,0.1920376000343822,None,,,,,,61,0,60,403.2065350000048,,,,,,,,,,,,,,,,,,,,,,,,,,,,,,403.1902683999506,403.2065350000048,403.6902572999825,,,,,,,,,,,,403.71101499994984,,,,,,,,,,,,,,,403.7083090999513,403.71101499994984,403.71101499994984,403.71101499994984,406.6903651999892,f,1.4464331999770366,0.1920376000343822,406.6904075999628,406.69041959999595,None,,,,,,,,,,,,,,,,,00064,001,2026-01-19_21h51.27.317,MST_task,2024.2.0,59.96710205561136,2026-01-19 21h51.36.225488 +0530,
,Scenes\117a.jpg,61,0,62,,,,,,,j,0.9419049000134692,0.2158330000238493,None,,,,,,62,0,61,406.70671810000204,,,,,,,,,,,,,,,,,,,,,,,,,,,,,,406.69049149996135,406.70671810000204,407.1901993000065,,,,,,,,,,,,407.2072878999752,,,,,,,,,,,,,,,407.1960554999532,407.2072878999752,407.2072878999752,407.2072878999752,410.1904163999716,j,0.9419049000134692,0.2158330000238493,410.19045969995204,410.19047079997836,None,410.2066966999555,410.2066966999555,410.2066966999555,,,,,,,,,,,,,,00064,001,2026-01-19_21h51.27.317,MST_task,2024.2.0,59.96710205561136,2026-01-19 21h51.36.225488 +0530,
,Scenes\147a.jpg,62,0,63,,,,,,,j,1.7863632999942638,0.18399950000457466,None,,,,,,63,0,62,410.2066966999555,,,,,,,,,,,,,,,,,,,,,,,,,,,,,,410.1905681999633,410.2066966999555,410.6902194999857,,,,,,,,,,,,410.70707509998465,,,,,,,,,,,,,,,410.7020702000009,410.70707509998465,410.70707509998465,410.70707509998465,413.69044049998047,j,1.7863632999942638,0.18399950000457466,413.6904830999556,413.69049389997963,None,413.70660829998087,413.70660829998087,413.70660829998087,,,,,,,,,,,,,,00064,001,2026-01-19_21h51.27.317,MST_task,2024.2.0,59.96710205561136,2026-01-19 21h51.36.225488 +0530,
,Objects\088a.jpg,63,0,64,,,,,,,j,1.517902999999933,0.20021689997520298,None,,,,,,64,0,63,413.70660829998087,,,,,,,,,,,,,,,,,,,,,,,,,,,,,,413.69058850000147,413.70660829998087,414.1902157999575,,,,,,,,,,,,414.2070966999745,,,,,,,,,,,,,,,414.20276749995537,414.2070966999745,414.2070966999745,414.2070966999745,417.1908287999686,j,1.517902999999933,0.20021689997520298,417.19311369996285,417.19313289999263,None,417.2065747999586,417.2065747999586,417.2065747999586,,,,,,,,,,,,,,00064,001,2026-01-19_21h51.27.317,MST_task,2024.2.0,59.96710205561136,2026-01-19 21h51.36.225488 +0530,
,Objects\169a.jpg,64,0,65,,,,,,,j,1.5624967999756336,0.1754435000475496,None,,,,,,65,0,64,417.2065747999586,,,,,,,,,,,,,,,,,,,,,,,,,,,,,,417.19324489997234,417.2065747999586,417.69018109998433,,,,,,,,,,,,417.7068006999907,,,,,,,,,,,,,,,417.70039349998115,417.7068006999907,417.7068006999907,417.7068006999907,420.6905466999742,j,1.5624967999756336,0.1754435000475496,420.6905907999608,420.69060199998785,None,420.7065913999686,420.7065913999686,420.7065913999686,,,,,,,,,,,,,,00064,001,2026-01-19_21h51.27.317,MST_task,2024.2.0,59.96710205561136,2026-01-19 21h51.36.225488 +0530,
,Objects\181a.jpg,65,0,66,,,,,,,j,0.8701206999830902,0.2086171999690123,None,,,,,,66,0,65,420.7065913999686,,,,,,,,,,,,,,,,,,,,,,,,,,,,,,420.6906701999833,420.7065913999686,421.1902233999572,,,,,,,,,,,,421.2068866000045,,,,,,,,,,,,,,,421.1994515999686,421.2068866000045,421.2068866000045,421.2068866000045,424.1907569000032,j,0.8701206999830902,0.2086171999690123,424.190804999962,424.1908162999898,None,424.20668419997673,424.20668419997673,424.20668419997673,,,,,,,,,,,,,,00064,001,2026-01-19_21h51.27.317,MST_task,2024.2.0,59.96710205561136,2026-01-19 21h51.36.225488 +0530,
,Objects\161a.jpg,66,0,67,,,,,,,f,0.9067796000163071,0.20106049999594688,None,,,,,,67,0,66,424.20668419997673,,,,,,,,,,,,,,,,,,,,,,,,,,,,,,424.1908872999484,424.20668419997673,424.6902854999644,,,,,,,,,,,,424.70687299995916,,,,,,,,,,,,,,,424.6929411999881,424.70687299995916,424.70687299995916,424.70687299995916,427.69037839997327,f,0.9067796000163071,0.20106049999594688,427.690419999999,427.6904315999709,None,427.7066061999649,427.7066061999649,427.7066061999649,,,,,,,,,,,,,,00064,001,2026-01-19_21h51.27.317,MST_task,2024.2.0,59.96710205561136,2026-01-19 21h51.36.225488 +0530,
,Objects\053a.jpg,67,0,68,,,,,,,f,1.110388899978716,0.17670130002079532,None,,,,,,68,0,67,427.7066061999649,,,,,,,,,,,,,,,,,,,,,,,,,,,,,,427.69049639999866,427.7066061999649,428.1901793999714,,,,,,,,,,,,428.20674939994933,,,,,,,,,,,,,,,428.1995244999998,428.20674939994933,428.20674939994933,428.20674939994933,431.1903715999797,f,1.110388899978716,0.17670130002079532,431.1904134999495,431.1904276999994,None,431.2066250999924,431.2066250999924,431.2066250999924,,,,,,,,,,,,,,00064,001,2026-01-19_21h51.27.317,MST_task,2024.2.0,59.96710205561136,2026-01-19 21h51.36.225488 +0530,
,Objects\141a.jpg,68,0,69,,,,,,,j,1.394180699950084,0.21674900001380593,None,,,,,,69,0,68,431.2066250999924,,,,,,,,,,,,,,,,,,,,,,,,,,,,,,431.19052539998665,431.2066250999924,431.6901849999558,,,,,,,,,,,,431.70683729997836,,,,,,,,,,,,,,,431.69866489997366,431.70683729997836,431.70683729997836,431.70683729997836,434.6904771999689,j,1.394180699950084,0.21674900001380593,434.69051639997633,434.6905270999996,None,434.7066456999746,434.7066456999746,434.7066456999746,,,,,,,,,,,,,,00064,001,2026-01-19_21h51.27.317,MST_task,2024.2.0,59.96710205561136,2026-01-19 21h51.36.225488 +0530,
,Objects\094a.jpg,69,0,70,,,,,,,f,2.302022699965164,0.17682420002529398,None,,,,,,70,0,69,434.7066456999746,,,,,,,,,,,,,,,,,,,,,,,,,,,,,,434.6905924999737,434.7066456999746,435.19023509998806,,,,,,,,,,,,435.2067763999803,,,,,,,,,,,,,,,435.20012519997545,435.2067763999803,435.2067763999803,435.2067763999803,438.1904313999694,f,2.302022699965164,0.17682420002529398,438.1904760999605,438.1904879999929,None,438.2065152999712,438.2065152999712,438.2065152999712,,,,,,,,,,,,,,00064,001,2026-01-19_21h51.27.317,MST_task,2024.2.0,59.96710205561136,2026-01-19 21h51.36.225488 +0530,
,Scenes\181a.jpg,70,0,71,,,,,,,f,1.7184039000421762,0.1760655000107363,None,,,,,,71,0,70,438.2065152999712,,,,,,,,,,,,,,,,,,,,,,,,,,,,,,438.1905958999996,438.2065152999712,438.6901893999893,,,,,,,,,,,,438.7104699999909,,,,,,,,,,,,,,,438.7079654999543,438.7104699999909,438.7104699999909,438.7104699999909,441.706786499999,f,1.7184039000421762,0.1760655000107363,441.7084122999804,441.7084304000018,None,,,,,,,,,,,,,,,,,00064,001,2026-01-19_21h51.27.317,MST_task,2024.2.0,59.96710205561136,2026-01-19 21h51.36.225488 +0530,
,Scenes\142a.jpg,71,0,72,,,,,,,j,1.1561654999968596,0.1996999999973923,None,,,,,,72,0,71,441.7232202999876,,,,,,,,,,,,,,,,,,,,,,,,,,,,,,441.708500299952,441.7232202999876,442.20697159995325,,,,,,,,,,,,442.2251185999485,,,,,,,,,,,,,,,442.22282999998424,442.2251185999485,442.2251185999485,442.2251185999485,445.2233707999694,j,1.1561654999968596,0.1996999999973923,445.22341289999895,445.22342449997086,None,,,,,,,,,,,,,,,,,00064,001,2026-01-19_21h51.27.317,MST_task,2024.2.0,59.96710205561136,2026-01-19 21h51.36.225488 +0530,
,Scenes\155a.jpg,72,0,73,,,,,,,j,1.0883951999712735,0.2170299999997951,None,,,,,,73,0,72,445.23987539997324,,,,,,,,,,,,,,,,,,,,,,,,,,,,,,445.2235244999756,445.23987539997324,445.723515199963,,,,,,,,,,,,445.74042859999463,,,,,,,,,,,,,,,445.73793199996,445.74042859999463,445.74042859999463,445.74042859999463,448.7237596999621,j,1.0883951999712735,0.2170299999997951,448.7238051999593,448.7238160999841,None,448.7398382999818,448.7398382999818,448.7398382999818,,,,,,,,,,,,,,00064,001,2026-01-19_21h51.27.317,MST_task,2024.2.0,59.96710205561136,2026-01-19 21h51.36.225488 +0530,
,Scenes\015a.jpg,73,0,74,,,,,,,j,0.8985103000304662,0.18481070001143962,None,,,,,,74,0,73,448.7398382999818,,,,,,,,,,,,,,,,,,,,,,,,,,,,,,448.72391949995654,448.7398382999818,449.2234896000009,,,,,,,,,,,,449.24303209997015,,,,,,,,,,,,,,,449.24065829999745,449.24303209997015,449.24303209997015,449.24303209997015,452.2401660999749,j,0.8985103000304662,0.18481070001143962,452.2402055999846,452.24021719995653,None,,,,,,,,,,,,,,,,,00064,001,2026-01-19_21h51.27.317,MST_task,2024.2.0,59.96710205561136,2026-01-19 21h51.36.225488 +0530,
,Scenes\184a.jpg,74,0,75,,,,,,,j,1.0480268999817781,0.2074923000182025,None,,,,,,75,0,74,452.2566039999947,,,,,,,,,,,,,,,,,,,,,,,,,,,,,,452.24031339999055,452.2566039999947,452.7402192999725,,,,,,,,,,,,452.7572336999583,,,,,,,,,,,,,,,452.754425799998,452.7572336999583,452.7572336999583,452.7572336999583,455.7405031999806,j,1.0480268999817781,0.2074923000182025,455.7405463999603,455.74055789998965,None,455.7565953999874,455.7565953999874,455.7565953999874,,,,,,,,,,,,,,00064,001,2026-01-19_21h51.27.317,MST_task,2024.2.0,59.96710205561136,2026-01-19 21h51.36.225488 +0530,
,Scenes\179a.jpg,75,0,76,,,,,,,j,1.284183399984613,0.16011300001991913,None,,,,,,76,0,75,455.7565953999874,,,,,,,,,,,,,,,,,,,,,,,,,,,,,,455.7406249999767,455.7565953999874,456.24017189996084,,,,,,,,,,,,456.25696889997926,,,,,,,,,,,,,,,456.2454160999623,456.25696889997926,456.25696889997926,456.25696889997926,459.2407355000032,j,1.284183399984613,0.16011300001991913,459.2407820999506,459.24079309997614,None,459.2566272999975,459.2566272999975,459.2566272999975,,,,,,,,,,,,,,00064,001,2026-01-19_21h51.27.317,MST_task,2024.2.0,59.96710205561136,2026-01-19 21h51.36.225488 +0530,
,Scenes\086a.jpg,76,0,77,,,,,,,j,1.0765012999763712,0.2008178000105545,None,,,,,,77,0,76,459.2566272999975,,,,,,,,,,,,,,,,,,,,,,,,,,,,,,459.2408599999617,459.2566272999975,459.7401841999963,,,,,,,,,,,,459.7606421999517,,,,,,,,,,,,,,,459.7581651999499,459.7606421999517,459.7606421999517,459.7606421999517,462.75687469996046,j,1.0765012999763712,0.2008178000105545,462.75692229997367,462.75693479995243,None,,,,,,,,,,,,,,,,,00064,001,2026-01-19_21h51.27.317,MST_task,2024.2.0,59.96710205561136,2026-01-19 21h51.36.225488 +0530,
,Objects\148a.jpg,77,0,78,,,,,,,f,1.411621399980504,0.22507580003002658,None,,,,,,78,0,77,462.7730426999624,,,,,,,,,,,,,,,,,,,,,,,,,,,,,,462.7570086999913,462.7730426999624,463.2567654000013,,,,,,,,,,,,463.27352839999367,,,,,,,,,,,,,,,463.26844079996226,463.27352839999367,463.27352839999367,463.27352839999367,466.2570359999663,f,1.411621399980504,0.22507580003002658,466.25908679998247,466.2591046000016,None,466.27311009995174,466.27311009995174,466.27311009995174,,,,,,,,,,,,,,00064,001,2026-01-19_21h51.27.317,MST_task,2024.2.0,59.96710205561136,2026-01-19 21h51.36.225488 +0530,
,Objects\032a.jpg,78,0,79,,,,,,,f,1.6005584000376984,0.20782419998431578,None,,,,,,79,0,78,466.27311009995174,,,,,,,,,,,,,,,,,,,,,,,,,,,,,,466.25917529995786,466.27311009995174,466.7567558999872,,,,,,,,,,,,466.7733695000061,,,,,,,,,,,,,,,466.7659600999905,466.7733695000061,466.7733695000061,466.7733695000061,469.75703310000245,f,1.6005584000376984,0.20782419998431578,469.75707499997225,469.75708690000465,None,469.7731081999955,469.7731081999955,469.7731081999955,,,,,,,,,,,,,,00064,001,2026-01-19_21h51.27.317,MST_task,2024.2.0,59.96710205561136,2026-01-19 21h51.36.225488 +0530,
,Objects\173a.jpg,79,0,80,,,,,,,f,0.9636044999933802,0.22404800000367686,None,,,,,,80,0,79,469.7731081999955,,,,,,,,,,,,,,,,,,,,,,,,,,,,,,469.7571837999858,469.7731081999955,470.2566950999899,,,,,,,,,,,,470.2733119999757,,,,,,,,,,,,,,,470.26573220000137,470.2733119999757,470.2733119999757,470.2733119999757,473.2574137999909,f,0.9636044999933802,0.22404800000367686,473.25746329996036,473.25747469998896,None,473.27314269996714,473.27314269996714,473.27314269996714,,,,,,,,,,,,,,00064,001,2026-01-19_21h51.27.317,MST_task,2024.2.0,59.96710205561136,2026-01-19 21h51.36.225488 +0530,
,Objects\060a.jpg,80,0,81,,,,,,,j,2.6078377999947406,0.18419100000755861,None,,,,,,81,0,80,473.27314269996714,,,,,,,,,,,,,,,,,,,,,,,,,,,,,,473.2575969999889,473.27314269996714,473.7567871999927,,,,,,,,,,,,473.7734027999686,,,,,,,,,,,,,,,473.76585999998497,473.7734027999686,473.7734027999686,473.7734027999686,476.7569886999554,j,2.6078377999947406,0.18419100000755861,476.75703019998036,476.75704149995,None,476.77315789996646,476.77315789996646,476.77315789996646,,,,,,,,,,,,,,00064,001,2026-01-19_21h51.27.317,MST_task,2024.2.0,59.96710205561136,2026-01-19 21h51.36.225488 +0530,
,Objects\036a.jpg,81,0,82,,,,,,,j,1.1728567999671213,0.16719620005460456,None,,,,,,82,0,81,476.77315789996646,,,,,,,,,,,,,,,,,,,,,,,,,,,,,,476.7571063999785,476.77315789996646,477.2567250999855,,,,,,,,,,,,477.2732058999827,,,,,,,,,,,,,,,477.2675526999519,477.2732058999827,477.2732058999827,477.2732058999827,480.2570848999894,j,1.1728567999671213,0.16719620005460456,480.25712589995237,480.2571366999764,None,480.27313409995986,480.27313409995986,480.27313409995986,,,,,,,,,,,,,,00064,001,2026-01-19_21h51.27.317,MST_task,2024.2.0,59.96710205561136,2026-01-19 21h51.36.225488 +0530,
,Objects\166a.jpg,82,0,83,,,,,,,f,0.9283293000189587,0.20003079995512962,None,,,,,,83,0,82,480.27313409995986,,,,,,,,,,,,,,,,,,,,,,,,,,,,,,480.257200299995,480.27313409995986,480.75680439994903,,,,,,,,,,,,480.7733595999889,,,,,,,,,,,,,,,480.76567900000373,480.7733595999889,480.7733595999889,480.7733595999889,483.75709259998985,f,0.9283293000189587,0.20003079995512962,483.7571348999627,483.7571503999643,None,483.77330000000075,483.77330000000075,483.77330000000075,,,,,,,,,,,,,,00064,001,2026-01-19_21h51.27.317,MST_task,2024.2.0,59.96710205561136,2026-01-19 21h51.36.225488 +0530,
,Objects\065a.jpg,83,0,84,,,,,,,j,0.8115288999979384,0.2247370000113733,None,,,,,,84,0,83,483.77330000000075,,,,,,,,,,,,,,,,,,,,,,,,,,,,,,483.7572456999915,483.77330000000075,484.25679660000606,,,,,,,,,,,,484.2733062999905,,,,,,,,,,,,,,,484.2657099000062,484.2733062999905,484.2733062999905,484.2733062999905,487.25708589999704,j,0.8115288999979384,0.2247370000113733,487.2571260999539,487.2571364999749,None,487.2738337999908,487.2738337999908,487.2738337999908,,,,,,,,,,,,,,00064,001,2026-01-19_21h51.27.317,MST_task,2024.2.0,59.96710205561136,2026-01-19 21h51.36.225488 +0530,
,Scenes\182a.jpg,84,0,85,,,,,,,j,1.6863509999820963,0.24823580001248047,None,,,,,,85,0,84,487.2738337999908,,,,,,,,,,,,,,,,,,,,,,,,,,,,,,487.2572322000051,487.2738337999908,487.7569485999993,,,,,,,,,,,,487.77501319994917,,,,,,,,,,,,,,,487.77258099999744,487.77501319994917,487.77501319994917,487.77501319994917,490.7734284999897,j,1.6863509999820963,0.24823580001248047,490.7750151999644,490.7750309999683,None,,,,,,,,,,,,,,,,,00064,001,2026-01-19_21h51.27.317,MST_task,2024.2.0,59.96710205561136,2026-01-19 21h51.36.225488 +0530,
,Scenes\171a.jpg,85,0,86,,,,,,,f,1.4324968000291847,0.19199209997896105,None,,,,,,86,0,85,490.7897923999699,,,,,,,,,,,,,,,,,,,,,,,,,,,,,,490.7750976999523,490.7897923999699,491.27339679998113,,,,,,,,,,,,491.2929604999954,,,,,,,,,,,,,,,491.2905948999687,491.2929604999954,491.2929604999954,491.2929604999954,494.2901239999919,f,1.4324968000291847,0.19199209997896105,494.2901751999743,494.2901876999531,None,,,,,,,,,,,,,,,,,00064,001,2026-01-19_21h51.27.317,MST_task,2024.2.0,59.96710205561136,2026-01-19 21h51.36.225488 +0530,
,Scenes\047a.jpg,86,0,87,,,,,,,j,1.0271020000218414,0.23984349996317178,None,,,,,,87,0,86,494.30643949995283,,,,,,,,,,,,,,,,,,,,,,,,,,,,,,494.2902911999845,494.30643949995283,494.7901178000029,,,,,,,,,,,,494.81002769997576,,,,,,,,,,,,,,,494.80744639999466,494.81002769997576,494.81002769997576,494.81002769997576,497.8067683999543,j,1.0271020000218414,0.23984349996317178,497.8068221999565,497.80683509999653,None,,,,,,,,,,,,,,,,,00064,001,2026-01-19_21h51.27.317,MST_task,2024.2.0,59.96710205561136,2026-01-19 21h51.36.225488 +0530,
,Scenes\165a.jpg,87,0,88,,,,,,,j,1.119190700002946,0.20001380000030622,None,,,,,,88,0,87,497.8231835999759,,,,,,,,,,,,,,,,,,,,,,,,,,,,,,497.80695739999646,497.8231835999759,498.30694709997624,,,,,,,,,,,,498.32566279999446,,,,,,,,,,,,,,,498.32343259995105,498.32566279999446,498.32566279999446,498.32566279999446,501.32331569999224,j,1.119190700002946,0.20001380000030622,501.3233615999925,501.3233736999682,None,,,,,,,,,,,,,,,,,00064,001,2026-01-19_21h51.27.317,MST_task,2024.2.0,59.96710205561136,2026-01-19 21h51.36.225488 +0530,
,Scenes\111a.jpg,88,0,89,,,,,,,j,1.6283983999746852,0.2008714000112377,None,,,,,,89,0,88,501.3398636999773,,,,,,,,,,,,,,,,,,,,,,,,,,,,,,501.3234455999918,501.3398636999773,501.82376739999745,,,,,,,,,,,,501.84062129998347,,,,,,,,,,,,,,,501.836912299972,501.84062129998347,501.84062129998347,501.84062129998347,504.8235163000063,j,1.6283983999746852,0.2008714000112377,504.82355889998144,504.8235700999503,None,504.8398555999738,504.8398555999738,504.8398555999738,,,,,,,,,,,,,,00064,001,2026-01-19_21h51.27.317,MST_task,2024.2.0,59.96710205561136,2026-01-19 21h51.36.225488 +0530,
,Scenes\038a.jpg,89,0,90,,,,,,,j,1.2492815000005066,0.19999929994810373,None,,,,,,90,0,89,504.8398555999738,,,,,,,,,,,,,,,,,,,,,,,,,,,,,,504.82363599998644,504.8398555999738,505.32343599997694,,,,,,,,,,,,505.34045729995705,,,,,,,,,,,,,,,505.33259750000434,505.34045729995705,505.34045729995705,505.34045729995705,508.32404419995146,j,1.2492815000005066,0.19999929994810373,508.3240929999738,508.3241041000001,None,508.3398724999861,508.3398724999861,508.3398724999861,,,,,,,,,,,,,,00064,001,2026-01-19_21h51.27.317,MST_task,2024.2.0,59.96710205561136,2026-01-19 21h51.36.225488 +0530,
,Scenes\019a.jpg,90,0,91,,,,,,,f,2.4287261000135913,0.18447420001029968,None,,,,,,91,0,90,508.3398724999861,,,,,,,,,,,,,,,,,,,,,,,,,,,,,,508.3242209999589,508.3398724999861,508.82339350000257,,,,,,,,,,,,508.8408048999845,,,,,,,,,,,,,,,508.83820719999494,508.8408048999845,508.8408048999845,508.8408048999845,511.8235715999617,f,2.4287261000135913,0.18447420001029968,511.8236143999966,511.82362559996545,None,511.83985940000275,511.83985940000275,511.83985940000275,,,,,,,,,,,,,,00064,001,2026-01-19_21h51.27.317,MST_task,2024.2.0,59.96710205561136,2026-01-19 21h51.36.225488 +0530,
,Objects\020a.jpg,91,0,92,,,,,,,f,1.4813539999886416,0.19123230001423508,None,,,,,,92,0,91,511.83985940000275,,,,,,,,,,,,,,,,,,,,,,,,,,,,,,511.8236903999932,511.83985940000275,512.3232516999706,,,,,,,,,,,,512.340330099978,,,,,,,,,,,,,,,512.3347546999576,512.340330099978,512.340330099978,512.340330099978,515.3235440999852,f,1.4813539999886416,0.19123230001423508,515.325583399972,515.3256017999956,None,515.3397937999689,515.3397937999689,515.3397937999689,,,,,,,,,,,,,,00064,001,2026-01-19_21h51.27.317,MST_task,2024.2.0,59.96710205561136,2026-01-19 21h51.36.225488 +0530,
,Objects\019a.jpg,92,0,93,,,,,,,j,1.6699281000182964,0.2080022000009194,None,,,,,,93,0,92,515.3397937999689,,,,,,,,,,,,,,,,,,,,,,,,,,,,,,515.3257032999536,515.3397937999689,515.8234866999555,,,,,,,,,,,,515.8401035999996,,,,,,,,,,,,,,,515.8335387999541,515.8401035999996,515.8401035999996,515.8401035999996,518.823692499951,j,1.6699281000182964,0.2080022000009194,518.8237365999958,518.8237478999654,None,518.8398769999621,518.8398769999621,518.8398769999621,,,,,,,,,,,,,,00064,001,2026-01-19_21h51.27.317,MST_task,2024.2.0,59.96710205561136,2026-01-19 21h51.36.225488 +0530,
,Objects\023a.jpg,93,0,94,,,,,,,f,0.776960399991367,0.20788220001850277,None,,,,,,94,0,93,518.8398769999621,,,,,,,,,,,,,,,,,,,,,,,,,,,,,,518.8238154999563,518.8398769999621,519.3232606999809,,,,,,,,,,,,519.3400333999889,,,,,,,,,,,,,,,519.3321253999602,519.3400333999889,519.3400333999889,519.3400333999889,522.3238514999975,f,0.776960399991367,0.20788220001850277,522.323897299997,522.323908899969,None,522.3400047000032,522.3400047000032,522.3400047000032,,,,,,,,,,,,,,00064,001,2026-01-19_21h51.27.317,MST_task,2024.2.0,59.96710205561136,2026-01-19 21h51.36.225488 +0530,
,Objects\177a.jpg,94,0,95,,,,,,,j,0.8770115000079386,0.21593269996810704,None,,,,,,95,0,94,522.3400047000032,,,,,,,,,,,,,,,,,,,,,,,,,,,,,,522.3239824000048,522.3400047000032,522.8235589999822,,,,,,,,,,,,522.8401915999711,,,,,,,,,,,,,,,522.8329990999773,522.8401915999711,522.8401915999711,522.8401915999711,525.8236769999494,j,0.8770115000079386,0.21593269996810704,525.8237191999797,525.8237300000037,None,525.8399651999935,525.8399651999935,525.8399651999935,,,,,,,,,,,,,,00064,001,2026-01-19_21h51.27.317,MST_task,2024.2.0,59.96710205561136,2026-01-19 21h51.36.225488 +0530,
,Objects\018a.jpg,95,0,96,,,,,,,j,1.1374743999913335,0.21503600000869483,None,,,,,,96,0,95,525.8399651999935,,,,,,,,,,,,,,,,,,,,,,,,,,,,,,525.8238262999803,525.8399651999935,526.3235856999527,,,,,,,,,,,,526.3402722000028,,,,,,,,,,,,,,,526.3263748000027,526.3402722000028,526.3402722000028,526.3402722000028,529.3238974999986,j,1.1374743999913335,0.21503600000869483,529.3239385999623,529.3239492999855,None,529.3399055000045,529.3399055000045,529.3399055000045,,,,,,,,,,,,,,00064,001,2026-01-19_21h51.27.317,MST_task,2024.2.0,59.96710205561136,2026-01-19 21h51.36.225488 +0530,
,Objects\112a.jpg,96,0,97,,,,,,,j,1.9247234999784268,0.19207180000375956,None,,,,,,97,0,96,529.3399055000045,,,,,,,,,,,,,,,,,,,,,,,,,,,,,,529.3240158999688,529.3399055000045,529.8234303999925,,,,,,,,,,,,529.8402138999663,,,,,,,,,,,,,,,529.8327404999873,529.8402138999663,529.8402138999663,529.8402138999663,532.8238320999662,j,1.9247234999784268,0.19207180000375956,532.8238716999767,532.8238820999977,None,532.840042900003,532.840042900003,532.840042900003,,,,,,,,,,,,,,00064,001,2026-01-19_21h51.27.317,MST_task,2024.2.0,59.96710205561136,2026-01-19 21h51.36.225488 +0530,
,Objects\176a.jpg,97,0,98,,,,,,,j,1.1779454000061378,0.19947289995616302,None,,,,,,98,0,97,532.840042900003,,,,,,,,,,,,,,,,,,,,,,,,,,,,,,532.8239461999619,532.840042900003,533.3236291999929,,,,,,,,,,,,533.3401140999631,,,,,,,,,,,,,,,533.3331937000039,533.3401140999631,533.3401140999631,533.3401140999631,536.3238915999536,j,1.1779454000061378,0.19947289995616302,536.3239443000057,536.3239558999776,None,536.339962899976,536.339962899976,536.339962899976,,,,,,,,,,,,,,00064,001,2026-01-19_21h51.27.317,MST_task,2024.2.0,59.96710205561136,2026-01-19 21h51.36.225488 +0530,
,Scenes\143a.jpg,98,0,99,,,,,,,j,1.430892800039146,0.1759967000107281,None,,,,,,99,0,98,536.339962899976,,,,,,,,,,,,,,,,,,,,,,,,,,,,,,536.3240583000006,536.339962899976,536.8235061999876,,,,,,,,,,,,536.8467397999484,,,,,,,,,,,,,,,536.8440466999891,536.8467397999484,536.8467397999484,536.8467397999484,539.8403162999894,j,1.430892800039146,0.1759967000107281,539.8420745999902,539.8420948999701,None,,,,,,,,,,,,,,,,,00064,001,2026-01-19_21h51.27.317,MST_task,2024.2.0,59.96710205561136,2026-01-19 21h51.36.225488 +0530,
,Scenes\192a.jpg,99,0,100,,,,,,,j,1.81586780003272,0.19191479997243732,None,,,,,,100,0,99,539.8566481999587,,,,,,,,,,,,,,,,,,,,,,,,,,,,,,539.8422028999776,539.8566481999587,540.3401492999983,,,,,,,,,,,,540.357244099956,,,,,,,,,,,,,,,540.3534140999545,540.357244099956,540.357244099956,540.357244099956,543.340429999982,j,1.81586780003272,0.19191479997243732,543.3404712000047,543.3404822999728,None,543.3566468000063,543.3566468000063,543.3566468000063,,,,,,,,,,,,,,00064,001,2026-01-19_21h51.27.317,MST_task,2024.2.0,59.96710205561136,2026-01-19 21h51.36.225488 +0530,
,Scenes\104a.jpg,100,0,101,,,,,,,f,2.563353299978189,0.1909373000380583,None,,,,,,101,0,100,543.3566468000063,,,,,,,,,,,,,,,,,,,,,,,,,,,,,,543.3405467999983,543.3566468000063,543.8403204999631,,,,,,,,,,,,543.8586252999958,,,,,,,,,,,,,,,543.8561591999605,543.8586252999958,543.8586252999958,543.8586252999958,546.8569098999724,f,2.563353299978189,0.1909373000380583,546.8569598000031,546.8569720999803,None,,,,,,,,,,,,,,,,,00064,001,2026-01-19_21h51.27.317,MST_task,2024.2.0,59.96710205561136,2026-01-19 21h51.36.225488 +0530,
,Scenes\090a.jpg,101,0,102,,,,,,,j,2.211493100039661,0.13504989998182282,None,,,,,,102,0,101,546.8731698999763,,,,,,,,,,,,,,,,,,,,,,,,,,,,,,546.8570402999758,546.8731698999763,547.3568833000027,,,,,,,,,,,,547.3785268999636,,,,,,,,,,,,,,,547.3750567999668,547.3785268999636,547.3785268999636,547.3785268999636,550.3736272999668,j,2.211493100039661,0.13504989998182282,550.373669099994,550.3736803999636,None,,,,,,,,,,,,,,,,,00064,001,2026-01-19_21h51.27.317,MST_task,2024.2.0,59.96710205561136,2026-01-19 21h51.36.225488 +0530,
,Scenes\105a.jpg,102,0,103,,,,,,,j,1.091448399994988,0.1928796999854967,None,,,,,,103,0,102,550.390045899956,,,,,,,,,,,,,,,,,,,,,,,,,,,,,,550.3737811999745,550.390045899956,550.8734108000062,,,,,,,,,,,,550.8901506999973,,,,,,,,,,,,,,,550.8824364999891,550.8901506999973,550.8901506999973,550.8901506999973,553.8738387000049,j,1.091448399994988,0.1928796999854967,553.8738844000036,553.8738953999709,None,553.8898482999648,553.8898482999648,553.8898482999648,,,,,,,,,,,,,,00064,001,2026-01-19_21h51.27.317,MST_task,2024.2.0,59.96710205561136,2026-01-19 21h51.36.225488 +0530,
,Scenes\042a.jpg,103,0,104,,,,,,,j,1.7272001000237651,0.18406469997717068,None,,,,,,104,0,103,553.8898482999648,,,,,,,,,,,,,,,,,,,,,,,,,,,,,,553.8740217000013,553.8898482999648,554.3735731999623,,,,,,,,,,,,554.390412299952,,,,,,,,,,,,,,,554.3872789999587,554.390412299952,554.390412299952,554.390412299952,557.3738449999946,j,1.7272001000237651,0.18406469997717068,557.3738902999903,557.3739012999577,None,557.3898383000051,557.3898383000051,557.3898383000051,,,,,,,,,,,,,,00064,001,2026-01-19_21h51.27.317,MST_task,2024.2.0,59.96710205561136,2026-01-19 21h51.36.225488 +0530,
,Scenes\049a.jpg,104,0,105,,,,,,,j,1.6029668999835849,0.168102000025101,None,,,,,,105,0,104,557.3898383000051,,,,,,,,,,,,,,,,,,,,,,,,,,,,,,557.3739695999539,557.3898383000051,557.8735406000051,,,,,,,,,,,,557.8902708999813,,,,,,,,,,,,,,,557.8861082999501,557.8902708999813,557.8902708999813,557.8902708999813,560.8739174999646,j,1.6029668999835849,0.168102000025101,560.8739581999835,560.873968800006,None,560.8899595999974,560.8899595999974,560.8899595999974,,,,,,,,,,,,,,00064,001,2026-01-19_21h51.27.317,MST_task,2024.2.0,59.96710205561136,2026-01-19 21h51.36.225488 +0530,
,Objects\123a.jpg,105,0,106,,,,,,,j,2.406830899999477,0.1681903999997303,None,,,,,,106,0,105,560.8899595999974,,,,,,,,,,,,,,,,,,,,,,,,,,,,,,560.8740658999886,560.8899595999974,561.3735783000011,,,,,,,,,,,,561.3903055999544,,,,,,,,,,,,,,,561.3854203999508,561.3903055999544,561.3903055999544,561.3903055999544,564.3738560999627,j,2.406830899999477,0.1681903999997303,564.3759416999528,564.3759591999697,None,564.3899906000006,564.3899906000006,564.3899906000006,,,,,,,,,,,,,,00064,001,2026-01-19_21h51.27.317,MST_task,2024.2.0,59.96710205561136,2026-01-19 21h51.36.225488 +0530,
,Objects\188a.jpg,106,0,107,,,,,,,f,1.4109409999800846,0.16899189999094233,None,,,,,,107,0,106,564.3899906000006,,,,,,,,,,,,,,,,,,,,,,,,,,,,,,564.3760273999651,564.3899906000006,564.8734591999673,,,,,,,,,,,,564.8901258999831,,,,,,,,,,,,,,,564.8837250999641,564.8901258999831,564.8901258999831,564.8901258999831,567.8738841000013,f,1.4109409999800846,0.16899189999094233,567.8739299000008,567.8739405999659,None,567.8899601000012,567.8899601000012,567.8899601000012,,,,,,,,,,,,,,00064,001,2026-01-19_21h51.27.317,MST_task,2024.2.0,59.96710205561136,2026-01-19 21h51.36.225488 +0530,
,Objects\127a.jpg,107,0,108,,,,,,,f,1.279025299998466,0.1922791000106372,None,,,,,,108,0,107,567.8899601000012,,,,,,,,,,,,,,,,,,,,,,,,,,,,,,567.8740366999991,567.8899601000012,568.3735267999582,,,,,,,,,,,,568.390045899956,,,,,,,,,,,,,,,568.3823735999758,568.390045899956,568.390045899956,568.390045899956,571.3738635999616,f,1.279025299998466,0.1922791000106372,571.3739151000045,571.3739262999734,None,571.3899114999804,571.3899114999804,571.3899114999804,,,,,,,,,,,,,,00064,001,2026-01-19_21h51.27.317,MST_task,2024.2.0,59.96710205561136,2026-01-19 21h51.36.225488 +0530,
,Objects\058a.jpg,108,0,109,,,,,,,f,1.9232706000329927,0.20727079996140674,None,,,,,,109,0,108,571.3899114999804,,,,,,,,,,,,,,,,,,,,,,,,,,,,,,571.3739998999517,571.3899114999804,571.8734336000052,,,,,,,,,,,,571.8901901999488,,,,,,,,,,,,,,,571.8822775000008,571.8901901999488,571.8901901999488,571.8901901999488,574.8738321999554,f,1.9232706000329927,0.20727079996140674,574.8738783999579,574.8738892999827,None,574.8900137000019,574.8900137000019,574.8900137000019,,,,,,,,,,,,,,00064,001,2026-01-19_21h51.27.317,MST_task,2024.2.0,59.96710205561136,2026-01-19 21h51.36.225488 +0530,
,Objects\128a.jpg,109,0,110,,,,,,,f,1.19121640000958,0.19201800000155345,None,,,,,,110,0,109,574.8900137000019,,,,,,,,,,,,,,,,,,,,,,,,,,,,,,574.8739555999637,574.8900137000019,575.3735601999797,,,,,,,,,,,,575.3902365999529,,,,,,,,,,,,,,,575.3824469999527,575.3902365999529,575.3902365999529,575.3902365999529,578.3738679999951,f,1.19121640000958,0.19201800000155345,578.373908599955,578.3739193999791,None,578.3899302999489,578.3899302999489,578.3899302999489,,,,,,,,,,,,,,00064,001,2026-01-19_21h51.27.317,MST_task,2024.2.0,59.96710205561136,2026-01-19 21h51.36.225488 +0530,
,Objects\072a.jpg,110,0,111,,,,,,,f,1.7070596999838017,0.19259619998047128,None,,,,,,111,0,110,578.3899302999489,,,,,,,,,,,,,,,,,,,,,,,,,,,,,,578.3739827999962,578.3899302999489,578.8735171000008,,,,,,,,,,,,578.8901024999795,,,,,,,,,,,,,,,578.883256400004,578.8901024999795,578.8901024999795,578.8901024999795,581.8739952999749,f,1.7070596999838017,0.19259619998047128,581.8740433999919,581.8740626999643,None,581.8900634999736,581.8900634999736,581.8900634999736,,,,,,,,,,,,,,00064,001,2026-01-19_21h51.27.317,MST_task,2024.2.0,59.96710205561136,2026-01-19 21h51.36.225488 +0530,
,Objects\028a.jpg,111,0,112,,,,,,,j,0.9353524000034668,0.17599319998407736,None,,,,,,112,0,111,581.8900634999736,,,,,,,,,,,,,,,,,,,,,,,,,,,,,,581.874131199962,581.8900634999736,582.3733091999893,,,,,,,,,,,,582.3900564999785,,,,,,,,,,,,,,,582.3820362999686,582.3900564999785,582.3900564999785,582.3900564999785,585.373508299992,j,0.9353524000034668,0.17599319998407736,585.3735492999549,585.3735603999812,None,585.3899139999994,585.3899139999994,585.3899139999994,,,,,,,,,,,,,,00064,001,2026-01-19_21h51.27.317,MST_task,2024.2.0,59.96710205561136,2026-01-19 21h51.36.225488 +0530,
,Scenes\140a.jpg,112,0,113,,,,,,,j,1.4036390000255778,0.16689450002741069,None,,,,,,113,0,112,585.3899139999994,,,,,,,,,,,,,,,,,,,,,,,,,,,,,,585.3736589999753,585.3899139999994,585.8734735999606,,,,,,,,,,,,585.8903398999828,,,,,,,,,,,,,,,585.8876055000001,585.8903398999828,585.8903398999828,585.8903398999828,588.8739245999604,j,1.4036390000255778,0.16689450002741069,588.8759832999785,588.8760026999516,None,588.8899308999535,588.8899308999535,588.8899308999535,,,,,,,,,,,,,,00064,001,2026-01-19_21h51.27.317,MST_task,2024.2.0,59.96710205561136,2026-01-19 21h51.36.225488 +0530,
,Scenes\178a.jpg,113,0,114,,,,,,,j,2.934411900001578,None,None,,,,,,114,0,113,588.8899308999535,,,,,,,,,,,,,,,,,,,,,,,,,,,,,,588.87612479995,588.8899308999535,589.3735254999483,,,,,,,,,,,,589.390488999954,,,,,,,,,,,,,,,589.3870614999905,589.390488999954,589.390488999954,589.390488999954,592.3736946999561,j,2.934411900001578,None,592.3737344999681,592.3737451999914,None,592.3898938999628,592.3898938999628,592.3898938999628,,,,,,,,,,,,,,00064,001,2026-01-19_21h51.27.317,MST_task,2024.2.0,59.96710205561136,2026-01-19 21h51.36.225488 +0530,
,Scenes\084a.jpg,114,0,115,,,,,,,j,1.7208825999987312,0.2226172000519,None,,,,,,115,0,114,592.3898938999628,,,,,,,,,,,,,,,,,,,,,,,,,,,,,,592.3738093999564,592.3898938999628,592.8735693999915,,,,,,,,,,,,592.8934920000029,,,,,,,,,,,,,,,592.8910363999894,592.8934920000029,592.8934920000029,592.8934920000029,595.8901273999945,j,1.7208825999987312,0.2226172000519,595.8901698999689,595.8901817000005,None,,,,,,,,,,,,,,,,,00064,001,2026-01-19_21h51.27.317,MST_task,2024.2.0,59.96710205561136,2026-01-19 21h51.36.225488 +0530,
,Scenes\007a.jpg,115,0,116,,,,,,,f,1.8619225999573246,0.19207740004640073,None,,,,,,116,0,115,595.9064706999925,,,,,,,,,,,,,,,,,,,,,,,,,,,,,,595.8902837999631,595.9064706999925,596.3906615999877,,,,,,,,,,,,596.4078395999968,,,,,,,,,,,,,,,596.4055951999617,596.4078395999968,596.4078395999968,596.4078395999968,599.4067902999814,f,1.8619225999573246,0.19207740004640073,599.4068497999688,599.4068636999582,None,,,,,,,,,,,,,,,,,00064,001,2026-01-19_21h51.27.317,MST_task,2024.2.0,59.96710205561136,2026-01-19 21h51.36.225488 +0530,
,Scenes\063a.jpg,116,0,117,,,,,,,None,,,j,0.08224109996808693,None,,,,117,0,116,599.423290799954,,,,,,,,,,,,,,,,,,,,,,,,,,,,,,599.4069364999887,599.423290799954,599.9068126999773,,,,,,,,,,,,599.9236651999527,,,,,,,,,,,,,,,599.9154472999508,599.9236651999527,599.9236651999527,599.9236651999527,602.9070097999647,None,,,602.9070507999859,603.0069392999867,j,602.9231868999777,602.9231868999777,602.9231868999777,602.9231868999777,602.9231868999777,0.08224109996808693,None,,,,,,,,,,00064,001,2026-01-19_21h51.27.317,MST_task,2024.2.0,59.96710205561136,2026-01-19 21h51.36.225488 +0530,
,Scenes\164a.jpg,117,0,118,,,,,,,j,2.248794299957808,0.20792260003509,None,,,,,,118,0,117,603.0231437999755,,,,,,,,,,,,,,,,,,,,,,,,,,,,,,603.0070590999676,603.0231437999755,603.5067462999723,,,,,,,,,,,,603.5248629999696,,,,,,,,,,,,,,,603.5223075999529,603.5248629999696,603.5248629999696,603.5248629999696,606.5234425999806,j,2.248794299957808,0.20792260003509,606.5234962999821,606.5235091999639,None,,,,,,,,,,,,,,,,,00064,001,2026-01-19_21h51.27.317,MST_task,2024.2.0,59.96710205561136,2026-01-19 21h51.36.225488 +0530,
,Scenes\174a.jpg,118,0,119,,,,,,,f,1.988215300021693,0.19153720000758767,None,,,,,,119,0,118,606.5398438999546,,,,,,,,,,,,,,,,,,,,,,,,,,,,,,606.5235877999803,606.5398438999546,607.0233265999705,,,,,,,,,,,,607.0418076999485,,,,,,,,,,,,,,,607.0394749999978,607.0418076999485,607.0418076999485,607.0418076999485,610.0401538999868,f,1.988215300021693,0.19153720000758767,610.0401964999619,610.0402081999928,None,,,,,,,,,,,,,,,,,00064,001,2026-01-19_21h51.27.317,MST_task,2024.2.0,59.96710205561136,2026-01-19 21h51.36.225488 +0530,
,Objects\085a.jpg,119,0,120,,,,,,,j,1.2249224999686703,0.20746070001041517,None,,,,,,120,0,119,610.0565018999623,,,,,,,,,,,,,,,,,,,,,,,,,,,,,,610.0402769999928,610.0565018999623,610.5401904999744,,,,,,,,,,,,610.557084799977,,,,,,,,,,,,,,,610.5523419999518,610.557084799977,610.557084799977,610.557084799977,613.5404544000048,j,1.2249224999686703,0.20746070001041517,613.542578499997,613.5425964999595,None,613.5565606000018,613.5565606000018,613.5565606000018,,,,,,,,,,,,,,00064,001,2026-01-19_21h51.27.317,MST_task,2024.2.0,59.96710205561136,2026-01-19 21h51.36.225488 +0530,
,Objects\187a.jpg,120,0,121,,,,,,,f,1.444071400037501,0.22459900000831112,None,,,,,,121,0,120,613.5565606000018,,,,,,,,,,,,,,,,,,,,,,,,,,,,,,613.542699099984,613.5565606000018,614.040259499976,,,,,,,,,,,,614.0567330999766,,,,,,,,,,,,,,,614.0431313999579,614.0567330999766,614.0567330999766,614.0567330999766,617.040453499998,f,1.444071400037501,0.22459900000831112,617.0404965999769,617.0405075000017,None,617.0565502999816,617.0565502999816,617.0565502999816,,,,,,,,,,,,,,00064,001,2026-01-19_21h51.27.317,MST_task,2024.2.0,59.96710205561136,2026-01-19 21h51.36.225488 +0530,
,Objects\179a.jpg,121,0,122,,,,,,,f,1.4247735999524593,0.22387370001524687,None,,,,,,122,0,121,617.0565502999816,,,,,,,,,,,,,,,,,,,,,,,,,,,,,,617.0406044999836,617.0565502999816,617.5402910999837,,,,,,,,,,,,617.5568013999728,,,,,,,,,,,,,,,617.5493846999598,617.5568013999728,617.5568013999728,617.5568013999728,620.5403655999689,f,1.4247735999524593,0.22387370001524687,620.5404054999817,620.5404163000057,None,620.5565615999512,620.5565615999512,620.5565615999512,,,,,,,,,,,,,,00064,001,2026-01-19_21h51.27.317,MST_task,2024.2.0,59.96710205561136,2026-01-19 21h51.36.225488 +0530,
,Objects\090a.jpg,122,0,123,,,,,,,j,2.5643996999715455,0.16021110001020133,None,,,,,,123,0,122,620.5565615999512,,,,,,,,,,,,,,,,,,,,,,,,,,,,,,620.5405161999515,620.5565615999512,621.0401228999835,,,,,,,,,,,,621.056790899951,,,,,,,,,,,,,,,621.0493772999616,621.056790899951,621.056790899951,621.056790899951,624.040922599961,j,2.5643996999715455,0.16021110001020133,624.0409737000009,624.040985199972,None,624.0567839999567,624.0567839999567,624.0567839999567,,,,,,,,,,,,,,00064,001,2026-01-19_21h51.27.317,MST_task,2024.2.0,59.96710205561136,2026-01-19 21h51.36.225488 +0530,
,Objects\126a.jpg,123,0,124,,,,,,,f,1.0880095000029542,0.19200560002354905,None,,,,,,124,0,123,624.0567839999567,,,,,,,,,,,,,,,,,,,,,,,,,,,,,,624.0410640999908,624.0567839999567,624.5402695999946,,,,,,,,,,,,624.556932699983,,,,,,,,,,,,,,,624.5512931999983,624.556932699983,624.556932699983,624.556932699983,627.5403934999486,f,1.0880095000029542,0.19200560002354905,627.5404361999827,627.5404469999485,None,627.5565651999786,627.5565651999786,627.5565651999786,,,,,,,,,,,,,,00064,001,2026-01-19_21h51.27.317,MST_task,2024.2.0,59.96710205561136,2026-01-19 21h51.36.225488 +0530,
,Objects\136a.jpg,124,0,125,,,,,,,f,0.8602655999711715,0.20798180002020672,None,,,,,,125,0,124,627.5565651999786,,,,,,,,,,,,,,,,,,,,,,,,,,,,,,627.5405126999831,627.5565651999786,628.0401801999542,,,,,,,,,,,,628.0568407999817,,,,,,,,,,,,,,,628.0499616999878,628.0568407999817,628.0568407999817,628.0568407999817,631.0404010000057,f,0.8602655999711715,0.20798180002020672,631.0404431999777,631.0404535999987,None,631.0565604000003,631.0565604000003,631.0565604000003,,,,,,,,,,,,,,00064,001,2026-01-19_21h51.27.317,MST_task,2024.2.0,59.96710205561136,2026-01-19 21h51.36.225488 +0530,
,Objects\160a.jpg,125,0,126,,,,,,,f,1.2084122000378557,0.19307579996529967,None,,,,,,126,0,125,631.0565604000003,,,,,,,,,,,,,,,,,,,,,,,,,,,,,,631.0405562999658,631.0565604000003,631.5401469999924,,,,,,,,,,,,631.5568163999706,,,,,,,,,,,,,,,631.5428855999489,631.5568163999706,631.5568163999706,631.5568163999706,634.540516399953,f,1.2084122000378557,0.19307579996529967,634.5405673999921,634.5405786999618,None,634.556605699996,634.556605699996,634.556605699996,,,,,,,,,,,,,,00064,001,2026-01-19_21h51.27.317,MST_task,2024.2.0,59.96710205561136,2026-01-19 21h51.36.225488 +0530,
,Scenes\083a.jpg,126,0,127,,,,,,,j,1.3295875000185333,0.21598069998435676,None,,,,,,127,0,126,634.556605699996,,,,,,,,,,,,,,,,,,,,,,,,,,,,,,634.5406516999938,634.556605699996,635.0401673999731,,,,,,,,,,,,635.05965499999,,,,,,,,,,,,,,,635.0572317999904,635.05965499999,635.05965499999,635.05965499999,638.0568513000035,j,1.3295875000185333,0.21598069998435676,638.0586540999939,638.0586722999578,None,,,,,,,,,,,,,,,,,00064,001,2026-01-19_21h51.27.317,MST_task,2024.2.0,59.96710205561136,2026-01-19 21h51.36.225488 +0530,
,Scenes\044a.jpg,127,0,128,,,,,,,j,2.4801934999995865,0.08704360004048795,None,,,,,,128,0,127,638.0730528999702,,,,,,,,,,,,,,,,,,,,,,,,,,,,,,638.0587736999732,638.0730528999702,638.5567491999827,,,,,,,,,,,,638.5735670999857,,,,,,,,,,,,,,,638.5697809999692,638.5735670999857,638.5735670999857,638.5735670999857,641.5571732999524,j,2.4801934999995865,0.08704360004048795,641.5572153999819,641.5572263999493,None,641.5733332999516,641.5733332999516,641.5733332999516,,,,,,,,,,,,,,00064,001,2026-01-19_21h51.27.317,MST_task,2024.2.0,59.96710205561136,2026-01-19 21h51.36.225488 +0530,
,Scenes\185a.jpg,128,0,129,,,,,,,j,1.7001497999881394,0.21565870003541932,None,,,,,,129,0,128,641.5733332999516,,,,,,,,,,,,,,,,,,,,,,,,,,,,,,641.5572926999885,641.5733332999516,642.0569928999757,,,,,,,,,,,,642.0735897999839,,,,,,,,,,,,,,,642.0704587999498,642.0735897999839,642.0735897999839,642.0735897999839,645.057209999999,j,1.7001497999881394,0.21565870003541932,645.0572523999726,645.0572628999944,None,645.0732587999664,645.0732587999664,645.0732587999664,,,,,,,,,,,,,,00064,001,2026-01-19_21h51.27.317,MST_task,2024.2.0,59.96710205561136,2026-01-19 21h51.36.225488 +0530,
,Scenes\059a.jpg,129,0,130,,,,,,,j,1.8317837999784388,0.17503470001975074,None,,,,,,130,0,129,645.0732587999664,,,,,,,,,,,,,,,,,,,,,,,,,,,,,,645.0573298999807,645.0732587999664,645.5568856999744,,,,,,,,,,,,645.5739984999527,,,,,,,,,,,,,,,645.5669014999876,645.5739984999527,645.5739984999527,645.5739984999527,648.5574820999755,j,1.8317837999784388,0.17503470001975074,648.5575336999609,648.5575455999933,None,648.5731317999889,648.5731317999889,648.5731317999889,,,,,,,,,,,,,,00064,001,2026-01-19_21h51.27.317,MST_task,2024.2.0,59.96710205561136,2026-01-19 21h51.36.225488 +0530,
,Scenes\002a.jpg,130,0,131,,,,,,,j,1.4308801000006497,0.13613500003702939,None,,,,,,131,0,130,648.5731317999889,,,,,,,,,,,,,,,,,,,,,,,,,,,,,,648.5576628999552,648.5731317999889,649.0569225999643,,,,,,,,,,,,649.0779438999598,,,,,,,,,,,,,,,649.0753783999826,649.0779438999598,649.0779438999598,649.0779438999598,652.0733646999579,j,1.4308801000006497,0.13613500003702939,652.0734100999543,652.073421899986,None,,,,,,,,,,,,,,,,,00064,001,2026-01-19_21h51.27.317,MST_task,2024.2.0,59.96710205561136,2026-01-19 21h51.36.225488 +0530,
,Scenes\096a.jpg,131,0,132,,,,,,,j,1.0546440000180155,0.21570790000259876,None,,,,,,132,0,131,652.0898736999952,,,,,,,,,,,,,,,,,,,,,,,,,,,,,,652.0735292999889,652.0898736999952,652.5733697999967,,,,,,,,,,,,652.5904740999686,,,,,,,,,,,,,,,652.5848820999963,652.5904740999686,652.5904740999686,652.5904740999686,655.5737249999656,j,1.0546440000180155,0.21570790000259876,655.5737657999853,655.5737768999534,None,655.590017999988,655.590017999988,655.590017999988,,,,,,,,,,,,,,00064,001,2026-01-19_21h51.27.317,MST_task,2024.2.0,59.96710205561136,2026-01-19 21h51.36.225488 +0530,
,Scenes\041a.jpg,132,0,133,,,,,,,j,0.8814967999933288,0.16835340001853183,None,,,,,,133,0,132,655.590017999988,,,,,,,,,,,,,,,,,,,,,,,,,,,,,,655.5738786999718,655.590017999988,656.0734398999484,,,,,,,,,,,,656.0920836000005,,,,,,,,,,,,,,,656.0897267999826,656.0920836000005,656.0920836000005,656.0920836000005,659.0901567999972,j,0.8814967999933288,0.16835340001853183,659.0901985999662,659.0902100999956,None,,,,,,,,,,,,,,,,,00064,001,2026-01-19_21h51.27.317,MST_task,2024.2.0,59.96710205561136,2026-01-19 21h51.36.225488 +0530,
,Objects\081a.jpg,133,0,134,,,,,,,f,0.9826061999774538,0.18314840004313737,None,,,,,,134,0,133,659.1066189999692,,,,,,,,,,,,,,,,,,,,,,,,,,,,,,659.0902784999926,659.1066189999692,659.5903726999532,,,,,,,,,,,,,,,,,,,,,,,,,,,659.5962445999612,659.6071354000014,659.6071354000014,659.6071354000014,662.5903819999658,f,0.9826061999774538,0.18314840004313737,662.5925149999675,662.5925349000026,None,662.6065248999512,662.6065248999512,662.6065248999512,,,,,,,,,,,,,,00064,001,2026-01-19_21h51.27.317,MST_task,2024.2.0,59.96710205561136,2026-01-19 21h51.36.225488 +0530,
,Objects\010a.jpg,134,0,135,,,,,,,f,0.9461334000225179,0.16004319995408878,None,,,,,,135,0,134,662.6065248999512,,,,,,,,,,,,,,,,,,,,,,,,,,,,,,662.5926042000065,662.6065248999512,663.0902663999586,,,,,,,,,,,,663.1068584999884,,,,,,,,,,,,,,,663.1014677999774,663.1068584999884,663.1068584999884,663.1068584999884,666.0904314999934,f,0.9461334000225179,0.16004319995408878,666.0904771999922,666.0904878999572,None,666.1066870999639,666.1066870999639,666.1066870999639,,,,,,,,,,,,,,00064,001,2026-01-19_21h51.27.317,MST_task,2024.2.0,59.96710205561136,2026-01-19 21h51.36.225488 +0530,
,Objects\172a.jpg,135,0,136,,,,,,,j,2.4144093000213616,0.2160425999900326,None,,,,,,136,0,135,666.1066870999639,,,,,,,,,,,,,,,,,,,,,,,,,,,,,,666.0905554000055,666.1066870999639,666.590254699986,,,,,,,,,,,,666.606902599975,,,,,,,,,,,,,,,666.59276889998,666.606902599975,666.606902599975,666.606902599975,669.5905939999502,j,2.4144093000213616,0.2160425999900326,669.5906415999634,669.5906528999913,None,669.6066305999993,669.6066305999993,669.6066305999993,,,,,,,,,,,,,,00064,001,2026-01-19_21h51.27.317,MST_task,2024.2.0,59.96710205561136,2026-01-19 21h51.36.225488 +0530,
,Objects\131a.jpg,136,0,137,,,,,,,f,1.6900043999776244,0.1840049999882467,None,,,,,,137,0,136,669.6066305999993,,,,,,,,,,,,,,,,,,,,,,,,,,,,,,669.5907617000048,669.6066305999993,670.090148999996,,,,,,,,,,,,670.1070167999715,,,,,,,,,,,,,,,670.0997787999804,670.1070167999715,670.1070167999715,670.1070167999715,673.0906625000061,f,1.6900043999776244,0.1840049999882467,673.0907187999692,673.0907298999955,None,673.1066655999748,673.1066655999748,673.1066655999748,,,,,,,,,,,,,,00064,001,2026-01-19_21h51.27.317,MST_task,2024.2.0,59.96710205561136,2026-01-19 21h51.36.225488 +0530,
,Objects\089a.jpg,137,0,138,,,,,,,j,1.6950723999761976,0.19217930000741035,None,,,,,,138,0,137,673.1066655999748,,,,,,,,,,,,,,,,,,,,,,,,,,,,,,673.0908001000062,673.1066655999748,673.5901908999658,,,,,,,,,,,,673.6069167999667,,,,,,,,,,,,,,,673.5995357999927,673.6069167999667,673.6069167999667,673.6069167999667,676.5904353999649,j,1.6950723999761976,0.19217930000741035,676.5904779999983,676.5904887999641,None,676.6065757999895,676.6065757999895,676.6065757999895,,,,,,,,,,,,,,00064,001,2026-01-19_21h51.27.317,MST_task,2024.2.0,59.96710205561136,2026-01-19 21h51.36.225488 +0530,
,Objects\050a.jpg,138,0,139,,,,,,,f,0.778251200041268,0.16000189998885617,None,,,,,,139,0,138,676.6065757999895,,,,,,,,,,,,,,,,,,,,,,,,,,,,,,676.5905872999574,676.6065757999895,677.0903083999874,,,,,,,,,,,,677.1067373999977,,,,,,,,,,,,,,,677.0931575999712,677.1067373999977,677.1067373999977,677.1067373999977,680.0904194999603,f,0.778251200041268,0.16000189998885617,680.0904619999928,680.0904729999602,None,680.1065055999788,680.1065055999788,680.1065055999788,,,,,,,,,,,,,,00064,001,2026-01-19_21h51.27.317,MST_task,2024.2.0,59.96710205561136,2026-01-19 21h51.36.225488 +0530,
,Objects\044a.jpg,139,0,140,,,,,,,f,1.6381739000207745,0.17644869996001944,None,,,,,,140,0,139,680.1065055999788,,,,,,,,,,,,,,,,,,,,,,,,,,,,,,680.090540599951,680.1065055999788,680.5902988999733,,,,,,,,,,,,680.606810599973,,,,,,,,,,,,,,,680.6002687999862,680.606810599973,680.606810599973,680.606810599973,683.5907907999936,f,1.6381739000207745,0.17644869996001944,683.5908385999501,683.5908493999741,None,683.6065934999497,683.6065934999497,683.6065934999497,,,,,,,,,,,,,,00064,001,2026-01-19_21h51.27.317,MST_task,2024.2.0,59.96710205561136,2026-01-19 21h51.36.225488 +0530,
,Scenes\069a.jpg,140,0,141,,,,,,,j,2.5602597999968566,0.18459630000870675,None,,,,,,141,0,140,683.6065934999497,,,,,,,,,,,,,,,,,,,,,,,,,,,,,,683.5909188999794,683.6065934999497,684.0903393999906,,,,,,,,,,,,684.108883399982,,,,,,,,,,,,,,,684.1062576999539,684.108883399982,684.108883399982,684.108883399982,687.1068702999619,j,2.5602597999968566,0.18459630000870675,687.1087885999586,687.1088098000037,None,,,,,,,,,,,,,,,,,00064,001,2026-01-19_21h51.27.317,MST_task,2024.2.0,59.96710205561136,2026-01-19 21h51.36.225488 +0530,
,Scenes\050a.jpg,141,0,142,,,,,,,j,2.717981299967505,0.14386110001942143,None,,,,,,142,0,141,687.1231556999846,,,,,,,,,,,,,,,,,,,,,,,,,,,,,,687.1089254999533,687.1231556999846,687.6068100999692,,,,,,,,,,,,687.6237029999611,,,,,,,,,,,,,,,687.6197999999858,687.6237029999611,687.6237029999611,687.6237029999611,690.6071552999783,j,2.717981299967505,0.14386110001942143,690.6071948999888,690.6072052999516,None,690.6231232999708,690.6231232999708,690.6231232999708,,,,,,,,,,,,,,00064,001,2026-01-19_21h51.27.317,MST_task,2024.2.0,59.96710205561136,2026-01-19 21h51.36.225488 +0530,
,Scenes\125a.jpg,142,0,143,,,,,,,j,2.863361400028225,None,None,,,,,,143,0,142,690.6231232999708,,,,,,,,,,,,,,,,,,,,,,,,,,,,,,690.6073030999978,690.6231232999708,691.1068649999797,,,,,,,,,,,,691.1263518999913,,,,,,,,,,,,,,,691.1239581999835,691.1263518999913,691.1263518999913,691.1263518999913,694.1236741999746,j,2.863361400028225,None,694.1237178999581,694.1237300999928,None,,,,,,,,,,,,,,,,,00064,001,2026-01-19_21h51.27.317,MST_task,2024.2.0,59.96710205561136,2026-01-19 21h51.36.225488 +0530,
,Scenes\169a.jpg,143,0,144,,,,,,,j,0.9083404999691993,0.20001239998964593,None,,,,,,144,0,143,694.1398988000001,,,,,,,,,,,,,,,,,,,,,,,,,,,,,,694.1240369000006,694.1398988000001,694.6233483999968,,,,,,,,,,,,694.6404248999897,,,,,,,,,,,,,,,694.6363479999709,694.6404248999897,694.6404248999897,694.6404248999897,697.6238296999945,j,0.9083404999691993,0.20001239998964593,697.6238726999727,697.6238844000036,None,697.6398741999874,697.6398741999874,697.6398741999874,,,,,,,,,,,,,,00064,001,2026-01-19_21h51.27.317,MST_task,2024.2.0,59.96710205561136,2026-01-19 21h51.36.225488 +0530,
,Scenes\188a.jpg,144,0,145,,,,,,,j,2.1205065999529324,0.1753694000071846,None,,,,,,145,0,144,697.6398741999874,,,,,,,,,,,,,,,,,,,,,,,,,,,,,,697.6239506999846,697.6398741999874,698.1234234999865,,,,,,,,,,,,698.1409447999904,,,,,,,,,,,,,,,698.1383907999843,698.1409447999904,698.1409447999904,698.1409447999904,701.1239129999885,j,2.1205065999529324,0.1753694000071846,701.1239550999599,701.1239658999839,None,701.1399254999706,701.1399254999706,701.1399254999706,,,,,,,,,,,,,,00064,001,2026-01-19_21h51.27.317,MST_task,2024.2.0,59.96710205561136,2026-01-19 21h51.36.225488 +0530,
,Scenes\079a.jpg,145,0,146,,,,,,,j,1.6129191999789327,0.15120870003011078,None,,,,,,146,0,145,701.1399254999706,,,,,,,,,,,,,,,,,,,,,,,,,,,,,,701.1240332999732,701.1399254999706,701.6233655999531,,,,,,,,,,,,701.6407295999816,,,,,,,,,,,,,,,701.6357688999851,701.6407295999816,701.6407295999816,701.6407295999816,704.6237574999686,j,1.6129191999789327,0.15120870003011078,704.6238030999666,704.6238141999929,None,704.6398479999625,704.6398479999625,704.6398479999625,,,,,,,,,,,,,,00064,001,2026-01-19_21h51.27.317,MST_task,2024.2.0,59.96710205561136,2026-01-19 21h51.36.225488 +0530,
,Scenes\139a.jpg,146,0,147,,,,,,,j,1.0738943999749608,0.18327099998714402,None,,,,,,147,0,146,704.6398479999625,,,,,,,,,,,,,,,,,,,,,,,,,,,,,,704.6239139999961,704.6398479999625,705.1233681999729,,,,,,,,,,,,705.1401580999955,,,,,,,,,,,,,,,705.1337237999542,705.1401580999955,705.1401580999955,705.1401580999955,708.1236481999513,j,1.0738943999749608,0.18327099998714402,708.123689399974,708.1237003999995,None,708.1399359999923,708.1399359999923,708.1399359999923,,,,,,,,,,,,,,00064,001,2026-01-19_21h51.27.317,MST_task,2024.2.0,59.96710205561136,2026-01-19 21h51.36.225488 +0530,
,Objects\056a.jpg,147,0,148,,,,,,,f,1.3014177000150084,0.14414569997461513,None,,,,,,148,0,147,708.1399359999923,,,,,,,,,,,,,,,,,,,,,,,,,,,,,,708.1237997999997,708.1399359999923,708.6233479999937,,,,,,,,,,,,708.6403461999726,,,,,,,,,,,,,,,708.635370199976,708.6403461999726,708.6403461999726,708.6403461999726,711.6235950999544,f,1.3014177000150084,0.14414569997461513,711.625649900001,711.6256668999558,None,711.6399179999717,711.6399179999717,711.6399179999717,,,,,,,,,,,,,,00064,001,2026-01-19_21h51.27.317,MST_task,2024.2.0,59.96710205561136,2026-01-19 21h51.36.225488 +0530,
,Objects\068a.jpg,148,0,149,,,,,,,f,0.9613823000108823,0.23197840002831072,None,,,,,,149,0,148,711.6399179999717,,,,,,,,,,,,,,,,,,,,,,,,,,,,,,711.6257359999581,711.6399179999717,712.1233104999992,,,,,,,,,,,,712.1401492999867,,,,,,,,,,,,,,,712.1342735999497,712.1401492999867,712.1401492999867,712.1401492999867,715.1239320999593,f,0.9613823000108823,0.23197840002831072,715.1239770999528,715.1239875999745,None,715.1399243999622,715.1399243999622,715.1399243999622,,,,,,,,,,,,,,00064,001,2026-01-19_21h51.27.317,MST_task,2024.2.0,59.96710205561136,2026-01-19 21h51.36.225488 +0530,
,Objects\153a.jpg,149,0,150,,,,,,,f,0.9566331999958493,0.13599260000046343,None,,,,,,150,0,149,715.1399243999622,,,,,,,,,,,,,,,,,,,,,,,,,,,,,,715.1240554999677,715.1399243999622,715.6234918999835,,,,,,,,,,,,715.6401978999493,,,,,,,,,,,,,,,715.6332839999814,715.6401978999493,715.6401978999493,715.6401978999493,718.623971199966,f,0.9566331999958493,0.13599260000046343,718.6240178999724,718.6240294000017,None,718.6400182999787,718.6400182999787,718.6400182999787,,,,,,,,,,,,,,00064,001,2026-01-19_21h51.27.317,MST_task,2024.2.0,59.96710205561136,2026-01-19 21h51.36.225488 +0530,
,Objects\064a.jpg,150,0,151,,,,,,,f,0.7050332000362687,0.19964989996515214,None,,,,,,151,0,150,718.6400182999787,,,,,,,,,,,,,,,,,,,,,,,,,,,,,,718.6241005999618,718.6400182999787,719.1233360999613,,,,,,,,,,,,719.1401492999867,,,,,,,,,,,,,,,719.1374216999975,719.1401492999867,719.1401492999867,719.1401492999867,722.1238677999936,f,0.7050332000362687,0.19964989996515214,722.1239122999832,722.1239233999513,None,722.1398940999643,722.1398940999643,722.1398940999643,,,,,,,,,,,,,,00064,001,2026-01-19_21h51.27.317,MST_task,2024.2.0,59.96710205561136,2026-01-19 21h51.36.225488 +0530,
,Objects\054a.jpg,151,0,152,,,,,,,j,1.213335799984634,0.1840061999973841,None,,,,,,152,0,151,722.1398940999643,,,,,,,,,,,,,,,,,,,,,,,,,,,,,,722.1240284999949,722.1398940999643,722.6233327999944,,,,,,,,,,,,722.6400915999548,,,,,,,,,,,,,,,722.6329779999796,722.6400915999548,722.6400915999548,722.6400915999548,725.6237867999589,j,1.213335799984634,0.1840061999973841,725.6238295999938,725.6238406999619,None,725.6399274999858,725.6399274999858,725.6399274999858,,,,,,,,,,,,,,00064,001,2026-01-19_21h51.27.317,MST_task,2024.2.0,59.96710205561136,2026-01-19 21h51.36.225488 +0530,
,Objects\110a.jpg,152,0,153,,,,,,,f,0.912669499986805,0.1761496000108309,None,,,,,,153,0,152,725.6399274999858,,,,,,,,,,,,,,,,,,,,,,,,,,,,,,725.6239390999544,725.6399274999858,726.1233594999649,,,,,,,,,,,,726.1401650999906,,,,,,,,,,,,,,,726.1325691999518,726.1401650999906,726.1401650999906,726.1401650999906,729.1236708999495,f,0.912669499986805,0.1761496000108309,729.123712599976,729.1237232999993,None,729.139920799993,729.139920799993,729.139920799993,,,,,,,,,,,,,,00064,001,2026-01-19_21h51.27.317,MST_task,2024.2.0,59.96710205561136,2026-01-19 21h51.36.225488 +0530,
,Objects\075a.jpg,153,0,154,,,,,,,f,2.1413400000310503,0.13587689999258146,None,,,,,,154,0,153,729.139920799993,,,,,,,,,,,,,,,,,,,,,,,,,,,,,,729.1237877999665,729.139920799993,729.6233484999975,,,,,,,,,,,,729.6405516999657,,,,,,,,,,,,,,,729.6332018999965,729.6405516999657,729.6405516999657,729.6405516999657,732.6235769999912,f,2.1413400000310503,0.13587689999258146,732.6236198999686,732.6236309999949,None,732.6399550999631,732.6399550999631,732.6399550999631,,,,,,,,,,,,,,00064,001,2026-01-19_21h51.27.317,MST_task,2024.2.0,59.96710205561136,2026-01-19 21h51.36.225488 +0530,
,Scenes\039a.jpg,154,0,155,,,,,,,j,1.8805657999473624,0.16913260001456365,None,,,,,,155,0,154,732.6399550999631,,,,,,,,,,,,,,,,,,,,,,,,,,,,,,732.6237294999883,732.6399550999631,733.1234210999683,,,,,,,,,,,,733.1407734999666,,,,,,,,,,,,,,,733.1381754999747,733.1407734999666,733.1407734999666,733.1407734999666,736.1236675999826,j,1.8805657999473624,0.16913260001456365,736.1252950999769,736.1253117999877,None,736.1399280999904,736.1399280999904,736.1399280999904,,,,,,,,,,,,,,00064,001,2026-01-19_21h51.27.317,MST_task,2024.2.0,59.96710205561136,2026-01-19 21h51.36.225488 +0530,
,Scenes\183a.jpg,155,0,156,,,,,,,f,1.469569800014142,0.1910189000191167,None,,,,,,156,0,155,736.1399280999904,,,,,,,,,,,,,,,,,,,,,,,,,,,,,,736.1254149999586,736.1399280999904,736.6235507999663,,,,,,,,,,,,736.6411422999809,,,,,,,,,,,,,,,736.6388062000042,736.6411422999809,736.6411422999809,736.6411422999809,739.6401725999895,f,1.469569800014142,0.1910189000191167,739.6405643000035,739.6405961999553,None,,,,,,,,,,,,,,,,,00064,001,2026-01-19_21h51.27.317,MST_task,2024.2.0,59.96710205561136,2026-01-19 21h51.36.225488 +0530,
,Scenes\016a.jpg,156,0,157,,,,,,,j,1.3037690999917686,0.1519801000249572,None,,,,,,157,0,156,739.6565926999901,,,,,,,,,,,,,,,,,,,,,,,,,,,,,,739.6407037999597,739.6565926999901,740.1401981999516,,,,,,,,,,,,740.1571705999668,,,,,,,,,,,,,,,740.1505321000004,740.1571705999668,740.1571705999668,740.1571705999668,743.1403960000025,j,1.3037690999917686,0.1519801000249572,743.1404380999738,743.1404489999986,None,743.1565588999656,743.1565588999656,743.1565588999656,,,,,,,,,,,,,,00064,001,2026-01-19_21h51.27.317,MST_task,2024.2.0,59.96710205561136,2026-01-19 21h51.36.225488 +0530,
,Scenes\010a.jpg,157,0,158,,,,,,,j,2.5611997000523843,0.16797379998024553,None,,,,,,158,0,157,743.1565588999656,,,,,,,,,,,,,,,,,,,,,,,,,,,,,,743.1405484999996,743.1565588999656,743.640160299954,,,,,,,,,,,,743.6606062999927,,,,,,,,,,,,,,,743.6584091999684,743.6606062999927,743.6606062999927,743.6606062999927,746.656915999949,j,2.5611997000523843,0.16797379998024553,746.6569703999558,746.656983199995,None,,,,,,,,,,,,,,,,,00064,001,2026-01-19_21h51.27.317,MST_task,2024.2.0,59.96710205561136,2026-01-19 21h51.36.225488 +0530,
,Scenes\173a.jpg,158,0,159,,,,,,,j,1.0644844000344165,0.19136820000130683,None,,,,,,159,0,158,746.673247299972,,,,,,,,,,,,,,,,,,,,,,,,,,,,,,746.6571122999885,746.673247299972,747.1567662999732,,,,,,,,,,,,747.1736190999509,,,,,,,,,,,,,,,747.1695372999529,747.1736190999509,747.1736190999509,747.1736190999509,750.1571474999655,j,1.0644844000344165,0.19136820000130683,750.157189199992,750.1572006999631,None,750.1731977000018,750.1731977000018,750.1731977000018,,,,,,,,,,,,,,00064,001,2026-01-19_21h51.27.317,MST_task,2024.2.0,59.96710205561136,2026-01-19 21h51.36.225488 +0530,
