thisN,thisTrialN,thisRepN,key_resp_3.keys,key_resp_3.rt,key_resp_3.duration,trials.thisRepN,trials.thisTrialN,trials.thisN,thisRow.t,notes,intro_page.started,text.started,key_resp.started,intro_page.stopped,key_resp.keys,key_resp.rt,key_resp.duration,instructions.started,text_2.started,key_resp_2.started,instructions.stopped,key_resp_2.keys,key_resp_2.rt,key_resp_2.duration,demo1.started,image_1.started,image_2.started,text_7.started,key_resp_6.started,text_9.started,demo1.stopped,key_resp_6.keys,key_resp_6.rt,key_resp_6.duration,demo2.started,image_5.started,image_6.started,text_11.started,text_12.started,key_resp_8.started,demo2.stopped,key_resp_8.keys,key_resp_8.rt,key_resp_8.duration,demo_conclusion.started,text_13.started,key_resp_9.started,demo_conclusion.stopped,key_resp_9.keys,key_resp_9.rt,key_resp_9.duration,start_test.started,text_6.started,key_resp_5.started,start_test.stopped,key_resp_5.keys,key_resp_5.rt,key_resp_5.duration,ISI.started,text_4.started,text_4.stopped,ISI.stopped,routine_1.started,image.started,text_3.started,key_resp_3.started,routine_1.stopped,image_path,position_of_stimuli,trials.key_resp_3.keys,trials.key_resp_3.rt,trials.key_resp_3.duration,End_page.started,text_5.started,key_resp_4.started,End_page.stopped,key_resp_4.keys,key_resp_4.rt,key_resp_4.duration,participant,session,date,expName,psychopyVersion,frameRate,expStart,
,,,,,,,,,,,0.0012131999828852713,0.002722500008530915,0.002722500008530915,2.4435631000087596,space,2.39238800003659,None,,,,,,,,,,,,,,,,,,,,,,,,,,,,,,,,,,,,,,,,,,,,,,,,,,,,,,,,,,,,,,,00067,001,2026-01-25_15h37.10.370,MST_test,2024.2.0,60.023901517902125,2026-01-25 15h37.18.133594 +0530,
,,,,,,,,,,,,,,,,,,2.443605699983891,2.455686900008004,2.455686900008004,12.366940899984911,space,9.899131699989084,None,,,,,,,,,,,,,,,,,,,,,,,,,,,,,,,,,,,,,,,,,,,,,,,,,,,,,,,,00067,001,2026-01-25_15h37.10.370,MST_test,2024.2.0,60.023901517902125,2026-01-25 15h37.18.133594 +0530,
,,,,,,,,,,,,,,,,,,,,,,,,,12.366968500020448,12.38358209998114,12.38358209998114,12.38358209998114,12.38358209998114,12.38358209998114,17.917134699993767,space,5.522795099997893,None,,,,,,,,,,,,,,,,,,,,,,,,,,,,,,,,,,,,,,,,,,,,,,00067,001,2026-01-25_15h37.10.370,MST_test,2024.2.0,60.023901517902125,2026-01-25 15h37.18.133594 +0530,
,,,,,,,,,,,,,,,,,,,,,,,,,,,,,,,,,,,17.917163099977188,17.933541300008073,17.933541300008073,17.933541300008073,17.933541300008073,17.933541300008073,22.350429599988274,space,4.405245199974161,None,,,,,,,,,,,,,,,,,,,,,,,,,,,,,,,,,,,,00067,001,2026-01-25_15h37.10.370,MST_test,2024.2.0,60.023901517902125,2026-01-25 15h37.18.133594 +0530,
,,,,,,,,,,,,,,,,,,,,,,,,,,,,,,,,,,,,,,,,,,,,,22.350458599976264,22.366499399999157,22.366499399999157,41.68354489997728,space,19.30879989999812,None,,,,,,,,,,,,,,,,,,,,,,,,,,,,,00067,001,2026-01-25_15h37.10.370,MST_test,2024.2.0,60.023901517902125,2026-01-25 15h37.18.133594 +0530,
,,,,,,,,,,,,,,,,,,,,,,,,,,,,,,,,,,,,,,,,,,,,,,,,,,,,41.683577899995726,41.6998269999749,41.6998269999749,117.05110579996835,space,75.33632339996984,None,,,,,,,,,,,,,,,,,,,,,,00067,001,2026-01-25_15h37.10.370,MST_test,2024.2.0,60.023901517902125,2026-01-25 15h37.18.133594 +0530,
0,0,1,n,7.118141099985223,None,1,0,0,117.06729999999516,,,,,,,,,,,,,,,,,,,,,,,,,,,,,,,,,,,,,,,,,,,,,,,,,,117.0552297999966,117.06729999999516,117.57232510001631,117.55078059999505,117.56978849996813,117.57232510001631,117.57232510001631,117.57232510001631,124.7014266999904,Foils\101b.jpg,none,n,7.118141099985223,None,,,,,,,,00067,001,2026-01-25_15h37.10.370,MST_test,2024.2.0,60.023901517902125,2026-01-25 15h37.18.133594 +0530,
1,0,2,o,6.472886600007769,None,2,0,1,124.71753540000645,,,,,,,,,,,,,,,,,,,,,,,,,,,,,,,,,,,,,,,,,,,,,,,,,,124.70152619999135,124.71753540000645,125.21800599998096,125.20105139998486,125.21489669999573,125.21800599998096,125.21800599998096,125.21800599998096,131.70134279999183,Scenes\188a.jpg,mid,o,6.472886600007769,None,,,,,,,,00067,001,2026-01-25_15h37.10.370,MST_test,2024.2.0,60.023901517902125,2026-01-25 15h37.18.133594 +0530,
2,0,3,o,5.945093500020448,None,3,0,2,131.71747229999164,,,,,,,,,,,,,,,,,,,,,,,,,,,,,,,,,,,,,,,,,,,,,,,,,,131.7014336999855,131.71747229999164,132.2177891000174,132.20107309997547,132.21244889998343,132.2177891000174,132.2177891000174,132.2177891000174,138.1681125999894,Objects\036b.jpg,post,o,5.945093500020448,None,,,,,,,,00067,001,2026-01-25_15h37.10.370,MST_test,2024.2.0,60.023901517902125,2026-01-25 15h37.18.133594 +0530,
3,0,4,n,2.469945600023493,None,4,0,3,138.1840643999749,,,,,,,,,,,,,,,,,,,,,,,,,,,,,,,,,,,,,,,,,,,,,,,,,,138.16820100002224,138.1840643999749,138.68440420000115,138.667675899982,138.6794893000042,138.68440420000115,138.68440420000115,138.68440420000115,141.16795949998777,Foils\020b.jpg,none,n,2.469945600023493,None,,,,,,,,00067,001,2026-01-25_15h37.10.370,MST_test,2024.2.0,60.023901517902125,2026-01-25 15h37.18.133594 +0530,
4,0,5,n,14.23813249997329,None,5,0,4,141.18415410001762,,,,,,,,,,,,,,,,,,,,,,,,,,,,,,,,,,,,,,,,,,,,,,,,,,141.16804979997687,141.18415410001762,141.68440620001638,141.6677636000095,141.67731459997594,141.68440620001638,141.68440620001638,141.68440620001638,155.93472660001134,Objects\104b.jpg,post,n,14.23813249997329,None,,,,,,,,00067,001,2026-01-25_15h37.10.370,MST_test,2024.2.0,60.023901517902125,2026-01-25 15h37.18.133594 +0530,
5,0,6,o,1.5033866000012495,None,6,0,5,155.95067390002077,,,,,,,,,,,,,,,,,,,,,,,,,,,,,,,,,,,,,,,,,,,,,,,,,,155.9348188000149,155.95067390002077,156.4510450999951,156.4343794999877,156.44409289996838,156.4510450999951,156.4510450999951,156.4510450999951,157.9679710000055,Objects\035a.jpg,mid,o,1.5033866000012495,None,,,,,,,,00067,001,2026-01-25_15h37.10.370,MST_test,2024.2.0,60.023901517902125,2026-01-25 15h37.18.133594 +0530,
6,0,7,o,1.6386687000049278,None,7,0,6,157.98414800001774,,,,,,,,,,,,,,,,,,,,,,,,,,,,,,,,,,,,,,,,,,,,,,,,,,157.96805939998012,157.98414800001774,158.48436910001328,158.4677406999981,158.4783917000168,158.48436910001328,158.48436910001328,158.48436910001328,160.13460509997094,Objects\185b.jpg,post,o,1.6386687000049278,None,,,,,,,,00067,001,2026-01-25_15h37.10.370,MST_test,2024.2.0,60.023901517902125,2026-01-25 15h37.18.133594 +0530,
7,0,8,o,2.4856102999765426,None,8,0,7,160.15078279998852,,,,,,,,,,,,,,,,,,,,,,,,,,,,,,,,,,,,,,,,,,,,,,,,,,160.1346959999646,160.15078279998852,160.65284330002032,160.63429149996955,160.65076950000366,160.65284330002032,160.65284330002032,160.65284330002032,163.15125479997369,Scenes\067b.jpg,mid,o,2.4856102999765426,None,,,,,,,,00067,001,2026-01-25_15h37.10.370,MST_test,2024.2.0,60.023901517902125,2026-01-25 15h37.18.133594 +0530,
8,0,9,o,0.9405110000516288,None,9,0,8,163.1674618999823,,,,,,,,,,,,,,,,,,,,,,,,,,,,,,,,,,,,,,,,,,,,,,,,,,163.15134539996507,163.1674618999823,163.67048779997276,163.65102910000132,163.66815149999456,163.67048779997276,163.67048779997276,163.67048779997276,164.61816279997583,Scenes\146b.jpg,mid,o,0.9405110000516288,None,,,,,,,,00067,001,2026-01-25_15h37.10.370,MST_test,2024.2.0,60.023901517902125,2026-01-25 15h37.18.133594 +0530,
9,0,10,o,1.569440699997358,None,10,0,9,164.63412599998992,,,,,,,,,,,,,,,,,,,,,,,,,,,,,,,,,,,,,,,,,,,,,,,,,,164.6182575999992,164.63412599998992,165.1377693999675,165.11770689999685,165.13559979997808,165.1377693999675,165.1377693999675,165.1377693999675,166.71819689997938,Scenes\105b.jpg,post,o,1.569440699997358,None,,,,,,,,00067,001,2026-01-25_15h37.10.370,MST_test,2024.2.0,60.023901517902125,2026-01-25 15h37.18.133594 +0530,
10,0,11,n,3.0165027999901213,None,11,0,10,166.7341260999674,,,,,,,,,,,,,,,,,,,,,,,,,,,,,,,,,,,,,,,,,,,,,,,,,,166.71828739997,166.7341260999674,167.23432200000389,167.21771890000673,167.22803120000754,167.23432200000389,167.23432200000389,167.23432200000389,170.2515274999896,Foils\scenes11.jpg,none,n,3.0165027999901213,None,,,,,,,,00067,001,2026-01-25_15h37.10.370,MST_test,2024.2.0,60.023901517902125,2026-01-25 15h37.18.133594 +0530,
11,0,12,s,2.4666107000084594,None,12,0,11,170.2674925000174,,,,,,,,,,,,,,,,,,,,,,,,,,,,,,,,,,,,,,,,,,,,,,,,,,170.2516172999749,170.2674925000174,170.76776319998316,170.7509318999946,170.7654434000142,170.76776319998316,170.76776319998316,170.76776319998316,173.23491529998137,Scenes\068a.jpg,pre,s,2.4666107000084594,None,,,,,,,,00067,001,2026-01-25_15h37.10.370,MST_test,2024.2.0,60.023901517902125,2026-01-25 15h37.18.133594 +0530,
12,0,13,o,4.78707060002489,None,13,0,12,173.2505875999923,,,,,,,,,,,,,,,,,,,,,,,,,,,,,,,,,,,,,,,,,,,,,,,,,,173.2350099000032,173.2505875999923,173.751262100006,173.7343535000109,173.74448970000958,173.751262100006,173.751262100006,173.751262100006,178.55135099997278,Objects\168b.jpg,pre,o,4.78707060002489,None,,,,,,,,00067,001,2026-01-25_15h37.10.370,MST_test,2024.2.0,60.023901517902125,2026-01-25 15h37.18.133594 +0530,
13,0,14,o,1.0067941999877803,None,14,0,13,178.5674396000104,,,,,,,,,,,,,,,,,,,,,,,,,,,,,,,,,,,,,,,,,,,,,,,,,,178.55144010001095,178.5674396000104,179.06763559998944,179.05120260000695,179.06083779997425,179.06763559998944,179.06763559998944,179.06763559998944,180.08471620001364,Objects\158a.jpg,mid,o,1.0067941999877803,None,,,,,,,,00067,001,2026-01-25_15h37.10.370,MST_test,2024.2.0,60.023901517902125,2026-01-25 15h37.18.133594 +0530,
14,0,15,o,0.9387070999946445,None,15,0,14,180.10068089998094,,,,,,,,,,,,,,,,,,,,,,,,,,,,,,,,,,,,,,,,,,,,,,,,,,180.08480680000503,180.10068089998094,180.60101460001897,180.58439869998256,180.59377989999484,180.60101460001897,180.60101460001897,180.60101460001897,181.55110400001286,Objects\057b.jpg,pre,o,0.9387070999946445,None,,,,,,,,00067,001,2026-01-25_15h37.10.370,MST_test,2024.2.0,60.023901517902125,2026-01-25 15h37.18.133594 +0530,
15,0,16,o,0.871045799984131,None,16,0,15,181.56735899997875,,,,,,,,,,,,,,,,,,,,,,,,,,,,,,,,,,,,,,,,,,,,,,,,,,181.5511928999913,181.56735899997875,182.06754760001786,182.05092229996808,182.06193560000975,182.06754760001786,182.06754760001786,182.06754760001786,182.95108279999113,Objects\056b.jpg,post,o,0.871045799984131,None,,,,,,,,00067,001,2026-01-25_15h37.10.370,MST_test,2024.2.0,60.023901517902125,2026-01-25 15h37.18.133594 +0530,
16,0,17,o,0.8793996999738738,None,17,0,16,182.96736419998342,,,,,,,,,,,,,,,,,,,,,,,,,,,,,,,,,,,,,,,,,,,,,,,,,,182.9511728999787,182.96736419998342,183.46751230000518,183.45085839997046,183.45950170001015,183.46751230000518,183.46751230000518,183.46751230000518,184.3514176000026,Objects\167a.jpg,post,o,0.8793996999738738,None,,,,,,,,00067,001,2026-01-25_15h37.10.370,MST_test,2024.2.0,60.023901517902125,2026-01-25 15h37.18.133594 +0530,
17,0,18,o,2.3254068000242114,None,18,0,17,184.36734190001152,,,,,,,,,,,,,,,,,,,,,,,,,,,,,,,,,,,,,,,,,,,,,,,,,,184.3515320000006,184.36734190001152,184.86992530000862,184.85085039999103,184.86789749999298,184.86992530000862,184.86992530000862,184.86992530000862,187.20117389998632,Scenes\084a.jpg,post,o,2.3254068000242114,None,,,,,,,,00067,001,2026-01-25_15h37.10.370,MST_test,2024.2.0,60.023901517902125,2026-01-25 15h37.18.133594 +0530,
18,0,19,o,0.9340064999996684,None,19,0,18,187.21737580001354,,,,,,,,,,,,,,,,,,,,,,,,,,,,,,,,,,,,,,,,,,,,,,,,,,187.20127489999868,187.21737580001354,187.71785720001208,187.70078989997273,187.7099933999707,187.71785720001208,187.71785720001208,187.71785720001208,188.6679428999778,Objects\135a.jpg,mid,o,0.9340064999996684,None,,,,,,,,00067,001,2026-01-25_15h37.10.370,MST_test,2024.2.0,60.023901517902125,2026-01-25 15h37.18.133594 +0530,
19,0,20,o,0.7926494000130333,None,20,0,19,188.6839491999708,,,,,,,,,,,,,,,,,,,,,,,,,,,,,,,,,,,,,,,,,,,,,,,,,,188.66803150001215,188.6839491999708,189.18584729998838,189.16760019998765,189.18373250000877,189.18584729998838,189.18584729998838,189.18584729998838,189.98467659996822,Scenes\013a.jpg,post,o,0.7926494000130333,None,,,,,,,,00067,001,2026-01-25_15h37.10.370,MST_test,2024.2.0,60.023901517902125,2026-01-25 15h37.18.133594 +0530,
20,0,21,n,1.6143005000194535,None,21,0,20,190.00052619999042,,,,,,,,,,,,,,,,,,,,,,,,,,,,,,,,,,,,,,,,,,,,,,,,,,189.98476660001324,190.00052619999042,190.50100759998895,190.4842534000054,190.4939563999651,190.50100759998895,190.50100759998895,190.50100759998895,192.117991600011,Foils\scenes30.jpg,none,n,1.6143005000194535,None,,,,,,,,00067,001,2026-01-25_15h37.10.370,MST_test,2024.2.0,60.023901517902125,2026-01-25 15h37.18.133594 +0530,
21,0,22,o,1.0799329999717884,None,22,0,21,192.134016099968,,,,,,,,,,,,,,,,,,,,,,,,,,,,,,,,,,,,,,,,,,,,,,,,,,192.11808260000544,192.134016099968,192.63450240000384,192.61778139998205,192.62745679996442,192.63450240000384,192.63450240000384,192.63450240000384,193.71800569997868,Objects\157a.jpg,mid,o,1.0799329999717884,None,,,,,,,,00067,001,2026-01-25_15h37.10.370,MST_test,2024.2.0,60.023901517902125,2026-01-25 15h37.18.133594 +0530,
22,0,23,o,0.7762977999518625,None,23,0,22,193.7340150999953,,,,,,,,,,,,,,,,,,,,,,,,,,,,,,,,,,,,,,,,,,,,,,,,,,193.71809430001304,193.7340150999953,194.23419160000049,194.21755890001077,194.22622919996502,194.23419160000049,194.23419160000049,194.23419160000049,195.01789899996947,Objects\041a.jpg,mid,o,0.7762977999518625,None,,,,,,,,00067,001,2026-01-25_15h37.10.370,MST_test,2024.2.0,60.023901517902125,2026-01-25 15h37.18.133594 +0530,
23,0,24,s,2.5805581000167876,None,24,0,23,195.03402570000617,,,,,,,,,,,,,,,,,,,,,,,,,,,,,,,,,,,,,,,,,,,,,,,,,,195.01799009996466,195.03402570000617,195.53419929998927,195.51760279998416,195.52875449997373,195.53419929998927,195.53419929998927,195.53419929998927,198.11795400001574,Foils\042a.jpg,none,s,2.5805581000167876,None,,,,,,,,00067,001,2026-01-25_15h37.10.370,MST_test,2024.2.0,60.023901517902125,2026-01-25 15h37.18.133594 +0530,
24,0,25,o,0.9537263000383973,None,25,0,24,198.1339495999855,,,,,,,,,,,,,,,,,,,,,,,,,,,,,,,,,,,,,,,,,,,,,,,,,,198.1180435999995,198.1339495999855,198.63417839998147,198.61759959999472,198.62623399996664,198.63417839998147,198.63417839998147,198.63417839998147,199.6011862999876,Objects\174a.jpg,post,o,0.9537263000383973,None,,,,,,,,00067,001,2026-01-25_15h37.10.370,MST_test,2024.2.0,60.023901517902125,2026-01-25 15h37.18.133594 +0530,
25,0,26,o,1.0861029999796301,None,26,0,25,199.61734890000662,,,,,,,,,,,,,,,,,,,,,,,,,,,,,,,,,,,,,,,,,,,,,,,,,,199.60127639997518,199.61734890000662,200.1179095999687,200.10089220001828,200.11502799997106,200.1179095999687,200.1179095999687,200.1179095999687,201.2179870000109,Scenes\083a.jpg,post,o,1.0861029999796301,None,,,,,,,,00067,001,2026-01-25_15h37.10.370,MST_test,2024.2.0,60.023901517902125,2026-01-25 15h37.18.133594 +0530,
26,0,27,o,2.052378199994564,None,27,0,26,201.23403250001138,,,,,,,,,,,,,,,,,,,,,,,,,,,,,,,,,,,,,,,,,,,,,,,,,,201.21807880001143,201.23403250001138,201.7349789,201.7176521999645,201.7328242000076,201.7349789,201.7349789,201.7349789,203.8011594999698,Foils\scenes27.jpg,none,o,2.052378199994564,None,,,,,,,,00067,001,2026-01-25_15h37.10.370,MST_test,2024.2.0,60.023901517902125,2026-01-25 15h37.18.133594 +0530,
27,0,28,n,2.277342999994289,None,28,0,27,203.8173764999956,,,,,,,,,,,,,,,,,,,,,,,,,,,,,,,,,,,,,,,,,,,,,,,,,,203.80126029998064,203.8173764999956,204.3178633999778,204.3007895000046,204.310923299985,204.3178633999778,204.3178633999778,204.3178633999778,206.60125579999294,Foils\009a.jpg,none,n,2.277342999994289,None,,,,,,,,00067,001,2026-01-25_15h37.10.370,MST_test,2024.2.0,60.023901517902125,2026-01-25 15h37.18.133594 +0530,
28,0,29,s,1.532751900027506,None,29,0,28,206.61728309997125,,,,,,,,,,,,,,,,,,,,,,,,,,,,,,,,,,,,,,,,,,,,,,,,,,206.60134549997747,206.61728309997125,207.11768460000167,207.10084949998418,207.11093399999663,207.11768460000167,207.11768460000167,207.11768460000167,208.65122100000735,Objects\048b.jpg,mid,s,1.532751900027506,None,,,,,,,,00067,001,2026-01-25_15h37.10.370,MST_test,2024.2.0,60.023901517902125,2026-01-25 15h37.18.133594 +0530,
29,0,30,o,1.04232890001731,None,30,0,29,208.66735050000716,,,,,,,,,,,,,,,,,,,,,,,,,,,,,,,,,,,,,,,,,,,,,,,,,,208.65131059999112,208.66735050000716,209.16818129998865,209.15097179997247,209.16607370000565,209.16818129998865,209.16818129998865,209.16818129998865,210.2178930999944,Scenes\157a.jpg,pre,o,1.04232890001731,None,,,,,,,,00067,001,2026-01-25_15h37.10.370,MST_test,2024.2.0,60.023901517902125,2026-01-25 15h37.18.133594 +0530,
30,0,31,o,0.8681292000110261,None,31,0,30,210.23400850000326,,,,,,,,,,,,,,,,,,,,,,,,,,,,,,,,,,,,,,,,,,,,,,,,,,210.2179828999797,210.23400850000326,210.73450580000645,210.71760809997795,210.73127559997374,210.73450580000645,210.73450580000645,210.73450580000645,211.61796669999603,Scenes\173a.jpg,post,o,0.8681292000110261,None,,,,,,,,00067,001,2026-01-25_15h37.10.370,MST_test,2024.2.0,60.023901517902125,2026-01-25 15h37.18.133594 +0530,
31,0,32,o,0.8758548999903724,None,32,0,31,211.6339433999965,,,,,,,,,,,,,,,,,,,,,,,,,,,,,,,,,,,,,,,,,,,,,,,,,,211.6180597000057,211.6339433999965,212.13454589998582,212.1175902999821,212.12797979998868,212.13454589998582,212.13454589998582,212.13454589998582,213.01790829998208,Objects\149b.jpg,pre,o,0.8758548999903724,None,,,,,,,,00067,001,2026-01-25_15h37.10.370,MST_test,2024.2.0,60.023901517902125,2026-01-25 15h37.18.133594 +0530,
32,0,33,o,0.8894447000348009,None,33,0,32,213.03400719998172,,,,,,,,,,,,,,,,,,,,,,,,,,,,,,,,,,,,,,,,,,,,,,,,,,213.0179977999651,213.03400719998172,213.53751210001064,213.51762170001166,213.5355380999972,213.53751210001064,213.53751210001064,213.53751210001064,214.43463299999712,Scenes\035b.jpg,post,o,0.8894447000348009,None,,,,,,,,00067,001,2026-01-25_15h37.10.370,MST_test,2024.2.0,60.023901517902125,2026-01-25 15h37.18.133594 +0530,
33,0,34,o,1.0036648000241257,None,34,0,33,214.45056009996915,,,,,,,,,,,,,,,,,,,,,,,,,,,,,,,,,,,,,,,,,,,,,,,,,,214.43472369998926,214.45056009996915,214.95116509997752,214.93442539998796,214.94736789999297,214.95116509997752,214.95116509997752,214.95116509997752,215.96793749998324,Scenes\182a.jpg,pre,o,1.0036648000241257,None,,,,,,,,00067,001,2026-01-25_15h37.10.370,MST_test,2024.2.0,60.023901517902125,2026-01-25 15h37.18.133594 +0530,
34,0,35,o,0.7419468000298366,None,35,0,34,215.9839489000151,,,,,,,,,,,,,,,,,,,,,,,,,,,,,,,,,,,,,,,,,,,,,,,,,,215.96803029999137,215.9839489000151,216.4845297000138,216.46760699996958,216.47938689996954,216.4845297000138,216.4845297000138,216.4845297000138,217.2346058000112,Scenes\166a.jpg,pre,o,0.7419468000298366,None,,,,,,,,00067,001,2026-01-25_15h37.10.370,MST_test,2024.2.0,60.023901517902125,2026-01-25 15h37.18.133594 +0530,
35,0,36,o,2.5632009000401013,None,36,0,35,217.25051569996867,,,,,,,,,,,,,,,,,,,,,,,,,,,,,,,,,,,,,,,,,,,,,,,,,,217.23469599999953,217.25051569996867,217.75122179999016,217.73425239999779,217.74507730000187,217.75122179999016,217.75122179999016,217.75122179999016,220.31799439998576,Objects\051b.jpg,post,o,2.5632009000401013,None,,,,,,,,00067,001,2026-01-25_15h37.10.370,MST_test,2024.2.0,60.023901517902125,2026-01-25 15h37.18.133594 +0530,
36,0,37,n,1.3205991999711841,None,37,0,36,220.33402979996754,,,,,,,,,,,,,,,,,,,,,,,,,,,,,,,,,,,,,,,,,,,,,,,,,,220.318088,220.33402979996754,220.83458829997107,220.81761430000188,220.82849869999336,220.83458829997107,220.83458829997107,220.83458829997107,222.16782299999613,Foils\113a.jpg,none,n,1.3205991999711841,None,,,,,,,,00067,001,2026-01-25_15h37.10.370,MST_test,2024.2.0,60.023901517902125,2026-01-25 15h37.18.133594 +0530,
37,0,38,o,1.0307975000469014,None,38,0,37,222.1839997000061,,,,,,,,,,,,,,,,,,,,,,,,,,,,,,,,,,,,,,,,,,,,,,,,,,222.16791630000807,222.1839997000061,222.68425629998092,222.66761539998697,222.67716109997127,222.68425629998092,222.68425629998092,222.68425629998092,223.71827529999427,Objects\188b.jpg,mid,o,1.0307975000469014,None,,,,,,,,00067,001,2026-01-25_15h37.10.370,MST_test,2024.2.0,60.023901517902125,2026-01-25 15h37.18.133594 +0530,
38,0,39,s,3.3204398000380024,None,39,0,38,223.73405379999895,,,,,,,,,,,,,,,,,,,,,,,,,,,,,,,,,,,,,,,,,,,,,,,,,,223.71837680001045,223.73405379999895,224.2341631000163,224.21758230001433,224.22714859998086,224.2341631000163,224.2341631000163,224.2341631000163,227.56793600000674,Objects\052b.jpg,post,s,3.3204398000380024,None,,,,,,,,00067,001,2026-01-25_15h37.10.370,MST_test,2024.2.0,60.023901517902125,2026-01-25 15h37.18.133594 +0530,
39,0,40,o,3.3199169999570586,None,40,0,39,227.5839840999688,,,,,,,,,,,,,,,,,,,,,,,,,,,,,,,,,,,,,,,,,,,,,,,,,,227.56802549998974,227.5839840999688,228.0841669999645,228.06752480001887,228.07692640001187,228.0841669999645,228.0841669999645,228.0841669999645,231.4178685999941,Objects\116b.jpg,mid,o,3.3199169999570586,None,,,,,,,,00067,001,2026-01-25_15h37.10.370,MST_test,2024.2.0,60.023901517902125,2026-01-25 15h37.18.133594 +0530,
40,0,41,o,0.9454750000149943,None,41,0,40,231.43395059998147,,,,,,,,,,,,,,,,,,,,,,,,,,,,,,,,,,,,,,,,,,,,,,,,,,231.41797130001942,231.43395059998147,231.93695679999655,231.91752439999254,231.93498730001738,231.93695679999655,231.93695679999655,231.93695679999655,232.88467749999836,Scenes\134b.jpg,pre,o,0.9454750000149943,None,,,,,,,,00067,001,2026-01-25_15h37.10.370,MST_test,2024.2.0,60.023901517902125,2026-01-25 15h37.18.133594 +0530,
41,0,42,o,0.8653376000002027,None,42,0,41,232.90053899999475,,,,,,,,,,,,,,,,,,,,,,,,,,,,,,,,,,,,,,,,,,,,,,,,,,232.88476889999583,232.90053899999475,233.40206860000035,233.38430669996887,233.3998410999775,233.40206860000035,233.40206860000035,233.40206860000035,234.2680445999722,Scenes\074a.jpg,mid,o,0.8653376000002027,None,,,,,,,,00067,001,2026-01-25_15h37.10.370,MST_test,2024.2.0,60.023901517902125,2026-01-25 15h37.18.133594 +0530,
42,0,43,o,0.8820276000187732,None,43,0,42,234.2840131999692,,,,,,,,,,,,,,,,,,,,,,,,,,,,,,,,,,,,,,,,,,,,,,,,,,234.26813869999023,234.2840131999692,234.78466900001513,234.7674952999805,234.78100249997806,234.78466900001513,234.78466900001513,234.78466900001513,235.66802039998583,Scenes\136a.jpg,mid,o,0.8820276000187732,None,,,,,,,,00067,001,2026-01-25_15h37.10.370,MST_test,2024.2.0,60.023901517902125,2026-01-25 15h37.18.133594 +0530,
43,0,44,o,1.058620100026019,None,44,0,43,235.6839432999841,,,,,,,,,,,,,,,,,,,,,,,,,,,,,,,,,,,,,,,,,,,,,,,,,,235.66811610001605,235.6839432999841,236.18453049997333,236.16774750000332,236.1769643999869,236.18453049997333,236.18453049997333,236.18453049997333,237.25122410000768,Objects\007a.jpg,pre,o,1.058620100026019,None,,,,,,,,00067,001,2026-01-25_15h37.10.370,MST_test,2024.2.0,60.023901517902125,2026-01-25 15h37.18.133594 +0530,
44,0,45,n,2.634797799983062,None,45,0,44,237.2672660999815,,,,,,,,,,,,,,,,,,,,,,,,,,,,,,,,,,,,,,,,,,,,,,,,,,237.25131369999144,237.2672660999815,237.76757799996994,237.75074440002209,237.76038200000767,237.76757799996994,237.76757799996994,237.76757799996994,240.41796220000833,Foils\081a.jpg,none,n,2.634797799983062,None,,,,,,,,00067,001,2026-01-25_15h37.10.370,MST_test,2024.2.0,60.023901517902125,2026-01-25 15h37.18.133594 +0530,
45,0,46,n,2.092123400012497,None,46,0,45,240.43402619997505,,,,,,,,,,,,,,,,,,,,,,,,,,,,,,,,,,,,,,,,,,,,,,,,,,240.4180611000047,240.43402619997505,240.93436830001883,240.91760970000178,240.926867400005,240.93436830001883,240.93436830001883,240.93436830001883,243.03469509998104,Foils\017a.jpg,none,n,2.092123400012497,None,,,,,,,,00067,001,2026-01-25_15h37.10.370,MST_test,2024.2.0,60.023901517902125,2026-01-25 15h37.18.133594 +0530,
46,0,47,o,1.5798576999804936,None,47,0,46,243.05070919997524,,,,,,,,,,,,,,,,,,,,,,,,,,,,,,,,,,,,,,,,,,,,,,,,,,243.03478709998308,243.05070919997524,243.55088609998347,243.53440110001247,243.54440189996967,243.55088609998347,243.55088609998347,243.55088609998347,245.13480930001242,Objects\103b.jpg,pre,o,1.5798576999804936,None,,,,,,,,00067,001,2026-01-25_15h37.10.370,MST_test,2024.2.0,60.023901517902125,2026-01-25 15h37.18.133594 +0530,
47,0,48,o,0.7571894000284374,None,48,0,47,245.15069189999485,,,,,,,,,,,,,,,,,,,,,,,,,,,,,,,,,,,,,,,,,,,,,,,,,,245.13490589999128,245.15069189999485,245.67710650002118,245.6343694999814,245.67444299999624,245.67710650002118,245.67710650002118,245.67710650002118,246.43511099996977,Foils\scenes15.jpg,none,o,0.7571894000284374,None,,,,,,,,00067,001,2026-01-25_15h37.10.370,MST_test,2024.2.0,60.023901517902125,2026-01-25 15h37.18.133594 +0530,
48,0,49,n,2.185239900019951,None,49,0,48,246.45079460000852,,,,,,,,,,,,,,,,,,,,,,,,,,,,,,,,,,,,,,,,,,,,,,,,,,246.43521759996656,246.45079460000852,246.95389130001422,246.93442459998187,246.95217479998246,246.95389130001422,246.95389130001422,246.95389130001422,249.15148150001187,Foils\058a.jpg,none,n,2.185239900019951,None,,,,,,,,00067,001,2026-01-25_15h37.10.370,MST_test,2024.2.0,60.023901517902125,2026-01-25 15h37.18.133594 +0530,
49,0,50,s,3.3347035000333562,None,50,0,49,249.16736129997298,,,,,,,,,,,,,,,,,,,,,,,,,,,,,,,,,,,,,,,,,,,,,,,,,,249.15157940000063,249.16736129997298,249.66766649996862,249.65100549999624,249.6604653999675,249.66766649996862,249.66766649996862,249.66766649996862,253.01797849999275,Foils\057a.jpg,none,s,3.3347035000333562,None,,,,,,,,00067,001,2026-01-25_15h37.10.370,MST_test,2024.2.0,60.023901517902125,2026-01-25 15h37.18.133594 +0530,
50,0,51,n,1.5725365999969654,None,51,0,50,253.0341022000066,,,,,,,,,,,,,,,,,,,,,,,,,,,,,,,,,,,,,,,,,,,,,,,,,,253.01806849997956,253.0341022000066,253.53448789997492,253.51768930000253,253.5272444000002,253.53448789997492,253.53448789997492,253.53448789997492,255.11802120000357,Objects\094b.jpg,post,n,1.5725365999969654,None,,,,,,,,00067,001,2026-01-25_15h37.10.370,MST_test,2024.2.0,60.023901517902125,2026-01-25 15h37.18.133594 +0530,
51,0,52,n,1.5684613999910653,None,52,0,51,255.13407189998543,,,,,,,,,,,,,,,,,,,,,,,,,,,,,,,,,,,,,,,,,,,,,,,,,,255.1181113999919,255.13407189998543,255.63432429998647,255.61768540000776,255.6292214000132,255.63432429998647,255.63432429998647,255.63432429998647,257.21801720000803,Foils\093b.jpg,none,n,1.5684613999910653,None,,,,,,,,00067,001,2026-01-25_15h37.10.370,MST_test,2024.2.0,60.023901517902125,2026-01-25 15h37.18.133594 +0530,
52,0,53,o,0.9774577000061981,None,53,0,52,257.23410289996536,,,,,,,,,,,,,,,,,,,,,,,,,,,,,,,,,,,,,,,,,,,,,,,,,,257.2181086000055,257.23410289996536,257.736843199993,257.71759600000223,257.73465559998294,257.736843199993,257.736843199993,257.736843199993,258.71795299998485,Scenes\124b.jpg,pre,o,0.9774577000061981,None,,,,,,,,00067,001,2026-01-25_15h37.10.370,MST_test,2024.2.0,60.023901517902125,2026-01-25 15h37.18.133594 +0530,
53,0,54,o,0.7896501999930479,None,54,0,53,258.73410529998364,,,,,,,,,,,,,,,,,,,,,,,,,,,,,,,,,,,,,,,,,,,,,,,,,,258.71804249996785,258.73410529998364,259.2374150999822,259.21773540001595,259.23524309997447,259.2374150999822,259.2374150999822,259.2374150999822,260.0347792999819,Scenes\114a.jpg,pre,o,0.7896501999930479,None,,,,,,,,00067,001,2026-01-25_15h37.10.370,MST_test,2024.2.0,60.023901517902125,2026-01-25 15h37.18.133594 +0530,
54,0,55,o,1.2121768000070006,None,55,0,54,260.0506514000008,,,,,,,,,,,,,,,,,,,,,,,,,,,,,,,,,,,,,,,,,,,,,,,,,,260.0348729999969,260.0506514000008,260.5513554000063,260.53440299996873,260.5440664999769,260.5513554000063,260.5513554000063,260.5513554000063,261.7679804000072,Objects\142a.jpg,post,o,1.2121768000070006,None,,,,,,,,00067,001,2026-01-25_15h37.10.370,MST_test,2024.2.0,60.023901517902125,2026-01-25 15h37.18.133594 +0530,
55,0,56,o,0.9024216000107117,None,56,0,55,261.78427050000755,,,,,,,,,,,,,,,,,,,,,,,,,,,,,,,,,,,,,,,,,,,,,,,,,,261.76807089999784,261.78427050000755,262.2843491999665,262.2676937999786,262.2773561999784,262.2843491999665,262.2843491999665,262.2843491999665,263.2012137999991,Objects\064b.jpg,mid,o,0.9024216000107117,None,,,,,,,,00067,001,2026-01-25_15h37.10.370,MST_test,2024.2.0,60.023901517902125,2026-01-25 15h37.18.133594 +0530,
56,0,57,n,2.0451968999695964,None,57,0,56,263.2174413999892,,,,,,,,,,,,,,,,,,,,,,,,,,,,,,,,,,,,,,,,,,,,,,,,,,263.20130319998134,263.2174413999892,263.7178571000113,263.701018999971,263.71036560001085,263.7178571000113,263.7178571000113,263.7178571000113,265.7680621999898,Foils\scenes4.jpg,none,n,2.0451968999695964,None,,,,,,,,00067,001,2026-01-25_15h37.10.370,MST_test,2024.2.0,60.023901517902125,2026-01-25 15h37.18.133594 +0530,
57,0,58,o,0.9412219999940135,None,58,0,57,265.7840883000172,,,,,,,,,,,,,,,,,,,,,,,,,,,,,,,,,,,,,,,,,,,,,,,,,,265.768155800004,265.7840883000172,266.28575300000375,266.2676999999676,266.283709499985,266.28575300000375,266.28575300000375,266.28575300000375,267.23450500000035,Scenes\085a.jpg,pre,o,0.9412219999940135,None,,,,,,,,00067,001,2026-01-25_15h37.10.370,MST_test,2024.2.0,60.023901517902125,2026-01-25 15h37.18.133594 +0530,
58,0,59,s,5.481814300001133,None,59,0,58,267.2506577000022,,,,,,,,,,,,,,,,,,,,,,,,,,,,,,,,,,,,,,,,,,,,,,,,,,267.23459950002143,267.2506577000022,267.75303710001754,267.7342794999713,267.750801599992,267.75303710001754,267.75303710001754,267.75303710001754,273.25119979999727,Scenes\119b.jpg,post,s,5.481814300001133,None,,,,,,,,00067,001,2026-01-25_15h37.10.370,MST_test,2024.2.0,60.023901517902125,2026-01-25 15h37.18.133594 +0530,
59,0,60,s,6.538960299978498,None,60,0,59,273.26733140001306,,,,,,,,,,,,,,,,,,,,,,,,,,,,,,,,,,,,,,,,,,,,,,,,,,273.2512912999955,273.26733140001306,273.76791589998174,273.7507474999875,273.76030369999353,273.76791589998174,273.76791589998174,273.76791589998174,280.3179327999824,Objects\120a.jpg,mid,s,6.538960299978498,None,,,,,,,,00067,001,2026-01-25_15h37.10.370,MST_test,2024.2.0,60.023901517902125,2026-01-25 15h37.18.133594 +0530,
60,0,61,o,1.2000173999695107,None,61,0,60,280.333931799978,,,,,,,,,,,,,,,,,,,,,,,,,,,,,,,,,,,,,,,,,,,,,,,,,,280.3180247999844,280.333931799978,280.8343142999802,280.817630000005,280.826883599977,280.8343142999802,280.8343142999802,280.8343142999802,282.0349313999759,Objects\061a.jpg,mid,o,1.2000173999695107,None,,,,,,,,00067,001,2026-01-25_15h37.10.370,MST_test,2024.2.0,60.023901517902125,2026-01-25 15h37.18.133594 +0530,
61,0,62,o,1.21515589999035,None,62,0,61,282.0505338999792,,,,,,,,,,,,,,,,,,,,,,,,,,,,,,,,,,,,,,,,,,,,,,,,,,282.0350215000217,282.0505338999792,282.5551436999813,282.53425339999376,282.5529457000084,282.5551436999813,282.5551436999813,282.5551436999813,283.7846225000103,Scenes\029a.jpg,post,o,1.21515589999035,None,,,,,,,,00067,001,2026-01-25_15h37.10.370,MST_test,2024.2.0,60.023901517902125,2026-01-25 15h37.18.133594 +0530,
62,0,63,o,2.8452981999726035,None,63,0,62,283.80053030001,,,,,,,,,,,,,,,,,,,,,,,,,,,,,,,,,,,,,,,,,,,,,,,,,,283.7847130000009,283.80053030001,284.30099349998636,284.28421850001905,284.2945406999788,284.30099349998636,284.30099349998636,284.30099349998636,287.15112840000074,Objects\028b.jpg,mid,o,2.8452981999726035,None,,,,,,,,00067,001,2026-01-25_15h37.10.370,MST_test,2024.2.0,60.023901517902125,2026-01-25 15h37.18.133594 +0530,
63,0,64,o,1.1027461999910884,None,64,0,63,287.167346799979,,,,,,,,,,,,,,,,,,,,,,,,,,,,,,,,,,,,,,,,,,,,,,,,,,287.1512187999906,287.167346799979,287.66754840000067,287.6511591000017,287.66042749996996,287.66754840000067,287.66754840000067,287.66754840000067,288.7845629999647,Objects\083b.jpg,post,o,1.1027461999910884,None,,,,,,,,00067,001,2026-01-25_15h37.10.370,MST_test,2024.2.0,60.023901517902125,2026-01-25 15h37.18.133594 +0530,
64,0,65,s,1.5948152000200935,None,65,0,64,288.80053040001076,,,,,,,,,,,,,,,,,,,,,,,,,,,,,,,,,,,,,,,,,,,,,,,,,,288.7846525000059,288.80053040001076,289.30431639996823,289.28423659998225,289.3021180999931,289.30431639996823,289.30431639996823,289.30431639996823,290.9012547999737,Scenes\009b.jpg,pre,s,1.5948152000200935,None,,,,,,,,00067,001,2026-01-25_15h37.10.370,MST_test,2024.2.0,60.023901517902125,2026-01-25 15h37.18.133594 +0530,
65,0,66,s,5.136890400026459,None,66,0,65,290.9172644999926,,,,,,,,,,,,,,,,,,,,,,,,,,,,,,,,,,,,,,,,,,,,,,,,,,290.90134440001566,290.9172644999926,291.41814530000556,291.4007830999908,291.41583179996815,291.41814530000556,291.41814530000556,291.41814530000556,296.56793540000217,Scenes\177a.jpg,pre,s,5.136890400026459,None,,,,,,,,00067,001,2026-01-25_15h37.10.370,MST_test,2024.2.0,60.023901517902125,2026-01-25 15h37.18.133594 +0530,
66,0,67,o,2.2305120999808423,None,67,0,66,296.58391649997793,,,,,,,,,,,,,,,,,,,,,,,,,,,,,,,,,,,,,,,,,,,,,,,,,,296.56802519998746,296.58391649997793,297.0845424999716,297.0675957999774,297.07991630001925,297.0845424999716,297.0845424999716,297.0845424999716,299.3179344999953,Scenes\014a.jpg,mid,o,2.2305120999808423,None,,,,,,,,00067,001,2026-01-25_15h37.10.370,MST_test,2024.2.0,60.023901517902125,2026-01-25 15h37.18.133594 +0530,
67,0,68,o,1.4778885999694467,None,68,0,67,299.3339746000129,,,,,,,,,,,,,,,,,,,,,,,,,,,,,,,,,,,,,,,,,,,,,,,,,,299.3180367000168,299.3339746000129,299.8372481999686,299.81761099997675,299.83510969998315,299.8372481999686,299.8372481999686,299.8372481999686,301.3178173999768,Scenes\094a.jpg,pre,o,1.4778885999694467,None,,,,,,,,00067,001,2026-01-25_15h37.10.370,MST_test,2024.2.0,60.023901517902125,2026-01-25 15h37.18.133594 +0530,
68,0,69,o,0.8479995999950916,None,69,0,68,301.33398449997185,,,,,,,,,,,,,,,,,,,,,,,,,,,,,,,,,,,,,,,,,,,,,,,,,,301.31790650001494,301.33398449997185,301.8349242999684,301.81751369999256,301.83256850001635,301.8349242999684,301.8349242999684,301.8349242999684,302.68456439999864,Scenes\109a.jpg,mid,o,0.8479995999950916,None,,,,,,,,00067,001,2026-01-25_15h37.10.370,MST_test,2024.2.0,60.023901517902125,2026-01-25 15h37.18.133594 +0530,
69,0,70,o,4.225721399998292,None,70,0,69,302.70058880001307,,,,,,,,,,,,,,,,,,,,,,,,,,,,,,,,,,,,,,,,,,,,,,,,,,302.6846537999809,302.70058880001307,303.20105689996853,303.1842164999689,303.194614899985,303.20105689996853,303.20105689996853,303.20105689996853,307.43459069996607,Objects\180b.jpg,pre,o,4.225721399998292,None,,,,,,,,00067,001,2026-01-25_15h37.10.370,MST_test,2024.2.0,60.023901517902125,2026-01-25 15h37.18.133594 +0530,
70,0,71,o,0.9145547999651171,None,71,0,70,307.4506135999691,,,,,,,,,,,,,,,,,,,,,,,,,,,,,,,,,,,,,,,,,,,,,,,,,,307.43468700000085,307.4506135999691,307.9524587999913,307.93425589997787,307.9503827000153,307.9524587999913,307.9524587999913,307.9524587999913,308.86788949999027,Scenes\143a.jpg,post,o,0.9145547999651171,None,,,,,,,,00067,001,2026-01-25_15h37.10.370,MST_test,2024.2.0,60.023901517902125,2026-01-25 15h37.18.133594 +0530,
71,0,72,o,2.378317299997434,None,72,0,71,308.8839770000195,,,,,,,,,,,,,,,,,,,,,,,,,,,,,,,,,,,,,,,,,,,,,,,,,,308.8679911000072,308.8839770000195,309.38440789998276,309.3675824999809,309.3775975999888,309.38440789998276,309.38440789998276,309.38440789998276,311.7678901000181,Objects\059b.jpg,pre,o,2.378317299997434,None,,,,,,,,00067,001,2026-01-25_15h37.10.370,MST_test,2024.2.0,60.023901517902125,2026-01-25 15h37.18.133594 +0530,
72,0,73,s,4.221681600029115,None,73,0,72,311.7839055999648,,,,,,,,,,,,,,,,,,,,,,,,,,,,,,,,,,,,,,,,,,,,,,,,,,311.767978399992,311.7839055999648,312.2845014000195,312.26755549997324,312.2779181000078,312.2845014000195,312.2845014000195,312.2845014000195,316.51807789999293,Scenes\037a.jpg,post,s,4.221681600029115,None,,,,,,,,00067,001,2026-01-25_15h37.10.370,MST_test,2024.2.0,60.023901517902125,2026-01-25 15h37.18.133594 +0530,
73,0,74,o,1.5238901000120677,None,74,0,73,316.53393979999237,,,,,,,,,,,,,,,,,,,,,,,,,,,,,,,,,,,,,,,,,,,,,,,,,,316.51817330002086,316.53393979999237,317.0395691000158,317.0175835000118,317.03761579998536,317.0395691000158,317.0395691000158,317.0395691000158,318.5679919999675,Scenes\090b.jpg,mid,o,1.5238901000120677,None,,,,,,,,00067,001,2026-01-25_15h37.10.370,MST_test,2024.2.0,60.023901517902125,2026-01-25 15h37.18.133594 +0530,
74,0,75,s,2.2829647999606095,None,75,0,74,318.58396540000103,,,,,,,,,,,,,,,,,,,,,,,,,,,,,,,,,,,,,,,,,,,,,,,,,,318.5680887000053,318.58396540000103,319.08737149997614,319.0676061999984,319.0853462999803,319.08737149997614,319.08737149997614,319.08737149997614,321.38459079997847,Scenes\076b.jpg,mid,s,2.2829647999606095,None,,,,,,,,00067,001,2026-01-25_15h37.10.370,MST_test,2024.2.0,60.023901517902125,2026-01-25 15h37.18.133594 +0530,
75,0,76,o,2.853683900029864,None,76,0,75,321.40048419998493,,,,,,,,,,,,,,,,,,,,,,,,,,,,,,,,,,,,,,,,,,,,,,,,,,321.3846794000128,321.40048419998493,321.90109910001047,321.8842530999682,321.8939675000147,321.90109910001047,321.90109910001047,321.90109910001047,324.76786029996583,Objects\189a.jpg,pre,o,2.853683900029864,None,,,,,,,,00067,001,2026-01-25_15h37.10.370,MST_test,2024.2.0,60.023901517902125,2026-01-25 15h37.18.133594 +0530,
76,0,77,n,1.3189342999830842,None,77,0,76,324.7839626999921,,,,,,,,,,,,,,,,,,,,,,,,,,,,,,,,,,,,,,,,,,,,,,,,,,324.76795130001847,324.7839626999921,325.28499959997134,325.2679449999705,325.27806549996603,325.28499959997134,325.28499959997134,325.28499959997134,326.6179170999676,Foils\033a.jpg,none,n,1.3189342999830842,None,,,,,,,,00067,001,2026-01-25_15h37.10.370,MST_test,2024.2.0,60.023901517902125,2026-01-25 15h37.18.133594 +0530,
77,0,78,n,6.093600999971386,None,78,0,77,326.6339803999872,,,,,,,,,,,,,,,,,,,,,,,,,,,,,,,,,,,,,,,,,,,,,,,,,,326.6180059000035,326.6339803999872,327.1342302999692,327.11787479999475,327.1270740000182,327.1342302999692,327.1342302999692,327.1342302999692,333.2348546999856,Foils\106a.jpg,none,n,6.093600999971386,None,,,,,,,,00067,001,2026-01-25_15h37.10.370,MST_test,2024.2.0,60.023901517902125,2026-01-25 15h37.18.133594 +0530,
78,0,79,s,1.6913873999728821,None,79,0,78,333.2505575999967,,,,,,,,,,,,,,,,,,,,,,,,,,,,,,,,,,,,,,,,,,,,,,,,,,333.23494900000514,333.2505575999967,333.7510226999875,333.73427859996445,333.7486830999842,333.7510226999875,333.7510226999875,333.7510226999875,335.45098309998866,Scenes\049b.jpg,mid,s,1.6913873999728821,None,,,,,,,,00067,001,2026-01-25_15h37.10.370,MST_test,2024.2.0,60.023901517902125,2026-01-25 15h37.18.133594 +0530,
79,0,80,o,6.251147200004198,None,80,0,79,335.4672948999796,,,,,,,,,,,,,,,,,,,,,,,,,,,,,,,,,,,,,,,,,,,,,,,,,,335.4510756999953,335.4672948999796,335.9677567000035,335.950737999985,335.96110429998953,335.9677567000035,335.9677567000035,335.9677567000035,342.23444779997226,Objects\071b.jpg,pre,o,6.251147200004198,None,,,,,,,,00067,001,2026-01-25_15h37.10.370,MST_test,2024.2.0,60.023901517902125,2026-01-25 15h37.18.133594 +0530,
80,0,81,s,6.019879600033164,None,81,0,80,342.2505631999811,,,,,,,,,,,,,,,,,,,,,,,,,,,,,,,,,,,,,,,,,,,,,,,,,,342.2345369000104,342.2505631999811,342.7508925999864,342.7341969999834,342.744624199986,342.7508925999864,342.7508925999864,342.7508925999864,348.78446250001434,Objects\170b.jpg,pre,s,6.019879600033164,None,,,,,,,,00067,001,2026-01-25_15h37.10.370,MST_test,2024.2.0,60.023901517902125,2026-01-25 15h37.18.133594 +0530,
81,0,82,o,1.405263799999375,None,82,0,81,348.8005110999802,,,,,,,,,,,,,,,,,,,,,,,,,,,,,,,,,,,,,,,,,,,,,,,,,,348.7845499999821,348.8005110999802,349.30113530001836,349.2841908999835,349.2939298999845,349.30113530001836,349.30113530001836,349.30113530001836,350.71788810001453,Objects\087a.jpg,post,o,1.405263799999375,None,,,,,,,,00067,001,2026-01-25_15h37.10.370,MST_test,2024.2.0,60.023901517902125,2026-01-25 15h37.18.133594 +0530,
82,0,83,o,0.9922722000046633,None,83,0,82,350.73395570000866,,,,,,,,,,,,,,,,,,,,,,,,,,,,,,,,,,,,,,,,,,,,,,,,,,350.71797810000135,350.73395570000866,351.2341786000179,351.2175717999926,351.2268064999953,351.2341786000179,351.2341786000179,351.2341786000179,352.2347073999699,Objects\037a.jpg,post,o,0.9922722000046633,None,,,,,,,,00067,001,2026-01-25_15h37.10.370,MST_test,2024.2.0,60.023901517902125,2026-01-25 15h37.18.133594 +0530,
83,0,84,s,1.4216112999711186,None,84,0,83,352.2504680000129,,,,,,,,,,,,,,,,,,,,,,,,,,,,,,,,,,,,,,,,,,,,,,,,,,352.2348048000131,352.2504680000129,352.7568329999922,352.7344791999785,352.7545256000012,352.7568329999922,352.7568329999922,352.7568329999922,354.184577899985,Scenes\086b.jpg,pre,s,1.4216112999711186,None,,,,,,,,00067,001,2026-01-25_15h37.10.370,MST_test,2024.2.0,60.023901517902125,2026-01-25 15h37.18.133594 +0530,
84,0,85,s,1.6779630000237375,None,85,0,84,354.2004756999668,,,,,,,,,,,,,,,,,,,,,,,,,,,,,,,,,,,,,,,,,,,,,,,,,,354.184667399968,354.2004756999668,354.70090729999356,354.6843025999842,354.6943324999884,354.70090729999356,354.70090729999356,354.70090729999356,356.3844830999733,Objects\108b.jpg,mid,s,1.6779630000237375,None,,,,,,,,00067,001,2026-01-25_15h37.10.370,MST_test,2024.2.0,60.023901517902125,2026-01-25 15h37.18.133594 +0530,
85,0,86,s,2.8622647999436595,None,86,0,85,356.4005605999846,,,,,,,,,,,,,,,,,,,,,,,,,,,,,,,,,,,,,,,,,,,,,,,,,,356.3845732000191,356.4005605999846,356.9009000000078,356.88414639997063,356.8945348999696,356.9009000000078,356.9009000000078,356.9009000000078,359.7677775999764,Foils\105a.jpg,none,s,2.8622647999436595,None,,,,,,,,00067,001,2026-01-25_15h37.10.370,MST_test,2024.2.0,60.023901517902125,2026-01-25 15h37.18.133594 +0530,
86,0,87,o,1.17243520001648,None,87,0,86,359.78395229997113,,,,,,,,,,,,,,,,,,,,,,,,,,,,,,,,,,,,,,,,,,,,,,,,,,359.7678712999914,359.78395229997113,360.286511000013,360.2674652999849,360.2844243000145,360.286511000013,360.286511000013,360.286511000013,361.46801969996886,Scenes\174a.jpg,pre,o,1.17243520001648,None,,,,,,,,00067,001,2026-01-25_15h37.10.370,MST_test,2024.2.0,60.023901517902125,2026-01-25 15h37.18.133594 +0530,
87,0,88,s,4.384991400002036,None,88,0,87,361.4840164000052,,,,,,,,,,,,,,,,,,,,,,,,,,,,,,,,,,,,,,,,,,,,,,,,,,361.46810880000703,361.4840164000052,361.98589459998766,361.96768439997686,361.9836557999952,361.98589459998766,361.98589459998766,361.98589459998766,366.38484339998104,Scenes\027b.jpg,post,s,4.384991400002036,None,,,,,,,,00067,001,2026-01-25_15h37.10.370,MST_test,2024.2.0,60.023901517902125,2026-01-25 15h37.18.133594 +0530,
88,0,89,o,1.2353427999769337,None,89,0,88,366.40079589997185,,,,,,,,,,,,,,,,,,,,,,,,,,,,,,,,,,,,,,,,,,,,,,,,,,366.38494449999416,366.40079589997185,366.9031750999857,366.88434119999874,366.90076099999715,366.9031750999857,366.9031750999857,366.9031750999857,368.15140749997227,Scenes\160b.jpg,pre,o,1.2353427999769337,None,,,,,,,,00067,001,2026-01-25_15h37.10.370,MST_test,2024.2.0,60.023901517902125,2026-01-25 15h37.18.133594 +0530,
89,0,90,s,1.3944671000353992,None,90,0,89,368.16739859996596,,,,,,,,,,,,,,,,,,,,,,,,,,,,,,,,,,,,,,,,,,,,,,,,,,368.15149730001576,368.16739859996596,368.67179130000295,368.6512669000076,368.6695549999713,368.67179130000295,368.67179130000295,368.67179130000295,370.0679428000003,Scenes\183b.jpg,mid,s,1.3944671000353992,None,,,,,,,,00067,001,2026-01-25_15h37.10.370,MST_test,2024.2.0,60.023901517902125,2026-01-25 15h37.18.133594 +0530,
90,0,91,o,1.8737002999987453,None,91,0,90,370.0840782999876,,,,,,,,,,,,,,,,,,,,,,,,,,,,,,,,,,,,,,,,,,,,,,,,,,370.06804149999516,370.0840782999876,370.58458289998816,370.5676871999749,370.5773642999702,370.58458289998816,370.58458289998816,370.58458289998816,372.46802979998756,Objects\125b.jpg,mid,o,1.8737002999987453,None,,,,,,,,00067,001,2026-01-25_15h37.10.370,MST_test,2024.2.0,60.023901517902125,2026-01-25 15h37.18.133594 +0530,
91,0,92,o,0.8910677999956533,None,92,0,91,372.4840241000056,,,,,,,,,,,,,,,,,,,,,,,,,,,,,,,,,,,,,,,,,,,,,,,,,,372.4681289999862,372.4840241000056,372.98447969998233,372.9681702000089,372.97846369998297,372.98447969998233,372.98447969998233,372.98447969998233,373.8846227999893,Objects\113b.jpg,post,o,0.8910677999956533,None,,,,,,,,00067,001,2026-01-25_15h37.10.370,MST_test,2024.2.0,60.023901517902125,2026-01-25 15h37.18.133594 +0530,
92,0,93,o,0.8420664999866858,None,93,0,92,373.9005940000061,,,,,,,,,,,,,,,,,,,,,,,,,,,,,,,,,,,,,,,,,,,,,,,,,,373.8847177000134,373.9005940000061,374.400855600019,374.3842890000087,374.39317569998093,374.400855600019,374.400855600019,374.400855600019,375.25124770001275,Objects\063a.jpg,mid,o,0.8420664999866858,None,,,,,,,,00067,001,2026-01-25_15h37.10.370,MST_test,2024.2.0,60.023901517902125,2026-01-25 15h37.18.133594 +0530,
93,0,94,n,2.314299800025765,None,94,0,93,375.2673691000091,,,,,,,,,,,,,,,,,,,,,,,,,,,,,,,,,,,,,,,,,,,,,,,,,,375.2513372999965,375.2673691000091,375.76784579997184,375.7509658000199,375.759905599989,375.76784579997184,375.76784579997184,375.76784579997184,378.0846328000189,Foils\scenes29.jpg,none,n,2.314299800025765,None,,,,,,,,00067,001,2026-01-25_15h37.10.370,MST_test,2024.2.0,60.023901517902125,2026-01-25 15h37.18.133594 +0530,
94,0,95,o,1.0344326999620534,None,95,0,94,378.10071369999787,,,,,,,,,,,,,,,,,,,,,,,,,,,,,,,,,,,,,,,,,,,,,,,,,,378.08472450001864,378.10071369999787,378.60149979998823,378.58446519996505,378.5960471999715,378.60149979998823,378.60149979998823,378.60149979998823,379.651268000016,Scenes\097a.jpg,post,o,1.0344326999620534,None,,,,,,,,00067,001,2026-01-25_15h37.10.370,MST_test,2024.2.0,60.023901517902125,2026-01-25 15h37.18.133594 +0530,
95,0,96,o,0.984954799991101,None,96,0,95,379.66738599998644,,,,,,,,,,,,,,,,,,,,,,,,,,,,,,,,,,,,,,,,,,,,,,,,,,379.6513555999845,379.66738599998644,380.1693018999649,380.1509794999729,380.1669974999968,380.1693018999649,380.1693018999649,380.1693018999649,381.1682904000045,Scenes\017a.jpg,pre,o,0.984954799991101,None,,,,,,,,00067,001,2026-01-25_15h37.10.370,MST_test,2024.2.0,60.023901517902125,2026-01-25 15h37.18.133594 +0530,
96,0,97,n,2.741813300002832,None,97,0,96,381.1841018999694,,,,,,,,,,,,,,,,,,,,,,,,,,,,,,,,,,,,,,,,,,,,,,,,,,381.16838769998867,381.1841018999694,381.6846030000015,381.6677346000215,381.6791080000112,381.6846030000015,381.6846030000015,381.6846030000015,384.4346405999968,Foils\050a.jpg,none,n,2.741813300002832,None,,,,,,,,00067,001,2026-01-25_15h37.10.370,MST_test,2024.2.0,60.023901517902125,2026-01-25 15h37.18.133594 +0530,
97,0,98,s,1.419908200041391,None,98,0,97,384.4506332000019,,,,,,,,,,,,,,,,,,,,,,,,,,,,,,,,,,,,,,,,,,,,,,,,,,384.4347281999653,384.4506332000019,384.9509125999757,384.93434179999167,384.9436707000132,384.9509125999757,384.9509125999757,384.9509125999757,386.3845260000089,Objects\192b.jpg,mid,s,1.419908200041391,None,,,,,,,,00067,001,2026-01-25_15h37.10.370,MST_test,2024.2.0,60.023901517902125,2026-01-25 15h37.18.133594 +0530,
98,0,99,o,0.8617432999890298,None,99,0,98,386.40073250001296,,,,,,,,,,,,,,,,,,,,,,,,,,,,,,,,,,,,,,,,,,,,,,,,,,386.3846216999809,386.40073250001296,386.90120989998104,386.8843174999929,386.89771029999247,386.90120989998104,386.90120989998104,386.90120989998104,387.76799329998903,Scenes\079a.jpg,mid,o,0.8617432999890298,None,,,,,,,,00067,001,2026-01-25_15h37.10.370,MST_test,2024.2.0,60.023901517902125,2026-01-25 15h37.18.133594 +0530,
99,0,100,o,0.7258215000038035,None,100,0,99,387.78399859997444,,,,,,,,,,,,,,,,,,,,,,,,,,,,,,,,,,,,,,,,,,,,,,,,,,387.768080800015,387.78399859997444,388.28443739999784,388.2677540999721,388.27959739998914,388.28443739999784,388.28443739999784,388.28443739999784,389.01796889997786,Scenes\139a.jpg,pre,o,0.7258215000038035,None,,,,,,,,00067,001,2026-01-25_15h37.10.370,MST_test,2024.2.0,60.023901517902125,2026-01-25 15h37.18.133594 +0530,
100,0,101,o,1.187899800017476,None,101,0,100,389.0340602999786,,,,,,,,,,,,,,,,,,,,,,,,,,,,,,,,,,,,,,,,,,,,,,,,,,389.0180605999776,389.0340602999786,389.534507400007,389.51765819999855,389.52733720000833,389.534507400007,389.534507400007,389.534507400007,390.73463849996915,Objects\100a.jpg,pre,o,1.187899800017476,None,,,,,,,,00067,001,2026-01-25_15h37.10.370,MST_test,2024.2.0,60.023901517902125,2026-01-25 15h37.18.133594 +0530,
101,0,102,n,2.3278185999952257,None,102,0,101,390.75063219998265,,,,,,,,,,,,,,,,,,,,,,,,,,,,,,,,,,,,,,,,,,,,,,,,,,390.7347281000111,390.75063219998265,391.2511016000062,391.23430090001784,391.24328210001113,391.2511016000062,391.2511016000062,391.2511016000062,393.5846494999714,Foils\scenes7.jpg,none,n,2.3278185999952257,None,,,,,,,,00067,001,2026-01-25_15h37.10.370,MST_test,2024.2.0,60.023901517902125,2026-01-25 15h37.18.133594 +0530,
102,0,103,s,1.9011862000334077,None,103,0,102,393.6007097999682,,,,,,,,,,,,,,,,,,,,,,,,,,,,,,,,,,,,,,,,,,,,,,,,,,393.58474000002025,393.6007097999682,394.1010840999661,394.0843395999982,394.0950104999938,394.1010840999661,394.1010840999661,394.1010840999661,396.0178148999694,Objects\102b.jpg,mid,s,1.9011862000334077,None,,,,,,,,00067,001,2026-01-25_15h37.10.370,MST_test,2024.2.0,60.023901517902125,2026-01-25 15h37.18.133594 +0530,
103,0,104,s,1.6211185000138357,None,104,0,103,396.0340454999823,,,,,,,,,,,,,,,,,,,,,,,,,,,,,,,,,,,,,,,,,,,,,,,,,,396.01790320000146,396.0340454999823,396.5343350999756,396.51755940000294,396.526288699999,396.5343350999756,396.5343350999756,396.5343350999756,398.1679197999765,Objects\046a.jpg,pre,s,1.6211185000138357,None,,,,,,,,00067,001,2026-01-25_15h37.10.370,MST_test,2024.2.0,60.023901517902125,2026-01-25 15h37.18.133594 +0530,
104,0,105,s,4.214133699948434,None,105,0,104,398.18402079999214,,,,,,,,,,,,,,,,,,,,,,,,,,,,,,,,,,,,,,,,,,,,,,,,,,398.1680076000048,398.18402079999214,398.68418869999005,398.6676948000095,398.6766973999911,398.68418869999005,398.68418869999005,398.68418869999005,402.90119359997334,Objects\177b.jpg,pre,s,4.214133699948434,None,,,,,,,,00067,001,2026-01-25_15h37.10.370,MST_test,2024.2.0,60.023901517902125,2026-01-25 15h37.18.133594 +0530,
105,0,106,o,1.0088217000011355,None,106,0,105,402.9173715999932,,,,,,,,,,,,,,,,,,,,,,,,,,,,,,,,,,,,,,,,,,,,,,,,,,402.9012824000092,402.9173715999932,403.4175964000169,403.40096619998803,403.41000889998395,403.4175964000169,403.4175964000169,403.4175964000169,404.43468050000956,Objects\034a.jpg,pre,o,1.0088217000011355,None,,,,,,,,00067,001,2026-01-25_15h37.10.370,MST_test,2024.2.0,60.023901517902125,2026-01-25 15h37.18.133594 +0530,
106,0,107,s,1.443205300020054,None,107,0,106,404.4506437999662,,,,,,,,,,,,,,,,,,,,,,,,,,,,,,,,,,,,,,,,,,,,,,,,,,404.4347691999865,404.4506437999662,404.9510614000028,404.9343243999756,404.9487989000045,404.9510614000028,404.9510614000028,404.9510614000028,406.4013673000154,Scenes\141b.jpg,mid,s,1.443205300020054,None,,,,,,,,00067,001,2026-01-25_15h37.10.370,MST_test,2024.2.0,60.023901517902125,2026-01-25 15h37.18.133594 +0530,
107,0,108,o,3.6760040000081062,None,108,0,107,406.41734980000183,,,,,,,,,,,,,,,,,,,,,,,,,,,,,,,,,,,,,,,,,,,,,,,,,,406.40145699999994,406.41734980000183,406.9185274000047,406.9008022000198,406.9162267000065,406.9185274000047,406.9185274000047,406.9185274000047,410.60110979998717,Scenes\006b.jpg,mid,o,3.6760040000081062,None,,,,,,,,00067,001,2026-01-25_15h37.10.370,MST_test,2024.2.0,60.023901517902125,2026-01-25 15h37.18.133594 +0530,
108,0,109,n,2.772788700007368,None,109,0,108,410.61731750000035,,,,,,,,,,,,,,,,,,,,,,,,,,,,,,,,,,,,,,,,,,,,,,,,,,410.6012017999892,410.61731750000035,411.11785049998434,411.10101410001516,411.1107817000011,411.11785049998434,411.11785049998434,411.11785049998434,413.90117959998315,Foils\scenes2.jpg,none,n,2.772788700007368,None,,,,,,,,00067,001,2026-01-25_15h37.10.370,MST_test,2024.2.0,60.023901517902125,2026-01-25 15h37.18.133594 +0530,
109,0,110,s,1.4577194000012241,None,110,0,109,413.9172915999661,,,,,,,,,,,,,,,,,,,,,,,,,,,,,,,,,,,,,,,,,,,,,,,,,,413.90127610001946,413.9172915999661,414.4177506999695,414.40102930000285,414.41148539999267,414.4177506999695,414.4177506999695,414.4177506999695,415.88465349999024,Objects\030b.jpg,pre,s,1.4577194000012241,None,,,,,,,,00067,001,2026-01-25_15h37.10.370,MST_test,2024.2.0,60.023901517902125,2026-01-25 15h37.18.133594 +0530,
110,0,111,s,2.321021500043571,None,111,0,110,415.9009054999915,,,,,,,,,,,,,,,,,,,,,,,,,,,,,,,,,,,,,,,,,,,,,,,,,,415.88474120001774,415.9009054999915,416.4025651999982,416.3843180999975,416.4003152999794,416.4025651999982,416.4025651999982,416.4025651999982,418.73464569996577,Scenes\100b.jpg,mid,s,2.321021500043571,None,,,,,,,,00067,001,2026-01-25_15h37.10.370,MST_test,2024.2.0,60.023901517902125,2026-01-25 15h37.18.133594 +0530,
111,0,112,o,1.1810508000198752,None,112,0,111,418.75061049999204,,,,,,,,,,,,,,,,,,,,,,,,,,,,,,,,,,,,,,,,,,,,,,,,,,418.7347351000062,418.75061049999204,419.25347250001505,419.2342349999817,419.2512794000213,419.25347250001505,419.25347250001505,419.25347250001505,420.45114249998005,Scenes\158a.jpg,mid,o,1.1810508000198752,None,,,,,,,,00067,001,2026-01-25_15h37.10.370,MST_test,2024.2.0,60.023901517902125,2026-01-25 15h37.18.133594 +0530,
112,0,113,o,1.834291699982714,None,113,0,112,420.4675669000135,,,,,,,,,,,,,,,,,,,,,,,,,,,,,,,,,,,,,,,,,,,,,,,,,,420.4512290999992,420.4675669000135,420.9680165000027,420.9509198999731,420.96581049996894,420.9680165000027,420.9680165000027,420.9680165000027,422.8178020999767,Scenes\155a.jpg,pre,o,1.834291699982714,None,,,,,,,,00067,001,2026-01-25_15h37.10.370,MST_test,2024.2.0,60.023901517902125,2026-01-25 15h37.18.133594 +0530,
113,0,114,s,2.7405093000270426,None,114,0,113,422.83393740002066,,,,,,,,,,,,,,,,,,,,,,,,,,,,,,,,,,,,,,,,,,,,,,,,,,422.81789970002137,422.83393740002066,423.3344169000047,423.3175623000134,423.32771480001975,423.3344169000047,423.3344169000047,423.3344169000047,426.0845310000004,Objects\015a.jpg,pre,s,2.7405093000270426,None,,,,,,,,00067,001,2026-01-25_15h37.10.370,MST_test,2024.2.0,60.023901517902125,2026-01-25 15h37.18.133594 +0530,
114,0,115,s,3.929551800014451,None,115,0,114,426.1005390000064,,,,,,,,,,,,,,,,,,,,,,,,,,,,,,,,,,,,,,,,,,,,,,,,,,426.084618999972,426.1005390000064,426.6007848000154,426.5842940000002,426.593985399988,426.6007848000154,426.6007848000154,426.6007848000154,430.5344371999963,Objects\076b.jpg,pre,s,3.929551800014451,None,,,,,,,,00067,001,2026-01-25_15h37.10.370,MST_test,2024.2.0,60.023901517902125,2026-01-25 15h37.18.133594 +0530,
115,0,116,o,1.4380889000021853,None,116,0,115,430.55051929998444,,,,,,,,,,,,,,,,,,,,,,,,,,,,,,,,,,,,,,,,,,,,,,,,,,430.5345275999862,430.55051929998444,431.0521855999832,431.0342171000084,431.0499972999678,431.0521855999832,431.0521855999832,431.0521855999832,432.5009635000024,Scenes\093a.jpg,mid,o,1.4380889000021853,None,,,,,,,,00067,001,2026-01-25_15h37.10.370,MST_test,2024.2.0,60.023901517902125,2026-01-25 15h37.18.133594 +0530,
116,0,117,o,0.9283894000109285,None,117,0,116,432.51739609998185,,,,,,,,,,,,,,,,,,,,,,,,,,,,,,,,,,,,,,,,,,,,,,,,,,432.5010519999778,432.51739609998185,433.01797699998133,433.0009241999942,433.015748100006,433.01797699998133,433.01797699998133,433.01797699998133,433.95103100000415,Scenes\154b.jpg,pre,o,0.9283894000109285,None,,,,,,,,00067,001,2026-01-25_15h37.10.370,MST_test,2024.2.0,60.023901517902125,2026-01-25 15h37.18.133594 +0530,
117,0,118,n,2.9114480999996886,None,118,0,117,433.96726070001023,,,,,,,,,,,,,,,,,,,,,,,,,,,,,,,,,,,,,,,,,,,,,,,,,,433.9511193999788,433.96726070001023,434.46767099999124,434.45086959999753,434.46544619998895,434.46767099999124,434.46767099999124,434.46767099999124,437.38473320001503,Scenes\185b.jpg,post,n,2.9114480999996886,None,,,,,,,,00067,001,2026-01-25_15h37.10.370,MST_test,2024.2.0,60.023901517902125,2026-01-25 15h37.18.133594 +0530,
118,0,119,o,0.9541108999983408,None,119,0,118,437.40044709999347,,,,,,,,,,,,,,,,,,,,,,,,,,,,,,,,,,,,,,,,,,,,,,,,,,437.38482580002164,437.40044709999347,437.905098200019,437.88412770000286,437.90292129997397,437.905098200019,437.905098200019,437.905098200019,438.8677569999709,Scenes\003a.jpg,post,o,0.9541108999983408,None,,,,,,,,00067,001,2026-01-25_15h37.10.370,MST_test,2024.2.0,60.023901517902125,2026-01-25 15h37.18.133594 +0530,
119,0,120,o,1.0420966999954544,None,120,0,119,438.8839202999952,,,,,,,,,,,,,,,,,,,,,,,,,,,,,,,,,,,,,,,,,,,,,,,,,,438.86784740001895,438.8839202999952,439.3844344000099,439.36750459996983,439.37743449996924,439.3844344000099,439.3844344000099,439.3844344000099,440.434460999968,Objects\011a.jpg,post,o,1.0420966999954544,None,,,,,,,,00067,001,2026-01-25_15h37.10.370,MST_test,2024.2.0,60.023901517902125,2026-01-25 15h37.18.133594 +0530,
120,0,121,o,2.556098499975633,None,121,0,120,440.4504230999737,,,,,,,,,,,,,,,,,,,,,,,,,,,,,,,,,,,,,,,,,,,,,,,,,,440.43456019996665,440.4504230999737,440.9507769999909,440.9341486999765,440.94396960001905,440.9507769999909,440.9507769999909,440.9507769999909,443.51782710000407,Objects\106b.jpg,mid,o,2.556098499975633,None,,,,,,,,00067,001,2026-01-25_15h37.10.370,MST_test,2024.2.0,60.023901517902125,2026-01-25 15h37.18.133594 +0530,
121,0,122,n,1.1287622000090778,None,122,0,121,443.53398720000405,,,,,,,,,,,,,,,,,,,,,,,,,,,,,,,,,,,,,,,,,,,,,,,,,,443.51792750001187,443.53398720000405,444.0340917999856,444.0176111999899,444.0268115999643,444.0340917999856,444.0340917999856,444.0340917999856,445.1678457999951,Foils\073a.jpg,none,n,1.1287622000090778,None,,,,,,,,00067,001,2026-01-25_15h37.10.370,MST_test,2024.2.0,60.023901517902125,2026-01-25 15h37.18.133594 +0530,
122,0,123,o,0.7343471000203863,None,123,0,122,445.18391829996835,,,,,,,,,,,,,,,,,,,,,,,,,,,,,,,,,,,,,,,,,,,,,,,,,,445.16793469997356,445.18391829996835,445.6844011999783,445.66756089997943,445.68241429998307,445.6844011999783,445.6844011999783,445.6844011999783,446.43453379999846,Scenes\121b.jpg,post,o,0.7343471000203863,None,,,,,,,,00067,001,2026-01-25_15h37.10.370,MST_test,2024.2.0,60.023901517902125,2026-01-25 15h37.18.133594 +0530,
123,0,124,n,6.123477499990258,None,124,0,123,446.4504924999783,,,,,,,,,,,,,,,,,,,,,,,,,,,,,,,,,,,,,,,,,,,,,,,,,,446.4346351000131,446.4504924999783,446.95088509999914,446.9340938999667,446.94367379997857,446.95088509999914,446.95088509999914,446.95088509999914,453.0845835999935,Objects\175a.jpg,mid,n,6.123477499990258,None,,,,,,,,00067,001,2026-01-25_15h37.10.370,MST_test,2024.2.0,60.023901517902125,2026-01-25 15h37.18.133594 +0530,
124,0,125,n,2.6345113000134006,None,125,0,124,453.10052199999336,,,,,,,,,,,,,,,,,,,,,,,,,,,,,,,,,,,,,,,,,,,,,,,,,,453.08467919996474,453.10052199999336,453.60077069996623,453.5842823999701,453.5940700999927,453.60077069996623,453.60077069996623,453.60077069996623,456.2509047000203,Foils\065a.jpg,none,n,2.6345113000134006,None,,,,,,,,00067,001,2026-01-25_15h37.10.370,MST_test,2024.2.0,60.023901517902125,2026-01-25 15h37.18.133594 +0530,
125,0,126,o,3.411603600019589,None,126,0,125,456.2672792999656,,,,,,,,,,,,,,,,,,,,,,,,,,,,,,,,,,,,,,,,,,,,,,,,,,456.25099440000486,456.2672792999656,456.7675583999953,456.7506900000153,456.75953290000325,456.7675583999953,456.7675583999953,456.7675583999953,460.1845052000135,Objects\147a.jpg,post,o,3.411603600019589,None,,,,,,,,00067,001,2026-01-25_15h37.10.370,MST_test,2024.2.0,60.023901517902125,2026-01-25 15h37.18.133594 +0530,
126,0,127,o,1.0936527000158094,None,127,0,126,460.20052329998,,,,,,,,,,,,,,,,,,,,,,,,,,,,,,,,,,,,,,,,,,,,,,,,,,460.18459309998434,460.20052329998,460.70062449999386,460.6841559999739,460.6940622999682,460.70062449999386,460.70062449999386,460.70062449999386,461.800982100016,Objects\092b.jpg,post,o,1.0936527000158094,None,,,,,,,,00067,001,2026-01-25_15h37.10.370,MST_test,2024.2.0,60.023901517902125,2026-01-25 15h37.18.133594 +0530,
127,0,128,n,3.9163174999994226,None,128,0,127,461.81822080002166,,,,,,,,,,,,,,,,,,,,,,,,,,,,,,,,,,,,,,,,,,,,,,,,,,461.8010691999807,461.81822080002166,,462.31734810001217,462.32626260002144,462.3341755999718,462.3341755999718,462.3341755999718,466.251189099974,Foils\082a.jpg,none,n,3.9163174999994226,None,,,,,,,,00067,001,2026-01-25_15h37.10.370,MST_test,2024.2.0,60.023901517902125,2026-01-25 15h37.18.133594 +0530,
128,0,129,o,1.971015500021167,None,129,0,128,466.26724969997304,,,,,,,,,,,,,,,,,,,,,,,,,,,,,,,,,,,,,,,,,,,,,,,,,,466.25127770000836,466.26724969997304,466.76777849998325,466.75073769997107,466.76525280001806,466.76777849998325,466.76777849998325,466.76777849998325,468.75104000000283,Scenes\147b.jpg,post,o,1.971015500021167,None,,,,,,,,00067,001,2026-01-25_15h37.10.370,MST_test,2024.2.0,60.023901517902125,2026-01-25 15h37.18.133594 +0530,
129,0,130,s,1.611535800038837,None,130,0,129,468.76721680001356,,,,,,,,,,,,,,,,,,,,,,,,,,,,,,,,,,,,,,,,,,,,,,,,,,468.751130699995,468.76721680001356,469.2717464999878,469.2507589000161,469.2695251000114,469.2717464999878,469.2717464999878,469.2717464999878,470.88459470000817,Scenes\165b.jpg,post,s,1.611535800038837,None,,,,,,,,00067,001,2026-01-25_15h37.10.370,MST_test,2024.2.0,60.023901517902125,2026-01-25 15h37.18.133594 +0530,
130,0,131,o,1.0100096999667585,None,131,0,130,470.9005046999664,,,,,,,,,,,,,,,,,,,,,,,,,,,,,,,,,,,,,,,,,,,,,,,,,,470.884688799968,470.9005046999664,471.40103629999794,471.3841632999829,471.3877088999725,471.40103629999794,471.40103629999794,471.40103629999794,472.4177764999913,Foils\scenes8.jpg,none,o,1.0100096999667585,None,,,,,,,,00067,001,2026-01-25_15h37.10.370,MST_test,2024.2.0,60.023901517902125,2026-01-25 15h37.18.133594 +0530,
131,0,132,o,1.875217300024815,None,132,0,131,472.43384670000523,,,,,,,,,,,,,,,,,,,,,,,,,,,,,,,,,,,,,,,,,,,,,,,,,,472.4178649999667,472.43384670000523,472.9358882000088,472.9174233999802,472.9336580999661,472.9358882000088,472.9358882000088,472.9358882000088,474.81785320001654,Scenes\101a.jpg,mid,o,1.875217300024815,None,,,,,,,,00067,001,2026-01-25_15h37.10.370,MST_test,2024.2.0,60.023901517902125,2026-01-25 15h37.18.133594 +0530,
132,0,133,o,1.0610382000450045,None,133,0,132,474.8339167999802,,,,,,,,,,,,,,,,,,,,,,,,,,,,,,,,,,,,,,,,,,,,,,,,,,474.8179447000148,474.8339167999802,475.334398099978,475.31750619999366,475.32830669998657,475.334398099978,475.334398099978,475.334398099978,476.40093459998025,Objects\136b.jpg,pre,o,1.0610382000450045,None,,,,,,,,00067,001,2026-01-25_15h37.10.370,MST_test,2024.2.0,60.023901517902125,2026-01-25 15h37.18.133594 +0530,
133,0,134,s,1.5522136999643408,None,134,0,133,476.4172347999993,,,,,,,,,,,,,,,,,,,,,,,,,,,,,,,,,,,,,,,,,,,,,,,,,,476.40102310001384,476.4172347999993,476.92271700000856,476.90074469998945,476.92069399997126,476.92271700000856,476.92271700000856,476.92271700000856,478.48445380001795,Scenes\032b.jpg,pre,s,1.5522136999643408,None,,,,,,,,00067,001,2026-01-25_15h37.10.370,MST_test,2024.2.0,60.023901517902125,2026-01-25 15h37.18.133594 +0530,
134,0,135,o,2.1301504999864846,None,135,0,134,478.50052040000446,,,,,,,,,,,,,,,,,,,,,,,,,,,,,,,,,,,,,,,,,,,,,,,,,,478.48454769997625,478.50052040000446,479.001459799998,478.9842700000154,478.9992555999779,479.001459799998,479.001459799998,479.001459799998,481.13474249996943,Scenes\191a.jpg,post,o,2.1301504999864846,None,,,,,,,,00067,001,2026-01-25_15h37.10.370,MST_test,2024.2.0,60.023901517902125,2026-01-25 15h37.18.133594 +0530,
135,0,136,o,1.064109200029634,None,136,0,135,481.1507104000193,,,,,,,,,,,,,,,,,,,,,,,,,,,,,,,,,,,,,,,,,,,,,,,,,,481.1348441999871,481.1507104000193,481.6510795999784,481.6342194000026,481.6443734000204,481.6510795999784,481.6510795999784,481.6510795999784,482.7177888000151,Foils\066a.jpg,none,o,1.064109200029634,None,,,,,,,,00067,001,2026-01-25_15h37.10.370,MST_test,2024.2.0,60.023901517902125,2026-01-25 15h37.18.133594 +0530,
136,0,137,o,1.0131122000166215,None,137,0,136,482.73393549997127,,,,,,,,,,,,,,,,,,,,,,,,,,,,,,,,,,,,,,,,,,,,,,,,,,482.717879600008,482.73393549997127,483.2374880000134,483.217581600009,483.23530419997405,483.2374880000134,483.2374880000134,483.2374880000134,484.2515451000072,Scenes\130a.jpg,mid,o,1.0131122000166215,None,,,,,,,,00067,001,2026-01-25_15h37.10.370,MST_test,2024.2.0,60.023901517902125,2026-01-25 15h37.18.133594 +0530,
137,0,138,o,2.8429439999745227,None,138,0,137,484.26736220001476,,,,,,,,,,,,,,,,,,,,,,,,,,,,,,,,,,,,,,,,,,,,,,,,,,484.2516415999853,484.26736220001476,484.7680013999925,484.7509447999764,484.7606550999917,484.7680013999925,484.7680013999925,484.7680013999925,487.6179319000221,Objects\126b.jpg,post,o,2.8429439999745227,None,,,,,,,,00067,001,2026-01-25_15h37.10.370,MST_test,2024.2.0,60.023901517902125,2026-01-25 15h37.18.133594 +0530,
138,0,139,o,2.2601432999945246,None,139,0,138,487.63398909999523,,,,,,,,,,,,,,,,,,,,,,,,,,,,,,,,,,,,,,,,,,,,,,,,,,487.618020599999,487.63398909999523,488.13446119998116,488.1176834999933,488.13177899998846,488.13446119998116,488.13446119998116,488.13446119998116,490.40115920000244,Scenes\071b.jpg,mid,o,2.2601432999945246,None,,,,,,,,00067,001,2026-01-25_15h37.10.370,MST_test,2024.2.0,60.023901517902125,2026-01-25 15h37.18.133594 +0530,
139,0,140,s,1.7409298999700695,None,140,0,139,490.4173831999651,,,,,,,,,,,,,,,,,,,,,,,,,,,,,,,,,,,,,,,,,,,,,,,,,,490.40124889998697,490.4173831999651,490.9178002999979,490.9008425999782,490.9106452999986,490.9178002999979,490.9178002999979,490.9178002999979,492.6679460000014,Objects\161a.jpg,post,s,1.7409298999700695,None,,,,,,,,00067,001,2026-01-25_15h37.10.370,MST_test,2024.2.0,60.023901517902125,2026-01-25 15h37.18.133594 +0530,
140,0,141,n,2.1057716000359505,None,141,0,140,492.6839442999917,,,,,,,,,,,,,,,,,,,,,,,,,,,,,,,,,,,,,,,,,,,,,,,,,,492.66803509998135,492.6839442999917,493.18448469997384,493.16757869999856,493.176633999974,493.18448469997384,493.18448469997384,493.18448469997384,495.3013160999981,Foils\scenes20.jpg,none,n,2.1057716000359505,None,,,,,,,,00067,001,2026-01-25_15h37.10.370,MST_test,2024.2.0,60.023901517902125,2026-01-25 15h37.18.133594 +0530,
141,0,142,o,2.343010200012941,None,142,0,141,495.3173308999976,,,,,,,,,,,,,,,,,,,,,,,,,,,,,,,,,,,,,,,,,,,,,,,,,,495.301407299994,495.3173308999976,495.8194209000212,495.80091459996765,495.8173078999971,495.8194209000212,495.8194209000212,495.8194209000212,498.1679746999871,Scenes\063a.jpg,post,o,2.343010200012941,None,,,,,,,,00067,001,2026-01-25_15h37.10.370,MST_test,2024.2.0,60.023901517902125,2026-01-25 15h37.18.133594 +0530,
142,0,143,o,2.291770500014536,None,143,0,142,498.1840272999834,,,,,,,,,,,,,,,,,,,,,,,,,,,,,,,,,,,,,,,,,,,,,,,,,,498.16806489997543,498.1840272999834,498.68650269997306,498.6676040000166,498.6842540000216,498.68650269997306,498.68650269997306,498.68650269997306,500.9846311999718,Scenes\050a.jpg,pre,o,2.291770500014536,None,,,,,,,,00067,001,2026-01-25_15h37.10.370,MST_test,2024.2.0,60.023901517902125,2026-01-25 15h37.18.133594 +0530,
143,0,144,n,1.0747599000460468,None,144,0,143,501.00053030002164,,,,,,,,,,,,,,,,,,,,,,,,,,,,,,,,,,,,,,,,,,,,,,,,,,500.98472619999666,501.00053030002164,501.57596809999086,501.48424580000574,501.572792699968,501.57596809999086,501.57596809999086,501.57596809999086,502.6514906999655,Foils\scenes25.jpg,none,n,1.0747599000460468,None,,,,,,,,00067,001,2026-01-25_15h37.10.370,MST_test,2024.2.0,60.023901517902125,2026-01-25 15h37.18.133594 +0530,
144,0,145,o,1.4502750000101514,None,145,0,144,502.6672836000216,,,,,,,,,,,,,,,,,,,,,,,,,,,,,,,,,,,,,,,,,,,,,,,,,,502.6515802000067,502.6672836000216,503.1689485000097,503.1509890999878,503.16563750000205,503.1689485000097,503.1689485000097,503.1689485000097,504.63454499997897,Objects\169a.jpg,pre,o,1.4502750000101514,None,,,,,,,,00067,001,2026-01-25_15h37.10.370,MST_test,2024.2.0,60.023901517902125,2026-01-25 15h37.18.133594 +0530,
145,0,146,n,1.0437563000014052,None,146,0,145,504.65048650000244,,,,,,,,,,,,,,,,,,,,,,,,,,,,,,,,,,,,,,,,,,,,,,,,,,504.63464230002137,504.65048650000244,505.15107039996656,505.1343091999879,505.14346019999357,505.15107039996656,505.15107039996656,505.15107039996656,506.20120850001695,Foils\scenes12.jpg,none,n,1.0437563000014052,None,,,,,,,,00067,001,2026-01-25_15h37.10.370,MST_test,2024.2.0,60.023901517902125,2026-01-25 15h37.18.133594 +0530,
146,0,147,o,2.9725882000057027,None,147,0,146,506.21736489998875,,,,,,,,,,,,,,,,,,,,,,,,,,,,,,,,,,,,,,,,,,,,,,,,,,506.201298400003,506.21736489998875,506.71759879996534,506.70088349998696,506.71085380000295,506.71759879996534,506.71759879996534,506.71759879996534,509.7012949999771,Objects\152b.jpg,pre,o,2.9725882000057027,None,,,,,,,,00067,001,2026-01-25_15h37.10.370,MST_test,2024.2.0,60.023901517902125,2026-01-25 15h37.18.133594 +0530,
147,0,148,o,0.9378961999900639,None,148,0,147,509.71730999997817,,,,,,,,,,,,,,,,,,,,,,,,,,,,,,,,,,,,,,,,,,,,,,,,,,509.70138340000995,509.71730999997817,510.2175264999969,510.2009110999643,510.2098976999987,510.2175264999969,510.2175264999969,510.2175264999969,511.16805889998795,Objects\058a.jpg,mid,o,0.9378961999900639,None,,,,,,,,00067,001,2026-01-25_15h37.10.370,MST_test,2024.2.0,60.023901517902125,2026-01-25 15h37.18.133594 +0530,
148,0,149,s,1.7025033999816515,None,149,0,148,511.18408749997616,,,,,,,,,,,,,,,,,,,,,,,,,,,,,,,,,,,,,,,,,,,,,,,,,,511.16815779998433,511.18408749997616,511.68418039998505,511.667624099995,511.6762662999681,511.68418039998505,511.68418039998505,511.68418039998505,513.4011407999787,Objects\025a.jpg,post,s,1.7025033999816515,None,,,,,,,,00067,001,2026-01-25_15h37.10.370,MST_test,2024.2.0,60.023901517902125,2026-01-25 15h37.18.133594 +0530,
149,0,150,s,4.01308980002068,None,150,0,149,513.4173596000182,,,,,,,,,,,,,,,,,,,,,,,,,,,,,,,,,,,,,,,,,,,,,,,,,,513.40123030002,513.4173596000182,513.9178575999686,513.9008740999852,513.9156068000011,513.9178575999686,513.9178575999686,513.9178575999686,517.9344898000127,Scenes\018b.jpg,post,s,4.01308980002068,None,,,,,,,,00067,001,2026-01-25_15h37.10.370,MST_test,2024.2.0,60.023901517902125,2026-01-25 15h37.18.133594 +0530,
,,,,,,,,,,,,,,,,,,,,,,,,,,,,,,,,,,,,,,,,,,,,,,,,,,,,,,,,,,,,,,,,,,,,,,,,,517.93455299997,517.9508637000108,517.9508637000108,520.0678448000108,space,2.1157244000351056,None,00067,001,2026-01-25_15h37.10.370,MST_test,2024.2.0,60.023901517902125,2026-01-25 15h37.18.133594 +0530,
