Sl_no,image_path,thisN,thisTrialN,thisRepN,key_resp_5.keys,key_resp_7.keys,key_resp_7.rt,key_resp_7.duration,key_resp_5.rt,key_resp_5.duration,key_resp_9.keys,key_resp_9.rt,key_resp_9.duration,key_resp_8.keys,practice.thisRepN,practice.thisTrialN,practice.thisN,trials.thisRepN,trials.thisTrialN,trials.thisN,thisRow.t,notes,welcome_page.started,text.started,key_resp.started,welcome_page.stopped,key_resp.keys,key_resp.rt,key_resp.duration,instructions.started,ins.started,key_resp_2.started,instructions.stopped,key_resp_2.keys,key_resp_2.rt,key_resp_2.duration,instructions_2.started,text_10.started,key_resp_10.started,instructions_2.stopped,key_resp_10.keys,key_resp_10.rt,key_resp_10.duration,objects_only_instruction.started,text_3.started,key_resp_3.started,objects_only_instruction.stopped,key_resp_3.keys,key_resp_3.rt,key_resp_3.duration,ISI.started,text_4.started,ISI.stopped,practice_block.started,image.started,text_5.started,key_resp_5.started,practice_block.stopped,practice.key_resp_5.keys,indoor_outdoor.started,text_7.started,key_resp_7.started,indoor_outdoor.stopped,practice.key_resp_7.keys,practice.key_resp_7.rt,practice.key_resp_7.duration,text_4.stopped,practice.key_resp_5.rt,practice.key_resp_5.duration,practice_to_main.started,text_2.started,key_resp_4.started,practice_to_main.stopped,key_resp_4.keys,key_resp_4.rt,key_resp_4.duration,objects.started,image_2.started,text_9.started,key_resp_9.started,objects.stopped,trials.key_resp_9.keys,trials.key_resp_9.rt,trials.key_resp_9.duration,encoding_task.started,encoding_task.stopped,trials.key_resp_8.keys,end_experiment.started,text_6.started,list_of_stimuli,key_resp_6.started,participant,session,date,expName,psychopyVersion,frameRate,expStart
,,,,,,,,,,,,,,,,,,,,,,,0.0019317,0.0038073,0.0038073,14.0754745,space,14.0664797,None,,,,,,,,,,,,,,,,,,,,,,,,,,,,,,,,,,,,,,,,,,,,,,,,,,,,,,,,,,,,,,,60,1,2026-01-19_16h09.40.790,MST_task,2024.2.0,59.99710814,2026-01-19 16h09.55.420326 +0530
,,,,,,,,,,,,,,,,,,,,,,,,,,,,,,14.0755389,14.0935344,14.0935344,26.272321,space,12.1766951,None,,,,,,,,,,,,,,,,,,,,,,,,,,,,,,,,,,,,,,,,,,,,,,,,,,,,,,,,60,1,2026-01-19_16h09.40.790,MST_task,2024.2.0,59.99710814,2026-01-19 16h09.55.420326 +0530
,,,,,,,,,,,,,,,,,,,,,,,,,,,,,,,,,,,,,26.2723999,26.2866885,26.2866885,40.7539988,space,14.4650393,None,,,,,,,,,,,,,,,,,,,,,,,,,,,,,,,,,,,,,,,,,,,,,,,,,60,1,2026-01-19_16h09.40.790,MST_task,2024.2.0,59.99710814,2026-01-19 16h09.55.420326 +0530
,,,,,,,,,,,,,,,,,,,,,,,,,,,,,,,,,,,,,,,,,,,,40.754071,40.769486,40.769486,62.8046899,space,22.020005,None,,,,,,,,,,,,,,,,,,,,,,,,,,,,,,,,,,,,,,,,,,60,1,2026-01-19_16h09.40.790,MST_task,2024.2.0,59.99710814,2026-01-19 16h09.55.420326 +0530
9,practice_images/180a.jpg,0,0,1,None,j,3.4682791,None,,,,,,,1,0,0,,,,62.8415548,,,,,,,,,,,,,,,,,,,,,,,,,,,,,,62.8388276,62.8415548,63.3207355,63.3605465,63.3938817,63.3938817,63.3938817,66.3203392,None,66.3239635,66.3375678,66.3375678,69.8215138,j,3.4682791,None,,,,,,,,,,,,,,,,,,,,,,,,,,60,1,2026-01-19_16h09.40.790,MST_task,2024.2.0,59.99710814,2026-01-19 16h09.55.420326 +0530
2,practice_images/031a.jpg,1,1,1,f,None,,,1.965229,0.1447753,,,,,1,1,1,,,,69.8371134,,,,,,,,,,,,,,,,,,,,,,,,,,,,,,69.8218299,69.8371134,70.3214475,70.350253,70.3528976,70.3528976,70.3528976,73.3367373,f,73.336892,,,73.3369351,None,,,70.3528976,1.965229,0.1447753,,,,,,,,,,,,,,,,,,,,,,,60,1,2026-01-19_16h09.40.790,MST_task,2024.2.0,59.99710814,2026-01-19 16h09.55.420326 +0530
5,practice_images/139a.jpg,2,2,1,f,None,,,1.9236009,0.1843179,,,,,1,2,2,,,,73.3531583,,,,,,,,,,,,,,,,,,,,,,,,,,,,,,73.3371377,73.3531583,73.8375024,73.8716368,73.8749023,73.8749023,73.8749023,76.8534171,f,76.8535689,,,76.8536344,None,,,73.8749023,1.9236009,0.1843179,,,,,,,,,,,,,,,,,,,,,,,60,1,2026-01-19_16h09.40.790,MST_task,2024.2.0,59.99710814,2026-01-19 16h09.55.420326 +0530
6,practice_images/158a.jpg,3,3,1,j,None,,,1.3544035,0.1439586,,,,,1,3,3,,,,76.8697955,,,,,,,,,,,,,,,,,,,,,,,,,,,,,,76.8539455,76.8697955,77.3538796,77.4082939,77.4117706,77.4117706,77.4117706,80.3698902,j,80.3700034,,,80.3700595,None,,,77.4117706,1.3544035,0.1439586,,,,,,,,,,,,,,,,,,,,,,,60,1,2026-01-19_16h09.40.790,MST_task,2024.2.0,59.99710814,2026-01-19 16h09.55.420326 +0530
7,practice_images/166a.jpg,4,4,1,f,None,,,1.5016,0.0797961,,,,,1,4,4,,,,80.3863771,,,,,,,,,,,,,,,,,,,,,,,,,,,,,,80.3702771,80.3863771,80.8706847,80.8855667,80.8885082,80.8885082,80.8885082,83.8867379,f,83.8868576,,,83.8869077,None,,,80.8885082,1.5016,0.0797961,,,,,,,,,,,,,,,,,,,,,,,60,1,2026-01-19_16h09.40.790,MST_task,2024.2.0,59.99710814,2026-01-19 16h09.55.420326 +0530
3,practice_images/037a.jpg,5,5,1,f,None,,,1.1428186,0.0711898,,,,,1,5,5,,,,83.9029815,,,,,,,,,,,,,,,,,,,,,,,,,,,,,,83.8871392,83.9029815,84.3875397,84.4218211,84.4239813,84.4239813,84.4239813,87.4032591,f,87.4071208,,,87.4071526,None,,,84.4239813,1.1428186,0.0711898,,,,,,,,,,,,,,,,,,,,,,,60,1,2026-01-19_16h09.40.790,MST_task,2024.2.0,59.99710814,2026-01-19 16h09.55.420326 +0530
4,practice_images/002b.jpg,6,6,1,None,j,0.3421541,None,,,,,,,1,6,6,,,,87.4195123,,,,,,,,,,,,,,,,,,,,,,,,,,,,,,87.4072758,87.4195123,87.9043669,87.9420497,87.9444452,87.9444452,87.9444452,90.9198701,None,90.9200021,90.9363317,90.9363317,91.2887711,j,0.3421541,None,87.9444452,,,,,,,,,,,,,,,,,,,,,,,,,60,1,2026-01-19_16h09.40.790,MST_task,2024.2.0,59.99710814,2026-01-19 16h09.55.420326 +0530
1,practice_images/013a.jpg,7,7,1,j,None,,,1.2102961,0.0960429,,,,,1,7,7,,,,91.3032599,,,,,,,,,,,,,,,,,,,,,,,,,,,,,,91.2890691,91.3032599,91.7874945,91.8168675,91.8202586,91.8202586,91.8202586,94.8035809,j,94.8037412,,,94.8038094,None,,,91.8202586,1.2102961,0.0960429,,,,,,,,,,,,,,,,,,,,,,,60,1,2026-01-19_16h09.40.790,MST_task,2024.2.0,59.99710814,2026-01-19 16h09.55.420326 +0530
10,practice_images/182a.jpg,8,8,1,f,None,,,1.2642819,0.0798956,,,,,1,8,8,,,,94.8195977,,,,,,,,,,,,,,,,,,,,,,,,,,,,,,94.8040423,94.8195977,95.3041604,95.347098,95.350541,95.350541,95.350541,98.319997,f,98.3201671,,,98.3202321,None,,,95.350541,1.2642819,0.0798956,,,,,,,,,,,,,,,,,,,,,,,60,1,2026-01-19_16h09.40.790,MST_task,2024.2.0,59.99710814,2026-01-19 16h09.55.420326 +0530
8,practice_images/178a.jpg,9,9,1,f,None,,,1.1115085,0.0950189,,,,,1,9,9,,,,98.3364722,,,,,,,,,,,,,,,,,,,,,,,,,,,,,,98.3205408,98.3364722,98.8206498,98.8367178,98.8394329,98.8394329,98.8394329,101.83681,f,101.8369206,,,101.8369668,None,,,98.8394329,1.1115085,0.0950189,,,,,,,,,,,,,,,,,,,,,,,60,1,2026-01-19_16h09.40.790,MST_task,2024.2.0,59.99710814,2026-01-19 16h09.55.420326 +0530
,,,,,,,,,,,,,,,,,,,,,,,,,,,,,,,,,,,,,,,,,,,,,,,,,,,,,,,,,,,,,,,,,,,,,,101.837106,101.8528461,101.8528461,139.3548637,space,37.4969373,None,,,,,,,,,,,,,,,,60,1,2026-01-19_16h09.40.790,MST_task,2024.2.0,59.99710814,2026-01-19 16h09.55.420326 +0530
,Scenes\070a.jpg,0,0,1,,,,,,,j,1.2656986,0.112404,None,,,,1,0,0,139.3695204,,,,,,,,,,,,,,,,,,,,,,,,,,,,,,139.3563428,139.3695204,139.85423,,,,,,,,,,,,,,139.93261,,,,,,,,,,139.9287926,139.93261,139.93261,139.93261,142.8704305,j,1.2656986,0.112404,142.8761377,142.8761988,None,,,,,60,1,2026-01-19_16h09.40.790,MST_task,2024.2.0,59.99710814,2026-01-19 16h09.55.420326 +0530
,Scenes\043a.jpg,1,0,2,,,,,,,j,1.7327362,0.1521863,None,,,,2,0,1,142.8863357,,,,,,,,,,,,,,,,,,,,,,,,,,,,,,142.8765293,142.8863357,143.3706968,,,,,,,,,,,,,,143.4415227,,,,,,,,,,143.4383233,143.4415227,143.4415227,143.4415227,146.3867422,j,1.7327362,0.1521863,146.3869238,146.3869884,None,,,,,60,1,2026-01-19_16h09.40.790,MST_task,2024.2.0,59.99710814,2026-01-19 16h09.55.420326 +0530
,Scenes\114a.jpg,2,0,3,,,,,,,f,0.7669421,0.1358601,None,,,,3,0,2,146.403034,,,,,,,,,,,,,,,,,,,,,,,,,,,,,,146.3872951,146.403034,146.8873654,,,,,,,,,,,,,,146.9829626,,,,,,,,,,146.9802511,146.9829626,146.9829626,146.9829626,149.9033144,f,0.7669421,0.1358601,149.9034501,149.9035108,None,,,,,60,1,2026-01-19_16h09.40.790,MST_task,2024.2.0,59.99710814,2026-01-19 16h09.55.420326 +0530
,Scenes\020a.jpg,3,0,4,,,,,,,j,1.0529023,0.1757674,None,,,,4,0,3,149.9196008,,,,,,,,,,,,,,,,,,,,,,,,,,,,,,149.9038443,149.9196008,150.4046243,,,,,,,,,,,,,,150.5047179,,,,,,,,,,150.5017083,150.5047179,150.5047179,150.5047179,153.4203825,j,1.0529023,0.1757674,153.4205556,153.4206188,None,,,,,60,1,2026-01-19_16h09.40.790,MST_task,2024.2.0,59.99710814,2026-01-19 16h09.55.420326 +0530
,Scenes\121a.jpg,4,0,5,,,,,,,j,1.3391196,0.1675618,None,,,,5,0,4,153.4363017,,,,,,,,,,,,,,,,,,,,,,,,,,,,,,153.4209696,153.4363017,153.920771,,,,,,,,,,,,,,153.9875149,,,,,,,,,,153.9836593,153.9875149,153.9875149,153.9875149,156.9366904,j,1.3391196,0.1675618,156.936811,156.9368528,None,,,,,60,1,2026-01-19_16h09.40.790,MST_task,2024.2.0,59.99710814,2026-01-19 16h09.55.420326 +0530
,Scenes\023a.jpg,5,0,6,,,,,,,f,1.3901432,0.1669145,None,,,,6,0,5,156.9545755,,,,,,,,,,,,,,,,,,,,,,,,,,,,,,156.9371434,156.9545755,157.453385,,,,,,,,,,,,,,,,,,,,,,,,157.533586,157.5368997,157.5368997,157.5368997,160.4534246,f,1.3901432,0.1669145,160.4535979,160.4536613,None,,,,,60,1,2026-01-19_16h09.40.790,MST_task,2024.2.0,59.99710814,2026-01-19 16h09.55.420326 +0530
,Scenes\080a.jpg,6,0,7,,,,,,,j,1.2681065,0.1680171,None,,,,7,0,6,160.4697378,,,,,,,,,,,,,,,,,,,,,,,,,,,,,,160.4540959,160.4697378,160.9540159,,,,,,,,,,,,,,161.0266207,,,,,,,,,,161.0227192,161.0266207,161.0266207,161.0266207,163.9711416,j,1.2681065,0.1680171,163.9713165,163.9713876,None,,,,,60,1,2026-01-19_16h09.40.790,MST_task,2024.2.0,59.99710814,2026-01-19 16h09.55.420326 +0530
,Objects\161a.jpg,7,0,8,,,,,,,f,0.6451435,0.1521294,None,,,,8,0,7,163.9862562,,,,,,,,,,,,,,,,,,,,,,,,,,,,,,163.9718197,163.9862562,164.470701,,,,,,,,,,,,,,164.5455906,,,,,,,,,,164.5426302,164.5455906,164.5455906,164.5455906,167.4869622,f,0.6451435,0.1521294,167.4941348,167.4941643,None,,,,,60,1,2026-01-19_16h09.40.790,MST_task,2024.2.0,59.99710814,2026-01-19 16h09.55.420326 +0530
,Objects\021a.jpg,8,0,9,,,,,,,f,1.0142853,0.1678854,None,,,,9,0,8,167.5027925,,,,,,,,,,,,,,,,,,,,,,,,,,,,,,167.4942769,167.5027925,167.9875144,,,,,,,,,,,,,,168.0160196,,,,,,,,,,168.0125501,168.0160196,168.0160196,168.0160196,171.0032939,f,1.0142853,0.1678854,171.0034843,171.0035483,None,,,,,60,1,2026-01-19_16h09.40.790,MST_task,2024.2.0,59.99710814,2026-01-19 16h09.55.420326 +0530
,Objects\060a.jpg,9,0,10,,,,,,,f,0.7810718,0.1516896,None,,,,10,0,9,171.0195484,,,,,,,,,,,,,,,,,,,,,,,,,,,,,,171.0038717,171.0195484,171.5040997,,,,,,,,,,,,,,171.5454907,,,,,,,,,,171.54247,171.5454907,171.5454907,171.5454907,174.5199625,f,0.7810718,0.1516896,174.5201487,174.52021,None,,,,,60,1,2026-01-19_16h09.40.790,MST_task,2024.2.0,59.99710814,2026-01-19 16h09.55.420326 +0530
,Objects\174a.jpg,10,0,11,,,,,,,f,0.8358091,0.1668433,None,,,,11,0,10,174.5364746,,,,,,,,,,,,,,,,,,,,,,,,,,,,,,174.5204678,174.5364746,175.0210448,,,,,,,,,,,,,,175.0588239,,,,,,,,,,175.0555879,175.0588239,175.0588239,175.0588239,178.0372141,f,0.8358091,0.1668433,178.0373329,178.0373728,None,,,,,60,1,2026-01-19_16h09.40.790,MST_task,2024.2.0,59.99710814,2026-01-19 16h09.55.420326 +0530
,Objects\139a.jpg,11,0,12,,,,,,,f,0.7084326,0.1686834,None,,,,12,0,11,178.053003,,,,,,,,,,,,,,,,,,,,,,,,,,,,,,178.0376631,178.053003,178.5380968,,,,,,,,,,,,,,178.5698006,,,,,,,,,,178.5666174,178.5698006,178.5698006,178.5698006,181.5534956,f,0.7084326,0.1686834,181.5536649,181.5537063,None,,,,,60,1,2026-01-19_16h09.40.790,MST_task,2024.2.0,59.99710814,2026-01-19 16h09.55.420326 +0530
,Objects\011a.jpg,12,0,13,,,,,,,f,1.0298992,0.1590531,None,,,,13,0,12,181.5697125,,,,,,,,,,,,,,,,,,,,,,,,,,,,,,181.553917,181.5697125,182.0541945,,,,,,,,,,,,,,182.0896863,,,,,,,,,,182.0868287,182.0896863,182.0896863,182.0896863,185.0698991,f,1.0298992,0.1590531,185.0700741,185.0701376,None,,,,,60,1,2026-01-19_16h09.40.790,MST_task,2024.2.0,59.99710814,2026-01-19 16h09.55.420326 +0530
,Objects\136a.jpg,13,0,14,,,,,,,f,0.8161749,0.168145,None,,,,14,0,13,185.0869079,,,,,,,,,,,,,,,,,,,,,,,,,,,,,,185.0704344,185.0869079,185.570497,,,,,,,,,,,,,,185.6062105,,,,,,,,,,185.6029384,185.6062105,185.6062105,185.6062105,188.5874306,f,0.8161749,0.168145,188.5876097,188.5876734,None,,,,,60,1,2026-01-19_16h09.40.790,MST_task,2024.2.0,59.99710814,2026-01-19 16h09.55.420326 +0530
,Scenes\040a.jpg,14,0,15,,,,,,,f,1.1581459,0.1851661,None,,,,15,0,14,188.6029815,,,,,,,,,,,,,,,,,,,,,,,,,,,,,,188.5881082,188.6029815,189.0884582,,,,,,,,,,,,,,189.1514695,,,,,,,,,,189.1481641,189.1514695,189.1514695,189.1514695,192.1041921,f,1.1581459,0.1851661,192.1090697,192.1091212,None,,,,,60,1,2026-01-19_16h09.40.790,MST_task,2024.2.0,59.99710814,2026-01-19 16h09.55.420326 +0530
,Scenes\138a.jpg,15,0,16,,,,,,,j,0.889123,0.1440703,None,,,,16,0,15,192.1196186,,,,,,,,,,,,,,,,,,,,,,,,,,,,,,192.1094219,192.1196186,192.6041949,,,,,,,,,,,,,,192.6769956,,,,,,,,,,192.6739075,192.6769956,192.6769956,192.6769956,195.6200579,j,0.889123,0.1440703,195.6201699,195.6202061,None,,,,,60,1,2026-01-19_16h09.40.790,MST_task,2024.2.0,59.99710814,2026-01-19 16h09.55.420326 +0530
,Scenes\166a.jpg,16,0,17,,,,,,,j,1.3196933,0.176362,None,,,,17,0,16,195.6364628,,,,,,,,,,,,,,,,,,,,,,,,,,,,,,195.6204651,195.6364628,196.1210153,,,,,,,,,,,,,,196.1822951,,,,,,,,,,196.1794617,196.1822951,196.1822951,196.1822951,199.1370515,j,1.3196933,0.176362,199.1371877,199.1372345,None,,,,,60,1,2026-01-19_16h09.40.790,MST_task,2024.2.0,59.99710814,2026-01-19 16h09.55.420326 +0530
,Scenes\076a.jpg,17,0,18,,,,,,,j,1.0300338,0.142357,None,,,,18,0,17,199.1529828,,,,,,,,,,,,,,,,,,,,,,,,,,,,,,199.1374746,199.1529828,199.6378249,,,,,,,,,,,,,,199.6971678,,,,,,,,,,199.6936541,199.6971678,199.6971678,199.6971678,202.6540662,j,1.0300338,0.142357,202.6542395,202.6543018,None,,,,,60,1,2026-01-19_16h09.40.790,MST_task,2024.2.0,59.99710814,2026-01-19 16h09.55.420326 +0530
,Scenes\069a.jpg,18,0,19,,,,,,,j,1.0362009,0.1691957,None,,,,19,0,18,202.6697194,,,,,,,,,,,,,,,,,,,,,,,,,,,,,,202.6546406,202.6697194,203.1541856,,,,,,,,,,,,,,203.1932586,,,,,,,,,,203.1896002,203.1932586,203.1932586,203.1932586,206.1700264,j,1.0362009,0.1691957,206.1701892,206.1702276,None,,,,,60,1,2026-01-19_16h09.40.790,MST_task,2024.2.0,59.99710814,2026-01-19 16h09.55.420326 +0530
,Scenes\053a.jpg,19,0,20,,,,,,,j,1.3234193,0.1603113,None,,,,20,0,19,206.1863516,,,,,,,,,,,,,,,,,,,,,,,,,,,,,,206.1705017,206.1863516,206.6706936,,,,,,,,,,,,,,206.6988226,,,,,,,,,,206.695798,206.6988226,206.6988226,206.6988226,209.6868925,j,1.3234193,0.1603113,209.6870708,209.6871342,None,,,,,60,1,2026-01-19_16h09.40.790,MST_task,2024.2.0,59.99710814,2026-01-19 16h09.55.420326 +0530
,Scenes\118a.jpg,20,0,21,,,,,,,j,1.0767732,0.1354653,None,,,,21,0,20,209.7032439,,,,,,,,,,,,,,,,,,,,,,,,,,,,,,209.6875064,209.7032439,210.1874022,,,,,,,,,,,,,,210.249237,,,,,,,,,,210.2462984,210.249237,210.249237,210.249237,213.2033309,j,1.0767732,0.1354653,213.2035244,213.203588,None,,,,,60,1,2026-01-19_16h09.40.790,MST_task,2024.2.0,59.99710814,2026-01-19 16h09.55.420326 +0530
,Objects\022a.jpg,21,0,22,,,,,,,f,0.9869426,0.1275929,None,,,,22,0,21,213.2194149,,,,,,,,,,,,,,,,,,,,,,,,,,,,,,213.2040284,213.2194149,213.7037681,,,,,,,,,,,,,,213.7636178,,,,,,,,,,213.7602836,213.7636178,213.7636178,213.7636178,216.7201613,f,0.9869426,0.1275929,216.7243636,216.7243979,None,,,,,60,1,2026-01-19_16h09.40.790,MST_task,2024.2.0,59.99710814,2026-01-19 16h09.55.420326 +0530
,Objects\175a.jpg,22,0,23,,,,,,,f,0.9272461,0.1684284,None,,,,23,0,22,216.7361954,,,,,,,,,,,,,,,,,,,,,,,,,,,,,,216.7245385,216.7361954,217.2202517,,,,,,,,,,,,,,217.2541171,,,,,,,,,,217.2509917,217.2541171,217.2541171,217.2541171,220.2365682,f,0.9272461,0.1684284,220.2367645,220.2368275,None,,,,,60,1,2026-01-19_16h09.40.790,MST_task,2024.2.0,59.99710814,2026-01-19 16h09.55.420326 +0530
,Objects\162a.jpg,23,0,24,,,,,,,f,0.7825777,0.159631,None,,,,24,0,23,220.254,,,,,,,,,,,,,,,,,,,,,,,,,,,,,,220.2371177,220.254,220.7374692,,,,,,,,,,,,,,220.7678572,,,,,,,,,,220.76526,220.7678572,220.7678572,220.7678572,223.7536323,f,0.7825777,0.159631,223.7538357,223.7539017,None,,,,,60,1,2026-01-19_16h09.40.790,MST_task,2024.2.0,59.99710814,2026-01-19 16h09.55.420326 +0530
,Objects\026a.jpg,24,0,25,,,,,,,f,1.0673513,0.1442636,None,,,,25,0,24,223.7697148,,,,,,,,,,,,,,,,,,,,,,,,,,,,,,223.7542224,223.7697148,224.2541934,,,,,,,,,,,,,,224.2916203,,,,,,,,,,224.2885583,224.2916203,224.2916203,224.2916203,227.2702686,f,1.0673513,0.1442636,227.2703861,227.2704237,None,,,,,60,1,2026-01-19_16h09.40.790,MST_task,2024.2.0,59.99710814,2026-01-19 16h09.55.420326 +0530
,Objects\146a.jpg,25,0,26,,,,,,,f,1.1330192,0.1923347,None,,,,26,0,25,227.2864598,,,,,,,,,,,,,,,,,,,,,,,,,,,,,,227.2707017,227.2864598,227.7711804,,,,,,,,,,,,,,227.8010427,,,,,,,,,,227.7982844,227.8010427,227.8010427,227.8010427,230.7865451,f,1.1330192,0.1923347,230.7867346,230.786807,None,,,,,60,1,2026-01-19_16h09.40.790,MST_task,2024.2.0,59.99710814,2026-01-19 16h09.55.420326 +0530
,Objects\077a.jpg,26,0,27,,,,,,,j,1.4705464,0.1599643,None,,,,27,0,26,230.8027558,,,,,,,,,,,,,,,,,,,,,,,,,,,,,,230.7871105,230.8027558,231.2874807,,,,,,,,,,,,,,231.327813,,,,,,,,,,231.3251314,231.327813,231.327813,231.327813,234.3033561,j,1.4705464,0.1599643,234.3034765,234.3035175,None,,,,,60,1,2026-01-19_16h09.40.790,MST_task,2024.2.0,59.99710814,2026-01-19 16h09.55.420326 +0530
,Objects\052a.jpg,27,0,28,,,,,,,f,0.7460526,0.1595135,None,,,,28,0,27,234.3196676,,,,,,,,,,,,,,,,,,,,,,,,,,,,,,234.3038097,234.3196676,234.8043999,,,,,,,,,,,,,,234.8371124,,,,,,,,,,234.8340183,234.8371124,234.8371124,234.8371124,237.8198489,f,0.7460526,0.1595135,237.8200242,237.8200868,None,,,,,60,1,2026-01-19_16h09.40.790,MST_task,2024.2.0,59.99710814,2026-01-19 16h09.55.420326 +0530
,Scenes\103a.jpg,28,0,29,,,,,,,j,1.0458719,0.1434978,None,,,,29,0,28,237.8361722,,,,,,,,,,,,,,,,,,,,,,,,,,,,,,237.8204173,237.8361722,238.3210531,,,,,,,,,,,,,,238.4005249,,,,,,,,,,238.3962832,238.4005249,238.4005249,238.4005249,241.3367874,j,1.0458719,0.1434978,241.3420641,241.3421262,None,,,,,60,1,2026-01-19_16h09.40.790,MST_task,2024.2.0,59.99710814,2026-01-19 16h09.55.420326 +0530
,Scenes\188a.jpg,29,0,30,,,,,,,j,0.7355583,0.1760948,None,,,,30,0,29,241.3529908,,,,,,,,,,,,,,,,,,,,,,,,,,,,,,241.3422965,241.3529908,241.837649,,,,,,,,,,,,,,241.9183758,,,,,,,,,,241.9149238,241.9183758,241.9183758,241.9183758,244.8533726,j,0.7355583,0.1760948,244.8535139,244.8535634,None,,,,,60,1,2026-01-19_16h09.40.790,MST_task,2024.2.0,59.99710814,2026-01-19 16h09.55.420326 +0530
,Scenes\112a.jpg,30,0,31,,,,,,,j,1.0413683,0.1668486,None,,,,31,0,30,244.8697949,,,,,,,,,,,,,,,,,,,,,,,,,,,,,,244.8538204,244.8697949,245.3540028,,,,,,,,,,,,,,245.4057966,,,,,,,,,,245.402358,245.4057966,245.4057966,245.4057966,248.3701349,j,1.0413683,0.1668486,248.3703114,248.3703757,None,,,,,60,1,2026-01-19_16h09.40.790,MST_task,2024.2.0,59.99710814,2026-01-19 16h09.55.420326 +0530
,Scenes\006a.jpg,31,0,32,,,,,,,j,2.0485511,0.2240219,None,,,,32,0,31,248.3862248,,,,,,,,,,,,,,,,,,,,,,,,,,,,,,248.3707007,248.3862248,248.8700595,,,,,,,,,,,,,,248.9329531,,,,,,,,,,248.9289787,248.9329531,248.9329531,248.9329531,251.8867536,j,2.0485511,0.2240219,251.8869303,251.8869935,None,,,,,60,1,2026-01-19_16h09.40.790,MST_task,2024.2.0,59.99710814,2026-01-19 16h09.55.420326 +0530
,Scenes\136a.jpg,32,0,33,,,,,,,j,1.5125396,0.1910173,None,,,,33,0,32,251.9031069,,,,,,,,,,,,,,,,,,,,,,,,,,,,,,251.8873149,251.9031069,252.387525,,,,,,,,,,,,,,252.4541057,,,,,,,,,,252.4502145,252.4541057,252.4541057,252.4541057,255.4043711,j,1.5125396,0.1910173,255.4045436,255.4046079,None,,,,,60,1,2026-01-19_16h09.40.790,MST_task,2024.2.0,59.99710814,2026-01-19 16h09.55.420326 +0530
,Scenes\150a.jpg,33,0,34,,,,,,,j,1.9298618,0.2070729,None,,,,34,0,33,255.4197131,,,,,,,,,,,,,,,,,,,,,,,,,,,,,,255.4049145,255.4197131,255.9041801,,,,,,,,,,,,,,255.9729821,,,,,,,,,,255.969699,255.9729821,255.9729821,255.9729821,258.9201926,j,1.9298618,0.2070729,258.9203512,258.9203856,None,,,,,60,1,2026-01-19_16h09.40.790,MST_task,2024.2.0,59.99710814,2026-01-19 16h09.55.420326 +0530
,Scenes\101a.jpg,34,0,35,,,,,,,j,1.8099514,0.2165557,None,,,,35,0,34,258.9362367,,,,,,,,,,,,,,,,,,,,,,,,,,,,,,258.9206274,258.9362367,259.4208012,,,,,,,,,,,,,,259.5080377,,,,,,,,,,259.5047356,259.5080377,259.5080377,259.5080377,262.4370003,j,1.8099514,0.2165557,262.4371795,262.4372431,None,,,,,60,1,2026-01-19_16h09.40.790,MST_task,2024.2.0,59.99710814,2026-01-19 16h09.55.420326 +0530
,Objects\172a.jpg,35,0,36,,,,,,,j,1.6522834,0.1750109,None,,,,36,0,35,262.4528924,,,,,,,,,,,,,,,,,,,,,,,,,,,,,,262.4375111,262.4528924,262.9373676,,,,,,,,,,,,,,262.9788306,,,,,,,,,,262.975869,262.9788306,262.9788306,262.9788306,265.9532366,j,1.6522834,0.1750109,265.9585889,265.9586287,None,,,,,60,1,2026-01-19_16h09.40.790,MST_task,2024.2.0,59.99710814,2026-01-19 16h09.55.420326 +0530
,Objects\132a.jpg,36,0,37,,,,,,,f,0.6573845,0.1444233,None,,,,37,0,36,265.9696112,,,,,,,,,,,,,,,,,,,,,,,,,,,,,,265.9588598,265.9696112,266.4540669,,,,,,,,,,,,,,266.49284,,,,,,,,,,266.4898584,266.49284,266.49284,266.49284,269.470047,f,0.6573845,0.1444233,269.4701655,269.4702065,None,,,,,60,1,2026-01-19_16h09.40.790,MST_task,2024.2.0,59.99710814,2026-01-19 16h09.55.420326 +0530
,Objects\083a.jpg,37,0,38,,,,,,,f,0.732071,0.135349,None,,,,38,0,37,269.4866678,,,,,,,,,,,,,,,,,,,,,,,,,,,,,,269.4704947,269.4866678,269.9710597,,,,,,,,,,,,,,270.0025239,,,,,,,,,,270.0000193,270.0025239,270.0025239,270.0025239,272.9710548,f,0.732071,0.135349,272.9711807,272.9712194,None,,,,,60,1,2026-01-19_16h09.40.790,MST_task,2024.2.0,59.99710814,2026-01-19 16h09.55.420326 +0530
,Objects\014a.jpg,38,0,39,,,,,,,f,0.594737,0.1444566,None,,,,39,0,38,272.9863811,,,,,,,,,,,,,,,,,,,,,,,,,,,,,,272.9714431,272.9863811,273.471447,,,,,,,,,,,,,,273.5151586,,,,,,,,,,273.5123245,273.5151586,273.5151586,273.5151586,276.4869469,f,0.594737,0.1444566,276.4871125,276.4871495,None,,,,,60,1,2026-01-19_16h09.40.790,MST_task,2024.2.0,59.99710814,2026-01-19 16h09.55.420326 +0530
,Objects\138a.jpg,39,0,40,,,,,,,j,1.4916729,0.2388417,None,,,,40,0,39,276.5030547,,,,,,,,,,,,,,,,,,,,,,,,,,,,,,276.4874191,276.5030547,276.9877201,,,,,,,,,,,,,,277.0187662,,,,,,,,,,277.0159736,277.0187662,277.0187662,277.0187662,280.0032394,j,1.4916729,0.2388417,280.0033513,280.0033902,None,,,,,60,1,2026-01-19_16h09.40.790,MST_task,2024.2.0,59.99710814,2026-01-19 16h09.55.420326 +0530
,Objects\046a.jpg,40,0,41,,,,,,,f,1.536582,0.1521529,None,,,,41,0,40,280.0202545,,,,,,,,,,,,,,,,,,,,,,,,,,,,,,280.003661,280.0202545,280.5039009,,,,,,,,,,,,,,280.5420383,,,,,,,,,,280.5390441,280.5420383,280.5420383,280.5420383,283.5202416,f,1.536582,0.1521529,283.5204095,283.5204471,None,,,,,60,1,2026-01-19_16h09.40.790,MST_task,2024.2.0,59.99710814,2026-01-19 16h09.55.420326 +0530
,Objects\086a.jpg,41,0,42,,,,,,,j,0.9512932,0.15957,None,,,,42,0,41,283.5363317,,,,,,,,,,,,,,,,,,,,,,,,,,,,,,283.520647,283.5363317,284.0205003,,,,,,,,,,,,,,284.0627859,,,,,,,,,,284.0596586,284.0627859,284.0627859,284.0627859,287.0362586,j,0.9512932,0.15957,287.0363797,287.0364238,None,,,,,60,1,2026-01-19_16h09.40.790,MST_task,2024.2.0,59.99710814,2026-01-19 16h09.55.420326 +0530
,Scenes\004a.jpg,42,0,43,,,,,,,j,0.9077675,0.1676077,None,,,,43,0,42,287.0527028,,,,,,,,,,,,,,,,,,,,,,,,,,,,,,287.0367239,287.0527028,287.5367908,,,,,,,,,,,,,,,,,,,,,,,,287.6073278,287.6105628,287.6105628,287.6105628,290.5368603,j,0.9077675,0.1676077,290.5405796,290.5406247,None,,,,,60,1,2026-01-19_16h09.40.790,MST_task,2024.2.0,59.99710814,2026-01-19 16h09.55.420326 +0530
,Scenes\012a.jpg,43,0,44,,,,,,,j,1.4156404,0.1689251,None,,,,44,0,43,290.5533921,,,,,,,,,,,,,,,,,,,,,,,,,,,,,,290.5408696,290.5533921,291.0373044,,,,,,,,,,,,,,291.1577173,,,,,,,,,,291.1537159,291.1577173,291.1577173,291.1577173,294.0534908,j,1.4156404,0.1689251,294.0536094,294.0536475,None,,,,,60,1,2026-01-19_16h09.40.790,MST_task,2024.2.0,59.99710814,2026-01-19 16h09.55.420326 +0530
,Scenes\096a.jpg,44,0,45,,,,,,,j,0.7646587,0.1775223,None,,,,45,0,44,294.0696928,,,,,,,,,,,,,,,,,,,,,,,,,,,,,,294.0539295,294.0696928,294.5541336,,,,,,,,,,,,,,294.60852,,,,,,,,,,294.6046666,294.60852,294.60852,294.60852,297.5543052,j,0.7646587,0.1775223,297.5544842,297.554563,None,,,,,60,1,2026-01-19_16h09.40.790,MST_task,2024.2.0,59.99710814,2026-01-19 16h09.55.420326 +0530
,Scenes\017a.jpg,45,0,46,,,,,,,f,0.7869305,0.152094,None,,,,46,0,45,297.56961,,,,,,,,,,,,,,,,,,,,,,,,,,,,,,297.5549369,297.56961,298.0540551,,,,,,,,,,,,,,298.1155105,,,,,,,,,,298.1124743,298.1155105,298.1155105,298.1155105,301.0699705,f,0.7869305,0.152094,301.0701294,301.0701651,None,,,,,60,1,2026-01-19_16h09.40.790,MST_task,2024.2.0,59.99710814,2026-01-19 16h09.55.420326 +0530
,Scenes\051a.jpg,46,0,47,,,,,,,j,1.0286845,0.1677872,None,,,,47,0,46,301.0867124,,,,,,,,,,,,,,,,,,,,,,,,,,,,,,301.0704235,301.0867124,301.5710147,,,,,,,,,,,,,,301.6410908,,,,,,,,,,301.6376676,301.6410908,301.6410908,301.6410908,304.5703923,j,1.0286845,0.1677872,304.5705615,304.5706258,None,,,,,60,1,2026-01-19_16h09.40.790,MST_task,2024.2.0,59.99710814,2026-01-19 16h09.55.420326 +0530
,Scenes\159a.jpg,47,0,48,,,,,,,j,0.9841526,0.1433201,None,,,,48,0,47,304.5862917,,,,,,,,,,,,,,,,,,,,,,,,,,,,,,304.5710574,304.5862917,305.0710083,,,,,,,,,,,,,,305.1419659,,,,,,,,,,305.1388731,305.1419659,305.1419659,305.1419659,308.0868425,j,0.9841526,0.1433201,308.0870151,308.0870775,None,,,,,60,1,2026-01-19_16h09.40.790,MST_task,2024.2.0,59.99710814,2026-01-19 16h09.55.420326 +0530
,Scenes\077a.jpg,48,0,49,,,,,,,j,1.1469429,0.1690077,None,,,,49,0,48,308.1030042,,,,,,,,,,,,,,,,,,,,,,,,,,,,,,308.0874651,308.1030042,308.5873865,,,,,,,,,,,,,,308.6505057,,,,,,,,,,308.6472642,308.6505057,308.6505057,308.6505057,311.6033998,j,1.1469429,0.1690077,311.6035154,311.603557,None,,,,,60,1,2026-01-19_16h09.40.790,MST_task,2024.2.0,59.99710814,2026-01-19 16h09.55.420326 +0530
,Objects\016a.jpg,49,0,50,,,,,,,f,1.482565,0.1361911,None,,,,50,0,49,311.6196292,,,,,,,,,,,,,,,,,,,,,,,,,,,,,,311.6038557,311.6196292,312.1041352,,,,,,,,,,,,,,,,,,,,,,,,312.1604772,312.163683,312.163683,312.163683,315.1201017,f,1.482565,0.1361911,315.1253236,315.1253704,None,,,,,60,1,2026-01-19_16h09.40.790,MST_task,2024.2.0,59.99710814,2026-01-19 16h09.55.420326 +0530
,Objects\124a.jpg,50,0,51,,,,,,,j,1.1084952,0.1745703,None,,,,51,0,50,315.1362414,,,,,,,,,,,,,,,,,,,,,,,,,,,,,,315.125658,315.1362414,315.6211101,,,,,,,,,,,,,,315.6742319,,,,,,,,,,315.6708077,315.6742319,315.6742319,315.6742319,318.6368542,j,1.1084952,0.1745703,318.6369655,318.6370039,None,,,,,60,1,2026-01-19_16h09.40.790,MST_task,2024.2.0,59.99710814,2026-01-19 16h09.55.420326 +0530
,Objects\137a.jpg,51,0,52,,,,,,,j,1.0888212,0.1839182,None,,,,52,0,51,318.652917,,,,,,,,,,,,,,,,,,,,,,,,,,,,,,318.6372749,318.652917,319.1374965,,,,,,,,,,,,,,319.1738068,,,,,,,,,,319.1707729,319.1738068,319.1738068,319.1738068,322.1536768,j,1.0888212,0.1839182,322.1538458,322.1538886,None,,,,,60,1,2026-01-19_16h09.40.790,MST_task,2024.2.0,59.99710814,2026-01-19 16h09.55.420326 +0530
,Objects\044a.jpg,52,0,53,,,,,,,f,1.0079297,0.1348258,None,,,,53,0,52,322.1696527,,,,,,,,,,,,,,,,,,,,,,,,,,,,,,322.1541149,322.1696527,322.6540733,,,,,,,,,,,,,,322.6869834,,,,,,,,,,322.684358,322.6869834,322.6869834,322.6869834,325.6699946,f,1.0079297,0.1348258,325.670176,325.6702378,None,,,,,60,1,2026-01-19_16h09.40.790,MST_task,2024.2.0,59.99710814,2026-01-19 16h09.55.420326 +0530
,Objects\034a.jpg,53,0,54,,,,,,,f,0.5728828,0.0952551,None,,,,54,0,53,325.6866102,,,,,,,,,,,,,,,,,,,,,,,,,,,,,,325.670541,325.6866102,326.170728,,,,,,,,,,,,,,326.2094285,,,,,,,,,,326.2059706,326.2094285,326.2094285,326.2094285,329.1704274,f,0.5728828,0.0952551,329.1706116,329.1706734,None,,,,,60,1,2026-01-19_16h09.40.790,MST_task,2024.2.0,59.99710814,2026-01-19 16h09.55.420326 +0530
,Objects\017a.jpg,54,0,55,,,,,,,f,1.0981937,0.1359067,None,,,,55,0,54,329.1865956,,,,,,,,,,,,,,,,,,,,,,,,,,,,,,329.1710989,329.1865956,329.6706966,,,,,,,,,,,,,,329.7007439,,,,,,,,,,329.6979518,329.7007439,329.7007439,329.7007439,332.6866768,f,1.0981937,0.1359067,332.6868578,332.6869221,None,,,,,60,1,2026-01-19_16h09.40.790,MST_task,2024.2.0,59.99710814,2026-01-19 16h09.55.420326 +0530
,Objects\115a.jpg,55,0,56,,,,,,,f,0.7857349,0.1203363,None,,,,56,0,55,332.7030177,,,,,,,,,,,,,,,,,,,,,,,,,,,,,,332.6871342,332.7030177,333.187411,,,,,,,,,,,,,,,,,,,,,,,,333.2173032,333.2202666,333.2202666,333.2202666,336.2036709,f,0.7857349,0.1203363,336.2038361,336.2038817,None,,,,,60,1,2026-01-19_16h09.40.790,MST_task,2024.2.0,59.99710814,2026-01-19 16h09.55.420326 +0530
,Scenes\097a.jpg,56,0,57,,,,,,,f,1.5051647,0.1923768,None,,,,57,0,56,336.2195534,,,,,,,,,,,,,,,,,,,,,,,,,,,,,,336.2042127,336.2195534,336.7041315,,,,,,,,,,,,,,336.8527533,,,,,,,,,,336.8492729,336.8527533,336.8527533,336.8527533,339.7201287,f,1.5051647,0.1923768,339.7252974,339.7253189,None,,,,,60,1,2026-01-19_16h09.40.790,MST_task,2024.2.0,59.99710814,2026-01-19 16h09.55.420326 +0530
,Scenes\173a.jpg,57,0,58,,,,,,,j,0.9482318,0.1513516,None,,,,58,0,57,339.736286,,,,,,,,,,,,,,,,,,,,,,,,,,,,,,339.7254377,339.736286,340.2205422,,,,,,,,,,,,,,340.2818009,,,,,,,,,,340.278558,340.2818009,340.2818009,340.2818009,343.2368175,j,0.9482318,0.1513516,343.2369237,343.2369593,None,,,,,60,1,2026-01-19_16h09.40.790,MST_task,2024.2.0,59.99710814,2026-01-19 16h09.55.420326 +0530
,Scenes\111a.jpg,58,0,59,,,,,,,j,0.6864263,0.1204184,None,,,,59,0,58,343.2528916,,,,,,,,,,,,,,,,,,,,,,,,,,,,,,343.2371507,343.2528916,343.7374208,,,,,,,,,,,,,,,,,,,,,,,,343.7886512,343.791634,343.791634,343.791634,346.7538843,j,0.6864263,0.1204184,346.7540742,346.7541366,None,,,,,60,1,2026-01-19_16h09.40.790,MST_task,2024.2.0,59.99710814,2026-01-19 16h09.55.420326 +0530
,Scenes\120a.jpg,59,0,60,,,,,,,j,0.6681915,0.1423618,None,,,,60,0,59,346.7695709,,,,,,,,,,,,,,,,,,,,,,,,,,,,,,346.7544361,346.7695709,347.2547538,,,,,,,,,,,,,,347.3147121,,,,,,,,,,347.3109267,347.3147121,347.3147121,347.3147121,350.2705445,j,0.6681915,0.1423618,350.2707171,350.2707607,None,,,,,60,1,2026-01-19_16h09.40.790,MST_task,2024.2.0,59.99710814,2026-01-19 16h09.55.420326 +0530
,Scenes\109a.jpg,60,0,61,,,,,,,j,1.7853059,0.176774,None,,,,61,0,60,350.2862655,,,,,,,,,,,,,,,,,,,,,,,,,,,,,,350.271076,350.2862655,350.7708036,,,,,,,,,,,,,,350.8358519,,,,,,,,,,350.8323348,350.8358519,350.8358519,350.8358519,353.7868476,j,1.7853059,0.176774,353.7869628,353.7870028,None,,,,,60,1,2026-01-19_16h09.40.790,MST_task,2024.2.0,59.99710814,2026-01-19 16h09.55.420326 +0530
,Scenes\059a.jpg,61,0,62,,,,,,,j,1.2442695,0.1432726,None,,,,62,0,61,353.8029596,,,,,,,,,,,,,,,,,,,,,,,,,,,,,,353.7872086,353.8029596,354.2874883,,,,,,,,,,,,,,354.3783085,,,,,,,,,,354.3751824,354.3783085,354.3783085,354.3783085,357.2872739,j,1.2442695,0.1432726,357.2874456,357.2875102,None,,,,,60,1,2026-01-19_16h09.40.790,MST_task,2024.2.0,59.99710814,2026-01-19 16h09.55.420326 +0530
,Scenes\031a.jpg,62,0,63,,,,,,,f,1.5699659,0.1600796,None,,,,63,0,62,357.3030528,,,,,,,,,,,,,,,,,,,,,,,,,,,,,,357.287912,357.3030528,357.7875057,,,,,,,,,,,,,,357.8757195,,,,,,,,,,357.8722355,357.8757195,357.8757195,357.8757195,360.8035413,f,1.5699659,0.1600796,360.8037235,360.803785,None,,,,,60,1,2026-01-19_16h09.40.790,MST_task,2024.2.0,59.99710814,2026-01-19 16h09.55.420326 +0530
,Objects\063a.jpg,63,0,64,,,,,,,f,0.9529653,0.1996048,None,,,,64,0,63,360.8196934,,,,,,,,,,,,,,,,,,,,,,,,,,,,,,360.8041231,360.8196934,361.3041867,,,,,,,,,,,,,,361.3412543,,,,,,,,,,361.336883,361.3412543,361.3412543,361.3412543,364.3205905,f,0.9529653,0.1996048,364.3265736,364.3266152,None,,,,,60,1,2026-01-19_16h09.40.790,MST_task,2024.2.0,59.99710814,2026-01-19 16h09.55.420326 +0530
,Objects\109a.jpg,64,0,65,,,,,,,j,1.4322125,0.1831904,None,,,,65,0,64,364.3362491,,,,,,,,,,,,,,,,,,,,,,,,,,,,,,364.3268716,364.3362491,364.821101,,,,,,,,,,,,,,364.8543614,,,,,,,,,,364.851041,364.8543614,364.8543614,364.8543614,367.8368041,j,1.4322125,0.1831904,367.8369402,367.8369854,None,,,,,60,1,2026-01-19_16h09.40.790,MST_task,2024.2.0,59.99710814,2026-01-19 16h09.55.420326 +0530
,Objects\031a.jpg,65,0,66,,,,,,,j,1.4558998,0.1517173,None,,,,66,0,65,367.8534358,,,,,,,,,,,,,,,,,,,,,,,,,,,,,,367.8373266,367.8534358,368.3375081,,,,,,,,,,,,,,368.3743656,,,,,,,,,,368.3714572,368.3743656,368.3743656,368.3743656,371.3533963,j,1.4558998,0.1517173,371.3534863,371.3535171,None,,,,,60,1,2026-01-19_16h09.40.790,MST_task,2024.2.0,59.99710814,2026-01-19 16h09.55.420326 +0530
,Objects\116a.jpg,66,0,67,,,,,,,f,1.4346547,0.1602626,None,,,,67,0,66,371.3696699,,,,,,,,,,,,,,,,,,,,,,,,,,,,,,371.3537502,371.3696699,371.8539326,,,,,,,,,,,,,,371.8750088,,,,,,,,,,371.8722978,371.8750088,371.8750088,371.8750088,374.8701721,f,1.4346547,0.1602626,374.8703294,374.8703687,None,,,,,60,1,2026-01-19_16h09.40.790,MST_task,2024.2.0,59.99710814,2026-01-19 16h09.55.420326 +0530
,Objects\153a.jpg,67,0,68,,,,,,,f,0.746006,0.1686578,None,,,,68,0,67,374.8862879,,,,,,,,,,,,,,,,,,,,,,,,,,,,,,374.8706585,374.8862879,375.3709127,,,,,,,,,,,,,,375.4118677,,,,,,,,,,375.4084125,375.4118677,375.4118677,375.4118677,378.3867128,f,0.746006,0.1686578,378.3868794,378.3869403,None,,,,,60,1,2026-01-19_16h09.40.790,MST_task,2024.2.0,59.99710814,2026-01-19 16h09.55.420326 +0530
,Objects\084a.jpg,68,0,69,,,,,,,f,1.0377663,0.1767005,None,,,,69,0,68,378.4034846,,,,,,,,,,,,,,,,,,,,,,,,,,,,,,378.3871942,378.4034846,378.8873806,,,,,,,,,,,,,,378.9359066,,,,,,,,,,378.9332138,378.9359066,378.9359066,378.9359066,381.9034063,f,1.0377663,0.1767005,381.903595,381.9036571,None,,,,,60,1,2026-01-19_16h09.40.790,MST_task,2024.2.0,59.99710814,2026-01-19 16h09.55.420326 +0530
,Objects\080a.jpg,69,0,70,,,,,,,f,0.8702425,0.1451858,None,,,,70,0,69,381.9200396,,,,,,,,,,,,,,,,,,,,,,,,,,,,,,381.9040041,381.9200396,382.4040794,,,,,,,,,,,,,,382.4390956,,,,,,,,,,382.4359808,382.4390956,382.4390956,382.4390956,385.4199731,f,0.8702425,0.1451858,385.4201396,385.4202016,None,,,,,60,1,2026-01-19_16h09.40.790,MST_task,2024.2.0,59.99710814,2026-01-19 16h09.55.420326 +0530
,Scenes\165a.jpg,70,0,71,,,,,,,f,1.5018971,0.2155041,None,,,,71,0,70,385.4364312,,,,,,,,,,,,,,,,,,,,,,,,,,,,,,385.4205189,385.4364312,385.9207382,,,,,,,,,,,,,,385.9841361,,,,,,,,,,385.9808367,385.9841361,385.9841361,385.9841361,388.9206546,f,1.5018971,0.2155041,388.9249639,388.9250067,None,,,,,60,1,2026-01-19_16h09.40.790,MST_task,2024.2.0,59.99710814,2026-01-19 16h09.55.420326 +0530
,Scenes\058a.jpg,71,0,72,,,,,,,f,1.1082025,0.1767071,None,,,,72,0,71,388.9371705,,,,,,,,,,,,,,,,,,,,,,,,,,,,,,388.9251758,388.9371705,389.4209752,,,,,,,,,,,,,,389.4974348,,,,,,,,,,389.4947944,389.4974348,389.4974348,389.4974348,392.4370202,f,1.1082025,0.1767071,392.4371221,392.437158,None,,,,,60,1,2026-01-19_16h09.40.790,MST_task,2024.2.0,59.99710814,2026-01-19 16h09.55.420326 +0530
,Scenes\095a.jpg,72,0,73,,,,,,,f,1.5493472,0.2798869,None,,,,73,0,72,392.4529995,,,,,,,,,,,,,,,,,,,,,,,,,,,,,,392.4374188,392.4529995,392.9372382,,,,,,,,,,,,,,393.0170612,,,,,,,,,,393.0137603,393.0170612,393.0170612,393.0170612,395.9535517,f,1.5493472,0.2798869,395.9536883,395.9537309,None,,,,,60,1,2026-01-19_16h09.40.790,MST_task,2024.2.0,59.99710814,2026-01-19 16h09.55.420326 +0530
,Scenes\182a.jpg,73,0,74,,,,,,,j,1.1989641,0.2237589,None,,,,74,0,73,395.9696179,,,,,,,,,,,,,,,,,,,,,,,,,,,,,,395.954138,395.9696179,396.4540771,,,,,,,,,,,,,,396.5271265,,,,,,,,,,396.5238679,396.5271265,396.5271265,396.5271265,399.4701326,j,1.1989641,0.2237589,399.4702727,399.4703195,None,,,,,60,1,2026-01-19_16h09.40.790,MST_task,2024.2.0,59.99710814,2026-01-19 16h09.55.420326 +0530
,Scenes\003a.jpg,74,0,75,,,,,,,f,1.4917587,0.1514035,None,,,,75,0,74,399.4863257,,,,,,,,,,,,,,,,,,,,,,,,,,,,,,399.4705709,399.4863257,399.9706286,,,,,,,,,,,,,,400.0502152,,,,,,,,,,400.0467852,400.0502152,400.0502152,400.0502152,402.987272,f,1.4917587,0.1514035,402.9873816,402.9874193,None,,,,,60,1,2026-01-19_16h09.40.790,MST_task,2024.2.0,59.99710814,2026-01-19 16h09.55.420326 +0530
,Scenes\075a.jpg,75,0,76,,,,,,,j,0.9042838,0.167947,None,,,,76,0,75,403.0038702,,,,,,,,,,,,,,,,,,,,,,,,,,,,,,402.987791,403.0038702,403.4873442,,,,,,,,,,,,,,403.5414782,,,,,,,,,,403.5382058,403.5414782,403.5414782,403.5414782,406.5032857,j,0.9042838,0.167947,406.5034431,406.503481,None,,,,,60,1,2026-01-19_16h09.40.790,MST_task,2024.2.0,59.99710814,2026-01-19 16h09.55.420326 +0530
,Scenes\137a.jpg,76,0,77,,,,,,,j,1.1102732,0.1843285,None,,,,77,0,76,406.5198128,,,,,,,,,,,,,,,,,,,,,,,,,,,,,,406.5037511,406.5198128,407.0043183,,,,,,,,,,,,,,407.063756,,,,,,,,,,407.0603146,407.063756,407.063756,407.063756,410.0211937,j,1.1102732,0.1843285,410.0213173,410.0213596,None,,,,,60,1,2026-01-19_16h09.40.790,MST_task,2024.2.0,59.99710814,2026-01-19 16h09.55.420326 +0530
,Objects\073a.jpg,77,0,78,,,,,,,f,0.8241533,0.1602548,None,,,,78,0,77,410.0361888,,,,,,,,,,,,,,,,,,,,,,,,,,,,,,410.0216717,410.0361888,410.5206554,,,,,,,,,,,,,,410.5898943,,,,,,,,,,410.5866157,410.5898943,410.5898943,410.5898943,413.5368981,f,0.8241533,0.1602548,413.540547,413.5405749,None,,,,,60,1,2026-01-19_16h09.40.790,MST_task,2024.2.0,59.99710814,2026-01-19 16h09.55.420326 +0530
,Objects\180a.jpg,78,0,79,,,,,,,f,1.531502,0.1431788,None,,,,79,0,78,413.5525204,,,,,,,,,,,,,,,,,,,,,,,,,,,,,,413.5407444,413.5525204,414.0373375,,,,,,,,,,,,,,414.0990814,,,,,,,,,,414.0956505,414.0990814,414.0990814,414.0990814,417.0534988,f,1.531502,0.1431788,417.0537003,417.053776,None,,,,,60,1,2026-01-19_16h09.40.790,MST_task,2024.2.0,59.99710814,2026-01-19 16h09.55.420326 +0530
,Objects\188a.jpg,79,0,80,,,,,,,f,0.8470977,0.2154335,None,,,,80,0,79,417.0695092,,,,,,,,,,,,,,,,,,,,,,,,,,,,,,417.0539891,417.0695092,417.5537967,,,,,,,,,,,,,,417.5907699,,,,,,,,,,417.5881299,417.5907699,417.5907699,417.5907699,420.5699469,f,0.8470977,0.2154335,420.5701047,420.5701503,None,,,,,60,1,2026-01-19_16h09.40.790,MST_task,2024.2.0,59.99710814,2026-01-19 16h09.55.420326 +0530
,Objects\023a.jpg,80,0,81,,,,,,,f,0.8687643,0.1523808,None,,,,81,0,80,420.5862766,,,,,,,,,,,,,,,,,,,,,,,,,,,,,,420.570476,420.5862766,421.0707494,,,,,,,,,,,,,,421.1052343,,,,,,,,,,421.1023664,421.1052343,421.1052343,421.1052343,424.0867452,f,0.8687643,0.1523808,424.0869128,424.0869523,None,,,,,60,1,2026-01-19_16h09.40.790,MST_task,2024.2.0,59.99710814,2026-01-19 16h09.55.420326 +0530
,Objects\094a.jpg,81,0,82,,,,,,,f,0.6608426,0.1357471,None,,,,82,0,81,424.1032674,,,,,,,,,,,,,,,,,,,,,,,,,,,,,,424.087163,424.1032674,424.5875616,,,,,,,,,,,,,,424.6253903,,,,,,,,,,424.6226115,424.6253903,424.6253903,424.6253903,427.603666,f,0.6608426,0.1357471,427.6037805,427.6038186,None,,,,,60,1,2026-01-19_16h09.40.790,MST_task,2024.2.0,59.99710814,2026-01-19 16h09.55.420326 +0530
,Objects\090a.jpg,82,0,83,,,,,,,j,2.7878626,None,None,,,,83,0,82,427.6199833,,,,,,,,,,,,,,,,,,,,,,,,,,,,,,427.6040741,427.6199833,428.1044422,,,,,,,,,,,,,,428.1382482,,,,,,,,,,428.1356155,428.1382482,428.1382482,428.1382482,431.119874,j,2.7878626,None,431.1200143,431.120059,None,,,,,60,1,2026-01-19_16h09.40.790,MST_task,2024.2.0,59.99710814,2026-01-19 16h09.55.420326 +0530
,Objects\018a.jpg,83,0,84,,,,,,,f,0.7873158,0.1683623,None,,,,84,0,83,431.1363449,,,,,,,,,,,,,,,,,,,,,,,,,,,,,,431.1202871,431.1363449,431.6201917,,,,,,,,,,,,,,,,,,,,,,,,431.6625385,431.6662246,431.6662246,431.6662246,434.6366418,f,0.7873158,0.1683623,434.6367537,434.6367914,None,,,,,60,1,2026-01-19_16h09.40.790,MST_task,2024.2.0,59.99710814,2026-01-19 16h09.55.420326 +0530
,Scenes\034a.jpg,84,0,85,,,,,,,f,2.6362577,0.1917113,None,,,,85,0,84,434.652981,,,,,,,,,,,,,,,,,,,,,,,,,,,,,,434.6369911,434.652981,435.1373844,,,,,,,,,,,,,,435.2184949,,,,,,,,,,435.214995,435.2184949,435.2184949,435.2184949,438.1534673,f,2.6362577,0.1917113,438.1570622,438.1570971,None,,,,,60,1,2026-01-19_16h09.40.790,MST_task,2024.2.0,59.99710814,2026-01-19 16h09.55.420326 +0530
,Scenes\029a.jpg,85,0,86,,,,,,,j,1.135374,0.1599835,None,,,,86,0,85,438.1695531,,,,,,,,,,,,,,,,,,,,,,,,,,,,,,438.1572581,438.1695531,438.6539662,,,,,,,,,,,,,,438.7104946,,,,,,,,,,438.707062,438.7104946,438.7104946,438.7104946,441.6701401,j,1.135374,0.1599835,441.6702474,441.6702856,None,,,,,60,1,2026-01-19_16h09.40.790,MST_task,2024.2.0,59.99710814,2026-01-19 16h09.55.420326 +0530
,Scenes\184a.jpg,86,0,87,,,,,,,j,1.6376333,0.1675585,None,,,,87,0,86,441.6863881,,,,,,,,,,,,,,,,,,,,,,,,,,,,,,441.6705737,441.6863881,442.1707544,,,,,,,,,,,,,,442.2640743,,,,,,,,,,442.2605451,442.2640743,442.2640743,442.2640743,445.18678,j,1.6376333,0.1675585,445.186916,445.1869654,None,,,,,60,1,2026-01-19_16h09.40.790,MST_task,2024.2.0,59.99710814,2026-01-19 16h09.55.420326 +0530
,Scenes\171a.jpg,87,0,88,,,,,,,f,1.2434875,0.2083497,None,,,,88,0,87,445.2029911,,,,,,,,,,,,,,,,,,,,,,,,,,,,,,445.1872182,445.2029911,445.6872486,,,,,,,,,,,,,,445.7542179,,,,,,,,,,445.7499107,445.7542179,445.7542179,445.7542179,448.7034526,f,1.2434875,0.2083497,448.703588,448.7036239,None,,,,,60,1,2026-01-19_16h09.40.790,MST_task,2024.2.0,59.99710814,2026-01-19 16h09.55.420326 +0530
,Scenes\134a.jpg,88,0,89,,,,,,,j,0.766452,0.1284171,None,,,,89,0,88,448.7198381,,,,,,,,,,,,,,,,,,,,,,,,,,,,,,448.703876,448.7198381,449.2043587,,,,,,,,,,,,,,449.2713303,,,,,,,,,,449.267741,449.2713303,449.2713303,449.2713303,452.2200017,j,0.766452,0.1284171,452.2201808,452.2202445,None,,,,,60,1,2026-01-19_16h09.40.790,MST_task,2024.2.0,59.99710814,2026-01-19 16h09.55.420326 +0530
,Scenes\107a.jpg,89,0,90,,,,,,,j,0.7790661,0.1688858,None,,,,90,0,89,452.2363962,,,,,,,,,,,,,,,,,,,,,,,,,,,,,,452.2204538,452.2363962,452.7206116,,,,,,,,,,,,,,452.7941589,,,,,,,,,,452.7906899,452.7941589,452.7941589,452.7941589,455.7365246,j,0.7790661,0.1688858,455.7366392,455.7366801,None,,,,,60,1,2026-01-19_16h09.40.790,MST_task,2024.2.0,59.99710814,2026-01-19 16h09.55.420326 +0530
,Scenes\050a.jpg,90,0,91,,,,,,,j,0.7964986,0.1680447,None,,,,91,0,90,455.7530357,,,,,,,,,,,,,,,,,,,,,,,,,,,,,,455.7368881,455.7530357,456.2373674,,,,,,,,,,,,,,456.3216631,,,,,,,,,,456.3184115,456.3216631,456.3216631,456.3216631,459.2533428,j,0.7964986,0.1680447,459.2534487,459.2534854,None,,,,,60,1,2026-01-19_16h09.40.790,MST_task,2024.2.0,59.99710814,2026-01-19 16h09.55.420326 +0530
,Objects\150a.jpg,91,0,92,,,,,,,j,1.2434831,0.166643,None,,,,92,0,91,459.2697183,,,,,,,,,,,,,,,,,,,,,,,,,,,,,,459.2537559,459.2697183,459.7540191,,,,,,,,,,,,,,459.7951005,,,,,,,,,,459.7922607,459.7951005,459.7951005,459.7951005,462.7702233,j,1.2434831,0.166643,462.7742659,462.7742995,None,,,,,60,1,2026-01-19_16h09.40.790,MST_task,2024.2.0,59.99710814,2026-01-19 16h09.55.420326 +0530
,Objects\156a.jpg,92,0,93,,,,,,,f,0.5766477,0.1283019,None,,,,93,0,92,462.7861567,,,,,,,,,,,,,,,,,,,,,,,,,,,,,,462.7744469,462.7861567,463.2708482,,,,,,,,,,,,,,463.3092313,,,,,,,,,,463.306337,463.3092313,463.3092313,463.3092313,466.2866079,f,0.5766477,0.1283019,466.2867904,466.2868296,None,,,,,60,1,2026-01-19_16h09.40.790,MST_task,2024.2.0,59.99710814,2026-01-19 16h09.55.420326 +0530
,Objects\069a.jpg,93,0,94,,,,,,,j,0.6208943,0.1671134,None,,,,94,0,93,466.302782,,,,,,,,,,,,,,,,,,,,,,,,,,,,,,466.2870468,466.302782,466.7872165,,,,,,,,,,,,,,466.8251522,,,,,,,,,,466.8219871,466.8251522,466.8251522,466.8251522,469.8035102,j,0.6208943,0.1671134,469.8036502,469.8036929,None,,,,,60,1,2026-01-19_16h09.40.790,MST_task,2024.2.0,59.99710814,2026-01-19 16h09.55.420326 +0530
,Objects\154a.jpg,94,0,95,,,,,,,j,0.9524473,0.1447692,None,,,,95,0,94,469.8196659,,,,,,,,,,,,,,,,,,,,,,,,,,,,,,469.8040601,469.8196659,470.3039747,,,,,,,,,,,,,,470.3327965,,,,,,,,,,470.3300802,470.3327965,470.3327965,470.3327965,473.320148,j,0.9524473,0.1447692,473.3203073,473.3203446,None,,,,,60,1,2026-01-19_16h09.40.790,MST_task,2024.2.0,59.99710814,2026-01-19 16h09.55.420326 +0530
,Objects\004a.jpg,95,0,96,,,,,,,j,1.284268,0.1593254,None,,,,96,0,95,473.336232,,,,,,,,,,,,,,,,,,,,,,,,,,,,,,473.3206206,473.336232,473.8209322,,,,,,,,,,,,,,473.8422549,,,,,,,,,,473.8375047,473.8422549,473.8422549,473.8422549,476.8367507,j,1.284268,0.1593254,476.8369117,476.8369463,None,,,,,60,1,2026-01-19_16h09.40.790,MST_task,2024.2.0,59.99710814,2026-01-19 16h09.55.420326 +0530
,Objects\082a.jpg,96,0,97,,,,,,,j,0.78175,0.1518175,None,,,,97,0,96,476.8529277,,,,,,,,,,,,,,,,,,,,,,,,,,,,,,476.8371285,476.8529277,477.3373902,,,,,,,,,,,,,,477.3845146,,,,,,,,,,477.3806458,477.3845146,477.3845146,477.3845146,480.3537426,j,0.78175,0.1518175,480.3539135,480.3539759,None,,,,,60,1,2026-01-19_16h09.40.790,MST_task,2024.2.0,59.99710814,2026-01-19 16h09.55.420326 +0530
,Objects\159a.jpg,97,0,98,,,,,,,f,0.6103829,0.1593083,None,,,,98,0,97,480.3696429,,,,,,,,,,,,,,,,,,,,,,,,,,,,,,480.3543447,480.3696429,480.8542862,,,,,,,,,,,,,,480.8997308,,,,,,,,,,480.8963305,480.8997308,480.8997308,480.8997308,483.8702072,f,0.6103829,0.1593083,483.8703896,483.8704526,None,,,,,60,1,2026-01-19_16h09.40.790,MST_task,2024.2.0,59.99710814,2026-01-19 16h09.55.420326 +0530
,Scenes\016a.jpg,98,0,99,,,,,,,j,1.0692128,0.2252136,None,,,,99,0,98,483.8862227,,,,,,,,,,,,,,,,,,,,,,,,,,,,,,483.8707486,483.8862227,484.3705237,,,,,,,,,,,,,,484.4879037,,,,,,,,,,484.4842765,484.4879037,484.4879037,484.4879037,487.3867016,j,1.0692128,0.2252136,487.3923356,487.3923766,None,,,,,60,1,2026-01-19_16h09.40.790,MST_task,2024.2.0,59.99710814,2026-01-19 16h09.55.420326 +0530
,Scenes\045a.jpg,99,0,100,,,,,,,f,1.1613847,0.1530069,None,,,,100,0,99,487.4029362,,,,,,,,,,,,,,,,,,,,,,,,,,,,,,487.3926185,487.4029362,487.8876525,,,,,,,,,,,,,,487.9643622,,,,,,,,,,487.9603326,487.9643622,487.9643622,487.9643622,490.903472,f,1.1613847,0.1530069,490.9035747,490.9036111,None,,,,,60,1,2026-01-19_16h09.40.790,MST_task,2024.2.0,59.99710814,2026-01-19 16h09.55.420326 +0530
,Scenes\167a.jpg,100,0,101,,,,,,,f,1.3074127,0.1287042,None,,,,101,0,100,490.9196794,,,,,,,,,,,,,,,,,,,,,,,,,,,,,,490.9037986,490.9196794,491.4039979,,,,,,,,,,,,,,491.4337758,,,,,,,,,,491.4302058,491.4337758,491.4337758,491.4337758,494.4202025,f,1.3074127,0.1287042,494.4204083,494.4204732,None,,,,,60,1,2026-01-19_16h09.40.790,MST_task,2024.2.0,59.99710814,2026-01-19 16h09.55.420326 +0530
,Scenes\186a.jpg,101,0,102,,,,,,,j,1.2777212,0.151409,None,,,,102,0,101,494.436273,,,,,,,,,,,,,,,,,,,,,,,,,,,,,,494.4209169,494.436273,494.9208684,,,,,,,,,,,,,,494.9446413,,,,,,,,,,494.941539,494.9446413,494.9446413,494.9446413,497.9367081,j,1.2777212,0.151409,497.9368184,497.9368554,None,,,,,60,1,2026-01-19_16h09.40.790,MST_task,2024.2.0,59.99710814,2026-01-19 16h09.55.420326 +0530
,Scenes\081a.jpg,102,0,103,,,,,,,j,0.7564768,0.1599662,None,,,,103,0,102,497.9529939,,,,,,,,,,,,,,,,,,,,,,,,,,,,,,497.9370909,497.9529939,498.4372319,,,,,,,,,,,,,,498.4966576,,,,,,,,,,498.493415,498.4966576,498.4966576,498.4966576,501.4375707,j,0.7564768,0.1599662,501.4376807,501.4377181,None,,,,,60,1,2026-01-19_16h09.40.790,MST_task,2024.2.0,59.99710814,2026-01-19 16h09.55.420326 +0530
,Scenes\125a.jpg,103,0,104,,,,,,,j,0.9672752,0.1689665,None,,,,104,0,103,501.4530274,,,,,,,,,,,,,,,,,,,,,,,,,,,,,,501.4379892,501.4530274,501.9373891,,,,,,,,,,,,,,501.9984197,,,,,,,,,,501.9958013,501.9984197,501.9984197,501.9984197,504.9534576,j,0.9672752,0.1689665,504.9536121,504.953647,None,,,,,60,1,2026-01-19_16h09.40.790,MST_task,2024.2.0,59.99710814,2026-01-19 16h09.55.420326 +0530
,Scenes\061a.jpg,104,0,105,,,,,,,j,0.9442704,0.1604642,None,,,,105,0,104,504.9696826,,,,,,,,,,,,,,,,,,,,,,,,,,,,,,504.9539102,504.9696826,505.4541938,,,,,,,,,,,,,,505.5088607,,,,,,,,,,505.5058159,505.5088607,505.5088607,505.5088607,508.4701713,j,0.9442704,0.1604642,508.4703381,508.4704004,None,,,,,60,1,2026-01-19_16h09.40.790,MST_task,2024.2.0,59.99710814,2026-01-19 16h09.55.420326 +0530
,Objects\072a.jpg,105,0,106,,,,,,,f,1.0025753,0.2148035,None,,,,106,0,105,508.4863121,,,,,,,,,,,,,,,,,,,,,,,,,,,,,,508.4707501,508.4863121,508.9709935,,,,,,,,,,,,,,509.0197086,,,,,,,,,,509.0168496,509.0197086,509.0197086,509.0197086,511.9867262,f,1.0025753,0.2148035,511.9922133,511.9922658,None,,,,,60,1,2026-01-19_16h09.40.790,MST_task,2024.2.0,59.99710814,2026-01-19 16h09.55.420326 +0530
,Objects\032a.jpg,106,0,107,,,,,,,j,1.0821367,0.2165356,None,,,,107,0,106,512.0031058,,,,,,,,,,,,,,,,,,,,,,,,,,,,,,511.9924643,512.0031058,512.4878461,,,,,,,,,,,,,,512.5232198,,,,,,,,,,512.519863,512.5232198,512.5232198,512.5232198,515.503437,j,1.0821367,0.2165356,515.5036259,515.5036871,None,,,,,60,1,2026-01-19_16h09.40.790,MST_task,2024.2.0,59.99710814,2026-01-19 16h09.55.420326 +0530
,Objects\147a.jpg,107,0,108,,,,,,,f,1.7148617,0.1607525,None,,,,108,0,107,515.5196179,,,,,,,,,,,,,,,,,,,,,,,,,,,,,,515.5040418,515.5196179,516.0038414,,,,,,,,,,,,,,516.0423463,,,,,,,,,,516.0397267,516.0423463,516.0423463,516.0423463,519.0198856,f,1.7148617,0.1607525,519.0199803,519.0200278,None,,,,,60,1,2026-01-19_16h09.40.790,MST_task,2024.2.0,59.99710814,2026-01-19 16h09.55.420326 +0530
,Objects\152a.jpg,108,0,109,,,,,,,f,0.7899026,0.1528907,None,,,,109,0,108,519.0369534,,,,,,,,,,,,,,,,,,,,,,,,,,,,,,519.0202112,519.0369534,519.5206977,,,,,,,,,,,,,,519.5758702,,,,,,,,,,519.5728285,519.5758702,519.5758702,519.5758702,522.5367232,f,0.7899026,0.1528907,522.5368772,522.5369262,None,,,,,60,1,2026-01-19_16h09.40.790,MST_task,2024.2.0,59.99710814,2026-01-19 16h09.55.420326 +0530
,Objects\118a.jpg,109,0,110,,,,,,,f,0.7420882,0.151582,None,,,,110,0,109,522.553392,,,,,,,,,,,,,,,,,,,,,,,,,,,,,,522.5372966,522.553392,523.0372582,,,,,,,,,,,,,,523.0800149,,,,,,,,,,523.0769038,523.0800149,523.0800149,523.0800149,526.0535937,f,0.7420882,0.151582,526.0537644,526.0538267,None,,,,,60,1,2026-01-19_16h09.40.790,MST_task,2024.2.0,59.99710814,2026-01-19 16h09.55.420326 +0530
,Objects\177a.jpg,110,0,111,,,,,,,j,0.8873334,0.1589374,None,,,,111,0,110,526.0704006,,,,,,,,,,,,,,,,,,,,,,,,,,,,,,526.0541511,526.0704006,526.5541912,,,,,,,,,,,,,,526.5917035,,,,,,,,,,526.5884311,526.5917035,526.5917035,526.5917035,529.5701892,j,0.8873334,0.1589374,529.5703529,529.5703963,None,,,,,60,1,2026-01-19_16h09.40.790,MST_task,2024.2.0,59.99710814,2026-01-19 16h09.55.420326 +0530
,Objects\088a.jpg,111,0,112,,,,,,,j,0.9644812,0.1675753,None,,,,112,0,111,529.5864909,,,,,,,,,,,,,,,,,,,,,,,,,,,,,,529.5707047,529.5864909,530.0709563,,,,,,,,,,,,,,530.1143113,,,,,,,,,,530.1107703,530.1143113,530.1143113,530.1143113,533.0867414,j,0.9644812,0.1675753,533.0869082,533.0869757,None,,,,,60,1,2026-01-19_16h09.40.790,MST_task,2024.2.0,59.99710814,2026-01-19 16h09.55.420326 +0530
,Scenes\141a.jpg,112,0,113,,,,,,,j,1.3443386,0.1671887,None,,,,113,0,112,533.1029255,,,,,,,,,,,,,,,,,,,,,,,,,,,,,,533.0874023,533.1029255,533.5873637,,,,,,,,,,,,,,533.6457481,,,,,,,,,,533.6426057,533.6457481,533.6457481,533.6457481,536.6032847,j,1.3443386,0.1671887,536.6071896,536.6072295,None,,,,,60,1,2026-01-19_16h09.40.790,MST_task,2024.2.0,59.99710814,2026-01-19 16h09.55.420326 +0530
,Scenes\073a.jpg,113,0,114,,,,,,,j,0.6543114,0.1754027,None,,,,114,0,113,536.6199653,,,,,,,,,,,,,,,,,,,,,,,,,,,,,,536.6074511,536.6199653,537.1039427,,,,,,,,,,,,,,537.1597984,,,,,,,,,,537.1565442,537.1597984,537.1597984,537.1597984,540.1198774,j,0.6543114,0.1754027,540.1200421,540.1200756,None,,,,,60,1,2026-01-19_16h09.40.790,MST_task,2024.2.0,59.99710814,2026-01-19 16h09.55.420326 +0530
,Scenes\083a.jpg,114,0,115,,,,,,,j,0.8037907,0.1604245,None,,,,115,0,114,540.1372041,,,,,,,,,,,,,,,,,,,,,,,,,,,,,,540.1203274,540.1372041,540.620975,,,,,,,,,,,,,,540.6892882,,,,,,,,,,540.6861968,540.6892882,540.6892882,540.6892882,543.6367957,j,0.8037907,0.1604245,543.6369166,543.6369586,None,,,,,60,1,2026-01-19_16h09.40.790,MST_task,2024.2.0,59.99710814,2026-01-19 16h09.55.420326 +0530
,Scenes\092a.jpg,115,0,116,,,,,,,f,1.4896653,0.1519951,None,,,,116,0,115,543.6529043,,,,,,,,,,,,,,,,,,,,,,,,,,,,,,543.6372717,543.6529043,544.1373878,,,,,,,,,,,,,,,,,,,,,,,,544.21666,544.2206104,544.2206104,544.2206104,547.1532831,f,1.4896653,0.1519951,547.1534489,547.1535103,None,,,,,60,1,2026-01-19_16h09.40.790,MST_task,2024.2.0,59.99710814,2026-01-19 16h09.55.420326 +0530
,Scenes\063a.jpg,116,0,117,,,,,,,j,0.6964391,0.1282661,None,,,,117,0,116,547.1697592,,,,,,,,,,,,,,,,,,,,,,,,,,,,,,547.1537656,547.1697592,547.6542132,,,,,,,,,,,,,,547.7493152,,,,,,,,,,547.7458968,547.7493152,547.7493152,547.7493152,550.6700868,j,0.6964391,0.1282661,550.6702569,550.6702939,None,,,,,60,1,2026-01-19_16h09.40.790,MST_task,2024.2.0,59.99710814,2026-01-19 16h09.55.420326 +0530
,Scenes\021a.jpg,117,0,118,,,,,,,j,1.4774624,0.3847473,None,,,,118,0,117,550.6865703,,,,,,,,,,,,,,,,,,,,,,,,,,,,,,550.6705514,550.6865703,551.1710828,,,,,,,,,,,,,,551.2410185,,,,,,,,,,551.2371286,551.2410185,551.2410185,551.2410185,554.187183,j,1.4774624,0.3847473,554.1873473,554.1873864,None,,,,,60,1,2026-01-19_16h09.40.790,MST_task,2024.2.0,59.99710814,2026-01-19 16h09.55.420326 +0530
,Scenes\116a.jpg,118,0,119,,,,,,,j,0.8808129,0.1437524,None,,,,119,0,118,554.2029462,,,,,,,,,,,,,,,,,,,,,,,,,,,,,,554.1875961,554.2029462,554.687149,,,,,,,,,,,,,,554.748537,,,,,,,,,,554.7450039,554.748537,554.748537,554.748537,557.7035271,j,0.8808129,0.1437524,557.7036348,557.7036841,None,,,,,60,1,2026-01-19_16h09.40.790,MST_task,2024.2.0,59.99710814,2026-01-19 16h09.55.420326 +0530
,Objects\181a.jpg,119,0,120,,,,,,,j,0.912816,0.1438337,None,,,,120,0,119,557.7198211,,,,,,,,,,,,,,,,,,,,,,,,,,,,,,557.7040586,557.7198211,558.20458,,,,,,,,,,,,,,558.2444393,,,,,,,,,,558.2414241,558.2444393,558.2444393,558.2444393,561.2198384,j,0.912816,0.1438337,561.225181,561.2252018,None,,,,,60,1,2026-01-19_16h09.40.790,MST_task,2024.2.0,59.99710814,2026-01-19 16h09.55.420326 +0530
,Objects\145a.jpg,120,0,121,,,,,,,f,0.8747739,0.1678913,None,,,,121,0,120,561.2362623,,,,,,,,,,,,,,,,,,,,,,,,,,,,,,561.2252855,561.2362623,561.7207514,,,,,,,,,,,,,,561.7395893,,,,,,,,,,561.7366888,561.7395893,561.7395893,561.7395893,564.7367251,f,0.8747739,0.1678913,564.736934,564.7369976,None,,,,,60,1,2026-01-19_16h09.40.790,MST_task,2024.2.0,59.99710814,2026-01-19 16h09.55.420326 +0530
,Objects\151a.jpg,121,0,122,,,,,,,f,0.7197737,0.1923903,None,,,,122,0,121,564.7530121,,,,,,,,,,,,,,,,,,,,,,,,,,,,,,564.7373494,564.7530121,565.2373205,,,,,,,,,,,,,,565.277326,,,,,,,,,,565.2734162,565.277326,565.277326,565.277326,568.2533191,f,0.7197737,0.1923903,568.2534288,568.253466,None,,,,,60,1,2026-01-19_16h09.40.790,MST_task,2024.2.0,59.99710814,2026-01-19 16h09.55.420326 +0530
,Objects\039a.jpg,122,0,123,,,,,,,j,1.6424116,0.1677933,None,,,,123,0,122,568.2695423,,,,,,,,,,,,,,,,,,,,,,,,,,,,,,568.2536656,568.2695423,568.7542185,,,,,,,,,,,,,,568.7954888,,,,,,,,,,568.7925565,568.7954888,568.7954888,568.7954888,571.7701379,j,1.6424116,0.1677933,571.7702504,571.7702889,None,,,,,60,1,2026-01-19_16h09.40.790,MST_task,2024.2.0,59.99710814,2026-01-19 16h09.55.420326 +0530
,Objects\096a.jpg,123,0,124,,,,,,,j,2.3063323,0.1529705,None,,,,124,0,123,571.7862818,,,,,,,,,,,,,,,,,,,,,,,,,,,,,,571.7705628,571.7862818,572.2706325,,,,,,,,,,,,,,572.3075258,,,,,,,,,,572.304794,572.3075258,572.3075258,572.3075258,575.2866872,j,2.3063323,0.1529705,575.2868482,575.2868875,None,,,,,60,1,2026-01-19_16h09.40.790,MST_task,2024.2.0,59.99710814,2026-01-19 16h09.55.420326 +0530
,Objects\122a.jpg,124,0,125,,,,,,,f,0.785712,0.2078909,None,,,,125,0,124,575.3028249,,,,,,,,,,,,,,,,,,,,,,,,,,,,,,575.2870935,575.3028249,575.7873938,,,,,,,,,,,,,,575.8277631,,,,,,,,,,575.8249106,575.8277631,575.8277631,575.8277631,578.8041908,f,0.785712,0.2078909,578.8043249,578.80437,None,,,,,60,1,2026-01-19_16h09.40.790,MST_task,2024.2.0,59.99710814,2026-01-19 16h09.55.420326 +0530
,Objects\057a.jpg,125,0,126,,,,,,,f,1.3995316,0.2319296,None,,,,126,0,125,578.8202647,,,,,,,,,,,,,,,,,,,,,,,,,,,,,,578.8046045,578.8202647,579.3041283,,,,,,,,,,,,,,579.3426811,,,,,,,,,,579.3394589,579.3426811,579.3426811,579.3426811,582.3203482,f,1.3995316,0.2319296,582.3205026,582.3205403,None,,,,,60,1,2026-01-19_16h09.40.790,MST_task,2024.2.0,59.99710814,2026-01-19 16h09.55.420326 +0530
,Scenes\009a.jpg,126,0,127,,,,,,,j,2.7032602,0.0716916,None,,,,127,0,126,582.3366875,,,,,,,,,,,,,,,,,,,,,,,,,,,,,,582.3207394,582.3366875,582.8205163,,,,,,,,,,,,,,582.9031021,,,,,,,,,,582.8996138,582.9031021,582.9031021,582.9031021,585.8364559,j,2.7032602,0.0716916,585.841893,585.8419512,None,,,,,60,1,2026-01-19_16h09.40.790,MST_task,2024.2.0,59.99710814,2026-01-19 16h09.55.420326 +0530
,Scenes\072a.jpg,127,0,128,,,,,,,j,1.2750197,0.1026586,None,,,,128,0,127,585.852455,,,,,,,,,,,,,,,,,,,,,,,,,,,,,,585.8421999,585.852455,586.3369889,,,,,,,,,,,,,,586.3712764,,,,,,,,,,586.3677574,586.3712764,586.3712764,586.3712764,589.3533948,j,1.2750197,0.1026586,589.353507,589.3535461,None,,,,,60,1,2026-01-19_16h09.40.790,MST_task,2024.2.0,59.99710814,2026-01-19 16h09.55.420326 +0530
,Scenes\144a.jpg,128,0,129,,,,,,,j,0.8846997,0.1680676,None,,,,129,0,128,589.3697916,,,,,,,,,,,,,,,,,,,,,,,,,,,,,,589.3538276,589.3697916,589.8539396,,,,,,,,,,,,,,589.9049505,,,,,,,,,,589.9016569,589.9049505,589.9049505,589.9049505,592.8698767,j,0.8846997,0.1680676,592.8699793,592.8700147,None,,,,,60,1,2026-01-19_16h09.40.790,MST_task,2024.2.0,59.99710814,2026-01-19 16h09.55.420326 +0530
,Scenes\014a.jpg,129,0,130,,,,,,,f,1.0017391,0.1434377,None,,,,130,0,129,592.8871127,,,,,,,,,,,,,,,,,,,,,,,,,,,,,,592.8702821,592.8871127,593.3706263,,,,,,,,,,,,,,593.4119312,,,,,,,,,,593.4089819,593.4119312,593.4119312,593.4119312,596.3868263,f,1.0017391,0.1434377,596.3870245,596.3870867,None,,,,,60,1,2026-01-19_16h09.40.790,MST_task,2024.2.0,59.99710814,2026-01-19 16h09.55.420326 +0530
,Scenes\011a.jpg,130,0,131,,,,,,,j,2.2976603,0.1674428,None,,,,131,0,130,596.4029669,,,,,,,,,,,,,,,,,,,,,,,,,,,,,,596.3874235,596.4029669,596.8875775,,,,,,,,,,,,,,,,,,,,,,,,596.9620785,596.965345,596.965345,596.965345,599.904472,j,2.2976603,0.1674428,599.9046442,599.9047056,None,,,,,60,1,2026-01-19_16h09.40.790,MST_task,2024.2.0,59.99710814,2026-01-19 16h09.55.420326 +0530
,Scenes\152a.jpg,131,0,132,,,,,,,j,1.0066877,0.1750542,None,,,,132,0,131,599.9196626,,,,,,,,,,,,,,,,,,,,,,,,,,,,,,599.9051837,599.9196626,600.4040705,,,,,,,,,,,,,,600.4874457,,,,,,,,,,600.4842969,600.4874457,600.4874457,600.4874457,603.4203791,j,1.0066877,0.1750542,603.4205434,603.4206059,None,,,,,60,1,2026-01-19_16h09.40.790,MST_task,2024.2.0,59.99710814,2026-01-19 16h09.55.420326 +0530
,Scenes\132a.jpg,132,0,133,,,,,,,j,1.2995412,0.1442425,None,,,,133,0,132,603.4364758,,,,,,,,,,,,,,,,,,,,,,,,,,,,,,603.4209691,603.4364758,603.9206942,,,,,,,,,,,,,,603.9865051,,,,,,,,,,603.9827356,603.9865051,603.9865051,603.9865051,606.9368278,j,1.2995412,0.1442425,606.9369627,606.9370117,None,,,,,60,1,2026-01-19_16h09.40.790,MST_task,2024.2.0,59.99710814,2026-01-19 16h09.55.420326 +0530
,Objects\134a.jpg,133,0,134,,,,,,,j,1.5460204,0.1520654,None,,,,134,0,133,606.9529445,,,,,,,,,,,,,,,,,,,,,,,,,,,,,,606.9372661,606.9529445,607.437352,,,,,,,,,,,,,,607.4840753,,,,,,,,,,607.4807831,607.4840753,607.4840753,607.4840753,610.4535836,j,1.5460204,0.1520654,610.4590941,610.4591155,None,,,,,60,1,2026-01-19_16h09.40.790,MST_task,2024.2.0,59.99710814,2026-01-19 16h09.55.420326 +0530
,Objects\105a.jpg,134,0,135,,,,,,,f,0.9515761,0.1359043,None,,,,135,0,134,610.4702884,,,,,,,,,,,,,,,,,,,,,,,,,,,,,,610.4592382,610.4702884,610.9544647,,,,,,,,,,,,,,610.9907501,,,,,,,,,,610.9873354,610.9907501,610.9907501,610.9907501,613.9701484,f,0.9515761,0.1359043,613.9702852,613.9703313,None,,,,,60,1,2026-01-19_16h09.40.790,MST_task,2024.2.0,59.99710814,2026-01-19 16h09.55.420326 +0530
,Objects\163a.jpg,135,0,136,,,,,,,j,0.8793738,0.144941,None,,,,136,0,135,613.9861337,,,,,,,,,,,,,,,,,,,,,,,,,,,,,,613.9705687,613.9861337,614.470736,,,,,,,,,,,,,,614.5095946,,,,,,,,,,614.506665,614.5095946,614.5095946,614.5095946,617.4868003,j,0.8793738,0.144941,617.4869602,617.4870052,None,,,,,60,1,2026-01-19_16h09.40.790,MST_task,2024.2.0,59.99710814,2026-01-19 16h09.55.420326 +0530
,Objects\187a.jpg,136,0,137,,,,,,,f,0.6006309,0.1197849,None,,,,137,0,136,617.5033149,,,,,,,,,,,,,,,,,,,,,,,,,,,,,,617.4872488,617.5033149,617.987276,,,,,,,,,,,,,,618.0295829,,,,,,,,,,618.0266886,618.0295829,618.0295829,618.0295829,621.0035464,f,0.6006309,0.1197849,621.0037259,621.0037877,None,,,,,60,1,2026-01-19_16h09.40.790,MST_task,2024.2.0,59.99710814,2026-01-19 16h09.55.420326 +0530
,Objects\167a.jpg,137,0,138,,,,,,,f,2.0104698,0.1450905,None,,,,138,0,137,621.0199679,,,,,,,,,,,,,,,,,,,,,,,,,,,,,,621.0041347,621.0199679,621.5040616,,,,,,,,,,,,,,621.5625331,,,,,,,,,,621.5598485,621.5625331,621.5625331,621.5625331,624.5200053,f,2.0104698,0.1450905,624.5201095,624.5201467,None,,,,,60,1,2026-01-19_16h09.40.790,MST_task,2024.2.0,59.99710814,2026-01-19 16h09.55.420326 +0530
,Objects\043a.jpg,138,0,139,,,,,,,j,1.9033109,0.2251458,None,,,,139,0,138,624.5363314,,,,,,,,,,,,,,,,,,,,,,,,,,,,,,624.5203546,624.5363314,625.0206205,,,,,,,,,,,,,,625.0543837,,,,,,,,,,625.0514994,625.0543837,625.0543837,625.0543837,628.037469,j,1.9033109,0.2251458,628.0375611,628.037593,None,,,,,60,1,2026-01-19_16h09.40.790,MST_task,2024.2.0,59.99710814,2026-01-19 16h09.55.420326 +0530
,Objects\127a.jpg,139,0,140,,,,,,,f,1.4599961,0.0973195,None,,,,140,0,139,628.0529106,,,,,,,,,,,,,,,,,,,,,,,,,,,,,,628.0377658,628.0529106,628.5376448,,,,,,,,,,,,,,628.576995,,,,,,,,,,628.5737297,628.576995,628.576995,628.576995,631.5533485,f,1.4599961,0.0973195,631.553474,631.5535167,None,,,,,60,1,2026-01-19_16h09.40.790,MST_task,2024.2.0,59.99710814,2026-01-19 16h09.55.420326 +0530
,Scenes\015a.jpg,140,0,141,,,,,,,j,1.2234056,0.1196038,None,,,,141,0,140,631.570154,,,,,,,,,,,,,,,,,,,,,,,,,,,,,,631.5537387,631.570154,632.0538949,,,,,,,,,,,,,,632.1430363,,,,,,,,,,632.138863,632.1430363,632.1430363,632.1430363,635.0706815,j,1.2234056,0.1196038,635.0758393,635.0759,None,,,,,60,1,2026-01-19_16h09.40.790,MST_task,2024.2.0,59.99710814,2026-01-19 16h09.55.420326 +0530
,Scenes\190a.jpg,141,0,142,,,,,,,j,0.7029839,0.2477099,None,,,,142,0,141,635.0864946,,,,,,,,,,,,,,,,,,,,,,,,,,,,,,635.0762578,635.0864946,635.5708674,,,,,,,,,,,,,,635.6634355,,,,,,,,,,635.6596362,635.6634355,635.6634355,635.6634355,638.5876495,j,0.7029839,0.2477099,638.5878169,638.5878791,None,,,,,60,1,2026-01-19_16h09.40.790,MST_task,2024.2.0,59.99710814,2026-01-19 16h09.55.420326 +0530
,Scenes\143a.jpg,142,0,143,,,,,,,j,0.5711887,0.1521851,None,,,,143,0,142,638.6029009,,,,,,,,,,,,,,,,,,,,,,,,,,,,,,638.5882007,638.6029009,639.0872815,,,,,,,,,,,,,,639.1550288,,,,,,,,,,639.1518448,639.1550288,639.1550288,639.1550288,642.1035781,j,0.5711887,0.1521851,642.1037444,642.103808,None,,,,,60,1,2026-01-19_16h09.40.790,MST_task,2024.2.0,59.99710814,2026-01-19 16h09.55.420326 +0530
,Scenes\019a.jpg,143,0,144,,,,,,,f,1.700404,0.11321,None,,,,144,0,143,642.1196866,,,,,,,,,,,,,,,,,,,,,,,,,,,,,,642.1041381,642.1196866,642.6045262,,,,,,,,,,,,,,642.6726256,,,,,,,,,,642.6694533,642.6726256,642.6726256,642.6726256,645.6198844,f,1.700404,0.11321,645.6199663,645.6199933,None,,,,,60,1,2026-01-19_16h09.40.790,MST_task,2024.2.0,59.99710814,2026-01-19 16h09.55.420326 +0530
,Scenes\086a.jpg,144,0,145,,,,,,,j,0.8602621,0.152781,None,,,,145,0,144,645.6363024,,,,,,,,,,,,,,,,,,,,,,,,,,,,,,645.6201416,645.6363024,646.1206513,,,,,,,,,,,,,,646.1929168,,,,,,,,,,646.1896267,646.1929168,646.1929168,646.1929168,649.1203724,j,0.8602621,0.152781,649.1204868,649.1205267,None,,,,,60,1,2026-01-19_16h09.40.790,MST_task,2024.2.0,59.99710814,2026-01-19 16h09.55.420326 +0530
,Scenes\131a.jpg,145,0,146,,,,,,,j,1.0205771,0.2397693,None,,,,146,0,145,649.1363377,,,,,,,,,,,,,,,,,,,,,,,,,,,,,,649.120732,649.1363377,649.6206548,,,,,,,,,,,,,,649.6816457,,,,,,,,,,649.6776852,649.6816457,649.6816457,649.6816457,652.6370181,j,1.0205771,0.2397693,652.6371475,652.6371924,None,,,,,60,1,2026-01-19_16h09.40.790,MST_task,2024.2.0,59.99710814,2026-01-19 16h09.55.420326 +0530
,Scenes\002a.jpg,146,0,147,,,,,,,j,0.8463629,0.1592355,None,,,,147,0,146,652.6529264,,,,,,,,,,,,,,,,,,,,,,,,,,,,,,652.6374362,652.6529264,653.1373789,,,,,,,,,,,,,,653.2237877,,,,,,,,,,653.2200405,653.2237877,653.2237877,653.2237877,656.1533402,j,0.8463629,0.1592355,656.1535086,656.1535709,None,,,,,60,1,2026-01-19_16h09.40.790,MST_task,2024.2.0,59.99710814,2026-01-19 16h09.55.420326 +0530
,Objects\102a.jpg,147,0,148,,,,,,,f,1.0811154,0.1446176,None,,,,148,0,147,656.1695901,,,,,,,,,,,,,,,,,,,,,,,,,,,,,,656.1539963,656.1695901,656.6541441,,,,,,,,,,,,,,656.7004298,,,,,,,,,,656.6967246,656.7004298,656.7004298,656.7004298,659.6541278,f,1.0811154,0.1446176,659.658853,659.6589125,None,,,,,60,1,2026-01-19_16h09.40.790,MST_task,2024.2.0,59.99710814,2026-01-19 16h09.55.420326 +0530
,Objects\048a.jpg,148,0,149,,,,,,,j,1.4364228,0.1679776,None,,,,149,0,148,659.6695587,,,,,,,,,,,,,,,,,,,,,,,,,,,,,,659.6591732,659.6695587,660.1539005,,,,,,,,,,,,,,660.193692,,,,,,,,,,660.1905513,660.193692,660.193692,660.193692,663.1699048,j,1.4364228,0.1679776,663.1700177,663.1700557,None,,,,,60,1,2026-01-19_16h09.40.790,MST_task,2024.2.0,59.99710814,2026-01-19 16h09.55.420326 +0530
,Objects\176a.jpg,149,0,150,,,,,,,j,0.7452247,0.1444283,None,,,,150,0,149,663.1868348,,,,,,,,,,,,,,,,,,,,,,,,,,,,,,663.1702559,663.1868348,663.6706066,,,,,,,,,,,,,,663.7082918,,,,,,,,,,663.7054283,663.7082918,663.7082918,663.7082918,666.687023,j,0.7452247,0.1444283,666.6871332,666.6871687,None,,,,,60,1,2026-01-19_16h09.40.790,MST_task,2024.2.0,59.99710814,2026-01-19 16h09.55.420326 +0530
,Objects\108a.jpg,150,0,151,,,,,,,j,1.4427027,0.176584,None,,,,151,0,150,666.7029496,,,,,,,,,,,,,,,,,,,,,,,,,,,,,,666.6874294,666.7029496,667.1873717,,,,,,,,,,,,,,,,,,,,,,,,667.23173,667.2348657,667.2348657,667.2348657,670.2035388,j,1.4427027,0.176584,670.2036945,670.2037347,None,,,,,60,1,2026-01-19_16h09.40.790,MST_task,2024.2.0,59.99710814,2026-01-19 16h09.55.420326 +0530
,Objects\076a.jpg,151,0,152,,,,,,,f,1.6576695,0.119467,None,,,,152,0,151,670.2194449,,,,,,,,,,,,,,,,,,,,,,,,,,,,,,670.2040206,670.2194449,670.7044838,,,,,,,,,,,,,,670.740145,,,,,,,,,,670.7371689,670.740145,670.740145,670.740145,673.7197907,f,1.6576695,0.119467,673.7198935,673.7199272,None,,,,,60,1,2026-01-19_16h09.40.790,MST_task,2024.2.0,59.99710814,2026-01-19 16h09.55.420326 +0530
,Objects\010a.jpg,152,0,153,,,,,,,f,1.1467827,0.1451324,None,,,,153,0,152,673.7370627,,,,,,,,,,,,,,,,,,,,,,,,,,,,,,673.7201655,673.7370627,674.2365375,,,,,,,,,,,,,,,,,,,,,,,,674.2708908,674.2741703,674.2741703,674.2741703,677.2366586,f,1.1467827,0.1451324,677.2368365,677.2368855,None,,,,,60,1,2026-01-19_16h09.40.790,MST_task,2024.2.0,59.99710814,2026-01-19 16h09.55.420326 +0530
,Objects\120a.jpg,153,0,154,,,,,,,f,1.7972638,0.1684137,None,,,,154,0,153,677.2533222,,,,,,,,,,,,,,,,,,,,,,,,,,,,,,677.2371395,677.2533222,677.7376261,,,,,,,,,,,,,,,,,,,,,,,,677.7736669,677.7761448,677.7761448,677.7761448,680.7532294,f,1.7972638,0.1684137,680.753303,680.7533285,None,,,,,60,1,2026-01-19_16h09.40.790,MST_task,2024.2.0,59.99710814,2026-01-19 16h09.55.420326 +0530
,Scenes\177a.jpg,154,0,155,,,,,,,j,0.9473119,0.1836773,None,,,,155,0,154,680.7695272,,,,,,,,,,,,,,,,,,,,,,,,,,,,,,680.7534598,680.7695272,681.2544522,,,,,,,,,,,,,,681.3226841,,,,,,,,,,681.3196149,681.3226841,681.3226841,681.3226841,684.2536814,j,0.9473119,0.1836773,684.2575832,684.2576213,None,,,,,60,1,2026-01-19_16h09.40.790,MST_task,2024.2.0,59.99710814,2026-01-19 16h09.55.420326 +0530
,Scenes\170a.jpg,155,0,156,,,,,,,j,0.775397,0.2145937,None,,,,156,0,155,684.2696038,,,,,,,,,,,,,,,,,,,,,,,,,,,,,,684.2577753,684.2696038,684.7545427,,,,,,,,,,,,,,684.8308509,,,,,,,,,,684.8270714,684.8308509,684.8308509,684.8308509,687.7701395,j,0.775397,0.2145937,687.7702475,687.7702841,None,,,,,60,1,2026-01-19_16h09.40.790,MST_task,2024.2.0,59.99710814,2026-01-19 16h09.55.420326 +0530
,Scenes\041a.jpg,156,0,157,,,,,,,j,0.9017319,0.1448351,None,,,,157,0,156,687.7862717,,,,,,,,,,,,,,,,,,,,,,,,,,,,,,687.770619,687.7862717,688.2706833,,,,,,,,,,,,,,,,,,,,,,,,688.3635304,688.3675738,688.3675738,688.3675738,691.2866736,j,0.9017319,0.1448351,691.286843,691.2868814,None,,,,,60,1,2026-01-19_16h09.40.790,MST_task,2024.2.0,59.99710814,2026-01-19 16h09.55.420326 +0530
,Scenes\189a.jpg,157,0,158,,,,,,,j,1.1359452,0.1679076,None,,,,158,0,157,691.302938,,,,,,,,,,,,,,,,,,,,,,,,,,,,,,691.2870775,691.302938,691.7875579,,,,,,,,,,,,,,691.8783278,,,,,,,,,,691.8750047,691.8783278,691.8783278,691.8783278,694.8034383,j,1.1359452,0.1679076,694.8036497,694.8037118,None,,,,,60,1,2026-01-19_16h09.40.790,MST_task,2024.2.0,59.99710814,2026-01-19 16h09.55.420326 +0530
,Scenes\146a.jpg,158,0,159,,,,,,,j,1.2173042,0.1836024,None,,,,159,0,158,694.8196623,,,,,,,,,,,,,,,,,,,,,,,,,,,,,,694.8040035,694.8196623,695.3043478,,,,,,,,,,,,,,695.3966422,,,,,,,,,,695.3935693,695.3966422,695.3966422,695.3966422,698.3204198,j,1.2173042,0.1836024,698.3205255,698.3205633,None,,,,,60,1,2026-01-19_16h09.40.790,MST_task,2024.2.0,59.99710814,2026-01-19 16h09.55.420326 +0530
,Scenes\185a.jpg,159,0,160,,,,,,,j,1.2963413,0.1914,None,,,,160,0,159,698.3361282,,,,,,,,,,,,,,,,,,,,,,,,,,,,,,698.3208379,698.3361282,698.8207508,,,,,,,,,,,,,,698.8930713,,,,,,,,,,698.8894621,698.8930713,698.8930713,698.8930713,701.8369061,j,1.2963413,0.1914,701.837062,701.8370965,None,,,,,60,1,2026-01-19_16h09.40.790,MST_task,2024.2.0,59.99710814,2026-01-19 16h09.55.420326 +0530
,Scenes\062a.jpg,160,0,161,,,,,,,j,1.0360512,0.1926594,None,,,,161,0,160,701.85299,,,,,,,,,,,,,,,,,,,,,,,,,,,,,,701.8372725,701.85299,702.3375261,,,,,,,,,,,,,,702.417292,,,,,,,,,,702.4134706,702.417292,702.417292,702.417292,705.3536678,j,1.0360512,0.1926594,705.3538387,705.3539005,None,,,,,60,1,2026-01-19_16h09.40.790,MST_task,2024.2.0,59.99710814,2026-01-19 16h09.55.420326 +0530
,Objects\117a.jpg,161,0,162,,,,,,,f,1.1393543,0.1436959,None,,,,162,0,161,705.3696512,,,,,,,,,,,,,,,,,,,,,,,,,,,,,,705.3542571,705.3696512,705.8538981,,,,,,,,,,,,,,705.8981658,,,,,,,,,,705.8949707,705.8981658,705.8981658,705.8981658,708.8699681,f,1.1393543,0.1436959,708.8756647,708.8757084,None,,,,,60,1,2026-01-19_16h09.40.790,MST_task,2024.2.0,59.99710814,2026-01-19 16h09.55.420326 +0530
,Objects\013a.jpg,162,0,163,,,,,,,j,0.8001875,0.1926884,None,,,,163,0,162,708.8863272,,,,,,,,,,,,,,,,,,,,,,,,,,,,,,708.8758916,708.8863272,709.3703288,,,,,,,,,,,,,,709.4056304,,,,,,,,,,709.4029933,709.4056304,709.4056304,709.4056304,712.3866351,j,0.8001875,0.1926884,712.3867977,712.3868332,None,,,,,60,1,2026-01-19_16h09.40.790,MST_task,2024.2.0,59.99710814,2026-01-19 16h09.55.420326 +0530
,Objects\143a.jpg,163,0,164,,,,,,,j,1.9858767,0.2160018,None,,,,164,0,163,712.4029644,,,,,,,,,,,,,,,,,,,,,,,,,,,,,,712.3870192,712.4029644,712.8878489,,,,,,,,,,,,,,,,,,,,,,,,712.9837625,712.987036,712.987036,712.987036,715.9032671,j,1.9858767,0.2160018,715.9034314,715.9034806,None,,,,,60,1,2026-01-19_16h09.40.790,MST_task,2024.2.0,59.99710814,2026-01-19 16h09.55.420326 +0530
,Objects\051a.jpg,164,0,165,,,,,,,j,1.5528037,0.2010177,None,,,,165,0,164,715.9195829,,,,,,,,,,,,,,,,,,,,,,,,,,,,,,715.903743,715.9195829,716.4038408,,,,,,,,,,,,,,716.4448121,,,,,,,,,,716.4416929,716.4448121,716.4448121,716.4448121,719.420297,j,1.5528037,0.2010177,719.4204661,719.4205281,None,,,,,60,1,2026-01-19_16h09.40.790,MST_task,2024.2.0,59.99710814,2026-01-19 16h09.55.420326 +0530
,Objects\007a.jpg,165,0,166,,,,,,,j,1.9295789,0.1922177,None,,,,166,0,165,719.4362619,,,,,,,,,,,,,,,,,,,,,,,,,,,,,,719.4208593,719.4362619,719.9206784,,,,,,,,,,,,,,719.9558997,,,,,,,,,,719.9531121,719.9558997,719.9558997,719.9558997,722.9366432,j,1.9295789,0.1922177,722.9368115,722.9368913,None,,,,,60,1,2026-01-19_16h09.40.790,MST_task,2024.2.0,59.99710814,2026-01-19 16h09.55.420326 +0530
,Objects\155a.jpg,166,0,167,,,,,,,f,1.0329997,0.143498,None,,,,167,0,166,722.9529783,,,,,,,,,,,,,,,,,,,,,,,,,,,,,,722.9372069,722.9529783,723.4374363,,,,,,,,,,,,,,723.4929002,,,,,,,,,,723.489894,723.4929002,723.4929002,723.4929002,726.4533544,f,1.0329997,0.143498,726.4534821,726.4535244,None,,,,,60,1,2026-01-19_16h09.40.790,MST_task,2024.2.0,59.99710814,2026-01-19 16h09.55.420326 +0530
,Objects\184a.jpg,167,0,168,,,,,,,j,0.9414191,0.1686117,None,,,,168,0,167,726.4695964,,,,,,,,,,,,,,,,,,,,,,,,,,,,,,726.4538337,726.4695964,726.9540882,,,,,,,,,,,,,,726.999513,,,,,,,,,,726.9964486,726.999513,726.999513,726.999513,729.9704847,j,0.9414191,0.1686117,729.9706643,729.9707258,None,,,,,60,1,2026-01-19_16h09.40.790,MST_task,2024.2.0,59.99710814,2026-01-19 16h09.55.420326 +0530
,Scenes\181a.jpg,168,0,169,,,,,,,f,1.5461313,0.1587772,None,,,,169,0,168,729.986249,,,,,,,,,,,,,,,,,,,,,,,,,,,,,,729.9710824,729.986249,730.4707624,,,,,,,,,,,,,,730.5480275,,,,,,,,,,730.5447091,730.5480275,730.5480275,730.5480275,733.4867171,f,1.5461313,0.1587772,733.4915563,733.4916097,None,,,,,60,1,2026-01-19_16h09.40.790,MST_task,2024.2.0,59.99710814,2026-01-19 16h09.55.420326 +0530
,Scenes\032a.jpg,169,0,170,,,,,,,j,0.7880853,0.1608816,None,,,,170,0,169,733.5029043,,,,,,,,,,,,,,,,,,,,,,,,,,,,,,733.4918304,733.5029043,733.9874871,,,,,,,,,,,,,,734.0898509,,,,,,,,,,734.0856391,734.0898509,734.0898509,734.0898509,737.0033733,j,0.7880853,0.1608816,737.0035427,737.0036044,None,,,,,60,1,2026-01-19_16h09.40.790,MST_task,2024.2.0,59.99710814,2026-01-19 16h09.55.420326 +0530
,Scenes\119a.jpg,170,0,171,,,,,,,j,0.8136795,0.1364874,None,,,,171,0,170,737.0197467,,,,,,,,,,,,,,,,,,,,,,,,,,,,,,737.0038218,737.0197467,737.5039072,,,,,,,,,,,,,,737.5680346,,,,,,,,,,737.563662,737.5680346,737.5680346,737.5680346,740.5200097,j,0.8136795,0.1364874,740.5201775,740.5202399,None,,,,,60,1,2026-01-19_16h09.40.790,MST_task,2024.2.0,59.99710814,2026-01-19 16h09.55.420326 +0530
,Scenes\087a.jpg,171,0,172,,,,,,,j,1.006687,0.1445921,None,,,,172,0,171,740.5371417,,,,,,,,,,,,,,,,,,,,,,,,,,,,,,740.5206317,740.5371417,741.0206965,,,,,,,,,,,,,,741.1582249,,,,,,,,,,741.1550745,741.1582249,741.1582249,741.1582249,744.0369633,j,1.006687,0.1445921,744.0371323,744.0371943,None,,,,,60,1,2026-01-19_16h09.40.790,MST_task,2024.2.0,59.99710814,2026-01-19 16h09.55.420326 +0530
,Scenes\074a.jpg,172,0,173,,,,,,,j,1.2223136,0.1447548,None,,,,173,0,172,744.0529251,,,,,,,,,,,,,,,,,,,,,,,,,,,,,,744.0374779,744.0529251,744.5373578,,,,,,,,,,,,,,744.5987778,,,,,,,,,,744.5956207,744.5987778,744.5987778,744.5987778,747.5533818,j,1.2223136,0.1447548,747.553513,747.5535585,None,,,,,60,1,2026-01-19_16h09.40.790,MST_task,2024.2.0,59.99710814,2026-01-19 16h09.55.420326 +0530
,Scenes\175a.jpg,173,0,174,,,,,,,j,1.1863098,0.168357,None,,,,174,0,173,747.5694761,,,,,,,,,,,,,,,,,,,,,,,,,,,,,,747.5538887,747.5694761,748.0540864,,,,,,,,,,,,,,748.1153773,,,,,,,,,,748.1110994,748.1153773,748.1153773,748.1153773,751.0701221,j,1.1863098,0.168357,751.0702903,751.0703538,None,,,,,60,1,2026-01-19_16h09.40.790,MST_task,2024.2.0,59.99710814,2026-01-19 16h09.55.420326 +0530
,Scenes\091a.jpg,174,0,175,,,,,,,j,1.3169534,0.1748084,None,,,,175,0,174,751.0861994,,,,,,,,,,,,,,,,,,,,,,,,,,,,,,751.0706208,751.0861994,751.5707598,,,,,,,,,,,,,,751.6491793,,,,,,,,,,751.6459705,751.6491793,751.6491793,751.6491793,754.571385,j,1.3169534,0.1748084,754.5715536,754.5716161,None,,,,,60,1,2026-01-19_16h09.40.790,MST_task,2024.2.0,59.99710814,2026-01-19 16h09.55.420326 +0530
,Objects\157a.jpg,175,0,176,,,,,,,f,0.6129398,0.1443728,None,,,,176,0,175,754.5862979,,,,,,,,,,,,,,,,,,,,,,,,,,,,,,754.5719895,754.5862979,755.0706428,,,,,,,,,,,,,,755.1128257,,,,,,,,,,755.1091112,755.1128257,755.1128257,755.1128257,758.0866442,f,0.6129398,0.1443728,758.0918999,758.0919446,None,,,,,60,1,2026-01-19_16h09.40.790,MST_task,2024.2.0,59.99710814,2026-01-19 16h09.55.420326 +0530
,Objects\186a.jpg,176,0,177,,,,,,,f,0.6065939,0.1365783,None,,,,177,0,176,758.1030372,,,,,,,,,,,,,,,,,,,,,,,,,,,,,,758.0922115,758.1030372,758.5875117,,,,,,,,,,,,,,758.6308391,,,,,,,,,,758.627952,758.6308391,758.6308391,758.6308391,761.6038743,f,0.6065939,0.1365783,761.6039871,761.6040257,None,,,,,60,1,2026-01-19_16h09.40.790,MST_task,2024.2.0,59.99710814,2026-01-19 16h09.55.420326 +0530
,Objects\009a.jpg,177,0,178,,,,,,,f,1.9984409,0.167724,None,,,,178,0,177,761.6196213,,,,,,,,,,,,,,,,,,,,,,,,,,,,,,761.6042231,761.6196213,762.1044288,,,,,,,,,,,,,,762.1520207,,,,,,,,,,762.1483381,762.1520207,762.1520207,762.1520207,765.119934,f,1.9984409,0.167724,765.1201191,765.120183,None,,,,,60,1,2026-01-19_16h09.40.790,MST_task,2024.2.0,59.99710814,2026-01-19 16h09.55.420326 +0530
,Objects\025a.jpg,178,0,179,,,,,,,j,1.1122716,0.1848289,None,,,,179,0,178,765.1363963,,,,,,,,,,,,,,,,,,,,,,,,,,,,,,765.1204757,765.1363963,765.6205348,,,,,,,,,,,,,,765.6606553,,,,,,,,,,765.6579365,765.6606553,765.6606553,765.6606553,768.6375656,j,1.1122716,0.1848289,768.6376672,768.6377154,None,,,,,60,1,2026-01-19_16h09.40.790,MST_task,2024.2.0,59.99710814,2026-01-19 16h09.55.420326 +0530
,Objects\112a.jpg,179,0,180,,,,,,,f,0.7090398,0.16739,None,,,,180,0,179,768.6529196,,,,,,,,,,,,,,,,,,,,,,,,,,,,,,768.6379504,768.6529196,769.1373473,,,,,,,,,,,,,,769.1770235,,,,,,,,,,769.1744194,769.1770235,769.1770235,769.1770235,772.1535351,f,0.7090398,0.16739,772.1536499,772.1536899,None,,,,,60,1,2026-01-19_16h09.40.790,MST_task,2024.2.0,59.99710814,2026-01-19 16h09.55.420326 +0530
,Objects\183a.jpg,180,0,181,,,,,,,j,0.6322396,0.1525311,None,,,,181,0,180,772.1695637,,,,,,,,,,,,,,,,,,,,,,,,,,,,,,772.1538986,772.1695637,772.654241,,,,,,,,,,,,,,772.6930689,,,,,,,,,,772.6900382,772.6930689,772.6930689,772.6930689,775.670054,j,0.6322396,0.1525311,775.6701605,775.6701983,None,,,,,60,1,2026-01-19_16h09.40.790,MST_task,2024.2.0,59.99710814,2026-01-19 16h09.55.420326 +0530
,Objects\015a.jpg,181,0,182,,,,,,,f,0.9232135,0.1600047,None,,,,182,0,181,775.6864565,,,,,,,,,,,,,,,,,,,,,,,,,,,,,,775.6704689,775.6864565,776.1706188,,,,,,,,,,,,,,776.226297,,,,,,,,,,776.2236432,776.226297,776.226297,776.226297,779.1868549,f,0.9232135,0.1600047,779.1870125,779.1870497,None,,,,,60,1,2026-01-19_16h09.40.790,MST_task,2024.2.0,59.99710814,2026-01-19 16h09.55.420326 +0530
,Scenes\126a.jpg,182,0,183,,,,,,,j,1.122504,0.1592292,None,,,,183,0,182,779.2028466,,,,,,,,,,,,,,,,,,,,,,,,,,,,,,779.1873147,779.2028466,779.6872248,,,,,,,,,,,,,,779.7473523,,,,,,,,,,779.7440209,779.7473523,779.7473523,779.7473523,782.7031481,j,1.122504,0.1592292,782.7065197,782.7065527,None,,,,,60,1,2026-01-19_16h09.40.790,MST_task,2024.2.0,59.99710814,2026-01-19 16h09.55.420326 +0530
,Scenes\163a.jpg,183,0,184,,,,,,,j,0.6651352,0.1598102,None,,,,184,0,183,782.7199536,,,,,,,,,,,,,,,,,,,,,,,,,,,,,,782.7067619,782.7199536,783.204045,,,,,,,,,,,,,,783.3489731,,,,,,,,,,783.3460535,783.3489731,783.3489731,783.3489731,786.2196717,j,0.6651352,0.1598102,786.2197421,786.2197673,None,,,,,60,1,2026-01-19_16h09.40.790,MST_task,2024.2.0,59.99710814,2026-01-19 16h09.55.420326 +0530
,Scenes\155a.jpg,184,0,185,,,,,,,j,0.6702361,0.1441702,None,,,,185,0,184,786.2362481,,,,,,,,,,,,,,,,,,,,,,,,,,,,,,786.2199996,786.2362481,786.720193,,,,,,,,,,,,,,,,,,,,,,,,786.8105098,786.8150447,786.8150447,786.8150447,789.7201362,j,0.6702361,0.1441702,789.7202611,789.7203051,None,,,,,60,1,2026-01-19_16h09.40.790,MST_task,2024.2.0,59.99710814,2026-01-19 16h09.55.420326 +0530
,Scenes\174a.jpg,185,0,186,,,,,,,j,0.6610973,0.1425934,None,,,,186,0,185,789.7364488,,,,,,,,,,,,,,,,,,,,,,,,,,,,,,789.720562,789.7364488,790.2208506,,,,,,,,,,,,,,790.2818403,,,,,,,,,,790.2788056,790.2818403,790.2818403,790.2818403,793.2366604,j,0.6610973,0.1425934,793.2368236,793.236861,None,,,,,60,1,2026-01-19_16h09.40.790,MST_task,2024.2.0,59.99710814,2026-01-19 16h09.55.420326 +0530
,Scenes\035a.jpg,186,0,187,,,,,,,j,1.7079704,0.2488542,None,,,,187,0,186,793.2533854,,,,,,,,,,,,,,,,,,,,,,,,,,,,,,793.2370714,793.2533854,793.7371682,,,,,,,,,,,,,,,,,,,,,,,,793.8141761,793.8172259,793.8172259,793.8172259,796.7532328,j,1.7079704,0.2488542,796.7533567,796.7533997,None,,,,,60,1,2026-01-19_16h09.40.790,MST_task,2024.2.0,59.99710814,2026-01-19 16h09.55.420326 +0530
,Scenes\018a.jpg,187,0,188,,,,,,,f,1.9159145,0.1679483,None,,,,188,0,187,796.769713,,,,,,,,,,,,,,,,,,,,,,,,,,,,,,796.7536359,796.769713,797.2540531,,,,,,,,,,,,,,797.3214437,,,,,,,,,,797.3176508,797.3214437,797.3214437,797.3214437,800.2701553,f,1.9159145,0.1679483,800.2702951,800.2703385,None,,,,,60,1,2026-01-19_16h09.40.790,MST_task,2024.2.0,59.99710814,2026-01-19 16h09.55.420326 +0530
,Scenes\122a.jpg,188,0,189,,,,,,,j,2.1141373,0.1912673,None,,,,189,0,188,800.2863282,,,,,,,,,,,,,,,,,,,,,,,,,,,,,,800.2705751,800.2863282,800.7707386,,,,,,,,,,,,,,800.8353998,,,,,,,,,,800.8321625,800.8353998,800.8353998,800.8353998,803.786715,j,2.1141373,0.1912673,803.7868958,803.7869599,None,,,,,60,1,2026-01-19_16h09.40.790,MST_task,2024.2.0,59.99710814,2026-01-19 16h09.55.420326 +0530
,Objects\061a.jpg,189,0,190,,,,,,,j,1.143016,0.176348,None,,,,190,0,189,803.8030667,,,,,,,,,,,,,,,,,,,,,,,,,,,,,,803.7873251,803.8030667,804.2878645,,,,,,,,,,,,,,804.3260442,,,,,,,,,,804.3225418,804.3260442,804.3260442,804.3260442,807.3030022,j,1.143016,0.176348,807.3082014,807.3082458,None,,,,,60,1,2026-01-19_16h09.40.790,MST_task,2024.2.0,59.99710814,2026-01-19 16h09.55.420326 +0530
,Objects\098a.jpg,190,0,191,,,,,,,f,2.252803,0.1519776,None,,,,191,0,190,807.3195839,,,,,,,,,,,,,,,,,,,,,,,,,,,,,,807.30848,807.3195839,807.8038259,,,,,,,,,,,,,,807.8327024,,,,,,,,,,807.8299103,807.8327024,807.8327024,807.8327024,810.8201244,f,2.252803,0.1519776,810.8202477,810.820292,None,,,,,60,1,2026-01-19_16h09.40.790,MST_task,2024.2.0,59.99710814,2026-01-19 16h09.55.420326 +0530
,Objects\170a.jpg,191,0,192,,,,,,,j,1.2981249,0.1035667,None,,,,192,0,191,810.836598,,,,,,,,,,,,,,,,,,,,,,,,,,,,,,810.8206085,810.836598,811.3213686,,,,,,,,,,,,,,811.3633561,,,,,,,,,,811.3601502,811.3633561,811.3633561,811.3633561,814.3362458,j,1.2981249,0.1035667,814.3363851,814.3364305,None,,,,,60,1,2026-01-19_16h09.40.790,MST_task,2024.2.0,59.99710814,2026-01-19 16h09.55.420326 +0530
,Objects\114a.jpg,192,0,193,,,,,,,f,0.6980686,0.1603871,None,,,,193,0,192,814.3526199,,,,,,,,,,,,,,,,,,,,,,,,,,,,,,814.3366866,814.3526199,814.8365947,,,,,,,,,,,,,,814.8755743,,,,,,,,,,814.8730812,814.8755743,814.8755743,814.8755743,817.8368773,f,0.6980686,0.1603871,817.8370441,817.8371069,None,,,,,60,1,2026-01-19_16h09.40.790,MST_task,2024.2.0,59.99710814,2026-01-19 16h09.55.420326 +0530
,Objects\173a.jpg,193,0,194,,,,,,,f,1.4984473,0.2489819,None,,,,194,0,193,817.8529893,,,,,,,,,,,,,,,,,,,,,,,,,,,,,,817.8374053,817.8529893,818.3373928,,,,,,,,,,,,,,818.3868857,,,,,,,,,,818.3832235,818.3868857,818.3868857,818.3868857,821.353639,f,1.4984473,0.2489819,821.3538054,821.3538675,None,,,,,60,1,2026-01-19_16h09.40.790,MST_task,2024.2.0,59.99710814,2026-01-19 16h09.55.420326 +0530
,Objects\033a.jpg,194,0,195,,,,,,,j,0.8798814,0.1693294,None,,,,195,0,194,821.3695984,,,,,,,,,,,,,,,,,,,,,,,,,,,,,,821.3542937,821.3695984,821.8545447,,,,,,,,,,,,,,821.8928425,,,,,,,,,,821.8901438,821.8928425,821.8928425,821.8928425,824.8699526,j,0.8798814,0.1693294,824.8700573,824.8700957,None,,,,,60,1,2026-01-19_16h09.40.790,MST_task,2024.2.0,59.99710814,2026-01-19 16h09.55.420326 +0530
,Objects\111a.jpg,195,0,196,,,,,,,j,1.3574785,0.168598,None,,,,196,0,195,824.8866339,,,,,,,,,,,,,,,,,,,,,,,,,,,,,,824.8702913,824.8866339,825.3704794,,,,,,,,,,,,,,825.5197554,,,,,,,,,,825.5152994,825.5197554,825.5197554,825.5197554,828.3711294,j,1.3574785,0.168598,828.3713024,828.3713665,None,,,,,60,1,2026-01-19_16h09.40.790,MST_task,2024.2.0,59.99710814,2026-01-19 16h09.55.420326 +0530
,Scenes\027a.jpg,196,0,197,,,,,,,f,2.1024629,0.1510561,None,,,,197,0,196,828.3864059,,,,,,,,,,,,,,,,,,,,,,,,,,,,,,828.371738,828.3864059,828.8705812,,,,,,,,,,,,,,828.9434098,,,,,,,,,,828.9404908,828.9434098,828.9434098,828.9434098,831.8871138,f,2.1024629,0.1510561,831.8926426,831.8927013,None,,,,,60,1,2026-01-19_16h09.40.790,MST_task,2024.2.0,59.99710814,2026-01-19 16h09.55.420326 +0530
,Scenes\106a.jpg,197,0,198,,,,,,,j,0.7344223,0.1282085,None,,,,198,0,197,831.9035502,,,,,,,,,,,,,,,,,,,,,,,,,,,,,,831.8929391,831.9035502,832.3873078,,,,,,,,,,,,,,832.4708742,,,,,,,,,,832.4666303,832.4708742,832.4708742,832.4708742,835.4034499,j,0.7344223,0.1282085,835.4035564,835.4035941,None,,,,,60,1,2026-01-19_16h09.40.790,MST_task,2024.2.0,59.99710814,2026-01-19 16h09.55.420326 +0530
,Scenes\013a.jpg,198,0,199,,,,,,,j,0.7869404,0.1753155,None,,,,199,0,198,835.4198125,,,,,,,,,,,,,,,,,,,,,,,,,,,,,,835.4038663,835.4198125,835.904255,,,,,,,,,,,,,,835.9946816,,,,,,,,,,835.9909087,835.9946816,835.9946816,835.9946816,838.9204684,j,0.7869404,0.1753155,838.9206353,838.9206971,None,,,,,60,1,2026-01-19_16h09.40.790,MST_task,2024.2.0,59.99710814,2026-01-19 16h09.55.420326 +0530
,Scenes\192a.jpg,199,0,200,,,,,,,j,1.1758448,0.1268903,None,,,,200,0,199,838.9362161,,,,,,,,,,,,,,,,,,,,,,,,,,,,,,838.9210505,838.9362161,839.420769,,,,,,,,,,,,,,839.4944382,,,,,,,,,,839.4912348,839.4944382,839.4944382,839.4944382,842.4373624,j,1.1758448,0.1268903,842.4374767,842.4375158,None,,,,,60,1,2026-01-19_16h09.40.790,MST_task,2024.2.0,59.99710814,2026-01-19 16h09.55.420326 +0530
,Scenes\079a.jpg,200,0,201,,,,,,,j,1.2459594,0.2002215,None,,,,201,0,200,842.452914,,,,,,,,,,,,,,,,,,,,,,,,,,,,,,842.4377107,842.452914,842.9361622,,,,,,,,,,,,,,843.0237833,,,,,,,,,,843.0203692,843.0237833,843.0237833,843.0237833,845.9535912,j,1.2459594,0.2002215,845.9537595,845.9538221,None,,,,,60,1,2026-01-19_16h09.40.790,MST_task,2024.2.0,59.99710814,2026-01-19 16h09.55.420326 +0530
,Scenes\105a.jpg,201,0,202,,,,,,,j,0.5682152,0.1353737,None,,,,202,0,201,845.9696431,,,,,,,,,,,,,,,,,,,,,,,,,,,,,,845.9542649,845.9696431,846.4541531,,,,,,,,,,,,,,846.5172686,,,,,,,,,,846.5133294,846.5172686,846.5172686,846.5172686,849.4703096,j,0.5682152,0.1353737,849.4704795,849.4705434,None,,,,,60,1,2026-01-19_16h09.40.790,MST_task,2024.2.0,59.99710814,2026-01-19 16h09.55.420326 +0530
,Scenes\124a.jpg,202,0,203,,,,,,,f,0.9822131,0.1682069,None,,,,203,0,202,849.4862973,,,,,,,,,,,,,,,,,,,,,,,,,,,,,,849.4709709,849.4862973,849.9706696,,,,,,,,,,,,,,850.0314052,,,,,,,,,,850.0276339,850.0314052,850.0314052,850.0314052,852.9871315,f,0.9822131,0.1682069,852.9872623,852.9873052,None,,,,,60,1,2026-01-19_16h09.40.790,MST_task,2024.2.0,59.99710814,2026-01-19 16h09.55.420326 +0530
,Objects\131a.jpg,203,0,204,,,,,,,f,1.2428158,0.1685236,None,,,,204,0,203,853.003172,,,,,,,,,,,,,,,,,,,,,,,,,,,,,,852.9876559,853.003172,853.4873445,,,,,,,,,,,,,,853.5466102,,,,,,,,,,853.5433103,853.5466102,853.5466102,853.5466102,856.5037448,f,1.2428158,0.1685236,856.5089378,856.5089862,None,,,,,60,1,2026-01-19_16h09.40.790,MST_task,2024.2.0,59.99710814,2026-01-19 16h09.55.420326 +0530
,Objects\006a.jpg,204,0,205,,,,,,,f,1.0212157,0.1350756,None,,,,205,0,204,856.5195425,,,,,,,,,,,,,,,,,,,,,,,,,,,,,,856.5092143,856.5195425,857.0039406,,,,,,,,,,,,,,857.0324512,,,,,,,,,,857.0293245,857.0324512,857.0324512,857.0324512,860.0203222,f,1.0212157,0.1350756,860.0205015,860.0205627,None,,,,,60,1,2026-01-19_16h09.40.790,MST_task,2024.2.0,59.99710814,2026-01-19 16h09.55.420326 +0530
,Objects\019a.jpg,205,0,206,,,,,,,j,1.8002076,0.1362936,None,,,,206,0,205,860.0362998,,,,,,,,,,,,,,,,,,,,,,,,,,,,,,860.0207868,860.0362998,860.5201983,,,,,,,,,,,,,,860.6207904,,,,,,,,,,860.6172897,860.6207904,860.6207904,860.6207904,863.5367232,j,1.8002076,0.1362936,863.5368308,863.5368671,None,,,,,60,1,2026-01-19_16h09.40.790,MST_task,2024.2.0,59.99710814,2026-01-19 16h09.55.420326 +0530
,Objects\020a.jpg,206,0,207,,,,,,,f,0.8644701,0.1441444,None,,,,207,0,206,863.5528987,,,,,,,,,,,,,,,,,,,,,,,,,,,,,,863.5370586,863.5528987,864.0370972,,,,,,,,,,,,,,,,,,,,,,,,864.0661863,864.0694982,864.0694982,864.0694982,867.0541041,f,0.8644701,0.1441444,867.0542683,867.0543306,None,,,,,60,1,2026-01-19_16h09.40.790,MST_task,2024.2.0,59.99710814,2026-01-19 16h09.55.420326 +0530
,Objects\038a.jpg,207,0,208,,,,,,,f,1.036445,0.1430785,None,,,,208,0,207,867.0696659,,,,,,,,,,,,,,,,,,,,,,,,,,,,,,867.0546733,867.0696659,867.5539436,,,,,,,,,,,,,,867.5935948,,,,,,,,,,867.5905401,867.5935948,867.5935948,867.5935948,870.5700165,f,1.036445,0.1430785,870.570153,870.5702013,None,,,,,60,1,2026-01-19_16h09.40.790,MST_task,2024.2.0,59.99710814,2026-01-19 16h09.55.420326 +0530
,Objects\054a.jpg,208,0,209,,,,,,,j,1.3148138,0.1528829,None,,,,209,0,208,870.5863936,,,,,,,,,,,,,,,,,,,,,,,,,,,,,,870.5705188,870.5863936,871.0706165,,,,,,,,,,,,,,871.1060127,,,,,,,,,,871.1034233,871.1060127,871.1060127,871.1060127,874.0711066,j,1.3148138,0.1528829,874.0712834,874.07132,None,,,,,60,1,2026-01-19_16h09.40.790,MST_task,2024.2.0,59.99710814,2026-01-19 16h09.55.420326 +0530
,Objects\142a.jpg,209,0,210,,,,,,,f,0.5959172,0.1839027,None,,,,210,0,209,874.0863437,,,,,,,,,,,,,,,,,,,,,,,,,,,,,,874.0715732,874.0863437,874.5710195,,,,,,,,,,,,,,874.6248064,,,,,,,,,,874.6217518,874.6248064,874.6248064,874.6248064,877.5868706,f,0.5959172,0.1839027,877.5869769,877.5870134,None,,,,,60,1,2026-01-19_16h09.40.790,MST_task,2024.2.0,59.99710814,2026-01-19 16h09.55.420326 +0530
,Scenes\054a.jpg,210,0,211,,,,,,,j,1.0108387,0.1605811,None,,,,211,0,210,877.603231,,,,,,,,,,,,,,,,,,,,,,,,,,,,,,877.5872822,877.603231,878.088008,,,,,,,,,,,,,,878.169855,,,,,,,,,,878.1666749,878.169855,878.169855,878.169855,881.1034397,j,1.0108387,0.1605811,881.108448,881.1085003,None,,,,,60,1,2026-01-19_16h09.40.790,MST_task,2024.2.0,59.99710814,2026-01-19 16h09.55.420326 +0530
,Scenes\022a.jpg,211,0,212,,,,,,,j,0.9934082,0.1117045,None,,,,212,0,211,881.1196529,,,,,,,,,,,,,,,,,,,,,,,,,,,,,,881.1088895,881.1196529,881.6041239,,,,,,,,,,,,,,881.6441626,,,,,,,,,,881.6407556,881.6441626,881.6441626,881.6441626,884.620023,j,0.9934082,0.1117045,884.62021,884.6202737,None,,,,,60,1,2026-01-19_16h09.40.790,MST_task,2024.2.0,59.99710814,2026-01-19 16h09.55.420326 +0530
,Scenes\052a.jpg,212,0,213,,,,,,,j,1.0423128,0.1513995,None,,,,213,0,212,884.6363933,,,,,,,,,,,,,,,,,,,,,,,,,,,,,,884.6206993,884.6363933,885.120484,,,,,,,,,,,,,,885.1881475,,,,,,,,,,885.1851863,885.1881475,885.1881475,885.1881475,888.1366019,j,1.0423128,0.1513995,888.1367904,888.1368532,None,,,,,60,1,2026-01-19_16h09.40.790,MST_task,2024.2.0,59.99710814,2026-01-19 16h09.55.420326 +0530
,Scenes\130a.jpg,213,0,214,,,,,,,j,0.9094747,0.1433885,None,,,,214,0,213,888.1530687,,,,,,,,,,,,,,,,,,,,,,,,,,,,,,888.1371736,888.1530687,888.6374276,,,,,,,,,,,,,,888.7044678,,,,,,,,,,888.7007557,888.7044678,888.7044678,888.7044678,891.6532732,j,0.9094747,0.1433885,891.6533987,891.6534377,None,,,,,60,1,2026-01-19_16h09.40.790,MST_task,2024.2.0,59.99710814,2026-01-19 16h09.55.420326 +0530
,Scenes\149a.jpg,214,0,215,,,,,,,f,0.8917686,0.1524993,None,,,,215,0,214,891.669564,,,,,,,,,,,,,,,,,,,,,,,,,,,,,,891.6536493,891.669564,892.1536692,,,,,,,,,,,,,,892.2250908,,,,,,,,,,892.2215757,892.2250908,892.2250908,892.2250908,895.1536038,f,0.8917686,0.1524993,895.15373,895.15377,None,,,,,60,1,2026-01-19_16h09.40.790,MST_task,2024.2.0,59.99710814,2026-01-19 16h09.55.420326 +0530
,Scenes\094a.jpg,215,0,216,,,,,,,j,1.6872351,0.1684939,None,,,,216,0,215,895.1696437,,,,,,,,,,,,,,,,,,,,,,,,,,,,,,895.1539832,895.1696437,895.6536647,,,,,,,,,,,,,,895.7264598,,,,,,,,,,895.723282,895.7264598,895.7264598,895.7264598,898.6539678,j,1.6872351,0.1684939,898.6541571,898.6542191,None,,,,,60,1,2026-01-19_16h09.40.790,MST_task,2024.2.0,59.99710814,2026-01-19 16h09.55.420326 +0530
,Scenes\084a.jpg,216,0,217,,,,,,,j,0.8576616,0.1677113,None,,,,217,0,216,898.6696644,,,,,,,,,,,,,,,,,,,,,,,,,,,,,,898.6544669,898.6696644,899.154066,,,,,,,,,,,,,,899.2283462,,,,,,,,,,899.2246644,899.2283462,899.2283462,899.2283462,902.1699773,j,0.8576616,0.1677113,902.1700904,902.170128,None,,,,,60,1,2026-01-19_16h09.40.790,MST_task,2024.2.0,59.99710814,2026-01-19 16h09.55.420326 +0530
,Objects\028a.jpg,217,0,218,,,,,,,j,1.1060503,0.1286937,None,,,,218,0,217,902.1864602,,,,,,,,,,,,,,,,,,,,,,,,,,,,,,902.1704072,902.1864602,902.6709766,,,,,,,,,,,,,,902.7145463,,,,,,,,,,902.7114603,902.7145463,902.7145463,902.7145463,905.6867403,j,1.1060503,0.1286937,905.6920043,905.6920553,None,,,,,60,1,2026-01-19_16h09.40.790,MST_task,2024.2.0,59.99710814,2026-01-19 16h09.55.420326 +0530
,Objects\041a.jpg,218,0,219,,,,,,,j,0.7625527,0.1684921,None,,,,219,0,218,905.7030791,,,,,,,,,,,,,,,,,,,,,,,,,,,,,,905.6923857,905.7030791,906.1872776,,,,,,,,,,,,,,906.2266209,,,,,,,,,,906.2236261,906.2266209,906.2266209,906.2266209,909.2033118,j,0.7625527,0.1684921,909.2034078,909.203478,None,,,,,60,1,2026-01-19_16h09.40.790,MST_task,2024.2.0,59.99710814,2026-01-19 16h09.55.420326 +0530
,Objects\158a.jpg,219,0,220,,,,,,,f,0.9286531,0.1612823,None,,,,220,0,219,909.2194002,,,,,,,,,,,,,,,,,,,,,,,,,,,,,,909.2039068,909.2194002,909.7037539,,,,,,,,,,,,,,,,,,,,,,,,909.7376043,909.7401167,909.7401167,909.7401167,912.7200756,f,0.9286531,0.1612823,912.7202575,912.7203211,None,,,,,60,1,2026-01-19_16h09.40.790,MST_task,2024.2.0,59.99710814,2026-01-19 16h09.55.420326 +0530
,Objects\035a.jpg,220,0,221,,,,,,,j,1.5378249,0.1438352,None,,,,221,0,220,912.7366563,,,,,,,,,,,,,,,,,,,,,,,,,,,,,,912.7206822,912.7366563,913.2208229,,,,,,,,,,,,,,913.2513266,,,,,,,,,,913.2481515,913.2513266,913.2513266,913.2513266,916.2365983,j,1.5378249,0.1438352,916.2367089,916.2367469,None,,,,,60,1,2026-01-19_16h09.40.790,MST_task,2024.2.0,59.99710814,2026-01-19 16h09.55.420326 +0530
,Objects\190a.jpg,221,0,222,,,,,,,f,0.9530885,0.1602737,None,,,,222,0,221,916.2529043,,,,,,,,,,,,,,,,,,,,,,,,,,,,,,916.2369495,916.2529043,916.7373707,,,,,,,,,,,,,,916.7726909,,,,,,,,,,916.7701817,916.7726909,916.7726909,916.7726909,919.7533782,f,0.9530885,0.1602737,919.7535459,919.7536091,None,,,,,60,1,2026-01-19_16h09.40.790,MST_task,2024.2.0,59.99710814,2026-01-19 16h09.55.420326 +0530
,Objects\191a.jpg,222,0,223,,,,,,,f,0.792089,0.1682369,None,,,,223,0,222,919.7695273,,,,,,,,,,,,,,,,,,,,,,,,,,,,,,919.7539223,919.7695273,920.2540837,,,,,,,,,,,,,,920.292988,,,,,,,,,,920.2897482,920.292988,920.292988,920.292988,923.2699364,f,0.792089,0.1682369,923.2701207,923.2701834,None,,,,,60,1,2026-01-19_16h09.40.790,MST_task,2024.2.0,59.99710814,2026-01-19 16h09.55.420326 +0530
,Objects\091a.jpg,223,0,224,,,,,,,j,0.8700045,0.152144,None,,,,224,0,223,923.2866445,,,,,,,,,,,,,,,,,,,,,,,,,,,,,,923.2705123,923.2866445,923.7708529,,,,,,,,,,,,,,923.8548603,,,,,,,,,,923.8522048,923.8548603,923.8548603,923.8548603,926.7869715,j,0.8700045,0.152144,926.7870814,926.7871195,None,,,,,60,1,2026-01-19_16h09.40.790,MST_task,2024.2.0,59.99710814,2026-01-19 16h09.55.420326 +0530
,Scenes\168a.jpg,224,0,225,,,,,,,j,1.1824291,0.1210199,None,,,,225,0,224,926.8030036,,,,,,,,,,,,,,,,,,,,,,,,,,,,,,926.7873913,926.8030036,927.2872188,,,,,,,,,,,,,,927.3428448,,,,,,,,,,927.3398702,927.3428448,927.3428448,927.3428448,930.3033586,j,1.1824291,0.1210199,930.3072663,930.307297,None,,,,,60,1,2026-01-19_16h09.40.790,MST_task,2024.2.0,59.99710814,2026-01-19 16h09.55.420326 +0530
,Scenes\176a.jpg,225,0,226,,,,,,,j,0.9817886,0.1283335,None,,,,226,0,225,930.3194884,,,,,,,,,,,,,,,,,,,,,,,,,,,,,,930.3074172,930.3194884,930.8038766,,,,,,,,,,,,,,930.8715913,,,,,,,,,,930.8681469,930.8715913,930.8715913,930.8715913,933.8200071,j,0.9817886,0.1283335,933.8201739,933.8202368,None,,,,,60,1,2026-01-19_16h09.40.790,MST_task,2024.2.0,59.99710814,2026-01-19 16h09.55.420326 +0530
,Scenes\110a.jpg,226,0,227,,,,,,,j,0.7467245,0.1520101,None,,,,227,0,226,933.8363197,,,,,,,,,,,,,,,,,,,,,,,,,,,,,,933.8205528,933.8363197,934.3205855,,,,,,,,,,,,,,934.3941563,,,,,,,,,,934.3910741,934.3941563,934.3941563,934.3941563,937.3366859,j,0.7467245,0.1520101,937.3368539,937.3369162,None,,,,,60,1,2026-01-19_16h09.40.790,MST_task,2024.2.0,59.99710814,2026-01-19 16h09.55.420326 +0530
,Scenes\047a.jpg,227,0,228,,,,,,,j,0.7946068,0.1434297,None,,,,228,0,227,937.352837,,,,,,,,,,,,,,,,,,,,,,,,,,,,,,937.3372412,937.352837,937.8376355,,,,,,,,,,,,,,937.8997513,,,,,,,,,,937.8959395,937.8997513,937.8997513,937.8997513,940.8536104,j,0.7946068,0.1434297,940.853781,940.8538431,None,,,,,60,1,2026-01-19_16h09.40.790,MST_task,2024.2.0,59.99710814,2026-01-19 16h09.55.420326 +0530
,Scenes\157a.jpg,228,0,229,,,,,,,j,0.6316454,0.1926298,None,,,,229,0,228,940.869705,,,,,,,,,,,,,,,,,,,,,,,,,,,,,,940.854145,940.869705,941.3543982,,,,,,,,,,,,,,941.4213309,,,,,,,,,,941.4179508,941.4213309,941.4213309,941.4213309,944.3701191,j,0.6316454,0.1926298,944.370221,944.3702569,None,,,,,60,1,2026-01-19_16h09.40.790,MST_task,2024.2.0,59.99710814,2026-01-19 16h09.55.420326 +0530
,Scenes\025a.jpg,229,0,230,,,,,,,j,0.6184392,0.1689562,None,,,,230,0,229,944.3863428,,,,,,,,,,,,,,,,,,,,,,,,,,,,,,944.3705134,944.3863428,944.8706788,,,,,,,,,,,,,,944.9702302,,,,,,,,,,944.9671937,944.9702302,944.9702302,944.9702302,947.8867001,j,0.6184392,0.1689562,947.8868685,947.886908,None,,,,,60,1,2026-01-19_16h09.40.790,MST_task,2024.2.0,59.99710814,2026-01-19 16h09.55.420326 +0530
,Scenes\123a.jpg,230,0,231,,,,,,,j,0.6710109,0.1679946,None,,,,231,0,230,947.90304,,,,,,,,,,,,,,,,,,,,,,,,,,,,,,947.8871115,947.90304,948.3878608,,,,,,,,,,,,,,948.4629439,,,,,,,,,,948.4585863,948.4629439,948.4629439,948.4629439,951.3875902,j,0.6710109,0.1679946,951.3877506,951.3878134,None,,,,,60,1,2026-01-19_16h09.40.790,MST_task,2024.2.0,59.99710814,2026-01-19 16h09.55.420326 +0530
,Objects\065a.jpg,231,0,232,,,,,,,j,1.0097695,0.1514054,None,,,,232,0,231,951.4030259,,,,,,,,,,,,,,,,,,,,,,,,,,,,,,951.3882346,951.4030259,951.8877781,,,,,,,,,,,,,,951.9396284,,,,,,,,,,951.9362027,951.9396284,951.9396284,951.9396284,954.9031252,j,1.0097695,0.1514054,954.9052281,954.9052509,None,,,,,60,1,2026-01-19_16h09.40.790,MST_task,2024.2.0,59.99710814,2026-01-19 16h09.55.420326 +0530
,Objects\103a.jpg,232,0,233,,,,,,,j,1.2781522,0.191781,None,,,,233,0,232,954.9192878,,,,,,,,,,,,,,,,,,,,,,,,,,,,,,954.9054027,954.9192878,955.4033123,,,,,,,,,,,,,,955.4470162,,,,,,,,,,955.444453,955.4470162,955.4470162,955.4470162,958.4200177,j,1.2781522,0.191781,958.4202193,958.4202838,None,,,,,60,1,2026-01-19_16h09.40.790,MST_task,2024.2.0,59.99710814,2026-01-19 16h09.55.420326 +0530
,Objects\178a.jpg,233,0,234,,,,,,,f,1.6925382,0.1680761,None,,,,234,0,233,958.4362868,,,,,,,,,,,,,,,,,,,,,,,,,,,,,,958.4206292,958.4362868,958.9207909,,,,,,,,,,,,,,958.9691462,,,,,,,,,,958.9653293,958.9691462,958.9691462,958.9691462,961.9366867,f,1.6925382,0.1680761,961.9367969,961.9368322,None,,,,,60,1,2026-01-19_16h09.40.790,MST_task,2024.2.0,59.99710814,2026-01-19 16h09.55.420326 +0530
,Objects\040a.jpg,234,0,235,,,,,,,f,0.934819,0.1434465,None,,,,235,0,234,961.9529401,,,,,,,,,,,,,,,,,,,,,,,,,,,,,,961.9370097,961.9529401,962.4376495,,,,,,,,,,,,,,962.4791714,,,,,,,,,,962.4763541,962.4791714,962.4791714,962.4791714,965.4533636,f,0.934819,0.1434465,965.4534859,965.453524,None,,,,,60,1,2026-01-19_16h09.40.790,MST_task,2024.2.0,59.99710814,2026-01-19 16h09.55.420326 +0530
,Objects\053a.jpg,235,0,236,,,,,,,f,0.5981018,0.1688118,None,,,,236,0,235,965.4697375,,,,,,,,,,,,,,,,,,,,,,,,,,,,,,965.4537182,965.4697375,965.9537667,,,,,,,,,,,,,,965.9909319,,,,,,,,,,965.9879831,965.9909319,965.9909319,965.9909319,968.9702207,f,0.5981018,0.1688118,968.9703492,968.9703945,None,,,,,60,1,2026-01-19_16h09.40.790,MST_task,2024.2.0,59.99710814,2026-01-19 16h09.55.420326 +0530
,Objects\169a.jpg,236,0,237,,,,,,,j,0.8169934,0.1519099,None,,,,237,0,236,968.9862638,,,,,,,,,,,,,,,,,,,,,,,,,,,,,,968.9707285,968.9862638,969.470822,,,,,,,,,,,,,,969.5084228,,,,,,,,,,969.5048679,969.5084228,969.5084228,969.5084228,972.486965,j,0.8169934,0.1519099,972.4870823,972.4871248,None,,,,,60,1,2026-01-19_16h09.40.790,MST_task,2024.2.0,59.99710814,2026-01-19 16h09.55.420326 +0530
,Objects\066a.jpg,237,0,238,,,,,,,j,1.3801452,0.1679326,None,,,,238,0,237,972.5030181,,,,,,,,,,,,,,,,,,,,,,,,,,,,,,972.4873388,972.5030181,972.987673,,,,,,,,,,,,,,973.0250405,,,,,,,,,,973.0217507,973.0250405,973.0250405,973.0250405,976.0033252,j,1.3801452,0.1679326,976.0034826,976.0035183,None,,,,,60,1,2026-01-19_16h09.40.790,MST_task,2024.2.0,59.99710814,2026-01-19 16h09.55.420326 +0530
,Scenes\139a.jpg,238,0,239,,,,,,,j,0.9703067,0.1516793,None,,,,239,0,238,976.0196167,,,,,,,,,,,,,,,,,,,,,,,,,,,,,,976.0037026,976.0196167,976.5042251,,,,,,,,,,,,,,976.5555512,,,,,,,,,,976.5520914,976.5555512,976.5555512,976.5555512,979.5199128,j,0.9703067,0.1516793,979.5230122,979.5230486,None,,,,,60,1,2026-01-19_16h09.40.790,MST_task,2024.2.0,59.99710814,2026-01-19 16h09.55.420326 +0530
,Scenes\187a.jpg,239,0,240,,,,,,,j,0.8578242,0.1509055,None,,,,240,0,239,979.5363972,,,,,,,,,,,,,,,,,,,,,,,,,,,,,,979.5232587,979.5363972,980.0205678,,,,,,,,,,,,,,980.0761123,,,,,,,,,,980.0730759,980.0761123,980.0761123,980.0761123,983.0368111,j,0.8578242,0.1509055,983.0369797,983.0370416,None,,,,,60,1,2026-01-19_16h09.40.790,MST_task,2024.2.0,59.99710814,2026-01-19 16h09.55.420326 +0530
