thisN,thisTrialN,thisRepN,key_resp_3.keys,key_resp_3.rt,key_resp_3.duration,trials.thisRepN,trials.thisTrialN,trials.thisN,thisRow.t,notes,intro_page.started,text.started,key_resp.started,intro_page.stopped,key_resp.keys,key_resp.rt,key_resp.duration,instructions.started,text_2.started,key_resp_2.started,instructions.stopped,key_resp_2.keys,key_resp_2.rt,key_resp_2.duration,demo1.started,image_1.started,image_2.started,text_7.started,key_resp_6.started,text_9.started,demo1.stopped,key_resp_6.keys,key_resp_6.rt,key_resp_6.duration,demo2.started,image_5.started,image_6.started,text_11.started,text_12.started,key_resp_8.started,demo2.stopped,key_resp_8.keys,key_resp_8.rt,key_resp_8.duration,demo_conclusion.started,text_13.started,key_resp_9.started,demo_conclusion.stopped,key_resp_9.keys,key_resp_9.rt,key_resp_9.duration,start_test.started,text_6.started,key_resp_5.started,start_test.stopped,key_resp_5.keys,key_resp_5.rt,key_resp_5.duration,ISI.started,text_4.started,text_4.stopped,ISI.stopped,routine_1.started,image.started,text_3.started,key_resp_3.started,routine_1.stopped,image_path,position_of_stimuli,trials.key_resp_3.keys,trials.key_resp_3.rt,trials.key_resp_3.duration,End_page.started,text_5.started,key_resp_4.started,End_page.stopped,key_resp_4.keys,key_resp_4.rt,key_resp_4.duration,participant,session,date,expName,psychopyVersion,frameRate,expStart,
,,,,,,,,,,,0.0014661999884992838,0.0033959999564103782,0.0033959999564103782,2.5873657999909483,space,2.568442400021013,None,,,,,,,,,,,,,,,,,,,,,,,,,,,,,,,,,,,,,,,,,,,,,,,,,,,,,,,,,,,,,,,00066,001,2026-01-20_12h26.21.761,MST_test,2024.2.0,60.01021373930368,2026-01-20 12h26.29.020510 +0530,
,,,,,,,,,,,,,,,,,,2.5873966999934055,2.6018728999770246,2.6018728999770246,12.535671999969054,space,9.921362900000531,None,,,,,,,,,,,,,,,,,,,,,,,,,,,,,,,,,,,,,,,,,,,,,,,,,,,,,,,,00066,001,2026-01-20_12h26.21.761,MST_test,2024.2.0,60.01021373930368,2026-01-20 12h26.29.020510 +0530,
,,,,,,,,,,,,,,,,,,,,,,,,,12.535698499996215,12.552413099969272,12.552413099969272,12.552413099969272,12.552413099969272,12.552413099969272,18.303224399976898,space,5.747295600012876,None,,,,,,,,,,,,,,,,,,,,,,,,,,,,,,,,,,,,,,,,,,,,,,00066,001,2026-01-20_12h26.21.761,MST_test,2024.2.0,60.01021373930368,2026-01-20 12h26.29.020510 +0530,
,,,,,,,,,,,,,,,,,,,,,,,,,,,,,,,,,,,18.303258100000676,18.319130299962126,18.319130299962126,18.319130299962126,18.319130299962126,18.319130299962126,21.65273159998469,space,3.3322213000501506,None,,,,,,,,,,,,,,,,,,,,,,,,,,,,,,,,,,,,00066,001,2026-01-20_12h26.21.761,MST_test,2024.2.0,60.01021373930368,2026-01-20 12h26.29.020510 +0530,
,,,,,,,,,,,,,,,,,,,,,,,,,,,,,,,,,,,,,,,,,,,,,21.652761499979533,21.668760899978224,21.668760899978224,35.26906959997723,space,13.598519400053192,None,,,,,,,,,,,,,,,,,,,,,,,,,,,,,00066,001,2026-01-20_12h26.21.761,MST_test,2024.2.0,60.01021373930368,2026-01-20 12h26.29.020510 +0530,
,,,,,,,,,,,,,,,,,,,,,,,,,,,,,,,,,,,,,,,,,,,,,,,,,,,,35.26909809996141,35.28517529997043,35.28517529997043,84.53579019999597,space,49.2381655999925,None,,,,,,,,,,,,,,,,,,,,,,00066,001,2026-01-20_12h26.21.761,MST_test,2024.2.0,60.01021373930368,2026-01-20 12h26.29.020510 +0530,
0,0,1,n,5.127770300023258,None,1,0,0,84.55196689994773,,,,,,,,,,,,,,,,,,,,,,,,,,,,,,,,,,,,,,,,,,,,,,,,,,84.54009460000088,84.55196689994773,85.06040639994899,85.03548889997182,85.05813019996276,85.06040639994899,85.06040639994899,85.06040639994899,90.20260429999325,Scenes\179b.jpg,pre,n,5.127770300023258,None,,,,,,,,00066,001,2026-01-20_12h26.21.761,MST_test,2024.2.0,60.01021373930368,2026-01-20 12h26.29.020510 +0530,
1,0,2,s,3.9863667999743484,None,2,0,1,90.21865189995151,,,,,,,,,,,,,,,,,,,,,,,,,,,,,,,,,,,,,,,,,,,,,,,,,,90.20270819996949,90.21865189995151,90.72181839996483,90.70221209997544,90.71982659999048,90.72181839996483,90.72181839996483,90.72181839996483,94.71930070000235,Scenes\174b.jpg,mid,s,3.9863667999743484,None,,,,,,,,00066,001,2026-01-20_12h26.21.761,MST_test,2024.2.0,60.01021373930368,2026-01-20 12h26.29.020510 +0530,
2,0,3,s,4.080692799994722,None,3,0,2,94.73529359995155,,,,,,,,,,,,,,,,,,,,,,,,,,,,,,,,,,,,,,,,,,,,,,,,,,94.71939409995684,94.73529359995155,95.23536709998734,95.21888830000535,95.2305266999756,95.23536709998734,95.23536709998734,95.23536709998734,99.31923999998253,Objects\022b.jpg,pre,s,4.080692799994722,None,,,,,,,,00066,001,2026-01-20_12h26.21.761,MST_test,2024.2.0,60.01021373930368,2026-01-20 12h26.29.020510 +0530,
3,0,4,o,2.5680949999950826,None,4,0,3,99.33510559995193,,,,,,,,,,,,,,,,,,,,,,,,,,,,,,,,,,,,,,,,,,,,,,,,,,99.31933929998195,99.33510559995193,99.83564619999379,99.81898409995483,99.82664159999695,99.83564619999379,99.83564619999379,99.83564619999379,102.4193016999634,Scenes\019a.jpg,pre,o,2.5680949999950826,None,,,,,,,,00066,001,2026-01-20_12h26.21.761,MST_test,2024.2.0,60.01021373930368,2026-01-20 12h26.29.020510 +0530,
4,0,5,s,4.596931100008078,None,5,0,4,102.43511149997357,,,,,,,,,,,,,,,,,,,,,,,,,,,,,,,,,,,,,,,,,,,,,,,,,,102.41939830000047,102.43511149997357,102.93560779996915,102.91886389994761,102.92989159998251,102.93560779996915,102.93560779996915,102.93560779996915,107.5358622999629,Foils\105a.jpg,none,s,4.596931100008078,None,,,,,,,,00066,001,2026-01-20_12h26.21.761,MST_test,2024.2.0,60.01021373930368,2026-01-20 12h26.29.020510 +0530,
5,0,6,s,2.719573299982585,None,6,0,5,107.55198759998893,,,,,,,,,,,,,,,,,,,,,,,,,,,,,,,,,,,,,,,,,,,,,,,,,,107.53596099995775,107.55198759998893,108.0521850999794,108.0355212999857,108.03829070000211,108.0521850999794,108.0521850999794,108.0521850999794,110.78610229998594,Objects\005a.jpg,pre,s,2.719573299982585,None,,,,,,,,00066,001,2026-01-20_12h26.21.761,MST_test,2024.2.0,60.01021373930368,2026-01-20 12h26.29.020510 +0530,
6,0,7,n,5.2529829000122845,None,7,0,6,110.80208709998988,,,,,,,,,,,,,,,,,,,,,,,,,,,,,,,,,,,,,,,,,,,,,,,,,,110.78619769995566,110.80208709998988,111.30230759998085,111.28572579997126,111.29472879995592,111.30230759998085,111.30230759998085,111.30230759998085,116.56934679998085,Foils\093b.jpg,none,n,5.2529829000122845,None,,,,,,,,00066,001,2026-01-20_12h26.21.761,MST_test,2024.2.0,60.01021373930368,2026-01-20 12h26.29.020510 +0530,
7,0,8,o,5.422466899966821,None,8,0,7,116.5853237999836,,,,,,,,,,,,,,,,,,,,,,,,,,,,,,,,,,,,,,,,,,,,,,,,,,116.56943729997147,116.5853237999836,117.08552089997102,117.06902999995509,117.07215009996435,117.08552089997102,117.08552089997102,117.08552089997102,122.51926549995551,Objects\088a.jpg,post,o,5.422466899966821,None,,,,,,,,00066,001,2026-01-20_12h26.21.761,MST_test,2024.2.0,60.01021373930368,2026-01-20 12h26.29.020510 +0530,
8,0,9,s,6.379264699993655,None,9,0,8,122.53545879997546,,,,,,,,,,,,,,,,,,,,,,,,,,,,,,,,,,,,,,,,,,,,,,,,,,122.51936370000476,122.53545879997546,123.04066259996034,123.0190939999884,123.03862329997355,123.04066259996034,123.04066259996034,123.04066259996034,129.42063399998005,Scenes\092b.jpg,post,s,6.379264699993655,None,,,,,,,,00066,001,2026-01-20_12h26.21.761,MST_test,2024.2.0,60.01021373930368,2026-01-20 12h26.29.020510 +0530,
9,0,10,s,2.2914011999964714,None,10,0,9,129.43538809998427,,,,,,,,,,,,,,,,,,,,,,,,,,,,,,,,,,,,,,,,,,,,,,,,,,129.4207269999897,129.43538809998427,129.93586309999228,129.91922879999038,129.92930580000393,129.93586309999228,129.93586309999228,129.93586309999228,132.23593799996888,Objects\071b.jpg,mid,s,2.2914011999964714,None,,,,,,,,00066,001,2026-01-20_12h26.21.761,MST_test,2024.2.0,60.01021373930368,2026-01-20 12h26.29.020510 +0530,
10,0,11,s,5.611479999963194,None,11,0,10,132.2521372999763,,,,,,,,,,,,,,,,,,,,,,,,,,,,,,,,,,,,,,,,,,,,,,,,,,132.23603559995536,132.2521372999763,132.7523706999491,132.73561849998077,132.74489799997536,132.7523706999491,132.7523706999491,132.7523706999491,138.36979739996605,Foils\042a.jpg,none,s,5.611479999963194,None,,,,,,,,00066,001,2026-01-20_12h26.21.761,MST_test,2024.2.0,60.01021373930368,2026-01-20 12h26.29.020510 +0530,
11,0,12,o,2.5906733999727294,None,12,0,11,138.38566119997995,,,,,,,,,,,,,,,,,,,,,,,,,,,,,,,,,,,,,,,,,,,,,,,,,,138.36990999995032,138.38566119997995,138.8856339000049,138.86918009998044,138.8720972999581,138.8856339000049,138.8856339000049,138.8856339000049,141.4858434999478,Objects\181a.jpg,mid,o,2.5906733999727294,None,,,,,,,,00066,001,2026-01-20_12h26.21.761,MST_test,2024.2.0,60.01021373930368,2026-01-20 12h26.29.020510 +0530,
12,0,13,n,2.121383199992124,None,13,0,12,141.50210479996167,,,,,,,,,,,,,,,,,,,,,,,,,,,,,,,,,,,,,,,,,,,,,,,,,,141.48593919997802,141.50210479996167,142.0023204999743,141.98566229996504,141.99460229999386,142.0023204999743,142.0023204999743,142.0023204999743,144.13588869996602,Foils\009a.jpg,none,n,2.121383199992124,None,,,,,,,,00066,001,2026-01-20_12h26.21.761,MST_test,2024.2.0,60.01021373930368,2026-01-20 12h26.29.020510 +0530,
13,0,14,s,1.903453900013119,None,14,0,13,144.15195809997385,,,,,,,,,,,,,,,,,,,,,,,,,,,,,,,,,,,,,,,,,,,,,,,,,,144.13598229998024,144.15195809997385,144.6525268999976,144.63562189997174,144.6498456999543,144.6525268999976,144.6525268999976,144.6525268999976,146.5694154999801,Scenes\169b.jpg,pre,s,1.903453900013119,None,,,,,,,,00066,001,2026-01-20_12h26.21.761,MST_test,2024.2.0,60.01021373930368,2026-01-20 12h26.29.020510 +0530,
14,0,15,o,3.0458587000030093,None,15,0,14,146.5852779999841,,,,,,,,,,,,,,,,,,,,,,,,,,,,,,,,,,,,,,,,,,,,,,,,,,146.56952399999136,146.5852779999841,147.08588619995862,147.0691546999733,147.0798705999623,147.08588619995862,147.08588619995862,147.08588619995862,150.13603379996493,Scenes\128a.jpg,mid,o,3.0458587000030093,None,,,,,,,,00066,001,2026-01-20_12h26.21.761,MST_test,2024.2.0,60.01021373930368,2026-01-20 12h26.29.020510 +0530,
15,0,16,o,3.7750203000032343,None,16,0,15,150.15212119999342,,,,,,,,,,,,,,,,,,,,,,,,,,,,,,,,,,,,,,,,,,,,,,,,,,150.1361251999624,150.15212119999342,150.65254859998822,150.6356700999895,150.64661129994784,150.65254859998822,150.65254859998822,150.65254859998822,154.43607479997445,Scenes\102a.jpg,post,o,3.7750203000032343,None,,,,,,,,00066,001,2026-01-20_12h26.21.761,MST_test,2024.2.0,60.01021373930368,2026-01-20 12h26.29.020510 +0530,
16,0,17,o,2.619422600022517,None,17,0,16,154.45211909996578,,,,,,,,,,,,,,,,,,,,,,,,,,,,,,,,,,,,,,,,,,,,,,,,,,154.43617179995636,154.45211909996578,154.95254739996744,154.93566359998658,154.93875909998314,154.95254739996744,154.95254739996744,154.95254739996744,157.58610039995983,Objects\021a.jpg,mid,o,2.619422600022517,None,,,,,,,,00066,001,2026-01-20_12h26.21.761,MST_test,2024.2.0,60.01021373930368,2026-01-20 12h26.29.020510 +0530,
17,0,18,o,2.26896499999566,None,18,0,17,157.60207129997434,,,,,,,,,,,,,,,,,,,,,,,,,,,,,,,,,,,,,,,,,,,,,,,,,,157.5861922999611,157.60207129997434,158.1026498999563,158.08574469998712,158.09630299999844,158.1026498999563,158.1026498999563,158.1026498999563,160.3859789999551,Scenes\031a.jpg,pre,o,2.26896499999566,None,,,,,,,,00066,001,2026-01-20_12h26.21.761,MST_test,2024.2.0,60.01021373930368,2026-01-20 12h26.29.020510 +0530,
18,0,19,o,14.050121599982958,None,19,0,18,160.4021193999797,,,,,,,,,,,,,,,,,,,,,,,,,,,,,,,,,,,,,,,,,,,,,,,,,,160.38607949996367,160.4021193999797,160.9056044999743,160.88614560000133,160.90332659997512,160.9056044999743,160.9056044999743,160.9056044999743,174.96940539998468,Scenes\024b.jpg,pre,o,14.050121599982958,None,,,,,,,,00066,001,2026-01-20_12h26.21.761,MST_test,2024.2.0,60.01021373930368,2026-01-20 12h26.29.020510 +0530,
19,0,20,o,3.0303493999526836,None,20,0,19,174.98515229998156,,,,,,,,,,,,,,,,,,,,,,,,,,,,,,,,,,,,,,,,,,,,,,,,,,174.96950009994907,174.98515229998156,175.4858336999896,175.46891809999943,175.4773065999616,175.4858336999896,175.4858336999896,175.4858336999896,178.51932469999883,Scenes\155a.jpg,pre,o,3.0303493999526836,None,,,,,,,,00066,001,2026-01-20_12h26.21.761,MST_test,2024.2.0,60.01021373930368,2026-01-20 12h26.29.020510 +0530,
20,0,21,s,3.560576499963645,None,21,0,20,178.5352449999773,,,,,,,,,,,,,,,,,,,,,,,,,,,,,,,,,,,,,,,,,,,,,,,,,,178.51941979996627,178.5352449999773,179.035752900003,179.01886919996468,179.03078859997913,179.035752900003,179.035752900003,179.035752900003,182.60282699996606,Objects\020b.jpg,mid,s,3.560576499963645,None,,,,,,,,00066,001,2026-01-20_12h26.21.761,MST_test,2024.2.0,60.01021373930368,2026-01-20 12h26.29.020510 +0530,
21,0,22,o,2.2681628999998793,None,22,0,21,182.6186727999593,,,,,,,,,,,,,,,,,,,,,,,,,,,,,,,,,,,,,,,,,,,,,,,,,,182.60292380000465,182.6186727999593,183.1192238999647,183.10230209998554,183.11452740000095,183.1192238999647,183.1192238999647,183.1192238999647,185.40276629995788,Scenes\023a.jpg,pre,o,2.2681628999998793,None,,,,,,,,00066,001,2026-01-20_12h26.21.761,MST_test,2024.2.0,60.01021373930368,2026-01-20 12h26.29.020510 +0530,
22,0,23,o,1.8365096999914385,None,23,0,22,185.41864469996653,,,,,,,,,,,,,,,,,,,,,,,,,,,,,,,,,,,,,,,,,,,,,,,,,,185.40286469995044,185.41864469996653,185.91947549994802,185.90250679996097,185.90866889996687,185.91947549994802,185.91947549994802,185.91947549994802,187.7694843999925,Scenes\136a.jpg,mid,o,1.8365096999914385,None,,,,,,,,00066,001,2026-01-20_12h26.21.761,MST_test,2024.2.0,60.01021373930368,2026-01-20 12h26.29.020510 +0530,
23,0,24,o,1.389819299976807,None,24,0,23,187.78519419999793,,,,,,,,,,,,,,,,,,,,,,,,,,,,,,,,,,,,,,,,,,,,,,,,,,187.7695811999729,187.78519419999793,188.28579239995452,188.26894839998567,188.27538889995776,188.28579239995452,188.28579239995452,188.28579239995452,189.68577739998,Scenes\186a.jpg,post,o,1.389819299976807,None,,,,,,,,00066,001,2026-01-20_12h26.21.761,MST_test,2024.2.0,60.01021373930368,2026-01-20 12h26.29.020510 +0530,
24,0,25,o,1.6011091999826021,None,25,0,24,189.70196709997253,,,,,,,,,,,,,,,,,,,,,,,,,,,,,,,,,,,,,,,,,,,,,,,,,,189.68586709996453,189.70196709997253,190.2027673999546,190.18570979998913,190.19951740000397,190.2027673999546,190.2027673999546,190.2027673999546,191.8192759999656,Scenes\006b.jpg,mid,o,1.6011091999826021,None,,,,,,,,00066,001,2026-01-20_12h26.21.761,MST_test,2024.2.0,60.01021373930368,2026-01-20 12h26.29.020510 +0530,
25,0,26,o,1.268133300007321,None,26,0,25,191.835283399967,,,,,,,,,,,,,,,,,,,,,,,,,,,,,,,,,,,,,,,,,,,,,,,,,,191.81936869997298,191.835283399967,192.33561179996468,192.31924379995326,192.32233629998518,192.33561179996468,192.33561179996468,192.33561179996468,193.6192391999648,Objects\120a.jpg,post,o,1.268133300007321,None,,,,,,,,00066,001,2026-01-20_12h26.21.761,MST_test,2024.2.0,60.01021373930368,2026-01-20 12h26.29.020510 +0530,
26,0,27,s,5.027691000024788,None,27,0,26,193.63510809995933,,,,,,,,,,,,,,,,,,,,,,,,,,,,,,,,,,,,,,,,,,,,,,,,,,193.61933029995998,193.63510809995933,194.1358374999836,194.11895759997424,194.1323803999694,194.1358374999836,194.1358374999836,194.1358374999836,199.1692258999683,Scenes\138b.jpg,post,s,5.027691000024788,None,,,,,,,,00066,001,2026-01-20_12h26.21.761,MST_test,2024.2.0,60.01021373930368,2026-01-20 12h26.29.020510 +0530,
27,0,28,s,3.510958799975924,None,28,0,27,199.18528989999322,,,,,,,,,,,,,,,,,,,,,,,,,,,,,,,,,,,,,,,,,,,,,,,,,,199.16931959998328,199.18528989999322,199.68566309998278,199.6688951999531,199.67866949999006,199.68566309998278,199.68566309998278,199.68566309998278,203.2027743999497,Scenes\170a.jpg,post,s,3.510958799975924,None,,,,,,,,00066,001,2026-01-20_12h26.21.761,MST_test,2024.2.0,60.01021373930368,2026-01-20 12h26.29.020510 +0530,
28,0,29,o,3.1563510000123642,None,29,0,28,203.2187002999708,,,,,,,,,,,,,,,,,,,,,,,,,,,,,,,,,,,,,,,,,,,,,,,,,,203.20286819996545,203.2187002999708,203.7192355999723,203.70250630000373,203.70599049999146,203.7192355999723,203.7192355999723,203.7192355999723,206.88586449995637,Objects\149a.jpg,pre,o,3.1563510000123642,None,,,,,,,,00066,001,2026-01-20_12h26.21.761,MST_test,2024.2.0,60.01021373930368,2026-01-20 12h26.29.020510 +0530,
29,0,30,o,2.601448600005824,None,30,0,29,206.90202569996472,,,,,,,,,,,,,,,,,,,,,,,,,,,,,,,,,,,,,,,,,,,,,,,,,,206.88595669995993,206.90202569996472,207.4025359999505,207.38559829996666,207.39546869997866,207.4025359999505,207.4025359999505,207.4025359999505,210.0192468999885,Scenes\012a.jpg,post,o,2.601448600005824,None,,,,,,,,00066,001,2026-01-20_12h26.21.761,MST_test,2024.2.0,60.01021373930368,2026-01-20 12h26.29.020510 +0530,
30,0,31,o,3.003683600050863,None,31,0,30,210.0352151999832,,,,,,,,,,,,,,,,,,,,,,,,,,,,,,,,,,,,,,,,,,,,,,,,,,210.0193379999837,210.0352151999832,210.53575799998362,210.51893599994946,210.52197919995524,210.53575799998362,210.53575799998362,210.53575799998362,213.55264479998732,Objects\142a.jpg,mid,o,3.003683600050863,None,,,,,,,,00066,001,2026-01-20_12h26.21.761,MST_test,2024.2.0,60.01021373930368,2026-01-20 12h26.29.020510 +0530,
31,0,32,o,3.2330514000495896,None,32,0,31,213.568664899969,,,,,,,,,,,,,,,,,,,,,,,,,,,,,,,,,,,,,,,,,,,,,,,,,,213.55274359998293,213.568664899969,214.07525379996514,214.0523586999625,214.07279009994818,214.07525379996514,214.07525379996514,214.07525379996514,217.31938760000048,Scenes\032b.jpg,mid,o,3.2330514000495896,None,,,,,,,,00066,001,2026-01-20_12h26.21.761,MST_test,2024.2.0,60.01021373930368,2026-01-20 12h26.29.020510 +0530,
32,0,33,s,6.111976899963338,None,33,0,32,217.33521309995558,,,,,,,,,,,,,,,,,,,,,,,,,,,,,,,,,,,,,,,,,,,,,,,,,,217.31948209996335,217.33521309995558,217.83582369994838,217.81896129995584,217.82232370000565,217.83582369994838,217.83582369994838,217.83582369994838,223.95253979996778,Objects\188a.jpg,post,s,6.111976899963338,None,,,,,,,,00066,001,2026-01-20_12h26.21.761,MST_test,2024.2.0,60.01021373930368,2026-01-20 12h26.29.020510 +0530,
33,0,34,o,2.246074700029567,None,34,0,33,223.9687023999868,,,,,,,,,,,,,,,,,,,,,,,,,,,,,,,,,,,,,,,,,,,,,,,,,,223.95263659994816,223.9687023999868,224.46930759999668,224.45252379996236,224.46383969997987,224.46930759999668,224.46930759999668,224.46930759999668,226.7194503999781,Scenes\016b.jpg,post,o,2.246074700029567,None,,,,,,,,00066,001,2026-01-20_12h26.21.761,MST_test,2024.2.0,60.01021373930368,2026-01-20 12h26.29.020510 +0530,
34,0,35,s,1.7362192000146024,None,35,0,34,226.73518309998326,,,,,,,,,,,,,,,,,,,,,,,,,,,,,,,,,,,,,,,,,,,,,,,,,,226.71955039998284,226.73518309998326,227.2357811999973,227.21891719999257,227.22878279996803,227.2357811999973,227.2357811999973,227.2357811999973,228.9861821999657,Objects\010b.jpg,mid,s,1.7362192000146024,None,,,,,,,,00066,001,2026-01-20_12h26.21.761,MST_test,2024.2.0,60.01021373930368,2026-01-20 12h26.29.020510 +0530,
35,0,36,o,2.357919199974276,None,36,0,35,229.00205879996065,,,,,,,,,,,,,,,,,,,,,,,,,,,,,,,,,,,,,,,,,,,,,,,,,,228.98628329997882,229.00205879996065,229.5023225999903,229.48591559997294,229.4889132999815,229.5023225999903,229.5023225999903,229.5023225999903,231.86937369999941,Objects\113a.jpg,mid,o,2.357919199974276,None,,,,,,,,00066,001,2026-01-20_12h26.21.761,MST_test,2024.2.0,60.01021373930368,2026-01-20 12h26.29.020510 +0530,
36,0,37,n,4.634836000041105,None,37,0,36,231.8852100999793,,,,,,,,,,,,,,,,,,,,,,,,,,,,,,,,,,,,,,,,,,,,,,,,,,231.86947519995738,231.8852100999793,232.3855766999768,232.36909910000395,232.37877229996957,232.3855766999768,232.3855766999768,232.3855766999768,237.0359732999932,Foils\081a.jpg,none,n,4.634836000041105,None,,,,,,,,00066,001,2026-01-20_12h26.21.761,MST_test,2024.2.0,60.01021373930368,2026-01-20 12h26.29.020510 +0530,
37,0,38,o,2.195107300009113,None,38,0,37,237.0521076999721,,,,,,,,,,,,,,,,,,,,,,,,,,,,,,,,,,,,,,,,,,,,,,,,,,237.03607209998881,237.0521076999721,237.55276189994765,237.5356573999743,237.54684829997132,237.55276189994765,237.55276189994765,237.55276189994765,239.75307739997515,Scenes\025a.jpg,mid,o,2.195107300009113,None,,,,,,,,00066,001,2026-01-20_12h26.21.761,MST_test,2024.2.0,60.01021373930368,2026-01-20 12h26.29.020510 +0530,
38,0,39,n,1.7661899999948218,None,39,0,38,239.76880149997305,,,,,,,,,,,,,,,,,,,,,,,,,,,,,,,,,,,,,,,,,,,,,,,,,,239.75317389995325,239.76880149997305,240.26939969998784,240.25236199999927,240.26333739998518,240.26939969998784,240.26939969998784,240.26939969998784,242.0360322999768,Foils\018a.jpg,none,n,1.7661899999948218,None,,,,,,,,00066,001,2026-01-20_12h26.21.761,MST_test,2024.2.0,60.01021373930368,2026-01-20 12h26.29.020510 +0530,
39,0,40,o,1.8353098999941722,None,40,0,39,242.05206999997608,,,,,,,,,,,,,,,,,,,,,,,,,,,,,,,,,,,,,,,,,,,,,,,,,,242.03612609999254,242.05206999997608,242.5522484999965,242.5357062999974,242.53846189996693,242.5522484999965,242.5522484999965,242.5522484999965,244.4028228999814,Objects\176a.jpg,pre,o,1.8353098999941722,None,,,,,,,,00066,001,2026-01-20_12h26.21.761,MST_test,2024.2.0,60.01021373930368,2026-01-20 12h26.29.020510 +0530,
40,0,41,n,2.6614412000053562,None,41,0,40,244.41879809997045,,,,,,,,,,,,,,,,,,,,,,,,,,,,,,,,,,,,,,,,,,,,,,,,,,244.40291899995646,244.41879809997045,244.9189751999802,244.9026086999802,244.9123525999603,244.9189751999802,244.9189751999802,244.9189751999802,247.58625589997973,Foils\057a.jpg,none,n,2.6614412000053562,None,,,,,,,,00066,001,2026-01-20_12h26.21.761,MST_test,2024.2.0,60.01021373930368,2026-01-20 12h26.29.020510 +0530,
41,0,42,o,3.037418299994897,None,42,0,41,247.60209479997866,,,,,,,,,,,,,,,,,,,,,,,,,,,,,,,,,,,,,,,,,,,,,,,,,,247.58636039996054,247.60209479997866,248.10233879997395,248.08580559998518,248.08846569998423,248.10233879997395,248.10233879997395,248.10233879997395,251.15277539996896,Objects\160a.jpg,mid,o,3.037418299994897,None,,,,,,,,00066,001,2026-01-20_12h26.21.761,MST_test,2024.2.0,60.01021373930368,2026-01-20 12h26.29.020510 +0530,
42,0,43,n,2.6225765999988653,None,43,0,42,251.1687712999992,,,,,,,,,,,,,,,,,,,,,,,,,,,,,,,,,,,,,,,,,,,,,,,,,,251.15287089999765,251.1687712999992,251.66925249999622,251.65243179997196,251.6614376999787,251.66925249999622,251.66925249999622,251.66925249999622,254.3032300999621,Foils\scenes12.jpg,none,n,2.6225765999988653,None,,,,,,,,00066,001,2026-01-20_12h26.21.761,MST_test,2024.2.0,60.01021373930368,2026-01-20 12h26.29.020510 +0530,
43,0,44,o,4.825207400019281,None,44,0,43,254.31882149999728,,,,,,,,,,,,,,,,,,,,,,,,,,,,,,,,,,,,,,,,,,,,,,,,,,254.30333119997522,254.31882149999728,254.81929509999463,254.80243290000362,254.81195919995662,254.81929509999463,254.81929509999463,254.81929509999463,259.6528751999722,Scenes\189a.jpg,post,o,4.825207400019281,None,,,,,,,,00066,001,2026-01-20_12h26.21.761,MST_test,2024.2.0,60.01021373930368,2026-01-20 12h26.29.020510 +0530,
44,0,45,n,3.4182342999847606,None,45,0,44,259.6687344999518,,,,,,,,,,,,,,,,,,,,,,,,,,,,,,,,,,,,,,,,,,,,,,,,,,259.6529669999727,259.6687344999518,260.16918149997946,260.1525558999856,260.1609976000036,260.16918149997946,260.16918149997946,260.16918149997946,263.6028284999775,Foils\scenes19.jpg,none,n,3.4182342999847606,None,,,,,,,,00066,001,2026-01-20_12h26.21.761,MST_test,2024.2.0,60.01021373930368,2026-01-20 12h26.29.020510 +0530,
45,0,46,o,4.9089359999634326,None,46,0,45,263.6188657999737,,,,,,,,,,,,,,,,,,,,,,,,,,,,,,,,,,,,,,,,,,,,,,,,,,263.6029200999765,263.6188657999737,264.11906469997484,264.1023924999754,264.11205659998814,264.11906469997484,264.11906469997484,264.11906469997484,269.03608389996225,Objects\123b.jpg,pre,o,4.9089359999634326,None,,,,,,,,00066,001,2026-01-20_12h26.21.761,MST_test,2024.2.0,60.01021373930368,2026-01-20 12h26.29.020510 +0530,
46,0,47,o,1.2197438000002876,None,47,0,46,269.0520613999688,,,,,,,,,,,,,,,,,,,,,,,,,,,,,,,,,,,,,,,,,,,,,,,,,,269.0361750999582,269.0520613999688,269.5523792000022,269.5357846999541,269.53846209996846,269.5523792000022,269.5523792000022,269.5523792000022,270.7859166999697,Objects\065a.jpg,mid,o,1.2197438000002876,None,,,,,,,,00066,001,2026-01-20_12h26.21.761,MST_test,2024.2.0,60.01021373930368,2026-01-20 12h26.29.020510 +0530,
47,0,48,n,2.5815775000373833,None,48,0,47,270.80206909996923,,,,,,,,,,,,,,,,,,,,,,,,,,,,,,,,,,,,,,,,,,,,,,,,,,270.78601399995387,270.80206909996923,271.30238109995844,271.2856663999846,271.29620139999315,271.30238109995844,271.30238109995844,271.30238109995844,273.8857451999793,Foils\049a.jpg,none,n,2.5815775000373833,None,,,,,,,,00066,001,2026-01-20_12h26.21.761,MST_test,2024.2.0,60.01021373930368,2026-01-20 12h26.29.020510 +0530,
48,0,49,o,1.6169881999958307,None,49,0,48,273.9020168999559,,,,,,,,,,,,,,,,,,,,,,,,,,,,,,,,,,,,,,,,,,,,,,,,,,273.8858382999897,273.9020168999559,274.40230299998075,274.38575199997285,274.3881360999658,274.40230299998075,274.40230299998075,274.40230299998075,276.03598659997806,Objects\075a.jpg,pre,o,1.6169881999958307,None,,,,,,,,00066,001,2026-01-20_12h26.21.761,MST_test,2024.2.0,60.01021373930368,2026-01-20 12h26.29.020510 +0530,
49,0,50,o,2.9716178000089712,None,50,0,49,276.05212129995925,,,,,,,,,,,,,,,,,,,,,,,,,,,,,,,,,,,,,,,,,,,,,,,,,,276.03608799999347,276.05212129995925,276.552573199966,276.5356482999632,276.5454413999687,276.552573199966,276.552573199966,276.552573199966,279.53572579997126,Scenes\145a.jpg,mid,o,2.9716178000089712,None,,,,,,,,00066,001,2026-01-20_12h26.21.761,MST_test,2024.2.0,60.01021373930368,2026-01-20 12h26.29.020510 +0530,
50,0,51,s,2.055171799962409,None,51,0,50,279.5521138999611,,,,,,,,,,,,,,,,,,,,,,,,,,,,,,,,,,,,,,,,,,,,,,,,,,279.5358224999509,279.5521138999611,280.05258779996075,280.0356078000041,280.0461864999961,280.05258779996075,280.05258779996075,280.05258779996075,282.1199152999907,Objects\128b.jpg,mid,s,2.055171799962409,None,,,,,,,,00066,001,2026-01-20_12h26.21.761,MST_test,2024.2.0,60.01021373930368,2026-01-20 12h26.29.020510 +0530,
51,0,52,s,1.5439458999899216,None,52,0,51,282.13546429999406,,,,,,,,,,,,,,,,,,,,,,,,,,,,,,,,,,,,,,,,,,,,,,,,,,282.12000769999577,282.13546429999406,282.6356863999972,282.6190329999663,282.6287010999513,282.6356863999972,282.6356863999972,282.6356863999972,284.186054699996,Objects\116b.jpg,mid,s,1.5439458999899216,None,,,,,,,,00066,001,2026-01-20_12h26.21.761,MST_test,2024.2.0,60.01021373930368,2026-01-20 12h26.29.020510 +0530,
52,0,53,s,8.893064000003505,None,53,0,52,284.20215979998466,,,,,,,,,,,,,,,,,,,,,,,,,,,,,,,,,,,,,,,,,,,,,,,,,,284.18614700000035,284.20215979998466,284.7023575999774,284.68573089997517,284.68820769997546,284.7023575999774,284.7023575999774,284.7023575999774,293.6034361999482,Objects\143a.jpg,post,s,8.893064000003505,None,,,,,,,,00066,001,2026-01-20_12h26.21.761,MST_test,2024.2.0,60.01021373930368,2026-01-20 12h26.29.020510 +0530,
53,0,54,s,2.870224900019821,None,54,0,53,293.6189278999809,,,,,,,,,,,,,,,,,,,,,,,,,,,,,,,,,,,,,,,,,,,,,,,,,,293.6035623999778,293.6189278999809,294.1189817999839,294.10256109997863,294.112350899959,294.1189817999839,294.1189817999839,294.1189817999839,297.0027183999773,Objects\155b.jpg,post,s,2.870224900019821,None,,,,,,,,00066,001,2026-01-20_12h26.21.761,MST_test,2024.2.0,60.01021373930368,2026-01-20 12h26.29.020510 +0530,
54,0,55,o,2.7168268999666907,None,55,0,54,297.01877460000105,,,,,,,,,,,,,,,,,,,,,,,,,,,,,,,,,,,,,,,,,,,,,,,,,,297.00281399994856,297.01877460000105,297.5192170999944,297.50241379998624,297.51341299997875,297.5192170999944,297.5192170999944,297.5192170999944,300.25259049999295,Scenes\009a.jpg,pre,o,2.7168268999666907,None,,,,,,,,00066,001,2026-01-20_12h26.21.761,MST_test,2024.2.0,60.01021373930368,2026-01-20 12h26.29.020510 +0530,
55,0,56,o,1.8988025999860838,None,56,0,55,300.2687236999627,,,,,,,,,,,,,,,,,,,,,,,,,,,,,,,,,,,,,,,,,,,,,,,,,,300.25268109998433,300.2687236999627,300.7692924999865,300.752317699953,300.76689649996115,300.7692924999865,300.7692924999865,300.7692924999865,302.66946379997535,Scenes\118b.jpg,mid,o,1.8988025999860838,None,,,,,,,,00066,001,2026-01-20_12h26.21.761,MST_test,2024.2.0,60.01021373930368,2026-01-20 12h26.29.020510 +0530,
56,0,57,n,1.8656292999512516,None,57,0,56,302.6853546999628,,,,,,,,,,,,,,,,,,,,,,,,,,,,,,,,,,,,,,,,,,,,,,,,,,302.6695557999774,302.6853546999628,303.1858151999768,303.1689634999493,303.17812779999804,303.1858151999768,303.1858151999768,303.1858151999768,305.05275209998945,Foils\scenes2.jpg,none,n,1.8656292999512516,None,,,,,,,,00066,001,2026-01-20_12h26.21.761,MST_test,2024.2.0,60.01021373930368,2026-01-20 12h26.29.020510 +0530,
57,0,58,n,1.5762685000081547,None,58,0,57,305.06865009997273,,,,,,,,,,,,,,,,,,,,,,,,,,,,,,,,,,,,,,,,,,,,,,,,,,305.0528486999683,305.06865009997273,305.5955163000035,305.55259320000187,305.59289379999973,305.5955163000035,305.5955163000035,305.5955163000035,307.18603519996395,Foils\scenes15.jpg,none,n,1.5762685000081547,None,,,,,,,,00066,001,2026-01-20_12h26.21.761,MST_test,2024.2.0,60.01021373930368,2026-01-20 12h26.29.020510 +0530,
58,0,59,n,1.4196504999999888,None,59,0,58,307.20202729996527,,,,,,,,,,,,,,,,,,,,,,,,,,,,,,,,,,,,,,,,,,,,,,,,,,307.18614519998664,307.20202729996527,307.7037362999981,307.6855214999523,307.70180329994764,307.7037362999981,307.7037362999981,307.7037362999981,309.1358069999842,Foils\073a.jpg,none,n,1.4196504999999888,None,,,,,,,,00066,001,2026-01-20_12h26.21.761,MST_test,2024.2.0,60.01021373930368,2026-01-20 12h26.29.020510 +0530,
59,0,60,n,1.199359700025525,None,60,0,59,309.1521481999662,,,,,,,,,,,,,,,,,,,,,,,,,,,,,,,,,,,,,,,,,,,,,,,,,,309.1359021999524,309.1521481999662,309.65234029997373,309.6356970999623,309.64554070000304,309.65234029997373,309.65234029997373,309.65234029997373,310.85261179995723,Foils\002a.jpg,none,n,1.199359700025525,None,,,,,,,,00066,001,2026-01-20_12h26.21.761,MST_test,2024.2.0,60.01021373930368,2026-01-20 12h26.29.020510 +0530,
60,0,61,s,1.6630699000088498,None,61,0,60,310.8687136999797,,,,,,,,,,,,,,,,,,,,,,,,,,,,,,,,,,,,,,,,,,,,,,,,,,310.8527135999757,310.8687136999797,311.37233809998725,311.3522415999905,311.37028659996577,311.37233809998725,311.37233809998725,311.37233809998725,313.0359986999538,Scenes\142b.jpg,mid,s,1.6630699000088498,None,,,,,,,,00066,001,2026-01-20_12h26.21.761,MST_test,2024.2.0,60.01021373930368,2026-01-20 12h26.29.020510 +0530,
61,0,62,o,1.6197976000257768,None,62,0,61,313.05204549996415,,,,,,,,,,,,,,,,,,,,,,,,,,,,,,,,,,,,,,,,,,,,,,,,,,313.0361045000027,313.05204549996415,313.5526717999601,313.53551419998985,313.54237069998635,313.5526717999601,313.5526717999601,313.5526717999601,315.1857755999663,Scenes\028a.jpg,post,o,1.6197976000257768,None,,,,,,,,00066,001,2026-01-20_12h26.21.761,MST_test,2024.2.0,60.01021373930368,2026-01-20 12h26.29.020510 +0530,
62,0,63,s,6.901367700018454,None,63,0,62,315.2020552000031,,,,,,,,,,,,,,,,,,,,,,,,,,,,,,,,,,,,,,,,,,,,,,,,,,315.1858671999653,315.2020552000031,315.70250549999764,315.68559670000104,315.6887813999783,315.70250549999764,315.70250549999764,315.70250549999764,322.6194670999539,Objects\033a.jpg,pre,s,6.901367700018454,None,,,,,,,,00066,001,2026-01-20_12h26.21.761,MST_test,2024.2.0,60.01021373930368,2026-01-20 12h26.29.020510 +0530,
63,0,64,o,1.4367532000178471,None,64,0,63,322.6352980999509,,,,,,,,,,,,,,,,,,,,,,,,,,,,,,,,,,,,,,,,,,,,,,,,,,322.61956869997084,322.6352980999509,323.1355016999878,323.1189175999607,323.12200769997435,323.1355016999878,323.1355016999878,323.1355016999878,324.5858592999866,Objects\189a.jpg,post,o,1.4367532000178471,None,,,,,,,,00066,001,2026-01-20_12h26.21.761,MST_test,2024.2.0,60.01021373930368,2026-01-20 12h26.29.020510 +0530,
64,0,65,s,1.3569693000172265,None,65,0,64,324.60205759998644,,,,,,,,,,,,,,,,,,,,,,,,,,,,,,,,,,,,,,,,,,,,,,,,,,324.5859547999571,324.60205759998644,325.10249869996915,325.08561269997153,325.09522049996303,325.10249869996915,325.10249869996915,325.10249869996915,326.46921939996537,Objects\133b.jpg,mid,s,1.3569693000172265,None,,,,,,,,00066,001,2026-01-20_12h26.21.761,MST_test,2024.2.0,60.01021373930368,2026-01-20 12h26.29.020510 +0530,
65,0,66,o,3.294264900032431,None,66,0,65,326.48529459995916,,,,,,,,,,,,,,,,,,,,,,,,,,,,,,,,,,,,,,,,,,,,,,,,,,326.4693198999739,326.48529459995916,326.9896597999614,326.9692024999531,326.987665499968,326.9896597999614,326.9896597999614,326.9896597999614,330.2861049999483,Scenes\062b.jpg,post,o,3.294264900032431,None,,,,,,,,00066,001,2026-01-20_12h26.21.761,MST_test,2024.2.0,60.01021373930368,2026-01-20 12h26.29.020510 +0530,
66,0,67,s,1.2737845999654382,None,67,0,66,330.3020874999929,,,,,,,,,,,,,,,,,,,,,,,,,,,,,,,,,,,,,,,,,,,,,,,,,,330.28620400000364,330.3020874999929,330.80254819995025,330.7855116999708,330.795779099979,330.80254819995025,330.80254819995025,330.80254819995025,332.085812299978,Objects\112b.jpg,mid,s,1.2737845999654382,None,,,,,,,,00066,001,2026-01-20_12h26.21.761,MST_test,2024.2.0,60.01021373930368,2026-01-20 12h26.29.020510 +0530,
67,0,68,n,1.43370049999794,None,68,0,67,332.10205109999515,,,,,,,,,,,,,,,,,,,,,,,,,,,,,,,,,,,,,,,,,,,,,,,,,,332.08591299998807,332.10205109999515,332.60219129995676,332.58546859998023,332.59507119999034,332.60219129995676,332.60219129995676,332.60219129995676,334.0526039999677,Foils\scenes11.jpg,none,n,1.43370049999794,None,,,,,,,,00066,001,2026-01-20_12h26.21.761,MST_test,2024.2.0,60.01021373930368,2026-01-20 12h26.29.020510 +0530,
68,0,69,s,1.458615000010468,None,69,0,68,334.06872949999524,,,,,,,,,,,,,,,,,,,,,,,,,,,,,,,,,,,,,,,,,,,,,,,,,,334.05269489996135,334.06872949999524,334.5690159999649,334.5523082999862,334.5623398000025,334.5690159999649,334.5690159999649,334.5690159999649,336.0360086999717,Objects\029b.jpg,pre,s,1.458615000010468,None,,,,,,,,00066,001,2026-01-20_12h26.21.761,MST_test,2024.2.0,60.01021373930368,2026-01-20 12h26.29.020510 +0530,
69,0,70,s,1.8746781999943778,None,70,0,69,336.0520466999733,,,,,,,,,,,,,,,,,,,,,,,,,,,,,,,,,,,,,,,,,,,,,,,,,,336.03610179998213,336.0520466999733,336.55380459997104,336.5355606999947,336.5516673999955,336.55380459997104,336.55380459997104,336.55380459997104,338.4360490999534,Scenes\072b.jpg,post,s,1.8746781999943778,None,,,,,,,,00066,001,2026-01-20_12h26.21.761,MST_test,2024.2.0,60.01021373930368,2026-01-20 12h26.29.020510 +0530,
70,0,71,s,2.507268199988175,None,71,0,70,338.45213190000504,,,,,,,,,,,,,,,,,,,,,,,,,,,,,,,,,,,,,,,,,,,,,,,,,,338.4361540999962,338.45213190000504,338.9526009999681,338.93551079998724,338.9477971000015,338.9526009999681,338.9526009999681,338.9526009999681,341.46956479997607,Scenes\132b.jpg,post,s,2.507268199988175,None,,,,,,,,00066,001,2026-01-20_12h26.21.761,MST_test,2024.2.0,60.01021373930368,2026-01-20 12h26.29.020510 +0530,
71,0,72,s,6.114328099996783,None,72,0,71,341.48527859995374,,,,,,,,,,,,,,,,,,,,,,,,,,,,,,,,,,,,,,,,,,,,,,,,,,341.46966549998615,341.48527859995374,341.9857570999884,341.9689109000028,341.97513079998316,341.9857570999884,341.9857570999884,341.9857570999884,348.10262749996036,Scenes\175a.jpg,mid,s,6.114328099996783,None,,,,,,,,00066,001,2026-01-20_12h26.21.761,MST_test,2024.2.0,60.01021373930368,2026-01-20 12h26.29.020510 +0530,
72,0,73,n,1.7040183000499383,None,73,0,72,348.11877749999985,,,,,,,,,,,,,,,,,,,,,,,,,,,,,,,,,,,,,,,,,,,,,,,,,,348.1027212999761,348.11877749999985,348.6193566999864,348.6027161999955,348.61556750000454,348.6193566999864,348.6193566999864,348.6193566999864,350.3359663999872,Scenes\140b.jpg,pre,n,1.7040183000499383,None,,,,,,,,00066,001,2026-01-20_12h26.21.761,MST_test,2024.2.0,60.01021373930368,2026-01-20 12h26.29.020510 +0530,
73,0,74,n,1.6876065999967977,None,74,0,73,350.3521792999818,,,,,,,,,,,,,,,,,,,,,,,,,,,,,,,,,,,,,,,,,,,,,,,,,,350.33606030000374,350.3521792999818,350.8524715999956,350.83565819996875,350.84441319998587,350.8524715999956,350.8524715999956,350.8524715999956,352.55273139994824,Foils\scenes29.jpg,none,n,1.6876065999967977,None,,,,,,,,00066,001,2026-01-20_12h26.21.761,MST_test,2024.2.0,60.01021373930368,2026-01-20 12h26.29.020510 +0530,
74,0,75,s,1.1828902999986894,None,75,0,74,352.5688565999735,,,,,,,,,,,,,,,,,,,,,,,,,,,,,,,,,,,,,,,,,,,,,,,,,,352.5528246999602,352.5688565999735,353.0690465999651,353.05237130000023,353.0642779999762,353.0690465999651,353.0690465999651,353.0690465999651,354.25279179995414,Scenes\139b.jpg,mid,s,1.1828902999986894,None,,,,,,,,00066,001,2026-01-20_12h26.21.761,MST_test,2024.2.0,60.01021373930368,2026-01-20 12h26.29.020510 +0530,
75,0,76,o,1.4752485000062734,None,76,0,75,354.26883899996756,,,,,,,,,,,,,,,,,,,,,,,,,,,,,,,,,,,,,,,,,,,,,,,,,,354.25289679999696,354.26883899996756,354.7693539999891,354.7524693000014,354.7590395999723,354.7693539999891,354.7693539999891,354.7693539999891,356.25280339998426,Scenes\154a.jpg,mid,o,1.4752485000062734,None,,,,,,,,00066,001,2026-01-20_12h26.21.761,MST_test,2024.2.0,60.01021373930368,2026-01-20 12h26.29.020510 +0530,
76,0,77,s,3.8653405000222847,None,77,0,76,356.2693819999695,,,,,,,,,,,,,,,,,,,,,,,,,,,,,,,,,,,,,,,,,,,,,,,,,,356.252895099984,356.2693819999695,356.7719383999938,356.7524531999952,356.7696836999967,356.7719383999938,356.7719383999938,356.7719383999938,360.65283239999553,Scenes\122b.jpg,post,s,3.8653405000222847,None,,,,,,,,00066,001,2026-01-20_12h26.21.761,MST_test,2024.2.0,60.01021373930368,2026-01-20 12h26.29.020510 +0530,
77,0,78,o,3.567672599980142,None,78,0,77,360.66886119998526,,,,,,,,,,,,,,,,,,,,,,,,,,,,,,,,,,,,,,,,,,,,,,,,,,360.6529254000052,360.66886119998526,361.17229219997535,361.15259610000066,361.17019879998406,361.17229219997535,361.17229219997535,361.17229219997535,364.75263239996275,Scenes\073b.jpg,pre,o,3.567672599980142,None,,,,,,,,00066,001,2026-01-20_12h26.21.761,MST_test,2024.2.0,60.01021373930368,2026-01-20 12h26.29.020510 +0530,
78,0,79,s,6.9162362000206485,None,79,0,78,364.76885920000495,,,,,,,,,,,,,,,,,,,,,,,,,,,,,,,,,,,,,,,,,,,,,,,,,,364.75272449996555,364.76885920000495,365.27114999998594,365.25241799996,365.2689510000055,365.27114999998594,365.27114999998594,365.27114999998594,372.2027391999727,Scenes\172b.jpg,mid,s,6.9162362000206485,None,,,,,,,,00066,001,2026-01-20_12h26.21.761,MST_test,2024.2.0,60.01021373930368,2026-01-20 12h26.29.020510 +0530,
79,0,80,o,1.4999202000326477,None,80,0,79,372.2187364999554,,,,,,,,,,,,,,,,,,,,,,,,,,,,,,,,,,,,,,,,,,,,,,,,,,372.20284079998964,372.2187364999554,372.7193478999543,372.70242279995,372.7057807999663,372.7193478999543,372.7193478999543,372.7193478999543,374.23590469994815,Objects\070a.jpg,post,o,1.4999202000326477,None,,,,,,,,00066,001,2026-01-20_12h26.21.761,MST_test,2024.2.0,60.01021373930368,2026-01-20 12h26.29.020510 +0530,
80,0,81,n,2.019925599975977,None,81,0,80,374.252165999962,,,,,,,,,,,,,,,,,,,,,,,,,,,,,,,,,,,,,,,,,,,,,,,,,,374.2359942999901,374.252165999962,374.7524715999607,374.73566819995176,374.74477639998076,374.7524715999607,374.7524715999607,374.7524715999607,376.7857597999973,Foils\scenes7.jpg,none,n,2.019925599975977,None,,,,,,,,00066,001,2026-01-20_12h26.21.761,MST_test,2024.2.0,60.01021373930368,2026-01-20 12h26.29.020510 +0530,
81,0,82,s,3.917611000011675,None,82,0,81,376.8021032999968,,,,,,,,,,,,,,,,,,,,,,,,,,,,,,,,,,,,,,,,,,,,,,,,,,376.78585569997085,376.8021032999968,377.30236999999033,377.2856575999758,377.2991299999994,377.30236999999033,377.30236999999033,377.30236999999033,381.23603299999377,Scenes\185b.jpg,pre,s,3.917611000011675,None,,,,,,,,00066,001,2026-01-20_12h26.21.761,MST_test,2024.2.0,60.01021373930368,2026-01-20 12h26.29.020510 +0530,
82,0,83,o,1.5387815000140108,None,83,0,82,381.2520886999555,,,,,,,,,,,,,,,,,,,,,,,,,,,,,,,,,,,,,,,,,,,,,,,,,,381.23613189999014,381.2520886999555,381.75274679996073,381.7356000999571,381.7448054999695,381.75274679996073,381.75274679996073,381.75274679996073,383.3027104999637,Scenes\183a.jpg,mid,o,1.5387815000140108,None,,,,,,,,00066,001,2026-01-20_12h26.21.761,MST_test,2024.2.0,60.01021373930368,2026-01-20 12h26.29.020510 +0530,
83,0,84,s,1.2418659999966621,None,84,0,83,383.318692300003,,,,,,,,,,,,,,,,,,,,,,,,,,,,,,,,,,,,,,,,,,,,,,,,,,383.30280329997186,383.318692300003,383.8193653000053,383.80229219998,383.8166057000053,383.8193653000053,383.8193653000053,383.8193653000053,385.06944979995023,Scenes\107b.jpg,pre,s,1.2418659999966621,None,,,,,,,,00066,001,2026-01-20_12h26.21.761,MST_test,2024.2.0,60.01021373930368,2026-01-20 12h26.29.020510 +0530,
84,0,85,o,1.3537288999650627,None,85,0,84,385.0852562999935,,,,,,,,,,,,,,,,,,,,,,,,,,,,,,,,,,,,,,,,,,,,,,,,,,385.0695491999504,385.0852562999935,385.5858494999702,385.56897530000424,385.57814169995254,385.5858494999702,385.5858494999702,385.5858494999702,386.9526657999959,Scenes\158a.jpg,post,o,1.3537288999650627,None,,,,,,,,00066,001,2026-01-20_12h26.21.761,MST_test,2024.2.0,60.01021373930368,2026-01-20 12h26.29.020510 +0530,
85,0,86,s,3.966679400007706,None,86,0,85,386.96870639995905,,,,,,,,,,,,,,,,,,,,,,,,,,,,,,,,,,,,,,,,,,,,,,,,,,386.9527554999804,386.96870639995905,387.46917129994836,387.4522602999932,387.4555455999798,387.46917129994836,387.46917129994836,387.46917129994836,391.43647869996494,Objects\026a.jpg,mid,s,3.966679400007706,None,,,,,,,,00066,001,2026-01-20_12h26.21.761,MST_test,2024.2.0,60.01021373930368,2026-01-20 12h26.29.020510 +0530,
86,0,87,o,2.379593299992848,None,87,0,86,391.45216369995615,,,,,,,,,,,,,,,,,,,,,,,,,,,,,,,,,,,,,,,,,,,,,,,,,,391.436577299959,391.45216369995615,391.9522874999675,391.9355186999892,391.93827369995415,391.9522874999675,391.9522874999675,391.9522874999675,394.3359855999588,Objects\119a.jpg,post,o,2.379593299992848,None,,,,,,,,00066,001,2026-01-20_12h26.21.761,MST_test,2024.2.0,60.01021373930368,2026-01-20 12h26.29.020510 +0530,
87,0,88,s,7.870854800043162,None,88,0,87,394.3520178999752,,,,,,,,,,,,,,,,,,,,,,,,,,,,,,,,,,,,,,,,,,,,,,,,,,394.3360754000023,394.3520178999752,394.852630999987,394.8355793999508,394.8422208999982,394.852630999987,394.852630999987,394.852630999987,402.73592819995247,Scenes\177a.jpg,mid,s,7.870854800043162,None,,,,,,,,00066,001,2026-01-20_12h26.21.761,MST_test,2024.2.0,60.01021373930368,2026-01-20 12h26.29.020510 +0530,
88,0,89,o,1.255040900025051,None,89,0,88,402.7520674999687,,,,,,,,,,,,,,,,,,,,,,,,,,,,,,,,,,,,,,,,,,,,,,,,,,402.73602009995375,402.7520674999687,403.2524788999581,403.23554949997924,403.23857659997884,403.2524788999581,403.2524788999581,403.2524788999581,404.5192373999744,Objects\083a.jpg,pre,o,1.255040900025051,None,,,,,,,,00066,001,2026-01-20_12h26.21.761,MST_test,2024.2.0,60.01021373930368,2026-01-20 12h26.29.020510 +0530,
89,0,90,o,2.3203966000000946,None,90,0,89,404.53535689995624,,,,,,,,,,,,,,,,,,,,,,,,,,,,,,,,,,,,,,,,,,,,,,,,,,404.51932779996423,404.53535689995624,405.0356430999818,405.01902239996707,405.0288156999741,405.0356430999818,405.0356430999818,405.0356430999818,407.3692828999483,Objects\185b.jpg,pre,o,2.3203966000000946,None,,,,,,,,00066,001,2026-01-20_12h26.21.761,MST_test,2024.2.0,60.01021373930368,2026-01-20 12h26.29.020510 +0530,
90,0,91,s,1.46739309997065,None,91,0,90,407.3853608999634,,,,,,,,,,,,,,,,,,,,,,,,,,,,,,,,,,,,,,,,,,,,,,,,,,407.3693781999755,407.3853608999634,407.88795269996626,407.86904479999794,407.8857414999511,407.88795269996626,407.88795269996626,407.88795269996626,409.36949599999934,Scenes\149b.jpg,pre,s,1.46739309997065,None,,,,,,,,00066,001,2026-01-20_12h26.21.761,MST_test,2024.2.0,60.01021373930368,2026-01-20 12h26.29.020510 +0530,
91,0,92,s,1.4306223000166938,None,92,0,91,409.38524829997914,,,,,,,,,,,,,,,,,,,,,,,,,,,,,,,,,,,,,,,,,,,,,,,,,,409.36958709999453,409.38524829997914,409.8857710000011,409.8691894999938,409.879186199978,409.8857710000011,409.8857710000011,409.8857710000011,411.3194703999907,Objects\044b.jpg,mid,s,1.4306223000166938,None,,,,,,,,00066,001,2026-01-20_12h26.21.761,MST_test,2024.2.0,60.01021373930368,2026-01-20 12h26.29.020510 +0530,
92,0,93,s,1.5752247999771498,None,93,0,92,411.3352678999654,,,,,,,,,,,,,,,,,,,,,,,,,,,,,,,,,,,,,,,,,,,,,,,,,,411.3195675999741,411.3352678999654,411.8362005999661,411.81897659995593,411.8342492999509,411.8362005999661,411.8362005999661,411.8362005999661,413.4194684999529,Scenes\109b.jpg,mid,s,1.5752247999771498,None,,,,,,,,00066,001,2026-01-20_12h26.21.761,MST_test,2024.2.0,60.01021373930368,2026-01-20 12h26.29.020510 +0530,
93,0,94,s,4.428456299996469,None,94,0,93,413.43528459995287,,,,,,,,,,,,,,,,,,,,,,,,,,,,,,,,,,,,,,,,,,,,,,,,,,413.4195611999603,413.43528459995287,413.9357809999492,413.9190899999812,413.9292493999819,413.9357809999492,413.9357809999492,413.9357809999492,418.36935189994983,Objects\126b.jpg,post,s,4.428456299996469,None,,,,,,,,00066,001,2026-01-20_12h26.21.761,MST_test,2024.2.0,60.01021373930368,2026-01-20 12h26.29.020510 +0530,
94,0,95,s,1.662155099969823,None,95,0,94,418.3852447999525,,,,,,,,,,,,,,,,,,,,,,,,,,,,,,,,,,,,,,,,,,,,,,,,,,418.3694458999671,418.3852447999525,418.88563999999315,418.86914179997984,418.87914959999034,418.88563999999315,418.88563999999315,418.88563999999315,420.5531517000054,Objects\061b.jpg,post,s,1.662155099969823,None,,,,,,,,00066,001,2026-01-20_12h26.21.761,MST_test,2024.2.0,60.01021373930368,2026-01-20 12h26.29.020510 +0530,
95,0,96,s,1.438992400013376,None,96,0,95,420.568773099978,,,,,,,,,,,,,,,,,,,,,,,,,,,,,,,,,,,,,,,,,,,,,,,,,,420.55325479997555,420.568773099978,421.0688967999886,421.0523780999938,421.06349489995046,421.0688967999886,421.0688967999886,421.0688967999886,422.51931889995467,Objects\011b.jpg,post,s,1.438992400013376,None,,,,,,,,00066,001,2026-01-20_12h26.21.761,MST_test,2024.2.0,60.01021373930368,2026-01-20 12h26.29.020510 +0530,
96,0,97,s,3.1683258000412025,None,97,0,96,422.53533839999,,,,,,,,,,,,,,,,,,,,,,,,,,,,,,,,,,,,,,,,,,,,,,,,,,422.51940869999817,422.53533839999,423.03554339997936,423.0190664999536,423.0215839999728,423.03554339997936,423.03554339997936,423.03554339997936,426.2193005000008,Objects\055a.jpg,mid,s,3.1683258000412025,None,,,,,,,,00066,001,2026-01-20_12h26.21.761,MST_test,2024.2.0,60.01021373930368,2026-01-20 12h26.29.020510 +0530,
97,0,98,o,2.4335778999957256,None,98,0,97,426.2353387000039,,,,,,,,,,,,,,,,,,,,,,,,,,,,,,,,,,,,,,,,,,,,,,,,,,426.21939199999906,426.2353387000039,426.7381826999481,426.7191426999634,426.73608989996137,426.7381826999481,426.7381826999481,426.7381826999481,429.18593099998543,Scenes\070b.jpg,post,o,2.4335778999957256,None,,,,,,,,00066,001,2026-01-20_12h26.21.761,MST_test,2024.2.0,60.01021373930368,2026-01-20 12h26.29.020510 +0530,
98,0,99,n,1.5415582999703474,None,99,0,98,429.20205789996544,,,,,,,,,,,,,,,,,,,,,,,,,,,,,,,,,,,,,,,,,,,,,,,,,,429.18602719996125,429.20205789996544,429.7024789999705,429.68558940000366,429.69475039996905,429.7024789999705,429.7024789999705,429.7024789999705,431.25258999998914,Foils\scenes13.jpg,none,n,1.5415582999703474,None,,,,,,,,00066,001,2026-01-20_12h26.21.761,MST_test,2024.2.0,60.01021373930368,2026-01-20 12h26.29.020510 +0530,
99,0,100,o,2.6667503000353463,None,100,0,99,431.2687526999507,,,,,,,,,,,,,,,,,,,,,,,,,,,,,,,,,,,,,,,,,,,,,,,,,,431.25268209999194,431.2687526999507,431.7691338000004,431.75235659995815,431.75560129998485,431.7691338000004,431.7691338000004,431.7691338000004,434.4526869999827,Scenes\022a.jpg,pre,o,2.6667503000353463,None,,,,,,,,00066,001,2026-01-20_12h26.21.761,MST_test,2024.2.0,60.01021373930368,2026-01-20 12h26.29.020510 +0530,
100,0,101,s,1.1540707999956794,None,101,0,100,434.4687377999653,,,,,,,,,,,,,,,,,,,,,,,,,,,,,,,,,,,,,,,,,,,,,,,,,,434.4527826999547,434.4687377999653,434.9691894999705,434.9523345999769,434.9620539000025,434.9691894999705,434.9691894999705,434.9691894999705,436.13587619998725,Objects\019b.jpg,pre,s,1.1540707999956794,None,,,,,,,,00066,001,2026-01-20_12h26.21.761,MST_test,2024.2.0,60.01021373930368,2026-01-20 12h26.29.020510 +0530,
101,0,102,n,1.3909096999559551,None,102,0,101,436.1521167999599,,,,,,,,,,,,,,,,,,,,,,,,,,,,,,,,,,,,,,,,,,,,,,,,,,436.13596679997863,436.1521167999599,436.65245769999456,436.63553109997883,436.6446180999628,436.65245769999456,436.65245769999456,436.65245769999456,438.0527394999517,Foils\scenes4.jpg,none,n,1.3909096999559551,None,,,,,,,,00066,001,2026-01-20_12h26.21.761,MST_test,2024.2.0,60.01021373930368,2026-01-20 12h26.29.020510 +0530,
102,0,103,n,1.994383699959144,None,103,0,102,438.06870929995785,,,,,,,,,,,,,,,,,,,,,,,,,,,,,,,,,,,,,,,,,,,,,,,,,,438.05283069994766,438.06870929995785,438.56899699999485,438.5523896999657,438.56135109998286,438.56899699999485,438.56899699999485,438.56899699999485,440.5694521999685,Foils\scenes3.jpg,none,n,1.994383699959144,None,,,,,,,,00066,001,2026-01-20_12h26.21.761,MST_test,2024.2.0,60.01021373930368,2026-01-20 12h26.29.020510 +0530,
103,0,104,s,1.5946505999891087,None,104,0,103,440.58525509998435,,,,,,,,,,,,,,,,,,,,,,,,,,,,,,,,,,,,,,,,,,,,,,,,,,440.56954449997284,440.58525509998435,441.08898929995485,441.0692330999882,441.08700279996265,441.08898929995485,441.08898929995485,441.08898929995485,442.68598939996446,Scenes\103b.jpg,pre,s,1.5946505999891087,None,,,,,,,,00066,001,2026-01-20_12h26.21.761,MST_test,2024.2.0,60.01021373930368,2026-01-20 12h26.29.020510 +0530,
104,0,105,o,1.5298555999761447,None,105,0,104,442.7020807999652,,,,,,,,,,,,,,,,,,,,,,,,,,,,,,,,,,,,,,,,,,,,,,,,,,442.6860839999863,442.7020807999652,443.20256339997286,443.18559979996644,443.18904450000264,443.20256339997286,443.20256339997286,443.20256339997286,444.73612829996273,Objects\042a.jpg,mid,o,1.5298555999761447,None,,,,,,,,00066,001,2026-01-20_12h26.21.761,MST_test,2024.2.0,60.01021373930368,2026-01-20 12h26.29.020510 +0530,
105,0,106,o,4.640008099959232,None,106,0,105,444.75223449995974,,,,,,,,,,,,,,,,,,,,,,,,,,,,,,,,,,,,,,,,,,,,,,,,,,444.73622429999523,444.75223449995974,445.2522814999684,445.23571249999804,445.2382423999952,445.2522814999684,445.2522814999684,445.2522814999684,449.9026890999521,Objects\124a.jpg,pre,o,4.640008099959232,None,,,,,,,,00066,001,2026-01-20_12h26.21.761,MST_test,2024.2.0,60.01021373930368,2026-01-20 12h26.29.020510 +0530,
106,0,107,s,2.5124269000370987,None,107,0,106,449.91874219995225,,,,,,,,,,,,,,,,,,,,,,,,,,,,,,,,,,,,,,,,,,,,,,,,,,449.90278349997243,449.91874219995225,450.4189736999688,450.40238549996866,450.41135219996795,450.4189736999688,450.4189736999688,450.4189736999688,452.9358724000049,Foils\066a.jpg,none,s,2.5124269000370987,None,,,,,,,,00066,001,2026-01-20_12h26.21.761,MST_test,2024.2.0,60.01021373930368,2026-01-20 12h26.29.020510 +0530,
107,0,108,s,3.431358999980148,None,108,0,107,452.9520854000002,,,,,,,,,,,,,,,,,,,,,,,,,,,,,,,,,,,,,,,,,,,,,,,,,,452.9359659999609,452.9520854000002,453.4528092999826,453.43546579999384,453.4507997999899,453.4528092999826,453.4528092999826,453.4528092999826,456.8857901999727,Scenes\131b.jpg,mid,s,3.431358999980148,None,,,,,,,,00066,001,2026-01-20_12h26.21.761,MST_test,2024.2.0,60.01021373930368,2026-01-20 12h26.29.020510 +0530,
108,0,109,s,2.4874228999833576,None,109,0,108,456.9020934999571,,,,,,,,,,,,,,,,,,,,,,,,,,,,,,,,,,,,,,,,,,,,,,,,,,456.88588319998235,456.9020934999571,457.4039974999614,457.3855391999823,457.4019141999888,457.4039974999614,457.4039974999614,457.4039974999614,459.90282979997573,Scenes\146b.jpg,pre,s,2.4874228999833576,None,,,,,,,,00066,001,2026-01-20_12h26.21.761,MST_test,2024.2.0,60.01021373930368,2026-01-20 12h26.29.020510 +0530,
109,0,110,o,2.920709300029557,None,110,0,109,459.9186950000003,,,,,,,,,,,,,,,,,,,,,,,,,,,,,,,,,,,,,,,,,,,,,,,,,,459.9029227999854,459.9186950000003,460.4193538999534,460.4023555999738,460.4076248999918,460.4193538999534,460.4193538999534,460.4193538999534,463.3525909999735,Scenes\117a.jpg,post,o,2.920709300029557,None,,,,,,,,00066,001,2026-01-20_12h26.21.761,MST_test,2024.2.0,60.01021373930368,2026-01-20 12h26.29.020510 +0530,
110,0,111,s,1.366510300023947,None,111,0,110,463.3687571999617,,,,,,,,,,,,,,,,,,,,,,,,,,,,,,,,,,,,,,,,,,,,,,,,,,463.3526871999493,463.3687571999617,463.86924269999145,463.85232529998757,463.8626221999875,463.86924269999145,463.86924269999145,463.86924269999145,465.25270019995514,Objects\164b.jpg,post,s,1.366510300023947,None,,,,,,,,00066,001,2026-01-20_12h26.21.761,MST_test,2024.2.0,60.01021373930368,2026-01-20 12h26.29.020510 +0530,
111,0,112,s,1.0987690000329167,None,112,0,111,465.2687609999557,,,,,,,,,,,,,,,,,,,,,,,,,,,,,,,,,,,,,,,,,,,,,,,,,,465.2528008999652,465.2687609999557,465.768957399996,465.7524249999551,465.75509259995306,465.768957399996,465.768957399996,465.768957399996,466.86940209998284,Objects\004a.jpg,mid,s,1.0987690000329167,None,,,,,,,,00066,001,2026-01-20_12h26.21.761,MST_test,2024.2.0,60.01021373930368,2026-01-20 12h26.29.020510 +0530,
112,0,113,o,1.2031866000033915,None,113,0,112,466.8853989999625,,,,,,,,,,,,,,,,,,,,,,,,,,,,,,,,,,,,,,,,,,,,,,,,,,466.869498999964,466.8853989999625,467.385494999995,467.3689726999728,467.37154429999646,467.385494999995,467.385494999995,467.385494999995,468.6027879999601,Objects\003a.jpg,post,o,1.2031866000033915,None,,,,,,,,00066,001,2026-01-20_12h26.21.761,MST_test,2024.2.0,60.01021373930368,2026-01-20 12h26.29.020510 +0530,
113,0,114,s,1.2451320000109263,None,114,0,113,468.6187699000002,,,,,,,,,,,,,,,,,,,,,,,,,,,,,,,,,,,,,,,,,,,,,,,,,,468.6028842999949,468.6187699000002,469.11903439997695,469.10242469998775,469.1116708999616,469.11903439997695,469.11903439997695,469.11903439997695,470.3694394999766,Objects\038b.jpg,post,s,1.2451320000109263,None,,,,,,,,00066,001,2026-01-20_12h26.21.761,MST_test,2024.2.0,60.01021373930368,2026-01-20 12h26.29.020510 +0530,
114,0,115,o,3.005726200004574,None,115,0,114,470.38547290000133,,,,,,,,,,,,,,,,,,,,,,,,,,,,,,,,,,,,,,,,,,,,,,,,,,470.3695371999638,470.38547290000133,470.88576929998817,470.8691235999577,470.87611729995115,470.88576929998817,470.88576929998817,470.88576929998817,473.902780000004,Scenes\067a.jpg,pre,o,3.005726200004574,None,,,,,,,,00066,001,2026-01-20_12h26.21.761,MST_test,2024.2.0,60.01021373930368,2026-01-20 12h26.29.020510 +0530,
115,0,116,o,2.840702500019688,None,116,0,115,473.91914059995906,,,,,,,,,,,,,,,,,,,,,,,,,,,,,,,,,,,,,,,,,,,,,,,,,,473.90287299995543,473.91914059995906,474.4193401999655,474.4025010999758,474.4063960999483,474.4193401999655,474.4193401999655,474.4193401999655,477.26940719998674,Objects\140a.jpg,pre,o,2.840702500019688,None,,,,,,,,00066,001,2026-01-20_12h26.21.761,MST_test,2024.2.0,60.01021373930368,2026-01-20 12h26.29.020510 +0530,
116,0,117,o,2.473803200002294,None,117,0,116,477.28551499999594,,,,,,,,,,,,,,,,,,,,,,,,,,,,,,,,,,,,,,,,,,,,,,,,,,477.2695010000025,477.28551499999594,477.78561219997937,477.7691205999581,477.771766699967,477.78561219997937,477.78561219997937,477.78561219997937,480.26943069999106,Objects\079a.jpg,mid,o,2.473803200002294,None,,,,,,,,00066,001,2026-01-20_12h26.21.761,MST_test,2024.2.0,60.01021373930368,2026-01-20 12h26.29.020510 +0530,
117,0,118,o,1.2496301000355743,None,118,0,117,480.2854420999647,,,,,,,,,,,,,,,,,,,,,,,,,,,,,,,,,,,,,,,,,,,,,,,,,,480.2695226999931,480.2854420999647,480.78632219997235,480.76907569996547,480.7718558999477,480.78632219997235,480.78632219997235,480.78632219997235,482.0527185999672,Objects\102a.jpg,post,o,1.2496301000355743,None,,,,,,,,00066,001,2026-01-20_12h26.21.761,MST_test,2024.2.0,60.01021373930368,2026-01-20 12h26.29.020510 +0530,
118,0,119,s,1.4585384000092745,None,119,0,118,482.068873399985,,,,,,,,,,,,,,,,,,,,,,,,,,,,,,,,,,,,,,,,,,,,,,,,,,482.0528091999586,482.068873399985,482.56934829999227,482.5523844999843,482.5654973000055,482.56934829999227,482.56934829999227,482.56934829999227,484.0361701999791,Scenes\112b.jpg,pre,s,1.4585384000092745,None,,,,,,,,00066,001,2026-01-20_12h26.21.761,MST_test,2024.2.0,60.01021373930368,2026-01-20 12h26.29.020510 +0530,
119,0,120,s,4.954784299945459,None,120,0,119,484.0522279999568,,,,,,,,,,,,,,,,,,,,,,,,,,,,,,,,,,,,,,,,,,,,,,,,,,484.036269299977,484.0522279999568,484.55266909999773,484.53569119999884,484.5456627999665,484.55266909999773,484.55266909999773,484.55266909999773,489.5194555000053,Foils\026a.jpg,none,s,4.954784299945459,None,,,,,,,,00066,001,2026-01-20_12h26.21.761,MST_test,2024.2.0,60.01021373930368,2026-01-20 12h26.29.020510 +0530,
120,0,121,n,1.4642389999935403,None,121,0,120,489.5357447999995,,,,,,,,,,,,,,,,,,,,,,,,,,,,,,,,,,,,,,,,,,,,,,,,,,489.51955259998795,489.5357447999995,490.03569970000535,490.01910729997326,490.02845589997014,490.03569970000535,490.03569970000535,490.03569970000535,491.50281689997064,Foils\058a.jpg,none,n,1.4642389999935403,None,,,,,,,,00066,001,2026-01-20_12h26.21.761,MST_test,2024.2.0,60.01021373930368,2026-01-20 12h26.29.020510 +0530,
121,0,122,o,2.0484740999527276,None,122,0,121,491.51884009997593,,,,,,,,,,,,,,,,,,,,,,,,,,,,,,,,,,,,,,,,,,,,,,,,,,491.50290899997344,491.51884009997593,492.0194322000025,492.00246789999073,492.0114825000055,492.0194322000025,492.0194322000025,492.0194322000025,494.0694703999907,Scenes\119a.jpg,pre,o,2.0484740999527276,None,,,,,,,,00066,001,2026-01-20_12h26.21.761,MST_test,2024.2.0,60.01021373930368,2026-01-20 12h26.29.020510 +0530,
122,0,123,n,1.401430200028699,None,123,0,122,494.08545979997143,,,,,,,,,,,,,,,,,,,,,,,,,,,,,,,,,,,,,,,,,,,,,,,,,,494.0695659999619,494.08545979997143,494.5859470999567,494.5690161999664,494.57852349994937,494.5859470999567,494.5859470999567,494.5859470999567,496.002859500004,Foils\098a.jpg,none,n,1.401430200028699,None,,,,,,,,00066,001,2026-01-20_12h26.21.761,MST_test,2024.2.0,60.01021373930368,2026-01-20 12h26.29.020510 +0530,
123,0,124,s,4.321884200035129,None,124,0,123,496.0187482999754,,,,,,,,,,,,,,,,,,,,,,,,,,,,,,,,,,,,,,,,,,,,,,,,,,496.00295709999045,496.0187482999754,496.5228540999815,496.5024184999638,496.5206346999621,496.5228540999815,496.5228540999815,496.5228540999815,500.85285749996547,Scenes\045b.jpg,mid,s,4.321884200035129,None,,,,,,,,00066,001,2026-01-20_12h26.21.761,MST_test,2024.2.0,60.01021373930368,2026-01-20 12h26.29.020510 +0530,
124,0,125,o,4.258701799961273,None,125,0,124,500.8687887999695,,,,,,,,,,,,,,,,,,,,,,,,,,,,,,,,,,,,,,,,,,,,,,,,,,500.8529460999998,500.8687887999695,501.36931310000364,501.3525978999678,501.3618368000025,501.36931310000364,501.36931310000364,501.36931310000364,505.6360336999642,Foils\scenes30.jpg,none,o,4.258701799961273,None,,,,,,,,00066,001,2026-01-20_12h26.21.761,MST_test,2024.2.0,60.01021373930368,2026-01-20 12h26.29.020510 +0530,
125,0,126,o,2.33161510003265,None,126,0,125,505.6521405999665,,,,,,,,,,,,,,,,,,,,,,,,,,,,,,,,,,,,,,,,,,,,,,,,,,505.6361241999548,505.6521405999665,506.15253329998814,506.13591109996196,506.1392338000005,506.15253329998814,506.15253329998814,506.15253329998814,508.4858535999665,Objects\152a.jpg,pre,o,2.33161510003265,None,,,,,,,,00066,001,2026-01-20_12h26.21.761,MST_test,2024.2.0,60.01021373930368,2026-01-20 12h26.29.020510 +0530,
126,0,127,o,4.569514999981038,None,127,0,126,508.50209529994754,,,,,,,,,,,,,,,,,,,,,,,,,,,,,,,,,,,,,,,,,,,,,,,,,,508.48595129995374,508.50209529994754,509.0024198999745,508.9857361000031,508.98838049999904,509.0024198999745,509.0024198999745,509.0024198999745,513.586122699955,Objects\058a.jpg,pre,o,4.569514999981038,None,,,,,,,,00066,001,2026-01-20_12h26.21.761,MST_test,2024.2.0,60.01021373930368,2026-01-20 12h26.29.020510 +0530,
127,0,128,s,6.876650799997151,None,128,0,127,513.6021324999747,,,,,,,,,,,,,,,,,,,,,,,,,,,,,,,,,,,,,,,,,,,,,,,,,,513.5862103999825,513.6021324999747,514.1027160999947,514.0857533999952,514.1000685999752,514.1027160999947,514.1027160999947,514.1027160999947,520.9860266000032,Scenes\160b.jpg,post,s,6.876650799997151,None,,,,,,,,00066,001,2026-01-20_12h26.21.761,MST_test,2024.2.0,60.01021373930368,2026-01-20 12h26.29.020510 +0530,
128,0,129,n,1.408384800015483,None,129,0,128,521.002574299986,,,,,,,,,,,,,,,,,,,,,,,,,,,,,,,,,,,,,,,,,,,,,,,,,,520.9861175999977,521.002574299986,521.5077261999832,521.4857750999508,521.5052576999879,521.5077261999832,521.5077261999832,521.5077261999832,522.9195642999839,Foils\scenes28.jpg,none,n,1.408384800015483,None,,,,,,,,00066,001,2026-01-20_12h26.21.761,MST_test,2024.2.0,60.01021373930368,2026-01-20 12h26.29.020510 +0530,
129,0,130,o,2.6632967999903485,None,130,0,129,522.935266799992,,,,,,,,,,,,,,,,,,,,,,,,,,,,,,,,,,,,,,,,,,,,,,,,,,522.9196613999666,522.935266799992,523.4360979999765,523.4191353999777,523.4298247999977,523.4360979999765,523.4360979999765,523.4360979999765,526.102817899955,Objects\180b.jpg,pre,o,2.6632967999903485,None,,,,,,,,00066,001,2026-01-20_12h26.21.761,MST_test,2024.2.0,60.01021373930368,2026-01-20 12h26.29.020510 +0530,
130,0,131,o,1.4177726000198163,None,131,0,130,526.118903799972,,,,,,,,,,,,,,,,,,,,,,,,,,,,,,,,,,,,,,,,,,,,,,,,,,526.1029085000046,526.118903799972,526.6192787999753,526.6026694999891,526.6128416999709,526.6192787999753,526.6192787999753,526.6192787999753,528.0528602999984,Scenes\003a.jpg,post,o,1.4177726000198163,None,,,,,,,,00066,001,2026-01-20_12h26.21.761,MST_test,2024.2.0,60.01021373930368,2026-01-20 12h26.29.020510 +0530,
131,0,132,s,1.2908464000211097,None,132,0,131,528.0687870999682,,,,,,,,,,,,,,,,,,,,,,,,,,,,,,,,,,,,,,,,,,,,,,,,,,528.0529552999651,528.0687870999682,528.5692788999877,528.5524144999799,528.5624255999574,528.5692788999877,528.5692788999877,528.5692788999877,529.8693905999535,Objects\037b.jpg,pre,s,1.2908464000211097,None,,,,,,,,00066,001,2026-01-20_12h26.21.761,MST_test,2024.2.0,60.01021373930368,2026-01-20 12h26.29.020510 +0530,
132,0,133,o,1.1545750999939628,None,133,0,132,529.8853170999791,,,,,,,,,,,,,,,,,,,,,,,,,,,,,,,,,,,,,,,,,,,,,,,,,,529.869482799957,529.8853170999791,530.3858062999789,530.3691631999682,530.3798297999892,530.3858062999789,530.3858062999789,530.3858062999789,531.5527000000002,Scenes\002a.jpg,post,o,1.1545750999939628,None,,,,,,,,00066,001,2026-01-20_12h26.21.761,MST_test,2024.2.0,60.01021373930368,2026-01-20 12h26.29.020510 +0530,
133,0,134,s,1.6792312000179663,None,134,0,133,531.5687773999525,,,,,,,,,,,,,,,,,,,,,,,,,,,,,,,,,,,,,,,,,,,,,,,,,,531.5527925999486,531.5687773999525,532.0693150999723,532.0524166999967,532.0635500999633,532.0693150999723,532.0693150999723,532.0693150999723,533.7527630999684,Objects\024b.jpg,mid,s,1.6792312000179663,None,,,,,,,,00066,001,2026-01-20_12h26.21.761,MST_test,2024.2.0,60.01021373930368,2026-01-20 12h26.29.020510 +0530,
134,0,135,o,1.3353210000204854,None,135,0,134,533.7687854999676,,,,,,,,,,,,,,,,,,,,,,,,,,,,,,,,,,,,,,,,,,,,,,,,,,533.7528576999903,533.7687854999676,534.2689750999562,534.2523696999997,534.2551128999912,534.2689750999562,534.2689750999562,534.2689750999562,535.6194818999502,Objects\106a.jpg,pre,o,1.3353210000204854,None,,,,,,,,00066,001,2026-01-20_12h26.21.761,MST_test,2024.2.0,60.01021373930368,2026-01-20 12h26.29.020510 +0530,
135,0,136,s,7.844440100016072,None,136,0,135,535.6353673999547,,,,,,,,,,,,,,,,,,,,,,,,,,,,,,,,,,,,,,,,,,,,,,,,,,535.6195794999949,535.6353673999547,536.1357950999518,536.1191299999482,536.1278488999815,536.1357950999518,536.1357950999518,536.1357950999518,543.9858530999627,Foils\scenes1.jpg,none,s,7.844440100016072,None,,,,,,,,00066,001,2026-01-20_12h26.21.761,MST_test,2024.2.0,60.01021373930368,2026-01-20 12h26.29.020510 +0530,
136,0,137,s,1.3978485999978147,None,137,0,136,544.0021188999526,,,,,,,,,,,,,,,,,,,,,,,,,,,,,,,,,,,,,,,,,,,,,,,,,,543.9859451999655,544.0021188999526,544.502382799983,544.4855757000041,544.4981009999756,544.502382799983,544.502382799983,544.502382799983,545.9027254999964,Objects\134b.jpg,post,s,1.3978485999978147,None,,,,,,,,00066,001,2026-01-20_12h26.21.761,MST_test,2024.2.0,60.01021373930368,2026-01-20 12h26.29.020510 +0530,
137,0,138,s,1.3849240000126883,None,138,0,137,545.918740299996,,,,,,,,,,,,,,,,,,,,,,,,,,,,,,,,,,,,,,,,,,,,,,,,,,545.9028207999654,545.918740299996,546.4189754999825,546.4027941999957,546.4134645999875,546.4189754999825,546.4189754999825,546.4189754999825,547.8193530999706,Objects\066b.jpg,post,s,1.3849240000126883,None,,,,,,,,00066,001,2026-01-20_12h26.21.761,MST_test,2024.2.0,60.01021373930368,2026-01-20 12h26.29.020510 +0530,
138,0,139,o,3.436474099988118,None,139,0,138,547.8353788999957,,,,,,,,,,,,,,,,,,,,,,,,,,,,,,,,,,,,,,,,,,,,,,,,,,547.819441999949,547.8353788999957,548.3358840000001,548.3190391999669,548.3297195999767,548.3358840000001,548.3358840000001,548.3358840000001,551.7859568999847,Scenes\010a.jpg,mid,o,3.436474099988118,None,,,,,,,,00066,001,2026-01-20_12h26.21.761,MST_test,2024.2.0,60.01021373930368,2026-01-20 12h26.29.020510 +0530,
139,0,140,n,2.772912699962035,None,140,0,139,551.8021201999509,,,,,,,,,,,,,,,,,,,,,,,,,,,,,,,,,,,,,,,,,,,,,,,,,,551.7860502999974,551.8021201999509,552.3026395999477,552.2855891999789,552.2957973000011,552.3026395999477,552.3026395999477,552.3026395999477,555.085929599998,Objects\131b.jpg,post,n,2.772912699962035,None,,,,,,,,00066,001,2026-01-20_12h26.21.761,MST_test,2024.2.0,60.01021373930368,2026-01-20 12h26.29.020510 +0530,
140,0,141,o,3.946013299981132,None,141,0,140,555.10211659997,,,,,,,,,,,,,,,,,,,,,,,,,,,,,,,,,,,,,,,,,,,,,,,,,,555.0860209999955,555.10211659997,555.6023241999792,555.5855797999538,555.5882290999871,555.6023241999792,555.6023241999792,555.6023241999792,559.5527873999672,Objects\130a.jpg,pre,o,3.946013299981132,None,,,,,,,,00066,001,2026-01-20_12h26.21.761,MST_test,2024.2.0,60.01021373930368,2026-01-20 12h26.29.020510 +0530,
141,0,142,s,1.6671526999562047,None,142,0,141,559.5687887999811,,,,,,,,,,,,,,,,,,,,,,,,,,,,,,,,,,,,,,,,,,,,,,,,,,559.5528804999776,559.5687887999811,560.0722867999575,560.0526273999712,560.0702430999954,560.0722867999575,560.0722867999575,560.0722867999575,561.7528674999485,Scenes\059b.jpg,post,s,1.6671526999562047,None,,,,,,,,00066,001,2026-01-20_12h26.21.761,MST_test,2024.2.0,60.01021373930368,2026-01-20 12h26.29.020510 +0530,
142,0,143,s,4.542520200018771,None,143,0,142,561.7687827000045,,,,,,,,,,,,,,,,,,,,,,,,,,,,,,,,,,,,,,,,,,,,,,,,,,561.7529686999624,561.7687827000045,,562.2537186999689,562.2641165999812,562.2695212999824,562.2695212999824,562.2695212999824,566.8194993999787,Objects\165b.jpg,post,s,4.542520200018771,None,,,,,,,,00066,001,2026-01-20_12h26.21.761,MST_test,2024.2.0,60.01021373930368,2026-01-20 12h26.29.020510 +0530,
143,0,144,o,5.59899949998362,None,144,0,143,566.835424799996,,,,,,,,,,,,,,,,,,,,,,,,,,,,,,,,,,,,,,,,,,,,,,,,,,566.819597499969,566.835424799996,567.3405119999661,567.3195674999733,567.3381883999682,567.3405119999661,567.3405119999661,567.3405119999661,572.9527106999885,Scenes\043b.jpg,pre,o,5.59899949998362,None,,,,,,,,00066,001,2026-01-20_12h26.21.761,MST_test,2024.2.0,60.01021373930368,2026-01-20 12h26.29.020510 +0530,
144,0,145,s,3.7907297000056133,None,145,0,144,572.9687201999477,,,,,,,,,,,,,,,,,,,,,,,,,,,,,,,,,,,,,,,,,,,,,,,,,,572.9528033999959,572.9687201999477,573.4693031999632,573.4522951999679,573.4622674999991,573.4693031999632,573.4693031999632,573.4693031999632,577.2695253999555,Foils\113a.jpg,none,s,3.7907297000056133,None,,,,,,,,00066,001,2026-01-20_12h26.21.761,MST_test,2024.2.0,60.01021373930368,2026-01-20 12h26.29.020510 +0530,
145,0,146,s,2.034373999980744,None,146,0,145,577.2852994999848,,,,,,,,,,,,,,,,,,,,,,,,,,,,,,,,,,,,,,,,,,,,,,,,,,577.269621399988,577.2852994999848,577.7859025999787,577.769034099998,577.7831615000032,577.7859025999787,577.7859025999787,577.7859025999787,579.8361207999988,Scenes\176b.jpg,mid,s,2.034373999980744,None,,,,,,,,00066,001,2026-01-20_12h26.21.761,MST_test,2024.2.0,60.01021373930368,2026-01-20 12h26.29.020510 +0530,
146,0,147,n,1.5793956000125036,None,147,0,146,579.8521772999666,,,,,,,,,,,,,,,,,,,,,,,,,,,,,,,,,,,,,,,,,,,,,,,,,,579.836216799973,579.8521772999666,580.3528375999886,580.3354670999688,580.3450840999722,580.3528375999886,580.3528375999886,580.3528375999886,581.9357763999724,Foils\065a.jpg,none,n,1.5793956000125036,None,,,,,,,,00066,001,2026-01-20_12h26.21.761,MST_test,2024.2.0,60.01021373930368,2026-01-20 12h26.29.020510 +0530,
147,0,148,n,1.18304909998551,None,148,0,147,581.9521249999525,,,,,,,,,,,,,,,,,,,,,,,,,,,,,,,,,,,,,,,,,,,,,,,,,,581.9358656999539,581.9521249999525,582.4525539999595,582.4357706999872,582.4447281999746,582.4525539999595,582.4525539999595,582.4525539999595,583.6363693999592,Foils\scenes16.jpg,none,n,1.18304909998551,None,,,,,,,,00066,001,2026-01-20_12h26.21.761,MST_test,2024.2.0,60.01021373930368,2026-01-20 12h26.29.020510 +0530,
148,0,149,o,1.731198699970264,None,149,0,148,583.652071999968,,,,,,,,,,,,,,,,,,,,,,,,,,,,,,,,,,,,,,,,,,,,,,,,,,583.6364602999529,583.652071999968,584.1524430999998,584.1355436999584,584.138498299988,584.1524430999998,584.1524430999998,584.1524430999998,585.88595299999,Objects\103a.jpg,post,o,1.731198699970264,None,,,,,,,,00066,001,2026-01-20_12h26.21.761,MST_test,2024.2.0,60.01021373930368,2026-01-20 12h26.29.020510 +0530,
149,0,150,n,2.4417803999967873,None,150,0,149,585.9021247999626,,,,,,,,,,,,,,,,,,,,,,,,,,,,,,,,,,,,,,,,,,,,,,,,,,585.8860446999897,585.9021247999626,586.4024448999553,586.3858464999939,586.3964238999761,586.4024448999553,586.4024448999553,586.4024448999553,588.8527232999913,Objects\104b.jpg,pre,n,2.4417803999967873,None,,,,,,,,00066,001,2026-01-20_12h26.21.761,MST_test,2024.2.0,60.01021373930368,2026-01-20 12h26.29.020510 +0530,
,,,,,,,,,,,,,,,,,,,,,,,,,,,,,,,,,,,,,,,,,,,,,,,,,,,,,,,,,,,,,,,,,,,,,,,,,588.8527878999594,588.8687447999837,588.8687447999837,590.5359880999895,space,1.655264700006228,None,00066,001,2026-01-20_12h26.21.761,MST_test,2024.2.0,60.01021373930368,2026-01-20 12h26.29.020510 +0530,
