Sl_no,image_path,thisN,thisTrialN,thisRepN,key_resp_5.keys,key_resp_7.keys,key_resp_7.rt,key_resp_7.duration,key_resp_5.rt,key_resp_5.duration,key_resp_9.keys,key_resp_8.keys,key_resp_8.rt,key_resp_8.duration,key_resp_9.rt,key_resp_9.duration,practice.thisRepN,practice.thisTrialN,practice.thisN,trials.thisRepN,trials.thisTrialN,trials.thisN,thisRow.t,notes,welcome_page.started,text.started,key_resp.started,welcome_page.stopped,key_resp.keys,key_resp.rt,key_resp.duration,instructions.started,ins.started,key_resp_2.started,instructions.stopped,key_resp_2.keys,key_resp_2.rt,key_resp_2.duration,instructions_2.started,text_10.started,key_resp_10.started,instructions_2.stopped,key_resp_10.keys,key_resp_10.rt,key_resp_10.duration,objects_only_instruction.started,text_3.started,key_resp_3.started,objects_only_instruction.stopped,key_resp_3.keys,key_resp_3.rt,key_resp_3.duration,ISI.started,text_4.started,ISI.stopped,practice_block.started,image.started,text_5.started,key_resp_5.started,practice_block.stopped,practice.key_resp_5.keys,indoor_outdoor.started,text_7.started,key_resp_7.started,indoor_outdoor.stopped,practice.key_resp_7.keys,practice.key_resp_7.rt,practice.key_resp_7.duration,text_4.stopped,image.stopped,text_5.stopped,key_resp_5.stopped,practice.key_resp_5.rt,practice.key_resp_5.duration,practice_to_main.started,text_2.started,key_resp_4.started,practice_to_main.stopped,key_resp_4.keys,key_resp_4.rt,key_resp_4.duration,objects.started,image_2.started,text_9.started,key_resp_9.started,objects.stopped,trials.key_resp_9.keys,encoding_task.started,text_8.started,key_resp_8.started,encoding_task.stopped,trials.key_resp_8.keys,trials.key_resp_8.rt,trials.key_resp_8.duration,image_2.stopped,text_9.stopped,key_resp_9.stopped,trials.key_resp_9.rt,trials.key_resp_9.duration,end_experiment.started,text_6.started,key_resp_6.started,end_experiment.stopped,key_resp_6.keys,key_resp_6.rt,key_resp_6.duration,list_of_stimuli,encoding_task_accuracy,participant,session,date,expName,psychopyVersion,frameRate,expStart,
,,,,,,,,,,,,,,,,,,,,,,,,,0.0016343999886885285,0.0032138999667949975,0.0032138999667949975,9.004025999980513,space,8.990494399971794,None,,,,,,,,,,,,,,,,,,,,,,,,,,,,,,,,,,,,,,,,,,,,,,,,,,,,,,,,,,,,,,,,,,,,,,,,,,,,,,00061,001,2026-01-19_16h57.47.717,MST_task,2024.2.0,60.000383991411596,2026-01-19 16h57.54.747861 +0530,
,,,,,,,,,,,,,,,,,,,,,,,,,,,,,,,,9.004058699996676,9.018786199972965,9.018786199972965,36.51940079999622,space,27.48807510000188,None,,,,,,,,,,,,,,,,,,,,,,,,,,,,,,,,,,,,,,,,,,,,,,,,,,,,,,,,,,,,,,,,,,,,,,,00061,001,2026-01-19_16h57.47.717,MST_task,2024.2.0,60.000383991411596,2026-01-19 16h57.54.747861 +0530,
,,,,,,,,,,,,,,,,,,,,,,,,,,,,,,,,,,,,,,,36.51942969998345,36.53561520000221,36.53561520000221,80.8527119999635,space,44.31537549995119,None,,,,,,,,,,,,,,,,,,,,,,,,,,,,,,,,,,,,,,,,,,,,,,,,,,,,,,,,,,,,,,,,00061,001,2026-01-19_16h57.47.717,MST_task,2024.2.0,60.000383991411596,2026-01-19 16h57.54.747861 +0530,
,,,,,,,,,,,,,,,,,,,,,,,,,,,,,,,,,,,,,,,,,,,,,,80.85274679999566,80.8690379000036,80.8690379000036,109.20277479995275,space,28.33257520000916,None,,,,,,,,,,,,,,,,,,,,,,,,,,,,,,,,,,,,,,,,,,,,,,,,,,,,,,,,,00061,001,2026-01-19_16h57.47.717,MST_task,2024.2.0,60.000383991411596,2026-01-19 16h57.54.747861 +0530,
6,practice_images/158a.jpg,0,0,1,None,j,1.6750257999519818,None,,,,,,,,,1,0,0,,,,109.22033310000552,,,,,,,,,,,,,,,,,,,,,,,,,,,,,,109.21770380000817,109.22033310000552,109.71894529997371,109.73294689995237,109.74358129996108,109.74358129996108,109.74358129996108,112.71909739996772,None,112.7210233999649,112.73556120001012,112.73556120001012,114.41935899999226,j,1.6750257999519818,None,,,,,,,,,,,,,,,,,,,,,,,,,,,,,,,,,,,,,,,,,00061,001,2026-01-19_16h57.47.717,MST_task,2024.2.0,60.000383991411596,2026-01-19 16h57.54.747861 +0530,
10,practice_images/182a.jpg,1,1,1,f,None,,,1.8982619000016712,0.19187069998588413,,,,,,,1,1,1,,,,114.43538889999036,,,,,,,,,,,,,,,,,,,,,,,,,,,,,,114.41945419996046,114.43538889999036,114.91916489996947,114.92757969995728,114.93570019997424,114.93570019997424,114.93570019997424,117.91931029997068,f,117.9193466999568,,,117.91935949999606,None,,,114.93570019997424,117.93549419997726,117.93549419997726,117.93549419997726,1.8982619000016712,0.19187069998588413,,,,,,,,,,,,,,,,,,,,,,,,,,,,,,,,,,,00061,001,2026-01-19_16h57.47.717,MST_task,2024.2.0,60.000383991411596,2026-01-19 16h57.54.747861 +0530,
4,practice_images/002b.jpg,2,2,1,None,j,2.270951399987098,None,,,,,,,,,1,2,2,,,,117.93549419997726,,,,,,,,,,,,,,,,,,,,,,,,,,,,,,117.91942920000292,117.93549419997726,118.4191668999847,118.42775440000696,118.43559149996145,118.43559149996145,118.43559149996145,121.41945659997873,None,121.41948899999261,121.43544759997167,121.43544759997167,123.7193266999675,j,2.270951399987098,None,118.43559149996145,121.43544759997167,121.43544759997167,121.43544759997167,,,,,,,,,,,,,,,,,,,,,,,,,,,,,,,,,,,,,00061,001,2026-01-19_16h57.47.717,MST_task,2024.2.0,60.000383991411596,2026-01-19 16h57.54.747861 +0530,
3,practice_images/037a.jpg,3,3,1,f,None,,,1.471064999990631,0.17482850002124906,,,,,,,1,3,3,,,,123.73542519996408,,,,,,,,,,,,,,,,,,,,,,,,,,,,,,123.71941119997064,123.73542519996408,124.2192676999839,124.22840009996435,124.23563539999304,124.23563539999304,124.23563539999304,127.21925279998686,f,127.2192896999768,,,127.21930179995252,None,,,124.23563539999304,127.23549529997399,127.23549529997399,127.23549529997399,1.471064999990631,0.17482850002124906,,,,,,,,,,,,,,,,,,,,,,,,,,,,,,,,,,,00061,001,2026-01-19_16h57.47.717,MST_task,2024.2.0,60.000383991411596,2026-01-19 16h57.54.747861 +0530,
2,practice_images/031a.jpg,4,4,1,j,None,,,1.8740435999934562,0.17606839997461066,,,,,,,1,4,4,,,,127.23549529997399,,,,,,,,,,,,,,,,,,,,,,,,,,,,,,127.219364199962,127.23549529997399,127.71918409998761,127.72789169999305,127.73578679998172,127.73578679998172,127.73578679998172,130.7193804999697,j,130.71941999997944,,,130.71943229995668,None,,,127.73578679998172,130.73558959999355,130.73558959999355,130.73558959999355,1.8740435999934562,0.17606839997461066,,,,,,,,,,,,,,,,,,,,,,,,,,,,,,,,,,,00061,001,2026-01-19_16h57.47.717,MST_task,2024.2.0,60.000383991411596,2026-01-19 16h57.54.747861 +0530,
7,practice_images/166a.jpg,5,5,1,None,j,0.6226429999805987,None,,,,,,,,,1,5,5,,,,130.73558959999355,,,,,,,,,,,,,,,,,,,,,,,,,,,,,,130.71950359997572,130.73558959999355,131.2191703999997,131.23065240000142,131.23553469998296,131.23553469998296,131.23553469998296,134.21942069998477,None,134.22222529997816,134.2355283999932,134.2355283999932,134.86939659999916,j,0.6226429999805987,None,131.23553469998296,134.2355283999932,134.2355283999932,134.2355283999932,,,,,,,,,,,,,,,,,,,,,,,,,,,,,,,,,,,,,00061,001,2026-01-19_16h57.47.717,MST_task,2024.2.0,60.000383991411596,2026-01-19 16h57.54.747861 +0530,
8,practice_images/178a.jpg,6,6,1,f,None,,,1.1526968999532983,0.16724830004386604,,,,,,,1,6,6,,,,134.88549969997257,,,,,,,,,,,,,,,,,,,,,,,,,,,,,,134.86947939998936,134.88549969997257,135.36915539996698,135.37758420000318,135.38584199995967,135.38584199995967,135.38584199995967,138.3696005999809,f,138.36964709998574,,,138.3696624999866,None,,,135.38584199995967,,,,1.1526968999532983,0.16724830004386604,,,,,,,,,,,,,,,,,,,,,,,,,,,,,,,,,,,00061,001,2026-01-19_16h57.47.717,MST_task,2024.2.0,60.000383991411596,2026-01-19 16h57.54.747861 +0530,
1,practice_images/013a.jpg,7,7,1,j,None,,,1.5246658999822102,0.17508370004361495,,,,,,,1,7,7,,,,138.38568309997208,,,,,,,,,,,,,,,,,,,,,,,,,,,,,,138.36973420000868,138.38568309997208,138.8691170999664,138.87807279999834,138.8857751999749,138.8857751999749,138.8857751999749,141.8696445999667,j,141.8696895999601,,,141.86970330000622,None,,,138.8857751999749,141.8857585999649,141.8857585999649,141.8857585999649,1.5246658999822102,0.17508370004361495,,,,,,,,,,,,,,,,,,,,,,,,,,,,,,,,,,,00061,001,2026-01-19_16h57.47.717,MST_task,2024.2.0,60.000383991411596,2026-01-19 16h57.54.747861 +0530,
5,practice_images/139a.jpg,8,8,1,j,None,,,2.2167140999808908,0.1910009999992326,,,,,,,1,8,8,,,,141.8857585999649,,,,,,,,,,,,,,,,,,,,,,,,,,,,,,141.8697692999849,141.8857585999649,142.36936359998072,142.3798148999922,142.38572849996854,142.38572849996854,142.38572849996854,145.36939559999155,j,145.3694313999731,,,145.3694433000055,None,,,142.38572849996854,145.3856800000067,145.3856800000067,145.3856800000067,2.2167140999808908,0.1910009999992326,,,,,,,,,,,,,,,,,,,,,,,,,,,,,,,,,,,00061,001,2026-01-19_16h57.47.717,MST_task,2024.2.0,60.000383991411596,2026-01-19 16h57.54.747861 +0530,
9,practice_images/180a.jpg,9,9,1,j,None,,,1.6931202000123449,0.20703480002703145,,,,,,,1,9,9,,,,145.3856800000067,,,,,,,,,,,,,,,,,,,,,,,,,,,,,,145.36950659996364,145.3856800000067,145.86947499995586,145.8782971999608,145.88594559999183,145.88594559999183,145.88594559999183,148.86932939995313,j,148.86937129998114,,,148.86938369995914,None,,,145.88594559999183,148.88543530000607,148.88543530000607,148.88543530000607,1.6931202000123449,0.20703480002703145,,,,,,,,,,,,,,,,,,,,,,,,,,,,,,,,,,,00061,001,2026-01-19_16h57.47.717,MST_task,2024.2.0,60.000383991411596,2026-01-19 16h57.54.747861 +0530,
,,,,,,,,,,,,,,,,,,,,,,,,,,,,,,,,,,,,,,,,,,,,,,,,,,,,,,,,,,,,,,,,,,,,,,,,,,,148.86942609999096,148.88543530000607,148.88543530000607,164.95285269996384,space,16.060082800046075,None,,,,,,,,,,,,,,,,,,,,,,,,,,,,00061,001,2026-01-19_16h57.47.717,MST_task,2024.2.0,60.000383991411596,2026-01-19 16h57.54.747861 +0530,
,Objects\036a.jpg,0,0,1,,,,,,,None,j,0.6518438000348397,None,,,,,,1,0,0,164.96907319995807,,,,,,,,,,,,,,,,,,,,,,,,,,,,,,164.95364689995768,164.96907319995807,165.45264539995696,,,,,,,,,,,,,,165.47594149998622,,,,,,,,,,,,,165.47277539997594,165.47594149998622,165.47594149998622,165.47594149998622,168.46918499999447,None,168.47224370000185,168.48567470000125,168.48567470000125,169.15286079997895,j,0.6518438000348397,None,,,,,,,,,,,,,,,00061,001,2026-01-19_16h57.47.717,MST_task,2024.2.0,60.000383991411596,2026-01-19 16h57.54.747861 +0530,
,Objects\064a.jpg,1,0,2,,,,,,,f,None,,,0.9168098000227474,0.1594825999927707,,,,2,0,1,169.16903119999915,,,,,,,,,,,,,,,,,,,,,,,,,,,,,,169.15295259997947,169.16903119999915,169.65261089999694,,,,,,,,,,,,,,169.66919220000273,,,,,,,,,,,,,169.6624945999938,169.66919220000273,169.66919220000273,169.66919220000273,172.6531364999828,f,172.65318839997053,,,172.65320060000522,None,,,172.66895289998502,172.66895289998502,172.66895289998502,0.9168098000227474,0.1594825999927707,,,,,,,,,,00061,001,2026-01-19_16h57.47.717,MST_task,2024.2.0,60.000383991411596,2026-01-19 16h57.54.747861 +0530,
,Objects\022a.jpg,2,0,3,,,,,,,f,None,,,2.1289836000069045,0.20000240002991632,,,,3,0,2,172.66895289998502,,,,,,,,,,,,,,,,,,,,,,,,,,,,,,172.6533078000066,172.66895289998502,173.1526686999714,,,,,,,,,,,,,,173.16910159995314,,,,,,,,,,,,,173.16218899999512,173.16910159995314,173.16910159995314,173.16910159995314,176.1530590999755,f,176.15310870000394,,,176.15312009997433,None,,,176.16901599999983,176.16901599999983,176.16901599999983,2.1289836000069045,0.20000240002991632,,,,,,,,,,00061,001,2026-01-19_16h57.47.717,MST_task,2024.2.0,60.000383991411596,2026-01-19 16h57.54.747861 +0530,
,Objects\128a.jpg,3,0,4,,,,,,,f,None,,,1.6372532999957912,0.18305450002662838,,,,4,0,3,176.16901599999983,,,,,,,,,,,,,,,,,,,,,,,,,,,,,,176.15318789996672,176.16901599999983,176.65268790000118,,,,,,,,,,,,,,176.66911769995932,,,,,,,,,,,,,176.66219070000807,176.66911769995932,176.66911769995932,176.66911769995932,179.65291429997887,f,179.65295759995934,,,179.65296839998337,None,,,179.66899370000465,179.66899370000465,179.66899370000465,1.6372532999957912,0.18305450002662838,,,,,,,,,,00061,001,2026-01-19_16h57.47.717,MST_task,2024.2.0,60.000383991411596,2026-01-19 16h57.54.747861 +0530,
,Objects\006a.jpg,4,0,5,,,,,,,f,None,,,1.5127594000077806,0.1835179000045173,,,,5,0,4,179.66899370000465,,,,,,,,,,,,,,,,,,,,,,,,,,,,,,179.65303230000427,179.66899370000465,180.15252679999685,,,,,,,,,,,,,,180.16929960000562,,,,,,,,,,,,,180.16224430000875,180.16929960000562,180.16929960000562,180.16929960000562,183.15290819999063,f,183.15295660000993,,,183.15296669997042,None,,,183.1690646999632,183.1690646999632,183.1690646999632,1.5127594000077806,0.1835179000045173,,,,,,,,,,00061,001,2026-01-19_16h57.47.717,MST_task,2024.2.0,60.000383991411596,2026-01-19 16h57.54.747861 +0530,
,Objects\048a.jpg,5,0,6,,,,,,,j,None,,,1.0128579000011086,0.1593876999686472,,,,6,0,5,183.1690646999632,,,,,,,,,,,,,,,,,,,,,,,,,,,,,,183.15303210000275,183.1690646999632,183.65298169996822,,,,,,,,,,,,,,183.66913339996245,,,,,,,,,,,,,183.66231960000005,183.66913339996245,183.66913339996245,183.66913339996245,186.65294249996077,j,186.65298680000706,,,186.65299789997516,None,,,186.66896059998544,186.66896059998544,186.66896059998544,1.0128579000011086,0.1593876999686472,,,,,,,,,,00061,001,2026-01-19_16h57.47.717,MST_task,2024.2.0,60.000383991411596,2026-01-19 16h57.54.747861 +0530,
,Objects\140a.jpg,6,0,7,,,,,,,f,None,,,2.8723477000021376,None,,,,7,0,6,186.66896059998544,,,,,,,,,,,,,,,,,,,,,,,,,,,,,,186.6530621999991,186.66896059998544,187.15268820000347,,,,,,,,,,,,,,187.16914199996972,,,,,,,,,,,,,187.16198410000652,187.16914199996972,187.16914199996972,187.16914199996972,190.15286159998504,f,190.1529171000002,,,190.15292859997135,None,,,190.16906849999214,190.16906849999214,190.16906849999214,2.8723477000021376,None,,,,,,,,,,00061,001,2026-01-19_16h57.47.717,MST_task,2024.2.0,60.000383991411596,2026-01-19 16h57.54.747861 +0530,
,Scenes\041a.jpg,7,0,8,,,,,,,j,None,,,0.7605603000265546,0.14423400000669062,,,,8,0,7,190.16906849999214,,,,,,,,,,,,,,,,,,,,,,,,,,,,,,190.1529951999546,190.16906849999214,190.65261140000075,,,,,,,,,,,,,,190.6810478999978,,,,,,,,,,,,,190.67859089997364,190.6810478999978,190.6810478999978,190.6810478999978,193.66926609998336,j,193.6711179999984,,,193.6711383999791,None,,,,,,0.7605603000265546,0.14423400000669062,,,,,,,,,,00061,001,2026-01-19_16h57.47.717,MST_task,2024.2.0,60.000383991411596,2026-01-19 16h57.54.747861 +0530,
,Scenes\053a.jpg,8,0,9,,,,,,,j,None,,,1.1516269000130706,0.16125139995710924,,,,9,0,8,193.68554340000264,,,,,,,,,,,,,,,,,,,,,,,,,,,,,,193.67121139995288,193.68554340000264,194.16917720000492,,,,,,,,,,,,,,194.18580799998017,,,,,,,,,,,,,194.17999659996713,194.18580799998017,194.18580799998017,194.18580799998017,197.16969539999263,j,197.16975070000626,,,197.16976259998046,None,,,197.18561319995206,197.18561319995206,197.18561319995206,1.1516269000130706,0.16125139995710924,,,,,,,,,,00061,001,2026-01-19_16h57.47.717,MST_task,2024.2.0,60.000383991411596,2026-01-19 16h57.54.747861 +0530,
,Scenes\088a.jpg,9,0,10,,,,,,,j,None,,,1.6684298000182025,0.1609730999916792,,,,10,0,9,197.18561319995206,,,,,,,,,,,,,,,,,,,,,,,,,,,,,,197.1698762999731,197.18561319995206,197.66932929999894,,,,,,,,,,,,,,197.69302939996123,,,,,,,,,,,,,197.69079189997865,197.69302939996123,197.69302939996123,197.69302939996123,200.68595399998594,j,200.68599619995803,,,200.686008699995,None,,,,,,1.6684298000182025,0.1609730999916792,,,,,,,,,,00061,001,2026-01-19_16h57.47.717,MST_task,2024.2.0,60.000383991411596,2026-01-19 16h57.54.747861 +0530,
,Scenes\185a.jpg,10,0,11,,,,,,,j,None,,,2.159182800038252,0.13603120000334457,,,,11,0,10,200.70238059997791,,,,,,,,,,,,,,,,,,,,,,,,,,,,,,200.68610900000203,200.70238059997791,201.18585999996867,,,,,,,,,,,,,,201.20289739995496,,,,,,,,,,,,,201.20009880000725,201.20289739995496,201.20289739995496,201.20289739995496,204.18604969995795,j,204.1860936000012,,,204.18610459996853,None,,,204.2022812999785,204.2022812999785,204.2022812999785,2.159182800038252,0.13603120000334457,,,,,,,,,,00061,001,2026-01-19_16h57.47.717,MST_task,2024.2.0,60.000383991411596,2026-01-19 16h57.54.747861 +0530,
,Scenes\149a.jpg,11,0,12,,,,,,,f,None,,,1.670473399979528,0.18366789998253807,,,,12,0,11,204.2022812999785,,,,,,,,,,,,,,,,,,,,,,,,,,,,,,204.18621399998665,204.2022812999785,204.6859271999565,,,,,,,,,,,,,,204.70794439996826,,,,,,,,,,,,,204.7055251999991,204.70794439996826,204.70794439996826,204.70794439996826,207.7025267999852,f,207.7025827000034,,,207.70259599998826,None,,,,,,1.670473399979528,0.18366789998253807,,,,,,,,,,00061,001,2026-01-19_16h57.47.717,MST_task,2024.2.0,60.000383991411596,2026-01-19 16h57.54.747861 +0530,
,Scenes\097a.jpg,12,0,13,,,,,,,f,None,,,1.3581578999874182,0.1931231000344269,,,,13,0,12,207.71894049999537,,,,,,,,,,,,,,,,,,,,,,,,,,,,,,207.70267079997575,207.71894049999537,208.2026372999535,,,,,,,,,,,,,,208.2195098999655,,,,,,,,,,,,,208.21268070000224,208.2195098999655,208.2195098999655,208.2195098999655,211.20309219998308,f,211.20313889998943,,,211.2031500999583,None,,,211.21892989997286,211.21892989997286,211.21892989997286,1.3581578999874182,0.1931231000344269,,,,,,,,,,00061,001,2026-01-19_16h57.47.717,MST_task,2024.2.0,60.000383991411596,2026-01-19 16h57.54.747861 +0530,
,Scenes\051a.jpg,13,0,14,,,,,,,j,None,,,1.474176699994132,0.18394640000769868,,,,14,0,13,211.21892989997286,,,,,,,,,,,,,,,,,,,,,,,,,,,,,,211.20326049998403,211.21892989997286,211.70256909995805,,,,,,,,,,,,,,211.71936210000422,,,,,,,,,,,,,211.7156845999998,211.71936210000422,211.71936210000422,211.71936210000422,214.70309269998688,j,214.70314479997614,,,214.7031563000055,None,,,214.71908589999657,214.71908589999657,214.71908589999657,1.474176699994132,0.18394640000769868,,,,,,,,,,00061,001,2026-01-19_16h57.47.717,MST_task,2024.2.0,60.000383991411596,2026-01-19 16h57.54.747861 +0530,
,Objects\043a.jpg,14,0,15,,,,,,,f,None,,,1.8629172999644652,0.17527770000742748,,,,15,0,14,214.71908589999657,,,,,,,,,,,,,,,,,,,,,,,,,,,,,,214.70327229995746,214.71908589999657,215.20251559995813,,,,,,,,,,,,,,215.21944069996243,,,,,,,,,,,,,215.21506379998755,215.21944069996243,215.21944069996243,215.21944069996243,218.20284699997865,f,218.20495949999895,,,218.20497739996063,None,,,218.2189170999918,218.2189170999918,218.2189170999918,1.8629172999644652,0.17527770000742748,,,,,,,,,,00061,001,2026-01-19_16h57.47.717,MST_task,2024.2.0,60.000383991411596,2026-01-19 16h57.54.747861 +0530,
,Objects\144a.jpg,15,0,16,,,,,,,j,None,,,2.539395500032697,0.15906450001057237,,,,16,0,15,218.2189170999918,,,,,,,,,,,,,,,,,,,,,,,,,,,,,,218.2050470999675,218.2189170999918,218.70262249995722,,,,,,,,,,,,,,218.71913139999378,,,,,,,,,,,,,218.71341859997483,218.71913139999378,218.71913139999378,218.71913139999378,221.7028721999959,j,221.70292209996842,,,221.70293349999702,None,,,221.71886699995957,221.71886699995957,221.71886699995957,2.539395500032697,0.15906450001057237,,,,,,,,,,00061,001,2026-01-19_16h57.47.717,MST_task,2024.2.0,60.000383991411596,2026-01-19 16h57.54.747861 +0530,
,Objects\132a.jpg,16,0,17,,,,,,,f,None,,,0.9105301999952644,0.1690974000375718,,,,17,0,16,221.71886699995957,,,,,,,,,,,,,,,,,,,,,,,,,,,,,,221.703033400001,221.71886699995957,222.2025836999528,,,,,,,,,,,,,,222.21916649997002,,,,,,,,,,,,,222.2121216999949,222.21916649997002,222.21916649997002,222.21916649997002,225.20283309998922,f,225.202877099975,,,225.2028883000021,None,,,225.21892919996753,225.21892919996753,225.21892919996753,0.9105301999952644,0.1690974000375718,,,,,,,,,,00061,001,2026-01-19_16h57.47.717,MST_task,2024.2.0,60.000383991411596,2026-01-19 16h57.54.747861 +0530,
,Objects\024a.jpg,17,0,18,,,,,,,f,None,,,2.691348400025163,0.13581359997624531,,,,18,0,17,225.21892919996753,,,,,,,,,,,,,,,,,,,,,,,,,,,,,,225.20298589998856,225.21892919996753,225.70257560000755,,,,,,,,,,,,,,225.7191099000047,,,,,,,,,,,,,225.7124138000072,225.7191099000047,225.7191099000047,225.7191099000047,228.70287959999405,f,228.7029324999894,,,228.70294349995675,None,,,228.71893539995654,228.71893539995654,228.71893539995654,2.691348400025163,0.13581359997624531,,,,,,,,,,00061,001,2026-01-19_16h57.47.717,MST_task,2024.2.0,60.000383991411596,2026-01-19 16h57.54.747861 +0530,
,Objects\041a.jpg,18,0,19,,,,,,,j,None,,,2.815064699971117,None,,,,19,0,18,228.71893539995654,,,,,,,,,,,,,,,,,,,,,,,,,,,,,,228.70304359996226,228.71893539995654,229.2025752000045,,,,,,,,,,,,,,229.21910180000123,,,,,,,,,,,,,229.21240650000982,229.21910180000123,229.21910180000123,229.21910180000123,232.20294299995294,j,232.2029857999878,,,232.20299669995438,None,,,232.21888229995966,232.21888229995966,232.21888229995966,2.815064699971117,None,,,,,,,,,,00061,001,2026-01-19_16h57.47.717,MST_task,2024.2.0,60.000383991411596,2026-01-19 16h57.54.747861 +0530,
,Objects\104a.jpg,19,0,20,,,,,,,f,None,,,1.1147583000129089,0.17550750001100823,,,,20,0,19,232.21888229995966,,,,,,,,,,,,,,,,,,,,,,,,,,,,,,232.203097599966,232.21888229995966,232.70251219999045,,,,,,,,,,,,,,232.71921949996613,,,,,,,,,,,,,232.71156480000354,232.71921949996613,232.71921949996613,232.71921949996613,235.70292660000268,f,235.70297409995692,,,235.70298569998704,None,,,235.71893559995806,235.71893559995806,235.71893559995806,1.1147583000129089,0.17550750001100823,,,,,,,,,,00061,001,2026-01-19_16h57.47.717,MST_task,2024.2.0,60.000383991411596,2026-01-19 16h57.54.747861 +0530,
,Objects\163a.jpg,20,0,21,,,,,,,f,None,,,2.447094700008165,0.17585040000267327,,,,21,0,20,235.71893559995806,,,,,,,,,,,,,,,,,,,,,,,,,,,,,,235.70308529998874,235.71893559995806,236.20266019995324,,,,,,,,,,,,,,236.2191188999568,,,,,,,,,,,,,236.212957599957,236.2191188999568,236.2191188999568,236.2191188999568,239.20302630000515,f,239.2030722000054,,,239.20308339997428,None,,,239.21899149997625,239.21899149997625,239.21899149997625,2.447094700008165,0.17585040000267327,,,,,,,,,,00061,001,2026-01-19_16h57.47.717,MST_task,2024.2.0,60.000383991411596,2026-01-19 16h57.54.747861 +0530,
,Scenes\020a.jpg,21,0,22,,,,,,,f,None,,,1.9313286999822594,0.16801910003414378,,,,22,0,21,239.21899149997625,,,,,,,,,,,,,,,,,,,,,,,,,,,,,,239.20315379998647,239.21899149997625,239.70255849999376,,,,,,,,,,,,,,239.72642839996843,,,,,,,,,,,,,239.72405819996493,239.72642839996843,239.72642839996843,239.72642839996843,242.71916529996088,f,242.72090989997378,,,242.72092960000737,None,,,,,,1.9313286999822594,0.16801910003414378,,,,,,,,,,00061,001,2026-01-19_16h57.47.717,MST_task,2024.2.0,60.000383991411596,2026-01-19 16h57.54.747861 +0530,
,Scenes\115a.jpg,22,0,23,,,,,,,j,None,,,2.211742299958132,0.17598560004262254,,,,23,0,22,242.73549019999336,,,,,,,,,,,,,,,,,,,,,,,,,,,,,,242.72104659996694,242.73549019999336,243.21920140000293,,,,,,,,,,,,,,243.23826489999192,,,,,,,,,,,,,243.2358600999578,243.23826489999192,243.23826489999192,243.23826489999192,246.23582070000703,j,246.2358711999841,,,246.2358843999682,None,,,,,,2.211742299958132,0.17598560004262254,,,,,,,,,,00061,001,2026-01-19_16h57.47.717,MST_task,2024.2.0,60.000383991411596,2026-01-19 16h57.54.747861 +0530,
,Scenes\047a.jpg,23,0,24,,,,,,,j,None,,,1.4463063000002876,0.1915586999966763,,,,24,0,23,246.2524725999683,,,,,,,,,,,,,,,,,,,,,,,,,,,,,,246.2359635999892,246.2524725999683,246.7357089999714,,,,,,,,,,,,,,246.75652549997903,,,,,,,,,,,,,246.75408019998576,246.75652549997903,246.75652549997903,246.75652549997903,249.75255909998668,j,249.75260010000784,,,249.75261299998965,None,,,,,,1.4463063000002876,0.1915586999966763,,,,,,,,,,00061,001,2026-01-19_16h57.47.717,MST_task,2024.2.0,60.000383991411596,2026-01-19 16h57.54.747861 +0530,
,Scenes\189a.jpg,24,0,25,,,,,,,j,None,,,0.904818500042893,0.15971609996631742,,,,25,0,24,249.76892850000877,,,,,,,,,,,,,,,,,,,,,,,,,,,,,,249.75271400000202,249.76892850000877,250.2525287999888,,,,,,,,,,,,,,250.27303219999885,,,,,,,,,,,,,250.27060639997944,250.27303219999885,250.27303219999885,250.27303219999885,253.26928449998377,j,253.26937090000138,,,253.26941309997346,None,,,,,,0.904818500042893,0.15971609996631742,,,,,,,,,,00061,001,2026-01-19_16h57.47.717,MST_task,2024.2.0,60.000383991411596,2026-01-19 16h57.54.747861 +0530,
,Scenes\144a.jpg,25,0,26,,,,,,,j,None,,,1.1759226999711245,0.16763330000685528,,,,26,0,25,253.28552420000779,,,,,,,,,,,,,,,,,,,,,,,,,,,,,,253.2695015000063,253.28552420000779,253.76921929995297,,,,,,,,,,,,,,253.78605249995599,,,,,,,,,,,,,253.7836289999541,253.78605249995599,253.78605249995599,253.78605249995599,256.7694514999748,j,256.76949459995376,,,256.76950549997855,None,,,256.7855269999709,256.7855269999709,256.7855269999709,1.1759226999711245,0.16763330000685528,,,,,,,,,,00061,001,2026-01-19_16h57.47.717,MST_task,2024.2.0,60.000383991411596,2026-01-19 16h57.54.747861 +0530,
,Scenes\034a.jpg,26,0,27,,,,,,,f,None,,,2.821171800023876,None,,,,27,0,26,256.7855269999709,,,,,,,,,,,,,,,,,,,,,,,,,,,,,,256.76960509998025,256.7855269999709,257.26915569999255,,,,,,,,,,,,,,257.29290419997415,,,,,,,,,,,,,257.2903091000044,257.29290419997415,257.29290419997415,257.29290419997415,260.285813399998,f,260.28585409995867,,,260.28586679999717,None,,,,,,2.821171800023876,None,,,,,,,,,,00061,001,2026-01-19_16h57.47.717,MST_task,2024.2.0,60.000383991411596,2026-01-19 16h57.54.747861 +0530,
,Scenes\093a.jpg,27,0,28,,,,,,,f,None,,,1.9475354999885894,0.1674191000056453,,,,28,0,27,260.3022044999525,,,,,,,,,,,,,,,,,,,,,,,,,,,,,,260.2859655999928,260.3022044999525,260.7859308999614,,,,,,,,,,,,,,260.80648319999455,,,,,,,,,,,,,260.8038561999565,260.80648319999455,260.80648319999455,260.80648319999455,263.785950999998,f,263.78603779996047,,,263.78605110000353,None,,,,,,1.9475354999885894,0.1674191000056453,,,,,,,,,,00061,001,2026-01-19_16h57.47.717,MST_task,2024.2.0,60.000383991411596,2026-01-19 16h57.54.747861 +0530,
,Objects\067a.jpg,28,0,29,,,,,,,None,f,0.2770154000027105,None,,,,,,29,0,28,263.80229209997924,,,,,,,,,,,,,,,,,,,,,,,,,,,,,,263.786156999995,263.80229209997924,264.28595349995885,,,,,,,,,,,,,,264.30279679998057,,,,,,,,,,,,,264.2999535999843,264.30279679998057,264.30279679998057,264.30279679998057,267.28629659995204,None,267.28836539998883,267.30241599999135,267.30241599999135,267.58639189996757,f,0.2770154000027105,None,267.30241599999135,267.30241599999135,267.30241599999135,,,,,,,,,,,,00061,001,2026-01-19_16h57.47.717,MST_task,2024.2.0,60.000383991411596,2026-01-19 16h57.54.747861 +0530,
,Objects\189a.jpg,29,0,30,,,,,,,j,None,,,2.667598799976986,0.09634139999980107,,,,30,0,29,267.6023959000013,,,,,,,,,,,,,,,,,,,,,,,,,,,,,,267.58649099996546,267.6023959000013,268.0860363999964,,,,,,,,,,,,,,268.1025024999981,,,,,,,,,,,,,268.0959206999978,268.1025024999981,268.1025024999981,268.1025024999981,271.0861545999651,j,271.0861998999608,,,271.0862114999909,None,,,271.10237739997683,271.10237739997683,271.10237739997683,2.667598799976986,0.09634139999980107,,,,,,,,,,00061,001,2026-01-19_16h57.47.717,MST_task,2024.2.0,60.000383991411596,2026-01-19 16h57.54.747861 +0530,
,Objects\111a.jpg,30,0,31,,,,,,,j,None,,,1.3596267000539228,0.17519509996054694,,,,31,0,30,271.10237739997683,,,,,,,,,,,,,,,,,,,,,,,,,,,,,,271.08630909997737,271.10237739997683,271.5858676999924,,,,,,,,,,,,,,271.6026126999641,,,,,,,,,,,,,271.5956433999818,271.6026126999641,271.6026126999641,271.6026126999641,274.5861795999808,j,274.5862259999849,,,274.58623749995604,None,,,274.602301899984,274.602301899984,274.602301899984,1.3596267000539228,0.17519509996054694,,,,,,,,,,00061,001,2026-01-19_16h57.47.717,MST_task,2024.2.0,60.000383991411596,2026-01-19 16h57.54.747861 +0530,
,Objects\143a.jpg,31,0,32,,,,,,,f,None,,,1.6594968000426888,0.16752089996589348,,,,32,0,31,274.602301899984,,,,,,,,,,,,,,,,,,,,,,,,,,,,,,274.5863478999818,274.602301899984,275.08594949997496,,,,,,,,,,,,,,275.1025520999683,,,,,,,,,,,,,275.0955604999908,275.1025520999683,275.1025520999683,275.1025520999683,278.08620409999276,f,278.0862471999717,,,278.0862586000003,None,,,278.1023999999743,278.1023999999743,278.1023999999743,1.6594968000426888,0.16752089996589348,,,,,,,,,,00061,001,2026-01-19_16h57.47.717,MST_task,2024.2.0,60.000383991411596,2026-01-19 16h57.54.747861 +0530,
,Objects\142a.jpg,32,0,33,,,,,,,f,None,,,0.8150371999945492,0.16006129997549579,,,,33,0,32,278.1023999999743,,,,,,,,,,,,,,,,,,,,,,,,,,,,,,278.0863263999927,278.1023999999743,278.58588589995634,,,,,,,,,,,,,,278.60261249996256,,,,,,,,,,,,,278.59562849998474,278.60261249996256,278.60261249996256,278.60261249996256,281.5863260999904,f,281.58637069998076,,,281.58638140000403,None,,,281.6024119000067,281.6024119000067,281.6024119000067,0.8150371999945492,0.16006129997549579,,,,,,,,,,00061,001,2026-01-19_16h57.47.717,MST_task,2024.2.0,60.000383991411596,2026-01-19 16h57.54.747861 +0530,
,Objects\107a.jpg,33,0,34,,,,,,,j,None,,,1.4599237000220455,0.15101839997805655,,,,34,0,33,281.6024119000067,,,,,,,,,,,,,,,,,,,,,,,,,,,,,,281.5864763999707,281.6024119000067,282.0858384000021,,,,,,,,,,,,,,282.1025370999705,,,,,,,,,,,,,282.09521810000297,282.1025370999705,282.1025370999705,282.1025370999705,285.08631719998084,j,285.0863592000096,,,285.08636969997315,None,,,285.10234939999646,285.10234939999646,285.10234939999646,1.4599237000220455,0.15101839997805655,,,,,,,,,,00061,001,2026-01-19_16h57.47.717,MST_task,2024.2.0,60.000383991411596,2026-01-19 16h57.54.747861 +0530,
,Objects\085a.jpg,34,0,35,,,,,,,j,None,,,1.1991350000025705,0.18515440000919625,,,,35,0,34,285.10234939999646,,,,,,,,,,,,,,,,,,,,,,,,,,,,,,285.086470499984,285.10234939999646,285.58594799996354,,,,,,,,,,,,,,285.6026206999668,,,,,,,,,,,,,285.59695029997965,285.6026206999668,285.6026206999668,285.6026206999668,288.5862497999915,j,288.58629229996586,,,288.5863032999914,None,,,288.60247209999943,288.60247209999943,288.60247209999943,1.1991350000025705,0.18515440000919625,,,,,,,,,,00061,001,2026-01-19_16h57.47.717,MST_task,2024.2.0,60.000383991411596,2026-01-19 16h57.54.747861 +0530,
,Scenes\050a.jpg,35,0,36,,,,,,,j,None,,,1.6674922999809496,0.15943100000731647,,,,36,0,35,288.60247209999943,,,,,,,,,,,,,,,,,,,,,,,,,,,,,,288.5864002999733,288.60247209999943,289.0858786999597,,,,,,,,,,,,,,289.1033707999741,,,,,,,,,,,,,289.1010879999958,289.1033707999741,289.1033707999741,289.1033707999741,292.10298169997986,j,292.1046480999794,,,292.10466809995705,None,,,,,,1.6674922999809496,0.15943100000731647,,,,,,,,,,00061,001,2026-01-19_16h57.47.717,MST_task,2024.2.0,60.000383991411596,2026-01-19 16h57.54.747861 +0530,
,Scenes\076a.jpg,36,0,37,,,,,,,j,None,,,0.8474823999567889,0.16807390004396439,,,,37,0,36,292.1190445999964,,,,,,,,,,,,,,,,,,,,,,,,,,,,,,292.10478090000106,292.1190445999964,292.60248419997515,,,,,,,,,,,,,,292.6263391999528,,,,,,,,,,,,,292.6240014999639,292.6263391999528,292.6263391999528,292.6263391999528,295.61913299997104,j,295.6191790999728,,,295.61919219995616,None,,,,,,0.8474823999567889,0.16807390004396439,,,,,,,,,,00061,001,2026-01-19_16h57.47.717,MST_task,2024.2.0,60.000383991411596,2026-01-19 16h57.54.747861 +0530,
,Scenes\083a.jpg,37,0,38,,,,,,,j,None,,,1.0017303000204265,0.1589986999752,,,,38,0,37,295.635647099989,,,,,,,,,,,,,,,,,,,,,,,,,,,,,,295.61930299998494,295.635647099989,296.1192086999654,,,,,,,,,,,,,,296.13731079996796,,,,,,,,,,,,,296.13492749998113,296.13731079996796,296.13731079996796,296.13731079996796,299.13585809996584,j,299.1359000999946,,,299.1359130999772,None,,,,,,1.0017303000204265,0.1589986999752,,,,,,,,,,00061,001,2026-01-19_16h57.47.717,MST_task,2024.2.0,60.000383991411596,2026-01-19 16h57.54.747861 +0530,
,Scenes\072a.jpg,38,0,39,,,,,,,j,None,,,1.2266451999894343,0.1668622000142932,,,,39,0,38,299.1522854999639,,,,,,,,,,,,,,,,,,,,,,,,,,,,,,299.1360133999842,299.1522854999639,299.6358064999804,,,,,,,,,,,,,,299.6560641999822,,,,,,,,,,,,,299.6536802999908,299.6560641999822,299.6560641999822,299.6560641999822,302.6525421999977,j,302.6525861999835,,,302.65259899996454,None,,,,,,1.2266451999894343,0.1668622000142932,,,,,,,,,,00061,001,2026-01-19_16h57.47.717,MST_task,2024.2.0,60.000383991411596,2026-01-19 16h57.54.747861 +0530,
,Scenes\019a.jpg,39,0,40,,,,,,,f,None,,,2.1668839000049047,0.16018970002187416,,,,40,0,39,302.66890049999347,,,,,,,,,,,,,,,,,,,,,,,,,,,,,,302.65269749995787,302.66890049999347,303.1525660000043,,,,,,,,,,,,,,303.1715421999688,,,,,,,,,,,,,303.16905029996997,303.1715421999688,303.1715421999688,303.1715421999688,306.16916059999494,f,306.1692051999853,,,306.1692175999633,None,,,,,,2.1668839000049047,0.16018970002187416,,,,,,,,,,00061,001,2026-01-19_16h57.47.717,MST_task,2024.2.0,60.000383991411596,2026-01-19 16h57.54.747861 +0530,
,Scenes\017a.jpg,40,0,41,,,,,,,f,None,,,1.7056817000266165,0.1509119999827817,,,,41,0,40,306.1855663000024,,,,,,,,,,,,,,,,,,,,,,,,,,,,,,306.16928759997245,306.1855663000024,306.6691958999727,,,,,,,,,,,,,,306.6888384000049,,,,,,,,,,,,,306.6865418999805,306.6888384000049,306.6888384000049,306.6888384000049,309.6857362999581,f,309.68577799998457,,,309.6857899999595,None,,,,,,1.7056817000266165,0.1509119999827817,,,,,,,,,,00061,001,2026-01-19_16h57.47.717,MST_task,2024.2.0,60.000383991411596,2026-01-19 16h57.54.747861 +0530,
,Scenes\183a.jpg,41,0,42,,,,,,,f,None,,,1.2614892999990843,0.15167859999928623,,,,42,0,41,309.7022956999717,,,,,,,,,,,,,,,,,,,,,,,,,,,,,,309.6858932999894,309.7022956999717,310.185825499997,,,,,,,,,,,,,,310.20530879998114,,,,,,,,,,,,,310.20298669999465,310.20530879998114,310.20530879998114,310.20530879998114,313.20251189998817,f,313.20255849999376,,,313.20257169997785,None,,,,,,1.2614892999990843,0.15167859999928623,,,,,,,,,,00061,001,2026-01-19_16h57.47.717,MST_task,2024.2.0,60.000383991411596,2026-01-19 16h57.54.747861 +0530,
,Objects\151a.jpg,42,0,43,,,,,,,f,None,,,1.4747388000250794,0.1512349999975413,,,,43,0,42,313.21892710000975,,,,,,,,,,,,,,,,,,,,,,,,,,,,,,313.2026833999553,313.21892710000975,313.7025665999972,,,,,,,,,,,,,,313.719497699989,,,,,,,,,,,,,313.7152561999974,313.719497699989,313.719497699989,313.719497699989,316.70322969998233,f,316.7053994999733,,,316.7054192000069,None,,,316.71902309998404,316.71902309998404,316.71902309998404,1.4747388000250794,0.1512349999975413,,,,,,,,,,00061,001,2026-01-19_16h57.47.717,MST_task,2024.2.0,60.000383991411596,2026-01-19 16h57.54.747861 +0530,
,Objects\120a.jpg,43,0,44,,,,,,,f,None,,,1.2627936999779195,0.15198470000177622,,,,44,0,43,316.71902309998404,,,,,,,,,,,,,,,,,,,,,,,,,,,,,,316.70549530000426,316.71902309998404,317.202575000003,,,,,,,,,,,,,,317.21929400000954,,,,,,,,,,,,,317.2113138999557,317.21929400000954,317.21929400000954,317.21929400000954,320.2029215999646,f,320.2029649000033,,,320.2029753999668,None,,,320.21890919998987,320.21890919998987,320.21890919998987,1.2627936999779195,0.15198470000177622,,,,,,,,,,00061,001,2026-01-19_16h57.47.717,MST_task,2024.2.0,60.000383991411596,2026-01-19 16h57.54.747861 +0530,
,Objects\023a.jpg,44,0,45,,,,,,,f,None,,,0.8909814999788068,0.1352245999732986,,,,45,0,44,320.21890919998987,,,,,,,,,,,,,,,,,,,,,,,,,,,,,,320.2030398999923,320.21890919998987,320.70291239995277,,,,,,,,,,,,,,320.71929449995514,,,,,,,,,,,,,320.71423739998136,320.71929449995514,320.71929449995514,320.71929449995514,323.70291170000564,f,323.70295669999905,,,323.70296829997096,None,,,323.71897290000925,323.71897290000925,323.71897290000925,0.8909814999788068,0.1352245999732986,,,,,,,,,,00061,001,2026-01-19_16h57.47.717,MST_task,2024.2.0,60.000383991411596,2026-01-19 16h57.54.747861 +0530,
,Objects\190a.jpg,45,0,46,,,,,,,f,None,,,0.7919249000260606,0.1909555000020191,,,,46,0,45,323.71897290000925,,,,,,,,,,,,,,,,,,,,,,,,,,,,,,323.7030340000056,323.71897290000925,324.2025580999907,,,,,,,,,,,,,,324.2191794999526,,,,,,,,,,,,,324.21351889998186,324.2191794999526,324.2191794999526,324.2191794999526,327.20285790000344,f,327.20291089999955,,,327.2029228999745,None,,,327.21899199998006,327.21899199998006,327.21899199998006,0.7919249000260606,0.1909555000020191,,,,,,,,,,00061,001,2026-01-19_16h57.47.717,MST_task,2024.2.0,60.000383991411596,2026-01-19 16h57.54.747861 +0530,
,Objects\123a.jpg,46,0,47,,,,,,,f,None,,,2.211168700014241,0.16739639994921163,,,,47,0,46,327.21899199998006,,,,,,,,,,,,,,,,,,,,,,,,,,,,,,327.2029891999555,327.21899199998006,327.7026665000012,,,,,,,,,,,,,,327.7191734999651,,,,,,,,,,,,,327.71297249995405,327.7191734999651,327.7191734999651,327.7191734999651,330.70293909998145,f,330.7029847999802,,,330.7029963999521,None,,,330.71901969995815,330.71901969995815,330.71901969995815,2.211168700014241,0.16739639994921163,,,,,,,,,,00061,001,2026-01-19_16h57.47.717,MST_task,2024.2.0,60.000383991411596,2026-01-19 16h57.54.747861 +0530,
,Objects\160a.jpg,47,0,48,,,,,,,None,f,0.5353765999898314,None,,,,,,48,0,47,330.71901969995815,,,,,,,,,,,,,,,,,,,,,,,,,,,,,,330.70306329999585,330.71901969995815,331.2025037999847,,,,,,,,,,,,,,331.21919360000174,,,,,,,,,,,,,331.2122137999977,331.21919360000174,331.21919360000174,331.21919360000174,334.20286359998863,None,334.2029021999915,334.21898529998725,334.21898529998725,334.7694520999794,f,0.5353765999898314,None,334.21898529998725,334.21898529998725,334.21898529998725,,,,,,,,,,,,00061,001,2026-01-19_16h57.47.717,MST_task,2024.2.0,60.000383991411596,2026-01-19 16h57.54.747861 +0530,
,Objects\149a.jpg,48,0,49,,,,,,,j,None,,,1.0196687999996357,0.152955400000792,,,,49,0,48,334.7854854000034,,,,,,,,,,,,,,,,,,,,,,,,,,,,,,334.76953839999624,334.7854854000034,335.26932099997066,,,,,,,,,,,,,,335.2858311999589,,,,,,,,,,,,,335.27921109995805,335.2858311999589,335.2858311999589,335.2858311999589,338.26946619997034,j,338.2695105999592,,,338.2695221999893,None,,,338.2854752999847,338.2854752999847,338.2854752999847,1.0196687999996357,0.152955400000792,,,,,,,,,,00061,001,2026-01-19_16h57.47.717,MST_task,2024.2.0,60.000383991411596,2026-01-19 16h57.54.747861 +0530,
,Scenes\181a.jpg,49,0,50,,,,,,,j,None,,,2.5471496999962255,0.185502499982249,,,,50,0,49,338.2854752999847,,,,,,,,,,,,,,,,,,,,,,,,,,,,,,338.2696245999541,338.2854752999847,338.76914980000583,,,,,,,,,,,,,,338.79036270000506,,,,,,,,,,,,,338.78796950000105,338.79036270000506,338.79036270000506,338.79036270000506,341.7858372000046,j,341.78742720000446,,,341.78744639997603,None,,,,,,2.5471496999962255,0.185502499982249,,,,,,,,,,00061,001,2026-01-19_16h57.47.717,MST_task,2024.2.0,60.000383991411596,2026-01-19 16h57.54.747861 +0530,
,Scenes\186a.jpg,50,0,51,,,,,,,f,None,,,1.3705816000001505,0.18407809996278957,,,,51,0,50,341.8022199999541,,,,,,,,,,,,,,,,,,,,,,,,,,,,,,341.78751779999584,341.8022199999541,342.28573459998006,,,,,,,,,,,,,,342.3029530000058,,,,,,,,,,,,,342.3006530999555,342.3029530000058,342.3029530000058,342.3029530000058,345.2862427000073,f,345.286292099976,,,345.2863035000046,None,,,345.30231969995657,345.30231969995657,345.30231969995657,1.3705816000001505,0.18407809996278957,,,,,,,,,,00061,001,2026-01-19_16h57.47.717,MST_task,2024.2.0,60.000383991411596,2026-01-19 16h57.54.747861 +0530,
,Scenes\042a.jpg,51,0,52,,,,,,,j,None,,,1.118915900005959,0.15099380002357066,,,,52,0,51,345.30231969995657,,,,,,,,,,,,,,,,,,,,,,,,,,,,,,345.286371299997,345.30231969995657,345.78574259998277,,,,,,,,,,,,,,345.8042488999781,,,,,,,,,,,,,345.8017692999565,345.8042488999781,345.8042488999781,345.8042488999781,348.8025527999853,j,348.802595999965,,,348.80260799999814,None,,,,,,1.118915900005959,0.15099380002357066,,,,,,,,,,00061,001,2026-01-19_16h57.47.717,MST_task,2024.2.0,60.000383991411596,2026-01-19 16h57.54.747861 +0530,
,Scenes\140a.jpg,52,0,53,,,,,,,j,None,,,2.6345074999844655,0.1523029999807477,,,,53,0,52,348.8189717999776,,,,,,,,,,,,,,,,,,,,,,,,,,,,,,348.8026743999799,348.8189717999776,349.3026708999532,,,,,,,,,,,,,,349.31945239997003,,,,,,,,,,,,,349.3169803000055,349.31945239997003,349.31945239997003,349.31945239997003,352.30267419997836,j,352.30271919997176,,,352.3027313000057,None,,,,,,2.6345074999844655,0.1523029999807477,,,,,,,,,,00061,001,2026-01-19_16h57.47.717,MST_task,2024.2.0,60.000383991411596,2026-01-19 16h57.54.747861 +0530,
,Scenes\022a.jpg,53,0,54,,,,,,,j,None,,,2.0942887000273913,0.19310049997875467,,,,54,0,53,352.3189602000057,,,,,,,,,,,,,,,,,,,,,,,,,,,,,,352.30285219999496,352.3189602000057,352.80279549997067,,,,,,,,,,,,,,352.81949580000946,,,,,,,,,,,,,352.8141855999711,352.81949580000946,352.81949580000946,352.81949580000946,355.8029255999718,j,355.802968999953,,,355.80297999997856,None,,,355.8190037999884,355.8190037999884,355.8190037999884,2.0942887000273913,0.19310049997875467,,,,,,,,,,00061,001,2026-01-19_16h57.47.717,MST_task,2024.2.0,60.000383991411596,2026-01-19 16h57.54.747861 +0530,
,Scenes\059a.jpg,54,0,55,,,,,,,j,None,,,1.3647904999670573,0.1523723000427708,,,,55,0,54,355.8190037999884,,,,,,,,,,,,,,,,,,,,,,,,,,,,,,355.803075600008,355.8190037999884,356.3024710000027,,,,,,,,,,,,,,356.3253131000092,,,,,,,,,,,,,356.32292889995733,356.3253131000092,356.3253131000092,356.3253131000092,359.31921929999953,j,359.3192622999777,,,359.31927459995495,None,,,,,,1.3647904999670573,0.1523723000427708,,,,,,,,,,00061,001,2026-01-19_16h57.47.717,MST_task,2024.2.0,60.000383991411596,2026-01-19 16h57.54.747861 +0530,
,Scenes\046a.jpg,55,0,56,,,,,,,j,None,,,1.9443981999647804,0.16830499999923632,,,,56,0,55,359.3354870000039,,,,,,,,,,,,,,,,,,,,,,,,,,,,,,359.3193825999624,359.3354870000039,359.81925929995487,,,,,,,,,,,,,,359.84170849999646,,,,,,,,,,,,,359.83935409999685,359.84170849999646,359.84170849999646,359.84170849999646,362.8357452999917,j,362.83579529996496,,,362.83580850000726,None,,,,,,1.9443981999647804,0.16830499999923632,,,,,,,,,,00061,001,2026-01-19_16h57.47.717,MST_task,2024.2.0,60.000383991411596,2026-01-19 16h57.54.747861 +0530,
,Objects\017a.jpg,56,0,57,,,,,,,f,None,,,1.825661700044293,0.13590629998361692,,,,57,0,56,362.8522987999604,,,,,,,,,,,,,,,,,,,,,,,,,,,,,,362.8359236999531,362.8522987999604,363.3357726999675,,,,,,,,,,,,,,363.3527866000077,,,,,,,,,,,,,363.3482791999704,363.3527866000077,363.3527866000077,363.3527866000077,366.3362063000095,f,366.33820249995915,,,366.33821959997294,None,,,366.3523006999749,366.3523006999749,366.3523006999749,1.825661700044293,0.13590629998361692,,,,,,,,,,00061,001,2026-01-19_16h57.47.717,MST_task,2024.2.0,60.000383991411596,2026-01-19 16h57.54.747861 +0530,
,Objects\171a.jpg,57,0,58,,,,,,,j,None,,,0.8857746999710798,0.18402079999214038,,,,58,0,57,366.3523006999749,,,,,,,,,,,,,,,,,,,,,,,,,,,,,,366.33828889997676,366.3523006999749,366.8357436999795,,,,,,,,,,,,,,366.85255069995765,,,,,,,,,,,,,366.8453798999544,366.85255069995765,366.85255069995765,366.85255069995765,369.83616499998607,j,369.83620639995206,,,369.83621729997685,None,,,369.85227619996294,369.85227619996294,369.85227619996294,0.8857746999710798,0.18402079999214038,,,,,,,,,,00061,001,2026-01-19_16h57.47.717,MST_task,2024.2.0,60.000383991411596,2026-01-19 16h57.54.747861 +0530,
,Objects\169a.jpg,58,0,59,,,,,,,j,None,,,1.9942356999963522,0.15889630001038313,,,,59,0,58,369.85227619996294,,,,,,,,,,,,,,,,,,,,,,,,,,,,,,369.83631539996713,369.85227619996294,370.33582739997655,,,,,,,,,,,,,,370.3525023999973,,,,,,,,,,,,,370.345568299992,370.3525023999973,370.3525023999973,370.3525023999973,373.3360820999951,j,373.3361263999832,,,373.3361372000072,None,,,373.35231839999324,373.35231839999324,373.35231839999324,1.9942356999963522,0.15889630001038313,,,,,,,,,,00061,001,2026-01-19_16h57.47.717,MST_task,2024.2.0,60.000383991411596,2026-01-19 16h57.54.747861 +0530,
,Objects\185a.jpg,59,0,60,,,,,,,f,None,,,2.309552700025961,0.18403509998461232,,,,60,0,59,373.35231839999324,,,,,,,,,,,,,,,,,,,,,,,,,,,,,,373.33620309998514,373.35231839999324,373.8359516999917,,,,,,,,,,,,,,373.8525864999974,,,,,,,,,,,,,373.84621339995647,373.8525864999974,373.8525864999974,373.8525864999974,376.83614229998784,f,376.83618679997744,,,376.83619790000375,None,,,376.8522493999917,376.8522493999917,376.8522493999917,2.309552700025961,0.18403509998461232,,,,,,,,,,00061,001,2026-01-19_16h57.47.717,MST_task,2024.2.0,60.000383991411596,2026-01-19 16h57.54.747861 +0530,
,Objects\177a.jpg,60,0,61,,,,,,,j,None,,,2.7702875999966636,0.15170409996062517,,,,61,0,60,376.8522493999917,,,,,,,,,,,,,,,,,,,,,,,,,,,,,,376.83629700000165,376.8522493999917,377.3358103999635,,,,,,,,,,,,,,377.3524735000101,,,,,,,,,,,,,377.34510949999094,377.3524735000101,377.3524735000101,377.3524735000101,380.33619379997253,j,380.33623799995985,,,380.3362491999869,None,,,380.352318499994,380.352318499994,380.352318499994,2.7702875999966636,0.15170409996062517,,,,,,,,,,00061,001,2026-01-19_16h57.47.717,MST_task,2024.2.0,60.000383991411596,2026-01-19 16h57.54.747861 +0530,
,Objects\014a.jpg,61,0,62,,,,,,,f,None,,,0.853501999983564,0.17610829998739064,,,,62,0,61,380.352318499994,,,,,,,,,,,,,,,,,,,,,,,,,,,,,,380.3363552999799,380.352318499994,380.83585559995845,,,,,,,,,,,,,,380.8524718999979,,,,,,,,,,,,,380.84536949999165,380.8524718999979,380.8524718999979,380.8524718999979,383.8361249999725,f,383.83616609999444,,,383.83617689996026,None,,,383.8524020999903,383.8524020999903,383.8524020999903,0.853501999983564,0.17610829998739064,,,,,,,,,,00061,001,2026-01-19_16h57.47.717,MST_task,2024.2.0,60.000383991411596,2026-01-19 16h57.54.747861 +0530,
,Objects\145a.jpg,62,0,63,,,,,,,f,None,,,2.76978379994398,0.15948210004717112,,,,63,0,62,383.8524020999903,,,,,,,,,,,,,,,,,,,,,,,,,,,,,,383.836274900008,383.8524020999903,384.3361985000083,,,,,,,,,,,,,,384.3526917999843,,,,,,,,,,,,,384.3472549999715,384.3526917999843,384.3526917999843,384.3526917999843,387.33617749996483,f,387.3362191999913,,,387.3362298999564,None,,,387.3524400999886,387.3524400999886,387.3524400999886,2.76978379994398,0.15948210004717112,,,,,,,,,,00061,001,2026-01-19_16h57.47.717,MST_task,2024.2.0,60.000383991411596,2026-01-19 16h57.54.747861 +0530,
,Scenes\175a.jpg,63,0,64,,,,,,,j,None,,,1.2598843000014313,0.08906399999978021,,,,64,0,63,387.3524400999886,,,,,,,,,,,,,,,,,,,,,,,,,,,,,,387.3363236999721,387.3524400999886,387.8359338999726,,,,,,,,,,,,,,387.85363549995236,,,,,,,,,,,,,387.85100119997514,387.85363549995236,387.85363549995236,387.85363549995236,390.85263449995546,j,390.8542829999933,,,390.8543005999527,None,,,,,,1.2598843000014313,0.08906399999978021,,,,,,,,,,00061,001,2026-01-19_16h57.47.717,MST_task,2024.2.0,60.000383991411596,2026-01-19 16h57.54.747861 +0530,
,Scenes\131a.jpg,64,0,65,,,,,,,j,None,,,1.3399380999617279,0.1524852000293322,,,,65,0,64,390.8690872999723,,,,,,,,,,,,,,,,,,,,,,,,,,,,,,390.854369699955,390.8690872999723,391.35266350000165,,,,,,,,,,,,,,391.37372949998826,,,,,,,,,,,,,391.3711920999922,391.37372949998826,391.37372949998826,391.37372949998826,394.3693260999862,j,394.3693687999621,,,394.36938139999984,None,,,,,,1.3399380999617279,0.1524852000293322,,,,,,,,,,00061,001,2026-01-19_16h57.47.717,MST_task,2024.2.0,60.000383991411596,2026-01-19 16h57.54.747861 +0530,
,Scenes\100a.jpg,65,0,66,,,,,,,f,None,,,1.064883999992162,0.1199979999801144,,,,66,0,65,394.38563529995736,,,,,,,,,,,,,,,,,,,,,,,,,,,,,,394.36946099996567,394.38563529995736,394.86938270000974,,,,,,,,,,,,,,394.8893564000027,,,,,,,,,,,,,394.8868775999872,394.8893564000027,394.8893564000027,394.8893564000027,397.8859867999563,f,397.8860332999611,,,397.88605420000385,None,,,,,,1.064883999992162,0.1199979999801144,,,,,,,,,,00061,001,2026-01-19_16h57.47.717,MST_task,2024.2.0,60.000383991411596,2026-01-19 16h57.54.747861 +0530,
,Scenes\132a.jpg,66,0,67,,,,,,,j,None,,,2.4546149999951012,0.15200300002470613,,,,67,0,66,397.9024021999794,,,,,,,,,,,,,,,,,,,,,,,,,,,,,,397.8861663999851,397.9024021999794,398.38598149997415,,,,,,,,,,,,,,398.40298680000706,,,,,,,,,,,,,398.4001021999866,398.40298680000706,398.40298680000706,398.40298680000706,401.3862878999789,j,401.3863291000016,,,401.3863401999697,None,,,401.40242949995445,401.40242949995445,401.40242949995445,2.4546149999951012,0.15200300002470613,,,,,,,,,,00061,001,2026-01-19_16h57.47.717,MST_task,2024.2.0,60.000383991411596,2026-01-19 16h57.54.747861 +0530,
,Scenes\005a.jpg,67,0,68,,,,,,,f,None,,,1.880894800007809,0.15999959997134283,,,,68,0,67,401.40242949995445,,,,,,,,,,,,,,,,,,,,,,,,,,,,,,401.3864040999906,401.40242949995445,401.8860391000053,,,,,,,,,,,,,,401.90461909997975,,,,,,,,,,,,,401.9019576999708,401.90461909997975,401.90461909997975,401.90461909997975,404.902554899978,f,404.90263419999974,,,404.90264970000135,None,,,,,,1.880894800007809,0.15999959997134283,,,,,,,,,,00061,001,2026-01-19_16h57.47.717,MST_task,2024.2.0,60.000383991411596,2026-01-19 16h57.54.747861 +0530,
,Scenes\192a.jpg,68,0,69,,,,,,,j,None,,,1.142245199996978,0.15200729999924079,,,,69,0,68,404.91910130000906,,,,,,,,,,,,,,,,,,,,,,,,,,,,,,404.90272009995533,404.91910130000906,405.4026887000073,,,,,,,,,,,,,,405.419698099955,,,,,,,,,,,,,405.41723560000537,405.419698099955,405.419698099955,405.419698099955,408.4027410999988,j,408.40278319997014,,,408.4027955000056,None,,,,,,1.142245199996978,0.15200729999924079,,,,,,,,,,00061,001,2026-01-19_16h57.47.717,MST_task,2024.2.0,60.000383991411596,2026-01-19 16h57.54.747861 +0530,
,Scenes\164a.jpg,69,0,70,,,,,,,f,None,,,1.0730702999862842,0.18439529999159276,,,,70,0,69,408.41912019997835,,,,,,,,,,,,,,,,,,,,,,,,,,,,,,408.4028636000003,408.41912019997835,408.9025845999713,,,,,,,,,,,,,,408.92057449999265,,,,,,,,,,,,,408.91806539997924,408.92057449999265,408.92057449999265,408.92057449999265,411.9193640999729,f,411.9194049999933,,,411.9194190999842,None,,,,,,1.0730702999862842,0.18439529999159276,,,,,,,,,,00061,001,2026-01-19_16h57.47.717,MST_task,2024.2.0,60.000383991411596,2026-01-19 16h57.54.747861 +0530,
,Objects\093a.jpg,70,0,71,,,,,,,f,None,,,2.4862916000420228,0.20067589997779578,,,,71,0,70,411.93559119995916,,,,,,,,,,,,,,,,,,,,,,,,,,,,,,411.9194869999774,411.93559119995916,412.41931139997905,,,,,,,,,,,,,,412.435946099984,,,,,,,,,,,,,412.4326157000032,412.435946099984,412.435946099984,412.435946099984,415.41964019997977,f,415.4216630999581,,,415.4216801999719,None,,,415.43560179998167,415.43560179998167,415.43560179998167,2.4862916000420228,0.20067589997779578,,,,,,,,,,00061,001,2026-01-19_16h57.47.717,MST_task,2024.2.0,60.000383991411596,2026-01-19 16h57.54.747861 +0530,
,Objects\082a.jpg,71,0,72,,,,,,,j,None,,,1.2823912000167184,0.1674337000004016,,,,72,0,71,415.43560179998167,,,,,,,,,,,,,,,,,,,,,,,,,,,,,,415.42175019998103,415.43560179998167,415.9193924999563,,,,,,,,,,,,,,415.9358133999631,,,,,,,,,,,,,415.9289720999659,415.9358133999631,415.9358133999631,415.9358133999631,418.91967669996666,j,418.9197179999901,,,418.9197288999567,None,,,418.9356826999574,418.9356826999574,418.9356826999574,1.2823912000167184,0.1674337000004016,,,,,,,,,,00061,001,2026-01-19_16h57.47.717,MST_task,2024.2.0,60.000383991411596,2026-01-19 16h57.54.747861 +0530,
,Objects\147a.jpg,72,0,73,,,,,,,j,None,,,2.4469398999935947,0.16690119996201247,,,,73,0,72,418.9356826999574,,,,,,,,,,,,,,,,,,,,,,,,,,,,,,418.91982549999375,418.9356826999574,419.41945389995817,,,,,,,,,,,,,,419.4358539999812,,,,,,,,,,,,,419.42793339997297,419.4358539999812,419.4358539999812,419.4358539999812,422.41959469998255,j,422.41963739995845,,,422.41964829998324,None,,,422.43548749998445,422.43548749998445,422.43548749998445,2.4469398999935947,0.16690119996201247,,,,,,,,,,00061,001,2026-01-19_16h57.47.717,MST_task,2024.2.0,60.000383991411596,2026-01-19 16h57.54.747861 +0530,
,Objects\034a.jpg,73,0,74,,,,,,,f,None,,,2.3544674000004306,0.17543950001709163,,,,74,0,73,422.43548749998445,,,,,,,,,,,,,,,,,,,,,,,,,,,,,,422.4197143999627,422.43548749998445,422.91935929999454,,,,,,,,,,,,,,422.93597859999863,,,,,,,,,,,,,422.92892589996336,422.93597859999863,422.93597859999863,422.93597859999863,425.91957510000793,f,425.9196173999808,,,425.91962840000633,None,,,425.93579329998465,425.93579329998465,425.93579329998465,2.3544674000004306,0.17543950001709163,,,,,,,,,,00061,001,2026-01-19_16h57.47.717,MST_task,2024.2.0,60.000383991411596,2026-01-19 16h57.54.747861 +0530,
,Objects\182a.jpg,74,0,75,,,,,,,f,None,,,1.8385367000009865,0.16706910001812503,,,,75,0,74,425.93579329998465,,,,,,,,,,,,,,,,,,,,,,,,,,,,,,425.91974969999865,425.93579329998465,426.41937219997635,,,,,,,,,,,,,,426.43582489999244,,,,,,,,,,,,,426.4296595999622,426.43582489999244,426.43582489999244,426.43582489999244,429.41956179996487,f,429.4196028999868,,,429.419613200007,None,,,429.4356177999871,429.4356177999871,429.4356177999871,1.8385367000009865,0.16706910001812503,,,,,,,,,,00061,001,2026-01-19_16h57.47.717,MST_task,2024.2.0,60.000383991411596,2026-01-19 16h57.54.747861 +0530,
,Objects\166a.jpg,75,0,76,,,,,,,f,None,,,1.042171800043434,0.1839808999793604,,,,76,0,75,429.4356177999871,,,,,,,,,,,,,,,,,,,,,,,,,,,,,,429.41967929998646,429.4356177999871,429.91933359997347,,,,,,,,,,,,,,429.93607379996683,,,,,,,,,,,,,429.9293529999559,429.93607379996683,429.93607379996683,429.93607379996683,432.91964519995963,f,432.91968709998764,,,432.91969770001015,None,,,432.9358557999949,432.9358557999949,432.9358557999949,1.042171800043434,0.1839808999793604,,,,,,,,,,00061,001,2026-01-19_16h57.47.717,MST_task,2024.2.0,60.000383991411596,2026-01-19 16h57.54.747861 +0530,
,Objects\184a.jpg,76,0,77,,,,,,,j,None,,,1.8784417000133544,0.15195779997156933,,,,77,0,76,432.9358557999949,,,,,,,,,,,,,,,,,,,,,,,,,,,,,,432.9197948999936,432.9358557999949,433.41929589997744,,,,,,,,,,,,,,433.43589809996774,,,,,,,,,,,,,433.4297068999731,433.43589809996774,433.43589809996774,433.43589809996774,436.41962239996064,j,436.4196670000092,,,436.41967779997503,None,,,436.4358368999674,436.4358368999674,436.4358368999674,1.8784417000133544,0.15195779997156933,,,,,,,,,,00061,001,2026-01-19_16h57.47.717,MST_task,2024.2.0,60.000383991411596,2026-01-19 16h57.54.747861 +0530,
,Scenes\024a.jpg,77,0,78,,,,,,,j,None,,,2.2091939999954775,0.13677460001781583,,,,78,0,77,436.4358368999674,,,,,,,,,,,,,,,,,,,,,,,,,,,,,,436.41977380000753,436.4358368999674,436.91933079995215,,,,,,,,,,,,,,436.9363670999883,,,,,,,,,,,,,436.9339246999589,436.9363670999883,436.9363670999883,436.9363670999883,439.9196812000009,j,439.9213885999634,,,439.9214076999924,None,,,439.9355219999561,439.9355219999561,439.9355219999561,2.2091939999954775,0.13677460001781583,,,,,,,,,,00061,001,2026-01-19_16h57.47.717,MST_task,2024.2.0,60.000383991411596,2026-01-19 16h57.54.747861 +0530,
,Scenes\191a.jpg,78,0,79,,,,,,,j,None,,,1.5089273999910802,0.11999889998696744,,,,79,0,78,439.9355219999561,,,,,,,,,,,,,,,,,,,,,,,,,,,,,,439.9215234000003,439.9355219999561,440.4196392999729,,,,,,,,,,,,,,440.43720489996485,,,,,,,,,,,,,440.43489009997575,440.43720489996485,440.43720489996485,440.43720489996485,443.43582749995403,j,443.43589809996774,,,443.43591209995793,None,,,,,,1.5089273999910802,0.11999889998696744,,,,,,,,,,00061,001,2026-01-19_16h57.47.717,MST_task,2024.2.0,60.000383991411596,2026-01-19 16h57.54.747861 +0530,
,Scenes\143a.jpg,79,0,80,,,,,,,j,None,,,1.0831660999683663,0.15218480001203716,,,,80,0,79,443.4523157000076,,,,,,,,,,,,,,,,,,,,,,,,,,,,,,443.4359832999762,443.4523157000076,443.93594830000075,,,,,,,,,,,,,,443.9588722999906,,,,,,,,,,,,,443.95645800000057,443.9588722999906,443.9588722999906,443.9588722999906,446.9527608999633,j,446.9528074999689,,,446.95282010000665,None,,,,,,1.0831660999683663,0.15218480001203716,,,,,,,,,,00061,001,2026-01-19_16h57.47.717,MST_task,2024.2.0,60.000383991411596,2026-01-19 16h57.54.747861 +0530,
,Scenes\169a.jpg,80,0,81,,,,,,,j,None,,,1.1381598000298254,0.13652830000501126,,,,81,0,80,446.96902929997304,,,,,,,,,,,,,,,,,,,,,,,,,,,,,,446.9529306999757,446.96902929997304,447.4527986999601,,,,,,,,,,,,,,447.4716852999991,,,,,,,,,,,,,447.46924089995446,447.4716852999991,447.4716852999991,447.4716852999991,450.4691696999944,j,450.4692095000064,,,450.46922129997984,None,,,,,,1.1381598000298254,0.13652830000501126,,,,,,,,,,00061,001,2026-01-19_16h57.47.717,MST_task,2024.2.0,60.000383991411596,2026-01-19 16h57.54.747861 +0530,
,Scenes\052a.jpg,81,0,82,,,,,,,None,j,0.6395451999851502,None,,,,,,82,0,81,450.4855542999576,,,,,,,,,,,,,,,,,,,,,,,,,,,,,,450.46928829996614,450.4855542999576,450.9692981999833,,,,,,,,,,,,,,450.987676299992,,,,,,,,,,,,,450.985354000004,450.987676299992,450.987676299992,450.987676299992,453.98576549999416,None,453.98580249998486,454.0024291999871,454.0024291999871,454.6527398999897,j,0.6395451999851502,None,,,,,,,,,,,,,,,00061,001,2026-01-19_16h57.47.717,MST_task,2024.2.0,60.000383991411596,2026-01-19 16h57.54.747861 +0530,
,Scenes\091a.jpg,82,0,83,,,,,,,j,None,,,1.1283481999998912,0.11974440002813935,,,,83,0,82,454.6690206999774,,,,,,,,,,,,,,,,,,,,,,,,,,,,,,454.6528270999552,454.6690206999774,455.1525007999735,,,,,,,,,,,,,,455.16948320000665,,,,,,,,,,,,,455.1659126000013,455.16948320000665,455.16948320000665,455.16948320000665,458.15287709998665,j,458.1529190999572,,,458.15293069998734,None,,,458.1689802999608,458.1689802999608,458.1689802999608,1.1283481999998912,0.11974440002813935,,,,,,,,,,00061,001,2026-01-19_16h57.47.717,MST_task,2024.2.0,60.000383991411596,2026-01-19 16h57.54.747861 +0530,
,Scenes\008a.jpg,83,0,84,,,,,,,f,None,,,1.1165654000360519,0.22404760000063106,,,,84,0,83,458.1689802999608,,,,,,,,,,,,,,,,,,,,,,,,,,,,,,458.1530334999552,458.1689802999608,458.65250299999025,,,,,,,,,,,,,,458.669519499992,,,,,,,,,,,,,458.6663571000099,458.669519499992,458.669519499992,458.669519499992,461.65279789996566,f,461.65283829998225,,,461.6528539999854,None,,,461.6689941000077,461.6689941000077,461.6689941000077,1.1165654000360519,0.22404760000063106,,,,,,,,,,00061,001,2026-01-19_16h57.47.717,MST_task,2024.2.0,60.000383991411596,2026-01-19 16h57.54.747861 +0530,
,Objects\001a.jpg,84,0,85,,,,,,,f,None,,,1.2089944999897853,0.21657620003679767,,,,85,0,84,461.6689941000077,,,,,,,,,,,,,,,,,,,,,,,,,,,,,,461.65292139997473,461.6689941000077,462.1525132000097,,,,,,,,,,,,,,462.16939239995554,,,,,,,,,,,,,462.16571509995265,462.16939239995554,462.16939239995554,462.16939239995554,465.1529931999976,f,465.15506590000587,,,465.1550836999668,None,,,465.1689833999844,465.1689833999844,465.1689833999844,1.2089944999897853,0.21657620003679767,,,,,,,,,,00061,001,2026-01-19_16h57.47.717,MST_task,2024.2.0,60.000383991411596,2026-01-19 16h57.54.747861 +0530,
,Objects\165a.jpg,85,0,86,,,,,,,f,None,,,0.9009178000269458,0.2001534000155516,,,,86,0,85,465.1689833999844,,,,,,,,,,,,,,,,,,,,,,,,,,,,,,465.1551539999782,465.1689833999844,465.6525971000083,,,,,,,,,,,,,,465.6692486999673,,,,,,,,,,,,,465.662894100009,465.6692486999673,465.6692486999673,465.6692486999673,468.6528966999613,f,468.65293789998395,,,468.65294850000646,None,,,468.6689298999845,468.6689298999845,468.6689298999845,0.9009178000269458,0.2001534000155516,,,,,,,,,,00061,001,2026-01-19_16h57.47.717,MST_task,2024.2.0,60.000383991411596,2026-01-19 16h57.54.747861 +0530,
,Objects\175a.jpg,86,0,87,,,,,,,f,None,,,1.465211799950339,0.2085293999989517,,,,87,0,86,468.6689298999845,,,,,,,,,,,,,,,,,,,,,,,,,,,,,,468.65305169997737,468.6689298999845,469.1529064999777,,,,,,,,,,,,,,469.1692838000017,,,,,,,,,,,,,469.16214549995493,469.1692838000017,469.1692838000017,469.1692838000017,472.15296709997347,f,472.1530140999821,,,472.1530262999586,None,,,472.16904979996616,472.16904979996616,472.16904979996616,1.465211799950339,0.2085293999989517,,,,,,,,,,00061,001,2026-01-19_16h57.47.717,MST_task,2024.2.0,60.000383991411596,2026-01-19 16h57.54.747861 +0530,
,Objects\112a.jpg,87,0,88,,,,,,,f,None,,,0.8606459999573417,0.16052770003443584,,,,88,0,87,472.16904979996616,,,,,,,,,,,,,,,,,,,,,,,,,,,,,,472.15309519995935,472.16904979996616,472.6526362999575,,,,,,,,,,,,,,472.6692335999687,,,,,,,,,,,,,472.66245129995514,472.6692335999687,472.6692335999687,472.6692335999687,475.6532054999843,f,475.6532512999838,,,475.6532622000086,None,,,475.66909300000407,475.66909300000407,475.66909300000407,0.8606459999573417,0.16052770003443584,,,,,,,,,,00061,001,2026-01-19_16h57.47.717,MST_task,2024.2.0,60.000383991411596,2026-01-19 16h57.54.747861 +0530,
,Objects\081a.jpg,88,0,89,,,,,,,f,None,,,2.1931576000060886,0.17553669994231313,,,,89,0,88,475.66909300000407,,,,,,,,,,,,,,,,,,,,,,,,,,,,,,475.6533296999987,475.66909300000407,476.1525786999846,,,,,,,,,,,,,,476.1692341999733,,,,,,,,,,,,,476.1624485999928,476.1692341999733,476.1692341999733,476.1692341999733,479.1527912999736,f,479.15283340000315,,,479.15284349996364,None,,,479.16899649996776,479.16899649996776,479.16899649996776,2.1931576000060886,0.17553669994231313,,,,,,,,,,00061,001,2026-01-19_16h57.47.717,MST_task,2024.2.0,60.000383991411596,2026-01-19 16h57.54.747861 +0530,
,Objects\070a.jpg,89,0,90,,,,,,,f,None,,,1.756411799986381,0.18399559997487813,,,,90,0,89,479.16899649996776,,,,,,,,,,,,,,,,,,,,,,,,,,,,,,479.15290889999596,479.16899649996776,479.6527455999749,,,,,,,,,,,,,,479.6692035999731,,,,,,,,,,,,,479.66286029998446,479.6692035999731,479.6692035999731,479.6692035999731,482.6527863999945,f,482.652827599959,,,482.65283879998606,None,,,482.6689978999784,482.6689978999784,482.6689978999784,1.756411799986381,0.18399559997487813,,,,,,,,,,00061,001,2026-01-19_16h57.47.717,MST_task,2024.2.0,60.000383991411596,2026-01-19 16h57.54.747861 +0530,
,Objects\134a.jpg,90,0,91,,,,,,,j,None,,,0.8009308999753557,0.14407659997232258,,,,91,0,90,482.6689978999784,,,,,,,,,,,,,,,,,,,,,,,,,,,,,,482.6529054999701,482.6689978999784,483.1525772999739,,,,,,,,,,,,,,483.1692389000091,,,,,,,,,,,,,483.1627261999529,483.1692389000091,483.1692389000091,483.1692389000091,486.15294329996686,j,486.1529848999926,,,486.15299559995765,None,,,486.1690152999945,486.1690152999945,486.1690152999945,0.8009308999753557,0.14407659997232258,,,,,,,,,,00061,001,2026-01-19_16h57.47.717,MST_task,2024.2.0,60.000383991411596,2026-01-19 16h57.54.747861 +0530,
,Scenes\104a.jpg,91,0,92,,,,,,,None,j,0.012796800001524389,None,,,,,,92,0,91,486.1690152999945,,,,,,,,,,,,,,,,,,,,,,,,,,,,,,486.1530994999921,486.1690152999945,486.6528758999775,,,,,,,,,,,,,,486.6751452999888,,,,,,,,,,,,,486.6724521999713,486.6751452999888,486.6751452999888,486.6751452999888,489.6692747999914,None,489.67098719999194,489.68550089997007,489.68550089997007,489.70291890000226,j,0.012796800001524389,None,,,,,,,,,,,,,,,00061,001,2026-01-19_16h57.47.717,MST_task,2024.2.0,60.000383991411596,2026-01-19 16h57.54.747861 +0530,
,Scenes\033a.jpg,92,0,93,,,,,,,j,None,,,1.0540168000152335,0.1692120999796316,,,,93,0,92,489.71898369997507,,,,,,,,,,,,,,,,,,,,,,,,,,,,,,489.7030085999868,489.71898369997507,490.20255409996025,,,,,,,,,,,,,,490.2195827999967,,,,,,,,,,,,,490.21555359999184,490.2195827999967,490.2195827999967,490.2195827999967,493.20300739997765,j,493.2030483999988,,,493.2030595999677,None,,,493.21894569997676,493.21894569997676,493.21894569997676,1.0540168000152335,0.1692120999796316,,,,,,,,,,00061,001,2026-01-19_16h57.47.717,MST_task,2024.2.0,60.000383991411596,2026-01-19 16h57.54.747861 +0530,
,Scenes\112a.jpg,93,0,94,,,,,,,j,None,,,0.8977587000117637,0.1350275999866426,,,,94,0,93,493.21894569997676,,,,,,,,,,,,,,,,,,,,,,,,,,,,,,493.2031258000061,493.21894569997676,493.70280789997196,,,,,,,,,,,,,,493.7214851999888,,,,,,,,,,,,,493.7191372999805,493.7214851999888,493.7214851999888,493.7214851999888,496.7192630000063,j,496.71930609998526,,,496.71931909996783,None,,,,,,0.8977587000117637,0.1350275999866426,,,,,,,,,,00061,001,2026-01-19_16h57.47.717,MST_task,2024.2.0,60.000383991411596,2026-01-19 16h57.54.747861 +0530,
,Scenes\167a.jpg,94,0,95,,,,,,,f,None,,,1.785417500010226,0.18395689997123554,,,,95,0,94,496.735503599979,,,,,,,,,,,,,,,,,,,,,,,,,,,,,,496.7193879999686,496.735503599979,497.2193726999685,,,,,,,,,,,,,,497.2402531999978,,,,,,,,,,,,,497.23783120000735,497.2402531999978,497.2402531999978,497.2402531999978,500.2357981999521,f,500.23583869996946,,,500.2358511000057,None,,,,,,1.785417500010226,0.18395689997123554,,,,,,,,,,00061,001,2026-01-19_16h57.47.717,MST_task,2024.2.0,60.000383991411596,2026-01-19 16h57.54.747861 +0530,
,Scenes\015a.jpg,95,0,96,,,,,,,j,None,,,1.468060899991542,0.1436338999774307,,,,96,0,95,500.252340899955,,,,,,,,,,,,,,,,,,,,,,,,,,,,,,500.23594949999824,500.252340899955,500.73577559995465,,,,,,,,,,,,,,500.7579974999535,,,,,,,,,,,,,500.755452399957,500.7579974999535,500.7579974999535,500.7579974999535,503.73611399997026,j,503.7361862999969,,,503.73619939998025,None,,,,,,1.468060899991542,0.1436338999774307,,,,,,,,,,00061,001,2026-01-19_16h57.47.717,MST_task,2024.2.0,60.000383991411596,2026-01-19 16h57.54.747861 +0530,
,Scenes\082a.jpg,96,0,97,,,,,,,f,None,,,1.221031699969899,0.18405119999079034,,,,97,0,96,503.75243419996696,,,,,,,,,,,,,,,,,,,,,,,,,,,,,,503.73630519997096,503.75243419996696,504.2363323000027,,,,,,,,,,,,,,504.2611151000019,,,,,,,,,,,,,504.2587385000079,504.2611151000019,504.2611151000019,504.2611151000019,507.2365744999843,f,507.2366212999914,,,507.23663379997015,None,,,,,,1.221031699969899,0.18405119999079034,,,,,,,,,,00061,001,2026-01-19_16h57.47.717,MST_task,2024.2.0,60.000383991411596,2026-01-19 16h57.54.747861 +0530,
,Scenes\126a.jpg,97,0,98,,,,,,,j,None,,,1.334006999968551,0.10425309999845922,,,,98,0,97,507.25239439995494,,,,,,,,,,,,,,,,,,,,,,,,,,,,,,507.23674139997456,507.25239439995494,507.73605010000756,,,,,,,,,,,,,,507.755623199977,,,,,,,,,,,,,507.7532084999839,507.755623199977,507.755623199977,507.755623199977,510.7526498999796,j,510.75268979999237,,,510.7527021999704,None,,,,,,1.334006999968551,0.10425309999845922,,,,,,,,,,00061,001,2026-01-19_16h57.47.717,MST_task,2024.2.0,60.000383991411596,2026-01-19 16h57.54.747861 +0530,
,Objects\033a.jpg,98,0,99,,,,,,,f,None,,,1.0764245000318624,0.19197270000586286,,,,99,0,98,510.76911399996607,,,,,,,,,,,,,,,,,,,,,,,,,,,,,,510.75280009995913,510.76911399996607,511.25268029997824,,,,,,,,,,,,,,511.26967439998407,,,,,,,,,,,,,511.2648898999905,511.26967439998407,511.26967439998407,511.26967439998407,514.2531536999741,f,514.2553024999797,,,514.2553196999943,None,,,514.2690838999697,514.2690838999697,514.2690838999697,1.0764245000318624,0.19197270000586286,,,,,,,,,,00061,001,2026-01-19_16h57.47.717,MST_task,2024.2.0,60.000383991411596,2026-01-19 16h57.54.747861 +0530,
,Objects\020a.jpg,99,0,100,,,,,,,f,None,,,1.353466300002765,0.1746475999825634,,,,100,0,99,514.2690838999697,,,,,,,,,,,,,,,,,,,,,,,,,,,,,,514.2553913999582,514.2690838999697,514.752740899974,,,,,,,,,,,,,,514.7694477000041,,,,,,,,,,,,,514.7623229000019,514.7694477000041,514.7694477000041,514.7694477000041,517.7529962999979,f,517.7530386999715,,,517.7530495999963,None,,,517.76914639998,517.76914639998,517.76914639998,1.353466300002765,0.1746475999825634,,,,,,,,,,00061,001,2026-01-19_16h57.47.717,MST_task,2024.2.0,60.000383991411596,2026-01-19 16h57.54.747861 +0530,
,Objects\178a.jpg,100,0,101,,,,,,,f,None,,,1.2201384999789298,0.17797249997965991,,,,101,0,100,517.76914639998,,,,,,,,,,,,,,,,,,,,,,,,,,,,,,517.7531516999588,517.76914639998,518.2526963999844,,,,,,,,,,,,,,518.269377699995,,,,,,,,,,,,,518.2629799999995,518.269377699995,518.269377699995,518.269377699995,521.2528904000064,f,521.2529346999945,,,521.2529453999596,None,,,521.2691307999776,521.2691307999776,521.2691307999776,1.2201384999789298,0.17797249997965991,,,,,,,,,,00061,001,2026-01-19_16h57.47.717,MST_task,2024.2.0,60.000383991411596,2026-01-19 16h57.54.747861 +0530,
,Objects\091a.jpg,101,0,102,,,,,,,None,j,0.47358779999194667,None,,,,,,102,0,101,521.2691307999776,,,,,,,,,,,,,,,,,,,,,,,,,,,,,,521.2530105999904,521.2691307999776,521.7528272999916,,,,,,,,,,,,,,521.7693245999981,,,,,,,,,,,,,521.7623959999764,521.7693245999981,521.7693245999981,521.7693245999981,524.7529349999968,None,524.7529730999959,524.7691188000026,524.7691188000026,525.2529190999921,j,0.47358779999194667,None,524.7691188000026,524.7691188000026,524.7691188000026,,,,,,,,,,,,00061,001,2026-01-19_16h57.47.717,MST_task,2024.2.0,60.000383991411596,2026-01-19 16h57.54.747861 +0530,
,Objects\018a.jpg,102,0,103,,,,,,,j,None,,,1.128185699984897,0.15209190000314265,,,,103,0,102,525.2691895999596,,,,,,,,,,,,,,,,,,,,,,,,,,,,,,525.2530382999685,525.2691895999596,525.7528095999733,,,,,,,,,,,,,,525.7693946000072,,,,,,,,,,,,,525.7626180999796,525.7693946000072,525.7693946000072,525.7693946000072,528.752897600003,j,528.7529445999535,,,528.7529562999844,None,,,528.7693937000004,528.7693937000004,528.7693937000004,1.128185699984897,0.15209190000314265,,,,,,,,,,00061,001,2026-01-19_16h57.47.717,MST_task,2024.2.0,60.000383991411596,2026-01-19 16h57.54.747861 +0530,
,Objects\106a.jpg,103,0,104,,,,,,,f,None,,,2.3088791000191122,0.17526500002713874,,,,104,0,103,528.7693937000004,,,,,,,,,,,,,,,,,,,,,,,,,,,,,,528.7530228999676,528.7693937000004,529.252823799965,,,,,,,,,,,,,,529.269358999969,,,,,,,,,,,,,529.2627116999938,529.269358999969,529.269358999969,529.269358999969,532.2529171999777,f,532.2529609999619,,,532.252971799986,None,,,532.2691381999757,532.2691381999757,532.2691381999757,2.3088791000191122,0.17526500002713874,,,,,,,,,,00061,001,2026-01-19_16h57.47.717,MST_task,2024.2.0,60.000383991411596,2026-01-19 16h57.54.747861 +0530,
,Objects\098a.jpg,104,0,105,,,,,,,f,None,,,1.2568582000094466,0.15993219998199493,,,,105,0,104,532.2691381999757,,,,,,,,,,,,,,,,,,,,,,,,,,,,,,532.253069999977,532.2691381999757,532.7526376000023,,,,,,,,,,,,,,532.7695162000018,,,,,,,,,,,,,532.7623850000091,532.7695162000018,532.7695162000018,532.7695162000018,535.7529658999993,f,535.7530079999706,,,535.7530184999923,None,,,535.7690756999655,535.7690756999655,535.7690756999655,1.2568582000094466,0.15993219998199493,,,,,,,,,,00061,001,2026-01-19_16h57.47.717,MST_task,2024.2.0,60.000383991411596,2026-01-19 16h57.54.747861 +0530,
,Scenes\069a.jpg,105,0,106,,,,,,,j,None,,,1.3067467999644578,0.14545960002578795,,,,106,0,105,535.7690756999655,,,,,,,,,,,,,,,,,,,,,,,,,,,,,,535.7531136999605,535.7690756999655,536.2527513999958,,,,,,,,,,,,,,536.2707434999757,,,,,,,,,,,,,536.2684739999822,536.2707434999757,536.2707434999757,536.2707434999757,539.2692057999666,j,539.2709531,,,539.270973799983,None,,,,,,1.3067467999644578,0.14545960002578795,,,,,,,,,,00061,001,2026-01-19_16h57.47.717,MST_task,2024.2.0,60.000383991411596,2026-01-19 16h57.54.747861 +0530,
,Scenes\182a.jpg,106,0,107,,,,,,,f,None,,,1.5428606999921612,0.19206289999419823,,,,107,0,106,539.2856337999692,,,,,,,,,,,,,,,,,,,,,,,,,,,,,,539.271087799978,539.2856337999692,539.769275699975,,,,,,,,,,,,,,539.7866184999584,,,,,,,,,,,,,539.7842192999669,539.7866184999584,539.7866184999584,539.7866184999584,542.7696308000013,f,542.7696722999681,,,542.7696878999704,None,,,542.7856988999993,542.7856988999993,542.7856988999993,1.5428606999921612,0.19206289999419823,,,,,,,,,,00061,001,2026-01-19_16h57.47.717,MST_task,2024.2.0,60.000383991411596,2026-01-19 16h57.54.747861 +0530,
,Scenes\168a.jpg,107,0,108,,,,,,,j,None,,,1.1011127000092529,0.14281729998765513,,,,108,0,107,542.7856988999993,,,,,,,,,,,,,,,,,,,,,,,,,,,,,,542.7697535000043,542.7856988999993,543.2693288999726,,,,,,,,,,,,,,543.286304499954,,,,,,,,,,,,,543.2830857000081,543.286304499954,543.286304499954,543.286304499954,546.2697012999561,j,546.2697465000092,,,546.2697579999804,None,,,546.285663299961,546.285663299961,546.285663299961,1.1011127000092529,0.14281729998765513,,,,,,,,,,00061,001,2026-01-19_16h57.47.717,MST_task,2024.2.0,60.000383991411596,2026-01-19 16h57.54.747861 +0530,
,Scenes\010a.jpg,108,0,109,,,,,,,j,None,,,1.1294917999766767,0.12007850001100451,,,,109,0,108,546.285663299961,,,,,,,,,,,,,,,,,,,,,,,,,,,,,,546.269825699972,546.285663299961,546.7695930000045,,,,,,,,,,,,,,546.7926226999843,,,,,,,,,,,,,546.7901257000049,546.7926226999843,546.7926226999843,546.7926226999843,549.7858192999847,j,549.7858617999591,,,549.785902499978,None,,,,,,1.1294917999766767,0.12007850001100451,,,,,,,,,,00061,001,2026-01-19_16h57.47.717,MST_task,2024.2.0,60.000383991411596,2026-01-19 16h57.54.747861 +0530,
,Scenes\102a.jpg,109,0,110,,,,,,,f,None,,,1.3825680000009015,0.17699259996879846,,,,110,0,109,549.8025506999693,,,,,,,,,,,,,,,,,,,,,,,,,,,,,,549.7860160999699,549.8025506999693,550.2860579999979,,,,,,,,,,,,,,550.3071165999863,,,,,,,,,,,,,550.3050999999978,550.3071165999863,550.3071165999863,550.3071165999863,553.2860018999781,f,553.2860448999563,,,553.2860575999948,None,,,,,,1.3825680000009015,0.17699259996879846,,,,,,,,,,00061,001,2026-01-19_16h57.47.717,MST_task,2024.2.0,60.000383991411596,2026-01-19 16h57.54.747861 +0530,
,Scenes\078a.jpg,110,0,111,,,,,,,j,None,,,2.3169658000115305,0.14302320004208013,,,,111,0,110,553.3024631000008,,,,,,,,,,,,,,,,,,,,,,,,,,,,,,553.2861621999764,553.3024631000008,553.7860009999713,,,,,,,,,,,,,,553.8055705999723,,,,,,,,,,,,,553.8029438999947,553.8055705999723,553.8055705999723,553.8055705999723,556.802571200009,j,556.8026314000017,,,556.8026437999797,None,,,,,,2.3169658000115305,0.14302320004208013,,,,,,,,,,00061,001,2026-01-19_16h57.47.717,MST_task,2024.2.0,60.000383991411596,2026-01-19 16h57.54.747861 +0530,
,Scenes\171a.jpg,111,0,112,,,,,,,f,None,,,0.8298166000167839,0.18308849999448285,,,,112,0,111,556.8189990000101,,,,,,,,,,,,,,,,,,,,,,,,,,,,,,556.8027529999963,556.8189990000101,557.3029035999789,,,,,,,,,,,,,,557.3247934999526,,,,,,,,,,,,,557.3222640999593,557.3247934999526,557.3247934999526,557.3247934999526,560.3194137999672,f,560.3194588999613,,,560.3194713999983,None,,,,,,0.8298166000167839,0.18308849999448285,,,,,,,,,,00061,001,2026-01-19_16h57.47.717,MST_task,2024.2.0,60.000383991411596,2026-01-19 16h57.54.747861 +0530,
,Objects\004a.jpg,112,0,113,,,,,,,j,None,,,2.349860600021202,0.13536329998169094,,,,113,0,112,560.3357772000018,,,,,,,,,,,,,,,,,,,,,,,,,,,,,,560.3195753999753,560.3357772000018,560.8193160999799,,,,,,,,,,,,,,560.8364173999871,,,,,,,,,,,,,560.8320929000038,560.8364173999871,560.8364173999871,560.8364173999871,563.8198808999732,j,563.8220679999795,,,563.8220898999716,None,,,563.8356295999838,563.8356295999838,563.8356295999838,2.349860600021202,0.13536329998169094,,,,,,,,,,00061,001,2026-01-19_16h57.47.717,MST_task,2024.2.0,60.000383991411596,2026-01-19 16h57.54.747861 +0530,
,Objects\002a.jpg,113,0,114,,,,,,,f,None,,,0.8658047000062652,0.18474709999281913,,,,114,0,113,563.8356295999838,,,,,,,,,,,,,,,,,,,,,,,,,,,,,,563.8221640999545,563.8356295999838,564.3195023000007,,,,,,,,,,,,,,564.3359347999794,,,,,,,,,,,,,564.3314178999863,564.3359347999794,564.3359347999794,564.3359347999794,567.3196135999751,f,567.3196555000031,,,567.3196659999667,None,,,567.3356090000016,567.3356090000016,567.3356090000016,0.8658047000062652,0.18474709999281913,,,,,,,,,,00061,001,2026-01-19_16h57.47.717,MST_task,2024.2.0,60.000383991411596,2026-01-19 16h57.54.747861 +0530,
,Objects\180a.jpg,114,0,115,,,,,,,None,f,1.1026879000128247,None,,,,,,115,0,114,567.3356090000016,,,,,,,,,,,,,,,,,,,,,,,,,,,,,,567.3197643999592,567.3356090000016,567.8192443999578,,,,,,,,,,,,,,567.8359474999597,,,,,,,,,,,,,567.8309186999686,567.8359474999597,567.8359474999597,567.8359474999597,570.8194972999627,None,570.8195334000047,570.8356329000089,570.8356329000089,571.9528649999993,f,1.1026879000128247,None,570.8356329000089,570.8356329000089,570.8356329000089,,,,,,,,,,,,00061,001,2026-01-19_16h57.47.717,MST_task,2024.2.0,60.000383991411596,2026-01-19 16h57.54.747861 +0530,
,Objects\118a.jpg,115,0,116,,,,,,,f,None,,,1.3005180999753065,0.16828670003451407,,,,116,0,115,571.969001599995,,,,,,,,,,,,,,,,,,,,,,,,,,,,,,571.9529518999625,571.969001599995,572.4527345999959,,,,,,,,,,,,,,572.4693065999891,,,,,,,,,,,,,572.4630853999988,572.4693065999891,572.4693065999891,572.4693065999891,575.4529994999757,f,575.4530468999874,,,575.4530587999616,None,,,575.4690297999769,575.4690297999769,575.4690297999769,1.3005180999753065,0.16828670003451407,,,,,,,,,,00061,001,2026-01-19_16h57.47.717,MST_task,2024.2.0,60.000383991411596,2026-01-19 16h57.54.747861 +0530,
,Objects\157a.jpg,116,0,117,,,,,,,f,None,,,1.3284721999661997,0.12908430001698434,,,,117,0,116,575.4690297999769,,,,,,,,,,,,,,,,,,,,,,,,,,,,,,575.4531223999802,575.4690297999769,575.9526367000071,,,,,,,,,,,,,,575.9692735999706,,,,,,,,,,,,,575.9627021999913,575.9692735999706,575.9692735999706,575.9692735999706,578.9531123999623,f,578.953158499964,,,578.9531700999942,None,,,578.9690150999813,578.9690150999813,578.9690150999813,1.3284721999661997,0.12908430001698434,,,,,,,,,,00061,001,2026-01-19_16h57.47.717,MST_task,2024.2.0,60.000383991411596,2026-01-19 16h57.54.747861 +0530,
,Objects\183a.jpg,117,0,118,,,,,,,j,None,,,1.324474100023508,0.16000909998547286,,,,118,0,117,578.9690150999813,,,,,,,,,,,,,,,,,,,,,,,,,,,,,,578.9532796999556,578.9690150999813,579.4526656999951,,,,,,,,,,,,,,579.4692801999627,,,,,,,,,,,,,579.4621249999618,579.4692801999627,579.4692801999627,579.4692801999627,582.45286640001,j,582.4529112000018,,,582.4529220999684,None,,,582.4690319999936,582.4690319999936,582.4690319999936,1.324474100023508,0.16000909998547286,,,,,,,,,,00061,001,2026-01-19_16h57.47.717,MST_task,2024.2.0,60.000383991411596,2026-01-19 16h57.54.747861 +0530,
,Objects\087a.jpg,118,0,119,,,,,,,None,j,0.8177308000158519,None,,,,,,119,0,118,582.4690319999936,,,,,,,,,,,,,,,,,,,,,,,,,,,,,,582.4530200999579,582.4690319999936,582.9525630999706,,,,,,,,,,,,,,582.9692589999759,,,,,,,,,,,,,582.9622565999744,582.9692589999759,582.9692589999759,582.9692589999759,585.9531603999785,None,585.9532045999658,585.9691065999796,585.9691065999796,586.8029204999912,j,0.8177308000158519,None,585.9691065999796,585.9691065999796,585.9691065999796,,,,,,,,,,,,00061,001,2026-01-19_16h57.47.717,MST_task,2024.2.0,60.000383991411596,2026-01-19 16h57.54.747861 +0530,
,Scenes\089a.jpg,119,0,120,,,,,,,j,None,,,1.6015789999510162,0.15314190002391115,,,,120,0,119,586.8190391999669,,,,,,,,,,,,,,,,,,,,,,,,,,,,,,586.8030491999816,586.8190391999669,587.3025284999749,,,,,,,,,,,,,,587.3280049999594,,,,,,,,,,,,,587.3255302999751,587.3280049999594,587.3280049999594,587.3280049999594,590.3192496999982,j,590.3208478000015,,,590.320866199967,None,,,,,,1.6015789999510162,0.15314190002391115,,,,,,,,,,00061,001,2026-01-19_16h57.47.717,MST_task,2024.2.0,60.000383991411596,2026-01-19 16h57.54.747861 +0530,
,Scenes\071a.jpg,120,0,121,,,,,,,j,None,,,1.5567480999743566,0.14301110000815243,,,,121,0,120,590.3356306999922,,,,,,,,,,,,,,,,,,,,,,,,,,,,,,590.3209508999716,590.3356306999922,590.8197609999916,,,,,,,,,,,,,,590.8381551000057,,,,,,,,,,,,,590.8356306999922,590.8381551000057,590.8381551000057,590.8381551000057,593.8358093999559,j,593.8358553999569,,,593.8358678999939,None,,,,,,1.5567480999743566,0.14301110000815243,,,,,,,,,,00061,001,2026-01-19_16h57.47.717,MST_task,2024.2.0,60.000383991411596,2026-01-19 16h57.54.747861 +0530,
,Scenes\117a.jpg,121,0,122,,,,,,,j,None,,,0.8967229999834672,0.1360409000189975,,,,122,0,121,593.8523509000079,,,,,,,,,,,,,,,,,,,,,,,,,,,,,,593.835939499957,593.8523509000079,594.3358707999578,,,,,,,,,,,,,,594.3529586999794,,,,,,,,,,,,,594.3491670999792,594.3529586999794,594.3529586999794,594.3529586999794,597.3361606999533,j,597.3362030999851,,,597.3362140999525,None,,,597.3523810000042,597.3523810000042,597.3523810000042,0.8967229999834672,0.1360409000189975,,,,,,,,,,00061,001,2026-01-19_16h57.47.717,MST_task,2024.2.0,60.000383991411596,2026-01-19 16h57.54.747861 +0530,
,Scenes\085a.jpg,122,0,123,,,,,,,j,None,,,0.6898920999956317,0.13599709997652099,,,,123,0,122,597.3523810000042,,,,,,,,,,,,,,,,,,,,,,,,,,,,,,597.3363119999995,597.3523810000042,597.8358442999888,,,,,,,,,,,,,,597.8562821999658,,,,,,,,,,,,,597.8539102000068,597.8562821999658,597.8562821999658,597.8562821999658,600.8525800000061,j,600.8526307999855,,,600.852642999962,None,,,,,,0.6898920999956317,0.13599709997652099,,,,,,,,,,00061,001,2026-01-19_16h57.47.717,MST_task,2024.2.0,60.000383991411596,2026-01-19 16h57.54.747861 +0530,
,Scenes\025a.jpg,123,0,124,,,,,,,j,None,,,0.922543200023938,0.11199399997713044,,,,124,0,123,600.870053199993,,,,,,,,,,,,,,,,,,,,,,,,,,,,,,600.8527423999622,600.870053199993,601.3529722999665,,,,,,,,,,,,,,601.3759189999546,,,,,,,,,,,,,601.3733916999772,601.3759189999546,601.3759189999546,601.3759189999546,604.3692679000087,j,604.3693080999656,,,604.3693207000033,None,,,,,,0.922543200023938,0.11199399997713044,,,,,,,,,,00061,001,2026-01-19_16h57.47.717,MST_task,2024.2.0,60.000383991411596,2026-01-19 16h57.54.747861 +0530,
,Scenes\160a.jpg,124,0,125,,,,,,,j,None,,,0.9237900000298396,0.11307929997565225,,,,125,0,124,604.3855559999938,,,,,,,,,,,,,,,,,,,,,,,,,,,,,,604.369389200001,604.3855559999938,604.8692545999656,,,,,,,,,,,,,,604.8868204999599,,,,,,,,,,,,,604.8843934999895,604.8868204999599,604.8868204999599,604.8868204999599,607.8857715000049,j,607.8858121999656,,,607.8858242999995,None,,,,,,0.9237900000298396,0.11307929997565225,,,,,,,,,,00061,001,2026-01-19_16h57.47.717,MST_task,2024.2.0,60.000383991411596,2026-01-19 16h57.54.747861 +0530,
,Scenes\002a.jpg,125,0,126,,,,,,,j,None,,,0.8422718000365421,0.14401489996816963,,,,126,0,125,607.9023601000081,,,,,,,,,,,,,,,,,,,,,,,,,,,,,,607.8859242000035,607.9023601000081,608.3858851999976,,,,,,,,,,,,,,608.4078911999823,,,,,,,,,,,,,608.4052900999668,608.4078911999823,608.4078911999823,608.4078911999823,611.3860006000032,j,611.3860499999719,,,611.3860626000096,None,,,,,,0.8422718000365421,0.14401489996816963,,,,,,,,,,00061,001,2026-01-19_16h57.47.717,MST_task,2024.2.0,60.000383991411596,2026-01-19 16h57.54.747861 +0530,
,Objects\137a.jpg,126,0,127,,,,,,,f,None,,,2.147449999989476,0.1915383999585174,,,,127,0,126,611.4023717999808,,,,,,,,,,,,,,,,,,,,,,,,,,,,,,611.3861811999814,611.4023717999808,611.8858041999629,,,,,,,,,,,,,,611.9031253999565,,,,,,,,,,,,,611.8980136999744,611.9031253999565,611.9031253999565,611.9031253999565,614.8863243999658,f,614.8883898999775,,,614.8884116999689,None,,,614.9024717999855,614.9024717999855,614.9024717999855,2.147449999989476,0.1915383999585174,,,,,,,,,,00061,001,2026-01-19_16h57.47.717,MST_task,2024.2.0,60.000383991411596,2026-01-19 16h57.54.747861 +0530,
,Objects\065a.jpg,127,0,128,,,,,,,j,None,,,1.0552307000034489,0.13621710002189502,,,,128,0,127,614.9024717999855,,,,,,,,,,,,,,,,,,,,,,,,,,,,,,614.8884955999674,614.9024717999855,615.3858036999591,,,,,,,,,,,,,,615.4026657000068,,,,,,,,,,,,,615.3950406999793,615.4026657000068,615.4026657000068,615.4026657000068,618.3861954999738,j,618.3862381000072,,,618.3862487999722,None,,,618.4023771999637,618.4023771999637,618.4023771999637,1.0552307000034489,0.13621710002189502,,,,,,,,,,00061,001,2026-01-19_16h57.47.717,MST_task,2024.2.0,60.000383991411596,2026-01-19 16h57.54.747861 +0530,
,Objects\021a.jpg,128,0,129,,,,,,,j,None,,,1.6912821999867447,0.16008060000604019,,,,129,0,128,618.4023771999637,,,,,,,,,,,,,,,,,,,,,,,,,,,,,,618.3863479999709,618.4023771999637,618.8858984999824,,,,,,,,,,,,,,618.9025890000048,,,,,,,,,,,,,618.8957639999571,618.9025890000048,618.9025890000048,618.9025890000048,621.8861233000061,j,621.8861652999767,,,621.8861762000015,None,,,621.9023978000041,621.9023978000041,621.9023978000041,1.6912821999867447,0.16008060000604019,,,,,,,,,,00061,001,2026-01-19_16h57.47.717,MST_task,2024.2.0,60.000383991411596,2026-01-19 16h57.54.747861 +0530,
,Objects\088a.jpg,129,0,130,,,,,,,j,None,,,1.1108088999753818,0.12022040004376322,,,,130,0,129,621.9023978000041,,,,,,,,,,,,,,,,,,,,,,,,,,,,,,621.8862450000015,621.9023978000041,622.3860041999724,,,,,,,,,,,,,,622.4027354999562,,,,,,,,,,,,,622.3959162000101,622.4027354999562,622.4027354999562,622.4027354999562,625.3863921999582,j,625.3864347999915,,,625.3864474999718,None,,,,,,1.1108088999753818,0.12022040004376322,,,,,,,,,,00061,001,2026-01-19_16h57.47.717,MST_task,2024.2.0,60.000383991411596,2026-01-19 16h57.54.747861 +0530,
,Objects\003a.jpg,130,0,131,,,,,,,j,None,,,1.2512234000023454,0.1285863000084646,,,,131,0,130,625.4024886999978,,,,,,,,,,,,,,,,,,,,,,,,,,,,,,625.3865499999956,625.4024886999978,625.8860060999868,,,,,,,,,,,,,,625.9026860999875,,,,,,,,,,,,,625.897796300007,625.9026860999875,625.9026860999875,625.9026860999875,628.8862662999891,j,628.8863111999817,,,628.886321900005,None,,,628.902379999985,628.902379999985,628.902379999985,1.2512234000023454,0.1285863000084646,,,,,,,,,,00061,001,2026-01-19_16h57.47.717,MST_task,2024.2.0,60.000383991411596,2026-01-19 16h57.54.747861 +0530,
,Objects\154a.jpg,131,0,132,,,,,,,j,None,,,0.8717290999484248,0.15146439999807626,,,,132,0,131,628.902379999985,,,,,,,,,,,,,,,,,,,,,,,,,,,,,,628.886390300002,628.902379999985,629.3860230999999,,,,,,,,,,,,,,629.4027174999937,,,,,,,,,,,,,629.3981029999559,629.4027174999937,629.4027174999937,629.4027174999937,632.386355399969,j,632.3863969999948,,,632.3864082999644,None,,,632.4025847999728,632.4025847999728,632.4025847999728,0.8717290999484248,0.15146439999807626,,,,,,,,,,00061,001,2026-01-19_16h57.47.717,MST_task,2024.2.0,60.000383991411596,2026-01-19 16h57.54.747861 +0530,
,Objects\168a.jpg,132,0,133,,,,,,,f,None,,,2.2833439000532962,0.15209669998148456,,,,133,0,132,632.4025847999728,,,,,,,,,,,,,,,,,,,,,,,,,,,,,,632.3865052000037,632.4025847999728,632.8860478999559,,,,,,,,,,,,,,632.9028012999916,,,,,,,,,,,,,632.8956436999724,632.9028012999916,632.9028012999916,632.9028012999916,635.886386499973,f,635.8864264999866,,,635.8864375999547,None,,,635.9023986999528,635.9023986999528,635.9023986999528,2.2833439000532962,0.15209669998148456,,,,,,,,,,00061,001,2026-01-19_16h57.47.717,MST_task,2024.2.0,60.000383991411596,2026-01-19 16h57.54.747861 +0530,
,Scenes\188a.jpg,133,0,134,,,,,,,j,None,,,0.9252355000353418,0.15200719999847934,,,,134,0,133,635.9023986999528,,,,,,,,,,,,,,,,,,,,,,,,,,,,,,635.8865331999841,635.9023986999528,636.3859250000096,,,,,,,,,,,,,,636.4043513999786,,,,,,,,,,,,,636.4017724999576,636.4043513999786,636.4043513999786,636.4043513999786,639.4026565999957,j,639.4042915999889,,,639.404310199956,None,,,,,,0.9252355000353418,0.15200719999847934,,,,,,,,,,00061,001,2026-01-19_16h57.47.717,MST_task,2024.2.0,60.000383991411596,2026-01-19 16h57.54.747861 +0530,
,Scenes\179a.jpg,134,0,135,,,,,,,j,None,,,1.099831199971959,0.11076410004170612,,,,135,0,134,639.4191635999596,,,,,,,,,,,,,,,,,,,,,,,,,,,,,,639.4043830999872,639.4191635999596,639.9029001999879,,,,,,,,,,,,,,639.9196099999826,,,,,,,,,,,,,639.9168578999816,639.9196099999826,639.9196099999826,639.9196099999826,642.9030261999578,j,642.9030697999988,,,642.9030807999661,None,,,642.9191437999834,642.9191437999834,642.9191437999834,1.099831199971959,0.11076410004170612,,,,,,,,,,00061,001,2026-01-19_16h57.47.717,MST_task,2024.2.0,60.000383991411596,2026-01-19 16h57.54.747861 +0530,
,Scenes\039a.jpg,135,0,136,,,,,,,j,None,,,2.2784202999901026,0.10399700002744794,,,,136,0,135,642.9191437999834,,,,,,,,,,,,,,,,,,,,,,,,,,,,,,642.9031455999939,642.9191437999834,643.4026223999681,,,,,,,,,,,,,,643.419779799995,,,,,,,,,,,,,643.416410100006,643.419779799995,643.419779799995,643.419779799995,646.403227999981,j,646.4032805999741,,,646.403292700008,None,,,646.419107099995,646.419107099995,646.419107099995,2.2784202999901026,0.10399700002744794,,,,,,,,,,00061,001,2026-01-19_16h57.47.717,MST_task,2024.2.0,60.000383991411596,2026-01-19 16h57.54.747861 +0530,
,Scenes\173a.jpg,136,0,137,,,,,,,j,None,,,1.2178988000378013,0.11997839994728565,,,,137,0,136,646.419107099995,,,,,,,,,,,,,,,,,,,,,,,,,,,,,,646.4034076999524,646.419107099995,646.9027578000096,,,,,,,,,,,,,,646.9196949999896,,,,,,,,,,,,,646.9170074999565,646.9196949999896,646.9196949999896,646.9196949999896,649.903536400001,j,649.9035766999586,,,649.9035870999796,None,,,649.9191564999637,649.9191564999637,649.9191564999637,1.2178988000378013,0.11997839994728565,,,,,,,,,,00061,001,2026-01-19_16h57.47.717,MST_task,2024.2.0,60.000383991411596,2026-01-19 16h57.54.747861 +0530,
,Scenes\101a.jpg,137,0,138,,,,,,,j,None,,,1.005441499990411,0.12788260000525042,,,,138,0,137,649.9191564999637,,,,,,,,,,,,,,,,,,,,,,,,,,,,,,649.9036516000051,649.9191564999637,650.4026962000062,,,,,,,,,,,,,,650.4213951999554,,,,,,,,,,,,,650.4190471000038,650.4213951999554,650.4213951999554,650.4213951999554,653.4194038999849,j,653.4194463999593,,,653.4194590999978,None,,,,,,1.005441499990411,0.12788260000525042,,,,,,,,,,00061,001,2026-01-19_16h57.47.717,MST_task,2024.2.0,60.000383991411596,2026-01-19 16h57.54.747861 +0530,
,Scenes\044a.jpg,138,0,139,,,,,,,j,None,,,2.842741100001149,0.11889840004732832,,,,139,0,138,653.4355910999584,,,,,,,,,,,,,,,,,,,,,,,,,,,,,,653.419550999999,653.4355910999584,653.919254999957,,,,,,,,,,,,,,653.9360163999954,,,,,,,,,,,,,653.932709799963,653.9360163999954,653.9360163999954,653.9360163999954,656.9196004999685,j,656.9196518999524,,,656.9196637999848,None,,,656.935566900007,656.935566900007,656.935566900007,2.842741100001149,0.11889840004732832,,,,,,,,,,00061,001,2026-01-19_16h57.47.717,MST_task,2024.2.0,60.000383991411596,2026-01-19 16h57.54.747861 +0530,
,Scenes\004a.jpg,139,0,140,,,,,,,j,None,,,0.7455840000184253,0.15283979999367148,,,,140,0,139,656.935566900007,,,,,,,,,,,,,,,,,,,,,,,,,,,,,,656.919729999965,656.935566900007,657.4193281999906,,,,,,,,,,,,,,657.4399427999742,,,,,,,,,,,,,657.4375867999624,657.4399427999742,657.4399427999742,657.4399427999742,660.4359949000063,j,660.4360452999827,,,660.4360685999854,None,,,,,,0.7455840000184253,0.15283979999367148,,,,,,,,,,00061,001,2026-01-19_16h57.47.717,MST_task,2024.2.0,60.000383991411596,2026-01-19 16h57.54.747861 +0530,
,Objects\130a.jpg,140,0,141,,,,,,,j,None,,,2.393158000020776,0.1519482999574393,,,,141,0,140,660.4523893999867,,,,,,,,,,,,,,,,,,,,,,,,,,,,,,660.4361891999724,660.4523893999867,660.9359840999823,,,,,,,,,,,,,,660.9531878999551,,,,,,,,,,,,,660.9487397999619,660.9531878999551,660.9531878999551,660.9531878999551,663.936385399953,j,663.9385426999652,,,663.9385643999558,None,,,663.9524972999934,663.9524972999934,663.9524972999934,2.393158000020776,0.1519482999574393,,,,,,,,,,00061,001,2026-01-19_16h57.47.717,MST_task,2024.2.0,60.000383991411596,2026-01-19 16h57.54.747861 +0530,
,Objects\172a.jpg,141,0,142,,,,,,,j,None,,,0.8529819999821484,0.16901830001734197,,,,142,0,141,663.9524972999934,,,,,,,,,,,,,,,,,,,,,,,,,,,,,,663.9386500999681,663.9524972999934,664.435837899975,,,,,,,,,,,,,,664.4527213999536,,,,,,,,,,,,,664.4470792000066,664.4527213999536,664.4527213999536,664.4527213999536,667.4363782999571,j,667.4364277999848,,,667.4364393999567,None,,,667.4524371000007,667.4524371000007,667.4524371000007,0.8529819999821484,0.16901830001734197,,,,,,,,,,00061,001,2026-01-19_16h57.47.717,MST_task,2024.2.0,60.000383991411596,2026-01-19 16h57.54.747861 +0530,
,Objects\069a.jpg,142,0,143,,,,,,,j,None,,,1.4098324000369757,0.1279975000070408,,,,143,0,142,667.4524371000007,,,,,,,,,,,,,,,,,,,,,,,,,,,,,,667.436564499978,667.4524371000007,667.935823399981,,,,,,,,,,,,,,667.9526302999584,,,,,,,,,,,,,667.9456197999534,667.9526302999584,667.9526302999584,667.9526302999584,670.9362566999625,j,670.9362978999852,,,670.9363091999548,None,,,670.9523198999814,670.9523198999814,670.9523198999814,1.4098324000369757,0.1279975000070408,,,,,,,,,,00061,001,2026-01-19_16h57.47.717,MST_task,2024.2.0,60.000383991411596,2026-01-19 16h57.54.747861 +0530,
,Objects\071a.jpg,143,0,144,,,,,,,None,j,0.42122509999899194,None,,,,,,144,0,143,670.9523198999814,,,,,,,,,,,,,,,,,,,,,,,,,,,,,,670.9364076000056,670.9523198999814,671.4360400000005,,,,,,,,,,,,,,671.4527749999543,,,,,,,,,,,,,671.4472093000077,671.4527749999543,671.4527749999543,671.4527749999543,674.4361154999933,None,674.4361538999947,674.452424499963,674.452424499963,674.8860082000028,j,0.42122509999899194,None,674.452424499963,674.452424499963,674.452424499963,,,,,,,,,,,,00061,001,2026-01-19_16h57.47.717,MST_task,2024.2.0,60.000383991411596,2026-01-19 16h57.54.747861 +0530,
,Objects\174a.jpg,144,0,145,,,,,,,f,None,,,0.8480635000159964,0.1998483000206761,,,,145,0,144,674.9023820000002,,,,,,,,,,,,,,,,,,,,,,,,,,,,,,674.8861262999708,674.9023820000002,675.3858862000052,,,,,,,,,,,,,,675.4027720000013,,,,,,,,,,,,,675.395376099972,675.4027720000013,675.4027720000013,675.4027720000013,678.3865904999548,f,678.3866419999977,,,678.3866543999757,None,,,678.4025556999841,678.4025556999841,678.4025556999841,0.8480635000159964,0.1998483000206761,,,,,,,,,,00061,001,2026-01-19_16h57.47.717,MST_task,2024.2.0,60.000383991411596,2026-01-19 16h57.54.747861 +0530,
,Objects\159a.jpg,145,0,146,,,,,,,f,None,,,0.8829281000071205,0.15200250002089888,,,,146,0,145,678.4025556999841,,,,,,,,,,,,,,,,,,,,,,,,,,,,,,678.3867708999896,678.4025556999841,678.8858204999706,,,,,,,,,,,,,,678.9026778999832,,,,,,,,,,,,,678.8957987999893,678.9026778999832,678.9026778999832,678.9026778999832,681.8862067000009,f,681.88624719996,,,681.8862620999571,None,,,681.9023219000082,681.9023219000082,681.9023219000082,0.8829281000071205,0.15200250002089888,,,,,,,,,,00061,001,2026-01-19_16h57.47.717,MST_task,2024.2.0,60.000383991411596,2026-01-19 16h57.54.747861 +0530,
,Objects\146a.jpg,146,0,147,,,,,,,f,None,,,1.2231061999918893,0.17590040003415197,,,,147,0,146,681.9023219000082,,,,,,,,,,,,,,,,,,,,,,,,,,,,,,681.8864834999549,681.9023219000082,682.3858371999813,,,,,,,,,,,,,,682.4026092999848,,,,,,,,,,,,,682.3962113999878,682.4026092999848,682.4026092999848,682.4026092999848,685.3862481999677,f,685.3862875999766,,,685.3862980999984,None,,,685.4023178999778,685.4023178999778,685.4023178999778,1.2231061999918893,0.17590040003415197,,,,,,,,,,00061,001,2026-01-19_16h57.47.717,MST_task,2024.2.0,60.000383991411596,2026-01-19 16h57.54.747861 +0530,
,Scenes\058a.jpg,147,0,148,,,,,,,j,None,,,2.262032200000249,0.12771149998297915,,,,148,0,147,685.4023178999778,,,,,,,,,,,,,,,,,,,,,,,,,,,,,,685.3863628999679,685.4023178999778,685.8858929999988,,,,,,,,,,,,,,685.9082367999945,,,,,,,,,,,,,685.9059525000048,685.9082367999945,685.9082367999945,685.9082367999945,688.902669699979,j,688.9043298999895,,,688.9043498999672,None,,,,,,2.262032200000249,0.12771149998297915,,,,,,,,,,00061,001,2026-01-19_16h57.47.717,MST_task,2024.2.0,60.000383991411596,2026-01-19 16h57.54.747861 +0530,
,Scenes\014a.jpg,148,0,149,,,,,,,f,None,,,0.9819721999811009,0.1602576000150293,,,,149,0,148,688.9190269999672,,,,,,,,,,,,,,,,,,,,,,,,,,,,,,688.9044629999553,688.9190269999672,689.402650999953,,,,,,,,,,,,,,689.4199085999862,,,,,,,,,,,,,689.4176516999723,689.4199085999862,689.4199085999862,689.4199085999862,692.4028861999977,f,692.4029268999584,,,692.4029383999878,None,,,692.419114999997,692.419114999997,692.419114999997,0.9819721999811009,0.1602576000150293,,,,,,,,,,00061,001,2026-01-19_16h57.47.717,MST_task,2024.2.0,60.000383991411596,2026-01-19 16h57.54.747861 +0530,
,Scenes\092a.jpg,149,0,150,,,,,,,f,None,,,1.4079336000140756,0.1839930000132881,,,,150,0,149,692.419114999997,,,,,,,,,,,,,,,,,,,,,,,,,,,,,,692.4030052999733,692.419114999997,692.9028015999938,,,,,,,,,,,,,,692.9220762999612,,,,,,,,,,,,,692.9197895999532,692.9220762999612,692.9220762999612,692.9220762999612,695.9193146000034,f,695.9193623999599,,,695.9193749999977,None,,,,,,1.4079336000140756,0.1839930000132881,,,,,,,,,,00061,001,2026-01-19_16h57.47.717,MST_task,2024.2.0,60.000383991411596,2026-01-19 16h57.54.747861 +0530,
,Scenes\121a.jpg,150,0,151,,,,,,,j,None,,,0.8519236000138335,0.16048560000490397,,,,151,0,150,695.935692399973,,,,,,,,,,,,,,,,,,,,,,,,,,,,,,695.9194477999699,695.935692399973,696.4193910000031,,,,,,,,,,,,,,696.4378412999795,,,,,,,,,,,,,696.4356257999898,696.4378412999795,696.4378412999795,696.4378412999795,699.43588179996,j,699.4359243999934,,,699.4359365999699,None,,,,,,0.8519236000138335,0.16048560000490397,,,,,,,,,,00061,001,2026-01-19_16h57.47.717,MST_task,2024.2.0,60.000383991411596,2026-01-19 16h57.54.747861 +0530,
,Scenes\145a.jpg,151,0,152,,,,,,,j,None,,,0.8380558000062592,0.1519990999950096,,,,152,0,151,699.4524465999566,,,,,,,,,,,,,,,,,,,,,,,,,,,,,,699.436038099986,699.4524465999566,699.9358682999737,,,,,,,,,,,,,,699.9556538999896,,,,,,,,,,,,,699.9533954999642,699.9556538999896,699.9556538999896,699.9556538999896,702.9526873999857,j,702.9527288000099,,,702.9527407999849,None,,,,,,0.8380558000062592,0.1519990999950096,,,,,,,,,,00061,001,2026-01-19_16h57.47.717,MST_task,2024.2.0,60.000383991411596,2026-01-19 16h57.54.747861 +0530,
,Scenes\043a.jpg,152,0,153,,,,,,,j,None,,,1.3850851000170223,0.1358843999914825,,,,153,0,152,702.9690503999591,,,,,,,,,,,,,,,,,,,,,,,,,,,,,,702.9528410999919,702.9690503999591,703.4525957999867,,,,,,,,,,,,,,703.4731230000034,,,,,,,,,,,,,703.471088499995,703.4731230000034,703.4731230000034,703.4731230000034,706.4693505999749,j,706.469420599984,,,706.4694521999918,None,,,,,,1.3850851000170223,0.1358843999914825,,,,,,,,,,00061,001,2026-01-19_16h57.47.717,MST_task,2024.2.0,60.000383991411596,2026-01-19 16h57.54.747861 +0530,
,Scenes\161a.jpg,153,0,154,,,,,,,j,None,,,1.3639488000189885,0.16035540000302717,,,,154,0,153,706.4856041999883,,,,,,,,,,,,,,,,,,,,,,,,,,,,,,706.469576500007,706.4856041999883,706.9694800999714,,,,,,,,,,,,,,706.9897796000005,,,,,,,,,,,,,706.9874609999824,706.9897796000005,706.9897796000005,706.9897796000005,709.9858256999869,j,709.9858689999674,,,709.9858821000089,None,,,,,,1.3639488000189885,0.16035540000302717,,,,,,,,,,00061,001,2026-01-19_16h57.47.717,MST_task,2024.2.0,60.000383991411596,2026-01-19 16h57.54.747861 +0530,
,Objects\162a.jpg,154,0,155,,,,,,,f,None,,,1.211534500005655,0.17595539998728782,,,,155,0,154,710.0023515999783,,,,,,,,,,,,,,,,,,,,,,,,,,,,,,709.9859853999806,710.0023515999783,710.4859144999646,,,,,,,,,,,,,,710.5029248999781,,,,,,,,,,,,,710.499201699975,710.5029248999781,710.5029248999781,710.5029248999781,713.4862426999607,f,713.4883017999819,,,713.4883195000002,None,,,713.5024022999569,713.5024022999569,713.5024022999569,1.211534500005655,0.17595539998728782,,,,,,,,,,00061,001,2026-01-19_16h57.47.717,MST_task,2024.2.0,60.000383991411596,2026-01-19 16h57.54.747861 +0530,
,Objects\066a.jpg,155,0,156,,,,,,,f,None,,,1.7202364999684505,0.16690230002859607,,,,156,0,155,713.5024022999569,,,,,,,,,,,,,,,,,,,,,,,,,,,,,,713.4883895000094,713.5024022999569,713.98584509996,,,,,,,,,,,,,,714.0026025999687,,,,,,,,,,,,,713.9962621000013,714.0026025999687,714.0026025999687,714.0026025999687,716.9861469999887,f,716.9861887999577,,,716.9861998999841,None,,,717.0023677999852,717.0023677999852,717.0023677999852,1.7202364999684505,0.16690230002859607,,,,,,,,,,00061,001,2026-01-19_16h57.47.717,MST_task,2024.2.0,60.000383991411596,2026-01-19 16h57.54.747861 +0530,
,Objects\133a.jpg,156,0,157,,,,,,,j,None,,,1.3317920000408776,0.16832150000846013,,,,157,0,156,717.0023677999852,,,,,,,,,,,,,,,,,,,,,,,,,,,,,,716.9862755999784,717.0023677999852,717.4858714999864,,,,,,,,,,,,,,717.5027108999784,,,,,,,,,,,,,717.495946799987,717.5027108999784,717.5027108999784,717.5027108999784,720.4860596999642,j,720.4861015999923,,,720.4861124999588,None,,,720.5024021999561,720.5024021999561,720.5024021999561,1.3317920000408776,0.16832150000846013,,,,,,,,,,00061,001,2026-01-19_16h57.47.717,MST_task,2024.2.0,60.000383991411596,2026-01-19 16h57.54.747861 +0530,
,Objects\050a.jpg,157,0,158,,,,,,,f,None,,,1.1353355000028387,0.18395709997275844,,,,158,0,157,720.5024021999561,,,,,,,,,,,,,,,,,,,,,,,,,,,,,,720.4861759999767,720.5024021999561,720.9862236999907,,,,,,,,,,,,,,721.0027212999994,,,,,,,,,,,,,720.9965389999561,721.0027212999994,721.0027212999994,721.0027212999994,723.9862632000004,f,723.9863104999531,,,723.986322199984,None,,,724.0024067999911,724.0024067999911,724.0024067999911,1.1353355000028387,0.18395709997275844,,,,,,,,,,00061,001,2026-01-19_16h57.47.717,MST_task,2024.2.0,60.000383991411596,2026-01-19 16h57.54.747861 +0530,
,Objects\051a.jpg,158,0,159,,,,,,,j,None,,,1.5306931000086479,0.15165889996569604,,,,159,0,158,724.0024067999911,,,,,,,,,,,,,,,,,,,,,,,,,,,,,,723.9863898999756,724.0024067999911,724.4859363999567,,,,,,,,,,,,,,724.5037066999939,,,,,,,,,,,,,724.4956168999779,724.5037066999939,724.5037066999939,724.5037066999939,727.5026305000065,j,727.5026774999569,,,727.5026899999939,None,,,,,,1.5306931000086479,0.15165889996569604,,,,,,,,,,00061,001,2026-01-19_16h57.47.717,MST_task,2024.2.0,60.000383991411596,2026-01-19 16h57.54.747861 +0530,
,Objects\035a.jpg,159,0,160,,,,,,,j,None,,,1.7519902000203729,0.13498440000694245,,,,160,0,159,727.5190731000039,,,,,,,,,,,,,,,,,,,,,,,,,,,,,,727.5027568999794,727.5190731000039,728.0027198999887,,,,,,,,,,,,,,728.019305499969,,,,,,,,,,,,,728.0119957999559,728.019305499969,728.019305499969,728.019305499969,731.0030217999592,j,731.0030664000078,,,731.0030771999736,None,,,731.0190471999813,731.0190471999813,731.0190471999813,1.7519902000203729,0.13498440000694245,,,,,,,,,,00061,001,2026-01-19_16h57.47.717,MST_task,2024.2.0,60.000383991411596,2026-01-19 16h57.54.747861 +0530,
