thisN,thisTrialN,thisRepN,key_resp_3.keys,key_resp_3.rt,key_resp_3.duration,trials.thisRepN,trials.thisTrialN,trials.thisN,thisRow.t,notes,intro_page.started,text.started,key_resp.started,intro_page.stopped,key_resp.keys,key_resp.rt,key_resp.duration,instructions.started,text_2.started,key_resp_2.started,instructions.stopped,key_resp_2.keys,key_resp_2.rt,key_resp_2.duration,demo1.started,image_1.started,image_2.started,text_7.started,key_resp_6.started,text_9.started,demo1.stopped,key_resp_6.keys,key_resp_6.rt,key_resp_6.duration,demo2.started,image_5.started,image_6.started,text_11.started,text_12.started,key_resp_8.started,demo2.stopped,key_resp_8.keys,key_resp_8.rt,key_resp_8.duration,demo_conclusion.started,text_13.started,key_resp_9.started,demo_conclusion.stopped,key_resp_9.keys,key_resp_9.rt,key_resp_9.duration,start_test.started,text_6.started,key_resp_5.started,start_test.stopped,key_resp_5.keys,key_resp_5.rt,key_resp_5.duration,ISI.started,text_4.started,text_4.stopped,ISI.stopped,routine_1.started,image.started,text_3.started,key_resp_3.started,routine_1.stopped,image_path,position_of_stimuli,trials.key_resp_3.keys,trials.key_resp_3.rt,trials.key_resp_3.duration,End_page.started,text_5.started,key_resp_4.started,End_page.stopped,key_resp_4.keys,key_resp_4.rt,key_resp_4.duration,participant,session,date,expName,psychopyVersion,frameRate,expStart,
,,,,,,,,,,,0.001198899990413338,0.002638300007674843,0.002638300007674843,4.524076900037471,space,4.50513189996127,None,,,,,,,,,,,,,,,,,,,,,,,,,,,,,,,,,,,,,,,,,,,,,,,,,,,,,,,,,,,,,,,00064,001,2026-01-19_22h17.30.709,MST_test,2024.2.0,59.99998800689594,2026-01-19 22h17.37.307393 +0530,
,,,,,,,,,,,,,,,,,,4.524107000033837,4.538988400017843,4.538988400017843,12.556529599998612,space,8.001083400042262,None,,,,,,,,,,,,,,,,,,,,,,,,,,,,,,,,,,,,,,,,,,,,,,,,,,,,,,,,00064,001,2026-01-19_22h17.30.709,MST_test,2024.2.0,59.99998800689594,2026-01-19 22h17.37.307393 +0530,
,,,,,,,,,,,,,,,,,,,,,,,,,12.556563100020867,12.57272679999005,12.57272679999005,12.57272679999005,12.57272679999005,12.57272679999005,17.089898100006394,space,4.5101464000181295,None,,,,,,,,,,,,,,,,,,,,,,,,,,,,,,,,,,,,,,,,,,,,,,00064,001,2026-01-19_22h17.30.709,MST_test,2024.2.0,59.99998800689594,2026-01-19 22h17.37.307393 +0530,
,,,,,,,,,,,,,,,,,,,,,,,,,,,,,,,,,,,17.089931300026365,17.106120600015856,17.106120600015856,17.106120600015856,17.106120600015856,17.106120600015856,19.17325950000668,space,2.0576643000240438,None,,,,,,,,,,,,,,,,,,,,,,,,,,,,,,,,,,,,00064,001,2026-01-19_22h17.30.709,MST_test,2024.2.0,59.99998800689594,2026-01-19 22h17.37.307393 +0530,
,,,,,,,,,,,,,,,,,,,,,,,,,,,,,,,,,,,,,,,,,,,,,19.17329060001066,19.189066599996295,19.189066599996295,30.739557499997318,space,11.541291999979876,None,,,,,,,,,,,,,,,,,,,,,,,,,,,,,00064,001,2026-01-19_22h17.30.709,MST_test,2024.2.0,59.99998800689594,2026-01-19 22h17.37.307393 +0530,
,,,,,,,,,,,,,,,,,,,,,,,,,,,,,,,,,,,,,,,,,,,,,,,,,,,,30.739589600008912,30.755662300041877,30.755662300041877,83.3728699000203,space,52.60796029999619,None,,,,,,,,,,,,,,,,,,,,,,00064,001,2026-01-19_22h17.30.709,MST_test,2024.2.0,59.99998800689594,2026-01-19 22h17.37.307393 +0530,
0,0,1,n,3.7619097999995574,None,1,0,0,83.38909700000659,,,,,,,,,,,,,,,,,,,,,,,,,,,,,,,,,,,,,,,,,,,,,,,,,,83.37696610001149,83.38909700000659,83.88921709998976,83.87261860002764,83.88226780004334,83.88921709998976,83.88921709998976,83.88921709998976,87.65640070004156,Foils\097a.jpg,none,n,3.7619097999995574,None,,,,,,,,00064,001,2026-01-19_22h17.30.709,MST_test,2024.2.0,59.99998800689594,2026-01-19 22h17.37.307393 +0530,
1,0,2,o,2.821905800024979,None,2,0,1,87.67248469998594,,,,,,,,,,,,,,,,,,,,,,,,,,,,,,,,,,,,,,,,,,,,,,,,,,87.65649960003793,87.67248469998594,88.1730566000333,88.15596450003795,88.16272110003047,88.1730566000333,88.1730566000333,88.1730566000333,91.00638090004213,Scenes\006a.jpg,mid,o,2.821905800024979,None,,,,,,,,00064,001,2026-01-19_22h17.30.709,MST_test,2024.2.0,59.99998800689594,2026-01-19 22h17.37.307393 +0530,
2,0,3,o,2.680202699964866,None,3,0,2,91.02248620003229,,,,,,,,,,,,,,,,,,,,,,,,,,,,,,,,,,,,,,,,,,,,,,,,,,91.00647309998749,91.02248620003229,91.53057790000457,91.50632949999999,91.52834640000947,91.53057790000457,91.53057790000457,91.53057790000457,94.22310830000788,Scenes\065b.jpg,mid,o,2.680202699964866,None,,,,,,,,00064,001,2026-01-19_22h17.30.709,MST_test,2024.2.0,59.99998800689594,2026-01-19 22h17.37.307393 +0530,
3,0,4,s,7.983422500023153,None,4,0,3,94.23923800000921,,,,,,,,,,,,,,,,,,,,,,,,,,,,,,,,,,,,,,,,,,,,,,,,,,94.22320120001677,94.23923800000921,94.7392656999873,94.7228538999916,94.73447060002945,94.7392656999873,94.7392656999873,94.7392656999873,102.73967470001662,Foils\scenes19.jpg,none,s,7.983422500023153,None,,,,,,,,00064,001,2026-01-19_22h17.30.709,MST_test,2024.2.0,59.99998800689594,2026-01-19 22h17.37.307393 +0530,
4,0,5,n,5.9152468999964185,None,5,0,4,102.75572170002852,,,,,,,,,,,,,,,,,,,,,,,,,,,,,,,,,,,,,,,,,,,,,,,,,,102.73976710002171,102.75572170002852,103.25603580003371,103.23938089999137,103.24888770002872,103.25603580003371,103.25603580003371,103.25603580003371,109.17285720002837,Objects\094b.jpg,pre,n,5.9152468999964185,None,,,,,,,,00064,001,2026-01-19_22h17.30.709,MST_test,2024.2.0,59.99998800689594,2026-01-19 22h17.37.307393 +0530,
5,0,6,o,2.1208245999878272,None,6,0,5,109.18907389999367,,,,,,,,,,,,,,,,,,,,,,,,,,,,,,,,,,,,,,,,,,,,,,,,,,109.17295269999886,109.18907389999367,109.68958130001556,109.67260340001667,109.67855670000426,109.68958130001556,109.68958130001556,109.68958130001556,111.8228250000393,Scenes\141a.jpg,mid,o,2.1208245999878272,None,,,,,,,,00064,001,2026-01-19_22h17.30.709,MST_test,2024.2.0,59.99998800689594,2026-01-19 22h17.37.307393 +0530,
6,0,7,o,2.210955400019884,None,7,0,6,111.83907450002152,,,,,,,,,,,,,,,,,,,,,,,,,,,,,,,,,,,,,,,,,,,,,,,,,,111.82291600003373,111.83907450002152,112.34412060002796,112.322565999988,112.3418181000161,112.34412060002796,112.34412060002796,112.34412060002796,114.55638439999893,Scenes\015b.jpg,mid,o,2.210955400019884,None,,,,,,,,00064,001,2026-01-19_22h17.30.709,MST_test,2024.2.0,59.99998800689594,2026-01-19 22h17.37.307393 +0530,
7,0,8,o,3.1944129000185058,None,8,0,7,114.5725051999907,,,,,,,,,,,,,,,,,,,,,,,,,,,,,,,,,,,,,,,,,,,,,,,,,,114.5564805000322,114.5725051999907,115.07274319999851,115.0558831000235,115.05938500002958,115.07274319999851,115.07274319999851,115.07274319999851,118.27303510002093,Objects\118a.jpg,mid,o,3.1944129000185058,None,,,,,,,,00064,001,2026-01-19_22h17.30.709,MST_test,2024.2.0,59.99998800689594,2026-01-19 22h17.37.307393 +0530,
8,0,9,o,1.1098037000047043,None,9,0,8,118.28905540000414,,,,,,,,,,,,,,,,,,,,,,,,,,,,,,,,,,,,,,,,,,,,,,,,,,118.27313190000132,118.28905540000414,118.78945099998964,118.77270179998595,118.78242709999904,118.78945099998964,118.78945099998964,118.78945099998964,119.9063860999886,Scenes\174a.jpg,pre,o,1.1098037000047043,None,,,,,,,,00064,001,2026-01-19_22h17.30.709,MST_test,2024.2.0,59.99998800689594,2026-01-19 22h17.37.307393 +0530,
9,0,10,s,1.9483250999473967,None,10,0,9,119.92227030004142,,,,,,,,,,,,,,,,,,,,,,,,,,,,,,,,,,,,,,,,,,,,,,,,,,119.90647970000282,119.92227030004142,120.42274840001483,120.40595079999184,120.41537080000853,120.42274840001483,120.42274840001483,120.42274840001483,122.37274130003061,Foils\scenes16.jpg,none,s,1.9483250999473967,None,,,,,,,,00064,001,2026-01-19_22h17.30.709,MST_test,2024.2.0,59.99998800689594,2026-01-19 22h17.37.307393 +0530,
10,0,11,o,1.2407573999953456,None,11,0,10,122.38907630002359,,,,,,,,,,,,,,,,,,,,,,,,,,,,,,,,,,,,,,,,,,,,,,,,,,122.37283930002013,122.38907630002359,122.88949500001036,122.87273970001843,122.87578020000365,122.88949500001036,122.88949500001036,122.88949500001036,124.14012160000857,Objects\064a.jpg,mid,o,1.2407573999953456,None,,,,,,,,00064,001,2026-01-19_22h17.30.709,MST_test,2024.2.0,59.99998800689594,2026-01-19 22h17.37.307393 +0530,
11,0,12,o,2.314967499987688,None,12,0,11,124.15570669999579,,,,,,,,,,,,,,,,,,,,,,,,,,,,,,,,,,,,,,,,,,,,,,,,,,124.14022500003921,124.15570669999579,124.65595570002915,124.63929970003664,124.64870510000037,124.65595570002915,124.65595570002915,124.65595570002915,126.97277739999117,Objects\071b.jpg,pre,o,2.314967499987688,None,,,,,,,,00064,001,2026-01-19_22h17.30.709,MST_test,2024.2.0,59.99998800689594,2026-01-19 22h17.37.307393 +0530,
12,0,13,o,1.0739450000110082,None,13,0,12,126.98898080002982,,,,,,,,,,,,,,,,,,,,,,,,,,,,,,,,,,,,,,,,,,,,,,,,,,126.97286879998865,126.98898080002982,127.4892669999972,127.47260810004082,127.47531120001804,127.4892669999972,127.4892669999972,127.4892669999972,128.57284370000707,Objects\069a.jpg,mid,o,1.0739450000110082,None,,,,,,,,00064,001,2026-01-19_22h17.30.709,MST_test,2024.2.0,59.99998800689594,2026-01-19 22h17.37.307393 +0530,
13,0,14,s,1.905225700000301,None,14,0,13,128.58908380003413,,,,,,,,,,,,,,,,,,,,,,,,,,,,,,,,,,,,,,,,,,,,,,,,,,128.57293540000683,128.58908380003413,129.08940380002605,129.07264020002913,129.0747851000051,129.08940380002605,129.08940380002605,129.08940380002605,131.00628710002638,Foils\scenes29.jpg,none,s,1.905225700000301,None,,,,,,,,00064,001,2026-01-19_22h17.30.709,MST_test,2024.2.0,59.99998800689594,2026-01-19 22h17.37.307393 +0530,
14,0,15,s,2.2377044999739155,None,15,0,14,131.0223219000036,,,,,,,,,,,,,,,,,,,,,,,,,,,,,,,,,,,,,,,,,,,,,,,,,,131.0063789000269,131.0223219000036,131.52547039999627,131.50610970001435,131.52354389999527,131.52547039999627,131.52547039999627,131.52547039999627,133.77277010004036,Scenes\078b.jpg,mid,s,2.2377044999739155,None,,,,,,,,00064,001,2026-01-19_22h17.30.709,MST_test,2024.2.0,59.99998800689594,2026-01-19 22h17.37.307393 +0530,
15,0,16,n,2.6488302999641746,None,16,0,15,133.78905850002775,,,,,,,,,,,,,,,,,,,,,,,,,,,,,,,,,,,,,,,,,,,,,,,,,,133.77286430000095,133.78905850002775,134.2895828000037,134.2725154000218,134.2827544999891,134.2895828000037,134.2895828000037,134.2895828000037,136.93977699999232,Foils\002a.jpg,none,n,2.6488302999641746,None,,,,,,,,00064,001,2026-01-19_22h17.30.709,MST_test,2024.2.0,59.99998800689594,2026-01-19 22h17.37.307393 +0530,
16,0,17,s,4.79447819996858,None,17,0,16,136.95567490003305,,,,,,,,,,,,,,,,,,,,,,,,,,,,,,,,,,,,,,,,,,,,,,,,,,136.93987080000807,136.95567490003305,137.456201300025,137.4395820000209,137.44877070002258,137.456201300025,137.456201300025,137.456201300025,142.2562568000285,Scenes\013a.jpg,mid,s,4.79447819996858,None,,,,,,,,00064,001,2026-01-19_22h17.30.709,MST_test,2024.2.0,59.99998800689594,2026-01-19 22h17.37.307393 +0530,
17,0,18,s,2.046925199974794,None,18,0,17,142.27217720000772,,,,,,,,,,,,,,,,,,,,,,,,,,,,,,,,,,,,,,,,,,,,,,,,,,142.2563484000275,142.27217720000772,142.77282860002015,142.75608590000775,142.76695000001928,142.77282860002015,142.77282860002015,142.77282860002015,144.82295739999972,Objects\030b.jpg,pre,s,2.046925199974794,None,,,,,,,,00064,001,2026-01-19_22h17.30.709,MST_test,2024.2.0,59.99998800689594,2026-01-19 22h17.37.307393 +0530,
18,0,19,n,1.6157489999895915,None,19,0,18,144.83898770000087,,,,,,,,,,,,,,,,,,,,,,,,,,,,,,,,,,,,,,,,,,,,,,,,,,144.82304739998654,144.83898770000087,145.33933700004127,145.3224912000005,145.32504870003322,145.33933700004127,145.33933700004127,145.33933700004127,146.95631750003668,Foils\093b.jpg,none,n,1.6157489999895915,None,,,,,,,,00064,001,2026-01-19_22h17.30.709,MST_test,2024.2.0,59.99998800689594,2026-01-19 22h17.37.307393 +0530,
19,0,20,n,2.417782799981069,None,20,0,19,146.97232970001642,,,,,,,,,,,,,,,,,,,,,,,,,,,,,,,,,,,,,,,,,,,,,,,,,,146.9564110999927,146.97232970001642,147.47252310003387,147.45590649999212,147.46564160002163,147.47252310003387,147.47252310003387,147.47252310003387,149.90633309999248,Foils\scenes17.jpg,none,n,2.417782799981069,None,,,,,,,,00064,001,2026-01-19_22h17.30.709,MST_test,2024.2.0,59.99998800689594,2026-01-19 22h17.37.307393 +0530,
20,0,21,o,1.4845806999946944,None,21,0,20,149.92223040002864,,,,,,,,,,,,,,,,,,,,,,,,,,,,,,,,,,,,,,,,,,,,,,,,,,149.90642690000823,149.92223040002864,150.42312530003255,150.40605220000725,150.41524960001698,150.42312530003255,150.42312530003255,150.42312530003255,151.92295680003008,Scenes\068a.jpg,post,o,1.4845806999946944,None,,,,,,,,00064,001,2026-01-19_22h17.30.709,MST_test,2024.2.0,59.99998800689594,2026-01-19 22h17.37.307393 +0530,
21,0,22,s,2.6675417000078596,None,22,0,21,151.93905620003352,,,,,,,,,,,,,,,,,,,,,,,,,,,,,,,,,,,,,,,,,,,,,,,,,,151.9230540000135,151.93905620003352,152.43957330001285,152.42275070003234,152.43340420001186,152.43957330001285,152.43957330001285,152.43957330001285,155.12279350002063,Objects\154b.jpg,pre,s,2.6675417000078596,None,,,,,,,,00064,001,2026-01-19_22h17.30.709,MST_test,2024.2.0,59.99998800689594,2026-01-19 22h17.37.307393 +0530,
22,0,23,o,2.0519353999989107,None,23,0,22,155.13909650000278,,,,,,,,,,,,,,,,,,,,,,,,,,,,,,,,,,,,,,,,,,,,,,,,,,155.1228831000044,155.13909650000278,155.6392186000012,155.62249050004175,155.63260070001706,155.6392186000012,155.6392186000012,155.6392186000012,157.7063868000405,Objects\164b.jpg,mid,o,2.0519353999989107,None,,,,,,,,00064,001,2026-01-19_22h17.30.709,MST_test,2024.2.0,59.99998800689594,2026-01-19 22h17.37.307393 +0530,
23,0,24,o,1.6044538000132889,None,24,0,23,157.72225689998595,,,,,,,,,,,,,,,,,,,,,,,,,,,,,,,,,,,,,,,,,,,,,,,,,,157.70647870004177,157.72225689998595,158.22248870000476,158.20599779998884,158.20854240003973,158.22248870000476,158.22248870000476,158.22248870000476,159.8396381000057,Objects\185a.jpg,mid,o,1.6044538000132889,None,,,,,,,,00064,001,2026-01-19_22h17.30.709,MST_test,2024.2.0,59.99998800689594,2026-01-19 22h17.37.307393 +0530,
24,0,25,s,2.733891699986998,None,25,0,24,159.85589340003207,,,,,,,,,,,,,,,,,,,,,,,,,,,,,,,,,,,,,,,,,,,,,,,,,,159.83972970000468,159.85589340003207,160.35660150001058,160.33945640001912,160.35443910001777,160.35660150001058,160.35660150001058,160.35660150001058,163.10633219999727,Scenes\115b.jpg,mid,s,2.733891699986998,None,,,,,,,,00064,001,2026-01-19_22h17.30.709,MST_test,2024.2.0,59.99998800689594,2026-01-19 22h17.37.307393 +0530,
25,0,26,o,1.5332122999825515,None,26,0,25,163.1224653000245,,,,,,,,,,,,,,,,,,,,,,,,,,,,,,,,,,,,,,,,,,,,,,,,,,163.10642299999017,163.1224653000245,163.6290711000329,163.60609350004233,163.62681360001443,163.6290711000329,163.6290711000329,163.6290711000329,165.1729736000416,Scenes\023b.jpg,pre,o,1.5332122999825515,None,,,,,,,,00064,001,2026-01-19_22h17.30.709,MST_test,2024.2.0,59.99998800689594,2026-01-19 22h17.37.307393 +0530,
26,0,27,s,2.625186700024642,None,27,0,26,165.18915719998768,,,,,,,,,,,,,,,,,,,,,,,,,,,,,,,,,,,,,,,,,,,,,,,,,,165.17306629999075,165.18915719998768,165.6896653000149,165.67286739998963,165.68252820003545,165.6896653000149,165.6896653000149,165.6896653000149,168.32309290004196,Objects\160b.jpg,pre,s,2.625186700024642,None,,,,,,,,00064,001,2026-01-19_22h17.30.709,MST_test,2024.2.0,59.99998800689594,2026-01-19 22h17.37.307393 +0530,
27,0,28,o,1.6826120999758132,None,28,0,27,168.33918370003812,,,,,,,,,,,,,,,,,,,,,,,,,,,,,,,,,,,,,,,,,,,,,,,,,,168.32318519998807,168.33918370003812,168.84000680001918,168.8227624000283,168.8378076000372,168.84000680001918,168.84000680001918,168.84000680001918,170.52342849998968,Scenes\021b.jpg,post,o,1.6826120999758132,None,,,,,,,,00064,001,2026-01-19_22h17.30.709,MST_test,2024.2.0,59.99998800689594,2026-01-19 22h17.37.307393 +0530,
28,0,29,s,2.2912856999901123,None,29,0,28,170.53921290003927,,,,,,,,,,,,,,,,,,,,,,,,,,,,,,,,,,,,,,,,,,,,,,,,,,170.5235224000062,170.53921290003927,171.03961700003128,171.02263710001716,171.03266359999543,171.03961700003128,171.03961700003128,171.03961700003128,173.33972220000578,Objects\163b.jpg,post,s,2.2912856999901123,None,,,,,,,,00064,001,2026-01-19_22h17.30.709,MST_test,2024.2.0,59.99998800689594,2026-01-19 22h17.37.307393 +0530,
29,0,30,s,3.346487100003287,None,30,0,29,173.35590620001312,,,,,,,,,,,,,,,,,,,,,,,,,,,,,,,,,,,,,,,,,,,,,,,,,,173.3398238000227,173.35590620001312,173.8561497000046,173.8392915999866,173.848784300033,173.8561497000046,173.8561497000046,173.8561497000046,177.20671570004197,Scenes\085a.jpg,pre,s,3.346487100003287,None,,,,,,,,00064,001,2026-01-19_22h17.30.709,MST_test,2024.2.0,59.99998800689594,2026-01-19 22h17.37.307393 +0530,
30,0,31,o,1.183853700000327,None,31,0,30,177.22241210000357,,,,,,,,,,,,,,,,,,,,,,,,,,,,,,,,,,,,,,,,,,,,,,,,,,177.20681220002007,177.22241210000357,177.72302670002682,177.7060150000034,177.71199999999953,177.72302670002682,177.72302670002682,177.72302670002682,178.9231016000267,Scenes\051a.jpg,pre,o,1.183853700000327,None,,,,,,,,00064,001,2026-01-19_22h17.30.709,MST_test,2024.2.0,59.99998800689594,2026-01-19 22h17.37.307393 +0530,
31,0,32,o,2.475362600001972,None,32,0,31,178.93907190003665,,,,,,,,,,,,,,,,,,,,,,,,,,,,,,,,,,,,,,,,,,,,,,,,,,178.9231979000033,178.93907190003665,179.43952060001902,179.42262140003731,179.43305260001216,179.43952060001902,179.43952060001902,179.43952060001902,181.92308899998898,Scenes\008b.jpg,mid,o,2.475362600001972,None,,,,,,,,00064,001,2026-01-19_22h17.30.709,MST_test,2024.2.0,59.99998800689594,2026-01-19 22h17.37.307393 +0530,
32,0,33,o,2.443513599981088,None,33,0,32,181.93907910003327,,,,,,,,,,,,,,,,,,,,,,,,,,,,,,,,,,,,,,,,,,,,,,,,,,181.92318530002376,181.93907910003327,182.43956209998578,182.4226830000407,182.42565600003581,182.43956209998578,182.43956209998578,182.43956209998578,184.8897849000059,Objects\057a.jpg,mid,o,2.443513599981088,None,,,,,,,,00064,001,2026-01-19_22h17.30.709,MST_test,2024.2.0,59.99998800689594,2026-01-19 22h17.37.307393 +0530,
33,0,34,s,1.5244437000364996,None,34,0,33,184.9058681000024,,,,,,,,,,,,,,,,,,,,,,,,,,,,,,,,,,,,,,,,,,,,,,,,,,184.88987810001709,184.9058681000024,185.40598370000953,185.38935240003048,185.40006830001948,185.40598370000953,185.40598370000953,185.40598370000953,186.9398458999931,Objects\081b.jpg,post,s,1.5244437000364996,None,,,,,,,,00064,001,2026-01-19_22h17.30.709,MST_test,2024.2.0,59.99998800689594,2026-01-19 22h17.37.307393 +0530,
34,0,35,s,1.7782133999862708,None,35,0,34,186.9558191000251,,,,,,,,,,,,,,,,,,,,,,,,,,,,,,,,,,,,,,,,,,,,,,,,,,186.93994740000926,186.9558191000251,187.45607170002768,187.4394529000274,187.44204210001044,187.45607170002768,187.45607170002768,187.45607170002768,189.23980660003144,Objects\063b.jpg,post,s,1.7782133999862708,None,,,,,,,,00064,001,2026-01-19_22h17.30.709,MST_test,2024.2.0,59.99998800689594,2026-01-19 22h17.37.307393 +0530,
35,0,36,s,2.0465197999728844,None,36,0,35,189.2558568000095,,,,,,,,,,,,,,,,,,,,,,,,,,,,,,,,,,,,,,,,,,,,,,,,,,189.2398983000312,189.2558568000095,189.75630300003104,189.73937580001075,189.7465046000434,189.75630300003104,189.75630300003104,189.75630300003104,191.80664309998974,Scenes\037b.jpg,pre,s,2.0465197999728844,None,,,,,,,,00064,001,2026-01-19_22h17.30.709,MST_test,2024.2.0,59.99998800689594,2026-01-19 22h17.37.307393 +0530,
36,0,37,o,1.3040211999905296,None,37,0,36,191.82231560000218,,,,,,,,,,,,,,,,,,,,,,,,,,,,,,,,,,,,,,,,,,,,,,,,,,191.80674400000134,191.82231560000218,192.3226955999853,192.30601550004212,192.30939519999083,192.3226955999853,192.3226955999853,192.3226955999853,193.63967100001173,Objects\090a.jpg,mid,o,1.3040211999905296,None,,,,,,,,00064,001,2026-01-19_22h17.30.709,MST_test,2024.2.0,59.99998800689594,2026-01-19 22h17.37.307393 +0530,
37,0,38,o,1.256973100011237,None,38,0,37,193.65567619999638,,,,,,,,,,,,,,,,,,,,,,,,,,,,,,,,,,,,,,,,,,,,,,,,,,193.63976099999854,193.65567619999638,194.16159060003702,194.13931370002683,194.15941429999657,194.16159060003702,194.16159060003702,194.16159060003702,195.42306290002307,Scenes\001b.jpg,pre,o,1.256973100011237,None,,,,,,,,00064,001,2026-01-19_22h17.30.709,MST_test,2024.2.0,59.99998800689594,2026-01-19 22h17.37.307393 +0530,
38,0,39,n,2.8069179999874905,None,39,0,38,195.43908460001694,,,,,,,,,,,,,,,,,,,,,,,,,,,,,,,,,,,,,,,,,,,,,,,,,,195.4231539000175,195.43908460001694,195.93964530003723,195.92264699999942,195.936750199995,195.93964530003723,195.93964530003723,195.93964530003723,198.75626570003806,Scenes\049b.jpg,pre,n,2.8069179999874905,None,,,,,,,,00064,001,2026-01-19_22h17.30.709,MST_test,2024.2.0,59.99998800689594,2026-01-19 22h17.37.307393 +0530,
39,0,40,s,1.6342682000249624,None,40,0,39,198.77235949999886,,,,,,,,,,,,,,,,,,,,,,,,,,,,,,,,,,,,,,,,,,,,,,,,,,198.7563599999994,198.77235949999886,199.27278970001498,199.2559882000205,199.25938380003208,199.27278970001498,199.27278970001498,199.27278970001498,200.9229697000119,Objects\008a.jpg,pre,s,1.6342682000249624,None,,,,,,,,00064,001,2026-01-19_22h17.30.709,MST_test,2024.2.0,59.99998800689594,2026-01-19 22h17.37.307393 +0530,
40,0,41,o,1.4190054999780841,None,41,0,40,200.9391348999925,,,,,,,,,,,,,,,,,,,,,,,,,,,,,,,,,,,,,,,,,,,,,,,,,,200.92307230003644,200.9391348999925,201.43952330003958,201.42258050001692,201.4339694000082,201.43952330003958,201.43952330003958,201.43952330003958,202.87304149998818,Scenes\147b.jpg,pre,o,1.4190054999780841,None,,,,,,,,00064,001,2026-01-19_22h17.30.709,MST_test,2024.2.0,59.99998800689594,2026-01-19 22h17.37.307393 +0530,
41,0,42,o,1.7093307999894023,None,42,0,41,202.88910359999863,,,,,,,,,,,,,,,,,,,,,,,,,,,,,,,,,,,,,,,,,,,,,,,,,,202.873140300042,202.88910359999863,203.38957679999294,203.3725759999943,203.37558100000024,203.38957679999294,203.38957679999294,203.38957679999294,205.1063681000378,Objects\161a.jpg,mid,o,1.7093307999894023,None,,,,,,,,00064,001,2026-01-19_22h17.30.709,MST_test,2024.2.0,59.99998800689594,2026-01-19 22h17.37.307393 +0530,
42,0,43,s,3.515880200022366,None,43,0,42,205.12234930001432,,,,,,,,,,,,,,,,,,,,,,,,,,,,,,,,,,,,,,,,,,,,,,,,,,205.10645880002994,205.12234930001432,205.62291050003842,205.6060002000304,205.61520200001542,205.62291050003842,205.62291050003842,205.62291050003842,209.13972169999033,Scenes\011b.jpg,mid,s,3.515880200022366,None,,,,,,,,00064,001,2026-01-19_22h17.30.709,MST_test,2024.2.0,59.99998800689594,2026-01-19 22h17.37.307393 +0530,
43,0,44,n,1.8111848999978974,None,44,0,43,209.1557020000182,,,,,,,,,,,,,,,,,,,,,,,,,,,,,,,,,,,,,,,,,,,,,,,,,,209.13981800002512,209.1557020000182,209.65620580001269,209.639406900038,209.6423882000381,209.65620580001269,209.65620580001269,209.65620580001269,211.47283550002612,Foils\082a.jpg,none,n,1.8111848999978974,None,,,,,,,,00064,001,2026-01-19_22h17.30.709,MST_test,2024.2.0,59.99998800689594,2026-01-19 22h17.37.307393 +0530,
44,0,45,n,1.149416200001724,None,45,0,44,211.48908349999692,,,,,,,,,,,,,,,,,,,,,,,,,,,,,,,,,,,,,,,,,,,,,,,,,,211.4729253000114,211.48908349999692,211.98927950003417,211.97254829999292,211.9821533000213,211.98927950003417,211.98927950003417,211.98927950003417,213.13960420002695,Foils\009a.jpg,none,n,1.149416200001724,None,,,,,,,,00064,001,2026-01-19_22h17.30.709,MST_test,2024.2.0,59.99998800689594,2026-01-19 22h17.37.307393 +0530,
45,0,46,s,1.3542010000091977,None,46,0,45,213.15577690000646,,,,,,,,,,,,,,,,,,,,,,,,,,,,,,,,,,,,,,,,,,,,,,,,,,213.13970460003475,213.15577690000646,213.6563830000232,213.63932449999265,213.64733390003676,213.6563830000232,213.6563830000232,213.6563830000232,215.02296590001788,Scenes\083b.jpg,post,s,1.3542010000091977,None,,,,,,,,00064,001,2026-01-19_22h17.30.709,MST_test,2024.2.0,59.99998800689594,2026-01-19 22h17.37.307393 +0530,
46,0,47,o,2.1345038000144996,None,47,0,46,215.03909080004087,,,,,,,,,,,,,,,,,,,,,,,,,,,,,,,,,,,,,,,,,,,,,,,,,,215.02305840002373,215.03909080004087,215.5397070000181,215.5227547000395,215.52915310004028,215.5397070000181,215.5397070000181,215.5397070000181,217.68970220000483,Scenes\144a.jpg,post,o,2.1345038000144996,None,,,,,,,,00064,001,2026-01-19_22h17.30.709,MST_test,2024.2.0,59.99998800689594,2026-01-19 22h17.37.307393 +0530,
47,0,48,n,1.9005771999945864,None,48,0,47,217.70594469999196,,,,,,,,,,,,,,,,,,,,,,,,,,,,,,,,,,,,,,,,,,,,,,,,,,217.6897992999875,217.70594469999196,218.206311499991,218.18937070004176,218.19997000001604,218.206311499991,218.206311499991,218.206311499991,220.1228887999896,Foils\121a.jpg,none,n,1.9005771999945864,None,,,,,,,,00064,001,2026-01-19_22h17.30.709,MST_test,2024.2.0,59.99998800689594,2026-01-19 22h17.37.307393 +0530,
48,0,49,n,1.4436291999882087,None,49,0,48,220.13902850000886,,,,,,,,,,,,,,,,,,,,,,,,,,,,,,,,,,,,,,,,,,,,,,,,,,220.12298280000687,220.13902850000886,220.63954810000723,220.62255560001358,220.63085539999884,220.63954810000723,220.63954810000723,220.63954810000723,222.08997150004143,Foils\scenes27.jpg,none,n,1.4436291999882087,None,,,,,,,,00064,001,2026-01-19_22h17.30.709,MST_test,2024.2.0,59.99998800689594,2026-01-19 22h17.37.307393 +0530,
49,0,50,o,2.1250012000091374,None,50,0,49,222.10575119999703,,,,,,,,,,,,,,,,,,,,,,,,,,,,,,,,,,,,,,,,,,,,,,,,,,222.09007520001614,222.10575119999703,222.6062294000294,222.5893108000164,222.5924195999978,222.6062294000294,222.6062294000294,222.6062294000294,224.739759100019,Objects\002b.jpg,mid,o,2.1250012000091374,None,,,,,,,,00064,001,2026-01-19_22h17.30.709,MST_test,2024.2.0,59.99998800689594,2026-01-19 22h17.37.307393 +0530,
50,0,51,o,1.1622866000398062,None,51,0,50,224.75570939999307,,,,,,,,,,,,,,,,,,,,,,,,,,,,,,,,,,,,,,,,,,,,,,,,,,224.73985990002984,224.75570939999307,225.25600130000385,225.23948310001288,225.24800590000814,225.25600130000385,225.25600130000385,225.25600130000385,226.42280990001746,Objects\147b.jpg,post,o,1.1622866000398062,None,,,,,,,,00064,001,2026-01-19_22h17.30.709,MST_test,2024.2.0,59.99998800689594,2026-01-19 22h17.37.307393 +0530,
51,0,52,s,1.4078128999681212,None,52,0,51,226.43907820002642,,,,,,,,,,,,,,,,,,,,,,,,,,,,,,,,,,,,,,,,,,,,,,,,,,226.42290440003853,226.43907820002642,226.93933060002746,226.92255900002783,226.93195840000408,226.93933060002746,226.93933060002746,226.93933060002746,228.3563315999927,Objects\084b.jpg,post,s,1.4078128999681212,None,,,,,,,,00064,001,2026-01-19_22h17.30.709,MST_test,2024.2.0,59.99998800689594,2026-01-19 22h17.37.307393 +0530,
52,0,53,n,1.7543933999841101,None,53,0,52,228.37228499999037,,,,,,,,,,,,,,,,,,,,,,,,,,,,,,,,,,,,,,,,,,,,,,,,,,228.3564223999856,228.37228499999037,228.87247549998574,228.85596020001685,228.85868220002158,228.87247549998574,228.87247549998574,228.87247549998574,230.63958980003372,Foils\086a.jpg,none,n,1.7543933999841101,None,,,,,,,,00064,001,2026-01-19_22h17.30.709,MST_test,2024.2.0,59.99998800689594,2026-01-19 22h17.37.307393 +0530,
53,0,54,s,1.6685705999843776,None,54,0,53,230.6557993000024,,,,,,,,,,,,,,,,,,,,,,,,,,,,,,,,,,,,,,,,,,,,,,,,,,230.63968469999963,230.6557993000024,231.1582479000208,231.13927879999392,231.15626720001455,231.1582479000208,231.1582479000208,231.1582479000208,232.83963530004257,Scenes\072b.jpg,pre,s,1.6685705999843776,None,,,,,,,,00064,001,2026-01-19_22h17.30.709,MST_test,2024.2.0,59.99998800689594,2026-01-19 22h17.37.307393 +0530,
54,0,55,n,2.0870019999565557,None,55,0,54,232.8557619000203,,,,,,,,,,,,,,,,,,,,,,,,,,,,,,,,,,,,,,,,,,,,,,,,,,232.83973589999368,232.8557619000203,233.35601069999393,233.33927570004016,233.3486494999961,233.35601069999393,233.35601069999393,233.35601069999393,235.45634189998964,Scenes\090a.jpg,mid,n,2.0870019999565557,None,,,,,,,,00064,001,2026-01-19_22h17.30.709,MST_test,2024.2.0,59.99998800689594,2026-01-19 22h17.37.307393 +0530,
55,0,56,s,2.029895400046371,None,56,0,55,235.47235350002302,,,,,,,,,,,,,,,,,,,,,,,,,,,,,,,,,,,,,,,,,,,,,,,,,,235.45643840002595,235.47235350002302,235.97286330000497,235.9560093000182,235.96581359999254,235.97286330000497,235.97286330000497,235.97286330000497,238.0062627000152,Scenes\022b.jpg,post,s,2.029895400046371,None,,,,,,,,00064,001,2026-01-19_22h17.30.709,MST_test,2024.2.0,59.99998800689594,2026-01-19 22h17.37.307393 +0530,
56,0,57,s,1.2170763000031002,None,57,0,56,238.0224268999882,,,,,,,,,,,,,,,,,,,,,,,,,,,,,,,,,,,,,,,,,,,,,,,,,,238.0063546000165,238.0224268999882,238.52278659999138,238.5059352000244,238.51362420001533,238.52278659999138,238.52278659999138,238.52278659999138,239.7563722000341,Scenes\107b.jpg,post,s,1.2170763000031002,None,,,,,,,,00064,001,2026-01-19_22h17.30.709,MST_test,2024.2.0,59.99998800689594,2026-01-19 22h17.37.307393 +0530,
57,0,58,s,1.5358917000121437,None,58,0,57,239.77229510003235,,,,,,,,,,,,,,,,,,,,,,,,,,,,,,,,,,,,,,,,,,,,,,,,,,239.7564757000073,239.77229510003235,240.27440009999555,240.256036100036,240.2722647000337,240.27440009999555,240.27440009999555,240.27440009999555,241.82286499999464,Scenes\019b.jpg,pre,s,1.5358917000121437,None,,,,,,,,00064,001,2026-01-19_22h17.30.709,MST_test,2024.2.0,59.99998800689594,2026-01-19 22h17.37.307393 +0530,
58,0,59,n,1.8549551999894902,None,59,0,58,241.839086699998,,,,,,,,,,,,,,,,,,,,,,,,,,,,,,,,,,,,,,,,,,,,,,,,,,241.82295609998982,241.839086699998,242.3395716000232,242.32252879999578,242.33508779999102,242.3395716000232,242.3395716000232,242.3395716000232,244.20626659999834,Scenes\163b.jpg,pre,n,1.8549551999894902,None,,,,,,,,00064,001,2026-01-19_22h17.30.709,MST_test,2024.2.0,59.99998800689594,2026-01-19 22h17.37.307393 +0530,
59,0,60,n,2.5201435000053607,None,60,0,59,244.2223354000016,,,,,,,,,,,,,,,,,,,,,,,,,,,,,,,,,,,,,,,,,,,,,,,,,,244.20636599999852,244.2223354000016,244.72273730003508,244.70606019999832,244.71584419999272,244.72273730003508,244.72273730003508,244.72273730003508,247.25661450001644,Objects\044b.jpg,pre,n,2.5201435000053607,None,,,,,,,,00064,001,2026-01-19_22h17.30.709,MST_test,2024.2.0,59.99998800689594,2026-01-19 22h17.37.307393 +0530,
60,0,61,n,1.3031250999774784,None,61,0,60,247.27240850002272,,,,,,,,,,,,,,,,,,,,,,,,,,,,,,,,,,,,,,,,,,,,,,,,,,247.25671980000334,247.27240850002272,247.77274270000635,247.7561792000197,247.7672617000062,247.77274270000635,247.77274270000635,247.77274270000635,249.0896892999881,Objects\065b.jpg,pre,n,1.3031250999774784,None,,,,,,,,00064,001,2026-01-19_22h17.30.709,MST_test,2024.2.0,59.99998800689594,2026-01-19 22h17.37.307393 +0530,
61,0,62,s,2.0281154000549577,None,62,0,61,249.10579000000143,,,,,,,,,,,,,,,,,,,,,,,,,,,,,,,,,,,,,,,,,,,,,,,,,,249.089788399986,249.10579000000143,249.6062299000332,249.58934529998805,249.59860999998637,249.6062299000332,249.6062299000332,249.6062299000332,251.63979590003146,Scenes\041a.jpg,pre,s,2.0281154000549577,None,,,,,,,,00064,001,2026-01-19_22h17.30.709,MST_test,2024.2.0,59.99998800689594,2026-01-19 22h17.37.307393 +0530,
62,0,63,o,1.7983781000366434,None,63,0,62,251.65573910000967,,,,,,,,,,,,,,,,,,,,,,,,,,,,,,,,,,,,,,,,,,,,,,,,,,251.63989059999585,251.65573910000967,252.1563827000209,252.13936349999858,252.14984660001937,252.1563827000209,252.1563827000209,252.1563827000209,253.95674440002767,Scenes\086a.jpg,pre,o,1.7983781000366434,None,,,,,,,,00064,001,2026-01-19_22h17.30.709,MST_test,2024.2.0,59.99998800689594,2026-01-19 22h17.37.307393 +0530,
63,0,64,n,1.5617170999757946,None,64,0,63,253.9723887,,,,,,,,,,,,,,,,,,,,,,,,,,,,,,,,,,,,,,,,,,,,,,,,,,253.9568467999925,253.9723887,254.47286550002173,254.45608400000492,254.45924410002772,254.47286550002173,254.47286550002173,254.47286550002173,256.03978679998545,Objects\017b.jpg,pre,n,1.5617170999757946,None,,,,,,,,00064,001,2026-01-19_22h17.30.709,MST_test,2024.2.0,59.99998800689594,2026-01-19 22h17.37.307393 +0530,
64,0,65,s,2.191158399975393,None,65,0,64,256.055800000031,,,,,,,,,,,,,,,,,,,,,,,,,,,,,,,,,,,,,,,,,,,,,,,,,,256.0398837000248,256.055800000031,256.55617430002894,256.5394504000433,256.54183540004306,256.55617430002894,256.55617430002894,256.55617430002894,258.75636950001353,Foils\scenes7.jpg,none,s,2.191158399975393,None,,,,,,,,00064,001,2026-01-19_22h17.30.709,MST_test,2024.2.0,59.99998800689594,2026-01-19 22h17.37.307393 +0530,
65,0,66,o,1.5863503000000492,None,66,0,65,258.77226540003903,,,,,,,,,,,,,,,,,,,,,,,,,,,,,,,,,,,,,,,,,,,,,,,,,,258.75645899999654,258.77226540003903,259.2725037999917,259.25600410002517,259.25888710003346,259.2725037999917,259.2725037999917,259.2725037999917,260.8729382000165,Objects\056a.jpg,post,o,1.5863503000000492,None,,,,,,,,00064,001,2026-01-19_22h17.30.709,MST_test,2024.2.0,59.99998800689594,2026-01-19 22h17.37.307393 +0530,
66,0,67,n,1.0691275999997742,None,67,0,66,260.88903140003094,,,,,,,,,,,,,,,,,,,,,,,,,,,,,,,,,,,,,,,,,,,,,,,,,,260.87302790000103,260.88903140003094,261.38932190003106,261.37258240004303,261.38140589999966,261.38932190003106,261.38932190003106,261.38932190003106,262.47289860004093,Foils\066a.jpg,none,n,1.0691275999997742,None,,,,,,,,00064,001,2026-01-19_22h17.30.709,MST_test,2024.2.0,59.99998800689594,2026-01-19 22h17.37.307393 +0530,
67,0,68,o,1.0373896000091918,None,68,0,67,262.4890857000137,,,,,,,,,,,,,,,,,,,,,,,,,,,,,,,,,,,,,,,,,,,,,,,,,,262.47299320000457,262.4890857000137,262.9894728999934,262.972947000002,262.97580640000524,262.9894728999934,262.9894728999934,262.9894728999934,264.0396095000324,Objects\134a.jpg,pre,o,1.0373896000091918,None,,,,,,,,00064,001,2026-01-19_22h17.30.709,MST_test,2024.2.0,59.99998800689594,2026-01-19 22h17.37.307393 +0530,
68,0,69,s,1.427382200025022,None,69,0,68,264.05576830002246,,,,,,,,,,,,,,,,,,,,,,,,,,,,,,,,,,,,,,,,,,,,,,,,,,264.0396985000116,264.05576830002246,264.5596121000126,264.5392925000051,264.5575065999874,264.5596121000126,264.5596121000126,264.5596121000126,265.98964179999894,Scenes\165b.jpg,mid,s,1.427382200025022,None,,,,,,,,00064,001,2026-01-19_22h17.30.709,MST_test,2024.2.0,59.99998800689594,2026-01-19 22h17.37.307393 +0530,
69,0,70,s,1.2334457999677397,None,70,0,69,266.0057680000318,,,,,,,,,,,,,,,,,,,,,,,,,,,,,,,,,,,,,,,,,,,,,,,,,,265.9897302000318,266.0057680000318,266.506254900014,266.4893620000221,266.4960787000018,266.506254900014,266.506254900014,266.506254900014,267.75628480000887,Scenes\028a.jpg,post,s,1.2334457999677397,None,,,,,,,,00064,001,2026-01-19_22h17.30.709,MST_test,2024.2.0,59.99998800689594,2026-01-19 22h17.37.307393 +0530,
70,0,71,n,1.4662417999934405,None,71,0,70,267.7723444000003,,,,,,,,,,,,,,,,,,,,,,,,,,,,,,,,,,,,,,,,,,,,,,,,,,267.75637409999035,267.7723444000003,268.27273160003824,268.2560330000124,268.2655466000433,268.27273160003824,268.27273160003824,268.27273160003824,269.7398116000113,Foils\050a.jpg,none,n,1.4662417999934405,None,,,,,,,,00064,001,2026-01-19_22h17.30.709,MST_test,2024.2.0,59.99998800689594,2026-01-19 22h17.37.307393 +0530,
71,0,72,s,3.3477159999893047,None,72,0,71,269.7557655000128,,,,,,,,,,,,,,,,,,,,,,,,,,,,,,,,,,,,,,,,,,,,,,,,,,269.7399165999959,269.7557655000128,270.25596069998574,270.23937570001,270.24210279999534,270.25596069998574,270.25596069998574,270.25596069998574,273.6062436000211,Objects\123a.jpg,post,s,3.3477159999893047,None,,,,,,,,00064,001,2026-01-19_22h17.30.709,MST_test,2024.2.0,59.99998800689594,2026-01-19 22h17.37.307393 +0530,
72,0,73,n,1.7443563000415452,None,73,0,72,273.6223639000091,,,,,,,,,,,,,,,,,,,,,,,,,,,,,,,,,,,,,,,,,,,,,,,,,,273.60633460001554,273.6223639000091,274.1227555000223,274.1060257999925,274.1124957000138,274.1227555000223,274.1227555000223,274.1227555000223,275.8728975999984,Scenes\169a.jpg,mid,n,1.7443563000415452,None,,,,,,,,00064,001,2026-01-19_22h17.30.709,MST_test,2024.2.0,59.99998800689594,2026-01-19 22h17.37.307393 +0530,
73,0,74,n,1.3416624999954365,None,74,0,73,275.8891423000023,,,,,,,,,,,,,,,,,,,,,,,,,,,,,,,,,,,,,,,,,,,,,,,,,,275.8729885999928,275.8891423000023,276.38951130001806,276.37256859999616,276.37587410002016,276.38951130001806,276.38951130001806,276.38951130001806,277.7404150000075,Objects\082a.jpg,post,n,1.3416624999954365,None,,,,,,,,00064,001,2026-01-19_22h17.30.709,MST_test,2024.2.0,59.99998800689594,2026-01-19 22h17.37.307393 +0530,
74,0,75,n,3.650570300000254,None,75,0,74,277.7557719000033,,,,,,,,,,,,,,,,,,,,,,,,,,,,,,,,,,,,,,,,,,,,,,,,,,277.7405102000339,277.7557719000033,278.2561253000167,278.23965569998836,278.24234490003437,278.2561253000167,278.2561253000167,278.2561253000167,281.9230333000305,Objects\075b.jpg,pre,n,3.650570300000254,None,,,,,,,,00064,001,2026-01-19_22h17.30.709,MST_test,2024.2.0,59.99998800689594,2026-01-19 22h17.37.307393 +0530,
75,0,76,o,2.4039255999960005,None,76,0,75,281.9392630000366,,,,,,,,,,,,,,,,,,,,,,,,,,,,,,,,,,,,,,,,,,,,,,,,,,281.9231271999888,281.9392630000366,282.439366400009,282.42257580003934,282.4254618000123,282.439366400009,282.439366400009,282.439366400009,284.85675530001754,Objects\105a.jpg,pre,o,2.4039255999960005,None,,,,,,,,00064,001,2026-01-19_22h17.30.709,MST_test,2024.2.0,59.99998800689594,2026-01-19 22h17.37.307393 +0530,
76,0,77,s,1.974492100009229,None,77,0,76,284.8725934000104,,,,,,,,,,,,,,,,,,,,,,,,,,,,,,,,,,,,,,,,,,,,,,,,,,284.8568552000215,284.8725934000104,285.3730474000331,285.3561500000069,285.37095910002245,285.3730474000331,285.3730474000331,285.3730474000331,287.3570615000208,Scenes\127b.jpg,mid,s,1.974492100009229,None,,,,,,,,00064,001,2026-01-19_22h17.30.709,MST_test,2024.2.0,59.99998800689594,2026-01-19 22h17.37.307393 +0530,
77,0,78,s,2.568631000001915,None,78,0,77,287.3726991000003,,,,,,,,,,,,,,,,,,,,,,,,,,,,,,,,,,,,,,,,,,,,,,,,,,287.35715600004187,287.3726991000003,287.87387750000926,287.85644820000743,287.8716346999863,287.87387750000926,287.87387750000926,287.87387750000926,290.45655559998704,Scenes\191b.jpg,mid,s,2.568631000001915,None,,,,,,,,00064,001,2026-01-19_22h17.30.709,MST_test,2024.2.0,59.99998800689594,2026-01-19 22h17.37.307393 +0530,
78,0,79,s,1.5976867999997921,None,79,0,78,290.4725402999902,,,,,,,,,,,,,,,,,,,,,,,,,,,,,,,,,,,,,,,,,,,,,,,,,,290.4566501000081,290.4725402999902,290.9730244000093,290.95608289999655,290.9622713000281,290.9730244000093,290.9730244000093,290.9730244000093,292.573147099989,Scenes\080a.jpg,pre,s,1.5976867999997921,None,,,,,,,,00064,001,2026-01-19_22h17.30.709,MST_test,2024.2.0,59.99998800689594,2026-01-19 22h17.37.307393 +0530,
79,0,80,n,1.2008652000222355,None,80,0,79,292.58918910002103,,,,,,,,,,,,,,,,,,,,,,,,,,,,,,,,,,,,,,,,,,,,,,,,,,292.57324270001845,292.58918910002103,293.08967650000704,293.0727831000113,293.07599530002335,293.08967650000704,293.08967650000704,293.08967650000704,294.3063961000298,Foils\020b.jpg,none,n,1.2008652000222355,None,,,,,,,,00064,001,2026-01-19_22h17.30.709,MST_test,2024.2.0,59.99998800689594,2026-01-19 22h17.37.307393 +0530,
80,0,81,s,1.747912399994675,None,81,0,80,294.32249699998647,,,,,,,,,,,,,,,,,,,,,,,,,,,,,,,,,,,,,,,,,,,,,,,,,,294.3064945000224,294.32249699998647,294.8230762000312,294.806039099989,294.81657020002604,294.8230762000312,294.8230762000312,294.8230762000312,296.57390379998833,Scenes\145a.jpg,post,s,1.747912399994675,None,,,,,,,,00064,001,2026-01-19_22h17.30.709,MST_test,2024.2.0,59.99998800689594,2026-01-19 22h17.37.307393 +0530,
81,0,82,o,2.6808497000019997,None,82,0,81,296.58914009999717,,,,,,,,,,,,,,,,,,,,,,,,,,,,,,,,,,,,,,,,,,,,,,,,,,296.5739949000417,296.58914009999717,297.08956110000145,297.07277110003633,297.08120090002194,297.08956110000145,297.08956110000145,297.08956110000145,299.77318489999743,Scenes\106a.jpg,post,o,2.6808497000019997,None,,,,,,,,00064,001,2026-01-19_22h17.30.709,MST_test,2024.2.0,59.99998800689594,2026-01-19 22h17.37.307393 +0530,
82,0,83,o,2.4969568999949843,None,83,0,82,299.78920420003124,,,,,,,,,,,,,,,,,,,,,,,,,,,,,,,,,,,,,,,,,,,,,,,,,,299.7732748000417,299.78920420003124,300.2897052000044,300.2728780999896,300.28368270001374,300.2897052000044,300.2897052000044,300.2897052000044,302.7898134000134,Objects\088b.jpg,post,o,2.4969568999949843,None,,,,,,,,00064,001,2026-01-19_22h17.30.709,MST_test,2024.2.0,59.99998800689594,2026-01-19 22h17.37.307393 +0530,
83,0,84,s,1.4883983000181615,None,84,0,83,302.80583870003466,,,,,,,,,,,,,,,,,,,,,,,,,,,,,,,,,,,,,,,,,,,,,,,,,,302.7899092999869,302.80583870003466,303.3065293999971,303.28940030001104,303.2961001000367,303.3065293999971,303.3065293999971,303.3065293999971,304.8066557000275,Scenes\039a.jpg,post,s,1.4883983000181615,None,,,,,,,,00064,001,2026-01-19_22h17.30.709,MST_test,2024.2.0,59.99998800689594,2026-01-19 22h17.37.307393 +0530,
84,0,85,s,1.2635748999891803,None,85,0,84,304.82265799999004,,,,,,,,,,,,,,,,,,,,,,,,,,,,,,,,,,,,,,,,,,,,,,,,,,304.8067532000132,304.82265799999004,305.3230617000372,305.30617350002285,305.3151563000283,305.3230617000372,305.3230617000372,305.3230617000372,306.5899234000244,Scenes\181a.jpg,post,s,1.2635748999891803,None,,,,,,,,00064,001,2026-01-19_22h17.30.709,MST_test,2024.2.0,59.99998800689594,2026-01-19 22h17.37.307393 +0530,
85,0,86,o,1.1604668999789283,None,86,0,85,306.6058350999956,,,,,,,,,,,,,,,,,,,,,,,,,,,,,,,,,,,,,,,,,,,,,,,,,,306.5900481000426,306.6058350999956,307.1063232999877,307.08947050001007,307.0922408000333,307.1063232999877,307.1063232999877,307.1063232999877,308.27330770000117,Objects\177a.jpg,mid,o,1.1604668999789283,None,,,,,,,,00064,001,2026-01-19_22h17.30.709,MST_test,2024.2.0,59.99998800689594,2026-01-19 22h17.37.307393 +0530,
86,0,87,n,1.4538869999814779,None,87,0,86,308.2892348000314,,,,,,,,,,,,,,,,,,,,,,,,,,,,,,,,,,,,,,,,,,,,,,,,,,308.2734013000154,308.2892348000314,308.789448000025,308.7727494999999,308.77545850002207,308.789448000025,308.789448000025,308.789448000025,310.2564954000409,Foils\026a.jpg,none,n,1.4538869999814779,None,,,,,,,,00064,001,2026-01-19_22h17.30.709,MST_test,2024.2.0,59.99998800689594,2026-01-19 22h17.37.307393 +0530,
87,0,88,n,1.4540483999880962,None,88,0,87,310.2723069000058,,,,,,,,,,,,,,,,,,,,,,,,,,,,,,,,,,,,,,,,,,,,,,,,,,310.25658859999385,310.2723069000058,310.7728173999931,310.756192300003,310.75903509999625,310.7728173999931,310.7728173999931,310.7728173999931,312.2397324999911,Objects\183b.jpg,post,n,1.4540483999880962,None,,,,,,,,00064,001,2026-01-19_22h17.30.709,MST_test,2024.2.0,59.99998800689594,2026-01-19 22h17.37.307393 +0530,
88,0,89,n,1.7578252999810502,None,89,0,88,312.2558389999904,,,,,,,,,,,,,,,,,,,,,,,,,,,,,,,,,,,,,,,,,,,,,,,,,,312.239825800003,312.2558389999904,312.75647890003165,312.7395829000161,312.7543935000431,312.75647890003165,312.75647890003165,312.75647890003165,314.52302289998624,Scenes\140b.jpg,post,n,1.7578252999810502,None,,,,,,,,00064,001,2026-01-19_22h17.30.709,MST_test,2024.2.0,59.99998800689594,2026-01-19 22h17.37.307393 +0530,
89,0,90,s,2.1388066000072286,None,90,0,89,314.539193900011,,,,,,,,,,,,,,,,,,,,,,,,,,,,,,,,,,,,,,,,,,,,,,,,,,314.5231125000282,314.539193900011,315.03970220003976,315.0226892000064,315.028717600042,315.03970220003976,315.03970220003976,315.03970220003976,317.18982269999105,Scenes\087a.jpg,pre,s,2.1388066000072286,None,,,,,,,,00064,001,2026-01-19_22h17.30.709,MST_test,2024.2.0,59.99998800689594,2026-01-19 22h17.37.307393 +0530,
90,0,91,o,1.5363802000065334,None,91,0,90,317.20580350002274,,,,,,,,,,,,,,,,,,,,,,,,,,,,,,,,,,,,,,,,,,,,,,,,,,317.1899186000228,317.20580350002274,317.7062797000399,317.68941059999634,317.6926339000347,317.7062797000399,317.7062797000399,317.7062797000399,319.2564279999933,Objects\135a.jpg,mid,o,1.5363802000065334,None,,,,,,,,00064,001,2026-01-19_22h17.30.709,MST_test,2024.2.0,59.99998800689594,2026-01-19 22h17.37.307393 +0530,
91,0,92,s,1.293529500020668,None,92,0,91,319.2725289000082,,,,,,,,,,,,,,,,,,,,,,,,,,,,,,,,,,,,,,,,,,,,,,,,,,319.2565155000193,319.2725289000082,319.77300740004284,319.75616380001884,319.7657665000297,319.77300740004284,319.77300740004284,319.77300740004284,321.07312890002504,Scenes\167a.jpg,pre,s,1.293529500020668,None,,,,,,,,00064,001,2026-01-19_22h17.30.709,MST_test,2024.2.0,59.99998800689594,2026-01-19 22h17.37.307393 +0530,
92,0,93,o,4.892765099997632,None,93,0,92,321.0892171000014,,,,,,,,,,,,,,,,,,,,,,,,,,,,,,,,,,,,,,,,,,,,,,,,,,321.07321729999967,321.0892171000014,321.5896644000313,321.5727656999952,321.5777532000211,321.5896644000313,321.5896644000313,321.5896644000313,326.48980879999,Scenes\166a.jpg,mid,o,4.892765099997632,None,,,,,,,,00064,001,2026-01-19_22h17.30.709,MST_test,2024.2.0,59.99998800689594,2026-01-19 22h17.37.307393 +0530,
93,0,94,s,1.5479509999859147,None,94,0,93,326.5059007999953,,,,,,,,,,,,,,,,,,,,,,,,,,,,,,,,,,,,,,,,,,,,,,,,,,326.489898800035,326.5059007999953,327.00634950003587,326.98951210000087,326.99246030003997,327.00634950003587,327.00634950003587,327.00634950003587,328.55649739998626,Objects\098b.jpg,post,s,1.5479509999859147,None,,,,,,,,00064,001,2026-01-19_22h17.30.709,MST_test,2024.2.0,59.99998800689594,2026-01-19 22h17.37.307393 +0530,
94,0,95,o,1.1056745999958366,None,95,0,94,328.57243649999145,,,,,,,,,,,,,,,,,,,,,,,,,,,,,,,,,,,,,,,,,,,,,,,,,,328.55658620002214,328.57243649999145,329.07268700003624,329.0561587000266,329.05897090001963,329.07268700003624,329.07268700003624,329.07268700003624,330.1897250000038,Objects\029a.jpg,pre,o,1.1056745999958366,None,,,,,,,,00064,001,2026-01-19_22h17.30.709,MST_test,2024.2.0,59.99998800689594,2026-01-19 22h17.37.307393 +0530,
95,0,96,o,2.576888900017366,None,96,0,95,330.2059303999995,,,,,,,,,,,,,,,,,,,,,,,,,,,,,,,,,,,,,,,,,,,,,,,,,,330.18981439998606,330.2059303999995,330.7060272000381,330.68948510003975,330.69188890000805,330.7060272000381,330.7060272000381,330.7060272000381,333.28989880002337,Objects\106a.jpg,post,o,2.576888900017366,None,,,,,,,,00064,001,2026-01-19_22h17.30.709,MST_test,2024.2.0,59.99998800689594,2026-01-19 22h17.37.307393 +0530,
96,0,97,o,0.8368478000047617,None,97,0,96,333.3058877000003,,,,,,,,,,,,,,,,,,,,,,,,,,,,,,,,,,,,,,,,,,,,,,,,,,333.28998830000637,333.3058877000003,333.8060952000087,333.78962820000015,333.79229509999277,333.8060952000087,333.8060952000087,333.8060952000087,334.656400100037,Objects\190a.jpg,pre,o,0.8368478000047617,None,,,,,,,,00064,001,2026-01-19_22h17.30.709,MST_test,2024.2.0,59.99998800689594,2026-01-19 22h17.37.307393 +0530,
97,0,98,n,1.5262231000233442,None,98,0,97,334.67243919998873,,,,,,,,,,,,,,,,,,,,,,,,,,,,,,,,,,,,,,,,,,,,,,,,,,334.6564903000253,334.67243919998873,335.17279360000975,335.15618799999356,335.1585807999945,335.17279360000975,335.17279360000975,335.17279360000975,336.70643040002324,Foils\scenes14.jpg,none,n,1.5262231000233442,None,,,,,,,,00064,001,2026-01-19_22h17.30.709,MST_test,2024.2.0,59.99998800689594,2026-01-19 22h17.37.307393 +0530,
98,0,99,n,1.3159604000393301,None,99,0,98,336.72254879999673,,,,,,,,,,,,,,,,,,,,,,,,,,,,,,,,,,,,,,,,,,,,,,,,,,336.7065213000169,336.72254879999673,337.222869499994,337.20614910003496,337.20891049999045,337.222869499994,337.222869499994,337.222869499994,338.5397222000174,Scenes\053a.jpg,post,n,1.3159604000393301,None,,,,,,,,00064,001,2026-01-19_22h17.30.709,MST_test,2024.2.0,59.99998800689594,2026-01-19 22h17.37.307393 +0530,
99,0,100,o,1.34660889999941,None,100,0,99,338.55586590000894,,,,,,,,,,,,,,,,,,,,,,,,,,,,,,,,,,,,,,,,,,,,,,,,,,338.5398221000214,338.55586590000894,339.0562679999857,339.0398864999879,339.04319810000015,339.0562679999857,339.0562679999857,339.0562679999857,340.4065386999864,Objects\077a.jpg,post,o,1.34660889999941,None,,,,,,,,00064,001,2026-01-19_22h17.30.709,MST_test,2024.2.0,59.99998800689594,2026-01-19 22h17.37.307393 +0530,
100,0,101,o,1.3284011000068858,None,101,0,100,340.4223122000112,,,,,,,,,,,,,,,,,,,,,,,,,,,,,,,,,,,,,,,,,,,,,,,,,,340.4066412000102,340.4223122000112,340.92247950000456,340.9060199999949,340.9085912000155,340.92247950000456,340.92247950000456,340.92247950000456,342.2563703000196,Objects\060a.jpg,mid,o,1.3284011000068858,None,,,,,,,,00064,001,2026-01-19_22h17.30.709,MST_test,2024.2.0,59.99998800689594,2026-01-19 22h17.37.307393 +0530,
101,0,102,s,1.2779313999926671,None,102,0,101,342.27237740001874,,,,,,,,,,,,,,,,,,,,,,,,,,,,,,,,,,,,,,,,,,,,,,,,,,342.25646100001177,342.27237740001874,342.77310310001485,342.755996300024,342.77097640000284,342.77310310001485,342.77310310001485,342.77310310001485,344.05646460002754,Scenes\143b.jpg,post,s,1.2779313999926671,None,,,,,,,,00064,001,2026-01-19_22h17.30.709,MST_test,2024.2.0,59.99998800689594,2026-01-19 22h17.37.307393 +0530,
102,0,103,s,1.751491500006523,None,103,0,102,344.07237370003713,,,,,,,,,,,,,,,,,,,,,,,,,,,,,,,,,,,,,,,,,,,,,,,,,,344.05656619998626,344.07237370003713,344.57280080002965,344.5560360000236,344.56638309999835,344.57280080002965,344.57280080002965,344.57280080002965,346.3396789000253,Objects\176b.jpg,pre,s,1.751491500006523,None,,,,,,,,00064,001,2026-01-19_22h17.30.709,MST_test,2024.2.0,59.99998800689594,2026-01-19 22h17.37.307393 +0530,
103,0,104,s,2.1222934999968857,None,104,0,103,346.3557842000155,,,,,,,,,,,,,,,,,,,,,,,,,,,,,,,,,,,,,,,,,,,,,,,,,,346.33977200003574,346.3557842000155,346.85608830000274,346.83929229999194,346.84160690003773,346.85608830000274,346.85608830000274,346.85608830000274,348.98970149998786,Objects\046b.jpg,post,s,2.1222934999968857,None,,,,,,,,00064,001,2026-01-19_22h17.30.709,MST_test,2024.2.0,59.99998800689594,2026-01-19 22h17.37.307393 +0530,
104,0,105,s,5.192747300025076,None,105,0,104,349.00579220004147,,,,,,,,,,,,,,,,,,,,,,,,,,,,,,,,,,,,,,,,,,,,,,,,,,348.9897971000173,349.00579220004147,349.5063508999883,349.4895131000085,349.49493370001437,349.5063508999883,349.5063508999883,349.5063508999883,354.7065012000385,Scenes\024a.jpg,pre,s,5.192747300025076,None,,,,,,,,00064,001,2026-01-19_22h17.30.709,MST_test,2024.2.0,59.99998800689594,2026-01-19 22h17.37.307393 +0530,
105,0,106,o,1.604010200011544,None,106,0,105,354.7222301000147,,,,,,,,,,,,,,,,,,,,,,,,,,,,,,,,,,,,,,,,,,,,,,,,,,354.70659260003595,354.7222301000147,355.2228935000021,355.20604359998833,355.21357660001377,355.2228935000021,355.2228935000021,355.2228935000021,356.8396189000341,Scenes\157a.jpg,pre,o,1.604010200011544,None,,,,,,,,00064,001,2026-01-19_22h17.30.709,MST_test,2024.2.0,59.99998800689594,2026-01-19 22h17.37.307393 +0530,
106,0,107,s,3.7269377000047825,None,107,0,106,356.8558287000051,,,,,,,,,,,,,,,,,,,,,,,,,,,,,,,,,,,,,,,,,,,,,,,,,,356.8397149000084,356.8558287000051,357.35615060001146,357.33930630004033,357.34308130003046,357.35615060001146,357.35615060001146,357.35615060001146,361.0898314000224,Objects\167b.jpg,mid,s,3.7269377000047825,None,,,,,,,,00064,001,2026-01-19_22h17.30.709,MST_test,2024.2.0,59.99998800689594,2026-01-19 22h17.37.307393 +0530,
107,0,108,o,1.1404361000168137,None,108,0,107,361.1057908000075,,,,,,,,,,,,,,,,,,,,,,,,,,,,,,,,,,,,,,,,,,,,,,,,,,361.0899344999925,361.1057908000075,361.60598660004325,361.58955070003867,361.59262130002026,361.60598660004325,361.60598660004325,361.60598660004325,362.75657259998843,Objects\150a.jpg,mid,o,1.1404361000168137,None,,,,,,,,00064,001,2026-01-19_22h17.30.709,MST_test,2024.2.0,59.99998800689594,2026-01-19 22h17.37.307393 +0530,
108,0,109,n,2.937789299990982,None,109,0,108,362.77241710003,,,,,,,,,,,,,,,,,,,,,,,,,,,,,,,,,,,,,,,,,,,,,,,,,,362.7566990000196,362.77241710003,363.2726381000248,363.2560806000256,363.26520550000714,363.2726381000248,363.2726381000248,363.2726381000248,366.2228894000291,Foils\scenes30.jpg,none,n,2.937789299990982,None,,,,,,,,00064,001,2026-01-19_22h17.30.709,MST_test,2024.2.0,59.99998800689594,2026-01-19 22h17.37.307393 +0530,
109,0,110,n,1.7115900000208057,None,110,0,109,366.2391575000365,,,,,,,,,,,,,,,,,,,,,,,,,,,,,,,,,,,,,,,,,,,,,,,,,,366.2229784000083,366.2391575000365,366.73947880003834,366.7225611000322,366.72574920003535,366.73947880003834,366.73947880003834,366.73947880003834,368.4563790000393,Objects\043a.jpg,post,n,1.7115900000208057,None,,,,,,,,00064,001,2026-01-19_22h17.30.709,MST_test,2024.2.0,59.99998800689594,2026-01-19 22h17.37.307393 +0530,
110,0,111,n,4.4079188000177965,None,111,0,110,368.47233200003393,,,,,,,,,,,,,,,,,,,,,,,,,,,,,,,,,,,,,,,,,,,,,,,,,,368.45646820002,368.47233200003393,368.97854040004313,368.95605060004164,368.97643410001183,368.97854040004313,368.97854040004313,368.97854040004313,373.38974050001707,Scenes\045b.jpg,mid,n,4.4079188000177965,None,,,,,,,,00064,001,2026-01-19_22h17.30.709,MST_test,2024.2.0,59.99998800689594,2026-01-19 22h17.37.307393 +0530,
111,0,112,n,2.1125203000265174,None,112,0,111,373.405727400037,,,,,,,,,,,,,,,,,,,,,,,,,,,,,,,,,,,,,,,,,,,,,,,,,,373.38983060000464,373.405727400037,373.90630189998774,373.88958369998727,373.8932247000048,373.90630189998774,373.90630189998774,373.90630189998774,376.02314090001164,Scenes\033a.jpg,pre,n,2.1125203000265174,None,,,,,,,,00064,001,2026-01-19_22h17.30.709,MST_test,2024.2.0,59.99998800689594,2026-01-19 22h17.37.307393 +0530,
112,0,113,n,1.0648862999514677,None,113,0,112,376.03910200000973,,,,,,,,,,,,,,,,,,,,,,,,,,,,,,,,,,,,,,,,,,,,,,,,,,376.0232391000027,376.03910200000973,376.7544203000143,376.52264010004,376.7501265000319,376.7544203000143,376.7544203000143,376.7544203000143,377.8232782999985,Foils\scenes26.jpg,none,n,1.0648862999514677,None,,,,,,,,00064,001,2026-01-19_22h17.30.709,MST_test,2024.2.0,59.99998800689594,2026-01-19 22h17.37.307393 +0530,
113,0,114,s,1.1382329000043683,None,114,0,113,377.8391030000057,,,,,,,,,,,,,,,,,,,,,,,,,,,,,,,,,,,,,,,,,,,,,,,,,,377.82337850000476,377.8391030000057,378.36809500004165,378.322863999987,378.36612449999666,378.36809500004165,378.36809500004165,378.36809500004165,379.5236530000111,Scenes\054a.jpg,post,s,1.1382329000043683,None,,,,,,,,00064,001,2026-01-19_22h17.30.709,MST_test,2024.2.0,59.99998800689594,2026-01-19 22h17.37.307393 +0530,
114,0,115,n,1.1871528000338003,None,115,0,114,379.53912189998664,,,,,,,,,,,,,,,,,,,,,,,,,,,,,,,,,,,,,,,,,,,,,,,,,,379.52376980002737,379.53912189998664,380.03972240001895,380.02273210004205,380.03277089999756,380.03972240001895,380.03972240001895,380.03972240001895,381.2397246999899,Scenes\120a.jpg,post,n,1.1871528000338003,None,,,,,,,,00064,001,2026-01-19_22h17.30.709,MST_test,2024.2.0,59.99998800689594,2026-01-19 22h17.37.307393 +0530,
115,0,116,n,1.3346857999567874,None,116,0,115,381.2556304000318,,,,,,,,,,,,,,,,,,,,,,,,,,,,,,,,,,,,,,,,,,,,,,,,,,381.2398230000399,381.2556304000318,381.7561178000178,381.7393513999996,381.7428952000337,381.7561178000178,381.7561178000178,381.7561178000178,383.1067559000221,Objects\191b.jpg,mid,n,1.3346857999567874,None,,,,,,,,00064,001,2026-01-19_22h17.30.709,MST_test,2024.2.0,59.99998800689594,2026-01-19 22h17.37.307393 +0530,
116,0,117,s,1.5892464999924414,None,117,0,116,383.12268170004245,,,,,,,,,,,,,,,,,,,,,,,,,,,,,,,,,,,,,,,,,,,,,,,,,,383.1068583999877,383.12268170004245,383.622763100022,383.6059145000181,383.61613879998913,383.622763100022,383.622763100022,383.622763100022,385.2235290000099,Objects\099b.jpg,mid,s,1.5892464999924414,None,,,,,,,,00064,001,2026-01-19_22h17.30.709,MST_test,2024.2.0,59.99998800689594,2026-01-19 22h17.37.307393 +0530,
117,0,118,s,1.2234404000337236,None,118,0,117,385.2393371000071,,,,,,,,,,,,,,,,,,,,,,,,,,,,,,,,,,,,,,,,,,,,,,,,,,385.2236215000157,385.2393371000071,385.73932849999983,385.722913900041,385.7262226000312,385.73932849999983,385.73932849999983,385.73932849999983,386.97304400004214,Objects\041a.jpg,pre,s,1.2234404000337236,None,,,,,,,,00064,001,2026-01-19_22h17.30.709,MST_test,2024.2.0,59.99998800689594,2026-01-19 22h17.37.307393 +0530,
118,0,119,n,1.7774661000003107,None,119,0,118,386.9890478000161,,,,,,,,,,,,,,,,,,,,,,,,,,,,,,,,,,,,,,,,,,,,,,,,,,386.97313270001905,386.9890478000161,387.4893245000276,387.4727256000042,387.4761031999951,387.4893245000276,387.4893245000276,387.4893245000276,389.27347150002606,Objects\020b.jpg,post,n,1.7774661000003107,None,,,,,,,,00064,001,2026-01-19_22h17.30.709,MST_test,2024.2.0,59.99998800689594,2026-01-19 22h17.37.307393 +0530,
119,0,120,o,2.349696200049948,None,120,0,119,389.28927790001035,,,,,,,,,,,,,,,,,,,,,,,,,,,,,,,,,,,,,,,,,,,,,,,,,,389.2735705000232,389.28927790001035,389.7892928000074,389.77271550003206,389.7829764999915,389.7892928000074,389.7892928000074,389.7892928000074,392.139739700011,Objects\015b.jpg,mid,o,2.349696200049948,None,,,,,,,,00064,001,2026-01-19_22h17.30.709,MST_test,2024.2.0,59.99998800689594,2026-01-19 22h17.37.307393 +0530,
120,0,121,n,6.650782100041397,None,121,0,120,392.155706599995,,,,,,,,,,,,,,,,,,,,,,,,,,,,,,,,,,,,,,,,,,,,,,,,,,392.1398305000039,392.155706599995,392.6560885999934,392.63929920003284,392.64934010000434,392.6560885999934,392.6560885999934,392.6560885999934,399.3230646000011,Objects\148b.jpg,post,n,6.650782100041397,None,,,,,,,,00064,001,2026-01-19_22h17.30.709,MST_test,2024.2.0,59.99998800689594,2026-01-19 22h17.37.307393 +0530,
121,0,122,n,2.2434070999734104,None,122,0,121,399.33905840001535,,,,,,,,,,,,,,,,,,,,,,,,,,,,,,,,,,,,,,,,,,,,,,,,,,399.3231541000423,399.33905840001535,399.83947440003976,399.8227348999935,399.8269413000089,399.83947440003976,399.83947440003976,399.83947440003976,402.08982270001434,Foils\065a.jpg,none,n,2.2434070999734104,None,,,,,,,,00064,001,2026-01-19_22h17.30.709,MST_test,2024.2.0,59.99998800689594,2026-01-19 22h17.37.307393 +0530,
122,0,123,n,1.7247847000253387,None,123,0,122,402.1058385000215,,,,,,,,,,,,,,,,,,,,,,,,,,,,,,,,,,,,,,,,,,,,,,,,,,402.08991480001714,402.1058385000215,402.6063914000406,402.58947539998917,402.5969479000196,402.6063914000406,402.6063914000406,402.6063914000406,404.33991119998973,Scenes\069a.jpg,post,n,1.7247847000253387,None,,,,,,,,00064,001,2026-01-19_22h17.30.709,MST_test,2024.2.0,59.99998800689594,2026-01-19 22h17.37.307393 +0530,
123,0,124,s,5.4984362999675795,None,124,0,123,404.35591620003106,,,,,,,,,,,,,,,,,,,,,,,,,,,,,,,,,,,,,,,,,,,,,,,,,,404.3400102999876,404.35591620003106,404.85646400001133,404.8400350000011,404.84414000000106,404.85646400001133,404.85646400001133,404.85646400001133,410.3564147000434,Objects\085b.jpg,post,s,5.4984362999675795,None,,,,,,,,00064,001,2026-01-19_22h17.30.709,MST_test,2024.2.0,59.99998800689594,2026-01-19 22h17.37.307393 +0530,
124,0,125,n,1.146007200004533,None,125,0,124,410.37257170001976,,,,,,,,,,,,,,,,,,,,,,,,,,,,,,,,,,,,,,,,,,,,,,,,,,410.35650460002944,410.37257170001976,410.87285560002783,410.8562177999993,410.8667362999986,410.87285560002783,410.87285560002783,410.87285560002783,412.0231741000316,Foils\058a.jpg,none,n,1.146007200004533,None,,,,,,,,00064,001,2026-01-19_22h17.30.709,MST_test,2024.2.0,59.99998800689594,2026-01-19 22h17.37.307393 +0530,
125,0,126,n,2.406920900044497,None,126,0,125,412.0392075999989,,,,,,,,,,,,,,,,,,,,,,,,,,,,,,,,,,,,,,,,,,,,,,,,,,412.02326330001233,412.0392075999989,412.53946860000724,412.5227196000051,412.53312590002315,412.53946860000724,412.53946860000724,412.53946860000724,414.9565451000235,Objects\111b.jpg,pre,n,2.406920900044497,None,,,,,,,,00064,001,2026-01-19_22h17.30.709,MST_test,2024.2.0,59.99998800689594,2026-01-19 22h17.37.307393 +0530,
126,0,127,o,1.258151000016369,None,127,0,126,414.97250420000637,,,,,,,,,,,,,,,,,,,,,,,,,,,,,,,,,,,,,,,,,,,,,,,,,,414.95663349999813,414.97250420000637,415.472811500018,415.4560884000384,415.459496400028,415.472811500018,415.472811500018,415.472811500018,416.73981560004177,Objects\028a.jpg,pre,o,1.258151000016369,None,,,,,,,,00064,001,2026-01-19_22h17.30.709,MST_test,2024.2.0,59.99998800689594,2026-01-19 22h17.37.307393 +0530,
127,0,128,n,1.050404499983415,None,128,0,127,416.7558438000269,,,,,,,,,,,,,,,,,,,,,,,,,,,,,,,,,,,,,,,,,,,,,,,,,,416.73991470003966,416.7558438000269,417.2565605000127,417.23955719999503,417.25313359999564,417.2565605000127,417.2565605000127,417.2565605000127,418.3237512999913,Foils\scenes28.jpg,none,n,1.050404499983415,None,,,,,,,,00064,001,2026-01-19_22h17.30.709,MST_test,2024.2.0,59.99998800689594,2026-01-19 22h17.37.307393 +0530,
128,0,129,n,1.1302909000078216,None,129,0,128,418.33959859999595,,,,,,,,,,,,,,,,,,,,,,,,,,,,,,,,,,,,,,,,,,,,,,,,,,418.3238561000326,418.33959859999595,418.84004979999736,418.8227300000144,418.8333345000283,418.84004979999736,418.84004979999736,418.84004979999736,419.9731055999873,Objects\168b.jpg,post,n,1.1302909000078216,None,,,,,,,,00064,001,2026-01-19_22h17.30.709,MST_test,2024.2.0,59.99998800689594,2026-01-19 22h17.37.307393 +0530,
129,0,130,n,2.321286400023382,None,130,0,129,419.98926480003865,,,,,,,,,,,,,,,,,,,,,,,,,,,,,,,,,,,,,,,,,,,,,,,,,,419.97319970000535,419.98926480003865,420.48953590000747,420.47293560003163,420.4752355000237,420.48953590000747,420.48953590000747,420.48953590000747,422.82325880002463,Foils\scenes13.jpg,none,n,2.321286400023382,None,,,,,,,,00064,001,2026-01-19_22h17.30.709,MST_test,2024.2.0,59.99998800689594,2026-01-19 22h17.37.307393 +0530,
130,0,131,o,1.1830571999889798,None,131,0,130,422.8392773999949,,,,,,,,,,,,,,,,,,,,,,,,,,,,,,,,,,,,,,,,,,,,,,,,,,422.82335860002786,422.8392773999949,423.33949119999306,423.32283550000284,423.33456069999374,423.33949119999306,423.33949119999306,423.33949119999306,424.52332410000963,Objects\038b.jpg,pre,o,1.1830571999889798,None,,,,,,,,00064,001,2026-01-19_22h17.30.709,MST_test,2024.2.0,59.99998800689594,2026-01-19 22h17.37.307393 +0530,
131,0,132,o,1.683806299988646,None,132,0,131,424.53937469999073,,,,,,,,,,,,,,,,,,,,,,,,,,,,,,,,,,,,,,,,,,,,,,,,,,424.52341329999035,424.53937469999073,425.039714500017,425.02292529999977,425.03224910004064,425.039714500017,425.039714500017,425.039714500017,426.739898800035,Scenes\158a.jpg,post,o,1.683806299988646,None,,,,,,,,00064,001,2026-01-19_22h17.30.709,MST_test,2024.2.0,59.99998800689594,2026-01-19 22h17.37.307393 +0530,
132,0,133,o,1.1946674999780953,None,133,0,132,426.75576219998766,,,,,,,,,,,,,,,,,,,,,,,,,,,,,,,,,,,,,,,,,,,,,,,,,,426.7399914000416,426.75576219998766,427.25615140004084,427.23961540003074,427.25005269999383,427.25615140004084,427.25615140004084,427.25615140004084,428.45649429998593,Objects\058b.jpg,mid,o,1.1946674999780953,None,,,,,,,,00064,001,2026-01-19_22h17.30.709,MST_test,2024.2.0,59.99998800689594,2026-01-19 22h17.37.307393 +0530,
133,0,134,s,1.790368199988734,None,134,0,133,428.4725142000243,,,,,,,,,,,,,,,,,,,,,,,,,,,,,,,,,,,,,,,,,,,,,,,,,,428.45659290003823,428.4725142000243,428.9731499000336,428.95629450003617,428.96443490003,428.9731499000336,428.9731499000336,428.9731499000336,430.7730750000337,Scenes\182a.jpg,post,s,1.790368199988734,None,,,,,,,,00064,001,2026-01-19_22h17.30.709,MST_test,2024.2.0,59.99998800689594,2026-01-19 22h17.37.307393 +0530,
134,0,135,s,3.080959899991285,None,135,0,134,430.78912030003266,,,,,,,,,,,,,,,,,,,,,,,,,,,,,,,,,,,,,,,,,,,,,,,,,,430.77317120000953,430.78912030003266,431.2897463000263,431.2728342000046,431.2792768999934,431.2897463000263,431.2897463000263,431.2897463000263,434.37412560003577,Scenes\007a.jpg,mid,s,3.080959899991285,None,,,,,,,,00064,001,2026-01-19_22h17.30.709,MST_test,2024.2.0,59.99998800689594,2026-01-19 22h17.37.307393 +0530,
135,0,136,s,2.976904499984812,None,136,0,135,434.3892605000292,,,,,,,,,,,,,,,,,,,,,,,,,,,,,,,,,,,,,,,,,,,,,,,,,,434.37421750003705,434.3892605000292,434.8894835000392,434.8732414999977,434.8776105000288,434.8894835000392,434.8894835000392,434.8894835000392,437.87308380001923,Scenes\139a.jpg,pre,s,2.976904499984812,None,,,,,,,,00064,001,2026-01-19_22h17.30.709,MST_test,2024.2.0,59.99998800689594,2026-01-19 22h17.37.307393 +0530,
136,0,137,n,1.9729545000009239,None,137,0,136,437.88925390003715,,,,,,,,,,,,,,,,,,,,,,,,,,,,,,,,,,,,,,,,,,,,,,,,,,437.8731741000083,437.88925390003715,438.38969500001986,438.3729930000263,438.3763767000055,438.38969500001986,438.38969500001986,438.38969500001986,440.37320870003896,Objects\131b.jpg,mid,n,1.9729545000009239,None,,,,,,,,00064,001,2026-01-19_22h17.30.709,MST_test,2024.2.0,59.99998800689594,2026-01-19 22h17.37.307393 +0530,
137,0,138,s,1.4491463999729604,None,138,0,137,440.38925340003334,,,,,,,,,,,,,,,,,,,,,,,,,,,,,,,,,,,,,,,,,,,,,,,,,,440.3732989000273,440.38925340003334,440.88967900001444,440.87273060000734,440.8829648999963,440.88967900001444,440.88967900001444,440.88967900001444,442.3402125000139,Scenes\190a.jpg,mid,s,1.4491463999729604,None,,,,,,,,00064,001,2026-01-19_22h17.30.709,MST_test,2024.2.0,59.99998800689594,2026-01-19 22h17.37.307393 +0530,
138,0,139,n,2.1222261000075378,None,139,0,138,442.3558567999862,,,,,,,,,,,,,,,,,,,,,,,,,,,,,,,,,,,,,,,,,,,,,,,,,,442.34030730003724,442.3558567999862,442.8648639000021,442.8398468000232,442.86196190002374,442.8648639000021,442.8648639000021,442.8648639000021,444.9896833000239,Scenes\059b.jpg,mid,n,2.1222261000075378,None,,,,,,,,00064,001,2026-01-19_22h17.30.709,MST_test,2024.2.0,59.99998800689594,2026-01-19 22h17.37.307393 +0530,
139,0,140,n,1.8055357999983244,None,140,0,139,445.0057703999919,,,,,,,,,,,,,,,,,,,,,,,,,,,,,,,,,,,,,,,,,,,,,,,,,,444.9897792999982,445.0057703999919,445.5333752000006,445.48944949998986,445.5305897000362,445.5333752000006,445.5333752000006,445.5333752000006,447.34001440001884,Foils\scenes15.jpg,none,n,1.8055357999983244,None,,,,,,,,00064,001,2026-01-19_22h17.30.709,MST_test,2024.2.0,59.99998800689594,2026-01-19 22h17.37.307393 +0530,
140,0,141,n,1.3296755999908783,None,141,0,140,447.35579669999424,,,,,,,,,,,,,,,,,,,,,,,,,,,,,,,,,,,,,,,,,,,,,,,,,,447.34011729998747,447.35579669999424,447.8572340999963,447.8394340000232,447.8446335000335,447.8572340999963,447.8572340999963,447.8572340999963,449.1898744000355,Objects\087a.jpg,post,n,1.3296755999908783,None,,,,,,,,00064,001,2026-01-19_22h17.30.709,MST_test,2024.2.0,59.99998800689594,2026-01-19 22h17.37.307393 +0530,
141,0,142,o,1.7921365999500267,None,142,0,141,449.2057141000405,,,,,,,,,,,,,,,,,,,,,,,,,,,,,,,,,,,,,,,,,,,,,,,,,,449.18997120001586,449.2057141000405,449.7061667999951,449.68949800002156,449.6995497000171,449.7061667999951,449.7061667999951,449.7061667999951,451.5065295000095,Scenes\010a.jpg,mid,o,1.7921365999500267,None,,,,,,,,00064,001,2026-01-19_22h17.30.709,MST_test,2024.2.0,59.99998800689594,2026-01-19 22h17.37.307393 +0530,
142,0,143,o,3.9882011999725364,None,143,0,142,451.52259940002114,,,,,,,,,,,,,,,,,,,,,,,,,,,,,,,,,,,,,,,,,,,,,,,,,,451.50662250001915,451.52259940002114,452.0230866000056,452.00611489999574,452.0169882000191,452.0230866000056,452.0230866000056,452.0230866000056,456.0233134999871,Objects\170b.jpg,mid,o,3.9882011999725364,None,,,,,,,,00064,001,2026-01-19_22h17.30.709,MST_test,2024.2.0,59.99998800689594,2026-01-19 22h17.37.307393 +0530,
143,0,144,n,1.0873611000133678,None,144,0,143,456.039168599993,,,,,,,,,,,,,,,,,,,,,,,,,,,,,,,,,,,,,,,,,,,,,,,,,,456.0234171000193,456.039168599993,456.53959360002773,456.52280919998884,456.5251894000103,456.53959360002773,456.53959360002773,456.53959360002773,457.6398783000186,Foils\scenes20.jpg,none,n,1.0873611000133678,None,,,,,,,,00064,001,2026-01-19_22h17.30.709,MST_test,2024.2.0,59.99998800689594,2026-01-19 22h17.37.307393 +0530,
144,0,145,n,1.1506695999996737,None,145,0,144,457.6558750999975,,,,,,,,,,,,,,,,,,,,,,,,,,,,,,,,,,,,,,,,,,,,,,,,,,457.6399683000054,457.6558750999975,458.15594329999294,458.13941400003387,458.14161480002804,458.15594329999294,458.15594329999294,458.15594329999294,459.3231000000378,Foils\scenes18.jpg,none,n,1.1506695999996737,None,,,,,,,,00064,001,2026-01-19_22h17.30.709,MST_test,2024.2.0,59.99998800689594,2026-01-19 22h17.37.307393 +0530,
145,0,146,s,3.035934499988798,None,146,0,145,459.3392735000234,,,,,,,,,,,,,,,,,,,,,,,,,,,,,,,,,,,,,,,,,,,,,,,,,,459.3231975000235,459.3392735000234,459.8394570000237,459.82273790001636,459.8263713000342,459.8394570000237,459.8394570000237,459.8394570000237,462.88995989999967,Objects\095a.jpg,pre,s,3.035934499988798,None,,,,,,,,00064,001,2026-01-19_22h17.30.709,MST_test,2024.2.0,59.99998800689594,2026-01-19 22h17.37.307393 +0530,
146,0,147,n,1.7092226999811828,None,147,0,146,462.90595129999565,,,,,,,,,,,,,,,,,,,,,,,,,,,,,,,,,,,,,,,,,,,,,,,,,,462.8900617000181,462.90595129999565,463.40594349999446,463.38959129998693,463.39893700001994,463.40594349999446,463.40594349999446,463.40594349999446,465.12303950003115,Foils\017a.jpg,none,n,1.7092226999811828,None,,,,,,,,00064,001,2026-01-19_22h17.30.709,MST_test,2024.2.0,59.99998800689594,2026-01-19 22h17.37.307393 +0530,
147,0,148,n,1.7468617999693379,None,148,0,147,465.1391949999961,,,,,,,,,,,,,,,,,,,,,,,,,,,,,,,,,,,,,,,,,,,,,,,,,,465.12314510002034,465.1391949999961,465.63955610000994,465.62273500004085,465.6250318000093,465.63955610000994,465.63955610000994,465.63955610000994,467.3897386000026,Foils\scenes11.jpg,none,n,1.7468617999693379,None,,,,,,,,00064,001,2026-01-19_22h17.30.709,MST_test,2024.2.0,59.99998800689594,2026-01-19 22h17.37.307393 +0530,
148,0,149,o,2.9417359000071883,None,149,0,148,467.4057230000035,,,,,,,,,,,,,,,,,,,,,,,,,,,,,,,,,,,,,,,,,,,,,,,,,,467.38982770004077,467.4057230000035,467.9091177000082,467.8894051000243,467.9071971999947,467.9091177000082,467.9091177000082,467.9091177000082,470.8563482000027,Scenes\029b.jpg,post,o,2.9417359000071883,None,,,,,,,,00064,001,2026-01-19_22h17.30.709,MST_test,2024.2.0,59.99998800689594,2026-01-19 22h17.37.307393 +0530,
149,0,150,n,0.965627699973993,None,150,0,149,470.8724797000177,,,,,,,,,,,,,,,,,,,,,,,,,,,,,,,,,,,,,,,,,,,,,,,,,,470.85645389999263,470.8724797000177,471.3729185000411,471.3559983000159,471.35837650002213,471.3729185000411,471.3729185000411,471.3729185000411,472.339813700004,Foils\scenes5.jpg,none,n,0.965627699973993,None,,,,,,,,00064,001,2026-01-19_22h17.30.709,MST_test,2024.2.0,59.99998800689594,2026-01-19 22h17.37.307393 +0530,
,,,,,,,,,,,,,,,,,,,,,,,,,,,,,,,,,,,,,,,,,,,,,,,,,,,,,,,,,,,,,,,,,,,,,,,,,472.33987730002264,472.35570930002723,472.35570930002723,475.18963410001015,space,2.8227351999958046,None,00064,001,2026-01-19_22h17.30.709,MST_test,2024.2.0,59.99998800689594,2026-01-19 22h17.37.307393 +0530,
