Sl_no,image_path,thisN,thisTrialN,thisRepN,key_resp_5.keys,key_resp_7.keys,key_resp_7.rt,key_resp_7.duration,key_resp_5.rt,key_resp_5.duration,key_resp_9.keys,key_resp_9.rt,key_resp_9.duration,key_resp_8.keys,key_resp_8.rt,key_resp_8.duration,practice.thisRepN,practice.thisTrialN,practice.thisN,trials.thisRepN,trials.thisTrialN,trials.thisN,thisRow.t,notes,welcome_page.started,text.started,key_resp.started,welcome_page.stopped,key_resp.keys,key_resp.rt,key_resp.duration,instructions.started,ins.started,key_resp_2.started,instructions.stopped,key_resp_2.keys,key_resp_2.rt,key_resp_2.duration,instructions_2.started,text_10.started,key_resp_10.started,instructions_2.stopped,key_resp_10.keys,key_resp_10.rt,key_resp_10.duration,objects_only_instruction.started,text_3.started,key_resp_3.started,objects_only_instruction.stopped,key_resp_3.keys,key_resp_3.rt,key_resp_3.duration,ISI.started,text_4.started,text_4.stopped,ISI.stopped,practice_block.started,image.started,text_5.started,key_resp_5.started,practice_block.stopped,practice.key_resp_5.keys,indoor_outdoor.started,text_7.started,key_resp_7.started,indoor_outdoor.stopped,practice.key_resp_7.keys,practice.key_resp_7.rt,practice.key_resp_7.duration,image.stopped,text_5.stopped,key_resp_5.stopped,practice.key_resp_5.rt,practice.key_resp_5.duration,practice_to_main.started,text_2.started,key_resp_4.started,practice_to_main.stopped,key_resp_4.keys,key_resp_4.rt,key_resp_4.duration,objects.started,image_2.started,text_9.started,key_resp_9.started,image_2.stopped,text_9.stopped,key_resp_9.stopped,objects.stopped,trials.key_resp_9.keys,trials.key_resp_9.rt,trials.key_resp_9.duration,encoding_task.started,encoding_task.stopped,trials.key_resp_8.keys,text_8.started,key_resp_8.started,trials.key_resp_8.rt,trials.key_resp_8.duration,end_experiment.started,text_6.started,key_resp_6.started,end_experiment.stopped,key_resp_6.keys,key_resp_6.rt,key_resp_6.duration,list_of_stimuli,encoding_task_accuracy,participant,session,date,expName,psychopyVersion,frameRate,expStart,
,,,,,,,,,,,,,,,,,,,,,,,,,0.0010951999574899673,0.0025851999525912106,0.0025851999525912106,6.834465299965814,space,6.815216499962844,None,,,,,,,,,,,,,,,,,,,,,,,,,,,,,,,,,,,,,,,,,,,,,,,,,,,,,,,,,,,,,,,,,,,,,,,,,,,,,,00063,001,2026-01-19_18h15.20.709,MST_task,2024.2.0,59.84981287167293,2026-01-19 18h15.36.954429 +0530,
,,,,,,,,,,,,,,,,,,,,,,,,,,,,,,,,6.834498799988069,6.849461999954656,6.849461999954656,32.04994989995612,space,25.199633500014897,None,,,,,,,,,,,,,,,,,,,,,,,,,,,,,,,,,,,,,,,,,,,,,,,,,,,,,,,,,,,,,,,,,,,,,,,00063,001,2026-01-19_18h15.20.709,MST_task,2024.2.0,59.84981287167293,2026-01-19 18h15.36.954429 +0530,
,,,,,,,,,,,,,,,,,,,,,,,,,,,,,,,,,,,,,,,32.04998389998218,32.066169899946544,32.066169899946544,85.50011609995272,space,53.43152340000961,None,,,,,,,,,,,,,,,,,,,,,,,,,,,,,,,,,,,,,,,,,,,,,,,,,,,,,,,,,,,,,,,,00063,001,2026-01-19_18h15.20.709,MST_task,2024.2.0,59.84981287167293,2026-01-19 18h15.36.954429 +0530,
,,,,,,,,,,,,,,,,,,,,,,,,,,,,,,,,,,,,,,,,,,,,,,85.50015119998716,85.51623499998823,85.51623499998823,106.03322889999254,space,20.508811100036837,None,,,,,,,,,,,,,,,,,,,,,,,,,,,,,,,,,,,,,,,,,,,,,,,,,,,,,,,,,00063,001,2026-01-19_18h15.20.709,MST_task,2024.2.0,59.84981287167293,2026-01-19 18h15.36.954429 +0530,
8,practice_images/178a.jpg,0,0,1,None,j,1.5157041000202298,None,,,,,,,,,1,0,0,,,,106.04943079996156,,,,,,,,,,,,,,,,,,,,,,,,,,,,,,106.03709089994663,106.04943079996156,106.55125459999545,106.53288259997498,106.54015719995368,106.55125459999545,106.55125459999545,106.55125459999545,109.54965649999212,None,109.55139929999132,109.56611709995195,109.56611709995195,111.08329129999038,j,1.5157041000202298,None,,,,,,,,,,,,,,,,,,,,,,,,,,,,,,,,,,,,,,,,00063,001,2026-01-19_18h15.20.709,MST_task,2024.2.0,59.84981287167293,2026-01-19 18h15.36.954429 +0530,
1,practice_images/013a.jpg,1,1,1,f,None,,,2.481787000026088,0.1443309999885969,,,,,,,1,1,1,,,,111.09943279996514,,,,,,,,,,,,,,,,,,,,,,,,,,,,,,111.08337619999656,111.09943279996514,111.59959779999917,111.58305779995862,111.5848458999535,111.59959779999917,111.59959779999917,111.59959779999917,114.583192399994,f,114.58323319995543,,,114.58324629999697,None,,,114.59953369997675,114.59953369997675,114.59953369997675,2.481787000026088,0.1443309999885969,,,,,,,,,,,,,,,,,,,,,,,,,,,,,,,,,,,00063,001,2026-01-19_18h15.20.709,MST_task,2024.2.0,59.84981287167293,2026-01-19 18h15.36.954429 +0530,
5,practice_images/139a.jpg,2,2,1,j,None,,,2.373506899981294,0.14456270000664517,,,,,,,1,2,2,,,,114.59953369997675,,,,,,,,,,,,,,,,,,,,,,,,,,,,,,114.58332029997837,114.59953369997675,115.09961959999055,115.08296899998095,115.08445889997529,115.09961959999055,115.09961959999055,115.09961959999055,118.08307689998765,j,118.08311299997149,,,118.08312509994721,None,,,118.09944239998003,118.09944239998003,118.09944239998003,2.373506899981294,0.14456270000664517,,,,,,,,,,,,,,,,,,,,,,,,,,,,,,,,,,,00063,001,2026-01-19_18h15.20.709,MST_task,2024.2.0,59.84981287167293,2026-01-19 18h15.36.954429 +0530,
10,practice_images/182a.jpg,3,3,1,f,None,,,2.1783345000003465,0.12052180001046509,,,,,,,1,3,3,,,,118.09944239998003,,,,,,,,,,,,,,,,,,,,,,,,,,,,,,118.08318699995289,118.09944239998003,118.59961669996846,118.58293699997012,118.58436149999034,118.59961669996846,118.59961669996846,118.59961669996846,121.58319019997725,f,121.58322859997861,,,121.58324119995814,None,,,121.59941159997834,121.59941159997834,121.59941159997834,2.1783345000003465,0.12052180001046509,,,,,,,,,,,,,,,,,,,,,,,,,,,,,,,,,,,00063,001,2026-01-19_18h15.20.709,MST_task,2024.2.0,59.84981287167293,2026-01-19 18h15.36.954429 +0530,
2,practice_images/031a.jpg,4,4,1,f,None,,,1.2624646999756806,0.13697079999838024,,,,,,,1,4,4,,,,121.59941159997834,,,,,,,,,,,,,,,,,,,,,,,,,,,,,,121.58330429997295,121.59941159997834,122.0996186999837,122.08299689996056,122.08443999994779,122.0996186999837,122.0996186999837,122.0996186999837,125.08313449996058,f,125.08317319996422,,,125.08318549999967,None,,,125.09944289998384,125.09944289998384,125.09944289998384,1.2624646999756806,0.13697079999838024,,,,,,,,,,,,,,,,,,,,,,,,,,,,,,,,,,,00063,001,2026-01-19_18h15.20.709,MST_task,2024.2.0,59.84981287167293,2026-01-19 18h15.36.954429 +0530,
6,practice_images/158a.jpg,5,5,1,j,None,,,1.1622589000035077,0.09614059998420998,,,,,,,1,5,5,,,,125.09944289998384,,,,,,,,,,,,,,,,,,,,,,,,,,,,,,125.08324789995095,125.09944289998384,125.59964069997659,125.58310999994865,125.58829829999013,125.59964069997659,125.59964069997659,125.59964069997659,128.5830549999955,j,128.58569859998534,,,128.58571699995082,None,,,128.59946149995085,128.59946149995085,128.59946149995085,1.1622589000035077,0.09614059998420998,,,,,,,,,,,,,,,,,,,,,,,,,,,,,,,,,,,00063,001,2026-01-19_18h15.20.709,MST_task,2024.2.0,59.84981287167293,2026-01-19 18h15.36.954429 +0530,
4,practice_images/002b.jpg,6,6,1,j,None,,,1.9421555000008084,0.12767780001740903,,,,,,,1,6,6,,,,128.59946149995085,,,,,,,,,,,,,,,,,,,,,,,,,,,,,,128.58578389999457,128.59946149995085,129.0996380999568,129.08311639999738,129.0848233999568,129.0996380999568,129.0996380999568,129.0996380999568,132.08313709998038,j,132.08317519997945,,,132.08318679995136,None,,,132.09943649999332,132.09943649999332,132.09943649999332,1.9421555000008084,0.12767780001740903,,,,,,,,,,,,,,,,,,,,,,,,,,,,,,,,,,,00063,001,2026-01-19_18h15.20.709,MST_task,2024.2.0,59.84981287167293,2026-01-19 18h15.36.954429 +0530,
9,practice_images/180a.jpg,7,7,1,j,None,,,1.6896912999800406,0.14510770002380013,,,,,,,1,7,7,,,,132.09943649999332,,,,,,,,,,,,,,,,,,,,,,,,,,,,,,132.08325539994985,132.09943649999332,132.59976929996628,132.58289759996114,132.5844872999587,132.59976929996628,132.59976929996628,132.59976929996628,135.5830347999581,j,135.58307169994805,,,135.58308359998045,None,,,135.5994451000006,135.5994451000006,135.5994451000006,1.6896912999800406,0.14510770002380013,,,,,,,,,,,,,,,,,,,,,,,,,,,,,,,,,,,00063,001,2026-01-19_18h15.20.709,MST_task,2024.2.0,59.84981287167293,2026-01-19 18h15.36.954429 +0530,
3,practice_images/037a.jpg,8,8,1,f,None,,,1.3819490000023507,0.13654450001195073,,,,,,,1,8,8,,,,135.5994451000006,,,,,,,,,,,,,,,,,,,,,,,,,,,,,,135.58314619999146,135.5994451000006,136.09959569998318,136.0829364999663,136.08440279995557,136.09959569998318,136.09959569998318,136.09959569998318,139.08299019996775,f,139.0830296999775,,,139.08304279996082,None,,,139.09948689996963,139.09948689996963,139.09948689996963,1.3819490000023507,0.13654450001195073,,,,,,,,,,,,,,,,,,,,,,,,,,,,,,,,,,,00063,001,2026-01-19_18h15.20.709,MST_task,2024.2.0,59.84981287167293,2026-01-19 18h15.36.954429 +0530,
7,practice_images/166a.jpg,9,9,1,f,None,,,2.2814331999979913,0.10400779999326915,,,,,,,1,9,9,,,,139.09948689996963,,,,,,,,,,,,,,,,,,,,,,,,,,,,,,139.08310759998858,139.09948689996963,139.59964179998497,139.5829232999822,139.58443329995498,139.59964179998497,139.59964179998497,139.59964179998497,142.58319209999172,f,142.5832298999885,,,142.58324159996118,None,,,142.5994631999638,142.5994631999638,142.5994631999638,2.2814331999979913,0.10400779999326915,,,,,,,,,,,,,,,,,,,,,,,,,,,,,,,,,,,00063,001,2026-01-19_18h15.20.709,MST_task,2024.2.0,59.84981287167293,2026-01-19 18h15.36.954429 +0530,
,,,,,,,,,,,,,,,,,,,,,,,,,,,,,,,,,,,,,,,,,,,,,,,,,,,,,,,,,,,,,,,,,,,,,,,,,,,142.5832844999968,142.5994631999638,142.5994631999638,154.30004289996577,space,11.69029950001277,None,,,,,,,,,,,,,,,,,,,,,,,,,,,,00063,001,2026-01-19_18h15.20.709,MST_task,2024.2.0,59.84981287167293,2026-01-19 18h15.36.954429 +0530,
,Objects\008a.jpg,0,0,1,,,,,,,f,2.176984400022775,0.09604350000154227,None,,,,,,1,0,0,154.31608449999476,,,,,,,,,,,,,,,,,,,,,,,,,,,,,,154.3008417999954,154.31608449999476,154.81646049994742,154.79962959996192,,,,,,,,,,,,,,,,,,,,,,,,,,154.80556239996804,154.81646049994742,154.81646049994742,154.81646049994742,157.81611459999112,157.81611459999112,157.81611459999112,157.7999131999677,f,2.176984400022775,0.09604350000154227,157.8031203999999,157.80313779995777,None,,,,,,,,,,,,,,00063,001,2026-01-19_18h15.20.709,MST_task,2024.2.0,59.84981287167293,2026-01-19 18h15.36.954429 +0530,
,Objects\022a.jpg,1,0,2,,,,,,,f,1.844985700037796,0.12799849995644763,None,,,,,,2,0,1,157.81611459999112,,,,,,,,,,,,,,,,,,,,,,,,,,,,,,157.80323489999864,157.81611459999112,158.31628659996204,158.29962149995845,,,,,,,,,,,,,,,,,,,,,,,,,,158.30239119997714,158.31628659996204,158.31628659996204,158.31628659996204,161.31623429997126,161.31623429997126,161.31623429997126,161.30023629998323,f,1.844985700037796,0.12799849995644763,161.30028219998349,161.30029289994854,None,,,,,,,,,,,,,,00063,001,2026-01-19_18h15.20.709,MST_task,2024.2.0,59.84981287167293,2026-01-19 18h15.36.954429 +0530,
,Objects\033a.jpg,2,0,3,,,,,,,j,1.8491199999698438,0.13605480000842363,None,,,,,,3,0,2,161.31623429997126,,,,,,,,,,,,,,,,,,,,,,,,,,,,,,161.30036019999534,161.31623429997126,161.81635209999513,161.79987509996863,,,,,,,,,,,,,,,,,,,,,,,,,,161.80271009996068,161.81635209999513,161.81635209999513,161.81635209999513,164.81780479999725,164.81780479999725,164.81780479999725,164.80015299998922,j,1.8491199999698438,0.13605480000842363,164.80019479995826,164.8002055999823,None,,,,,,,,,,,,,,00063,001,2026-01-19_18h15.20.709,MST_task,2024.2.0,59.84981287167293,2026-01-19 18h15.36.954429 +0530,
,Objects\146a.jpg,3,0,4,,,,,,,f,1.8998531000106595,0.1040008999989368,None,,,,,,4,0,3,164.81780479999725,,,,,,,,,,,,,,,,,,,,,,,,,,,,,,164.8002707999549,164.81780479999725,,165.3163448999985,,,,,,,,,,,,,,,,,,,,,,,,,,165.31907919998048,165.3330958999577,165.3330958999577,165.3330958999577,,,,168.3164558999706,f,1.8998531000106595,0.1040008999989368,168.31649699999252,168.3165081999614,None,,,,,,,,,,,,,,00063,001,2026-01-19_18h15.20.709,MST_task,2024.2.0,59.84981287167293,2026-01-19 18h15.36.954429 +0530,
,Objects\053a.jpg,4,0,5,,,,,,,f,1.5518069000099786,0.11198350001359358,None,,,,,,5,0,4,168.3328650999465,,,,,,,,,,,,,,,,,,,,,,,,,,,,,,168.3165728999884,168.3328650999465,,168.81818069994915,,,,,,,,,,,,,,,,,,,,,,,,,,168.82113619998563,168.8331491999561,168.8331491999561,168.8331491999561,,,,171.8182056999649,f,1.5518069000099786,0.11198350001359358,171.8182498999522,171.8182677999721,None,,,,,,,,,,,,,,00063,001,2026-01-19_18h15.20.709,MST_task,2024.2.0,59.84981287167293,2026-01-19 18h15.36.954429 +0530,
,Objects\140a.jpg,5,0,6,,,,,,,j,1.7004767000325955,0.12028789997566491,None,,,,,,6,0,5,171.83285359997535,,,,,,,,,,,,,,,,,,,,,,,,,,,,,,171.8183681999799,171.83285359997535,172.3332645999617,172.3164354999899,,,,,,,,,,,,,,,,,,,,,,,,,,172.31900949997362,172.3332645999617,172.3332645999617,172.3332645999617,175.3328873999999,175.3328873999999,175.3328873999999,175.31672539998544,j,1.7004767000325955,0.12028789997566491,175.31676629994763,175.31677689997014,None,,,,,,,,,,,,,,00063,001,2026-01-19_18h15.20.709,MST_task,2024.2.0,59.84981287167293,2026-01-19 18h15.36.954429 +0530,
,Objects\004a.jpg,6,0,7,,,,,,,j,1.3527605999843217,0.167070799972862,None,,,,,,7,0,6,175.3328873999999,,,,,,,,,,,,,,,,,,,,,,,,,,,,,,175.3168422000017,175.3328873999999,,175.81801569997333,,,,,,,,,,,,,,,,,,,,,,,,,,175.82069889997365,175.83312209998257,175.83312209998257,175.83312209998257,178.83285639999667,178.83285639999667,178.83285639999667,178.81686929997522,j,1.3527605999843217,0.167070799972862,178.81691939994926,178.81693079997785,None,,,,,,,,,,,,,,00063,001,2026-01-19_18h15.20.709,MST_task,2024.2.0,59.84981287167293,2026-01-19 18h15.36.954429 +0530,
,Scenes\025a.jpg,7,0,8,,,,,,,j,2.2368974999990314,0.1430636000004597,None,,,,,,8,0,7,178.83285639999667,,,,,,,,,,,,,,,,,,,,,,,,,,,,,,178.81699959997786,178.83285639999667,179.3333840999985,179.31648169999244,,,,,,,,,,,,,,,,,,,,,,,,,,179.3296814999776,179.3333840999985,179.3333840999985,179.3333840999985,182.3329525999725,182.3329525999725,182.3329525999725,182.31681359995855,j,2.2368974999990314,0.1430636000004597,182.31851369998185,182.31853329995647,None,,,,,,,,,,,,,,00063,001,2026-01-19_18h15.20.709,MST_task,2024.2.0,59.84981287167293,2026-01-19 18h15.36.954429 +0530,
,Scenes\041a.jpg,8,0,9,,,,,,,j,1.5438635000027716,0.15199810004560277,None,,,,,,9,0,8,182.3329525999725,,,,,,,,,,,,,,,,,,,,,,,,,,,,,,182.318618899968,182.3329525999725,182.83352429996012,182.8182480999967,,,,,,,,,,,,,,,,,,,,,,,,,,182.82814139995025,182.83352429996012,182.83352429996012,182.83352429996012,185.8328104999964,185.8328104999964,185.8328104999964,185.8187109999708,j,1.5438635000027716,0.15199810004560277,185.81875349994516,185.8187642999692,None,,,,,,,,,,,,,,00063,001,2026-01-19_18h15.20.709,MST_task,2024.2.0,59.84981287167293,2026-01-19 18h15.36.954429 +0530,
,Scenes\072a.jpg,9,0,10,,,,,,,j,1.4038170000421815,0.1679979999898933,None,,,,,,10,0,9,185.8328104999964,,,,,,,,,,,,,,,,,,,,,,,,,,,,,,185.8188299999456,185.8328104999964,186.33340189995943,186.3164667999954,,,,,,,,,,,,,,,,,,,,,,,,,,186.32624819997,186.33340189995943,186.33340189995943,186.33340189995943,189.33289969997713,189.33289969997713,189.33289969997713,189.31674239999847,j,1.4038170000421815,0.1679979999898933,189.3167831999599,189.3167940999847,None,,,,,,,,,,,,,,00063,001,2026-01-19_18h15.20.709,MST_task,2024.2.0,59.84981287167293,2026-01-19 18h15.36.954429 +0530,
,Scenes\043a.jpg,10,0,11,,,,,,,None,,,j,0.7681386000476778,None,,,,11,0,10,189.33289969997713,,,,,,,,,,,,,,,,,,,,,,,,,,,,,,189.31688919995213,189.33289969997713,,189.8178814999992,,,,,,,,,,,,,,,,,,,,,,,,,,189.82825469999807,189.83344560000114,189.83344560000114,189.83344560000114,,,,192.81824849999975,None,,,192.8182871999452,193.61665829998674,j,192.83281509997323,192.83281509997323,0.7681386000476778,None,,,,,,,,,,00063,001,2026-01-19_18h15.20.709,MST_task,2024.2.0,59.84981287167293,2026-01-19 18h15.36.954429 +0530,
,Scenes\019a.jpg,11,0,12,,,,,,,f,2.1317787999869324,0.12871260003885254,None,,,,,,12,0,11,193.6327063999488,,,,,,,,,,,,,,,,,,,,,,,,,,,,,,193.61680369998794,193.6327063999488,194.1332525999751,194.11646009999095,,,,,,,,,,,,,,,,,,,,,,,,,,194.12430509994738,194.1332525999751,194.1332525999751,194.1332525999751,197.13285069999984,197.13285069999984,197.13285069999984,197.11661349999486,f,2.1317787999869324,0.12871260003885254,197.11666219995823,197.11667359998683,None,,,,,,,,,,,,,,00063,001,2026-01-19_18h15.20.709,MST_task,2024.2.0,59.84981287167293,2026-01-19 18h15.36.954429 +0530,
,Scenes\071a.jpg,12,0,13,,,,,,,f,2.343858799955342,0.13599969999631867,None,,,,,,13,0,12,197.13285069999984,,,,,,,,,,,,,,,,,,,,,,,,,,,,,,197.11674059997313,197.13285069999984,197.63345239998307,197.6164157000021,,,,,,,,,,,,,,,,,,,,,,,,,,197.62429349997547,197.63345239998307,197.63345239998307,197.63345239998307,200.632914399961,200.632914399961,200.632914399961,200.6169548999751,f,2.343858799955342,0.13599969999631867,200.61700469994685,200.61701679998077,None,,,,,,,,,,,,,,00063,001,2026-01-19_18h15.20.709,MST_task,2024.2.0,59.84981287167293,2026-01-19 18h15.36.954429 +0530,
,Scenes\087a.jpg,13,0,14,,,,,,,j,1.5563044999726117,0.12811180000426248,None,,,,,,14,0,13,200.632914399961,,,,,,,,,,,,,,,,,,,,,,,,,,,,,,200.6170878999983,200.632914399961,201.13321129995165,201.11653649999062,,,,,,,,,,,,,,,,,,,,,,,,,,201.1213886999758,201.13321129995165,201.13321129995165,201.13321129995165,204.13291399995796,204.13291399995796,204.13291399995796,204.11711359996116,j,1.5563044999726117,0.12811180000426248,204.1171592999599,204.11717099999078,None,,,,,,,,,,,,,,00063,001,2026-01-19_18h15.20.709,MST_task,2024.2.0,59.84981287167293,2026-01-19 18h15.36.954429 +0530,
,Objects\018a.jpg,14,0,15,,,,,,,f,1.6727650999673642,0.11967089999234304,None,,,,,,15,0,14,204.13291399995796,,,,,,,,,,,,,,,,,,,,,,,,,,,,,,204.11724139994476,204.13291399995796,204.63299369998276,204.61657759995433,,,,,,,,,,,,,,,,,,,,,,,,,,204.6237839999958,204.63299369998276,204.63299369998276,204.63299369998276,207.6328846999677,207.6328846999677,207.6328846999677,207.61681849998422,f,1.6727650999673642,0.11967089999234304,207.6188546999474,207.61887209996348,None,,,,,,,,,,,,,,00063,001,2026-01-19_18h15.20.709,MST_task,2024.2.0,59.84981287167293,2026-01-19 18h15.36.954429 +0530,
,Objects\031a.jpg,15,0,16,,,,,,,j,1.75656650000019,0.14526520000072196,None,,,,,,16,0,15,207.6328846999677,,,,,,,,,,,,,,,,,,,,,,,,,,,,,,207.61894429998938,207.6328846999677,208.13301849999698,208.11655649996828,,,,,,,,,,,,,,,,,,,,,,,,,,208.1192396999686,208.13301849999698,208.13301849999698,208.13301849999698,211.13281409995398,211.13281409995398,211.13281409995398,211.11686660000123,j,1.75656650000019,0.14526520000072196,211.1169196999981,211.1169393999735,None,,,,,,,,,,,,,,00063,001,2026-01-19_18h15.20.709,MST_task,2024.2.0,59.84981287167293,2026-01-19 18h15.36.954429 +0530,
,Objects\061a.jpg,16,0,17,,,,,,,j,1.5370846000150777,0.13499290001345798,None,,,,,,17,0,16,211.13281409995398,,,,,,,,,,,,,,,,,,,,,,,,,,,,,,211.11705539998366,211.13281409995398,211.63295989995822,211.61649499996565,,,,,,,,,,,,,,,,,,,,,,,,,,211.61976469994988,211.63295989995822,211.63295989995822,211.63295989995822,214.63283069996396,214.63283069996396,214.63283069996396,214.6167913999525,j,1.5370846000150777,0.13499290001345798,214.61683189996984,214.61684229999082,None,,,,,,,,,,,,,,00063,001,2026-01-19_18h15.20.709,MST_task,2024.2.0,59.84981287167293,2026-01-19 18h15.36.954429 +0530,
,Objects\067a.jpg,17,0,18,,,,,,,f,1.8367161999922246,0.11198990000411868,None,,,,,,18,0,17,214.63283069996396,,,,,,,,,,,,,,,,,,,,,,,,,,,,,,214.6169406999834,214.63283069996396,215.13306699995883,215.11659349995898,,,,,,,,,,,,,,,,,,,,,,,,,,215.11928589997115,215.13306699995883,215.13306699995883,215.13306699995883,218.13288979994832,218.13288979994832,218.13288979994832,218.1170813999488,f,1.8367161999922246,0.11198990000411868,218.117128999962,218.1171398999868,None,,,,,,,,,,,,,,00063,001,2026-01-19_18h15.20.709,MST_task,2024.2.0,59.84981287167293,2026-01-19 18h15.36.954429 +0530,
,Objects\125a.jpg,18,0,19,,,,,,,j,1.5362490999978036,0.1679796000244096,None,,,,,,19,0,18,218.13288979994832,,,,,,,,,,,,,,,,,,,,,,,,,,,,,,218.1172091999906,218.13288979994832,218.6328569999896,218.6166862999671,,,,,,,,,,,,,,,,,,,,,,,,,,218.61952179996297,218.6328569999896,218.6328569999896,218.6328569999896,221.63274979998823,221.63274979998823,221.63274979998823,221.61661119997734,j,1.5362490999978036,0.1679796000244096,221.6166534999502,221.6166645999765,None,,,,,,,,,,,,,,00063,001,2026-01-19_18h15.20.709,MST_task,2024.2.0,59.84981287167293,2026-01-19 18h15.36.954429 +0530,
,Objects\190a.jpg,19,0,20,,,,,,,f,1.3486558999866247,0.1362638000282459,None,,,,,,20,0,19,221.63274979998823,,,,,,,,,,,,,,,,,,,,,,,,,,,,,,221.61676359997364,221.63274979998823,222.13297069998225,222.1167432999937,,,,,,,,,,,,,,,,,,,,,,,,,,222.1192525999504,222.13297069998225,222.13297069998225,222.13297069998225,225.13274249999085,225.13274249999085,225.13274249999085,225.11669889994664,f,1.3486558999866247,0.1362638000282459,225.11674509994918,225.1167558999732,None,,,,,,,,,,,,,,00063,001,2026-01-19_18h15.20.709,MST_task,2024.2.0,59.84981287167293,2026-01-19 18h15.36.954429 +0530,
,Objects\159a.jpg,20,0,21,,,,,,,f,1.8002101000165567,0.13616150000598282,None,,,,,,21,0,20,225.13274249999085,,,,,,,,,,,,,,,,,,,,,,,,,,,,,,225.1168231999618,225.13274249999085,225.6329547999776,225.61637529998552,,,,,,,,,,,,,,,,,,,,,,,,,,225.61889539996628,225.6329547999776,225.6329547999776,225.6329547999776,228.63264779996825,228.63264779996825,228.63264779996825,228.6168120999937,f,1.8002101000165567,0.13616150000598282,228.6168560999795,228.61686749994988,None,,,,,,,,,,,,,,00063,001,2026-01-19_18h15.20.709,MST_task,2024.2.0,59.84981287167293,2026-01-19 18h15.36.954429 +0530,
,Scenes\134a.jpg,21,0,22,,,,,,,j,2.460006000008434,0.13599739997880533,None,,,,,,22,0,21,228.63264779996825,,,,,,,,,,,,,,,,,,,,,,,,,,,,,,228.6169724999927,228.63264779996825,229.13331219996326,229.11662929999875,,,,,,,,,,,,,,,,,,,,,,,,,,229.12834729999304,229.13331219996326,229.13331219996326,229.13331219996326,232.13270169997122,232.13270169997122,232.13270169997122,232.11674259998836,j,2.460006000008434,0.13599739997880533,232.11839319998398,232.11841080000158,None,,,,,,,,,,,,,,00063,001,2026-01-19_18h15.20.709,MST_task,2024.2.0,59.84981287167293,2026-01-19 18h15.36.954429 +0530,
,Scenes\158a.jpg,22,0,23,,,,,,,j,2.3037535000476055,0.16102010000031441,None,,,,,,23,0,22,232.13270169997122,,,,,,,,,,,,,,,,,,,,,,,,,,,,,,232.1185149999801,232.13270169997122,232.63331720000133,232.61647969996557,,,,,,,,,,,,,,,,,,,,,,,,,,232.62613979994785,232.63331720000133,232.63331720000133,232.63331720000133,235.6327451999532,235.6327451999532,235.6327451999532,235.6166216999991,j,2.3037535000476055,0.16102010000031441,235.61666259996127,235.61667319998378,None,,,,,,,,,,,,,,00063,001,2026-01-19_18h15.20.709,MST_task,2024.2.0,59.84981287167293,2026-01-19 18h15.36.954429 +0530,
,Scenes\103a.jpg,23,0,24,,,,,,,j,1.692446100001689,0.12035059998743236,None,,,,,,24,0,23,235.6327451999532,,,,,,,,,,,,,,,,,,,,,,,,,,,,,,235.61673999996856,235.6327451999532,236.13341679994483,236.1167023999733,,,,,,,,,,,,,,,,,,,,,,,,,,236.12725449999562,236.13341679994483,236.13341679994483,236.13341679994483,239.13267479999922,239.13267479999922,239.13267479999922,239.11672779999208,j,1.692446100001689,0.12035059998743236,239.11676919995807,239.11677979998058,None,,,,,,,,,,,,,,00063,001,2026-01-19_18h15.20.709,MST_task,2024.2.0,59.84981287167293,2026-01-19 18h15.36.954429 +0530,
,Scenes\110a.jpg,24,0,25,,,,,,,j,1.2649294000002556,0.11965320003218949,None,,,,,,25,0,24,239.13267479999922,,,,,,,,,,,,,,,,,,,,,,,,,,,,,,239.11687719996553,239.13267479999922,239.63325109996367,239.61647039995296,,,,,,,,,,,,,,,,,,,,,,,,,,239.62453409994487,239.63325109996367,239.63325109996367,239.63325109996367,242.6328044999973,242.6328044999973,242.6328044999973,242.61687999998685,j,1.2649294000002556,0.11965320003218949,242.61692389997188,242.6169349999982,None,,,,,,,,,,,,,,00063,001,2026-01-19_18h15.20.709,MST_task,2024.2.0,59.84981287167293,2026-01-19 18h15.36.954429 +0530,
,Scenes\073a.jpg,25,0,26,,,,,,,j,1.0843768000486307,0.168779400002677,None,,,,,,26,0,25,242.6328044999973,,,,,,,,,,,,,,,,,,,,,,,,,,,,,,242.61703490000218,242.6328044999973,243.133351699973,243.11636409995845,,,,,,,,,,,,,,,,,,,,,,,,,,243.12336309999228,243.133351699973,243.133351699973,243.133351699973,246.1326918999548,246.1326918999548,246.1326918999548,246.11667689995375,j,1.0843768000486307,0.168779400002677,246.11671859998023,246.11672999995062,None,,,,,,,,,,,,,,00063,001,2026-01-19_18h15.20.709,MST_task,2024.2.0,59.84981287167293,2026-01-19 18h15.36.954429 +0530,
,Scenes\168a.jpg,26,0,27,,,,,,,j,1.2414459999999963,0.1829876999836415,None,,,,,,27,0,26,246.1326918999548,,,,,,,,,,,,,,,,,,,,,,,,,,,,,,246.11683399998583,246.1326918999548,246.63326529995538,246.6163569999626,,,,,,,,,,,,,,,,,,,,,,,,,,246.6221560999984,246.63326529995538,246.63326529995538,246.63326529995538,249.63272379996488,249.63272379996488,249.63272379996488,249.6166148999473,j,1.2414459999999963,0.1829876999836415,249.61665589996846,249.6166666999925,None,,,,,,,,,,,,,,00063,001,2026-01-19_18h15.20.709,MST_task,2024.2.0,59.84981287167293,2026-01-19 18h15.36.954429 +0530,
,Scenes\126a.jpg,27,0,28,,,,,,,j,1.8755830000154674,0.1440063000191003,None,,,,,,28,0,27,249.63272379996488,,,,,,,,,,,,,,,,,,,,,,,,,,,,,,249.6167346999864,249.63272379996488,250.1335252999561,250.1164865999599,,,,,,,,,,,,,,,,,,,,,,,,,,250.12376759998733,250.1335252999561,250.1335252999561,250.1335252999561,253.13267139997333,253.13267139997333,253.13267139997333,253.11673269997118,j,1.8755830000154674,0.1440063000191003,253.1167742999969,253.1167851999635,None,,,,,,,,,,,,,,00063,001,2026-01-19_18h15.20.709,MST_task,2024.2.0,59.84981287167293,2026-01-19 18h15.36.954429 +0530,
,Objects\154a.jpg,28,0,29,,,,,,,j,2.2246957000461407,0.16013659996679053,None,,,,,,29,0,28,253.13267139997333,,,,,,,,,,,,,,,,,,,,,,,,,,,,,,253.1168813999975,253.13267139997333,253.63312459998997,253.6166886999854,,,,,,,,,,,,,,,,,,,,,,,,,,253.6220023999922,253.63312459998997,253.63312459998997,253.63312459998997,256.6327515000012,256.6327515000012,256.6327515000012,256.6172231999808,j,2.2246957000461407,0.16013659996679053,256.6194613999687,256.61948329996085,None,,,,,,,,,,,,,,00063,001,2026-01-19_18h15.20.709,MST_task,2024.2.0,59.84981287167293,2026-01-19 18h15.36.954429 +0530,
,Objects\091a.jpg,29,0,30,,,,,,,j,1.5249132000026293,0.13605079997796565,None,,,,,,30,0,29,256.6327515000012,,,,,,,,,,,,,,,,,,,,,,,,,,,,,,256.6196052999585,256.6327515000012,257.1329169999808,257.11645669996506,,,,,,,,,,,,,,,,,,,,,,,,,,257.1189689999446,257.1329169999808,257.1329169999808,257.1329169999808,260.1327327999752,260.1327327999752,260.1327327999752,260.11661039997125,j,1.5249132000026293,0.13605079997796565,260.1166518999962,260.11666269996203,None,,,,,,,,,,,,,,00063,001,2026-01-19_18h15.20.709,MST_task,2024.2.0,59.84981287167293,2026-01-19 18h15.36.954429 +0530,
,Objects\014a.jpg,30,0,31,,,,,,,f,1.5294054999831133,0.13591730000916868,None,,,,,,31,0,30,260.1327327999752,,,,,,,,,,,,,,,,,,,,,,,,,,,,,,260.1167582999915,260.1327327999752,260.6329542999738,260.61633689998416,,,,,,,,,,,,,,,,,,,,,,,,,,260.6190169999609,260.6329542999738,260.6329542999738,260.6329542999738,263.6330884999479,263.6330884999479,263.6330884999479,263.6173607999808,f,1.5294054999831133,0.13591730000916868,263.6174146999838,263.6174273999641,None,,,,,,,,,,,,,,00063,001,2026-01-19_18h15.20.709,MST_task,2024.2.0,59.84981287167293,2026-01-19 18h15.36.954429 +0530,
,Objects\045a.jpg,31,0,32,,,,,,,j,1.2846709999721497,0.16897890000836924,None,,,,,,32,0,31,263.6330884999479,,,,,,,,,,,,,,,,,,,,,,,,,,,,,,263.61757979996037,263.6330884999479,264.1330686999718,264.11641609994695,,,,,,,,,,,,,,,,,,,,,,,,,,264.1194295999594,264.1330686999718,264.1330686999718,264.1330686999718,267.1326838999521,267.1326838999521,267.1326838999521,267.1166321999626,j,1.2846709999721497,0.16897890000836924,267.1166731999838,267.1166842999519,None,,,,,,,,,,,,,,00063,001,2026-01-19_18h15.20.709,MST_task,2024.2.0,59.84981287167293,2026-01-19 18h15.36.954429 +0530,
,Objects\122a.jpg,32,0,33,,,,,,,f,1.8647060000221245,0.1279956999933347,None,,,,,,33,0,32,267.1326838999521,,,,,,,,,,,,,,,,,,,,,,,,,,,,,,267.1167817999958,267.1326838999521,267.6329805999994,267.61640419997275,,,,,,,,,,,,,,,,,,,,,,,,,,267.61901909997687,267.6329805999994,267.6329805999994,267.6329805999994,270.6326904000016,270.6326904000016,270.6326904000016,270.6168647999875,f,1.8647060000221245,0.1279956999933347,270.6169057999505,270.61691619997146,None,,,,,,,,,,,,,,00063,001,2026-01-19_18h15.20.709,MST_task,2024.2.0,59.84981287167293,2026-01-19 18h15.36.954429 +0530,
,Objects\112a.jpg,33,0,34,,,,,,,j,1.3885753999929875,0.1520005000056699,None,,,,,,34,0,33,270.6326904000016,,,,,,,,,,,,,,,,,,,,,,,,,,,,,,270.61698369996157,270.6326904000016,271.1330714999931,271.1166810999857,,,,,,,,,,,,,,,,,,,,,,,,,,271.1196743999608,271.1330714999931,271.1330714999931,271.1330714999931,274.1326941999723,274.1326941999723,274.1326941999723,274.11673329997575,j,1.3885753999929875,0.1520005000056699,274.1167745999992,274.1167854999658,None,,,,,,,,,,,,,,00063,001,2026-01-19_18h15.20.709,MST_task,2024.2.0,59.84981287167293,2026-01-19 18h15.36.954429 +0530,
,Objects\020a.jpg,34,0,35,,,,,,,f,1.1044589999946766,0.13697310001589358,None,,,,,,35,0,34,274.1326941999723,,,,,,,,,,,,,,,,,,,,,,,,,,,,,,274.116852099949,274.1326941999723,274.63296369998716,274.6163523999858,,,,,,,,,,,,,,,,,,,,,,,,,,274.61908249999397,274.63296369998716,274.63296369998716,274.63296369998716,277.6326735999901,277.6326735999901,277.6326735999901,277.61674649995985,f,1.1044589999946766,0.13697310001589358,277.6167921999586,277.6168032999849,None,,,,,,,,,,,,,,00063,001,2026-01-19_18h15.20.709,MST_task,2024.2.0,59.84981287167293,2026-01-19 18h15.36.954429 +0530,
,Scenes\166a.jpg,35,0,36,,,,,,,j,1.5557380999671295,0.14404039998771623,None,,,,,,36,0,35,277.6326735999901,,,,,,,,,,,,,,,,,,,,,,,,,,,,,,277.616910199984,277.6326735999901,278.13323329994455,278.1164182999637,,,,,,,,,,,,,,,,,,,,,,,,,,278.12388089997694,278.13323329994455,278.13323329994455,278.13323329994455,281.1327748999465,281.1327748999465,281.1327748999465,281.11677619995316,j,1.5557380999671295,0.14404039998771623,281.118468199973,281.11848699999973,None,,,,,,,,,,,,,,00063,001,2026-01-19_18h15.20.709,MST_task,2024.2.0,59.84981287167293,2026-01-19 18h15.36.954429 +0530,
,Scenes\159a.jpg,36,0,37,,,,,,,j,1.19226979999803,0.13602360000368208,None,,,,,,37,0,36,281.1327748999465,,,,,,,,,,,,,,,,,,,,,,,,,,,,,,281.11855859996285,281.1327748999465,281.63337409996893,281.61657309997827,,,,,,,,,,,,,,,,,,,,,,,,,,281.62796099996194,281.63337409996893,281.63337409996893,281.63337409996893,284.63289569999324,284.63289569999324,284.63289569999324,284.61672219994944,j,1.19226979999803,0.13602360000368208,284.6167674999451,284.6167786999722,None,,,,,,,,,,,,,,00063,001,2026-01-19_18h15.20.709,MST_task,2024.2.0,59.84981287167293,2026-01-19 18h15.36.954429 +0530,
,Scenes\050a.jpg,37,0,38,,,,,,,j,1.1723259999998845,0.1755663999938406,None,,,,,,38,0,37,284.63289569999324,,,,,,,,,,,,,,,,,,,,,,,,,,,,,,284.6168844999629,284.63289569999324,285.1333492999547,285.1165908999974,,,,,,,,,,,,,,,,,,,,,,,,,,285.1234977999702,285.1333492999547,285.1333492999547,285.1333492999547,288.1328541999683,288.1328541999683,288.1328541999683,288.1168436000007,j,1.1723259999998845,0.1755663999938406,288.11688489996595,288.11689579999074,None,,,,,,,,,,,,,,00063,001,2026-01-19_18h15.20.709,MST_task,2024.2.0,59.84981287167293,2026-01-19 18h15.36.954429 +0530,
,Scenes\144a.jpg,38,0,39,,,,,,,j,1.4083630999666639,0.14318480005022138,None,,,,,,39,0,38,288.1328541999683,,,,,,,,,,,,,,,,,,,,,,,,,,,,,,288.11699429998407,288.1328541999683,288.6334915999905,288.61654079996515,,,,,,,,,,,,,,,,,,,,,,,,,,288.6235771999927,288.6334915999905,288.6334915999905,288.6334915999905,291.6329431999475,291.6329431999475,291.6329431999475,291.6168327999767,j,1.4083630999666639,0.14318480005022138,291.61687399999937,291.61688469996443,None,,,,,,,,,,,,,,00063,001,2026-01-19_18h15.20.709,MST_task,2024.2.0,59.84981287167293,2026-01-19 18h15.36.954429 +0530,
,Scenes\104a.jpg,39,0,40,,,,,,,j,1.8769829999655485,0.15112460003001615,None,,,,,,40,0,39,291.6329431999475,,,,,,,,,,,,,,,,,,,,,,,,,,,,,,291.61698189994786,291.6329431999475,292.1333273999626,292.1165871999692,,,,,,,,,,,,,,,,,,,,,,,,,,292.12585159996524,292.1333273999626,292.1333273999626,292.1333273999626,295.13285939994967,295.13285939994967,295.13285939994967,295.1168673999491,j,1.8769829999655485,0.15112460003001615,295.11690719996113,295.11691719997907,None,,,,,,,,,,,,,,00063,001,2026-01-19_18h15.20.709,MST_task,2024.2.0,59.84981287167293,2026-01-19 18h15.36.954429 +0530,
,Scenes\024a.jpg,40,0,41,,,,,,,j,1.607580500014592,0.15324419998796657,None,,,,,,41,0,40,295.13285939994967,,,,,,,,,,,,,,,,,,,,,,,,,,,,,,295.11698369996157,295.13285939994967,295.6334735999699,295.6165403999621,,,,,,,,,,,,,,,,,,,,,,,,,,295.62224879994756,295.6334735999699,295.6334735999699,295.6334735999699,298.6326572999824,298.6326572999824,298.6326572999824,298.616837199952,j,1.607580500014592,0.15324419998796657,298.61688879999565,298.61689989996376,None,,,,,,,,,,,,,,00063,001,2026-01-19_18h15.20.709,MST_task,2024.2.0,59.84981287167293,2026-01-19 18h15.36.954429 +0530,
,Scenes\078a.jpg,41,0,42,,,,,,,j,2.196240100020077,0.1758138999575749,None,,,,,,42,0,41,298.6326572999824,,,,,,,,,,,,,,,,,,,,,,,,,,,,,,298.61700489994837,298.6326572999824,299.1335363999824,299.1165408999659,,,,,,,,,,,,,,,,,,,,,,,,,,299.12518819997786,299.1335363999824,299.1335363999824,299.1335363999824,302.13284569996176,302.13284569996176,302.13284569996176,302.1168684999575,j,2.196240100020077,0.1758138999575749,302.11690899997484,302.11691979999887,None,,,,,,,,,,,,,,00063,001,2026-01-19_18h15.20.709,MST_task,2024.2.0,59.84981287167293,2026-01-19 18h15.36.954429 +0530,
,Objects\156a.jpg,42,0,43,,,,,,,j,2.1516337000066414,0.1760513000190258,None,,,,,,43,0,42,302.13284569996176,,,,,,,,,,,,,,,,,,,,,,,,,,,,,,302.1170153999701,302.13284569996176,302.63333240000065,302.6165207999875,,,,,,,,,,,,,,,,,,,,,,,,,,302.62191449996317,302.63333240000065,302.63333240000065,302.63333240000065,305.63284729997395,305.63284729997395,305.63284729997395,305.61686809995444,j,2.1516337000066414,0.1760513000190258,305.6188883999712,305.61890399997355,None,,,,,,,,,,,,,,00063,001,2026-01-19_18h15.20.709,MST_task,2024.2.0,59.84981287167293,2026-01-19 18h15.36.954429 +0530,
,Objects\051a.jpg,43,0,44,,,,,,,j,1.5721546999993734,0.16801069997018203,None,,,,,,44,0,43,305.63284729997395,,,,,,,,,,,,,,,,,,,,,,,,,,,,,,305.6189726999728,305.63284729997395,306.13311819999944,306.11662439996144,,,,,,,,,,,,,,,,,,,,,,,,,,306.11950059997616,306.13311819999944,306.13311819999944,306.13311819999944,309.13286839996,309.13286839996,309.13286839996,309.1168826999492,j,1.5721546999993734,0.16801069997018203,309.1169299999601,309.11694129998796,None,,,,,,,,,,,,,,00063,001,2026-01-19_18h15.20.709,MST_task,2024.2.0,59.84981287167293,2026-01-19 18h15.36.954429 +0530,
,Objects\137a.jpg,44,0,45,,,,,,,j,1.3685433000209741,0.19981079996796325,None,,,,,,45,0,44,309.13286839996,,,,,,,,,,,,,,,,,,,,,,,,,,,,,,309.11701089999406,309.13286839996,309.6329974999535,309.6163942999556,,,,,,,,,,,,,,,,,,,,,,,,,,309.619142999989,309.6329974999535,309.6329974999535,309.6329974999535,312.6327094999724,312.6327094999724,312.6327094999724,312.6172413000022,j,1.3685433000209741,0.19981079996796325,312.61728209996363,312.6172924999846,None,,,,,,,,,,,,,,00063,001,2026-01-19_18h15.20.709,MST_task,2024.2.0,59.84981287167293,2026-01-19 18h15.36.954429 +0530,
,Objects\109a.jpg,45,0,46,,,,,,,j,2.0770731000229716,0.13494710001396015,None,,,,,,46,0,45,312.6327094999724,,,,,,,,,,,,,,,,,,,,,,,,,,,,,,312.6173594999709,312.6327094999724,313.1331542999833,313.11643649998587,,,,,,,,,,,,,,,,,,,,,,,,,,313.1261644999613,313.1331542999833,313.1331542999833,313.1331542999833,316.1326869999757,316.1326869999757,316.1326869999757,316.11684299999615,j,2.0770731000229716,0.13494710001396015,316.11688719998347,316.11689779994776,None,,,,,,,,,,,,,,00063,001,2026-01-19_18h15.20.709,MST_task,2024.2.0,59.84981287167293,2026-01-19 18h15.36.954429 +0530,
,Objects\094a.jpg,46,0,47,,,,,,,f,1.5521536000305787,0.1369678999762982,None,,,,,,47,0,46,316.1326869999757,,,,,,,,,,,,,,,,,,,,,,,,,,,,,,316.1170099999872,316.1326869999757,316.6328838999616,316.6164342999691,,,,,,,,,,,,,,,,,,,,,,,,,,316.6190350999823,316.6328838999616,316.6328838999616,316.6328838999616,319.6327397999703,319.6327397999703,319.6327397999703,319.6166811999865,f,1.5521536000305787,0.1369678999762982,319.616722799954,319.6167333999765,None,,,,,,,,,,,,,,00063,001,2026-01-19_18h15.20.709,MST_task,2024.2.0,59.84981287167293,2026-01-19 18h15.36.954429 +0530,
,Objects\176a.jpg,47,0,48,,,,,,,j,1.5319482000195421,0.152953399985563,None,,,,,,48,0,47,319.6327397999703,,,,,,,,,,,,,,,,,,,,,,,,,,,,,,319.6168381999596,319.6327397999703,320.1332207999658,320.11635999998543,,,,,,,,,,,,,,,,,,,,,,,,,,320.12601359997643,320.1332207999658,320.1332207999658,320.1332207999658,323.132878799981,323.132878799981,323.132878799981,323.11686449998524,j,1.5319482000195421,0.152953399985563,323.1169119999977,323.1169232999673,None,,,,,,,,,,,,,,00063,001,2026-01-19_18h15.20.709,MST_task,2024.2.0,59.84981287167293,2026-01-19 18h15.36.954429 +0530,
,Objects\006a.jpg,48,0,49,,,,,,,f,1.2888195000123233,0.14390799996908754,None,,,,,,49,0,48,323.132878799981,,,,,,,,,,,,,,,,,,,,,,,,,,,,,,323.1170330999885,323.132878799981,323.63304759998573,323.61674909997964,,,,,,,,,,,,,,,,,,,,,,,,,,323.6197190999519,323.63304759998573,323.63304759998573,323.63304759998573,326.6326965999906,326.6326965999906,326.6326965999906,326.6167654999881,f,1.2888195000123233,0.14390799996908754,326.6168070999556,326.6168174999766,None,,,,,,,,,,,,,,00063,001,2026-01-19_18h15.20.709,MST_task,2024.2.0,59.84981287167293,2026-01-19 18h15.36.954429 +0530,
,Scenes\001a.jpg,49,0,50,,,,,,,f,2.204522799991537,0.14490290003595874,None,,,,,,50,0,49,326.6326965999906,,,,,,,,,,,,,,,,,,,,,,,,,,,,,,326.6168849999667,326.6326965999906,327.1404432999552,327.11655739997514,,,,,,,,,,,,,,,,,,,,,,,,,,327.13809109997237,327.1404432999552,327.1404432999552,327.1404432999552,,,,330.1330305999727,f,2.204522799991537,0.14490290003595874,330.13463849999243,330.13465679995716,None,,,,,,,,,,,,,,00063,001,2026-01-19_18h15.20.709,MST_task,2024.2.0,59.84981287167293,2026-01-19 18h15.36.954429 +0530,
,Scenes\119a.jpg,50,0,51,,,,,,,j,1.3193695000372827,0.12797869998030365,None,,,,,,51,0,50,330.14945309999166,,,,,,,,,,,,,,,,,,,,,,,,,,,,,,330.13475929998094,330.14945309999166,330.65018319996307,330.63296779996017,,,,,,,,,,,,,,,,,,,,,,,,,,330.643199299986,330.65018319996307,330.65018319996307,330.65018319996307,333.6494937999523,333.6494937999523,333.6494937999523,333.6334124999703,j,1.3193695000372827,0.12797869998030365,333.63345809996827,333.63346949999686,None,,,,,,,,,,,,,,00063,001,2026-01-19_18h15.20.709,MST_task,2024.2.0,59.84981287167293,2026-01-19 18h15.36.954429 +0530,
,Scenes\165a.jpg,51,0,52,,,,,,,j,1.6443365999730304,0.14348930004052818,None,,,,,,52,0,51,333.6494937999523,,,,,,,,,,,,,,,,,,,,,,,,,,,,,,333.6335718999617,333.6494937999523,334.15009139996255,334.13291149999714,,,,,,,,,,,,,,,,,,,,,,,,,,334.14190789998975,334.15009139996255,334.15009139996255,334.15009139996255,337.1494937999523,337.1494937999523,337.1494937999523,337.1334343999624,j,1.6443365999730304,0.14348930004052818,337.1334740999737,337.1334843999939,None,,,,,,,,,,,,,,00063,001,2026-01-19_18h15.20.709,MST_task,2024.2.0,59.84981287167293,2026-01-19 18h15.36.954429 +0530,
,Scenes\186a.jpg,52,0,53,,,,,,,j,2.8392177000059746,None,None,,,,,,53,0,52,337.1494937999523,,,,,,,,,,,,,,,,,,,,,,,,,,,,,,337.1335495999665,337.1494937999523,337.65010489994893,337.63299009995535,,,,,,,,,,,,,,,,,,,,,,,,,,337.6395659999689,337.65010489994893,337.65010489994893,337.65010489994893,340.64945129997795,340.64945129997795,340.64945129997795,340.6336276999791,j,2.8392177000059746,None,340.6336693999474,340.63367989996914,None,,,,,,,,,,,,,,00063,001,2026-01-19_18h15.20.709,MST_task,2024.2.0,59.84981287167293,2026-01-19 18h15.36.954429 +0530,
,Scenes\013a.jpg,53,0,54,,,,,,,j,2.3313416999881156,0.1682009000214748,None,,,,,,54,0,53,340.64945129997795,,,,,,,,,,,,,,,,,,,,,,,,,,,,,,340.63374559994554,340.64945129997795,341.15013489994453,341.13312019995647,,,,,,,,,,,,,,,,,,,,,,,,,,341.14251479995437,341.15013489994453,341.15013489994453,341.15013489994453,344.1494545000023,344.1494545000023,344.1494545000023,344.13343429996166,j,2.3313416999881156,0.1682009000214748,344.1334745999775,344.13348530000076,None,,,,,,,,,,,,,,00063,001,2026-01-19_18h15.20.709,MST_task,2024.2.0,59.84981287167293,2026-01-19 18h15.36.954429 +0530,
,Scenes\040a.jpg,54,0,55,,,,,,,f,2.4313259999617003,0.12801670003682375,None,,,,,,55,0,54,344.1494545000023,,,,,,,,,,,,,,,,,,,,,,,,,,,,,,344.13358470000094,344.1494545000023,344.65016049996484,344.63295909995213,,,,,,,,,,,,,,,,,,,,,,,,,,344.64260799996555,344.65016049996484,344.65016049996484,344.65016049996484,347.64953119994607,347.64953119994607,347.64953119994607,347.6334742999752,f,2.4313259999617003,0.12801670003682375,347.6335148999933,347.63352669996675,None,,,,,,,,,,,,,,00063,001,2026-01-19_18h15.20.709,MST_task,2024.2.0,59.84981287167293,2026-01-19 18h15.36.954429 +0530,
,Scenes\115a.jpg,55,0,56,,,,,,,j,1.9312095000059344,0.17687859997386113,None,,,,,,56,0,55,347.64953119994607,,,,,,,,,,,,,,,,,,,,,,,,,,,,,,347.63362549996236,347.64953119994607,348.1498407999752,348.13296029996127,,,,,,,,,,,,,,,,,,,,,,,,,,348.1401385999634,348.1498407999752,348.1498407999752,348.1498407999752,351.1495820999844,351.1495820999844,351.1495820999844,351.1332682999782,j,1.9312095000059344,0.17687859997386113,351.1333117999602,351.13332259998424,None,,,,,,,,,,,,,,00063,001,2026-01-19_18h15.20.709,MST_task,2024.2.0,59.84981287167293,2026-01-19 18h15.36.954429 +0530,
,Objects\005a.jpg,56,0,57,,,,,,,f,1.0871505999821238,0.13652619998902082,None,,,,,,57,0,56,351.1495820999844,,,,,,,,,,,,,,,,,,,,,,,,,,,,,,351.1333982999786,351.1495820999844,351.64999299997,351.632985299977,,,,,,,,,,,,,,,,,,,,,,,,,,351.6383349999669,351.64999299997,351.64999299997,351.64999299997,354.6495122999768,354.6495122999768,354.6495122999768,354.6334103999543,f,1.0871505999821238,0.13652619998902082,354.635484599974,354.6355016999878,None,,,,,,,,,,,,,,00063,001,2026-01-19_18h15.20.709,MST_task,2024.2.0,59.84981287167293,2026-01-19 18h15.36.954429 +0530,
,Objects\052a.jpg,57,0,58,,,,,,,f,1.4033189000329003,0.1533322000177577,None,,,,,,58,0,57,354.6495122999768,,,,,,,,,,,,,,,,,,,,,,,,,,,,,,354.6356116999523,354.6495122999768,355.14969219994964,355.1329492999939,,,,,,,,,,,,,,,,,,,,,,,,,,355.13544519996503,355.14969219994964,355.14969219994964,355.14969219994964,358.1497256999719,358.1497256999719,358.1497256999719,358.13334609998856,f,1.4033189000329003,0.1533322000177577,358.1333930999972,358.13340379996225,None,,,,,,,,,,,,,,00063,001,2026-01-19_18h15.20.709,MST_task,2024.2.0,59.84981287167293,2026-01-19 18h15.36.954429 +0530,
,Objects\147a.jpg,58,0,59,,,,,,,j,2.9275498999631964,None,None,,,,,,59,0,58,358.1497256999719,,,,,,,,,,,,,,,,,,,,,,,,,,,,,,358.13347129995236,358.1497256999719,358.64984479994746,358.6332096999977,,,,,,,,,,,,,,,,,,,,,,,,,,358.6364157999633,358.64984479994746,358.64984479994746,358.64984479994746,361.64949689997593,361.64949689997593,361.64949689997593,361.6333244999987,j,2.9275498999631964,None,361.6333894999698,361.6334007999976,None,,,,,,,,,,,,,,00063,001,2026-01-19_18h15.20.709,MST_task,2024.2.0,59.84981287167293,2026-01-19 18h15.36.954429 +0530,
,Objects\064a.jpg,59,0,60,,,,,,,f,1.3474191999994218,0.12871249997988343,None,,,,,,60,0,59,361.64949689997593,,,,,,,,,,,,,,,,,,,,,,,,,,,,,,361.6334686999908,361.64949689997593,362.1496611999464,362.13302349997684,,,,,,,,,,,,,,,,,,,,,,,,,,362.13571159995627,362.1496611999464,362.1496611999464,362.1496611999464,365.1499166999711,365.1499166999711,365.1499166999711,365.1333326000022,f,1.3474191999994218,0.12871249997988343,365.13337409996893,365.1336147999973,None,,,,,,,,,,,,,,00063,001,2026-01-19_18h15.20.709,MST_task,2024.2.0,59.84981287167293,2026-01-19 18h15.36.954429 +0530,
,Objects\089a.jpg,60,0,61,,,,,,,j,1.536431199987419,0.1749040000140667,None,,,,,,61,0,60,365.1499166999711,,,,,,,,,,,,,,,,,,,,,,,,,,,,,,365.13372539996635,365.1499166999711,365.64973359997384,365.63304909999715,,,,,,,,,,,,,,,,,,,,,,,,,,365.63594579999335,365.64973359997384,365.64973359997384,365.64973359997384,368.64952939999057,368.64952939999057,368.64952939999057,368.6335322999512,j,1.536431199987419,0.1749040000140667,368.6335801999667,368.63359169999603,None,,,,,,,,,,,,,,00063,001,2026-01-19_18h15.20.709,MST_task,2024.2.0,59.84981287167293,2026-01-19 18h15.36.954429 +0530,
,Objects\021a.jpg,61,0,62,,,,,,,j,1.612442200013902,0.13502560002962127,None,,,,,,62,0,61,368.64952939999057,,,,,,,,,,,,,,,,,,,,,,,,,,,,,,368.6337003999506,368.64952939999057,369.14986419997877,369.1332276999601,,,,,,,,,,,,,,,,,,,,,,,,,,369.13613849994726,369.14986419997877,369.14986419997877,369.14986419997877,372.149845399952,372.149845399952,372.149845399952,372.1338838999509,j,1.612442200013902,0.13502560002962127,372.13393599999836,372.1339521999471,None,,,,,,,,,,,,,,00063,001,2026-01-19_18h15.20.709,MST_task,2024.2.0,59.84981287167293,2026-01-19 18h15.36.954429 +0530,
,Objects\119a.jpg,62,0,63,,,,,,,f,2.2002770000253804,0.13501139997970313,None,,,,,,63,0,62,372.149845399952,,,,,,,,,,,,,,,,,,,,,,,,,,,,,,372.13403169997036,372.149845399952,372.64973819995066,372.6332657999592,,,,,,,,,,,,,,,,,,,,,,,,,,372.6433632999542,372.64973819995066,372.64973819995066,372.64973819995066,375.64954389998456,375.64954389998456,375.64954389998456,375.63337739999406,f,2.2002770000253804,0.13501139997970313,375.6334207999753,375.6334317000001,None,,,,,,,,,,,,,,00063,001,2026-01-19_18h15.20.709,MST_task,2024.2.0,59.84981287167293,2026-01-19 18h15.36.954429 +0530,
,Scenes\011a.jpg,63,0,64,,,,,,,j,2.427549700019881,0.14421439997386187,None,,,,,,64,0,63,375.64954389998456,,,,,,,,,,,,,,,,,,,,,,,,,,,,,,375.6335374999908,375.64954389998456,376.15016669995384,376.1331844999804,,,,,,,,,,,,,,,,,,,,,,,,,,376.14721409999765,376.15016669995384,376.15016669995384,376.15016669995384,379.1495313999476,379.1495313999476,379.1495313999476,379.13325679994887,j,2.427549700019881,0.14421439997386187,379.13488939998206,379.1349062999943,None,,,,,,,,,,,,,,00063,001,2026-01-19_18h15.20.709,MST_task,2024.2.0,59.84981287167293,2026-01-19 18h15.36.954429 +0530,
,Scenes\080a.jpg,64,0,65,,,,,,,j,1.5753791999886744,0.1439465000294149,None,,,,,,65,0,64,379.1495313999476,,,,,,,,,,,,,,,,,,,,,,,,,,,,,,379.1350079999538,379.1495313999476,379.6501085999771,379.6330492999987,,,,,,,,,,,,,,,,,,,,,,,,,,379.6399692999548,379.6501085999771,379.6501085999771,379.6501085999771,382.6494884999702,382.6494884999702,382.6494884999702,382.6333544999943,j,1.5753791999886744,0.1439465000294149,382.63339629996335,382.6334069999866,None,,,,,,,,,,,,,,00063,001,2026-01-19_18h15.20.709,MST_task,2024.2.0,59.84981287167293,2026-01-19 18h15.36.954429 +0530,
,Scenes\003a.jpg,65,0,66,,,,,,,f,2.5071760999853723,0.1602600000333041,None,,,,,,66,0,65,382.6494884999702,,,,,,,,,,,,,,,,,,,,,,,,,,,,,,382.6335281999782,382.6494884999702,383.15014699997846,383.13323769997805,,,,,,,,,,,,,,,,,,,,,,,,,,383.1442059999681,383.15014699997846,383.15014699997846,383.15014699997846,386.1495191999711,386.1495191999711,386.1495191999711,386.1334533999907,f,2.5071760999853723,0.1602600000333041,386.1334967999719,386.1335146999918,None,,,,,,,,,,,,,,00063,001,2026-01-19_18h15.20.709,MST_task,2024.2.0,59.84981287167293,2026-01-19 18h15.36.954429 +0530,
,Scenes\177a.jpg,66,0,67,,,,,,,j,1.7754885000176728,0.1903376000118442,None,,,,,,67,0,66,386.1495191999711,,,,,,,,,,,,,,,,,,,,,,,,,,,,,,386.1336217999924,386.1495191999711,386.65160419995664,386.6330351999495,,,,,,,,,,,,,,,,,,,,,,,,,,386.6493944999529,386.65160419995664,386.65160419995664,386.65160419995664,,,,389.6497742999927,j,1.7754885000176728,0.1903376000118442,389.6498239999637,389.6498369999463,None,,,,,,,,,,,,,,00063,001,2026-01-19_18h15.20.709,MST_task,2024.2.0,59.84981287167293,2026-01-19 18h15.36.954429 +0530,
,Scenes\090a.jpg,67,0,68,,,,,,,j,1.7625917000113986,0.1679905999917537,None,,,,,,68,0,67,389.6663073999807,,,,,,,,,,,,,,,,,,,,,,,,,,,,,,389.6499114999897,389.6663073999807,390.16665819997434,390.1497435999918,,,,,,,,,,,,,,,,,,,,,,,,,,390.1603989999858,390.16665819997434,390.16665819997434,390.16665819997434,393.1662122999551,393.1662122999551,393.1662122999551,393.15001089998987,j,1.7625917000113986,0.1679905999917537,393.1500529999612,393.15006319998065,None,,,,,,,,,,,,,,00063,001,2026-01-19_18h15.20.709,MST_task,2024.2.0,59.84981287167293,2026-01-19 18h15.36.954429 +0530,
,Scenes\032a.jpg,68,0,69,,,,,,,j,1.1561497999937274,0.17597510002087802,None,,,,,,69,0,68,393.1662122999551,,,,,,,,,,,,,,,,,,,,,,,,,,,,,,393.1501615999732,393.1662122999551,393.6696222999599,393.6504268999561,,,,,,,,,,,,,,,,,,,,,,,,,,393.66620359994704,393.6696222999599,393.6696222999599,393.6696222999599,,,,396.6664913999848,j,1.1561497999937274,0.17597510002087802,396.66653940000106,396.66655209998135,None,,,,,,,,,,,,,,00063,001,2026-01-19_18h15.20.709,MST_task,2024.2.0,59.84981287167293,2026-01-19 18h15.36.954429 +0530,
,Scenes\092a.jpg,69,0,70,,,,,,,j,1.0668741000117734,0.17565659998217598,None,,,,,,70,0,69,396.68282339995494,,,,,,,,,,,,,,,,,,,,,,,,,,,,,,396.666630599997,396.68282339995494,397.1835176999448,397.166439099994,,,,,,,,,,,,,,,,,,,,,,,,,,397.1747382999747,397.1835176999448,397.1835176999448,397.1835176999448,400.18297339999117,400.18297339999117,400.18297339999117,400.16683699999703,j,1.0668741000117734,0.17565659998217598,400.1668792999699,400.16688999999315,None,,,,,,,,,,,,,,00063,001,2026-01-19_18h15.20.709,MST_task,2024.2.0,59.84981287167293,2026-01-19 18h15.36.954429 +0530,
,Objects\188a.jpg,70,0,71,,,,,,,f,1.6626470999908634,0.15101530001265928,None,,,,,,71,0,70,400.18297339999117,,,,,,,,,,,,,,,,,,,,,,,,,,,,,,400.16695729998173,400.18297339999117,400.68340290000197,400.6667149999994,,,,,,,,,,,,,,,,,,,,,,,,,,400.67227559996536,400.68340290000197,400.68340290000197,400.68340290000197,403.68286760000046,403.68286760000046,403.68286760000046,403.6670996999601,f,1.6626470999908634,0.15101530001265928,403.6691637999611,403.6691821999848,None,,,,,,,,,,,,,,00063,001,2026-01-19_18h15.20.709,MST_task,2024.2.0,59.84981287167293,2026-01-19 18h15.36.954429 +0530,
,Objects\058a.jpg,71,0,72,,,,,,,f,1.1704573999741115,0.159998600021936,None,,,,,,72,0,71,403.68286760000046,,,,,,,,,,,,,,,,,,,,,,,,,,,,,,403.669294399966,403.68286760000046,404.1831135999528,404.16684909997275,,,,,,,,,,,,,,,,,,,,,,,,,,404.1694405999733,404.1831135999528,404.1831135999528,404.1831135999528,407.18286739999894,407.18286739999894,407.18286739999894,407.1668641999713,f,1.1704573999741115,0.159998600021936,407.1669027999742,407.1669131999952,None,,,,,,,,,,,,,,00063,001,2026-01-19_18h15.20.709,MST_task,2024.2.0,59.84981287167293,2026-01-19 18h15.36.954429 +0530,
,Objects\034a.jpg,72,0,73,,,,,,,f,1.3747039000154473,0.17591699998592958,None,,,,,,73,0,72,407.18286739999894,,,,,,,,,,,,,,,,,,,,,,,,,,,,,,407.1669796999777,407.18286739999894,407.6831562999869,407.6666501999716,,,,,,,,,,,,,,,,,,,,,,,,,,407.6696283999481,407.6831562999869,407.6831562999869,407.6831562999869,410.68288599996595,410.68288599996595,410.68288599996595,410.6668171999627,f,1.3747039000154473,0.17591699998592958,410.66685789998155,410.66686879994813,None,,,,,,,,,,,,,,00063,001,2026-01-19_18h15.20.709,MST_task,2024.2.0,59.84981287167293,2026-01-19 18h15.36.954429 +0530,
,Objects\075a.jpg,73,0,74,,,,,,,f,1.3070479999878444,0.12696389999473467,None,,,,,,74,0,73,410.68288599996595,,,,,,,,,,,,,,,,,,,,,,,,,,,,,,410.6669759999495,410.68288599996595,411.18297629995504,411.1666096999543,,,,,,,,,,,,,,,,,,,,,,,,,,411.1693479999667,411.18297629995504,411.18297629995504,411.18297629995504,414.1828702999628,414.1828702999628,414.1828702999628,414.16687429999,f,1.3070479999878444,0.12696389999473467,414.1669133999967,414.1669236999587,None,,,,,,,,,,,,,,00063,001,2026-01-19_18h15.20.709,MST_task,2024.2.0,59.84981287167293,2026-01-19 18h15.36.954429 +0530,
,Objects\019a.jpg,74,0,75,,,,,,,j,1.870426299981773,0.16023560002213344,None,,,,,,75,0,74,414.1828702999628,,,,,,,,,,,,,,,,,,,,,,,,,,,,,,414.1670215999475,414.1828702999628,414.6831080999691,414.66655849997187,,,,,,,,,,,,,,,,,,,,,,,,,,414.66952049999963,414.6831080999691,414.6831080999691,414.6831080999691,417.6828532999498,417.6828532999498,417.6828532999498,417.6673793999944,j,1.870426299981773,0.16023560002213344,417.6674274999532,417.66743929998484,None,,,,,,,,,,,,,,00063,001,2026-01-19_18h15.20.709,MST_task,2024.2.0,59.84981287167293,2026-01-19 18h15.36.954429 +0530,
,Objects\077a.jpg,75,0,76,,,,,,,j,2.474213499983307,0.12858800002140924,None,,,,,,76,0,75,417.6828532999498,,,,,,,,,,,,,,,,,,,,,,,,,,,,,,417.66750889999093,417.6828532999498,418.1830984999542,418.1664931999985,,,,,,,,,,,,,,,,,,,,,,,,,,418.1702834999887,418.1830984999542,418.1830984999542,418.1830984999542,421.18348359997617,421.18348359997617,421.18348359997617,421.167301199981,j,2.474213499983307,0.12858800002140924,421.16735279996647,421.16736500000115,None,,,,,,,,,,,,,,00063,001,2026-01-19_18h15.20.709,MST_task,2024.2.0,59.84981287167293,2026-01-19 18h15.36.954429 +0530,
,Objects\183a.jpg,76,0,77,,,,,,,j,0.9580380999832414,0.1279396999743767,None,,,,,,77,0,76,421.18348359997617,,,,,,,,,,,,,,,,,,,,,,,,,,,,,,421.1674825999653,421.18348359997617,421.6833597999648,421.66740919998847,,,,,,,,,,,,,,,,,,,,,,,,,,421.6710902999621,421.6833597999648,421.6833597999648,421.6833597999648,424.6829471999663,424.6829471999663,424.6829471999663,424.6670558999758,j,0.9580380999832414,0.1279396999743767,424.6671051000012,424.66711789998226,None,,,,,,,,,,,,,,00063,001,2026-01-19_18h15.20.709,MST_task,2024.2.0,59.84981287167293,2026-01-19 18h15.36.954429 +0530,
,Scenes\176a.jpg,77,0,78,,,,,,,j,1.5947294000070542,0.17618960002437234,None,,,,,,78,0,77,424.6829471999663,,,,,,,,,,,,,,,,,,,,,,,,,,,,,,424.6672305999673,424.6829471999663,425.18342929997016,425.16654089995427,,,,,,,,,,,,,,,,,,,,,,,,,,425.17992619995493,425.18342929997016,425.18342929997016,425.18342929997016,428.18297470000107,428.18297470000107,428.18297470000107,428.1667620999506,j,1.5947294000070542,0.17618960002437234,428.16838389995974,428.1684010999743,None,,,,,,,,,,,,,,00063,001,2026-01-19_18h15.20.709,MST_task,2024.2.0,59.84981287167293,2026-01-19 18h15.36.954429 +0530,
,Scenes\122a.jpg,78,0,79,,,,,,,f,2.694354499981273,0.12784420000389218,None,,,,,,79,0,78,428.18297470000107,,,,,,,,,,,,,,,,,,,,,,,,,,,,,,428.1684718999895,428.18297470000107,428.6835269999574,428.66652339999564,,,,,,,,,,,,,,,,,,,,,,,,,,428.67688659997657,428.6835269999574,428.6835269999574,428.6835269999574,431.6827484999667,431.6827484999667,431.6827484999667,431.66706539998995,f,2.694354499981273,0.12784420000389218,431.6671231999644,431.6671358999447,None,,,,,,,,,,,,,,00063,001,2026-01-19_18h15.20.709,MST_task,2024.2.0,59.84981287167293,2026-01-19 18h15.36.954429 +0530,
,Scenes\100a.jpg,79,0,80,,,,,,,f,2.3219381000380963,0.15201779996277764,None,,,,,,80,0,79,431.6827484999667,,,,,,,,,,,,,,,,,,,,,,,,,,,,,,431.667246899975,431.6827484999667,432.18389629997546,432.16700179997133,,,,,,,,,,,,,,,,,,,,,,,,,,432.17606859997613,432.18389629997546,432.18389629997546,432.18389629997546,435.18286059994716,435.18286059994716,435.18286059994716,435.16686309996294,f,2.3219381000380963,0.15201779996277764,435.1669027999742,435.1669130999944,None,,,,,,,,,,,,,,00063,001,2026-01-19_18h15.20.709,MST_task,2024.2.0,59.84981287167293,2026-01-19 18h15.36.954429 +0530,
,Scenes\091a.jpg,80,0,81,,,,,,,j,1.886472699989099,0.14315819996409118,None,,,,,,81,0,80,435.18286059994716,,,,,,,,,,,,,,,,,,,,,,,,,,,,,,435.16701029997785,435.18286059994716,435.68356519995723,435.6665847999975,,,,,,,,,,,,,,,,,,,,,,,,,,435.67284399998607,435.68356519995723,435.68356519995723,435.68356519995723,438.68278329999885,438.68278329999885,438.68278329999885,438.6670334999799,j,1.886472699989099,0.14315819996409118,438.66708009998547,438.6670911999536,None,,,,,,,,,,,,,,00063,001,2026-01-19_18h15.20.709,MST_task,2024.2.0,59.84981287167293,2026-01-19 18h15.36.954429 +0530,
,Scenes\142a.jpg,81,0,82,,,,,,,j,1.3697764999815263,0.17583610001020133,None,,,,,,82,0,81,438.68278329999885,,,,,,,,,,,,,,,,,,,,,,,,,,,,,,438.6672056999523,438.68278329999885,439.1835263999528,439.1665216999827,,,,,,,,,,,,,,,,,,,,,,,,,,439.17531929997494,439.1835263999528,439.1835263999528,439.1835263999528,442.18289169995114,442.18289169995114,442.18289169995114,442.1669154999545,j,1.3697764999815263,0.17583610001020133,442.16695539996726,442.16696599998977,None,,,,,,,,,,,,,,00063,001,2026-01-19_18h15.20.709,MST_task,2024.2.0,59.84981287167293,2026-01-19 18h15.36.954429 +0530,
,Scenes\172a.jpg,82,0,83,,,,,,,j,0.9023759000119753,0.18384780001360923,None,,,,,,83,0,82,442.18289169995114,,,,,,,,,,,,,,,,,,,,,,,,,,,,,,442.1670621999656,442.18289169995114,442.6835998999886,442.66659499995876,,,,,,,,,,,,,,,,,,,,,,,,,,442.673542799952,442.6835998999886,442.6835998999886,442.6835998999886,445.6829060000018,445.6829060000018,445.6829060000018,445.666811699979,j,0.9023759000119753,0.18384780001360923,445.66685219999636,445.6668626999599,None,,,,,,,,,,,,,,00063,001,2026-01-19_18h15.20.709,MST_task,2024.2.0,59.84981287167293,2026-01-19 18h15.36.954429 +0530,
,Scenes\117a.jpg,83,0,84,,,,,,,j,0.818076099967584,0.14488159999018535,None,,,,,,84,0,83,445.6829060000018,,,,,,,,,,,,,,,,,,,,,,,,,,,,,,445.6669304999523,445.6829060000018,446.1835825999733,446.1666034999653,,,,,,,,,,,,,,,,,,,,,,,,,,446.17248979996657,446.1835825999733,446.1835825999733,446.1835825999733,449.18298479996156,449.18298479996156,449.18298479996156,449.16681809996953,j,0.818076099967584,0.14488159999018535,449.16685869998764,449.16686899994966,None,,,,,,,,,,,,,,00063,001,2026-01-19_18h15.20.709,MST_task,2024.2.0,59.84981287167293,2026-01-19 18h15.36.954429 +0530,
,Objects\017a.jpg,84,0,85,,,,,,,f,2.142229299992323,0.11194600001908839,None,,,,,,85,0,84,449.18298479996156,,,,,,,,,,,,,,,,,,,,,,,,,,,,,,449.1669772999594,449.18298479996156,449.683396599954,449.6666181999608,,,,,,,,,,,,,,,,,,,,,,,,,,449.6721598999575,449.683396599954,449.683396599954,449.683396599954,452.6828878999804,452.6828878999804,452.6828878999804,452.66694169997936,f,2.142229299992323,0.11194600001908839,452.66897839994635,452.66899499995634,None,,,,,,,,,,,,,,00063,001,2026-01-19_18h15.20.709,MST_task,2024.2.0,59.84981287167293,2026-01-19 18h15.36.954429 +0530,
,Objects\148a.jpg,85,0,86,,,,,,,f,2.5072214999818243,0.1107699999702163,None,,,,,,86,0,85,452.6828878999804,,,,,,,,,,,,,,,,,,,,,,,,,,,,,,452.66906659997767,452.6828878999804,453.18314549996285,453.16662869998254,,,,,,,,,,,,,,,,,,,,,,,,,,453.1694100999739,453.18314549996285,453.18314549996285,453.18314549996285,456.18281849997584,456.18281849997584,456.18281849997584,456.1667951999698,f,2.5072214999818243,0.1107699999702163,456.1668376000016,456.1668479999644,None,,,,,,,,,,,,,,00063,001,2026-01-19_18h15.20.709,MST_task,2024.2.0,59.84981287167293,2026-01-19 18h15.36.954429 +0530,
,Objects\143a.jpg,86,0,87,,,,,,,f,1.9825444999733008,0.1285247000050731,None,,,,,,87,0,86,456.18281849997584,,,,,,,,,,,,,,,,,,,,,,,,,,,,,,456.1669223999488,456.18281849997584,456.6830549999722,456.6666616000002,,,,,,,,,,,,,,,,,,,,,,,,,,456.6696496999939,456.6830549999722,456.6830549999722,456.6830549999722,459.6829892999958,459.6829892999958,459.6829892999958,459.6667868999648,f,1.9825444999733008,0.1285247000050731,459.6668284999905,459.66683879995253,None,,,,,,,,,,,,,,00063,001,2026-01-19_18h15.20.709,MST_task,2024.2.0,59.84981287167293,2026-01-19 18h15.36.954429 +0530,
,Objects\001a.jpg,87,0,88,,,,,,,f,1.2182255000225268,0.12808459997177124,None,,,,,,88,0,87,459.6829892999958,,,,,,,,,,,,,,,,,,,,,,,,,,,,,,459.66690630000085,459.6829892999958,460.1828788999701,460.1664533999865,,,,,,,,,,,,,,,,,,,,,,,,,,460.1691179999616,460.1828788999701,460.1828788999701,460.1828788999701,463.18271889997413,463.18271889997413,463.18271889997413,463.16673449997324,f,1.2182255000225268,0.12808459997177124,463.16677459998755,463.16678489994956,None,,,,,,,,,,,,,,00063,001,2026-01-19_18h15.20.709,MST_task,2024.2.0,59.84981287167293,2026-01-19 18h15.36.954429 +0530,
,Objects\039a.jpg,88,0,89,,,,,,,j,1.6232334999949671,0.17548430000897497,None,,,,,,89,0,88,463.18271889997413,,,,,,,,,,,,,,,,,,,,,,,,,,,,,,463.1668620999553,463.18271889997413,463.6830457999604,463.6666124999756,,,,,,,,,,,,,,,,,,,,,,,,,,463.66975229996024,463.6830457999604,463.6830457999604,463.6830457999604,466.6827838999452,466.6827838999452,466.6827838999452,466.66669019998517,j,1.6232334999949671,0.17548430000897497,466.66673109994736,466.6667418999714,None,,,,,,,,,,,,,,00063,001,2026-01-19_18h15.20.709,MST_task,2024.2.0,59.84981287167293,2026-01-19 18h15.36.954429 +0530,
,Objects\007a.jpg,89,0,90,,,,,,,f,2.930244199989829,None,None,,,,,,90,0,89,466.6827838999452,,,,,,,,,,,,,,,,,,,,,,,,,,,,,,466.6668400999624,466.6827838999452,467.1830056999461,467.1664005999919,,,,,,,,,,,,,,,,,,,,,,,,,,467.1689221999841,467.1830056999461,467.1830056999461,467.1830056999461,470.18276619998505,470.18276619998505,470.18276619998505,470.1667756999959,f,2.930244199989829,None,470.16681470000185,470.1668250999646,None,,,,,,,,,,,,,,00063,001,2026-01-19_18h15.20.709,MST_task,2024.2.0,59.84981287167293,2026-01-19 18h15.36.954429 +0530,
,Objects\063a.jpg,90,0,91,,,,,,,f,1.5910314000211656,0.1680033999728039,None,,,,,,91,0,90,470.18276619998505,,,,,,,,,,,,,,,,,,,,,,,,,,,,,,470.16688999999315,470.18276619998505,470.6830395999714,470.6664696999942,,,,,,,,,,,,,,,,,,,,,,,,,,470.66931859997567,470.6830395999714,470.6830395999714,470.6830395999714,473.68273719999706,473.68273719999706,473.68273719999706,473.6669382999535,f,1.5910314000211656,0.1680033999728039,473.66698290000204,473.6669940999709,None,,,,,,,,,,,,,,00063,001,2026-01-19_18h15.20.709,MST_task,2024.2.0,59.84981287167293,2026-01-19 18h15.36.954429 +0530,
,Scenes\178a.jpg,91,0,92,,,,,,,j,2.3388142999610864,0.15147410001372918,None,,,,,,92,0,91,473.68273719999706,,,,,,,,,,,,,,,,,,,,,,,,,,,,,,473.66710339998826,473.68273719999706,474.18345359998057,474.1664250999456,,,,,,,,,,,,,,,,,,,,,,,,,,474.1749969999655,474.18345359998057,474.18345359998057,474.18345359998057,477.1827098999638,477.1827098999638,477.1827098999638,477.166801299958,j,2.3388142999610864,0.15147410001372918,477.1685829999624,477.1686041999492,None,,,,,,,,,,,,,,00063,001,2026-01-19_18h15.20.709,MST_task,2024.2.0,59.84981287167293,2026-01-19 18h15.36.954429 +0530,
,Scenes\096a.jpg,92,0,93,,,,,,,j,1.1582600999972783,0.16758930002106354,None,,,,,,93,0,92,477.1827098999638,,,,,,,,,,,,,,,,,,,,,,,,,,,,,,477.1686783999903,477.1827098999638,477.68341669999063,477.6665844999952,,,,,,,,,,,,,,,,,,,,,,,,,,477.67205809999723,477.68341669999063,477.68341669999063,477.68341669999063,480.6828315999592,480.6828315999592,480.6828315999592,480.66688709997106,j,1.1582600999972783,0.16758930002106354,480.66693029995076,480.66694149997784,None,,,,,,,,,,,,,,00063,001,2026-01-19_18h15.20.709,MST_task,2024.2.0,59.84981287167293,2026-01-19 18h15.36.954429 +0530,
,Scenes\175a.jpg,93,0,94,,,,,,,j,1.4502229999634437,0.1680761000025086,None,,,,,,94,0,93,480.6828315999592,,,,,,,,,,,,,,,,,,,,,,,,,,,,,,480.6670417999849,480.6828315999592,481.18328389996896,481.16656759998295,,,,,,,,,,,,,,,,,,,,,,,,,,481.1724979999708,481.18328389996896,481.18328389996896,481.18328389996896,484.1830725999898,484.1830725999898,484.1830725999898,484.1667880999739,j,1.4502229999634437,0.1680761000025086,484.16682659997605,484.1668364999932,None,,,,,,,,,,,,,,00063,001,2026-01-19_18h15.20.709,MST_task,2024.2.0,59.84981287167293,2026-01-19 18h15.36.954429 +0530,
,Scenes\093a.jpg,94,0,95,,,,,,,f,1.1821979999658652,0.13582660001702607,None,,,,,,95,0,94,484.1830725999898,,,,,,,,,,,,,,,,,,,,,,,,,,,,,,484.1669038999826,484.1830725999898,484.6833743999596,484.6664641999523,,,,,,,,,,,,,,,,,,,,,,,,,,484.67553609999595,484.6833743999596,484.6833743999596,484.6833743999596,487.6827388999518,487.6827388999518,487.6827388999518,487.66691819997504,f,1.1821979999658652,0.13582660001702607,487.6669629999669,487.6669739999925,None,,,,,,,,,,,,,,00063,001,2026-01-19_18h15.20.709,MST_task,2024.2.0,59.84981287167293,2026-01-19 18h15.36.954429 +0530,
,Scenes\058a.jpg,95,0,96,,,,,,,f,1.5229416000074707,0.13516200002050027,None,,,,,,96,0,95,487.6827388999518,,,,,,,,,,,,,,,,,,,,,,,,,,,,,,487.6670794999809,487.6827388999518,488.18321170000127,488.1664430999663,,,,,,,,,,,,,,,,,,,,,,,,,,488.17416539997794,488.18321170000127,488.18321170000127,488.18321170000127,491.18279880000046,491.18279880000046,491.18279880000046,491.16692519997014,f,1.5229416000074707,0.13516200002050027,491.1669661999913,491.16697689995635,None,,,,,,,,,,,,,,00063,001,2026-01-19_18h15.20.709,MST_task,2024.2.0,59.84981287167293,2026-01-19 18h15.36.954429 +0530,
,Scenes\029a.jpg,96,0,97,,,,,,,j,1.223402299976442,0.14269639999838546,None,,,,,,97,0,96,491.18279880000046,,,,,,,,,,,,,,,,,,,,,,,,,,,,,,491.1670838999562,491.18279880000046,491.68297159997746,491.6664289999753,,,,,,,,,,,,,,,,,,,,,,,,,,491.67641939996975,491.68297159997746,491.68297159997746,491.68297159997746,494.6828239999595,494.6828239999595,494.6828239999595,494.6668445999967,j,1.223402299976442,0.14269639999838546,494.6668843999505,494.666894999973,None,,,,,,,,,,,,,,00063,001,2026-01-19_18h15.20.709,MST_task,2024.2.0,59.84981287167293,2026-01-19 18h15.36.954429 +0530,
,Scenes\097a.jpg,97,0,98,,,,,,,f,2.338142600026913,0.16803160001290962,None,,,,,,98,0,97,494.6828239999595,,,,,,,,,,,,,,,,,,,,,,,,,,,,,,494.6669917999534,494.6828239999595,495.18357499997364,495.1664103999501,,,,,,,,,,,,,,,,,,,,,,,,,,495.1699016999919,495.18357499997364,495.18357499997364,495.18357499997364,498.18278639996424,498.18278639996424,498.18278639996424,498.16676759999245,f,2.338142600026913,0.16803160001290962,498.1668064999976,498.16681679995963,None,,,,,,,,,,,,,,00063,001,2026-01-19_18h15.20.709,MST_task,2024.2.0,59.84981287167293,2026-01-19 18h15.36.954429 +0530,
,Objects\172a.jpg,98,0,99,,,,,,,j,2.166326600010507,0.143684700015001,None,,,,,,99,0,98,498.18278639996424,,,,,,,,,,,,,,,,,,,,,,,,,,,,,,498.16691249998985,498.18278639996424,498.6831910999608,498.6667581999791,,,,,,,,,,,,,,,,,,,,,,,,,,498.6726022999501,498.6831910999608,498.6831910999608,498.6831910999608,501.682942799991,501.682942799991,501.682942799991,501.6669813999906,j,2.166326600010507,0.143684700015001,501.6690219999873,501.6690392999444,None,,,,,,,,,,,,,,00063,001,2026-01-19_18h15.20.709,MST_task,2024.2.0,59.84981287167293,2026-01-19 18h15.36.954429 +0530,
,Objects\048a.jpg,99,0,100,,,,,,,j,1.4262212999747135,0.15241490001790226,None,,,,,,100,0,99,501.682942799991,,,,,,,,,,,,,,,,,,,,,,,,,,,,,,501.6691384000005,501.682942799991,502.18308109999634,502.1664926999947,,,,,,,,,,,,,,,,,,,,,,,,,,502.169279499969,502.18308109999634,502.18308109999634,502.18308109999634,505.1828600000008,505.1828600000008,505.1828600000008,505.16691819997504,j,1.4262212999747135,0.15241490001790226,505.166961699957,505.1669726999826,None,,,,,,,,,,,,,,00063,001,2026-01-19_18h15.20.709,MST_task,2024.2.0,59.84981287167293,2026-01-19 18h15.36.954429 +0530,
,Objects\027a.jpg,100,0,101,,,,,,,f,0.982774399977643,0.12108210002770647,None,,,,,,101,0,100,505.1828600000008,,,,,,,,,,,,,,,,,,,,,,,,,,,,,,505.16704029997345,505.1828600000008,505.68306939996546,505.6669299999485,,,,,,,,,,,,,,,,,,,,,,,,,,505.66964849998476,505.68306939996546,505.68306939996546,505.68306939996546,508.6828094999655,508.6828094999655,508.6828094999655,508.66685139999026,f,0.982774399977643,0.12108210002770647,508.6668920999509,508.6669027999742,None,,,,,,,,,,,,,,00063,001,2026-01-19_18h15.20.709,MST_task,2024.2.0,59.84981287167293,2026-01-19 18h15.36.954429 +0530,
,Objects\046a.jpg,101,0,102,,,,,,,f,1.994632099987939,0.12789190001785755,None,,,,,,102,0,101,508.6828094999655,,,,,,,,,,,,,,,,,,,,,,,,,,,,,,508.66696989996126,508.6828094999655,509.1833047999535,509.1664595999755,,,,,,,,,,,,,,,,,,,,,,,,,,509.1689955999609,509.1833047999535,509.1833047999535,509.1833047999535,512.1827271999791,512.1827271999791,512.1827271999791,512.1667332999641,f,1.994632099987939,0.12789190001785755,512.1667794999667,512.1667903999914,None,,,,,,,,,,,,,,00063,001,2026-01-19_18h15.20.709,MST_task,2024.2.0,59.84981287167293,2026-01-19 18h15.36.954429 +0530,
,Objects\029a.jpg,102,0,103,,,,,,,f,0.9819935000268742,0.16847049997886643,None,,,,,,103,0,102,512.1827271999791,,,,,,,,,,,,,,,,,,,,,,,,,,,,,,512.1668574999785,512.1827271999791,512.6831597999553,512.6664357999689,,,,,,,,,,,,,,,,,,,,,,,,,,512.6689019999467,512.6831597999553,512.6831597999553,512.6831597999553,515.6827545999549,515.6827545999549,515.6827545999549,515.6667945999652,f,0.9819935000268742,0.16847049997886643,515.6668352999841,515.6668460999499,None,,,,,,,,,,,,,,00063,001,2026-01-19_18h15.20.709,MST_task,2024.2.0,59.84981287167293,2026-01-19 18h15.36.954429 +0530,
,Objects\086a.jpg,103,0,104,,,,,,,j,1.1055967999855056,0.17698479996761307,None,,,,,,104,0,103,515.6827545999549,,,,,,,,,,,,,,,,,,,,,,,,,,,,,,515.6669461999554,515.6827545999549,516.1835442999727,516.166734599974,,,,,,,,,,,,,,,,,,,,,,,,,,516.16968609998,516.1835442999727,516.1835442999727,516.1835442999727,519.1829277999932,519.1829277999932,519.1829277999932,519.1667696999502,j,1.1055967999855056,0.17698479996761307,519.166815399949,519.1668264999753,None,,,,,,,,,,,,,,00063,001,2026-01-19_18h15.20.709,MST_task,2024.2.0,59.84981287167293,2026-01-19 18h15.36.954429 +0530,
,Objects\011a.jpg,104,0,105,,,,,,,f,1.487393699993845,0.15120860002934933,None,,,,,,105,0,104,519.1829277999932,,,,,,,,,,,,,,,,,,,,,,,,,,,,,,519.1669247999671,519.1829277999932,519.6830541999661,519.6664694999927,,,,,,,,,,,,,,,,,,,,,,,,,,519.6690385999973,519.6830541999661,519.6830541999661,519.6830541999661,522.6829994999571,522.6829994999571,522.6829994999571,522.6670987999532,f,1.487393699993845,0.15120860002934933,522.6671520999516,522.667163599981,None,,,,,,,,,,,,,,00063,001,2026-01-19_18h15.20.709,MST_task,2024.2.0,59.84981287167293,2026-01-19 18h15.36.954429 +0530,
,Scenes\037a.jpg,105,0,106,,,,,,,j,1.7623953000293113,0.17526599997654557,None,,,,,,106,0,105,522.6829994999571,,,,,,,,,,,,,,,,,,,,,,,,,,,,,,522.6672357999487,522.6829994999571,523.1834397999919,523.1666410999605,,,,,,,,,,,,,,,,,,,,,,,,,,523.1731519000023,523.1834397999919,523.1834397999919,523.1834397999919,526.1829388999613,526.1829388999613,526.1829388999613,526.1669804999838,j,1.7623953000293113,0.17526599997654557,526.1686694999808,526.1686888999538,None,,,,,,,,,,,,,,00063,001,2026-01-19_18h15.20.709,MST_task,2024.2.0,59.84981287167293,2026-01-19 18h15.36.954429 +0530,
,Scenes\121a.jpg,106,0,107,,,,,,,j,0.9263115999638103,0.15995140001177788,None,,,,,,107,0,106,526.1829388999613,,,,,,,,,,,,,,,,,,,,,,,,,,,,,,526.168763499998,526.1829388999613,526.6835426999605,526.666580799967,,,,,,,,,,,,,,,,,,,,,,,,,,526.6759037000011,526.6835426999605,526.6835426999605,526.6835426999605,529.6830480999779,529.6830480999779,529.6830480999779,529.667065799993,j,0.9263115999638103,0.15995140001177788,529.6671099999803,529.6671211999492,None,,,,,,,,,,,,,,00063,001,2026-01-19_18h15.20.709,MST_task,2024.2.0,59.84981287167293,2026-01-19 18h15.36.954429 +0530,
,Scenes\167a.jpg,107,0,108,,,,,,,f,2.466363600047771,0.17601299996022135,None,,,,,,108,0,107,529.6830480999779,,,,,,,,,,,,,,,,,,,,,,,,,,,,,,529.6672271999996,529.6830480999779,530.183370099985,530.1667368999915,,,,,,,,,,,,,,,,,,,,,,,,,,530.1768162999651,530.183370099985,530.183370099985,530.183370099985,533.1828858999652,533.1828858999652,533.1828858999652,533.1668833000003,f,2.466363600047771,0.17601299996022135,533.1669230999541,533.1669396999641,None,,,,,,,,,,,,,,00063,001,2026-01-19_18h15.20.709,MST_task,2024.2.0,59.84981287167293,2026-01-19 18h15.36.954429 +0530,
,Scenes\038a.jpg,108,0,109,,,,,,,j,1.135319900000468,0.15187970001716167,None,,,,,,109,0,108,533.1828858999652,,,,,,,,,,,,,,,,,,,,,,,,,,,,,,533.1670401999727,533.1828858999652,533.6834119999548,533.6665552999475,,,,,,,,,,,,,,,,,,,,,,,,,,533.6756749999477,533.6834119999548,533.6834119999548,533.6834119999548,536.6828915999504,536.6828915999504,536.6828915999504,536.6669557999703,j,1.135319900000468,0.15187970001716167,536.666996999993,536.6670079999603,None,,,,,,,,,,,,,,00063,001,2026-01-19_18h15.20.709,MST_task,2024.2.0,59.84981287167293,2026-01-19 18h15.36.954429 +0530,
,Scenes\101a.jpg,109,0,110,,,,,,,j,1.7940132999792695,0.16000090003944933,None,,,,,,110,0,109,536.6828915999504,,,,,,,,,,,,,,,,,,,,,,,,,,,,,,536.6671081999666,536.6828915999504,537.1836089999997,537.1665761999902,,,,,,,,,,,,,,,,,,,,,,,,,,537.1750072999857,537.1836089999997,537.1836089999997,537.1836089999997,540.1830201999983,540.1830201999983,540.1830201999983,540.1669321999652,j,1.7940132999792695,0.16000090003944933,540.1669743999955,540.1669853999629,None,,,,,,,,,,,,,,00063,001,2026-01-19_18h15.20.709,MST_task,2024.2.0,59.84981287167293,2026-01-19 18h15.36.954429 +0530,
,Scenes\113a.jpg,110,0,111,,,,,,,j,0.7340591999818571,0.16009660001145676,None,,,,,,111,0,110,540.1830201999983,,,,,,,,,,,,,,,,,,,,,,,,,,,,,,540.1670536999591,540.1830201999983,540.6834527999745,540.6666003999999,,,,,,,,,,,,,,,,,,,,,,,,,,540.6707444999483,540.6834527999745,540.6834527999745,540.6834527999745,543.6829366999445,543.6829366999445,543.6829366999445,543.6669453999493,j,0.7340591999818571,0.16009660001145676,543.6669897999964,543.6670004999614,None,,,,,,,,,,,,,,00063,001,2026-01-19_18h15.20.709,MST_task,2024.2.0,59.84981287167293,2026-01-19 18h15.36.954429 +0530,
,Scenes\120a.jpg,111,0,112,,,,,,,j,1.2423518999712542,0.13601150002796203,None,,,,,,112,0,111,543.6829366999445,,,,,,,,,,,,,,,,,,,,,,,,,,,,,,543.6671027999837,543.6829366999445,544.1835104999482,544.166596999974,,,,,,,,,,,,,,,,,,,,,,,,,,544.1755676999455,544.1835104999482,544.1835104999482,544.1835104999482,547.1829641999793,547.1829641999793,547.1829641999793,547.1668606999447,j,1.2423518999712542,0.13601150002796203,547.166903699981,547.1669148999499,None,,,,,,,,,,,,,,00063,001,2026-01-19_18h15.20.709,MST_task,2024.2.0,59.84981287167293,2026-01-19 18h15.36.954429 +0530,
,Objects\180a.jpg,112,0,113,,,,,,,j,2.054023399949074,0.1442793000023812,None,,,,,,113,0,112,547.1829641999793,,,,,,,,,,,,,,,,,,,,,,,,,,,,,,547.1670190999866,547.1829641999793,547.6835126999649,547.666526099958,,,,,,,,,,,,,,,,,,,,,,,,,,547.6724379999796,547.6835126999649,547.6835126999649,547.6835126999649,550.6830191999907,550.6830191999907,550.6830191999907,550.6669449999463,j,2.054023399949074,0.1442793000023812,550.6689707999467,550.6689873999567,None,,,,,,,,,,,,,,00063,001,2026-01-19_18h15.20.709,MST_task,2024.2.0,59.84981287167293,2026-01-19 18h15.36.954429 +0530,
,Objects\072a.jpg,113,0,114,,,,,,,f,1.9384195000166073,0.1364682000130415,None,,,,,,114,0,113,550.6830191999907,,,,,,,,,,,,,,,,,,,,,,,,,,,,,,550.6690574999666,550.6830191999907,551.1831091999775,551.166698999994,,,,,,,,,,,,,,,,,,,,,,,,,,551.169477199961,551.1831091999775,551.1831091999775,551.1831091999775,554.182907499955,554.182907499955,554.182907499955,554.1669145999476,f,1.9384195000166073,0.1364682000130415,554.1669541999581,554.1669649999822,None,,,,,,,,,,,,,,00063,001,2026-01-19_18h15.20.709,MST_task,2024.2.0,59.84981287167293,2026-01-19 18h15.36.954429 +0530,
,Objects\054a.jpg,114,0,115,,,,,,,j,1.1365687999641523,0.1670544000226073,None,,,,,,115,0,114,554.182907499955,,,,,,,,,,,,,,,,,,,,,,,,,,,,,,554.1670313999639,554.182907499955,554.6831178999855,554.6667097999598,,,,,,,,,,,,,,,,,,,,,,,,,,554.6696664999472,554.6831178999855,554.6831178999855,554.6831178999855,557.6829396999674,557.6829396999674,557.6829396999674,557.6669311999576,j,1.1365687999641523,0.1670544000226073,557.6669712999719,557.6669819999952,None,,,,,,,,,,,,,,00063,001,2026-01-19_18h15.20.709,MST_task,2024.2.0,59.84981287167293,2026-01-19 18h15.36.954429 +0530,
,Objects\131a.jpg,115,0,116,,,,,,,j,2.306273100024555,0.1291194999939762,None,,,,,,116,0,115,557.6829396999674,,,,,,,,,,,,,,,,,,,,,,,,,,,,,,557.6670810999931,557.6829396999674,558.1829798999825,558.1666237999452,,,,,,,,,,,,,,,,,,,,,,,,,,558.1697120999452,558.1829798999825,558.1829798999825,558.1829798999825,561.1829935999704,561.1829935999704,561.1829935999704,561.166759499989,j,2.306273100024555,0.1291194999939762,561.1667999999481,561.1668105999706,None,,,,,,,,,,,,,,00063,001,2026-01-19_18h15.20.709,MST_task,2024.2.0,59.84981287167293,2026-01-19 18h15.36.954429 +0530,
,Objects\080a.jpg,116,0,117,,,,,,,f,1.1260162999969907,0.15199899999424815,None,,,,,,117,0,116,561.1829935999704,,,,,,,,,,,,,,,,,,,,,,,,,,,,,,561.1668777999585,561.1829935999704,561.6831021999824,561.6666112999665,,,,,,,,,,,,,,,,,,,,,,,,,,561.66936109995,561.6831021999824,561.6831021999824,561.6831021999824,564.6828148999484,564.6828148999484,564.6828148999484,564.6669316999614,f,1.1260162999969907,0.15199899999424815,564.6669777999632,564.6669883999857,None,,,,,,,,,,,,,,00063,001,2026-01-19_18h15.20.709,MST_task,2024.2.0,59.84981287167293,2026-01-19 18h15.36.954429 +0530,
,Objects\139a.jpg,117,0,118,,,,,,,f,1.0519432000000961,0.1349725000327453,None,,,,,,118,0,117,564.6828148999484,,,,,,,,,,,,,,,,,,,,,,,,,,,,,,564.6670576999895,564.6828148999484,565.1831203999463,565.1668796999729,,,,,,,,,,,,,,,,,,,,,,,,,,565.1696005999693,565.1831203999463,565.1831203999463,565.1831203999463,568.1827872999711,568.1827872999711,568.1827872999711,568.1669829999446,f,1.0519432000000961,0.1349725000327453,568.1670301999548,568.1670415999833,None,,,,,,,,,,,,,,00063,001,2026-01-19_18h15.20.709,MST_task,2024.2.0,59.84981287167293,2026-01-19 18h15.36.954429 +0530,
,Objects\085a.jpg,118,0,119,,,,,,,j,1.1416944999946281,0.16090810002060607,None,,,,,,119,0,118,568.1827872999711,,,,,,,,,,,,,,,,,,,,,,,,,,,,,,568.1671114999917,568.1827872999711,568.6833305999753,568.6666316999472,,,,,,,,,,,,,,,,,,,,,,,,,,568.6694529999513,568.6833305999753,568.6833305999753,568.6833305999753,571.6829191999859,571.6829191999859,571.6829191999859,571.6669365999987,j,1.1416944999946281,0.16090810002060607,571.6669772999594,571.6669881999842,None,,,,,,,,,,,,,,00063,001,2026-01-19_18h15.20.709,MST_task,2024.2.0,59.84981287167293,2026-01-19 18h15.36.954429 +0530,
,Scenes\014a.jpg,119,0,120,,,,,,,j,1.003371300001163,0.1504475999972783,None,,,,,,120,0,119,571.6829191999859,,,,,,,,,,,,,,,,,,,,,,,,,,,,,,571.6670865999768,571.6829191999859,572.1834399999934,572.16714949999,,,,,,,,,,,,,,,,,,,,,,,,,,572.1743363999994,572.1834399999934,572.1834399999934,572.1834399999934,575.182997099997,575.182997099997,575.182997099997,575.1668404999655,j,1.003371300001163,0.1504475999972783,575.1684879999957,575.1685053999536,None,,,,,,,,,,,,,,00063,001,2026-01-19_18h15.20.709,MST_task,2024.2.0,59.84981287167293,2026-01-19 18h15.36.954429 +0530,
,Scenes\005a.jpg,120,0,121,,,,,,,j,2.1028558000107296,0.13594609999563545,None,,,,,,121,0,120,575.182997099997,,,,,,,,,,,,,,,,,,,,,,,,,,,,,,575.168576099968,575.182997099997,575.6835972999688,575.6667981999926,,,,,,,,,,,,,,,,,,,,,,,,,,575.674888599955,575.6835972999688,575.6835972999688,575.6835972999688,578.6829709999729,578.6829709999729,578.6829709999729,578.6669827000005,j,2.1028558000107296,0.13594609999563545,578.6670243999688,578.6670354999951,None,,,,,,,,,,,,,,00063,001,2026-01-19_18h15.20.709,MST_task,2024.2.0,59.84981287167293,2026-01-19 18h15.36.954429 +0530,
,Scenes\184a.jpg,121,0,122,,,,,,,j,1.4794406999717467,0.1688035000115633,None,,,,,,122,0,121,578.6829709999729,,,,,,,,,,,,,,,,,,,,,,,,,,,,,,578.6671037999913,578.6829709999729,579.1859492999502,579.1665947999572,,,,,,,,,,,,,,,,,,,,,,,,,,579.1834975999664,579.1859492999502,579.1859492999502,579.1859492999502,,,,582.1829764999566,j,1.4794406999717467,0.1688035000115633,582.1830176999792,582.1830300999573,None,,,,,,,,,,,,,,00063,001,2026-01-19_18h15.20.709,MST_task,2024.2.0,59.84981287167293,2026-01-19 18h15.36.954429 +0530,
,Scenes\163a.jpg,122,0,123,,,,,,,j,1.3015792000223882,0.15198289998807013,None,,,,,,123,0,122,582.1995833999827,,,,,,,,,,,,,,,,,,,,,,,,,,,,,,582.1830993999611,582.1995833999827,582.7001438000007,582.6832201999496,,,,,,,,,,,,,,,,,,,,,,,,,,582.6890064999461,582.7001438000007,582.7001438000007,582.7001438000007,,,,585.6830828999518,j,1.3015792000223882,0.15198289998807013,585.6831398999784,585.683153299964,None,,,,,,,,,,,,,,00063,001,2026-01-19_18h15.20.709,MST_task,2024.2.0,59.84981287167293,2026-01-19 18h15.36.954429 +0530,
,Scenes\009a.jpg,123,0,124,,,,,,,f,1.6733173999818973,0.12109209998743609,None,,,,,,124,0,123,585.6996091999463,,,,,,,,,,,,,,,,,,,,,,,,,,,,,,585.6832719999948,585.6996091999463,586.2001835999545,586.1831055999501,,,,,,,,,,,,,,,,,,,,,,,,,,586.1928979999502,586.2001835999545,586.2001835999545,586.2001835999545,589.1995880999602,589.1995880999602,589.1995880999602,589.1834159999853,f,1.6733173999818973,0.12109209998743609,589.1834596999688,589.1834710999974,None,,,,,,,,,,,,,,00063,001,2026-01-19_18h15.20.709,MST_task,2024.2.0,59.84981287167293,2026-01-19 18h15.36.954429 +0530,
,Scenes\054a.jpg,124,0,125,,,,,,,j,1.3434873999794945,0.15996780002024025,None,,,,,,125,0,124,589.1995880999602,,,,,,,,,,,,,,,,,,,,,,,,,,,,,,589.1835384999868,589.1995880999602,589.7057698999997,589.68300119997,,,,,,,,,,,,,,,,,,,,,,,,,,589.703356199956,589.7057698999997,589.7057698999997,589.7057698999997,,,,592.6998295999947,j,1.3434873999794945,0.15996780002024025,592.6998704999569,592.6998825999908,None,,,,,,,,,,,,,,00063,001,2026-01-19_18h15.20.709,MST_task,2024.2.0,59.84981287167293,2026-01-19 18h15.36.954429 +0530,
,Scenes\136a.jpg,125,0,126,,,,,,,j,1.5764889999991283,0.13663560000713915,None,,,,,,126,0,125,592.7161888999981,,,,,,,,,,,,,,,,,,,,,,,,,,,,,,592.7000184999779,592.7161888999981,593.2168804999674,593.1999637999688,,,,,,,,,,,,,,,,,,,,,,,,,,593.2063732999959,593.2168804999674,593.2168804999674,593.2168804999674,596.2162981999572,596.2162981999572,596.2162981999572,596.2004205999547,j,1.5764889999991283,0.13663560000713915,596.2004674999625,596.2004789999919,None,,,,,,,,,,,,,,00063,001,2026-01-19_18h15.20.709,MST_task,2024.2.0,59.84981287167293,2026-01-19 18h15.36.954429 +0530,
,Objects\062a.jpg,126,0,127,,,,,,,f,2.5095219999784604,0.11999620002461597,None,,,,,,127,0,126,596.2162981999572,,,,,,,,,,,,,,,,,,,,,,,,,,,,,,596.2005943999975,596.2162981999572,596.716762899945,596.699844799994,,,,,,,,,,,,,,,,,,,,,,,,,,596.7053843999747,596.716762899945,596.716762899945,596.716762899945,599.7163945999928,599.7163945999928,599.7163945999928,599.7002019999782,f,2.5095219999784604,0.11999620002461597,599.7022790999617,599.7022957999725,None,,,,,,,,,,,,,,00063,001,2026-01-19_18h15.20.709,MST_task,2024.2.0,59.84981287167293,2026-01-19 18h15.36.954429 +0530,
,Objects\102a.jpg,127,0,128,,,,,,,f,1.2651459000189789,0.13544149999506772,None,,,,,,128,0,127,599.7163945999928,,,,,,,,,,,,,,,,,,,,,,,,,,,,,,599.702366499987,599.7163945999928,600.2166037999559,600.1999709999654,,,,,,,,,,,,,,,,,,,,,,,,,,600.2029724999447,600.2166037999559,600.2166037999559,600.2166037999559,603.2167330999509,603.2167330999509,603.2167330999509,603.200267499953,f,1.2651459000189789,0.13544149999506772,603.2003139999579,603.2003247999819,None,,,,,,,,,,,,,,00063,001,2026-01-19_18h15.20.709,MST_task,2024.2.0,59.84981287167293,2026-01-19 18h15.36.954429 +0530,
,Objects\120a.jpg,128,0,129,,,,,,,f,0.9569015000015497,0.1359085000003688,None,,,,,,129,0,128,603.2167330999509,,,,,,,,,,,,,,,,,,,,,,,,,,,,,,603.2003936999827,603.2167330999509,603.7164819999598,603.6999594999943,,,,,,,,,,,,,,,,,,,,,,,,,,603.7025885999901,603.7164819999598,603.7164819999598,603.7164819999598,606.7163097999874,606.7163097999874,606.7163097999874,606.7004814999527,f,0.9569015000015497,0.1359085000003688,606.7005323999911,606.7005434999592,None,,,,,,,,,,,,,,00063,001,2026-01-19_18h15.20.709,MST_task,2024.2.0,59.84981287167293,2026-01-19 18h15.36.954429 +0530,
,Objects\132a.jpg,129,0,130,,,,,,,f,1.6811435000272468,0.14409860002342612,None,,,,,,130,0,129,606.7163097999874,,,,,,,,,,,,,,,,,,,,,,,,,,,,,,606.7006138999714,606.7163097999874,607.2164806999499,607.199821599992,,,,,,,,,,,,,,,,,,,,,,,,,,607.2024944999721,607.2164806999499,607.2164806999499,607.2164806999499,610.2161965999985,610.2161965999985,610.2161965999985,610.2001620999654,f,1.6811435000272468,0.14409860002342612,610.2002013999736,610.2002116999938,None,,,,,,,,,,,,,,00063,001,2026-01-19_18h15.20.709,MST_task,2024.2.0,59.84981287167293,2026-01-19 18h15.36.954429 +0530,
,Objects\078a.jpg,130,0,131,,,,,,,j,2.0702193999895826,0.17448540002806112,None,,,,,,131,0,130,610.2161965999985,,,,,,,,,,,,,,,,,,,,,,,,,,,,,,610.2003095999826,610.2161965999985,610.7164706999902,610.6999507999863,,,,,,,,,,,,,,,,,,,,,,,,,,610.7033425999689,610.7164706999902,610.7164706999902,610.7164706999902,613.7162725999951,613.7162725999951,613.7162725999951,613.7001303999568,j,2.0702193999895826,0.17448540002806112,613.7001698999666,613.7001802999876,None,,,,,,,,,,,,,,00063,001,2026-01-19_18h15.20.709,MST_task,2024.2.0,59.84981287167293,2026-01-19 18h15.36.954429 +0530,
,Objects\057a.jpg,131,0,132,,,,,,,f,2.4252618000027724,0.15994849998969585,None,,,,,,132,0,131,613.7162725999951,,,,,,,,,,,,,,,,,,,,,,,,,,,,,,613.7002473999746,613.7162725999951,614.2165394999902,614.1998280999833,,,,,,,,,,,,,,,,,,,,,,,,,,614.2023105999688,614.2165394999902,614.2165394999902,614.2165394999902,617.2163049999508,617.2163049999508,617.2163049999508,617.200117099972,f,2.4252618000027724,0.15994849998969585,617.2001575999893,617.2001678999513,None,,,,,,,,,,,,,,00063,001,2026-01-19_18h15.20.709,MST_task,2024.2.0,59.84981287167293,2026-01-19 18h15.36.954429 +0530,
,Objects\114a.jpg,132,0,133,,,,,,,f,1.3887584999902174,0.15199779998511076,None,,,,,,133,0,132,617.2163049999508,,,,,,,,,,,,,,,,,,,,,,,,,,,,,,617.2002445999533,617.2163049999508,617.7164724999457,617.7000787999714,,,,,,,,,,,,,,,,,,,,,,,,,,617.7029072999721,617.7164724999457,617.7164724999457,617.7164724999457,620.7163283999544,620.7163283999544,620.7163283999544,620.7003208999522,f,1.3887584999902174,0.15199779998511076,620.7003663999494,620.7003767999704,None,,,,,,,,,,,,,,00063,001,2026-01-19_18h15.20.709,MST_task,2024.2.0,59.84981287167293,2026-01-19 18h15.36.954429 +0530,
,Scenes\008a.jpg,133,0,134,,,,,,,None,,,j,0.6569530999986455,None,,,,134,0,133,620.7163283999544,,,,,,,,,,,,,,,,,,,,,,,,,,,,,,620.7004443999613,620.7163283999544,621.2167859999463,621.1998239999521,,,,,,,,,,,,,,,,,,,,,,,,,,621.2099215999478,621.2167859999463,621.2167859999463,621.2167859999463,624.2162971999496,624.2162971999496,624.2162971999496,624.2001525999513,None,,,624.201749699947,624.8832041999558,j,624.2162971999496,624.2162971999496,0.6569530999986455,None,,,,,,,,,,00063,001,2026-01-19_18h15.20.709,MST_task,2024.2.0,59.84981287167293,2026-01-19 18h15.36.954429 +0530,
,Scenes\160a.jpg,134,0,135,,,,,,,j,1.1697490000515245,0.20003720000386238,None,,,,,,135,0,134,624.899580599973,,,,,,,,,,,,,,,,,,,,,,,,,,,,,,624.883306099975,624.899580599973,625.4001100999885,625.3829979999573,,,,,,,,,,,,,,,,,,,,,,,,,,625.3898309999495,625.4001100999885,625.4001100999885,625.4001100999885,628.3996421999764,628.3996421999764,628.3996421999764,628.383451599977,j,1.1697490000515245,0.20003720000386238,628.3834964999696,628.3835074999952,None,,,,,,,,,,,,,,00063,001,2026-01-19_18h15.20.709,MST_task,2024.2.0,59.84981287167293,2026-01-19 18h15.36.954429 +0530,
,Scenes\088a.jpg,135,0,136,,,,,,,j,1.0291585000231862,0.1432420999626629,None,,,,,,136,0,135,628.3996421999764,,,,,,,,,,,,,,,,,,,,,,,,,,,,,,628.383609499957,628.3996421999764,628.9008191999746,628.8830658999505,,,,,,,,,,,,,,,,,,,,,,,,,,628.8981727999635,628.9008191999746,628.9008191999746,628.9008191999746,,,,631.8998722999822,j,1.0291585000231862,0.1432420999626629,631.8999129000003,631.8999247999745,None,,,,,,,,,,,,,,00063,001,2026-01-19_18h15.20.709,MST_task,2024.2.0,59.84981287167293,2026-01-19 18h15.36.954429 +0530,
,Scenes\154a.jpg,136,0,137,,,,,,,j,0.7763553999830037,0.18466150003951043,None,,,,,,137,0,136,631.9162654999527,,,,,,,,,,,,,,,,,,,,,,,,,,,,,,631.9000239999732,631.9162654999527,632.4169215000002,632.3999180999817,,,,,,,,,,,,,,,,,,,,,,,,,,632.4064860999933,632.4169215000002,632.4169215000002,632.4169215000002,635.4162282999605,635.4162282999605,635.4162282999605,635.4003226999776,j,0.7763553999830037,0.18466150003951043,635.4003669999656,635.4003776999889,None,,,,,,,,,,,,,,00063,001,2026-01-19_18h15.20.709,MST_task,2024.2.0,59.84981287167293,2026-01-19 18h15.36.954429 +0530,
,Scenes\042a.jpg,137,0,138,,,,,,,j,0.7816063999780454,0.18310040002688766,None,,,,,,138,0,137,635.4162282999605,,,,,,,,,,,,,,,,,,,,,,,,,,,,,,635.4004832999781,635.4162282999605,635.9165335999569,635.9001196999452,,,,,,,,,,,,,,,,,,,,,,,,,,635.906514799979,635.9165335999569,635.9165335999569,635.9165335999569,638.9162767999806,638.9162767999806,638.9162767999806,638.9000942999846,j,0.7816063999780454,0.18310040002688766,638.9001335999928,638.9001441999571,None,,,,,,,,,,,,,,00063,001,2026-01-19_18h15.20.709,MST_task,2024.2.0,59.84981287167293,2026-01-19 18h15.36.954429 +0530,
,Scenes\183a.jpg,138,0,139,,,,,,,f,1.0646638000034727,0.1762851999956183,None,,,,,,139,0,138,638.9162767999806,,,,,,,,,,,,,,,,,,,,,,,,,,,,,,638.9002106999978,638.9162767999806,639.416798899998,639.3997916999506,,,,,,,,,,,,,,,,,,,,,,,,,,639.4086110999924,639.416798899998,639.416798899998,639.416798899998,642.4163953999523,642.4163953999523,642.4163953999523,642.4004269999568,f,1.0646638000034727,0.1762851999956183,642.4004668999696,642.4004769999883,None,,,,,,,,,,,,,,00063,001,2026-01-19_18h15.20.709,MST_task,2024.2.0,59.84981287167293,2026-01-19 18h15.36.954429 +0530,
,Scenes\125a.jpg,139,0,140,,,,,,,j,1.1814575999742374,0.16718770004808903,None,,,,,,140,0,139,642.4163953999523,,,,,,,,,,,,,,,,,,,,,,,,,,,,,,642.400574499974,642.4163953999523,642.91663469997,642.9000398999779,,,,,,,,,,,,,,,,,,,,,,,,,,642.9091749999789,642.91663469997,642.91663469997,642.91663469997,645.9162587999599,645.9162587999599,645.9162587999599,645.9002661999548,j,1.1814575999742374,0.16718770004808903,645.9003095999942,645.9003201999585,None,,,,,,,,,,,,,,00063,001,2026-01-19_18h15.20.709,MST_task,2024.2.0,59.84981287167293,2026-01-19 18h15.36.954429 +0530,
,Objects\104a.jpg,140,0,141,,,,,,,f,1.6164827000466175,0.11994389997562394,None,,,,,,141,0,140,645.9162587999599,,,,,,,,,,,,,,,,,,,,,,,,,,,,,,645.9004254999454,645.9162587999599,646.4168498999788,646.4000478999806,,,,,,,,,,,,,,,,,,,,,,,,,,646.4059636999737,646.4168498999788,646.4168498999788,646.4168498999788,649.4163829999743,649.4163829999743,649.4163829999743,649.4003315999871,f,1.6164827000466175,0.11994389997562394,649.4023225999554,649.4023389999638,None,,,,,,,,,,,,,,00063,001,2026-01-19_18h15.20.709,MST_task,2024.2.0,59.84981287167293,2026-01-19 18h15.36.954429 +0530,
,Objects\093a.jpg,141,0,142,,,,,,,j,1.3898374999989755,0.15997639996930957,None,,,,,,142,0,141,649.4163829999743,,,,,,,,,,,,,,,,,,,,,,,,,,,,,,649.4024496999918,649.4163829999743,649.9165067999857,649.899832999974,,,,,,,,,,,,,,,,,,,,,,,,,,649.9025322999805,649.9165067999857,649.9165067999857,649.9165067999857,652.9167875999701,652.9167875999701,652.9167875999701,652.900599799992,j,1.3898374999989755,0.15997639996930957,652.9006492999615,652.9006608999916,None,,,,,,,,,,,,,,00063,001,2026-01-19_18h15.20.709,MST_task,2024.2.0,59.84981287167293,2026-01-19 18h15.36.954429 +0530,
,Objects\123a.jpg,142,0,143,,,,,,,j,1.47253670002101,0.1606552000157535,None,,,,,,143,0,142,652.9167875999701,,,,,,,,,,,,,,,,,,,,,,,,,,,,,,652.9007285999833,652.9167875999701,653.4165021999506,653.4000060999533,,,,,,,,,,,,,,,,,,,,,,,,,,653.4028228999814,653.4165021999506,653.4165021999506,653.4165021999506,656.4163566999487,656.4163566999487,656.4163566999487,656.400282699964,j,1.47253670002101,0.1606552000157535,656.4003236999852,656.4003342999495,None,,,,,,,,,,,,,,00063,001,2026-01-19_18h15.20.709,MST_task,2024.2.0,59.84981287167293,2026-01-19 18h15.36.954429 +0530,
,Objects\161a.jpg,143,0,144,,,,,,,f,0.884751400037203,0.12011019996134564,None,,,,,,144,0,143,656.4163566999487,,,,,,,,,,,,,,,,,,,,,,,,,,,,,,656.4004007999902,656.4163566999487,656.9166199999745,656.9000347999972,,,,,,,,,,,,,,,,,,,,,,,,,,656.9027786999941,656.9166199999745,656.9166199999745,656.9166199999745,659.9162733999547,659.9162733999547,659.9162733999547,659.9002862999914,f,0.884751400037203,0.12011019996134564,659.9003268999513,659.9003377999761,None,,,,,,,,,,,,,,00063,001,2026-01-19_18h15.20.709,MST_task,2024.2.0,59.84981287167293,2026-01-19 18h15.36.954429 +0530,
,Objects\157a.jpg,144,0,145,,,,,,,f,2.576795300003141,0.12111150001874194,None,,,,,,145,0,144,659.9162733999547,,,,,,,,,,,,,,,,,,,,,,,,,,,,,,659.9004037999548,659.9162733999547,660.4165289999801,660.4000063999556,,,,,,,,,,,,,,,,,,,,,,,,,,660.4025080999709,660.4165289999801,660.4165289999801,660.4165289999801,663.4163513999665,663.4163513999665,663.4163513999665,663.4003136999672,f,2.576795300003141,0.12111150001874194,663.4003604999743,663.4003713999991,None,,,,,,,,,,,,,,00063,001,2026-01-19_18h15.20.709,MST_task,2024.2.0,59.84981287167293,2026-01-19 18h15.36.954429 +0530,
,Objects\066a.jpg,145,0,146,,,,,,,j,1.1897379999863915,0.15199169999687,None,,,,,,146,0,145,663.4163513999665,,,,,,,,,,,,,,,,,,,,,,,,,,,,,,663.4004750999738,663.4163513999665,663.9165926999995,663.8999863999779,,,,,,,,,,,,,,,,,,,,,,,,,,663.9032034999691,663.9165926999995,663.9165926999995,663.9165926999995,666.9163631999982,666.9163631999982,666.9163631999982,666.9003451999743,j,1.1897379999863915,0.15199169999687,666.9003852999886,666.9003956999513,None,,,,,,,,,,,,,,00063,001,2026-01-19_18h15.20.709,MST_task,2024.2.0,59.84981287167293,2026-01-19 18h15.36.954429 +0530,
,Objects\171a.jpg,146,0,147,,,,,,,j,0.9303180000279099,0.17545959999551997,None,,,,,,147,0,146,666.9163631999982,,,,,,,,,,,,,,,,,,,,,,,,,,,,,,666.900462199992,666.9163631999982,667.4165439999779,667.3999968999997,,,,,,,,,,,,,,,,,,,,,,,,,,667.4026833999669,667.4165439999779,667.4165439999779,667.4165439999779,670.4162231999799,670.4162231999799,670.4162231999799,670.4003609999781,j,0.9303180000279099,0.17545959999551997,670.4004013999947,670.4004114999552,None,,,,,,,,,,,,,,00063,001,2026-01-19_18h15.20.709,MST_task,2024.2.0,59.84981287167293,2026-01-19 18h15.36.954429 +0530,
,Scenes\131a.jpg,147,0,148,,,,,,,j,1.4925409000134096,0.15996980003546923,None,,,,,,148,0,147,670.4162231999799,,,,,,,,,,,,,,,,,,,,,,,,,,,,,,670.4005084999953,670.4162231999799,670.917115499964,670.8998611999559,,,,,,,,,,,,,,,,,,,,,,,,,,670.9100599999656,670.917115499964,670.917115499964,670.917115499964,673.9162403999944,673.9162403999944,673.9162403999944,673.9002179999952,j,1.4925409000134096,0.15996980003546923,673.9018380999914,673.9018554999493,None,,,,,,,,,,,,,,00063,001,2026-01-19_18h15.20.709,MST_task,2024.2.0,59.84981287167293,2026-01-19 18h15.36.954429 +0530,
,Scenes\017a.jpg,148,0,149,,,,,,,f,1.8802042999886908,0.12001370004145429,None,,,,,,149,0,148,673.9162403999944,,,,,,,,,,,,,,,,,,,,,,,,,,,,,,673.901936499984,673.9162403999944,674.4170188999851,674.3998667999986,,,,,,,,,,,,,,,,,,,,,,,,,,674.410653400002,674.4170188999851,674.4170188999851,674.4170188999851,677.4162341999472,677.4162341999472,677.4162341999472,677.4003385999822,f,1.8802042999886908,0.12001370004145429,677.4003819999634,677.4003928999882,None,,,,,,,,,,,,,,00063,001,2026-01-19_18h15.20.709,MST_task,2024.2.0,59.84981287167293,2026-01-19 18h15.36.954429 +0530,
,Scenes\020a.jpg,149,0,150,,,,,,,f,1.1646480999770574,0.1359340000199154,None,,,,,,150,0,149,677.4162341999472,,,,,,,,,,,,,,,,,,,,,,,,,,,,,,677.4004946999485,677.4162341999472,677.9169942999724,677.8998416999821,,,,,,,,,,,,,,,,,,,,,,,,,,677.911423099984,677.9169942999724,677.9169942999724,677.9169942999724,680.9162295999704,680.9162295999704,680.9162295999704,680.9002338999999,f,1.1646480999770574,0.1359340000199154,680.9002755999682,680.9002861999907,None,,,,,,,,,,,,,,00063,001,2026-01-19_18h15.20.709,MST_task,2024.2.0,59.84981287167293,2026-01-19 18h15.36.954429 +0530,
,Scenes\179a.jpg,150,0,151,,,,,,,j,1.8332055999781005,0.1838461000006646,None,,,,,,151,0,150,680.9162295999704,,,,,,,,,,,,,,,,,,,,,,,,,,,,,,680.9003921999829,680.9162295999704,681.4170829999493,681.4000089999754,,,,,,,,,,,,,,,,,,,,,,,,,,681.405362999998,681.4170829999493,681.4170829999493,681.4170829999493,684.4162929999875,684.4162929999875,684.4162929999875,684.4002404999919,j,1.8332055999781005,0.1838461000006646,684.4002896999591,684.4003003999824,None,,,,,,,,,,,,,,00063,001,2026-01-19_18h15.20.709,MST_task,2024.2.0,59.84981287167293,2026-01-19 18h15.36.954429 +0530,
,Scenes\046a.jpg,151,0,152,,,,,,,j,2.1242937999777496,0.10399900004267693,None,,,,,,152,0,151,684.4162929999875,,,,,,,,,,,,,,,,,,,,,,,,,,,,,,684.4003666999633,684.4162929999875,684.9168960999814,684.8999254999799,,,,,,,,,,,,,,,,,,,,,,,,,,684.911431799992,684.9168960999814,684.9168960999814,684.9168960999814,687.9162466999842,687.9162466999842,687.9162466999842,687.9002161999815,j,2.1242937999777496,0.10399900004267693,687.9002578999498,687.9002679999685,None,,,,,,,,,,,,,,00063,001,2026-01-19_18h15.20.709,MST_task,2024.2.0,59.84981287167293,2026-01-19 18h15.36.954429 +0530,
,Scenes\152a.jpg,152,0,153,,,,,,,j,0.9371467999881133,0.18400489998748526,None,,,,,,153,0,152,687.9162466999842,,,,,,,,,,,,,,,,,,,,,,,,,,,,,,687.9003634999972,687.9162466999842,688.4168089999584,688.3998870999785,,,,,,,,,,,,,,,,,,,,,,,,,,688.4056548999506,688.4168089999584,688.4168089999584,688.4168089999584,691.4162917999784,691.4162917999784,691.4162917999784,691.4002591999597,j,0.9371467999881133,0.18400489998748526,691.4003139999695,691.4003251999966,None,,,,,,,,,,,,,,00063,001,2026-01-19_18h15.20.709,MST_task,2024.2.0,59.84981287167293,2026-01-19 18h15.36.954429 +0530,
,Scenes\118a.jpg,153,0,154,,,,,,,j,0.6046261999872513,0.16854360001161695,None,,,,,,154,0,153,691.4162917999784,,,,,,,,,,,,,,,,,,,,,,,,,,,,,,691.4004249999998,691.4162917999784,691.9168775999569,691.8998931999668,,,,,,,,,,,,,,,,,,,,,,,,,,691.9060019999743,691.9168775999569,691.9168775999569,691.9168775999569,694.9162652999512,694.9162652999512,694.9162652999512,694.9002303999732,j,0.6046261999872513,0.16854360001161695,694.9002729999484,694.9002839999739,None,,,,,,,,,,,,,,00063,001,2026-01-19_18h15.20.709,MST_task,2024.2.0,59.84981287167293,2026-01-19 18h15.36.954429 +0530,
,Objects\025a.jpg,154,0,155,,,,,,,j,2.1605721000232734,0.16019450000021607,None,,,,,,155,0,154,694.9162652999512,,,,,,,,,,,,,,,,,,,,,,,,,,,,,,694.9003935999935,694.9162652999512,695.4167874999694,695.3998663999955,,,,,,,,,,,,,,,,,,,,,,,,,,695.4053850999917,695.4167874999694,695.4167874999694,695.4167874999694,698.4162858999916,698.4162858999916,698.4162858999916,698.4005001999903,j,2.1605721000232734,0.16019450000021607,698.4027203999576,698.4027440999635,None,,,,,,,,,,,,,,00063,001,2026-01-19_18h15.20.709,MST_task,2024.2.0,59.84981287167293,2026-01-19 18h15.36.954429 +0530,
,Objects\169a.jpg,155,0,156,,,,,,,j,1.07704190001823,0.1683750000083819,None,,,,,,156,0,155,698.4162858999916,,,,,,,,,,,,,,,,,,,,,,,,,,,,,,698.4028593999683,698.4162858999916,698.9165730999666,698.9001509999507,,,,,,,,,,,,,,,,,,,,,,,,,,698.9027773999842,698.9165730999666,698.9165730999666,698.9165730999666,701.9162878999487,701.9162878999487,701.9162878999487,701.9001745999558,j,1.07704190001823,0.1683750000083819,701.9002140999655,701.900224699988,None,,,,,,,,,,,,,,00063,001,2026-01-19_18h15.20.709,MST_task,2024.2.0,59.84981287167293,2026-01-19 18h15.36.954429 +0530,
