thisN,thisTrialN,thisRepN,key_resp_3.keys,key_resp_3.rt,key_resp_3.duration,trials.thisRepN,trials.thisTrialN,trials.thisN,thisRow.t,notes,intro_page.started,text.started,key_resp.started,intro_page.stopped,key_resp.keys,key_resp.rt,key_resp.duration,instructions.started,text_2.started,key_resp_2.started,instructions.stopped,key_resp_2.keys,key_resp_2.rt,key_resp_2.duration,demo1.started,image_1.started,image_2.started,text_7.started,key_resp_6.started,text_9.started,demo1.stopped,key_resp_6.keys,key_resp_6.rt,key_resp_6.duration,demo2.started,image_5.started,image_6.started,text_11.started,text_12.started,key_resp_8.started,demo2.stopped,key_resp_8.keys,key_resp_8.rt,key_resp_8.duration,demo_conclusion.started,text_13.started,key_resp_9.started,demo_conclusion.stopped,key_resp_9.keys,key_resp_9.rt,key_resp_9.duration,start_test.started,text_6.started,key_resp_5.started,start_test.stopped,key_resp_5.keys,key_resp_5.rt,key_resp_5.duration,ISI.started,text_4.started,text_4.stopped,ISI.stopped,routine_1.started,image.started,text_3.started,key_resp_3.started,routine_1.stopped,image_path,position_of_stimuli,trials.key_resp_3.keys,trials.key_resp_3.rt,trials.key_resp_3.duration,End_page.started,text_5.started,key_resp_4.started,End_page.stopped,key_resp_4.keys,key_resp_4.rt,key_resp_4.duration,participant,session,date,expName,psychopyVersion,frameRate,expStart,
,,,,,,,,,,,0.001170199946500361,0.0025795999681577086,0.0025795999681577086,2.036214799969457,space,2.018477800011169,None,,,,,,,,,,,,,,,,,,,,,,,,,,,,,,,,,,,,,,,,,,,,,,,,,,,,,,,,,,,,,,,00062,001,2026-01-19_18h03.17.511,MST_test,2024.2.0,59.99178111229279,2026-01-19 18h03.26.295989 +0530,
,,,,,,,,,,,,,,,,,,2.036248099990189,2.0511507999617606,2.0511507999617606,2.4692654999671504,space,0.40989800001261756,None,,,,,,,,,,,,,,,,,,,,,,,,,,,,,,,,,,,,,,,,,,,,,,,,,,,,,,,,00062,001,2026-01-19_18h03.17.511,MST_test,2024.2.0,59.99178111229279,2026-01-19 18h03.26.295989 +0530,
,,,,,,,,,,,,,,,,,,,,,,,,,2.469292099995073,2.484799599973485,2.484799599973485,2.484799599973485,2.484799599973485,2.484799599973485,3.6351791999768466,space,1.136781900015194,None,,,,,,,,,,,,,,,,,,,,,,,,,,,,,,,,,,,,,,,,,,,,,,00062,001,2026-01-19_18h03.17.511,MST_test,2024.2.0,59.99178111229279,2026-01-19 18h03.26.295989 +0530,
,,,,,,,,,,,,,,,,,,,,,,,,,,,,,,,,,,,3.635207499959506,3.651563499995973,3.651563499995973,3.651563499995973,3.651563499995973,3.651563499995973,5.0185696999542415,space,1.3535808000015095,None,,,,,,,,,,,,,,,,,,,,,,,,,,,,,,,,,,,,00062,001,2026-01-19_18h03.17.511,MST_test,2024.2.0,59.99178111229279,2026-01-19 18h03.26.295989 +0530,
,,,,,,,,,,,,,,,,,,,,,,,,,,,,,,,,,,,,,,,,,,,,,5.018597799993586,5.034361899946816,5.034361899946816,6.81837519997498,space,1.7712025999790058,None,,,,,,,,,,,,,,,,,,,,,,,,,,,,,00062,001,2026-01-19_18h03.17.511,MST_test,2024.2.0,59.99178111229279,2026-01-19 18h03.26.295989 +0530,
,,,,,,,,,,,,,,,,,,,,,,,,,,,,,,,,,,,,,,,,,,,,,,,,,,,,6.818406899983529,6.834388599963859,6.834388599963859,8.03487919998588,space,1.1945899000274949,None,,,,,,,,,,,,,,,,,,,,,,00062,001,2026-01-19_18h03.17.511,MST_test,2024.2.0,59.99178111229279,2026-01-19 18h03.26.295989 +0530,
0,0,1,o,4.054266099992674,None,1,0,0,8.051052699971478,,,,,,,,,,,,,,,,,,,,,,,,,,,,,,,,,,,,,,,,,,,,,,,,,,8.038843199959956,8.051052699971478,8.551472199964337,8.534660999954212,8.545050599961542,8.551472199964337,8.551472199964337,8.551472199964337,12.619454799976666,Objects\120a.jpg,mid,o,4.054266099992674,None,,,,,,,,00062,001,2026-01-19_18h03.17.511,MST_test,2024.2.0,59.99178111229279,2026-01-19 18h03.26.295989 +0530,
1,0,2,o,0.7428649000357836,None,2,0,1,12.634452699974645,,,,,,,,,,,,,,,,,,,,,,,,,,,,,,,,,,,,,,,,,,,,,,,,,,12.619547099980991,12.634452699974645,13.134583199978806,13.117969999962952,13.120937799976673,13.134583199978806,13.134583199978806,13.134583199978806,13.884991599945351,Objects\124a.jpg,post,o,0.7428649000357836,None,,,,,,,,00062,001,2026-01-19_18h03.17.511,MST_test,2024.2.0,59.99178111229279,2026-01-19 18h03.26.295989 +0530,
2,0,3,s,3.587923899991438,None,3,0,2,13.901116199966054,,,,,,,,,,,,,,,,,,,,,,,,,,,,,,,,,,,,,,,,,,,,,,,,,,13.885084499954246,13.901116199966054,14.401525299996138,14.38468749995809,14.386819799954537,14.401525299996138,14.401525299996138,14.401525299996138,18.001799699966796,Foils\scenes12.jpg,none,s,3.587923899991438,None,,,,,,,,00062,001,2026-01-19_18h03.17.511,MST_test,2024.2.0,59.99178111229279,2026-01-19 18h03.26.295989 +0530,
3,0,4,o,1.134902699966915,None,4,0,3,18.017804899951443,,,,,,,,,,,,,,,,,,,,,,,,,,,,,,,,,,,,,,,,,,,,,,,,,,18.001890899962746,18.017804899951443,18.518123299989384,18.501414599944837,18.511824999994133,18.518123299989384,18.518123299989384,18.518123299989384,19.668494699988514,Objects\053b.jpg,pre,o,1.134902699966915,None,,,,,,,,00062,001,2026-01-19_18h03.17.511,MST_test,2024.2.0,59.99178111229279,2026-01-19 18h03.26.295989 +0530,
4,0,5,o,0.8215259999851696,None,5,0,4,19.684362999978475,,,,,,,,,,,,,,,,,,,,,,,,,,,,,,,,,,,,,,,,,,,,,,,,,,19.668584499973804,19.684362999978475,20.184637099970132,20.168139399960637,20.177409699943382,20.184637099970132,20.184637099970132,20.184637099970132,21.01837299996987,Objects\016b.jpg,mid,o,0.8215259999851696,None,,,,,,,,00062,001,2026-01-19_18h03.17.511,MST_test,2024.2.0,59.99178111229279,2026-01-19 18h03.26.295989 +0530,
5,0,6,s,3.389109100040514,None,6,0,5,21.03433729999233,,,,,,,,,,,,,,,,,,,,,,,,,,,,,,,,,,,,,,,,,,,,,,,,,,21.018463299958967,21.03433729999233,21.5361305999686,21.518089399964083,21.53397159994347,21.5361305999686,21.5361305999686,21.5361305999686,24.935038699943107,Scenes\073b.jpg,mid,s,3.389109100040514,None,,,,,,,,00062,001,2026-01-19_18h03.17.511,MST_test,2024.2.0,59.99178111229279,2026-01-19 18h03.26.295989 +0530,
6,0,7,o,1.5059559000073932,None,7,0,6,24.951123699953314,,,,,,,,,,,,,,,,,,,,,,,,,,,,,,,,,,,,,,,,,,,,,,,,,,24.935140599962324,24.951123699953314,25.451743999961764,25.434661499981303,25.44670089997817,25.451743999961764,25.451743999961764,25.451743999961764,26.968451999942772,Scenes\032a.jpg,pre,o,1.5059559000073932,None,,,,,,,,00062,001,2026-01-19_18h03.17.511,MST_test,2024.2.0,59.99178111229279,2026-01-19 18h03.26.295989 +0530,
7,0,8,o,0.8967695999890566,None,8,0,7,26.984408099961,,,,,,,,,,,,,,,,,,,,,,,,,,,,,,,,,,,,,,,,,,,,,,,,,,26.968543999944814,26.984408099961,27.48454519995721,27.468010799959302,27.47260819998337,27.48454519995721,27.48454519995721,27.48454519995721,28.384983899944928,Objects\127a.jpg,post,o,0.8967695999890566,None,,,,,,,,00062,001,2026-01-19_18h03.17.511,MST_test,2024.2.0,59.99178111229279,2026-01-19 18h03.26.295989 +0530,
8,0,9,o,4.047734699968714,None,9,0,8,28.401158099994063,,,,,,,,,,,,,,,,,,,,,,,,,,,,,,,,,,,,,,,,,,,,,,,,,,28.385075300000608,28.401158099994063,28.901443299953826,28.884950599982403,28.887860799964983,28.901443299953826,28.901443299953826,28.901443299953826,32.952748899988364,Objects\149a.jpg,mid,o,4.047734699968714,None,,,,,,,,00062,001,2026-01-19_18h03.17.511,MST_test,2024.2.0,59.99178111229279,2026-01-19 18h03.26.295989 +0530,
9,0,10,n,1.9778912999900058,None,10,0,9,32.9678058999707,,,,,,,,,,,,,,,,,,,,,,,,,,,,,,,,,,,,,,,,,,,,,,,,,,32.952838699973654,32.9678058999707,33.46813699998893,33.45171939994907,33.45459889998892,33.46813699998893,33.46813699998893,33.46813699998893,35.4516429999494,Foils\113a.jpg,none,n,1.9778912999900058,None,,,,,,,,00062,001,2026-01-19_18h03.17.511,MST_test,2024.2.0,59.99178111229279,2026-01-19 18h03.26.295989 +0530,
10,0,11,s,11.099564599979203,None,11,0,10,35.46780529996613,,,,,,,,,,,,,,,,,,,,,,,,,,,,,,,,,,,,,,,,,,,,,,,,,,35.45173829997657,35.46780529996613,35.97012819995871,35.95165069994982,35.96824569994351,35.97012819995871,35.97012819995871,35.97012819995871,47.085035599942785,Scenes\130b.jpg,mid,s,11.099564599979203,None,,,,,,,,00062,001,2026-01-19_18h03.17.511,MST_test,2024.2.0,59.99178111229279,2026-01-19 18h03.26.295989 +0530,
11,0,12,o,2.235894899989944,None,12,0,11,47.10114889999386,,,,,,,,,,,,,,,,,,,,,,,,,,,,,,,,,,,,,,,,,,,,,,,,,,47.085129599960055,47.10114889999386,47.601835099980235,47.58467659994494,47.59683359996416,47.601835099980235,47.601835099980235,47.601835099980235,49.8517510999809,Scenes\076a.jpg,pre,o,2.235894899989944,None,,,,,,,,00062,001,2026-01-19_18h03.17.511,MST_test,2024.2.0,59.99178111229279,2026-01-19 18h03.26.295989 +0530,
12,0,13,s,4.163152699999046,None,13,0,12,49.867774399986956,,,,,,,,,,,,,,,,,,,,,,,,,,,,,,,,,,,,,,,,,,,,,,,,,,49.85184359998675,49.867774399986956,50.37043699994683,50.35139879997587,50.368205299950205,50.37043699994683,50.37043699994683,50.37043699994683,54.53527319995919,Scenes\078b.jpg,pre,s,4.163152699999046,None,,,,,,,,00062,001,2026-01-19_18h03.17.511,MST_test,2024.2.0,59.99178111229279,2026-01-19 18h03.26.295989 +0530,
13,0,14,s,3.7532892000162974,None,14,0,13,54.551274699973874,,,,,,,,,,,,,,,,,,,,,,,,,,,,,,,,,,,,,,,,,,,,,,,,,,54.535365999967325,54.551274699973874,55.05185509996954,55.03476629999932,55.048430099966936,55.05185509996954,55.05185509996954,55.05185509996954,58.81861829996342,Scenes\018b.jpg,pre,s,3.7532892000162974,None,,,,,,,,00062,001,2026-01-19_18h03.17.511,MST_test,2024.2.0,59.99178111229279,2026-01-19 18h03.26.295989 +0530,
14,0,15,n,4.966498899972066,None,15,0,14,58.83459059998859,,,,,,,,,,,,,,,,,,,,,,,,,,,,,,,,,,,,,,,,,,,,,,,,,,58.81870909995632,58.83459059998859,59.33518539997749,59.31822919996921,59.32706769998185,59.33518539997749,59.33518539997749,59.33518539997749,64.30240879999474,Scenes\085b.jpg,post,n,4.966498899972066,None,,,,,,,,00062,001,2026-01-19_18h03.17.511,MST_test,2024.2.0,59.99178111229279,2026-01-19 18h03.26.295989 +0530,
15,0,16,o,1.8904238999821246,None,16,0,15,64.31794619996799,,,,,,,,,,,,,,,,,,,,,,,,,,,,,,,,,,,,,,,,,,,,,,,,,,64.30250739998883,64.31794619996799,64.81863819999853,64.80166649998864,64.81124199996702,64.81863819999853,64.81863819999853,64.81863819999853,66.718524899974,Scenes\161a.jpg,pre,o,1.8904238999821246,None,,,,,,,,00062,001,2026-01-19_18h03.17.511,MST_test,2024.2.0,59.99178111229279,2026-01-19 18h03.26.295989 +0530,
16,0,17,n,2.098251099989284,None,17,0,16,66.73459209996508,,,,,,,,,,,,,,,,,,,,,,,,,,,,,,,,,,,,,,,,,,,,,,,,,,66.71861419995548,66.73459209996508,67.23516959999688,67.21830189996399,67.23255629994674,67.23516959999688,67.23516959999688,67.23516959999688,69.33505399996648,Scenes\154b.jpg,mid,n,2.098251099989284,None,,,,,,,,00062,001,2026-01-19_18h03.17.511,MST_test,2024.2.0,59.99178111229279,2026-01-19 18h03.26.295989 +0530,
17,0,18,o,4.049991000036243,None,18,0,17,69.35125789995072,,,,,,,,,,,,,,,,,,,,,,,,,,,,,,,,,,,,,,,,,,,,,,,,,,69.335143699951,69.35125789995072,69.85196669999277,69.83473989996128,69.84476019995054,69.85196669999277,69.85196669999277,69.85196669999277,73.91853749996517,Scenes\029a.jpg,pre,o,4.049991000036243,None,,,,,,,,00062,001,2026-01-19_18h03.17.511,MST_test,2024.2.0,59.99178111229279,2026-01-19 18h03.26.295989 +0530,
18,0,19,n,1.4982449000235647,None,19,0,18,73.934502899996,,,,,,,,,,,,,,,,,,,,,,,,,,,,,,,,,,,,,,,,,,,,,,,,,,73.91863009997178,73.934502899996,74.43509779998567,74.41822489997139,74.42868559999624,74.43509779998567,74.43509779998567,74.43509779998567,75.93503609998152,Foils\033a.jpg,none,n,1.4982449000235647,None,,,,,,,,00062,001,2026-01-19_18h03.17.511,MST_test,2024.2.0,59.99178111229279,2026-01-19 18h03.26.295989 +0530,
19,0,20,o,1.481561900000088,None,20,0,19,75.9512556999689,,,,,,,,,,,,,,,,,,,,,,,,,,,,,,,,,,,,,,,,,,,,,,,,,,75.935125399963,75.9512556999689,76.45149019995006,76.43505849997746,76.43775119999191,76.45149019995006,76.45149019995006,76.45149019995006,77.93503209995106,Objects\014a.jpg,post,o,1.481561900000088,None,,,,,,,,00062,001,2026-01-19_18h03.17.511,MST_test,2024.2.0,59.99178111229279,2026-01-19 18h03.26.295989 +0530,
20,0,21,o,7.60181590000866,None,21,0,20,77.9511847999529,,,,,,,,,,,,,,,,,,,,,,,,,,,,,,,,,,,,,,,,,,,,,,,,,,77.9351209999877,77.9511847999529,78.45178469998064,78.434686099994,78.4411562999594,78.45178469998064,78.45178469998064,78.45178469998064,86.06874729995616,Scenes\074b.jpg,post,o,7.60181590000866,None,,,,,,,,00062,001,2026-01-19_18h03.17.511,MST_test,2024.2.0,59.99178111229279,2026-01-19 18h03.26.295989 +0530,
21,0,22,n,2.2124141000094824,None,22,0,21,86.084360799985,,,,,,,,,,,,,,,,,,,,,,,,,,,,,,,,,,,,,,,,,,,,,,,,,,86.06885969999712,86.084360799985,86.58509609999601,86.56834319996415,86.58072149998043,86.58509609999601,86.58509609999601,86.58509609999601,88.80200489994604,Foils\010a.jpg,none,n,2.2124141000094824,None,,,,,,,,00062,001,2026-01-19_18h03.17.511,MST_test,2024.2.0,59.99178111229279,2026-01-19 18h03.26.295989 +0530,
22,0,23,n,1.839599700004328,None,23,0,22,88.81789099995513,,,,,,,,,,,,,,,,,,,,,,,,,,,,,,,,,,,,,,,,,,,,,,,,,,88.8021066999645,88.81789099995513,89.31815659999847,89.30147789994953,89.31124159996398,89.31815659999847,89.31815659999847,89.31815659999847,91.16849009995349,Objects\095b.jpg,post,n,1.839599700004328,None,,,,,,,,00062,001,2026-01-19_18h03.17.511,MST_test,2024.2.0,59.99178111229279,2026-01-19 18h03.26.295989 +0530,
23,0,24,n,2.776515300036408,None,24,0,23,91.18436979997205,,,,,,,,,,,,,,,,,,,,,,,,,,,,,,,,,,,,,,,,,,,,,,,,,,91.16858309996314,91.18436979997205,91.68469179997919,91.66817559994524,91.67073759995401,91.68469179997919,91.68469179997919,91.68469179997919,94.46858190000057,Foils\018a.jpg,none,n,2.776515300036408,None,,,,,,,,00062,001,2026-01-19_18h03.17.511,MST_test,2024.2.0,59.99178111229279,2026-01-19 18h03.26.295989 +0530,
24,0,25,n,2.228317799977958,None,25,0,24,94.48465009999927,,,,,,,,,,,,,,,,,,,,,,,,,,,,,,,,,,,,,,,,,,,,,,,,,,94.46867799997563,94.48465009999927,94.9848556999932,94.96821809996618,94.97070239996538,94.9848556999932,94.9848556999932,94.9848556999932,97.21855739998864,Objects\128b.jpg,mid,n,2.228317799977958,None,,,,,,,,00062,001,2026-01-19_18h03.17.511,MST_test,2024.2.0,59.99178111229279,2026-01-19 18h03.26.295989 +0530,
25,0,26,n,5.302637700049672,None,26,0,25,97.23474519996671,,,,,,,,,,,,,,,,,,,,,,,,,,,,,,,,,,,,,,,,,,,,,,,,,,97.21864729997469,97.23474519996671,97.7345190999913,97.71831659995951,97.72866769996472,97.7345190999913,97.7345190999913,97.7345190999913,103.05189539998537,Objects\188b.jpg,post,n,5.302637700049672,None,,,,,,,,00062,001,2026-01-19_18h03.17.511,MST_test,2024.2.0,59.99178111229279,2026-01-19 18h03.26.295989 +0530,
26,0,27,s,2.1170124000054784,None,27,0,26,103.06791789998533,,,,,,,,,,,,,,,,,,,,,,,,,,,,,,,,,,,,,,,,,,,,,,,,,,103.05198959994595,103.06791789998533,103.56801019998966,103.55143449996831,103.56134869996458,103.56801019998966,103.56801019998966,103.56801019998966,105.70167629997013,Objects\107b.jpg,pre,s,2.1170124000054784,None,,,,,,,,00062,001,2026-01-19_18h03.17.511,MST_test,2024.2.0,59.99178111229279,2026-01-19 18h03.26.295989 +0530,
27,0,28,s,2.9953820999944583,None,28,0,27,105.71792579995235,,,,,,,,,,,,,,,,,,,,,,,,,,,,,,,,,,,,,,,,,,,,,,,,,,105.70176699996227,105.71792579995235,106.21805409999797,106.20153500000015,106.21112829999765,106.21805409999797,106.21805409999797,106.21805409999797,109.2185460999608,Objects\114b.jpg,pre,s,2.9953820999944583,None,,,,,,,,00062,001,2026-01-19_18h03.17.511,MST_test,2024.2.0,59.99178111229279,2026-01-19 18h03.26.295989 +0530,
28,0,29,s,1.7355287000536919,None,29,0,28,109.23448409995763,,,,,,,,,,,,,,,,,,,,,,,,,,,,,,,,,,,,,,,,,,,,,,,,,,109.21863389998907,109.23448409995763,109.73483979998855,109.71822009998141,109.72765209997306,109.73483979998855,109.73483979998855,109.73483979998855,111.48515889997361,Objects\056b.jpg,mid,s,1.7355287000536919,None,,,,,,,,00062,001,2026-01-19_18h03.17.511,MST_test,2024.2.0,59.99178111229279,2026-01-19 18h03.26.295989 +0530,
29,0,30,s,1.7491904000053182,None,30,0,29,111.50115879997611,,,,,,,,,,,,,,,,,,,,,,,,,,,,,,,,,,,,,,,,,,,,,,,,,,111.48524879995966,111.50115879997611,112.00134929997148,111.9846401999821,111.98705329996301,112.00134929997148,112.00134929997148,112.00134929997148,113.75211389997276,Objects\049a.jpg,mid,s,1.7491904000053182,None,,,,,,,,00062,001,2026-01-19_18h03.17.511,MST_test,2024.2.0,59.99178111229279,2026-01-19 18h03.26.295989 +0530,
30,0,31,o,3.2898327999864705,None,31,0,30,113.76781859999755,,,,,,,,,,,,,,,,,,,,,,,,,,,,,,,,,,,,,,,,,,,,,,,,,,113.75220859999536,113.76781859999755,114.26815029996214,114.25167149998015,114.25456969998777,114.26815029996214,114.26815029996214,114.26815029996214,117.56862449995242,Objects\090a.jpg,post,o,3.2898327999864705,None,,,,,,,,00062,001,2026-01-19_18h03.17.511,MST_test,2024.2.0,59.99178111229279,2026-01-19 18h03.26.295989 +0530,
31,0,32,s,1.2728285999619402,None,32,0,31,117.58449019998079,,,,,,,,,,,,,,,,,,,,,,,,,,,,,,,,,,,,,,,,,,,,,,,,,,117.56871799996588,117.58449019998079,118.08463529997971,118.06810209999094,118.07040879997658,118.08463529997971,118.08463529997971,118.08463529997971,119.36842829996021,Objects\083b.jpg,pre,s,1.2728285999619402,None,,,,,,,,00062,001,2026-01-19_18h03.17.511,MST_test,2024.2.0,59.99178111229279,2026-01-19 18h03.26.295989 +0530,
32,0,33,s,4.5047417000168934,None,33,0,32,119.3843218999682,,,,,,,,,,,,,,,,,,,,,,,,,,,,,,,,,,,,,,,,,,,,,,,,,,119.36851819994627,119.3843218999682,119.88496889994713,119.86814489995595,119.8798241999466,119.88496889994713,119.88496889994713,119.88496889994713,124.40177459997358,Scenes\096b.jpg,pre,s,4.5047417000168934,None,,,,,,,,00062,001,2026-01-19_18h03.17.511,MST_test,2024.2.0,59.99178111229279,2026-01-19 18h03.26.295989 +0530,
33,0,34,s,0.7755807999637909,None,34,0,33,124.41777569998521,,,,,,,,,,,,,,,,,,,,,,,,,,,,,,,,,,,,,,,,,,,,,,,,,,124.401865599968,124.41777569998521,124.91824709996581,124.90138239995576,124.9111463999725,124.91824709996581,124.91824709996581,124.91824709996581,125.70198189996881,Objects\125b.jpg,mid,s,0.7755807999637909,None,,,,,,,,00062,001,2026-01-19_18h03.17.511,MST_test,2024.2.0,59.99178111229279,2026-01-19 18h03.26.295989 +0530,
34,0,35,n,4.15544589998899,None,35,0,34,125.71797849994618,,,,,,,,,,,,,,,,,,,,,,,,,,,,,,,,,,,,,,,,,,,,,,,,,,125.70208289998118,125.71797849994618,126.21832729998278,126.20153599994956,126.2104849999887,126.21832729998278,126.21832729998278,126.21832729998278,130.38543889997527,Scenes\120a.jpg,mid,n,4.15544589998899,None,,,,,,,,00062,001,2026-01-19_18h03.17.511,MST_test,2024.2.0,59.99178111229279,2026-01-19 18h03.26.295989 +0530,
35,0,36,o,3.5602669999934733,None,36,0,35,130.40117459994508,,,,,,,,,,,,,,,,,,,,,,,,,,,,,,,,,,,,,,,,,,,,,,,,,,130.3855295999674,130.40117459994508,130.90175419999287,130.88472309999634,130.88809480000054,130.90175419999287,130.90175419999287,130.90175419999287,134.4684619999607,Objects\082a.jpg,pre,o,3.5602669999934733,None,,,,,,,,00062,001,2026-01-19_18h03.17.511,MST_test,2024.2.0,59.99178111229279,2026-01-19 18h03.26.295989 +0530,
36,0,37,s,9.483423299971037,None,37,0,36,134.48443789995508,,,,,,,,,,,,,,,,,,,,,,,,,,,,,,,,,,,,,,,,,,,,,,,,,,134.46855109999888,134.48443789995508,134.98641459998908,134.96808199997758,134.98356549994787,134.98641459998908,134.98641459998908,134.98641459998908,144.48510619997978,Scenes\153b.jpg,post,s,9.483423299971037,None,,,,,,,,00062,001,2026-01-19_18h03.17.511,MST_test,2024.2.0,59.99178111229279,2026-01-19 18h03.26.295989 +0530,
37,0,38,s,1.684012400044594,None,38,0,37,144.50111239997204,,,,,,,,,,,,,,,,,,,,,,,,,,,,,,,,,,,,,,,,,,,,,,,,,,144.4851953999605,144.50111239997204,145.0015825999435,144.98481899994658,144.99465879995842,145.0015825999435,145.0015825999435,145.0015825999435,146.70176309999079,Objects\058b.jpg,pre,s,1.684012400044594,None,,,,,,,,00062,001,2026-01-19_18h03.17.511,MST_test,2024.2.0,59.99178111229279,2026-01-19 18h03.26.295989 +0530,
38,0,39,n,2.747902100032661,None,39,0,38,146.7177766999812,,,,,,,,,,,,,,,,,,,,,,,,,,,,,,,,,,,,,,,,,,,,,,,,,,146.70185139996465,146.7177766999812,147.21798989997478,147.20133349997923,147.2038126999978,147.21798989997478,147.21798989997478,147.21798989997478,149.96841559995664,Foils\066a.jpg,none,n,2.747902100032661,None,,,,,,,,00062,001,2026-01-19_18h03.17.511,MST_test,2024.2.0,59.99178111229279,2026-01-19 18h03.26.295989 +0530,
39,0,40,n,1.6660240000346676,None,40,0,39,149.98444289999316,,,,,,,,,,,,,,,,,,,,,,,,,,,,,,,,,,,,,,,,,,,,,,,,,,149.968504199991,149.98444289999316,150.48464649997186,150.46812119998503,150.4709131999989,150.48464649997186,150.48464649997186,150.48464649997186,152.15175609994913,Foils\009a.jpg,none,n,1.6660240000346676,None,,,,,,,,00062,001,2026-01-19_18h03.17.511,MST_test,2024.2.0,59.99178111229279,2026-01-19 18h03.26.295989 +0530,
40,0,41,n,2.1700498999562114,None,41,0,40,152.16780539997853,,,,,,,,,,,,,,,,,,,,,,,,,,,,,,,,,,,,,,,,,,,,,,,,,,152.15184549998958,152.16780539997853,152.6683192999917,152.65142650000053,152.65755199996056,152.6683192999917,152.6683192999917,152.6683192999917,154.85176409996348,Scenes\069b.jpg,pre,n,2.1700498999562114,None,,,,,,,,00062,001,2026-01-19_18h03.17.511,MST_test,2024.2.0,59.99178111229279,2026-01-19 18h03.26.295989 +0530,
41,0,42,s,2.2990281999809667,None,42,0,41,154.86785159999272,,,,,,,,,,,,,,,,,,,,,,,,,,,,,,,,,,,,,,,,,,,,,,,,,,154.85185359994648,154.86785159999272,155.37072789995,155.35158149997005,155.36859769996954,155.37072789995,155.37072789995,155.37072789995,157.68513119994896,Scenes\167b.jpg,mid,s,2.2990281999809667,None,,,,,,,,00062,001,2026-01-19_18h03.17.511,MST_test,2024.2.0,59.99178111229279,2026-01-19 18h03.26.295989 +0530,
42,0,43,s,4.316527699993458,None,43,0,42,157.70117570000002,,,,,,,,,,,,,,,,,,,,,,,,,,,,,,,,,,,,,,,,,,,,,,,,,,157.68522079999093,157.70117570000002,158.20166039996548,158.185329299944,158.1881312999758,158.20166039996548,158.20166039996548,158.20166039996548,162.53512579994276,Foils\034a.jpg,none,s,4.316527699993458,None,,,,,,,,00062,001,2026-01-19_18h03.17.511,MST_test,2024.2.0,59.99178111229279,2026-01-19 18h03.26.295989 +0530,
43,0,44,o,1.330085500027053,None,44,0,43,162.55112129996996,,,,,,,,,,,,,,,,,,,,,,,,,,,,,,,,,,,,,,,,,,,,,,,,,,162.53522329998668,162.55112129996996,163.05174539994914,163.03458049998153,163.03800129995216,163.05174539994914,163.05174539994914,163.05174539994914,164.3852103999816,Scenes\022b.jpg,mid,o,1.330085500027053,None,,,,,,,,00062,001,2026-01-19_18h03.17.511,MST_test,2024.2.0,59.99178111229279,2026-01-19 18h03.26.295989 +0530,
44,0,45,s,1.5275578000000678,None,45,0,44,164.4012601999566,,,,,,,,,,,,,,,,,,,,,,,,,,,,,,,,,,,,,,,,,,,,,,,,,,164.38531159999548,164.4012601999566,164.9015605999739,164.88455409999005,164.8874128999887,164.9015605999739,164.9015605999739,164.9015605999739,166.4350156999426,Objects\190a.jpg,post,s,1.5275578000000678,None,,,,,,,,00062,001,2026-01-19_18h03.17.511,MST_test,2024.2.0,59.99178111229279,2026-01-19 18h03.26.295989 +0530,
45,0,46,n,1.4941882999846712,None,46,0,45,166.4511692999513,,,,,,,,,,,,,,,,,,,,,,,,,,,,,,,,,,,,,,,,,,,,,,,,,,166.43511109997053,166.4511692999513,166.95133109996095,166.93468279996887,166.94463779998478,166.95133109996095,166.95133109996095,166.95133109996095,168.45230699999956,Foils\scenes13.jpg,none,n,1.4941882999846712,None,,,,,,,,00062,001,2026-01-19_18h03.17.511,MST_test,2024.2.0,59.99178111229279,2026-01-19 18h03.26.295989 +0530,
46,0,47,s,3.237505500030238,None,47,0,46,168.46789949998492,,,,,,,,,,,,,,,,,,,,,,,,,,,,,,,,,,,,,,,,,,,,,,,,,,168.45240459998604,168.46789949998492,168.96842879999895,168.95158799999626,168.95466549997218,168.96842879999895,168.96842879999895,168.96842879999895,172.21856249996927,Objects\075b.jpg,post,s,3.237505500030238,None,,,,,,,,00062,001,2026-01-19_18h03.17.511,MST_test,2024.2.0,59.99178111229279,2026-01-19 18h03.26.295989 +0530,
47,0,48,n,1.8943701999960467,None,48,0,47,172.23461289994884,,,,,,,,,,,,,,,,,,,,,,,,,,,,,,,,,,,,,,,,,,,,,,,,,,172.2186619999702,172.23461289994884,172.73496699996758,172.71835369995097,172.73239359998843,172.73496699996758,172.73496699996758,172.73496699996758,174.63529039995046,Scenes\147b.jpg,mid,n,1.8943701999960467,None,,,,,,,,00062,001,2026-01-19_18h03.17.511,MST_test,2024.2.0,59.99178111229279,2026-01-19 18h03.26.295989 +0530,
48,0,49,o,1.4533597999834456,None,49,0,48,174.65134389995364,,,,,,,,,,,,,,,,,,,,,,,,,,,,,,,,,,,,,,,,,,,,,,,,,,174.63539319997653,174.65134389995364,175.15170229994692,175.13480559998425,175.1379111999995,175.15170229994692,175.15170229994692,175.15170229994692,176.6184585999581,Objects\139a.jpg,mid,o,1.4533597999834456,None,,,,,,,,00062,001,2026-01-19_18h03.17.511,MST_test,2024.2.0,59.99178111229279,2026-01-19 18h03.26.295989 +0530,
49,0,50,o,2.175144100037869,None,50,0,49,176.63460659998236,,,,,,,,,,,,,,,,,,,,,,,,,,,,,,,,,,,,,,,,,,,,,,,,,,176.6185537999845,176.63460659998236,177.13510889996542,177.11834199994337,177.12714969995432,177.13510889996542,177.13510889996542,177.13510889996542,179.31884789996548,Scenes\121a.jpg,mid,o,2.175144100037869,None,,,,,,,,00062,001,2026-01-19_18h03.17.511,MST_test,2024.2.0,59.99178111229279,2026-01-19 18h03.26.295989 +0530,
50,0,51,o,1.2907600000035018,None,51,0,50,179.3347092999611,,,,,,,,,,,,,,,,,,,,,,,,,,,,,,,,,,,,,,,,,,,,,,,,,,179.318947999971,179.3347092999611,179.83511649997672,179.81827549997251,179.82148149999557,179.83511649997672,179.83511649997672,179.83511649997672,181.1352372999536,Objects\030a.jpg,pre,o,1.2907600000035018,None,,,,,,,,00062,001,2026-01-19_18h03.17.511,MST_test,2024.2.0,59.99178111229279,2026-01-19 18h03.26.295989 +0530,
51,0,52,o,2.4651944000506774,None,52,0,51,181.15135869994992,,,,,,,,,,,,,,,,,,,,,,,,,,,,,,,,,,,,,,,,,,,,,,,,,,181.13533279998228,181.15135869994992,181.65180599997984,181.63498079997953,181.6440781999845,181.65180599997984,181.65180599997984,181.65180599997984,184.1185359999654,Scenes\149a.jpg,pre,o,2.4651944000506774,None,,,,,,,,00062,001,2026-01-19_18h03.17.511,MST_test,2024.2.0,59.99178111229279,2026-01-19 18h03.26.295989 +0530,
52,0,53,n,3.353284500015434,None,53,0,52,184.13463869999396,,,,,,,,,,,,,,,,,,,,,,,,,,,,,,,,,,,,,,,,,,,,,,,,,,184.1186267999583,184.13463869999396,184.63578279997455,184.61816589999944,184.63373529998353,184.63578279997455,184.63578279997455,184.63578279997455,188.0018565999926,Scenes\172b.jpg,post,n,3.353284500015434,None,,,,,,,,00062,001,2026-01-19_18h03.17.511,MST_test,2024.2.0,59.99178111229279,2026-01-19 18h03.26.295989 +0530,
53,0,54,o,1.2786827000090852,None,54,0,53,188.01792769995518,,,,,,,,,,,,,,,,,,,,,,,,,,,,,,,,,,,,,,,,,,,,,,,,,,188.00195269996766,188.01792769995518,188.51841009996133,188.50157529994613,188.50429579999764,188.51841009996133,188.51841009996133,188.51841009996133,189.80182619998232,Foils\121a.jpg,none,o,1.2786827000090852,None,,,,,,,,00062,001,2026-01-19_18h03.17.511,MST_test,2024.2.0,59.99178111229279,2026-01-19 18h03.26.295989 +0530,
54,0,55,n,2.5434949999907985,None,55,0,54,189.81795139994938,,,,,,,,,,,,,,,,,,,,,,,,,,,,,,,,,,,,,,,,,,,,,,,,,,189.80192059994442,189.81795139994938,190.31815929996083,190.30174919997808,190.30472339998232,190.31815929996083,190.31815929996083,190.31815929996083,192.86859399999958,Objects\110b.jpg,post,n,2.5434949999907985,None,,,,,,,,00062,001,2026-01-19_18h03.17.511,MST_test,2024.2.0,59.99178111229279,2026-01-19 18h03.26.295989 +0530,
55,0,56,o,2.8768596000154503,None,56,0,55,192.88458779995563,,,,,,,,,,,,,,,,,,,,,,,,,,,,,,,,,,,,,,,,,,,,,,,,,,192.86868879996473,192.88458779995563,193.3846530999872,193.36815129994648,193.371317299956,193.3846530999872,193.3846530999872,193.3846530999872,196.26853299996583,Objects\069a.jpg,pre,o,2.8768596000154503,None,,,,,,,,00062,001,2026-01-19_18h03.17.511,MST_test,2024.2.0,59.99178111229279,2026-01-19 18h03.26.295989 +0530,
56,0,57,n,6.5252114000031725,None,57,0,56,196.28451569995377,,,,,,,,,,,,,,,,,,,,,,,,,,,,,,,,,,,,,,,,,,,,,,,,,,196.26862119999714,196.28451569995377,196.78472049999982,196.76825669995742,196.77790239994647,196.78472049999982,196.78472049999982,196.78472049999982,203.31844569998793,Objects\118b.jpg,post,n,6.5252114000031725,None,,,,,,,,00062,001,2026-01-19_18h03.17.511,MST_test,2024.2.0,59.99178111229279,2026-01-19 18h03.26.295989 +0530,
57,0,58,n,1.2606890000170097,None,58,0,57,203.33438419998856,,,,,,,,,,,,,,,,,,,,,,,,,,,,,,,,,,,,,,,,,,,,,,,,,,203.3185409999569,203.33438419998856,203.8347100999672,203.8186948999646,203.82152839994524,203.8347100999672,203.8347100999672,203.8347100999672,205.10191809997195,Foils\082a.jpg,none,n,1.2606890000170097,None,,,,,,,,00062,001,2026-01-19_18h03.17.511,MST_test,2024.2.0,59.99178111229279,2026-01-19 18h03.26.295989 +0530,
58,0,59,o,3.5791527000255883,None,59,0,58,205.11805119999917,,,,,,,,,,,,,,,,,,,,,,,,,,,,,,,,,,,,,,,,,,,,,,,,,,205.10200859996257,205.11805119999917,205.61819169996306,205.60168569994858,205.60470269998768,205.61819169996306,205.61819169996306,205.61819169996306,209.20189749996644,Objects\103a.jpg,pre,o,3.5791527000255883,None,,,,,,,,00062,001,2026-01-19_18h03.17.511,MST_test,2024.2.0,59.99178111229279,2026-01-19 18h03.26.295989 +0530,
59,0,60,s,6.726434100011829,None,60,0,59,209.21796799998265,,,,,,,,,,,,,,,,,,,,,,,,,,,,,,,,,,,,,,,,,,,,,,,,,,209.20198989997152,209.21796799998265,209.71863579994533,209.701575199957,209.71507279999787,209.71863579994533,209.71863579994533,209.71863579994533,216.45176759996684,Foils\scenes28.jpg,none,s,6.726434100011829,None,,,,,,,,00062,001,2026-01-19_18h03.17.511,MST_test,2024.2.0,59.99178111229279,2026-01-19 18h03.26.295989 +0530,
60,0,61,o,2.988739299995359,None,61,0,60,216.46798429999035,,,,,,,,,,,,,,,,,,,,,,,,,,,,,,,,,,,,,,,,,,,,,,,,,,216.45185759995366,216.46798429999035,216.96883499994874,216.95169749995694,216.95498769998085,216.96883499994874,216.96883499994874,216.96883499994874,219.96843479998643,Objects\169a.jpg,mid,o,2.988739299995359,None,,,,,,,,00062,001,2026-01-19_18h03.17.511,MST_test,2024.2.0,59.99178111229279,2026-01-19 18h03.26.295989 +0530,
61,0,62,o,4.439897299977019,None,62,0,61,219.98453579994384,,,,,,,,,,,,,,,,,,,,,,,,,,,,,,,,,,,,,,,,,,,,,,,,,,219.96853589999955,219.98453579994384,220.4852354999748,220.4682174999616,220.4830784999649,220.4852354999748,220.4852354999748,220.4852354999748,224.93509659997653,Scenes\168b.jpg,pre,o,4.439897299977019,None,,,,,,,,00062,001,2026-01-19_18h03.17.511,MST_test,2024.2.0,59.99178111229279,2026-01-19 18h03.26.295989 +0530,
62,0,63,o,1.7856641000253148,None,63,0,62,224.95126829994842,,,,,,,,,,,,,,,,,,,,,,,,,,,,,,,,,,,,,,,,,,,,,,,,,,224.93519719998585,224.95126829994842,225.45306739996886,225.43488189997151,225.44521429995075,225.45306739996886,225.45306739996886,225.45306739996886,227.25191880000057,Scenes\114b.jpg,pre,o,1.7856641000253148,None,,,,,,,,00062,001,2026-01-19_18h03.17.511,MST_test,2024.2.0,59.99178111229279,2026-01-19 18h03.26.295989 +0530,
63,0,64,o,2.5089281999971718,None,64,0,63,227.26786439999705,,,,,,,,,,,,,,,,,,,,,,,,,,,,,,,,,,,,,,,,,,,,,,,,,,227.25202059996082,227.26786439999705,227.76844969997182,227.75155869999435,227.7548057999811,227.76844969997182,227.76844969997182,227.76844969997182,230.2853103999514,Objects\035a.jpg,mid,o,2.5089281999971718,None,,,,,,,,00062,001,2026-01-19_18h03.17.511,MST_test,2024.2.0,59.99178111229279,2026-01-19 18h03.26.295989 +0530,
64,0,65,n,1.268528199987486,None,65,0,64,230.30124379997142,,,,,,,,,,,,,,,,,,,,,,,,,,,,,,,,,,,,,,,,,,,,,,,,,,230.28541399998358,230.30124379997142,230.8015498999739,230.78469169995515,230.7867005999433,230.8015498999739,230.8015498999739,230.8015498999739,232.08506549999584,Foils\scenes18.jpg,none,n,1.268528199987486,None,,,,,,,,00062,001,2026-01-19_18h03.17.511,MST_test,2024.2.0,59.99178111229279,2026-01-19 18h03.26.295989 +0530,
65,0,66,o,1.5334740999969654,None,66,0,65,232.10113399999682,,,,,,,,,,,,,,,,,,,,,,,,,,,,,,,,,,,,,,,,,,,,,,,,,,232.0851563999895,232.10113399999682,232.60149999998976,232.58481339999707,232.59519609995186,232.60149999998976,232.60149999998976,232.60149999998976,234.1516922999872,Objects\100b.jpg,pre,o,1.5334740999969654,None,,,,,,,,00062,001,2026-01-19_18h03.17.511,MST_test,2024.2.0,59.99178111229279,2026-01-19 18h03.26.295989 +0530,
66,0,67,o,1.9929905000026338,None,67,0,66,234.16785959998379,,,,,,,,,,,,,,,,,,,,,,,,,,,,,,,,,,,,,,,,,,,,,,,,,,234.15178319998085,234.16785959998379,234.66840639995644,234.65155499998946,234.66075279994402,234.66840639995644,234.66840639995644,234.66840639995644,236.66849799995543,Scenes\013a.jpg,mid,o,1.9929905000026338,None,,,,,,,,00062,001,2026-01-19_18h03.17.511,MST_test,2024.2.0,59.99178111229279,2026-01-19 18h03.26.295989 +0530,
67,0,68,o,7.588349399971776,None,68,0,67,236.68437319999794,,,,,,,,,,,,,,,,,,,,,,,,,,,,,,,,,,,,,,,,,,,,,,,,,,236.6685896999552,236.68437319999794,237.18479249998927,237.16813789994922,237.1713137999759,237.18479249998927,237.18479249998927,237.18479249998927,244.7851088999887,Objects\121a.jpg,pre,o,7.588349399971776,None,,,,,,,,00062,001,2026-01-19_18h03.17.511,MST_test,2024.2.0,59.99178111229279,2026-01-19 18h03.26.295989 +0530,
68,0,69,o,1.5834722999716178,None,69,0,68,244.801146599988,,,,,,,,,,,,,,,,,,,,,,,,,,,,,,,,,,,,,,,,,,,,,,,,,,244.78520499996375,244.801146599988,245.30169719998958,245.28462979994947,245.29061939998064,245.30169719998958,245.30169719998958,245.30169719998958,246.9018306999933,Scenes\091a.jpg,post,o,1.5834722999716178,None,,,,,,,,00062,001,2026-01-19_18h03.17.511,MST_test,2024.2.0,59.99178111229279,2026-01-19 18h03.26.295989 +0530,
69,0,70,s,1.7637551999650896,None,70,0,69,246.91788629995426,,,,,,,,,,,,,,,,,,,,,,,,,,,,,,,,,,,,,,,,,,,,,,,,,,246.90192519995617,246.91788629995426,247.4183130999445,247.40145469998242,247.40363509999588,247.4183130999445,247.4183130999445,247.4183130999445,249.18506119999802,Foils\scenes14.jpg,none,s,1.7637551999650896,None,,,,,,,,00062,001,2026-01-19_18h03.17.511,MST_test,2024.2.0,59.99178111229279,2026-01-19 18h03.26.295989 +0530,
70,0,71,o,1.776554899988696,None,71,0,70,249.2011464999523,,,,,,,,,,,,,,,,,,,,,,,,,,,,,,,,,,,,,,,,,,,,,,,,,,249.1851512999856,249.2011464999523,249.7014662999427,249.68476359994384,249.68833249999443,249.7014662999427,249.7014662999427,249.7014662999427,251.48509519995423,Objects\116a.jpg,pre,o,1.776554899988696,None,,,,,,,,00062,001,2026-01-19_18h03.17.511,MST_test,2024.2.0,59.99178111229279,2026-01-19 18h03.26.295989 +0530,
71,0,72,n,2.0836459000129253,None,72,0,71,251.5011422999669,,,,,,,,,,,,,,,,,,,,,,,,,,,,,,,,,,,,,,,,,,,,,,,,,,251.4851857999456,251.5011422999669,252.00142809998943,251.9846587999491,251.98746319999918,252.00142809998943,252.00142809998943,252.00142809998943,254.1017365999869,Foils\086a.jpg,none,n,2.0836459000129253,None,,,,,,,,00062,001,2026-01-19_18h03.17.511,MST_test,2024.2.0,59.99178111229279,2026-01-19 18h03.26.295989 +0530,
72,0,73,s,1.6599141000187956,None,73,0,72,254.11789319996024,,,,,,,,,,,,,,,,,,,,,,,,,,,,,,,,,,,,,,,,,,,,,,,,,,254.1018260999699,254.11789319996024,254.6181095999782,254.6014623999945,254.61122969997814,254.6181095999782,254.6181095999782,254.6181095999782,256.28515379998134,Objects\152b.jpg,pre,s,1.6599141000187956,None,,,,,,,,00062,001,2026-01-19_18h03.17.511,MST_test,2024.2.0,59.99178111229279,2026-01-19 18h03.26.295989 +0530,
73,0,74,s,2.2039359000045806,None,74,0,73,256.3011392999906,,,,,,,,,,,,,,,,,,,,,,,,,,,,,,,,,,,,,,,,,,,,,,,,,,256.2852434999659,256.3011392999906,256.8014112999663,256.78475269995397,256.7875670999638,256.8014112999663,256.8014112999663,256.8014112999663,259.01846389996354,Objects\182a.jpg,pre,s,2.2039359000045806,None,,,,,,,,00062,001,2026-01-19_18h03.17.511,MST_test,2024.2.0,59.99178111229279,2026-01-19 18h03.26.295989 +0530,
74,0,75,o,1.902389900002163,None,75,0,74,259.03438199998345,,,,,,,,,,,,,,,,,,,,,,,,,,,,,,,,,,,,,,,,,,,,,,,,,,259.0185550999595,259.03438199998345,259.5347482999787,259.51829259999795,259.52106349996757,259.5347482999787,259.5347482999787,259.5347482999787,261.45167749997927,Objects\134a.jpg,pre,o,1.902389900002163,None,,,,,,,,00062,001,2026-01-19_18h03.17.511,MST_test,2024.2.0,59.99178111229279,2026-01-19 18h03.26.295989 +0530,
75,0,76,o,1.3012882000184618,None,76,0,75,261.46787229995243,,,,,,,,,,,,,,,,,,,,,,,,,,,,,,,,,,,,,,,,,,,,,,,,,,261.45176709996304,261.46787229995243,261.96844739996595,261.9514709999785,261.9638442999567,261.96844739996595,261.96844739996595,261.96844739996595,263.2852875999524,Scenes\020b.jpg,post,o,1.3012882000184618,None,,,,,,,,00062,001,2026-01-19_18h03.17.511,MST_test,2024.2.0,59.99178111229279,2026-01-19 18h03.26.295989 +0530,
76,0,77,s,3.140229399956297,None,77,0,76,263.30129809997743,,,,,,,,,,,,,,,,,,,,,,,,,,,,,,,,,,,,,,,,,,,,,,,,,,263.2853892999701,263.30129809997743,263.80170369998086,263.7847608999582,263.7951583999675,263.80170369998086,263.80170369998086,263.80170369998086,266.9519097999437,Objects\018b.jpg,mid,s,3.140229399956297,None,,,,,,,,00062,001,2026-01-19_18h03.17.511,MST_test,2024.2.0,59.99178111229279,2026-01-19 18h03.26.295989 +0530,
77,0,78,s,3.161815600004047,None,78,0,77,266.96790489996783,,,,,,,,,,,,,,,,,,,,,,,,,,,,,,,,,,,,,,,,,,,,,,,,,,266.95201539999107,266.96790489996783,267.46830769994995,267.4513907999499,267.45782129996223,267.46830769994995,267.46830769994995,267.46830769994995,270.6351740999962,Scenes\123b.jpg,pre,s,3.161815600004047,None,,,,,,,,00062,001,2026-01-19_18h03.17.511,MST_test,2024.2.0,59.99178111229279,2026-01-19 18h03.26.295989 +0530,
78,0,79,n,1.8780013999785297,None,79,0,78,270.65118369995616,,,,,,,,,,,,,,,,,,,,,,,,,,,,,,,,,,,,,,,,,,,,,,,,,,270.63527129997965,270.65118369995616,271.1517612999887,271.1346439999761,271.13814759999514,271.1517612999887,271.1517612999887,271.1517612999887,273.03534469997976,Foils\081a.jpg,none,n,1.8780013999785297,None,,,,,,,,00062,001,2026-01-19_18h03.17.511,MST_test,2024.2.0,59.99178111229279,2026-01-19 18h03.26.295989 +0530,
79,0,80,n,1.4459913999889977,None,80,0,79,273.0512430999661,,,,,,,,,,,,,,,,,,,,,,,,,,,,,,,,,,,,,,,,,,,,,,,,,,273.03544949996285,273.0512430999661,273.6315808999934,273.53457729995716,273.62853609997546,273.6315808999934,273.6315808999934,273.6315808999934,275.08497879997594,Foils\scenes25.jpg,none,n,1.4459913999889977,None,,,,,,,,00062,001,2026-01-19_18h03.17.511,MST_test,2024.2.0,59.99178111229279,2026-01-19 18h03.26.295989 +0530,
80,0,81,s,5.267131800006609,None,81,0,80,275.10121489997255,,,,,,,,,,,,,,,,,,,,,,,,,,,,,,,,,,,,,,,,,,,,,,,,,,275.08507479995023,275.10121489997255,275.61849599995185,275.58482049999293,275.6164464999456,275.61849599995185,275.61849599995185,275.61849599995185,280.9021868999698,Scenes\174b.jpg,post,s,5.267131800006609,None,,,,,,,,00062,001,2026-01-19_18h03.17.511,MST_test,2024.2.0,59.99178111229279,2026-01-19 18h03.26.295989 +0530,
81,0,82,n,1.4637990999617614,None,82,0,81,280.9179034999688,,,,,,,,,,,,,,,,,,,,,,,,,,,,,,,,,,,,,,,,,,,,,,,,,,280.9022914999514,280.9179034999688,281.42196719994536,281.40150249999715,281.4193891999894,281.42196719994536,281.42196719994536,281.42196719994536,282.90177799999947,Foils\scenes23.jpg,none,n,1.4637990999617614,None,,,,,,,,00062,001,2026-01-19_18h03.17.511,MST_test,2024.2.0,59.99178111229279,2026-01-19 18h03.26.295989 +0530,
82,0,83,s,5.39397450000979,None,83,0,82,282.9178356999764,,,,,,,,,,,,,,,,,,,,,,,,,,,,,,,,,,,,,,,,,,,,,,,,,,282.9018707999494,282.9178356999764,283.4194432999939,283.40145949996077,283.41687759995693,283.4194432999939,283.4194432999939,283.4194432999939,288.81854419998126,Scenes\131b.jpg,mid,s,5.39397450000979,None,,,,,,,,00062,001,2026-01-19_18h03.17.511,MST_test,2024.2.0,59.99178111229279,2026-01-19 18h03.26.295989 +0530,
83,0,84,s,5.982207000022754,None,84,0,83,288.8343954999582,,,,,,,,,,,,,,,,,,,,,,,,,,,,,,,,,,,,,,,,,,,,,,,,,,288.81863369996427,288.8343954999582,289.3350469999714,289.31815219996497,289.32766299997456,289.3350469999714,289.3350469999714,289.3350469999714,295.318614799995,Scenes\094b.jpg,post,s,5.982207000022754,None,,,,,,,,00062,001,2026-01-19_18h03.17.511,MST_test,2024.2.0,59.99178111229279,2026-01-19 18h03.26.295989 +0530,
84,0,85,o,6.122130300034769,None,85,0,84,295.3346411999664,,,,,,,,,,,,,,,,,,,,,,,,,,,,,,,,,,,,,,,,,,,,,,,,,,295.31870769994566,295.3346411999664,295.8353390999837,295.8182367999689,295.8214850999648,295.8353390999837,295.8353390999837,295.8353390999837,301.9686221999582,Objects\091a.jpg,post,o,6.122130300034769,None,,,,,,,,00062,001,2026-01-19_18h03.17.511,MST_test,2024.2.0,59.99178111229279,2026-01-19 18h03.26.295989 +0530,
85,0,86,o,1.13592879998032,None,86,0,85,301.98455049999757,,,,,,,,,,,,,,,,,,,,,,,,,,,,,,,,,,,,,,,,,,,,,,,,,,301.9687114999979,301.98455049999757,302.48517789994366,302.4682788999635,302.48010869999416,302.48517789994366,302.48517789994366,302.48517789994366,303.63527569995495,Scenes\023a.jpg,mid,o,1.13592879998032,None,,,,,,,,00062,001,2026-01-19_18h03.17.511,MST_test,2024.2.0,59.99178111229279,2026-01-19 18h03.26.295989 +0530,
86,0,87,o,1.5734136999817565,None,87,0,86,303.6512404999812,,,,,,,,,,,,,,,,,,,,,,,,,,,,,,,,,,,,,,,,,,,,,,,,,,303.63536679995013,303.6512404999812,304.15191959997173,304.1348920999444,304.1448833999457,304.15191959997173,304.15191959997173,304.15191959997173,305.73501029994804,Scenes\127a.jpg,post,o,1.5734136999817565,None,,,,,,,,00062,001,2026-01-19_18h03.17.511,MST_test,2024.2.0,59.99178111229279,2026-01-19 18h03.26.295989 +0530,
87,0,88,n,1.3141693000216037,None,88,0,87,305.7512131999829,,,,,,,,,,,,,,,,,,,,,,,,,,,,,,,,,,,,,,,,,,,,,,,,,,305.7351027999539,305.7512131999829,306.2517056999495,306.23492699995404,306.2445537999738,306.2517056999495,306.2517056999495,306.2517056999495,307.5686643999652,Foils\scenes30.jpg,none,n,1.3141693000216037,None,,,,,,,,00062,001,2026-01-19_18h03.17.511,MST_test,2024.2.0,59.99178111229279,2026-01-19 18h03.26.295989 +0530,
88,0,89,o,1.896387999993749,None,89,0,88,307.58449309994467,,,,,,,,,,,,,,,,,,,,,,,,,,,,,,,,,,,,,,,,,,,,,,,,,,307.5687685999437,307.58449309994467,308.0847270999802,308.06825809995644,308.0713321999647,308.0847270999802,308.0847270999802,308.0847270999802,309.9853368999902,Objects\129b.jpg,pre,o,1.896387999993749,None,,,,,,,,00062,001,2026-01-19_18h03.17.511,MST_test,2024.2.0,59.99178111229279,2026-01-19 18h03.26.295989 +0530,
89,0,90,o,1.2882720999768935,None,90,0,89,310.00126399996225,,,,,,,,,,,,,,,,,,,,,,,,,,,,,,,,,,,,,,,,,,,,,,,,,,309.9854284999892,310.00126399996225,310.50166919996263,310.4848419999471,310.4927711999626,310.50166919996263,310.50166919996263,310.50166919996263,311.8019452999579,Scenes\067a.jpg,mid,o,1.2882720999768935,None,,,,,,,,00062,001,2026-01-19_18h03.17.511,MST_test,2024.2.0,59.99178111229279,2026-01-19 18h03.26.295989 +0530,
90,0,91,n,1.1653203999740072,None,91,0,90,311.81799179996597,,,,,,,,,,,,,,,,,,,,,,,,,,,,,,,,,,,,,,,,,,,,,,,,,,311.802033999993,311.81799179996597,312.32055249996483,312.3016259999713,312.31831319996854,312.32055249996483,312.32055249996483,312.32055249996483,313.50199849996716,Foils\scenes22.jpg,none,n,1.1653203999740072,None,,,,,,,,00062,001,2026-01-19_18h03.17.511,MST_test,2024.2.0,59.99178111229279,2026-01-19 18h03.26.295989 +0530,
91,0,92,o,1.1064050000277348,None,92,0,91,313.51789749995805,,,,,,,,,,,,,,,,,,,,,,,,,,,,,,,,,,,,,,,,,,,,,,,,,,313.502090999973,313.51789749995805,314.01868659997126,314.00163809995865,314.0113940999727,314.01868659997126,314.01868659997126,314.01868659997126,315.13515799999004,Scenes\052a.jpg,pre,o,1.1064050000277348,None,,,,,,,,00062,001,2026-01-19_18h03.17.511,MST_test,2024.2.0,59.99178111229279,2026-01-19 18h03.26.295989 +0530,
92,0,93,o,0.8336992000113241,None,93,0,92,315.1512417999911,,,,,,,,,,,,,,,,,,,,,,,,,,,,,,,,,,,,,,,,,,,,,,,,,,315.13524539995706,315.1512417999911,315.65181579999626,315.63487979996717,315.6432608999894,315.65181579999626,315.65181579999626,315.65181579999626,316.50200989999576,Scenes\019a.jpg,mid,o,0.8336992000113241,None,,,,,,,,00062,001,2026-01-19_18h03.17.511,MST_test,2024.2.0,59.99178111229279,2026-01-19 18h03.26.295989 +0530,
93,0,94,o,1.1470831999904476,None,94,0,93,316.5179317999864,,,,,,,,,,,,,,,,,,,,,,,,,,,,,,,,,,,,,,,,,,,,,,,,,,316.5021095999982,316.5179317999864,317.01861749996897,317.00156309996964,317.0099071000004,317.01861749996897,317.01861749996897,317.01861749996897,318.16876699996646,Scenes\150a.jpg,post,o,1.1470831999904476,None,,,,,,,,00062,001,2026-01-19_18h03.17.511,MST_test,2024.2.0,59.99178111229279,2026-01-19 18h03.26.295989 +0530,
94,0,95,s,4.4247094000456855,None,95,0,94,318.18465099995956,,,,,,,,,,,,,,,,,,,,,,,,,,,,,,,,,,,,,,,,,,,,,,,,,,318.16886669996893,318.18465099995956,318.68500469997525,318.66841179999756,318.67198039998766,318.68500469997525,318.68500469997525,318.68500469997525,323.11850139999297,Objects\004a.jpg,post,s,4.4247094000456855,None,,,,,,,,00062,001,2026-01-19_18h03.17.511,MST_test,2024.2.0,59.99178111229279,2026-01-19 18h03.26.295989 +0530,
95,0,96,s,5.019336100027431,None,96,0,95,323.13446149998344,,,,,,,,,,,,,,,,,,,,,,,,,,,,,,,,,,,,,,,,,,,,,,,,,,323.11859689996345,323.13446149998344,323.63455049996264,323.6181737999432,323.62110549997305,323.63455049996264,323.63455049996264,323.63455049996264,328.6685717999935,Foils\097a.jpg,none,s,5.019336100027431,None,,,,,,,,00062,001,2026-01-19_18h03.17.511,MST_test,2024.2.0,59.99178111229279,2026-01-19 18h03.26.295989 +0530,
96,0,97,o,1.509461999987252,None,97,0,96,328.6844400999835,,,,,,,,,,,,,,,,,,,,,,,,,,,,,,,,,,,,,,,,,,,,,,,,,,328.66869639995275,328.6844400999835,329.1847077999846,329.16815779998433,329.17102129996056,329.1847077999846,329.1847077999846,329.1847077999846,330.70183549996,Objects\020a.jpg,mid,o,1.509461999987252,None,,,,,,,,00062,001,2026-01-19_18h03.17.511,MST_test,2024.2.0,59.99178111229279,2026-01-19 18h03.26.295989 +0530,
97,0,98,s,1.5396337000420317,None,98,0,97,330.71789119997993,,,,,,,,,,,,,,,,,,,,,,,,,,,,,,,,,,,,,,,,,,,,,,,,,,330.70192669995595,330.71789119997993,331.2181121999747,331.20150519994786,331.2042444999679,331.2181121999747,331.2181121999747,331.2181121999747,332.7683829999878,Objects\173a.jpg,mid,s,1.5396337000420317,None,,,,,,,,00062,001,2026-01-19_18h03.17.511,MST_test,2024.2.0,59.99178111229279,2026-01-19 18h03.26.295989 +0530,
98,0,99,o,2.2254235000000335,None,99,0,98,332.78447519999463,,,,,,,,,,,,,,,,,,,,,,,,,,,,,,,,,,,,,,,,,,,,,,,,,,332.76847109996015,332.78447519999463,333.28504179994343,333.26817719999235,333.2775731999427,333.28504179994343,333.28504179994343,333.28504179994343,335.51869879994774,Scenes\143a.jpg,pre,o,2.2254235000000335,None,,,,,,,,00062,001,2026-01-19_18h03.17.511,MST_test,2024.2.0,59.99178111229279,2026-01-19 18h03.26.295989 +0530,
99,0,100,o,2.8501895000226796,None,100,0,99,335.53449169994565,,,,,,,,,,,,,,,,,,,,,,,,,,,,,,,,,,,,,,,,,,,,,,,,,,335.51879239996197,335.53449169994565,336.03512869996484,336.01816449995385,336.02932419994613,336.03512869996484,336.03512869996484,336.03512869996484,338.90184029995,Scenes\025a.jpg,pre,o,2.8501895000226796,None,,,,,,,,00062,001,2026-01-19_18h03.17.511,MST_test,2024.2.0,59.99178111229279,2026-01-19 18h03.26.295989 +0530,
100,0,101,o,3.3658725999994203,None,101,0,100,338.9178918999969,,,,,,,,,,,,,,,,,,,,,,,,,,,,,,,,,,,,,,,,,,,,,,,,,,338.90193089999957,338.9178918999969,339.42329419997986,339.40150719997473,339.42112609994365,339.42329419997986,339.42329419997986,339.42329419997986,342.8019068999565,Scenes\092b.jpg,pre,o,3.3658725999994203,None,,,,,,,,00062,001,2026-01-19_18h03.17.511,MST_test,2024.2.0,59.99178111229279,2026-01-19 18h03.26.295989 +0530,
101,0,102,o,3.9751967000192963,None,102,0,101,342.81796309998026,,,,,,,,,,,,,,,,,,,,,,,,,,,,,,,,,,,,,,,,,,,,,,,,,,342.80199949996313,342.81796309998026,343.31840289995307,343.3016315999557,343.3124681999907,343.31840289995307,343.31840289995307,343.31840289995307,347.30199579999316,Objects\068b.jpg,mid,o,3.9751967000192963,None,,,,,,,,00062,001,2026-01-19_18h03.17.511,MST_test,2024.2.0,59.99178111229279,2026-01-19 18h03.26.295989 +0530,
102,0,103,o,0.8112172999535687,None,103,0,102,347.31798069999786,,,,,,,,,,,,,,,,,,,,,,,,,,,,,,,,,,,,,,,,,,,,,,,,,,347.3020993999671,347.31798069999786,347.81810409994796,347.80148359999293,347.8042835999513,347.81810409994796,347.81810409994796,347.81810409994796,348.63493859994924,Objects\010a.jpg,mid,o,0.8112172999535687,None,,,,,,,,00062,001,2026-01-19_18h03.17.511,MST_test,2024.2.0,59.99178111229279,2026-01-19 18h03.26.295989 +0530,
103,0,104,s,2.3664893999812193,None,104,0,103,348.65124139998807,,,,,,,,,,,,,,,,,,,,,,,,,,,,,,,,,,,,,,,,,,,,,,,,,,348.6350256999722,348.65124139998807,349.1514539999771,349.13468449999345,349.1374778999598,349.1514539999771,349.1514539999771,349.1514539999771,351.5186678999453,Objects\085a.jpg,post,s,2.3664893999812193,None,,,,,,,,00062,001,2026-01-19_18h03.17.511,MST_test,2024.2.0,59.99178111229279,2026-01-19 18h03.26.295989 +0530,
104,0,105,n,0.8834249999490567,None,105,0,104,351.534505299991,,,,,,,,,,,,,,,,,,,,,,,,,,,,,,,,,,,,,,,,,,,,,,,,,,351.51875669998117,351.534505299991,352.034917699988,352.0181037999573,352.0267736999667,352.034917699988,352.034917699988,352.034917699988,352.9351279999828,Scenes\116a.jpg,post,n,0.8834249999490567,None,,,,,,,,00062,001,2026-01-19_18h03.17.511,MST_test,2024.2.0,59.99178111229279,2026-01-19 18h03.26.295989 +0530,
105,0,106,o,1.1781481999787502,None,106,0,105,352.9512126999907,,,,,,,,,,,,,,,,,,,,,,,,,,,,,,,,,,,,,,,,,,,,,,,,,,352.9352225999464,352.9512126999907,,353.43585129996063,353.4455431999522,353.4518809999572,353.4518809999572,353.4518809999572,354.6351329999743,Scenes\035a.jpg,mid,o,1.1781481999787502,None,,,,,,,,00062,001,2026-01-19_18h03.17.511,MST_test,2024.2.0,59.99178111229279,2026-01-19 18h03.26.295989 +0530,
106,0,107,o,3.0295597999938764,None,107,0,106,354.6511643999838,,,,,,,,,,,,,,,,,,,,,,,,,,,,,,,,,,,,,,,,,,,,,,,,,,354.6352219999535,354.6511643999838,355.151719699963,355.13476059999084,355.1383895999752,355.151719699963,355.151719699963,355.151719699963,358.18494239996653,Objects\112a.jpg,post,o,3.0295597999938764,None,,,,,,,,00062,001,2026-01-19_18h03.17.511,MST_test,2024.2.0,59.99178111229279,2026-01-19 18h03.26.295989 +0530,
107,0,108,n,10.247357300017029,None,108,0,107,358.2012403999688,,,,,,,,,,,,,,,,,,,,,,,,,,,,,,,,,,,,,,,,,,,,,,,,,,358.1850334999617,358.2012403999688,358.7017707999912,358.68466109997826,358.69494729995495,358.7017707999912,358.7017707999912,358.7017707999912,368.9517495999462,Scenes\084a.jpg,post,n,10.247357300017029,None,,,,,,,,00062,001,2026-01-19_18h03.17.511,MST_test,2024.2.0,59.99178111229279,2026-01-19 18h03.26.295989 +0530,
108,0,109,n,1.105794999981299,None,109,0,108,368.9678881999571,,,,,,,,,,,,,,,,,,,,,,,,,,,,,,,,,,,,,,,,,,,,,,,,,,368.95184059999883,368.9678881999571,369.4683349999832,369.4515909999609,369.45486759999767,369.4683349999832,369.4683349999832,369.4683349999832,370.58506959996885,Foils\106a.jpg,none,n,1.105794999981299,None,,,,,,,,00062,001,2026-01-19_18h03.17.511,MST_test,2024.2.0,59.99178111229279,2026-01-19 18h03.26.295989 +0530,
109,0,110,o,3.623490799975116,None,110,0,109,370.60123639996164,,,,,,,,,,,,,,,,,,,,,,,,,,,,,,,,,,,,,,,,,,,,,,,,,,370.58517179999035,370.60123639996164,371.10179339995375,371.0847702999599,371.09772669995436,371.10179339995375,371.10179339995375,371.10179339995375,374.7349280999624,Scenes\082a.jpg,mid,o,3.623490799975116,None,,,,,,,,00062,001,2026-01-19_18h03.17.511,MST_test,2024.2.0,59.99178111229279,2026-01-19 18h03.26.295989 +0530,
110,0,111,n,2.65647300001001,None,111,0,110,374.75123739999253,,,,,,,,,,,,,,,,,,,,,,,,,,,,,,,,,,,,,,,,,,,,,,,,,,374.7350222999812,374.75123739999253,375.2526968999882,375.23473469994497,375.2502612999524,375.2526968999882,375.2526968999882,375.2526968999882,377.91866639995715,Scenes\146b.jpg,pre,n,2.65647300001001,None,,,,,,,,00062,001,2026-01-19_18h03.17.511,MST_test,2024.2.0,59.99178111229279,2026-01-19 18h03.26.295989 +0530,
111,0,112,o,1.8830669000162743,None,112,0,111,377.93443059996935,,,,,,,,,,,,,,,,,,,,,,,,,,,,,,,,,,,,,,,,,,,,,,,,,,377.91876759997103,377.93443059996935,378.4350154999993,378.4181572999805,378.4239616999985,378.4350154999993,378.4350154999993,378.4350154999993,380.3188361999928,Scenes\141a.jpg,post,o,1.8830669000162743,None,,,,,,,,00062,001,2026-01-19_18h03.17.511,MST_test,2024.2.0,59.99178111229279,2026-01-19 18h03.26.295989 +0530,
112,0,113,o,1.0182504000258632,None,113,0,112,380.3346859999583,,,,,,,,,,,,,,,,,,,,,,,,,,,,,,,,,,,,,,,,,,,,,,,,,,380.31893409998156,380.3346859999583,380.8349398999708,380.8181802999461,380.82130219996907,380.8349398999708,380.8349398999708,380.8349398999708,381.8684472999885,Objects\140a.jpg,pre,o,1.0182504000258632,None,,,,,,,,00062,001,2026-01-19_18h03.17.511,MST_test,2024.2.0,59.99178111229279,2026-01-19 18h03.26.295989 +0530,
113,0,114,s,10.02768510003807,None,114,0,113,381.8844271999551,,,,,,,,,,,,,,,,,,,,,,,,,,,,,,,,,,,,,,,,,,,,,,,,,,381.8685415999498,381.8844271999551,382.38588139996864,382.36816199996974,382.383820499992,382.38588139996864,382.38588139996864,382.38588139996864,392.41841259994544,Scenes\042b.jpg,pre,s,10.02768510003807,None,,,,,,,,00062,001,2026-01-19_18h03.17.511,MST_test,2024.2.0,59.99178111229279,2026-01-19 18h03.26.295989 +0530,
114,0,115,o,6.974313400045503,None,115,0,114,392.4344035999966,,,,,,,,,,,,,,,,,,,,,,,,,,,,,,,,,,,,,,,,,,,,,,,,,,392.4185060999589,392.4344035999966,392.9350428999751,392.91816159995506,392.92572469997685,392.9350428999751,392.9350428999751,392.9350428999751,399.9185239999788,Scenes\109a.jpg,post,o,6.974313400045503,None,,,,,,,,00062,001,2026-01-19_18h03.17.511,MST_test,2024.2.0,59.99178111229279,2026-01-19 18h03.26.295989 +0530,
115,0,116,o,2.594932999985758,None,116,0,115,399.9344487999915,,,,,,,,,,,,,,,,,,,,,,,,,,,,,,,,,,,,,,,,,,,,,,,,,,399.9186124999542,399.9344487999915,400.4348925999948,400.4182012999663,400.421347699943,400.4348925999948,400.4348925999948,400.4348925999948,403.03519849997247,Objects\084a.jpg,mid,o,2.594932999985758,None,,,,,,,,00062,001,2026-01-19_18h03.17.511,MST_test,2024.2.0,59.99178111229279,2026-01-19 18h03.26.295989 +0530,
116,0,117,o,1.493454199982807,None,117,0,116,403.05128229997354,,,,,,,,,,,,,,,,,,,,,,,,,,,,,,,,,,,,,,,,,,,,,,,,,,403.0352936999989,403.05128229997354,403.5517938999692,403.53472639998654,403.5446829999564,403.5517938999692,403.5517938999692,403.5517938999692,405.05181809997885,Scenes\041a.jpg,post,o,1.493454199982807,None,,,,,,,,00062,001,2026-01-19_18h03.17.511,MST_test,2024.2.0,59.99178111229279,2026-01-19 18h03.26.295989 +0530,
117,0,118,s,1.6864617999526672,None,118,0,117,405.06791039998643,,,,,,,,,,,,,,,,,,,,,,,,,,,,,,,,,,,,,,,,,,,,,,,,,,405.0519084999687,405.06791039998643,405.56833229999756,405.5515495999716,405.5628960999893,405.56833229999756,405.56833229999756,405.56833229999756,407.2683937999536,Foils\073a.jpg,none,s,1.6864617999526672,None,,,,,,,,00062,001,2026-01-19_18h03.17.511,MST_test,2024.2.0,59.99178111229279,2026-01-19 18h03.26.295989 +0530,
118,0,119,s,2.46109780005645,None,119,0,118,407.2845292999991,,,,,,,,,,,,,,,,,,,,,,,,,,,,,,,,,,,,,,,,,,,,,,,,,,407.2684835999971,407.2845292999991,407.78465909999795,407.76828019996174,407.7710501999827,407.78465909999795,407.78465909999795,407.78465909999795,410.2519281999557,Objects\061b.jpg,post,s,2.46109780005645,None,,,,,,,,00062,001,2026-01-19_18h03.17.511,MST_test,2024.2.0,59.99178111229279,2026-01-19 18h03.26.295989 +0530,
119,0,120,o,1.3491022000089288,None,120,0,119,410.26789289998123,,,,,,,,,,,,,,,,,,,,,,,,,,,,,,,,,,,,,,,,,,,,,,,,,,410.2520205999608,410.26789289998123,410.7685470999568,410.75152709998656,410.7609867999563,410.7685470999568,410.7685470999568,410.7685470999568,412.1185270999558,Scenes\134a.jpg,pre,o,1.3491022000089288,None,,,,,,,,00062,001,2026-01-19_18h03.17.511,MST_test,2024.2.0,59.99178111229279,2026-01-19 18h03.26.295989 +0530,
120,0,121,n,1.3840979000087827,None,121,0,120,412.13458489999175,,,,,,,,,,,,,,,,,,,,,,,,,,,,,,,,,,,,,,,,,,,,,,,,,,412.1186301999842,412.13458489999175,412.63719079998555,412.61824349995004,412.6350553999655,412.63719079998555,412.63719079998555,412.63719079998555,414.03516279999167,Scenes\063b.jpg,post,n,1.3840979000087827,None,,,,,,,,00062,001,2026-01-19_18h03.17.511,MST_test,2024.2.0,59.99178111229279,2026-01-19 18h03.26.295989 +0530,
121,0,122,s,2.182123699982185,None,122,0,121,414.05136639997363,,,,,,,,,,,,,,,,,,,,,,,,,,,,,,,,,,,,,,,,,,,,,,,,,,414.0352524999762,414.05136639997363,414.5518015999696,414.53499049996026,414.53736329998355,414.5518015999696,414.5518015999696,414.5518015999696,416.7354561999673,Foils\scenes2.jpg,none,s,2.182123699982185,None,,,,,,,,00062,001,2026-01-19_18h03.17.511,MST_test,2024.2.0,59.99178111229279,2026-01-19 18h03.26.295989 +0530,
122,0,123,o,5.673705700028222,None,123,0,122,416.751430699951,,,,,,,,,,,,,,,,,,,,,,,,,,,,,,,,,,,,,,,,,,,,,,,,,,416.7355466999579,416.751430699951,417.25172449997626,417.2348949999432,417.238762999943,417.25172449997626,417.25172449997626,417.25172449997626,422.9353806999861,Objects\131a.jpg,pre,o,5.673705700028222,None,,,,,,,,00062,001,2026-01-19_18h03.17.511,MST_test,2024.2.0,59.99178111229279,2026-01-19 18h03.26.295989 +0530,
123,0,124,n,5.249684199981857,None,124,0,123,422.95147189998534,,,,,,,,,,,,,,,,,,,,,,,,,,,,,,,,,,,,,,,,,,,,,,,,,,422.93547559995204,422.95147189998534,423.4515052999486,423.4347988999798,423.43777129997034,423.4515052999486,423.4515052999486,423.4515052999486,428.7019339999533,Foils\020b.jpg,none,n,5.249684199981857,None,,,,,,,,00062,001,2026-01-19_18h03.17.511,MST_test,2024.2.0,59.99178111229279,2026-01-19 18h03.26.295989 +0530,
124,0,125,o,1.803565800015349,None,125,0,124,428.71809869998833,,,,,,,,,,,,,,,,,,,,,,,,,,,,,,,,,,,,,,,,,,,,,,,,,,428.7020225999877,428.71809869998833,429.2182513999869,429.20166069996776,429.20465649996186,429.2182513999869,429.2182513999869,429.2182513999869,431.0351794999442,Objects\147b.jpg,mid,o,1.803565800015349,None,,,,,,,,00062,001,2026-01-19_18h03.17.511,MST_test,2024.2.0,59.99178111229279,2026-01-19 18h03.26.295989 +0530,
125,0,126,o,2.0535636999993585,None,126,0,125,431.05133809999097,,,,,,,,,,,,,,,,,,,,,,,,,,,,,,,,,,,,,,,,,,,,,,,,,,431.0352708999999,431.05133809999097,431.55161949998,431.53483919997234,431.54426409996813,431.55161949998,431.55161949998,431.55161949998,433.6185783999972,Objects\150b.jpg,post,o,2.0535636999993585,None,,,,,,,,00062,001,2026-01-19_18h03.17.511,MST_test,2024.2.0,59.99178111229279,2026-01-19 18h03.26.295989 +0530,
126,0,127,n,1.1830156000214629,None,127,0,126,433.63476389995776,,,,,,,,,,,,,,,,,,,,,,,,,,,,,,,,,,,,,,,,,,,,,,,,,,433.618666299968,433.63476389995776,434.13510859996313,434.11828639998566,434.12764559994685,434.13510859996313,434.13510859996313,434.13510859996313,435.3188788999687,Foils\scenes4.jpg,none,n,1.1830156000214629,None,,,,,,,,00062,001,2026-01-19_18h03.17.511,MST_test,2024.2.0,59.99178111229279,2026-01-19 18h03.26.295989 +0530,
127,0,128,o,1.6268394999788143,None,128,0,127,435.33449159999145,,,,,,,,,,,,,,,,,,,,,,,,,,,,,,,,,,,,,,,,,,,,,,,,,,435.3189763999544,435.33449159999145,435.83507869997993,435.81824879994383,435.8216337999911,435.83507869997993,435.83507869997993,435.83507869997993,437.46880109998165,Objects\142b.jpg,pre,o,1.6268394999788143,None,,,,,,,,00062,001,2026-01-19_18h03.17.511,MST_test,2024.2.0,59.99178111229279,2026-01-19 18h03.26.295989 +0530,
128,0,129,o,1.3951416999916546,None,129,0,128,437.4846328999847,,,,,,,,,,,,,,,,,,,,,,,,,,,,,,,,,,,,,,,,,,,,,,,,,,437.46890949999215,437.4846328999847,437.9863753999816,437.9683631999651,437.9842285999912,437.9863753999816,437.9863753999816,437.9863753999816,439.3852266999893,Scenes\021b.jpg,post,o,1.3951416999916546,None,,,,,,,,00062,001,2026-01-19_18h03.17.511,MST_test,2024.2.0,59.99178111229279,2026-01-19 18h03.26.295989 +0530,
129,0,130,o,1.655532700009644,None,130,0,129,439.40145199996186,,,,,,,,,,,,,,,,,,,,,,,,,,,,,,,,,,,,,,,,,,,,,,,,,,439.3853218999575,439.40145199996186,439.9018635999528,439.88513829995645,439.8955560999457,439.9018635999528,439.9018635999528,439.9018635999528,441.5686208999832,Objects\046b.jpg,post,o,1.655532700009644,None,,,,,,,,00062,001,2026-01-19_18h03.17.511,MST_test,2024.2.0,59.99178111229279,2026-01-19 18h03.26.295989 +0530,
130,0,131,n,1.0099163000122644,None,131,0,130,441.5845697999466,,,,,,,,,,,,,,,,,,,,,,,,,,,,,,,,,,,,,,,,,,,,,,,,,,441.5687086999533,441.5845697999466,442.08517719997326,442.06852459994843,442.0754616999766,442.08517719997326,442.08517719997326,442.08517719997326,443.10188779997407,Scenes\157b.jpg,post,n,1.0099163000122644,None,,,,,,,,00062,001,2026-01-19_18h03.17.511,MST_test,2024.2.0,59.99178111229279,2026-01-19 18h03.26.295989 +0530,
131,0,132,n,1.6196159000392072,None,132,0,131,443.11794339999324,,,,,,,,,,,,,,,,,,,,,,,,,,,,,,,,,,,,,,,,,,,,,,,,,,443.10199029999785,443.11794339999324,443.6185263999505,443.60161389998393,443.60508929996286,443.6185263999505,443.6185263999505,443.6185263999505,445.2519341999432,Foils\002a.jpg,none,n,1.6196159000392072,None,,,,,,,,00062,001,2026-01-19_18h03.17.511,MST_test,2024.2.0,59.99178111229279,2026-01-19 18h03.26.295989 +0530,
132,0,133,o,1.1726634000078775,None,133,0,132,445.2679263999453,,,,,,,,,,,,,,,,,,,,,,,,,,,,,,,,,,,,,,,,,,,,,,,,,,445.252028399962,445.2679263999453,445.7684712999617,445.75160219997633,445.7575959999813,445.7684712999617,445.7684712999617,445.7684712999617,446.95186869997997,Scenes\175a.jpg,post,o,1.1726634000078775,None,,,,,,,,00062,001,2026-01-19_18h03.17.511,MST_test,2024.2.0,59.99178111229279,2026-01-19 18h03.26.295989 +0530,
133,0,134,s,2.033182199986186,None,134,0,133,446.96805229998427,,,,,,,,,,,,,,,,,,,,,,,,,,,,,,,,,,,,,,,,,,,,,,,,,,446.9519632999436,446.96805229998427,447.4685722999857,447.4515112999943,447.4622000999516,447.4685722999857,447.4685722999857,447.4685722999857,449.5185400999617,Scenes\087b.jpg,mid,s,2.033182199986186,None,,,,,,,,00062,001,2026-01-19_18h03.17.511,MST_test,2024.2.0,59.99178111229279,2026-01-19 18h03.26.295989 +0530,
134,0,135,s,2.3306851000525057,None,135,0,134,449.5346897999989,,,,,,,,,,,,,,,,,,,,,,,,,,,,,,,,,,,,,,,,,,,,,,,,,,449.51862889999757,449.5346897999989,450.0348190999939,450.0182549999445,450.02128839999205,450.0348190999939,450.0348190999939,450.0348190999939,452.3686572999577,Foils\065a.jpg,none,s,2.3306851000525057,None,,,,,,,,00062,001,2026-01-19_18h03.17.511,MST_test,2024.2.0,59.99178111229279,2026-01-19 18h03.26.295989 +0530,
135,0,136,o,1.2167606999864802,None,136,0,135,452.3845197999617,,,,,,,,,,,,,,,,,,,,,,,,,,,,,,,,,,,,,,,,,,,,,,,,,,452.36876379995374,452.3845197999617,452.88548889994854,452.8682779999799,452.87790379999205,452.88548889994854,452.88548889994854,452.88548889994854,454.11861579999095,Scenes\017a.jpg,mid,o,1.2167606999864802,None,,,,,,,,00062,001,2026-01-19_18h03.17.511,MST_test,2024.2.0,59.99178111229279,2026-01-19 18h03.26.295989 +0530,
136,0,137,s,1.9457550999941304,None,137,0,136,454.13454449997516,,,,,,,,,,,,,,,,,,,,,,,,,,,,,,,,,,,,,,,,,,,,,,,,,,454.1187071999884,454.13454449997516,454.63597809994826,454.6183342000004,454.6335581999738,454.63597809994826,454.63597809994826,454.63597809994826,456.58519559999695,Scenes\163b.jpg,mid,s,1.9457550999941304,None,,,,,,,,00062,001,2026-01-19_18h03.17.511,MST_test,2024.2.0,59.99178111229279,2026-01-19 18h03.26.295989 +0530,
137,0,138,n,3.6000000999774784,None,138,0,137,456.6013644999475,,,,,,,,,,,,,,,,,,,,,,,,,,,,,,,,,,,,,,,,,,,,,,,,,,456.58528899995144,456.6013644999475,457.1019130999921,457.0848891999922,457.0977889999631,457.1019130999921,457.1019130999921,457.1019130999921,460.7186083999695,Foils\058a.jpg,none,n,3.6000000999774784,None,,,,,,,,00062,001,2026-01-19_18h03.17.511,MST_test,2024.2.0,59.99178111229279,2026-01-19 18h03.26.295989 +0530,
138,0,139,n,2.090021300013177,None,139,0,138,460.73469339997973,,,,,,,,,,,,,,,,,,,,,,,,,,,,,,,,,,,,,,,,,,,,,,,,,,460.71869839995634,460.73469339997973,461.235180699965,461.21824609994655,461.2318104999722,461.235180699965,461.235180699965,461.235180699965,463.335295799945,Scenes\173b.jpg,post,n,2.090021300013177,None,,,,,,,,00062,001,2026-01-19_18h03.17.511,MST_test,2024.2.0,59.99178111229279,2026-01-19 18h03.26.295989 +0530,
139,0,140,s,3.2101090000360273,None,140,0,139,463.3513508999604,,,,,,,,,,,,,,,,,,,,,,,,,,,,,,,,,,,,,,,,,,,,,,,,,,463.33538709999993,463.3513508999604,463.85177299997304,463.83485979994293,463.8380119999638,463.85177299997304,463.85177299997304,463.85177299997304,467.0685918999952,Objects\181a.jpg,post,s,3.2101090000360273,None,,,,,,,,00062,001,2026-01-19_18h03.17.511,MST_test,2024.2.0,59.99178111229279,2026-01-19 18h03.26.295989 +0530,
140,0,141,o,2.852535500016529,None,141,0,140,467.08467999997083,,,,,,,,,,,,,,,,,,,,,,,,,,,,,,,,,,,,,,,,,,,,,,,,,,467.0686822999851,467.08467999997083,467.58473969995975,467.5685047999723,467.5713952999795,467.58473969995975,467.58473969995975,467.58473969995975,470.4519058999722,Objects\052a.jpg,post,o,2.852535500016529,None,,,,,,,,00062,001,2026-01-19_18h03.17.511,MST_test,2024.2.0,59.99178111229279,2026-01-19 18h03.26.295989 +0530,
141,0,142,n,4.597049599979073,None,142,0,141,470.4679331999505,,,,,,,,,,,,,,,,,,,,,,,,,,,,,,,,,,,,,,,,,,,,,,,,,,470.45200379996095,470.4679331999505,470.9684519999428,470.9515392999747,470.96097819996066,470.9684519999428,470.9684519999428,470.9684519999428,475.5686861999566,Scenes\105b.jpg,mid,n,4.597049599979073,None,,,,,,,,00062,001,2026-01-19_18h03.17.511,MST_test,2024.2.0,59.99178111229279,2026-01-19 18h03.26.295989 +0530,
142,0,143,n,2.5843744999729097,None,143,0,142,475.5845410999609,,,,,,,,,,,,,,,,,,,,,,,,,,,,,,,,,,,,,,,,,,,,,,,,,,475.56877919996623,475.5845410999609,476.08493449998787,476.06809819996124,476.0703556999797,476.08493449998787,476.08493449998787,476.08493449998787,478.68498939997517,Foils\scenes1.jpg,none,n,2.5843744999729097,None,,,,,,,,00062,001,2026-01-19_18h03.17.511,MST_test,2024.2.0,59.99178111229279,2026-01-19 18h03.26.295989 +0530,
143,0,144,n,1.0279054999700747,None,144,0,143,478.7012724999804,,,,,,,,,,,,,,,,,,,,,,,,,,,,,,,,,,,,,,,,,,,,,,,,,,478.68508339999244,478.7012724999804,479.2015973999514,479.18479689996457,479.1949432999827,479.2015973999514,479.2015973999514,479.2015973999514,480.23520849994384,Objects\077b.jpg,pre,n,1.0279054999700747,None,,,,,,,,00062,001,2026-01-19_18h03.17.511,MST_test,2024.2.0,59.99178111229279,2026-01-19 18h03.26.295989 +0530,
144,0,145,s,1.8060277000186034,None,145,0,144,480.2512278999784,,,,,,,,,,,,,,,,,,,,,,,,,,,,,,,,,,,,,,,,,,,,,,,,,,480.23530129995197,480.2512278999784,480.75141069997335,480.7347663999535,480.737384499982,480.75141069997335,480.75141069997335,480.75141069997335,482.5685326999519,Objects\135a.jpg,mid,s,1.8060277000186034,None,,,,,,,,00062,001,2026-01-19_18h03.17.511,MST_test,2024.2.0,59.99178111229279,2026-01-19 18h03.26.295989 +0530,
145,0,146,n,3.1293010999797843,None,146,0,145,482.5844218999846,,,,,,,,,,,,,,,,,,,,,,,,,,,,,,,,,,,,,,,,,,,,,,,,,,482.56862699997146,482.5844218999846,483.08482869999716,483.06811789999483,483.0780118999537,483.08482869999716,483.08482869999716,483.08482869999716,486.21894309995696,Objects\133b.jpg,mid,n,3.1293010999797843,None,,,,,,,,00062,001,2026-01-19_18h03.17.511,MST_test,2024.2.0,59.99178111229279,2026-01-19 18h03.26.295989 +0530,
146,0,147,o,1.1902101000305265,None,147,0,146,486.23446199996397,,,,,,,,,,,,,,,,,,,,,,,,,,,,,,,,,,,,,,,,,,,,,,,,,,486.21904789999826,486.23446199996397,486.7350403999444,486.71817579999333,486.7277119999635,486.7350403999444,486.7350403999444,486.7350403999444,487.9350819999818,Scenes\047b.jpg,mid,o,1.1902101000305265,None,,,,,,,,00062,001,2026-01-19_18h03.17.511,MST_test,2024.2.0,59.99178111229279,2026-01-19 18h03.26.295989 +0530,
147,0,148,s,1.8812930000131018,None,148,0,147,487.95124729996314,,,,,,,,,,,,,,,,,,,,,,,,,,,,,,,,,,,,,,,,,,,,,,,,,,487.93517259997316,487.95124729996314,488.4518670999678,488.4350764999981,488.4461761999992,488.4518670999678,488.4518670999678,488.4518670999678,490.33528119995026,Objects\167b.jpg,mid,s,1.8812930000131018,None,,,,,,,,00062,001,2026-01-19_18h03.17.511,MST_test,2024.2.0,59.99178111229279,2026-01-19 18h03.26.295989 +0530,
148,0,149,s,10.106537299987394,None,149,0,148,490.35128109995276,,,,,,,,,,,,,,,,,,,,,,,,,,,,,,,,,,,,,,,,,,,,,,,,,,490.33537489996525,490.35128109995276,490.8514380999841,490.83482739998726,490.844207999995,490.8514380999841,490.8514380999841,490.8514380999841,500.9684821999981,Objects\098b.jpg,post,s,10.106537299987394,None,,,,,,,,00062,001,2026-01-19_18h03.17.511,MST_test,2024.2.0,59.99178111229279,2026-01-19 18h03.26.295989 +0530,
149,0,150,o,2.0888383999699727,None,150,0,149,500.9845343999914,,,,,,,,,,,,,,,,,,,,,,,,,,,,,,,,,,,,,,,,,,,,,,,,,,500.96857679996174,500.9845343999914,501.4850530999829,501.46821859997,501.4744458999485,501.4850530999829,501.4850530999829,501.4850530999829,503.5850781999761,Scenes\132a.jpg,pre,o,2.0888383999699727,None,,,,,,,,00062,001,2026-01-19_18h03.17.511,MST_test,2024.2.0,59.99178111229279,2026-01-19 18h03.26.295989 +0530,
,,,,,,,,,,,,,,,,,,,,,,,,,,,,,,,,,,,,,,,,,,,,,,,,,,,,,,,,,,,,,,,,,,,,,,,,,503.585141699994,503.60130489995936,503.60130489995936,504.9017149999854,space,1.2919364999979734,None,00062,001,2026-01-19_18h03.17.511,MST_test,2024.2.0,59.99178111229279,2026-01-19 18h03.26.295989 +0530,
