thisN,thisTrialN,thisRepN,key_resp_3.keys,key_resp_3.rt,key_resp_3.duration,trials.thisRepN,trials.thisTrialN,trials.thisN,thisRow.t,notes,intro_page.started,text.started,key_resp.started,intro_page.stopped,key_resp.keys,key_resp.rt,key_resp.duration,instructions.started,text_2.started,key_resp_2.started,instructions.stopped,key_resp_2.keys,key_resp_2.rt,key_resp_2.duration,demo1.started,image_1.started,image_2.started,text_7.started,key_resp_6.started,text_9.started,demo1.stopped,key_resp_6.keys,key_resp_6.rt,key_resp_6.duration,demo2.started,image_5.started,image_6.started,text_11.started,text_12.started,key_resp_8.started,demo2.stopped,key_resp_8.keys,key_resp_8.rt,key_resp_8.duration,demo_conclusion.started,text_13.started,key_resp_9.started,demo_conclusion.stopped,key_resp_9.keys,key_resp_9.rt,key_resp_9.duration,start_test.started,text_6.started,key_resp_5.started,start_test.stopped,key_resp_5.keys,key_resp_5.rt,key_resp_5.duration,ISI.started,text_4.started,text_4.stopped,ISI.stopped,routine_1.started,image.started,text_3.started,key_resp_3.started,routine_1.stopped,image_path,position_of_stimuli,trials.key_resp_3.keys,trials.key_resp_3.rt,trials.key_resp_3.duration,End_page.started,text_5.started,key_resp_4.started,End_page.stopped,key_resp_4.keys,key_resp_4.rt,key_resp_4.duration,participant,session,date,expName,psychopyVersion,frameRate,expStart,
,,,,,,,,,,,0.001222599996253848,0.0027418999816291034,0.0027418999816291034,4.615348999970593,space,4.6049273000098765,None,,,,,,,,,,,,,,,,,,,,,,,,,,,,,,,,,,,,,,,,,,,,,,,,,,,,,,,,,,,,,,,00061,001,2026-01-19_17h22.37.232,MST_test,2024.2.0,60.00974558004329,2026-01-19 17h22.44.516166 +0530,
,,,,,,,,,,,,,,,,,,4.615386699966621,4.62951499997871,4.62951499997871,16.713603499985766,space,12.073056799999904,None,,,,,,,,,,,,,,,,,,,,,,,,,,,,,,,,,,,,,,,,,,,,,,,,,,,,,,,,00061,001,2026-01-19_17h22.37.232,MST_test,2024.2.0,60.00974558004329,2026-01-19 17h22.44.516166 +0530,
,,,,,,,,,,,,,,,,,,,,,,,,,16.71363139996538,16.730198199977167,16.730198199977167,16.730198199977167,16.730198199977167,16.730198199977167,24.663829099969007,space,7.932239899993874,None,,,,,,,,,,,,,,,,,,,,,,,,,,,,,,,,,,,,,,,,,,,,,,00061,001,2026-01-19_17h22.37.232,MST_test,2024.2.0,60.00974558004329,2026-01-19 17h22.44.516166 +0530,
,,,,,,,,,,,,,,,,,,,,,,,,,,,,,,,,,,,24.663858199957758,24.68010779999895,24.68010779999895,24.68010779999895,24.68010779999895,24.68010779999895,29.4472549999482,space,4.7595995999872684,None,,,,,,,,,,,,,,,,,,,,,,,,,,,,,,,,,,,,00061,001,2026-01-19_17h22.37.232,MST_test,2024.2.0,60.00974558004329,2026-01-19 17h22.44.516166 +0530,
,,,,,,,,,,,,,,,,,,,,,,,,,,,,,,,,,,,,,,,,,,,,,29.4472875999636,29.463081599969883,29.463081599969883,56.880128999997396,space,27.41637960000662,None,,,,,,,,,,,,,,,,,,,,,,,,,,,,,00061,001,2026-01-19_17h22.37.232,MST_test,2024.2.0,60.00974558004329,2026-01-19 17h22.44.516166 +0530,
,,,,,,,,,,,,,,,,,,,,,,,,,,,,,,,,,,,,,,,,,,,,,,,,,,,,56.88016020000214,56.896370799979195,56.896370799979195,111.26353739999468,space,54.35949169995729,None,,,,,,,,,,,,,,,,,,,,,,00061,001,2026-01-19_17h22.37.232,MST_test,2024.2.0,60.00974558004329,2026-01-19 17h22.44.516166 +0530,
0,0,1,o,6.905534000019543,None,1,0,0,111.27967939997325,,,,,,,,,,,,,,,,,,,,,,,,,,,,,,,,,,,,,,,,,,,,,,,,,,111.26777949999087,111.27967939997325,111.78170110000065,111.76338119996944,111.77946729998803,111.78170110000065,111.78170110000065,111.78170110000065,118.69725430000108,Scenes\170a.jpg,mid,o,6.905534000019543,None,,,,,,,,00061,001,2026-01-19_17h22.37.232,MST_test,2024.2.0,60.00974558004329,2026-01-19 17h22.44.516166 +0530,
1,0,2,o,3.2953906999900937,None,2,0,1,118.71307649998926,,,,,,,,,,,,,,,,,,,,,,,,,,,,,,,,,,,,,,,,,,,,,,,,,,118.69736479996936,118.71307649998926,119.2158488999703,119.1965944999829,119.21364699996775,119.2158488999703,119.2158488999703,119.2158488999703,122.51430389995221,Scenes\004b.jpg,pre,o,3.2953906999900937,None,,,,,,,,00061,001,2026-01-19_17h22.37.232,MST_test,2024.2.0,60.00974558004329,2026-01-19 17h22.44.516166 +0530,
2,0,3,o,3.1961240000091493,None,3,0,2,122.52978849998908,,,,,,,,,,,,,,,,,,,,,,,,,,,,,,,,,,,,,,,,,,,,,,,,,,122.51442409999436,122.52978849998908,123.03542369999923,123.01372079999419,123.03325059998315,123.03542369999923,123.03542369999923,123.03542369999923,126.24695359996986,Scenes\020b.jpg,post,o,3.1961240000091493,None,,,,,,,,00061,001,2026-01-19_17h22.37.232,MST_test,2024.2.0,60.00974558004329,2026-01-19 17h22.44.516166 +0530,
3,0,4,n,6.955225299985614,None,4,0,3,126.26298699999461,,,,,,,,,,,,,,,,,,,,,,,,,,,,,,,,,,,,,,,,,,,,,,,,,,126.24704759998713,126.26298699999461,126.76376659999369,126.74661979998928,126.75564559997292,126.76376659999369,126.76376659999369,126.76376659999369,133.73038529994665,Scenes\068a.jpg,pre,n,6.955225299985614,None,,,,,,,,00061,001,2026-01-19_17h22.37.232,MST_test,2024.2.0,60.00974558004329,2026-01-19 17h22.44.516166 +0530,
4,0,5,o,5.911002499982715,None,5,0,4,133.74633029999677,,,,,,,,,,,,,,,,,,,,,,,,,,,,,,,,,,,,,,,,,,,,,,,,,,133.7304816999822,133.74633029999677,134.24860369996168,134.23006449994864,134.24634799995692,134.24860369996168,134.24860369996168,134.24860369996168,140.16372859996045,Scenes\093b.jpg,pre,o,5.911002499982715,None,,,,,,,,00061,001,2026-01-19_17h22.37.232,MST_test,2024.2.0,60.00974558004329,2026-01-19 17h22.44.516166 +0530,
5,0,6,o,2.4086848000297323,None,6,0,5,140.17963559995405,,,,,,,,,,,,,,,,,,,,,,,,,,,,,,,,,,,,,,,,,,,,,,,,,,140.16382379998686,140.17963559995405,140.6858686999767,140.66343319998123,140.6836172999465,140.6858686999767,140.6858686999767,140.6858686999767,143.0970334999729,Scenes\023b.jpg,post,o,2.4086848000297323,None,,,,,,,,00061,001,2026-01-19_17h22.37.232,MST_test,2024.2.0,60.00974558004329,2026-01-19 17h22.44.516166 +0530,
6,0,7,s,2.6653285999782383,None,7,0,6,143.11312569997972,,,,,,,,,,,,,,,,,,,,,,,,,,,,,,,,,,,,,,,,,,,,,,,,,,143.09712419996504,143.11312569997972,143.61363559996244,143.59668069996405,143.61099789995933,143.61363559996244,143.61363559996244,143.61363559996244,146.2804688999895,Scenes\111b.jpg,post,s,2.6653285999782383,None,,,,,,,,00061,001,2026-01-19_17h22.37.232,MST_test,2024.2.0,60.00974558004329,2026-01-19 17h22.44.516166 +0530,
7,0,8,n,5.722820099967066,None,8,0,7,146.29641149996314,,,,,,,,,,,,,,,,,,,,,,,,,,,,,,,,,,,,,,,,,,,,,,,,,,146.2805808999692,146.29641149996314,146.7966141999932,146.77993249997962,146.79142609995324,146.7966141999932,146.7966141999932,146.7966141999932,152.53008810000028,Foils\081a.jpg,none,n,5.722820099967066,None,,,,,,,,00061,001,2026-01-19_17h22.37.232,MST_test,2024.2.0,60.00974558004329,2026-01-19 17h22.44.516166 +0530,
8,0,9,n,5.328679600032046,None,9,0,8,152.54636669997126,,,,,,,,,,,,,,,,,,,,,,,,,,,,,,,,,,,,,,,,,,,,,,,,,,152.53018209995935,152.54636669997126,153.04667660000268,153.02981919999002,153.03931899997406,153.04667660000268,153.04667660000268,153.04667660000268,158.3800831999979,Foils\scenes19.jpg,none,n,5.328679600032046,None,,,,,,,,00061,001,2026-01-19_17h22.37.232,MST_test,2024.2.0,60.00974558004329,2026-01-19 17h22.44.516166 +0530,
9,0,10,o,1.9429013999761082,None,10,0,9,158.39633369998774,,,,,,,,,,,,,,,,,,,,,,,,,,,,,,,,,,,,,,,,,,,,,,,,,,158.38018300000113,158.39633369998774,158.89665469998727,158.8798545000027,158.883197499963,158.89665469998727,158.89665469998727,158.89665469998727,160.84689319995232,Objects\017a.jpg,post,o,1.9429013999761082,None,,,,,,,,00061,001,2026-01-19_17h22.37.232,MST_test,2024.2.0,60.00974558004329,2026-01-19 17h22.44.516166 +0530,
10,0,11,n,3.2995470000314526,None,11,0,10,160.86295019998215,,,,,,,,,,,,,,,,,,,,,,,,,,,,,,,,,,,,,,,,,,,,,,,,,,160.84698370000115,160.86295019998215,161.3632537999656,161.34657979995245,161.3562003999832,161.3632537999656,161.3632537999656,161.3632537999656,164.66361999994842,Objects\036b.jpg,post,n,3.2995470000314526,None,,,,,,,,00061,001,2026-01-19_17h22.37.232,MST_test,2024.2.0,60.00974558004329,2026-01-19 17h22.44.516166 +0530,
11,0,12,o,3.539474000048358,None,12,0,11,164.67960299999686,,,,,,,,,,,,,,,,,,,,,,,,,,,,,,,,,,,,,,,,,,,,,,,,,,164.66371329996036,164.67960299999686,165.18007059994852,165.1632976999972,165.1725463999901,165.18007059994852,165.18007059994852,165.18007059994852,168.7304280999815,Scenes\104a.jpg,post,o,3.539474000048358,None,,,,,,,,00061,001,2026-01-19_17h22.37.232,MST_test,2024.2.0,60.00974558004329,2026-01-19 17h22.44.516166 +0530,
12,0,13,s,2.8803837000159547,None,13,0,12,168.74646199995186,,,,,,,,,,,,,,,,,,,,,,,,,,,,,,,,,,,,,,,,,,,,,,,,,,168.73052779998397,168.74646199995186,169.24680569994962,169.22984179999912,169.24095109995687,169.24680569994962,169.24680569994962,169.24680569994962,172.13005149998935,Objects\083b.jpg,pre,s,2.8803837000159547,None,,,,,,,,00061,001,2026-01-19_17h22.37.232,MST_test,2024.2.0,60.00974558004329,2026-01-19 17h22.44.516166 +0530,
13,0,14,n,4.472652499971446,None,14,0,13,172.14633489999687,,,,,,,,,,,,,,,,,,,,,,,,,,,,,,,,,,,,,,,,,,,,,,,,,,172.13014299998758,172.14633489999687,172.64658689999487,172.62986699998146,172.6393487000023,172.64658689999487,172.64658689999487,172.64658689999487,177.13017179997405,Objects\184b.jpg,pre,n,4.472652499971446,None,,,,,,,,00061,001,2026-01-19_17h22.37.232,MST_test,2024.2.0,60.00974558004329,2026-01-19 17h22.44.516166 +0530,
14,0,15,o,3.440111399977468,None,15,0,14,177.14629689999856,,,,,,,,,,,,,,,,,,,,,,,,,,,,,,,,,,,,,,,,,,,,,,,,,,177.1302611999563,177.14629689999856,177.64655079995282,177.63011829997413,177.63329639995936,177.64655079995282,177.64655079995282,177.64655079995282,181.0971255999757,Objects\033a.jpg,post,o,3.440111399977468,None,,,,,,,,00061,001,2026-01-19_17h22.37.232,MST_test,2024.2.0,60.00974558004329,2026-01-19 17h22.44.516166 +0530,
15,0,16,o,2.921359400032088,None,16,0,15,181.11298979999265,,,,,,,,,,,,,,,,,,,,,,,,,,,,,,,,,,,,,,,,,,,,,,,,,,181.0972212999477,181.11298979999265,181.61321429995587,181.59673219994875,181.60697809996782,181.61321429995587,181.61321429995587,181.61321429995587,184.5469336999813,Objects\050b.jpg,mid,o,2.921359400032088,None,,,,,,,,00061,001,2026-01-19_17h22.37.232,MST_test,2024.2.0,60.00974558004329,2026-01-19 17h22.44.516166 +0530,
16,0,17,s,3.6639594999724068,None,17,0,16,184.5630321999779,,,,,,,,,,,,,,,,,,,,,,,,,,,,,,,,,,,,,,,,,,,,,,,,,,184.54702639998868,184.5630321999779,185.06364879995817,185.04665149998618,185.05642799998168,185.06364879995817,185.06364879995817,185.06364879995817,188.7304920000024,Scenes\109a.jpg,pre,s,3.6639594999724068,None,,,,,,,,00061,001,2026-01-19_17h22.37.232,MST_test,2024.2.0,60.00974558004329,2026-01-19 17h22.44.516166 +0530,
17,0,18,s,2.432836399995722,None,18,0,17,188.74651819997234,,,,,,,,,,,,,,,,,,,,,,,,,,,,,,,,,,,,,,,,,,,,,,,,,,188.73059049999574,188.74651819997234,189.24683849996654,189.22980400000233,189.24048759997822,189.24683849996654,189.24683849996654,189.24683849996654,191.6803924999549,Objects\090b.jpg,pre,s,2.432836399995722,None,,,,,,,,00061,001,2026-01-19_17h22.37.232,MST_test,2024.2.0,60.00974558004329,2026-01-19 17h22.44.516166 +0530,
18,0,19,o,2.6827153000049293,None,19,0,18,191.69636489998084,,,,,,,,,,,,,,,,,,,,,,,,,,,,,,,,,,,,,,,,,,,,,,,,,,191.68048339994857,191.69636489998084,192.19658859999618,192.17979599995306,192.18236539995996,192.19658859999618,192.19658859999618,192.19658859999618,194.88011069997447,Objects\116a.jpg,pre,o,2.6827153000049293,None,,,,,,,,00061,001,2026-01-19_17h22.37.232,MST_test,2024.2.0,60.00974558004329,2026-01-19 17h22.44.516166 +0530,
19,0,20,s,3.313834299973678,None,20,0,19,194.89665519999107,,,,,,,,,,,,,,,,,,,,,,,,,,,,,,,,,,,,,,,,,,,,,,,,,,194.8802500999882,194.89665519999107,195.39681329997256,195.38002039998537,195.38995919999434,195.39681329997256,195.39681329997256,195.39681329997256,198.71373979997588,Objects\179b.jpg,post,s,3.313834299973678,None,,,,,,,,00061,001,2026-01-19_17h22.37.232,MST_test,2024.2.0,60.00974558004329,2026-01-19 17h22.44.516166 +0530,
20,0,21,o,4.801609600021038,None,21,0,20,198.72966789995553,,,,,,,,,,,,,,,,,,,,,,,,,,,,,,,,,,,,,,,,,,,,,,,,,,198.7138328999863,198.72966789995553,199.22978659998626,199.21321789996,199.21561929996824,199.22978659998626,199.22978659998626,199.22978659998626,204.0469626999693,Objects\007a.jpg,pre,o,4.801609600021038,None,,,,,,,,00061,001,2026-01-19_17h22.37.232,MST_test,2024.2.0,60.00974558004329,2026-01-19 17h22.44.516166 +0530,
21,0,22,s,3.1398265000316314,None,22,0,21,204.06303019996267,,,,,,,,,,,,,,,,,,,,,,,,,,,,,,,,,,,,,,,,,,,,,,,,,,204.04705499997362,204.06303019996267,204.56323539995356,204.5466806999757,204.54957129998365,204.56323539995356,204.56323539995356,204.56323539995356,207.7135547999642,Objects\060a.jpg,pre,s,3.1398265000316314,None,,,,,,,,00061,001,2026-01-19_17h22.37.232,MST_test,2024.2.0,60.00974558004329,2026-01-19 17h22.44.516166 +0530,
22,0,23,s,4.289574900001753,None,23,0,22,207.72963570000138,,,,,,,,,,,,,,,,,,,,,,,,,,,,,,,,,,,,,,,,,,,,,,,,,,207.71364390000235,207.72963570000138,208.22985029994743,208.21322659996804,208.21579679998104,208.22985029994743,208.22985029994743,208.22985029994743,212.53037669998594,Objects\185a.jpg,mid,s,4.289574900001753,None,,,,,,,,00061,001,2026-01-19_17h22.37.232,MST_test,2024.2.0,60.00974558004329,2026-01-19 17h22.44.516166 +0530,
23,0,24,s,8.304530199966393,None,24,0,23,212.54644619999453,,,,,,,,,,,,,,,,,,,,,,,,,,,,,,,,,,,,,,,,,,,,,,,,,,212.53047129994957,212.54644619999453,213.04655969998566,213.0303063999745,213.04025359998923,213.04655969998566,213.04655969998566,213.04655969998566,221.36373240000103,Foils\113a.jpg,none,s,8.304530199966393,None,,,,,,,,00061,001,2026-01-19_17h22.37.232,MST_test,2024.2.0,60.00974558004329,2026-01-19 17h22.44.516166 +0530,
24,0,25,s,3.41433749999851,None,25,0,24,221.37980339996284,,,,,,,,,,,,,,,,,,,,,,,,,,,,,,,,,,,,,,,,,,,,,,,,,,221.36382679996314,221.37980339996284,221.88023359997896,221.8635326999938,221.87024319998454,221.88023359997896,221.88023359997896,221.88023359997896,225.2970940999803,Scenes\169a.jpg,mid,s,3.41433749999851,None,,,,,,,,00061,001,2026-01-19_17h22.37.232,MST_test,2024.2.0,60.00974558004329,2026-01-19 17h22.44.516166 +0530,
25,0,26,o,2.0414983999799006,None,26,0,25,225.31316449999576,,,,,,,,,,,,,,,,,,,,,,,,,,,,,,,,,,,,,,,,,,,,,,,,,,225.29719749995274,225.31316449999576,225.8136052999762,225.7966688000015,225.8028370999964,225.8136052999762,225.8136052999762,225.8136052999762,227.86364699999103,Scenes\051a.jpg,pre,o,2.0414983999799006,None,,,,,,,,00061,001,2026-01-19_17h22.37.232,MST_test,2024.2.0,60.00974558004329,2026-01-19 17h22.44.516166 +0530,
26,0,27,s,3.379443099955097,None,27,0,26,227.8798205999774,,,,,,,,,,,,,,,,,,,,,,,,,,,,,,,,,,,,,,,,,,,,,,,,,,227.8637406999478,227.8798205999774,228.38010839995695,228.3633567999932,228.3749859999516,228.38010839995695,228.38010839995695,228.38010839995695,231.76375969999935,Objects\043b.jpg,post,s,3.379443099955097,None,,,,,,,,00061,001,2026-01-19_17h22.37.232,MST_test,2024.2.0,60.00974558004329,2026-01-19 17h22.44.516166 +0530,
27,0,28,o,2.118744899984449,None,28,0,27,231.77970029995777,,,,,,,,,,,,,,,,,,,,,,,,,,,,,,,,,,,,,,,,,,,,,,,,,,231.7638552999706,231.77970029995777,232.2802424999536,232.2634094999521,232.26863619999494,232.2802424999536,232.2802424999536,232.2802424999536,234.41375389997847,Scenes\096a.jpg,post,o,2.118744899984449,None,,,,,,,,00061,001,2026-01-19_17h22.37.232,MST_test,2024.2.0,60.00974558004329,2026-01-19 17h22.44.516166 +0530,
28,0,29,o,2.6923345000250265,None,29,0,28,234.42976839997573,,,,,,,,,,,,,,,,,,,,,,,,,,,,,,,,,,,,,,,,,,,,,,,,,,234.41385559999617,234.42976839997573,234.9302175999619,234.91342799999984,234.91678629996022,234.9302175999619,234.9302175999619,234.9302175999619,237.6303915999597,Objects\032a.jpg,mid,o,2.6923345000250265,None,,,,,,,,00061,001,2026-01-19_17h22.37.232,MST_test,2024.2.0,60.00974558004329,2026-01-19 17h22.44.516166 +0530,
29,0,30,n,5.153534900047816,None,30,0,29,237.64645759999985,,,,,,,,,,,,,,,,,,,,,,,,,,,,,,,,,,,,,,,,,,,,,,,,,,237.630488099996,237.64645759999985,238.1496128999861,238.12992909998866,238.1474643999827,238.1496128999861,238.1496128999861,238.1496128999861,243.31366859999252,Scenes\126b.jpg,pre,n,5.153534900047816,None,,,,,,,,00061,001,2026-01-19_17h22.37.232,MST_test,2024.2.0,60.00974558004329,2026-01-19 17h22.44.516166 +0530,
30,0,31,n,2.3126011000131257,None,31,0,30,243.32957399997395,,,,,,,,,,,,,,,,,,,,,,,,,,,,,,,,,,,,,,,,,,,,,,,,,,243.31376369995996,243.32957399997395,243.8300141999498,243.8132585999556,243.823421899986,243.8300141999498,243.8300141999498,243.8300141999498,246.14710109995212,Objects\143b.jpg,mid,n,2.3126011000131257,None,,,,,,,,00061,001,2026-01-19_17h22.37.232,MST_test,2024.2.0,60.00974558004329,2026-01-19 17h22.44.516166 +0530,
31,0,32,n,4.346519600017928,None,32,0,31,246.16306669998448,,,,,,,,,,,,,,,,,,,,,,,,,,,,,,,,,,,,,,,,,,,,,,,,,,246.14720379997743,246.16306669998448,246.66853979998268,246.64667210000334,246.66625139996177,246.66853979998268,246.66853979998268,246.66853979998268,251.03023329999996,Scenes\114b.jpg,pre,n,4.346519600017928,None,,,,,,,,00061,001,2026-01-19_17h22.37.232,MST_test,2024.2.0,60.00974558004329,2026-01-19 17h22.44.516166 +0530,
32,0,33,n,4.523698800010607,None,33,0,32,251.04636199999368,,,,,,,,,,,,,,,,,,,,,,,,,,,,,,,,,,,,,,,,,,,,,,,,,,251.0303350999602,251.04636199999368,251.54701509996084,251.52991199999815,251.53894569998374,251.54701509996084,251.54701509996084,251.54701509996084,256.08046009996906,Scenes\183a.jpg,pre,n,4.523698800010607,None,,,,,,,,00061,001,2026-01-19_17h22.37.232,MST_test,2024.2.0,60.00974558004329,2026-01-19 17h22.44.516166 +0530,
33,0,34,n,5.63367810001364,None,34,0,33,256.0965379999834,,,,,,,,,,,,,,,,,,,,,,,,,,,,,,,,,,,,,,,,,,,,,,,,,,256.08057529997313,256.0965379999834,256.59691299998667,256.5800087999669,256.58911989995977,256.59691299998667,256.59691299998667,256.59691299998667,262.24699399998644,Scenes\122a.jpg,mid,n,5.63367810001364,None,,,,,,,,00061,001,2026-01-19_17h22.37.232,MST_test,2024.2.0,60.00974558004329,2026-01-19 17h22.44.516166 +0530,
34,0,35,n,6.66765730001498,None,35,0,34,262.2630580999539,,,,,,,,,,,,,,,,,,,,,,,,,,,,,,,,,,,,,,,,,,,,,,,,,,262.2470869999961,262.2630580999539,262.7635312999482,262.7466760999523,262.74991209997097,262.7635312999482,262.7635312999482,262.7635312999482,269.4468599999673,Objects\080a.jpg,post,n,6.66765730001498,None,,,,,,,,00061,001,2026-01-19_17h22.37.232,MST_test,2024.2.0,60.00974558004329,2026-01-19 17h22.44.516166 +0530,
35,0,36,s,5.595653600001242,None,36,0,35,269.4629995999858,,,,,,,,,,,,,,,,,,,,,,,,,,,,,,,,,,,,,,,,,,,,,,,,,,269.4469562000013,269.4629995999858,269.9633363999892,269.94665800000075,269.9566726999474,269.9633363999892,269.9633363999892,269.9633363999892,275.5636624000035,Objects\034b.jpg,mid,s,5.595653600001242,None,,,,,,,,00061,001,2026-01-19_17h22.37.232,MST_test,2024.2.0,60.00974558004329,2026-01-19 17h22.44.516166 +0530,
36,0,37,s,5.575293999980204,None,37,0,36,275.5796260999632,,,,,,,,,,,,,,,,,,,,,,,,,,,,,,,,,,,,,,,,,,,,,,,,,,275.5637524999911,275.5796260999632,276.0801883999957,276.0634518999723,276.075223599968,276.0801883999957,276.0801883999957,276.0801883999957,281.66401299997233,Scenes\089a.jpg,post,s,5.575293999980204,None,,,,,,,,00061,001,2026-01-19_17h22.37.232,MST_test,2024.2.0,60.00974558004329,2026-01-19 17h22.44.516166 +0530,
37,0,38,n,1.8594749000039883,None,38,0,37,281.6796220999677,,,,,,,,,,,,,,,,,,,,,,,,,,,,,,,,,,,,,,,,,,,,,,,,,,281.6641139999847,281.6796220999677,282.17998069996247,282.1633501999895,282.1726275999681,282.17998069996247,282.17998069996247,282.17998069996247,284.0470783999772,Foils\scenes16.jpg,none,n,1.8594749000039883,None,,,,,,,,00061,001,2026-01-19_17h22.37.232,MST_test,2024.2.0,60.00974558004329,2026-01-19 17h22.44.516166 +0530,
38,0,39,o,1.26725760003319,None,39,0,38,284.0630645999918,,,,,,,,,,,,,,,,,,,,,,,,,,,,,,,,,,,,,,,,,,,,,,,,,,284.04716949997237,284.0630645999918,284.56330529996194,284.54660289996536,284.5503022999619,284.56330529996194,284.56330529996194,284.56330529996194,285.8470332999714,Objects\118a.jpg,mid,o,1.26725760003319,None,,,,,,,,00061,001,2026-01-19_17h22.37.232,MST_test,2024.2.0,60.00974558004329,2026-01-19 17h22.44.516166 +0530,
39,0,40,n,3.4200899999705143,None,40,0,39,285.8630252999719,,,,,,,,,,,,,,,,,,,,,,,,,,,,,,,,,,,,,,,,,,,,,,,,,,285.84712649998255,285.8630252999719,286.3634392999811,286.3466438999749,286.3556083999574,286.3634392999811,286.3634392999811,286.3634392999811,289.7970082999673,Foils\scenes20.jpg,none,n,3.4200899999705143,None,,,,,,,,00061,001,2026-01-19_17h22.37.232,MST_test,2024.2.0,60.00974558004329,2026-01-19 17h22.44.516166 +0530,
40,0,41,n,2.706784400041215,None,41,0,40,289.81306339998264,,,,,,,,,,,,,,,,,,,,,,,,,,,,,,,,,,,,,,,,,,,,,,,,,,289.7970981999533,289.81306339998264,290.31589440000243,290.2966462999466,290.3137534999987,290.31589440000243,290.31589440000243,290.31589440000243,293.030139999988,Scenes\058b.jpg,post,n,2.706784400041215,None,,,,,,,,00061,001,2026-01-19_17h22.37.232,MST_test,2024.2.0,60.00974558004329,2026-01-19 17h22.44.516166 +0530,
41,0,42,o,5.115636600006837,None,42,0,41,293.0463887999649,,,,,,,,,,,,,,,,,,,,,,,,,,,,,,,,,,,,,,,,,,,,,,,,,,293.03022919996874,293.0463887999649,293.54688059998443,293.5298287999467,293.54001789999893,293.54688059998443,293.54688059998443,293.54688059998443,298.66367089998676,Objects\092b.jpg,mid,o,5.115636600006837,None,,,,,,,,00061,001,2026-01-19_17h22.37.232,MST_test,2024.2.0,60.00974558004329,2026-01-19 17h22.44.516166 +0530,
42,0,43,n,2.3874493000330403,None,43,0,42,298.679591299966,,,,,,,,,,,,,,,,,,,,,,,,,,,,,,,,,,,,,,,,,,,,,,,,,,298.6637607999728,298.679591299966,299.1802115999744,299.16334309999365,299.17309499997646,299.1802115999744,299.1802115999744,299.1802115999744,301.5805784999975,Scenes\161a.jpg,pre,n,2.3874493000330403,None,,,,,,,,00061,001,2026-01-19_17h22.37.232,MST_test,2024.2.0,60.00974558004329,2026-01-19 17h22.44.516166 +0530,
43,0,44,o,3.8114258000277914,None,44,0,43,301.5965491999523,,,,,,,,,,,,,,,,,,,,,,,,,,,,,,,,,,,,,,,,,,,,,,,,,,301.58068319997983,301.5965491999523,302.1003078999929,302.080184499966,302.09822399995755,302.1003078999929,302.1003078999929,302.1003078999929,305.9136590999551,Scenes\085b.jpg,mid,o,3.8114258000277914,None,,,,,,,,00061,001,2026-01-19_17h22.37.232,MST_test,2024.2.0,60.00974558004329,2026-01-19 17h22.44.516166 +0530,
44,0,45,o,2.584664200025145,None,45,0,44,305.92965419997927,,,,,,,,,,,,,,,,,,,,,,,,,,,,,,,,,,,,,,,,,,,,,,,,,,305.91375189996324,305.92965419997927,306.43007259996375,306.41324510000413,306.42369029996917,306.43007259996375,306.43007259996375,306.43007259996375,309.03021729999455,Foils\066a.jpg,none,o,2.584664200025145,None,,,,,,,,00061,001,2026-01-19_17h22.37.232,MST_test,2024.2.0,60.00974558004329,2026-01-19 17h22.44.516166 +0530,
45,0,46,n,1.8925852000247687,None,46,0,45,309.0463952999562,,,,,,,,,,,,,,,,,,,,,,,,,,,,,,,,,,,,,,,,,,,,,,,,,,309.03030729998136,309.0463952999562,309.54697209998267,309.52982919994975,309.5444229999557,309.54697209998267,309.54697209998267,309.54697209998267,311.44696919998387,Scenes\178b.jpg,post,n,1.8925852000247687,None,,,,,,,,00061,001,2026-01-19_17h22.37.232,MST_test,2024.2.0,60.00974558004329,2026-01-19 17h22.44.516166 +0530,
46,0,47,n,2.25152099999832,None,47,0,46,311.46306280000135,,,,,,,,,,,,,,,,,,,,,,,,,,,,,,,,,,,,,,,,,,,,,,,,,,311.4470596999745,311.46306280000135,311.96353989996715,311.9469302999787,311.95251999999164,311.96353989996715,311.96353989996715,311.96353989996715,314.2303176999558,Scenes\175a.jpg,post,n,2.25152099999832,None,,,,,,,,00061,001,2026-01-19_17h22.37.232,MST_test,2024.2.0,60.00974558004329,2026-01-19 17h22.44.516166 +0530,
47,0,48,o,3.433029700012412,None,48,0,47,314.24635699996725,,,,,,,,,,,,,,,,,,,,,,,,,,,,,,,,,,,,,,,,,,,,,,,,,,314.230407199997,314.24635699996725,314.7495927999844,314.73011619999306,314.7474763999926,314.7495927999844,314.7495927999844,314.7495927999844,318.19711959996494,Scenes\158b.jpg,pre,o,3.433029700012412,None,,,,,,,,00061,001,2026-01-19_17h22.37.232,MST_test,2024.2.0,60.00974558004329,2026-01-19 17h22.44.516166 +0530,
48,0,49,n,2.173843400029,None,49,0,48,318.213042999967,,,,,,,,,,,,,,,,,,,,,,,,,,,,,,,,,,,,,,,,,,,,,,,,,,318.197218199959,318.213042999967,318.71354089997476,318.6966579,318.69992829998955,318.71354089997476,318.71354089997476,318.71354089997476,320.8969657999696,Objects\071a.jpg,mid,n,2.173843400029,None,,,,,,,,00061,001,2026-01-19_17h22.37.232,MST_test,2024.2.0,60.00974558004329,2026-01-19 17h22.44.516166 +0530,
49,0,50,n,8.210089700005483,None,50,0,49,320.91308440000284,,,,,,,,,,,,,,,,,,,,,,,,,,,,,,,,,,,,,,,,,,,,,,,,,,320.8970555999549,320.91308440000284,321.4134514000034,321.39673649996985,321.4108123999904,321.4134514000034,321.4134514000034,321.4134514000034,329.63009189994773,Scenes\181b.jpg,post,n,8.210089700005483,None,,,,,,,,00061,001,2026-01-19_17h22.37.232,MST_test,2024.2.0,60.00974558004329,2026-01-19 17h22.44.516166 +0530,
50,0,51,n,2.3240694000269286,None,51,0,50,329.64640199998394,,,,,,,,,,,,,,,,,,,,,,,,,,,,,,,,,,,,,,,,,,,,,,,,,,329.63018009997904,329.64640199998394,330.1469238999998,330.12992519995896,330.140291699965,330.1469238999998,330.1469238999998,330.1469238999998,332.48093039996456,Objects\110b.jpg,post,n,2.3240694000269286,None,,,,,,,,00061,001,2026-01-19_17h22.37.232,MST_test,2024.2.0,60.00974558004329,2026-01-19 17h22.44.516166 +0530,
51,0,52,n,1.626776700024493,None,52,0,51,332.49660279997624,,,,,,,,,,,,,,,,,,,,,,,,,,,,,,,,,,,,,,,,,,,,,,,,,,332.4810355999507,332.49660279997624,332.99682269996265,332.979861299973,332.9854269999778,332.99682269996265,332.99682269996265,332.99682269996265,334.6306411999976,Scenes\069a.jpg,post,n,1.626776700024493,None,,,,,,,,00061,001,2026-01-19_17h22.37.232,MST_test,2024.2.0,60.00974558004329,2026-01-19 17h22.44.516166 +0530,
52,0,53,n,1.7804619999951683,None,53,0,52,334.64658309996594,,,,,,,,,,,,,,,,,,,,,,,,,,,,,,,,,,,,,,,,,,,,,,,,,,334.6307426999556,334.64658309996594,335.147004599974,335.1300149000017,335.14288669999223,335.147004599974,335.147004599974,335.147004599974,336.9307412999915,Foils\057a.jpg,none,n,1.7804619999951683,None,,,,,,,,00061,001,2026-01-19_17h22.37.232,MST_test,2024.2.0,60.00974558004329,2026-01-19 17h22.44.516166 +0530,
53,0,54,s,2.5360107999877073,None,54,0,53,336.9465188999893,,,,,,,,,,,,,,,,,,,,,,,,,,,,,,,,,,,,,,,,,,,,,,,,,,336.93084329995327,336.9465188999893,337.4466510999482,337.4302009999519,337.43966360000195,337.4466510999482,337.4466510999482,337.4466510999482,339.99707329995,Objects\004b.jpg,post,s,2.5360107999877073,None,,,,,,,,00061,001,2026-01-19_17h22.37.232,MST_test,2024.2.0,60.00974558004329,2026-01-19 17h22.44.516166 +0530,
54,0,55,n,2.4862839999841526,None,55,0,54,340.01318139996147,,,,,,,,,,,,,,,,,,,,,,,,,,,,,,,,,,,,,,,,,,,,,,,,,,339.9971637999988,340.01318139996147,340.5135388999479,340.4967855999712,340.5112045999849,340.5135388999479,340.5135388999479,340.5135388999479,343.01381459995173,Scenes\157b.jpg,post,n,2.4862839999841526,None,,,,,,,,00061,001,2026-01-19_17h22.37.232,MST_test,2024.2.0,60.00974558004329,2026-01-19 17h22.44.516166 +0530,
55,0,56,o,2.2688507999992,None,56,0,55,343.0297863999731,,,,,,,,,,,,,,,,,,,,,,,,,,,,,,,,,,,,,,,,,,,,,,,,,,343.01390929997433,343.0297863999731,343.5301157999784,343.5135952999699,343.523770699976,343.5301157999784,343.5301157999784,343.5301157999784,345.81408659997396,Scenes\167a.jpg,mid,o,2.2688507999992,None,,,,,,,,00061,001,2026-01-19_17h22.37.232,MST_test,2024.2.0,60.00974558004329,2026-01-19 17h22.44.516166 +0530,
56,0,57,o,2.052279499999713,None,57,0,56,345.8300333999796,,,,,,,,,,,,,,,,,,,,,,,,,,,,,,,,,,,,,,,,,,,,,,,,,,345.81418259994825,345.8300333999796,346.33030669996515,346.3134236999904,346.3171715999488,346.33030669996515,346.33030669996515,346.33030669996515,348.39700869994704,Objects\094a.jpg,pre,o,2.052279499999713,None,,,,,,,,00061,001,2026-01-19_17h22.37.232,MST_test,2024.2.0,60.00974558004329,2026-01-19 17h22.44.516166 +0530,
57,0,58,o,4.157833599951118,None,58,0,57,348.4131964999833,,,,,,,,,,,,,,,,,,,,,,,,,,,,,,,,,,,,,,,,,,,,,,,,,,348.3971036999719,348.4131964999833,348.91337699996075,348.8967252000002,348.8991634999984,348.91337699996075,348.91337699996075,348.91337699996075,353.08062599995174,Objects\098a.jpg,pre,o,4.157833599951118,None,,,,,,,,00061,001,2026-01-19_17h22.37.232,MST_test,2024.2.0,60.00974558004329,2026-01-19 17h22.44.516166 +0530,
58,0,59,n,1.8901884999941103,None,59,0,58,353.09646339999745,,,,,,,,,,,,,,,,,,,,,,,,,,,,,,,,,,,,,,,,,,,,,,,,,,353.0807300999877,353.09646339999745,353.5970787999686,353.58013979997486,353.58631149999565,353.5970787999686,353.5970787999686,353.5970787999686,355.49726019997615,Scenes\173a.jpg,mid,n,1.8901884999941103,None,,,,,,,,00061,001,2026-01-19_17h22.37.232,MST_test,2024.2.0,60.00974558004329,2026-01-19 17h22.44.516166 +0530,
59,0,60,n,2.8154933999758214,None,60,0,59,355.5131704999949,,,,,,,,,,,,,,,,,,,,,,,,,,,,,,,,,,,,,,,,,,,,,,,,,,355.49736389995087,355.5131704999949,356.0242565999506,355.99684290000005,356.0217906999751,356.0242565999506,356.0242565999506,356.0242565999506,358.847155299969,Foils\scenes23.jpg,none,n,2.8154933999758214,None,,,,,,,,00061,001,2026-01-19_17h22.37.232,MST_test,2024.2.0,60.00974558004329,2026-01-19 17h22.44.516166 +0530,
60,0,61,n,1.4752589000272565,None,61,0,60,358.86318929999834,,,,,,,,,,,,,,,,,,,,,,,,,,,,,,,,,,,,,,,,,,,,,,,,,,358.8472479999764,358.86318929999834,359.36335119995056,359.34668539999984,359.3591648999718,359.36335119995056,359.36335119995056,359.36335119995056,360.84716819995083,Foils\098a.jpg,none,n,1.4752589000272565,None,,,,,,,,00061,001,2026-01-19_17h22.37.232,MST_test,2024.2.0,60.00974558004329,2026-01-19 17h22.44.516166 +0530,
61,0,62,n,1.7959820000105537,None,62,0,61,360.86321309994673,,,,,,,,,,,,,,,,,,,,,,,,,,,,,,,,,,,,,,,,,,,,,,,,,,360.84726049995515,360.86321309994673,361.36370339995483,361.3467977999826,361.35663989995373,361.36370339995483,361.36370339995483,361.36370339995483,363.16380909999134,Foils\scenes14.jpg,none,n,1.7959820000105537,None,,,,,,,,00061,001,2026-01-19_17h22.37.232,MST_test,2024.2.0,60.00974558004329,2026-01-19 17h22.44.516166 +0530,
62,0,63,o,1.7184624000219628,None,63,0,62,363.17969229997834,,,,,,,,,,,,,,,,,,,,,,,,,,,,,,,,,,,,,,,,,,,,,,,,,,363.16390949999914,363.17969229997834,363.6801575999707,363.66343570000026,363.66626149998046,363.6801575999707,363.6801575999707,363.6801575999707,365.4138076999807,Objects\091a.jpg,mid,o,1.7184624000219628,None,,,,,,,,00061,001,2026-01-19_17h22.37.232,MST_test,2024.2.0,60.00974558004329,2026-01-19 17h22.44.516166 +0530,
63,0,64,n,2.9249074999825098,None,64,0,63,365.4296442999621,,,,,,,,,,,,,,,,,,,,,,,,,,,,,,,,,,,,,,,,,,,,,,,,,,365.4138996999827,365.4296442999621,365.9302977999905,365.91347869997844,365.9280041999882,365.9302977999905,365.9302977999905,365.9302977999905,368.863804899971,Foils\scenes27.jpg,none,n,2.9249074999825098,None,,,,,,,,00061,001,2026-01-19_17h22.37.232,MST_test,2024.2.0,60.00974558004329,2026-01-19 17h22.44.516166 +0530,
64,0,65,s,3.2503521000035107,None,65,0,64,368.879831899947,,,,,,,,,,,,,,,,,,,,,,,,,,,,,,,,,,,,,,,,,,,,,,,,,,368.863902699959,368.879831899947,369.3804790999857,369.36346199997934,369.3717495999881,369.3804790999857,369.3804790999857,369.3804790999857,372.6471052999841,Scenes\127a.jpg,mid,s,3.2503521000035107,None,,,,,,,,00061,001,2026-01-19_17h22.37.232,MST_test,2024.2.0,60.00974558004329,2026-01-19 17h22.44.516166 +0530,
65,0,66,n,1.5959162000217475,None,66,0,65,372.6631328999647,,,,,,,,,,,,,,,,,,,,,,,,,,,,,,,,,,,,,,,,,,,,,,,,,,372.6471952999709,372.6631328999647,373.1635462999693,373.14658050000435,373.15653569996357,373.1635462999693,373.1635462999693,373.1635462999693,374.76374389999546,Foils\049a.jpg,none,n,1.5959162000217475,None,,,,,,,,00061,001,2026-01-19_17h22.37.232,MST_test,2024.2.0,60.00974558004329,2026-01-19 17h22.44.516166 +0530,
66,0,67,n,2.43088080000598,None,67,0,66,374.77981369994814,,,,,,,,,,,,,,,,,,,,,,,,,,,,,,,,,,,,,,,,,,,,,,,,,,374.76383269997314,374.77981369994814,375.2797889999929,375.2634058999829,375.26614699995844,375.2797889999929,375.2797889999929,375.2797889999929,377.7137831999571,Objects\162a.jpg,post,n,2.43088080000598,None,,,,,,,,00061,001,2026-01-19_17h22.37.232,MST_test,2024.2.0,60.00974558004329,2026-01-19 17h22.44.516166 +0530,
67,0,68,n,1.9124939000466838,None,68,0,67,377.72963939997135,,,,,,,,,,,,,,,,,,,,,,,,,,,,,,,,,,,,,,,,,,,,,,,,,,377.71387679997133,377.72963939997135,378.2309398999787,378.21347259997856,378.2287158999825,378.2309398999787,378.2309398999787,378.2309398999787,380.1470353999757,Scenes\110b.jpg,mid,n,1.9124939000466838,None,,,,,,,,00061,001,2026-01-19_17h22.37.232,MST_test,2024.2.0,60.00974558004329,2026-01-19 17h22.44.516166 +0530,
68,0,69,o,4.263674299989361,None,69,0,68,380.16310789994895,,,,,,,,,,,,,,,,,,,,,,,,,,,,,,,,,,,,,,,,,,,,,,,,,,380.147127299977,380.16310789994895,380.6637783999904,380.64677509997273,380.6564199999557,380.6637783999904,380.6637783999904,380.6637783999904,384.930445499951,Scenes\189a.jpg,mid,o,4.263674299989361,None,,,,,,,,00061,001,2026-01-19_17h22.37.232,MST_test,2024.2.0,60.00974558004329,2026-01-19 17h22.44.516166 +0530,
69,0,70,n,1.2801153000327758,None,70,0,69,384.94648159999633,,,,,,,,,,,,,,,,,,,,,,,,,,,,,,,,,,,,,,,,,,,,,,,,,,384.93053620000137,384.94648159999633,385.44703779998235,385.4301580999745,385.44124409998767,385.44703779998235,385.44703779998235,385.44703779998235,386.7304798999685,Foils\121a.jpg,none,n,1.2801153000327758,None,,,,,,,,00061,001,2026-01-19_17h22.37.232,MST_test,2024.2.0,60.00974558004329,2026-01-19 17h22.44.516166 +0530,
70,0,71,n,1.5292655999655835,None,71,0,70,386.7464395999559,,,,,,,,,,,,,,,,,,,,,,,,,,,,,,,,,,,,,,,,,,,,,,,,,,386.73057059996063,386.7464395999559,387.2466829000041,387.23019149998436,387.2398011999903,387.2466829000041,387.2466829000041,387.2466829000041,388.7804414999555,Objects\139b.jpg,pre,n,1.5292655999655835,None,,,,,,,,00061,001,2026-01-19_17h22.37.232,MST_test,2024.2.0,60.00974558004329,2026-01-19 17h22.44.516166 +0530,
71,0,72,n,1.654464800027199,None,72,0,71,388.796526799968,,,,,,,,,,,,,,,,,,,,,,,,,,,,,,,,,,,,,,,,,,,,,,,,,,388.7805335999583,388.796526799968,389.29690669995034,389.28015519998735,389.28934749995824,389.29690669995034,389.29690669995034,389.29690669995034,390.96376189996954,Foils\scenes18.jpg,none,n,1.654464800027199,None,,,,,,,,00061,001,2026-01-19_17h22.37.232,MST_test,2024.2.0,60.00974558004329,2026-01-19 17h22.44.516166 +0530,
72,0,73,n,2.1273581000277773,None,73,0,72,390.979846799979,,,,,,,,,,,,,,,,,,,,,,,,,,,,,,,,,,,,,,,,,,,,,,,,,,390.96385239996016,390.979846799979,391.48026009998284,391.463453299948,391.4733433999936,391.48026009998284,391.48026009998284,391.48026009998284,393.61388829996577,Objects\151b.jpg,post,n,2.1273581000277773,None,,,,,,,,00061,001,2026-01-19_17h22.37.232,MST_test,2024.2.0,60.00974558004329,2026-01-19 17h22.44.516166 +0530,
73,0,74,n,2.421256000001449,None,74,0,73,393.6295379999792,,,,,,,,,,,,,,,,,,,,,,,,,,,,,,,,,,,,,,,,,,,,,,,,,,393.6139808999724,393.6295379999792,394.1299416999682,394.1134693999775,394.1162651999621,394.1299416999682,394.1299416999682,394.1299416999682,396.5639565999736,Objects\161a.jpg,post,n,2.421256000001449,None,,,,,,,,00061,001,2026-01-19_17h22.37.232,MST_test,2024.2.0,60.00974558004329,2026-01-19 17h22.44.516166 +0530,
74,0,75,n,2.5431425999850035,None,75,0,74,396.579809799965,,,,,,,,,,,,,,,,,,,,,,,,,,,,,,,,,,,,,,,,,,,,,,,,,,396.56406129995594,396.579809799965,397.08023939997656,397.0632561999955,397.07680049998453,397.08023939997656,397.08023939997656,397.08023939997656,399.63034639996476,Scenes\185b.jpg,mid,n,2.5431425999850035,None,,,,,,,,00061,001,2026-01-19_17h22.37.232,MST_test,2024.2.0,60.00974558004329,2026-01-19 17h22.44.516166 +0530,
75,0,76,o,1.4374079000554048,None,76,0,75,399.646398199955,,,,,,,,,,,,,,,,,,,,,,,,,,,,,,,,,,,,,,,,,,,,,,,,,,399.6304365999531,399.646398199955,400.15414949995466,400.13006129994756,400.1519721999648,400.15414949995466,400.15414949995466,400.15414949995466,401.59703669999726,Scenes\002b.jpg,pre,o,1.4374079000554048,None,,,,,,,,00061,001,2026-01-19_17h22.37.232,MST_test,2024.2.0,60.00974558004329,2026-01-19 17h22.44.516166 +0530,
76,0,77,o,1.6211724000168033,None,77,0,76,401.61309459997574,,,,,,,,,,,,,,,,,,,,,,,,,,,,,,,,,,,,,,,,,,,,,,,,,,401.597132099967,401.61309459997574,402.11390899994876,402.09659219998866,402.10713219997706,402.11390899994876,402.11390899994876,402.11390899994876,403.7470403999905,Scenes\010a.jpg,mid,o,1.6211724000168033,None,,,,,,,,00061,001,2026-01-19_17h22.37.232,MST_test,2024.2.0,60.00974558004329,2026-01-19 17h22.44.516166 +0530,
77,0,78,o,1.7993871999788098,None,78,0,77,403.7638034999836,,,,,,,,,,,,,,,,,,,,,,,,,,,,,,,,,,,,,,,,,,,,,,,,,,403.7471348999534,403.7638034999836,404.2634498999687,404.2467868999811,404.25492209999356,404.2634498999687,404.2634498999687,404.2634498999687,406.0637071999954,Scenes\121a.jpg,mid,o,1.7993871999788098,None,,,,,,,,00061,001,2026-01-19_17h22.37.232,MST_test,2024.2.0,60.00974558004329,2026-01-19 17h22.44.516166 +0530,
78,0,79,n,3.28162640001392,None,79,0,78,406.07968709996203,,,,,,,,,,,,,,,,,,,,,,,,,,,,,,,,,,,,,,,,,,,,,,,,,,406.06380699999863,406.07968709996203,406.5820104999584,406.5637221999932,406.58011889999034,406.5820104999584,406.5820104999584,406.5820104999584,409.8803526999545,Scenes\156b.jpg,mid,n,3.28162640001392,None,,,,,,,,00061,001,2026-01-19_17h22.37.232,MST_test,2024.2.0,60.00974558004329,2026-01-19 17h22.44.516166 +0530,
79,0,80,s,2.673834400018677,None,80,0,79,409.89651449996745,,,,,,,,,,,,,,,,,,,,,,,,,,,,,,,,,,,,,,,,,,,,,,,,,,409.88045739999507,409.89651449996745,410.3968581999652,410.37997469998663,410.39233469998,410.3968581999652,410.3968581999652,410.3968581999652,413.08016829995904,Objects\085b.jpg,pre,s,2.673834400018677,None,,,,,,,,00061,001,2026-01-19_17h22.37.232,MST_test,2024.2.0,60.00974558004329,2026-01-19 17h22.44.516166 +0530,
80,0,81,n,1.4987655999721028,None,81,0,80,413.09641009999905,,,,,,,,,,,,,,,,,,,,,,,,,,,,,,,,,,,,,,,,,,,,,,,,,,413.0802623999771,413.09641009999905,413.5966497999616,413.57994909997797,413.5899546999717,413.5966497999616,413.5966497999616,413.5966497999616,415.09723699995084,Foils\034a.jpg,none,n,1.4987655999721028,None,,,,,,,,00061,001,2026-01-19_17h22.37.232,MST_test,2024.2.0,60.00974558004329,2026-01-19 17h22.44.516166 +0530,
81,0,82,n,1.8249238000134937,None,82,0,81,415.1130770999589,,,,,,,,,,,,,,,,,,,,,,,,,,,,,,,,,,,,,,,,,,,,,,,,,,415.09733109996887,415.1130770999589,415.61377939995145,415.5967299999902,415.6062852999894,415.61377939995145,415.61377939995145,415.61377939995145,417.44700079999166,Objects\173b.jpg,mid,n,1.8249238000134937,None,,,,,,,,00061,001,2026-01-19_17h22.37.232,MST_test,2024.2.0,60.00974558004329,2026-01-19 17h22.44.516166 +0530,
82,0,83,o,1.1874172000098042,None,83,0,82,417.46306979999645,,,,,,,,,,,,,,,,,,,,,,,,,,,,,,,,,,,,,,,,,,,,,,,,,,417.4470978999743,417.46306979999645,417.9634892999893,417.9466986999614,417.9567421999527,417.9634892999893,417.9634892999893,417.9634892999893,419.163771099993,Scenes\072a.jpg,mid,o,1.1874172000098042,None,,,,,,,,00061,001,2026-01-19_17h22.37.232,MST_test,2024.2.0,60.00974558004329,2026-01-19 17h22.44.516166 +0530,
83,0,84,n,5.816387600032613,None,84,0,83,419.1796004999778,,,,,,,,,,,,,,,,,,,,,,,,,,,,,,,,,,,,,,,,,,,,,,,,,,419.16386499995133,419.1796004999778,419.68026479997206,419.66336949996185,419.6738976999768,419.68026479997206,419.68026479997206,419.68026479997206,425.49747239996213,Foils\074a.jpg,none,n,5.816387600032613,None,,,,,,,,00061,001,2026-01-19_17h22.37.232,MST_test,2024.2.0,60.00974558004329,2026-01-19 17h22.44.516166 +0530,
84,0,85,n,2.4816820000414737,None,85,0,84,425.5131756999763,,,,,,,,,,,,,,,,,,,,,,,,,,,,,,,,,,,,,,,,,,,,,,,,,,425.49757169996155,425.5131756999763,426.01355350000085,425.9967707999749,426.00989049999043,426.01355350000085,426.01355350000085,426.01355350000085,428.4969624999794,Scenes\140b.jpg,mid,n,2.4816820000414737,None,,,,,,,,00061,001,2026-01-19_17h22.37.232,MST_test,2024.2.0,60.00974558004329,2026-01-19 17h22.44.516166 +0530,
85,0,86,o,3.0656275000073947,None,86,0,85,428.5131673999713,,,,,,,,,,,,,,,,,,,,,,,,,,,,,,,,,,,,,,,,,,,,,,,,,,428.4970514999586,428.5131673999713,429.01358899998013,428.9968321999768,428.99997760000406,429.01358899998013,429.01358899998013,429.01358899998013,432.0803305999725,Objects\168a.jpg,pre,o,3.0656275000073947,None,,,,,,,,00061,001,2026-01-19_17h22.37.232,MST_test,2024.2.0,60.00974558004329,2026-01-19 17h22.44.516166 +0530,
86,0,87,s,1.7708062000456266,None,87,0,86,432.0965723999543,,,,,,,,,,,,,,,,,,,,,,,,,,,,,,,,,,,,,,,,,,,,,,,,,,432.08042569999816,432.0965723999543,432.5966099999496,432.5800100999768,432.5900493999943,432.5966099999496,432.5966099999496,432.5966099999496,434.38026179996086,Objects\078b.jpg,post,s,1.7708062000456266,None,,,,,,,,00061,001,2026-01-19_17h22.37.232,MST_test,2024.2.0,60.00974558004329,2026-01-19 17h22.44.516166 +0530,
87,0,88,n,2.7347017000429332,None,88,0,87,434.3964810000034,,,,,,,,,,,,,,,,,,,,,,,,,,,,,,,,,,,,,,,,,,,,,,,,,,434.3803644999862,434.3964810000034,434.89667229994666,434.8799258999643,434.88992109999526,434.89667229994666,434.89667229994666,434.89667229994666,437.64703399996506,Foils\086a.jpg,none,n,2.7347017000429332,None,,,,,,,,00061,001,2026-01-19_17h22.37.232,MST_test,2024.2.0,60.00974558004329,2026-01-19 17h22.44.516166 +0530,
88,0,89,o,1.5878959000110626,None,89,0,88,437.6631126999855,,,,,,,,,,,,,,,,,,,,,,,,,,,,,,,,,,,,,,,,,,,,,,,,,,437.6471304000006,437.6631126999855,438.1633260999806,438.1467776999925,438.14917629997944,438.1633260999806,438.1633260999806,438.1633260999806,439.763681899989,Objects\122a.jpg,mid,o,1.5878959000110626,None,,,,,,,,00061,001,2026-01-19_17h22.37.232,MST_test,2024.2.0,60.00974558004329,2026-01-19 17h22.44.516166 +0530,
89,0,90,o,1.191036600037478,None,90,0,89,439.7796932999627,,,,,,,,,,,,,,,,,,,,,,,,,,,,,,,,,,,,,,,,,,,,,,,,,,439.7637695999583,439.7796932999627,440.2800344999996,440.26328189997,440.2737148999586,440.2800344999996,440.2800344999996,440.2800344999996,441.48033279995434,Scenes\086a.jpg,post,o,1.191036600037478,None,,,,,,,,00061,001,2026-01-19_17h22.37.232,MST_test,2024.2.0,60.00974558004329,2026-01-19 17h22.44.516166 +0530,
90,0,91,o,1.117899699951522,None,91,0,90,441.4963588999817,,,,,,,,,,,,,,,,,,,,,,,,,,,,,,,,,,,,,,,,,,,,,,,,,,441.4804252999602,441.4963588999817,442.0014833000023,441.97997059999034,441.99929199996404,442.0014833000023,442.0014833000023,442.0014833000023,443.13031879998744,Scenes\105b.jpg,mid,o,1.117899699951522,None,,,,,,,,00061,001,2026-01-19_17h22.37.232,MST_test,2024.2.0,60.00974558004329,2026-01-19 17h22.44.516166 +0530,
91,0,92,s,3.254293999983929,None,92,0,91,443.14641699998174,,,,,,,,,,,,,,,,,,,,,,,,,,,,,,,,,,,,,,,,,,,,,,,,,,443.13040749996435,443.14641699998174,443.64959909999743,443.6297884999658,443.6475508000003,443.64959909999743,443.64959909999743,443.64959909999743,446.9135996999685,Scenes\062b.jpg,mid,s,3.254293999983929,None,,,,,,,,00061,001,2026-01-19_17h22.37.232,MST_test,2024.2.0,60.00974558004329,2026-01-19 17h22.44.516166 +0530,
92,0,93,n,1.292277800035663,None,93,0,92,446.92969929997344,,,,,,,,,,,,,,,,,,,,,,,,,,,,,,,,,,,,,,,,,,,,,,,,,,446.9136870999937,446.92969929997344,447.43495659995824,447.4134331999812,447.4327727999771,447.43495659995824,447.43495659995824,447.43495659995824,448.7303703999496,Foils\scenes28.jpg,none,n,1.292277800035663,None,,,,,,,,00061,001,2026-01-19_17h22.37.232,MST_test,2024.2.0,60.00974558004329,2026-01-19 17h22.44.516166 +0530,
93,0,94,n,1.143530000001192,None,94,0,93,448.74637789995177,,,,,,,,,,,,,,,,,,,,,,,,,,,,,,,,,,,,,,,,,,,,,,,,,,448.73045899998397,448.74637789995177,449.2471837999765,449.22988079994684,449.23978399997577,449.2471837999765,449.2471837999765,449.2471837999765,450.39717399998335,Objects\128b.jpg,mid,n,1.143530000001192,None,,,,,,,,00061,001,2026-01-19_17h22.37.232,MST_test,2024.2.0,60.00974558004329,2026-01-19 17h22.44.516166 +0530,
94,0,95,n,1.9148429000051692,None,95,0,94,450.41304379998473,,,,,,,,,,,,,,,,,,,,,,,,,,,,,,,,,,,,,,,,,,,,,,,,,,450.397262799961,450.41304379998473,450.91580590000376,450.8969073999906,450.91368949995376,450.91580590000376,450.91580590000376,450.91580590000376,452.84706469997764,Scenes\171b.jpg,pre,n,1.9148429000051692,None,,,,,,,,00061,001,2026-01-19_17h22.37.232,MST_test,2024.2.0,60.00974558004329,2026-01-19 17h22.44.516166 +0530,
95,0,96,o,2.3628535000025295,None,96,0,95,452.8632115999935,,,,,,,,,,,,,,,,,,,,,,,,,,,,,,,,,,,,,,,,,,,,,,,,,,452.8471544999629,452.8632115999935,453.36372529994696,453.3468157000025,453.35040399996797,453.36372529994696,453.36372529994696,453.36372529994696,455.7305370999966,Objects\067a.jpg,post,o,2.3628535000025295,None,,,,,,,,00061,001,2026-01-19_17h22.37.232,MST_test,2024.2.0,60.00974558004329,2026-01-19 17h22.44.516166 +0530,
96,0,97,n,2.000217300024815,None,97,0,96,455.7465055999928,,,,,,,,,,,,,,,,,,,,,,,,,,,,,,,,,,,,,,,,,,,,,,,,,,455.7306242999621,455.7465055999928,456.2467651999905,456.2303488999605,456.24041769996984,456.2467651999905,456.2467651999905,456.2467651999905,458.2639450999559,Objects\052b.jpg,mid,n,2.000217300024815,None,,,,,,,,00061,001,2026-01-19_17h22.37.232,MST_test,2024.2.0,60.00974558004329,2026-01-19 17h22.44.516166 +0530,
97,0,98,n,4.138358699972741,None,98,0,97,458.2799456999637,,,,,,,,,,,,,,,,,,,,,,,,,,,,,,,,,,,,,,,,,,,,,,,,,,458.2640490999911,458.2799456999637,458.78032099996926,458.7634759999928,458.775974499993,458.78032099996926,458.78032099996926,458.78032099996926,462.9302902999916,Scenes\079b.jpg,mid,n,4.138358699972741,None,,,,,,,,00061,001,2026-01-19_17h22.37.232,MST_test,2024.2.0,60.00974558004329,2026-01-19 17h22.44.516166 +0530,
98,0,99,n,1.2395027000457048,None,99,0,98,462.9465651999926,,,,,,,,,,,,,,,,,,,,,,,,,,,,,,,,,,,,,,,,,,,,,,,,,,462.9303789999685,462.9465651999926,463.44718889996875,463.4301583999768,463.4432677999721,463.44718889996875,463.44718889996875,463.44718889996875,464.6971670999774,Scenes\132b.jpg,mid,n,1.2395027000457048,None,,,,,,,,00061,001,2026-01-19_17h22.37.232,MST_test,2024.2.0,60.00974558004329,2026-01-19 17h22.44.516166 +0530,
99,0,100,s,2.065954200050328,None,100,0,99,464.71317409997573,,,,,,,,,,,,,,,,,,,,,,,,,,,,,,,,,,,,,,,,,,,,,,,,,,464.69725559995277,464.71317409997573,465.2135868999758,465.19680079998216,465.2001703999704,465.2135868999758,465.2135868999758,465.2135868999758,467.2803602999775,Objects\190a.jpg,mid,s,2.065954200050328,None,,,,,,,,00061,001,2026-01-19_17h22.37.232,MST_test,2024.2.0,60.00974558004329,2026-01-19 17h22.44.516166 +0530,
100,0,101,s,1.7218927000067197,None,101,0,100,467.2964146999875,,,,,,,,,,,,,,,,,,,,,,,,,,,,,,,,,,,,,,,,,,,,,,,,,,467.2804605999845,467.2964146999875,467.7968402999686,467.78021129994886,467.7920414999826,467.7968402999686,467.7968402999686,467.7968402999686,469.5302740999614,Objects\088b.jpg,mid,s,1.7218927000067197,None,,,,,,,,00061,001,2026-01-19_17h22.37.232,MST_test,2024.2.0,60.00974558004329,2026-01-19 17h22.44.516166 +0530,
101,0,102,s,1.9518159999861382,None,102,0,101,469.54656519996934,,,,,,,,,,,,,,,,,,,,,,,,,,,,,,,,,,,,,,,,,,,,,,,,,,469.53036399994744,469.54656519996934,470.04674499999965,470.0302357999608,470.0416116999695,470.04674499999965,470.04674499999965,470.04674499999965,472.0137403999688,Objects\146b.jpg,pre,s,1.9518159999861382,None,,,,,,,,00061,001,2026-01-19_17h22.37.232,MST_test,2024.2.0,60.00974558004329,2026-01-19 17h22.44.516166 +0530,
102,0,103,n,1.1569966999813914,None,103,0,102,472.0299405999831,,,,,,,,,,,,,,,,,,,,,,,,,,,,,,,,,,,,,,,,,,,,,,,,,,472.0138306999579,472.0299405999831,472.5300029999926,472.5135113999713,472.52319029998034,472.5300029999926,472.5300029999926,472.5300029999926,473.6974831999978,Foils\082a.jpg,none,n,1.1569966999813914,None,,,,,,,,00061,001,2026-01-19_17h22.37.232,MST_test,2024.2.0,60.00974558004329,2026-01-19 17h22.44.516166 +0530,
103,0,104,n,3.3059509999584407,None,104,0,103,473.713330700004,,,,,,,,,,,,,,,,,,,,,,,,,,,,,,,,,,,,,,,,,,,,,,,,,,473.6975809999858,473.713330700004,474.2133537999471,474.1967436999548,474.20605879998766,474.2133537999471,474.2133537999471,474.2133537999471,477.530481099966,Objects\163b.jpg,pre,n,3.3059509999584407,None,,,,,,,,00061,001,2026-01-19_17h22.37.232,MST_test,2024.2.0,60.00974558004329,2026-01-19 17h22.44.516166 +0530,
104,0,105,s,4.833440400019754,None,105,0,104,477.54647429997567,,,,,,,,,,,,,,,,,,,,,,,,,,,,,,,,,,,,,,,,,,,,,,,,,,477.53057619999163,477.54647429997567,478.04676229995675,478.03048139996827,478.04051659995457,478.04676229995675,478.04676229995675,478.04676229995675,482.8969662999734,Objects\075b.jpg,mid,s,4.833440400019754,None,,,,,,,,00061,001,2026-01-19_17h22.37.232,MST_test,2024.2.0,60.00974558004329,2026-01-19 17h22.44.516166 +0530,
105,0,106,n,1.0013795999693684,None,106,0,105,482.9132391999592,,,,,,,,,,,,,,,,,,,,,,,,,,,,,,,,,,,,,,,,,,,,,,,,,,482.89706019998994,482.9132391999592,483.41337849997217,483.39708500000415,483.4073774999706,483.41337849997217,483.41337849997217,483.41337849997217,484.43030419998104,Foils\097a.jpg,none,n,1.0013795999693684,None,,,,,,,,00061,001,2026-01-19_17h22.37.232,MST_test,2024.2.0,60.00974558004329,2026-01-19 17h22.44.516166 +0530,
106,0,107,n,0.9807644999818876,None,107,0,106,484.446557999996,,,,,,,,,,,,,,,,,,,,,,,,,,,,,,,,,,,,,,,,,,,,,,,,,,484.4303942999686,484.446557999996,484.94660649995785,484.9299826999777,484.9327577999793,484.94660649995785,484.94660649995785,484.94660649995785,485.9304820999969,Objects\112a.jpg,mid,n,0.9807644999818876,None,,,,,,,,00061,001,2026-01-19_17h22.37.232,MST_test,2024.2.0,60.00974558004329,2026-01-19 17h22.44.516166 +0530,
107,0,108,n,3.488994199957233,None,108,0,107,485.94650019996334,,,,,,,,,,,,,,,,,,,,,,,,,,,,,,,,,,,,,,,,,,,,,,,,,,485.93057189998217,485.94650019996334,486.44686629995704,486.42986279999604,486.43892079999205,486.44686629995704,486.44686629995704,486.44686629995704,489.94712809997145,Foils\scenes1.jpg,none,n,3.488994199957233,None,,,,,,,,00061,001,2026-01-19_17h22.37.232,MST_test,2024.2.0,60.00974558004329,2026-01-19 17h22.44.516166 +0530,
108,0,109,n,3.7788186999969184,None,109,0,108,489.9631444999832,,,,,,,,,,,,,,,,,,,,,,,,,,,,,,,,,,,,,,,,,,,,,,,,,,489.9472262999625,489.9631444999832,490.49183079996146,490.4468000999768,490.489321400004,490.49183079996146,490.49183079996146,490.49183079996146,494.28028399997856,Foils\scenes15.jpg,none,n,3.7788186999969184,None,,,,,,,,00061,001,2026-01-19_17h22.37.232,MST_test,2024.2.0,60.00974558004329,2026-01-19 17h22.44.516166 +0530,
109,0,110,n,3.6814804000314325,None,110,0,109,494.29656930000056,,,,,,,,,,,,,,,,,,,,,,,,,,,,,,,,,,,,,,,,,,,,,,,,,,494.2803769999882,494.29656930000056,494.79773150000256,494.77995809999993,494.78342649998376,494.79773150000256,494.79773150000256,494.79773150000256,498.4806686999509,Objects\140a.jpg,pre,n,3.6814804000314325,None,,,,,,,,00061,001,2026-01-19_17h22.37.232,MST_test,2024.2.0,60.00974558004329,2026-01-19 17h22.44.516166 +0530,
110,0,111,o,1.6422436999855563,None,111,0,110,498.4964158999501,,,,,,,,,,,,,,,,,,,,,,,,,,,,,,,,,,,,,,,,,,,,,,,,,,498.48075859999517,498.4964158999501,498.99704259994905,498.98011579999,498.985645299952,498.99704259994905,498.99704259994905,498.99704259994905,500.6470543000032,Scenes\166a.jpg,pre,o,1.6422436999855563,None,,,,,,,,00061,001,2026-01-19_17h22.37.232,MST_test,2024.2.0,60.00974558004329,2026-01-19 17h22.44.516166 +0530,
111,0,112,n,2.0512480000033975,None,112,0,111,500.6632551999646,,,,,,,,,,,,,,,,,,,,,,,,,,,,,,,,,,,,,,,,,,,,,,,,,,500.6471459000022,500.6632551999646,501.16361839999445,501.1467158999876,501.1553229999845,501.16361839999445,501.16361839999445,501.16361839999445,503.2303651999682,Foils\scenes29.jpg,none,n,2.0512480000033975,None,,,,,,,,00061,001,2026-01-19_17h22.37.232,MST_test,2024.2.0,60.00974558004329,2026-01-19 17h22.44.516166 +0530,
112,0,113,o,2.148027000017464,None,113,0,112,503.2466346999863,,,,,,,,,,,,,,,,,,,,,,,,,,,,,,,,,,,,,,,,,,,,,,,,,,503.2304562999634,503.2466346999863,503.7467226999579,503.73015009996016,503.74037189997034,503.7467226999579,503.7467226999579,503.7467226999579,505.8971725999727,Objects\137b.jpg,post,o,2.148027000017464,None,,,,,,,,00061,001,2026-01-19_17h22.37.232,MST_test,2024.2.0,60.00974558004329,2026-01-19 17h22.44.516166 +0530,
113,0,114,o,2.1771824000170454,None,114,0,113,505.9132208999945,,,,,,,,,,,,,,,,,,,,,,,,,,,,,,,,,,,,,,,,,,,,,,,,,,505.89726789999986,505.9132208999945,506.41343259997666,506.396844199975,506.3994752999861,506.41343259997666,506.41343259997666,506.41343259997666,508.5971410999773,Objects\011a.jpg,pre,o,2.1771824000170454,None,,,,,,,,00061,001,2026-01-19_17h22.37.232,MST_test,2024.2.0,60.00974558004329,2026-01-19 17h22.44.516166 +0530,
114,0,115,n,2.349001099995803,None,115,0,114,508.6132503999979,,,,,,,,,,,,,,,,,,,,,,,,,,,,,,,,,,,,,,,,,,,,,,,,,,508.59723079996184,508.6132503999979,509.1135994999786,509.0968784999568,509.1062337999465,509.1135994999786,509.1135994999786,509.1135994999786,511.4639681999688,Scenes\146a.jpg,post,n,2.349001099995803,None,,,,,,,,00061,001,2026-01-19_17h22.37.232,MST_test,2024.2.0,60.00974558004329,2026-01-19 17h22.44.516166 +0530,
115,0,116,o,2.62783989997115,None,116,0,115,511.4799262000015,,,,,,,,,,,,,,,,,,,,,,,,,,,,,,,,,,,,,,,,,,,,,,,,,,511.4640587999602,511.4799262000015,511.9800325999968,511.96339989994885,511.9660509999958,511.9800325999968,511.9800325999968,511.9800325999968,514.6137275999645,Objects\013a.jpg,pre,o,2.62783989997115,None,,,,,,,,00061,001,2026-01-19_17h22.37.232,MST_test,2024.2.0,60.00974558004329,2026-01-19 17h22.44.516166 +0530,
116,0,117,o,1.6695405999780633,None,117,0,116,514.6296308999881,,,,,,,,,,,,,,,,,,,,,,,,,,,,,,,,,,,,,,,,,,,,,,,,,,514.6138291999814,514.6296308999881,515.1299263999681,515.1133699999773,515.1158303999691,515.1299263999681,515.1299263999681,515.1299263999681,516.8136947999592,Objects\134a.jpg,pre,o,1.6695405999780633,None,,,,,,,,00061,001,2026-01-19_17h22.37.232,MST_test,2024.2.0,60.00974558004329,2026-01-19 17h22.44.516166 +0530,
117,0,118,s,3.3250606000074185,None,118,0,117,516.8296513999812,,,,,,,,,,,,,,,,,,,,,,,,,,,,,,,,,,,,,,,,,,,,,,,,,,516.8137860999559,516.8296513999812,517.330155099975,517.3134864000021,517.3234002999961,517.330155099975,517.330155099975,517.330155099975,520.6637509999564,Scenes\031a.jpg,pre,s,3.3250606000074185,None,,,,,,,,00061,001,2026-01-19_17h22.37.232,MST_test,2024.2.0,60.00974558004329,2026-01-19 17h22.44.516166 +0530,
118,0,119,n,1.3706467999727465,None,119,0,118,520.6797345999512,,,,,,,,,,,,,,,,,,,,,,,,,,,,,,,,,,,,,,,,,,,,,,,,,,520.6638407999999,520.6797345999512,521.1802286999882,521.1633693999611,521.1738817999722,521.1802286999882,521.1802286999882,521.1802286999882,522.5636623000028,Objects\093b.jpg,post,n,1.3706467999727465,None,,,,,,,,00061,001,2026-01-19_17h22.37.232,MST_test,2024.2.0,60.00974558004329,2026-01-19 17h22.44.516166 +0530,
119,0,120,o,2.014620100031607,None,120,0,119,522.5797309999471,,,,,,,,,,,,,,,,,,,,,,,,,,,,,,,,,,,,,,,,,,,,,,,,,,522.5637528999941,522.5797309999471,523.0801137999515,523.0632997999783,523.0700380999479,523.0801137999515,523.0801137999515,523.0801137999515,525.0971116999863,Scenes\080a.jpg,post,o,2.014620100031607,None,,,,,,,,00061,001,2026-01-19_17h22.37.232,MST_test,2024.2.0,60.00974558004329,2026-01-19 17h22.44.516166 +0530,
120,0,121,o,2.4349595999810845,None,121,0,120,525.1133090999792,,,,,,,,,,,,,,,,,,,,,,,,,,,,,,,,,,,,,,,,,,,,,,,,,,525.0972037999891,525.1133090999792,525.6135761999758,525.596709699952,525.6099821999669,525.6135761999758,525.6135761999758,525.6135761999758,528.0639444999979,Scenes\123b.jpg,pre,o,2.4349595999810845,None,,,,,,,,00061,001,2026-01-19_17h22.37.232,MST_test,2024.2.0,60.00974558004329,2026-01-19 17h22.44.516166 +0530,
121,0,122,n,2.330604599963408,None,122,0,121,528.0798108999734,,,,,,,,,,,,,,,,,,,,,,,,,,,,,,,,,,,,,,,,,,,,,,,,,,528.0640507999924,528.0798108999734,528.5801122999983,528.5633838999784,528.5740133999498,528.5801122999983,528.5801122999983,528.5801122999983,530.9139043999603,Foils\020b.jpg,none,n,2.330604599963408,None,,,,,,,,00061,001,2026-01-19_17h22.37.232,MST_test,2024.2.0,60.00974558004329,2026-01-19 17h22.44.516166 +0530,
122,0,123,n,2.2179949000128545,None,123,0,122,530.9296965999529,,,,,,,,,,,,,,,,,,,,,,,,,,,,,,,,,,,,,,,,,,,,,,,,,,530.9139989999821,530.9296965999529,531.4297784999944,531.4133761999547,531.4157881999854,531.4297784999944,531.4297784999944,531.4297784999944,533.6637100999942,Objects\001a.jpg,post,n,2.2179949000128545,None,,,,,,,,00061,001,2026-01-19_17h22.37.232,MST_test,2024.2.0,60.00974558004329,2026-01-19 17h22.44.516166 +0530,
123,0,124,n,2.2670109000173397,None,124,0,123,533.6796287999605,,,,,,,,,,,,,,,,,,,,,,,,,,,,,,,,,,,,,,,,,,,,,,,,,,533.663801799994,533.6796287999605,534.1799304999877,534.1633825000026,534.1661172999884,534.1799304999877,534.1799304999877,534.1799304999877,536.463624099968,Objects\024a.jpg,mid,n,2.2670109000173397,None,,,,,,,,00061,001,2026-01-19_17h22.37.232,MST_test,2024.2.0,60.00974558004329,2026-01-19 17h22.44.516166 +0530,
124,0,125,n,2.346724200004246,None,125,0,124,536.4797269999981,,,,,,,,,,,,,,,,,,,,,,,,,,,,,,,,,,,,,,,,,,,,,,,,,,536.463713199948,536.4797269999981,536.9799916999764,536.9633902999922,536.9744548999588,536.9799916999764,536.9799916999764,536.9799916999764,539.3302285999525,Foils\050a.jpg,none,n,2.346724200004246,None,,,,,,,,00061,001,2026-01-19_17h22.37.232,MST_test,2024.2.0,60.00974558004329,2026-01-19 17h22.44.516166 +0530,
125,0,126,o,2.3119309000321664,None,126,0,125,539.3464616999845,,,,,,,,,,,,,,,,,,,,,,,,,,,,,,,,,,,,,,,,,,,,,,,,,,539.3303210999584,539.3464616999845,539.8466496999608,539.8300480999751,539.8326207999489,539.8466496999608,539.8466496999608,539.8466496999608,542.1637835999718,Objects\115a.jpg,post,o,2.3119309000321664,None,,,,,,,,00061,001,2026-01-19_17h22.37.232,MST_test,2024.2.0,60.00974558004329,2026-01-19 17h22.44.516166 +0530,
126,0,127,o,1.4637748000095598,None,127,0,126,542.1796880999464,,,,,,,,,,,,,,,,,,,,,,,,,,,,,,,,,,,,,,,,,,,,,,,,,,542.1638843999826,542.1796880999464,542.6804387999582,542.6634367999504,542.6725718999514,542.6804387999582,542.6804387999582,542.6804387999582,544.1477344000014,Scenes\038a.jpg,mid,o,1.4637748000095598,None,,,,,,,,00061,001,2026-01-19_17h22.37.232,MST_test,2024.2.0,60.00974558004329,2026-01-19 17h22.44.516166 +0530,
127,0,128,n,2.263703099975828,None,128,0,127,544.16317049996,,,,,,,,,,,,,,,,,,,,,,,,,,,,,,,,,,,,,,,,,,,,,,,,,,544.1478362999624,544.16317049996,544.6636383999721,544.6467606999795,544.6572076999582,544.6636383999721,544.6636383999721,544.6636383999721,546.9303394999588,Foils\065a.jpg,none,n,2.263703099975828,None,,,,,,,,00061,001,2026-01-19_17h22.37.232,MST_test,2024.2.0,60.00974558004329,2026-01-19 17h22.44.516166 +0530,
128,0,129,n,1.4322240999899805,None,129,0,128,546.9464067999506,,,,,,,,,,,,,,,,,,,,,,,,,,,,,,,,,,,,,,,,,,,,,,,,,,546.930429400003,546.9464067999506,547.4468822999625,547.4299796999549,547.4429116999963,547.4468822999625,547.4468822999625,547.4468822999625,548.880206599948,Scenes\188b.jpg,post,n,1.4322240999899805,None,,,,,,,,00061,001,2026-01-19_17h22.37.232,MST_test,2024.2.0,60.00974558004329,2026-01-19 17h22.44.516166 +0530,
129,0,130,n,2.241974600008689,None,130,0,129,548.896398199955,,,,,,,,,,,,,,,,,,,,,,,,,,,,,,,,,,,,,,,,,,,,,,,,,,548.8803049999988,548.896398199955,549.3969015999464,549.3799788999604,549.3893920999835,549.3969015999464,549.3969015999464,549.3969015999464,551.6473534999532,Foils\scenes3.jpg,none,n,2.241974600008689,None,,,,,,,,00061,001,2026-01-19_17h22.37.232,MST_test,2024.2.0,60.00974558004329,2026-01-19 17h22.44.516166 +0530,
130,0,131,s,4.019922800012864,None,131,0,130,551.6631607000018,,,,,,,,,,,,,,,,,,,,,,,,,,,,,,,,,,,,,,,,,,,,,,,,,,551.647447699972,551.6631607000018,552.1634043999948,552.1468736999668,552.1567676999839,552.1634043999948,552.1634043999948,552.1634043999948,556.1971314999973,Objects\061b.jpg,mid,s,4.019922800012864,None,,,,,,,,00061,001,2026-01-19_17h22.37.232,MST_test,2024.2.0,60.00974558004329,2026-01-19 17h22.44.516166 +0530,
131,0,132,o,2.221647899947129,None,132,0,131,556.2131381999934,,,,,,,,,,,,,,,,,,,,,,,,,,,,,,,,,,,,,,,,,,,,,,,,,,556.1976506999927,556.2131381999934,556.7135275999899,556.6966424999991,556.7069601999829,556.7135275999899,556.7135275999899,556.7135275999899,558.947186299949,Scenes\008b.jpg,pre,o,2.221647899947129,None,,,,,,,,00061,001,2026-01-19_17h22.37.232,MST_test,2024.2.0,60.00974558004329,2026-01-19 17h22.44.516166 +0530,
132,0,133,n,5.2795954999746755,None,133,0,132,558.9631751999841,,,,,,,,,,,,,,,,,,,,,,,,,,,,,,,,,,,,,,,,,,,,,,,,,,558.9472858999507,558.9631751999841,559.4635815999936,559.4468471999862,559.4575941999792,559.4635815999936,559.4635815999936,559.4635815999936,564.747109399992,Foils\093b.jpg,none,n,5.2795954999746755,None,,,,,,,,00061,001,2026-01-19_17h22.37.232,MST_test,2024.2.0,60.00974558004329,2026-01-19 17h22.44.516166 +0530,
133,0,134,o,1.66853570000967,None,134,0,133,564.7631984999753,,,,,,,,,,,,,,,,,,,,,,,,,,,,,,,,,,,,,,,,,,,,,,,,,,564.7472041999572,564.7631984999753,565.2670299999882,565.2467145999544,565.265008599963,565.2670299999882,565.2670299999882,565.2670299999882,566.9471583999693,Scenes\003b.jpg,post,o,1.66853570000967,None,,,,,,,,00061,001,2026-01-19_17h22.37.232,MST_test,2024.2.0,60.00974558004329,2026-01-19 17h22.44.516166 +0530,
134,0,135,o,1.304062100010924,None,135,0,134,566.9631640999578,,,,,,,,,,,,,,,,,,,,,,,,,,,,,,,,,,,,,,,,,,,,,,,,,,566.9472468000022,566.9631640999578,567.463469899958,567.4469153999817,567.4569610999897,567.463469899958,567.463469899958,567.463469899958,568.7802090999903,Scenes\029a.jpg,pre,o,1.304062100010924,None,,,,,,,,00061,001,2026-01-19_17h22.37.232,MST_test,2024.2.0,60.00974558004329,2026-01-19 17h22.44.516166 +0530,
135,0,136,s,2.238368799968157,None,136,0,135,568.796470799949,,,,,,,,,,,,,,,,,,,,,,,,,,,,,,,,,,,,,,,,,,,,,,,,,,568.7803047999623,568.796470799949,569.2970333999838,569.2801442999626,569.289905899961,569.2970333999838,569.2970333999838,569.2970333999838,571.5471155999694,Objects\087b.jpg,pre,s,2.238368799968157,None,,,,,,,,00061,001,2026-01-19_17h22.37.232,MST_test,2024.2.0,60.00974558004329,2026-01-19 17h22.44.516166 +0530,
136,0,137,o,1.431020800024271,None,137,0,136,571.5631398999831,,,,,,,,,,,,,,,,,,,,,,,,,,,,,,,,,,,,,,,,,,,,,,,,,,571.5472114000004,571.5631398999831,572.0637214999879,572.0469152999576,572.0528995999484,572.0637214999879,572.0637214999879,572.0637214999879,573.497150399955,Scenes\050a.jpg,post,o,1.431020800024271,None,,,,,,,,00061,001,2026-01-19_17h22.37.232,MST_test,2024.2.0,60.00974558004329,2026-01-19 17h22.44.516166 +0530,
137,0,138,n,1.0811217000009492,None,138,0,137,573.5132585999672,,,,,,,,,,,,,,,,,,,,,,,,,,,,,,,,,,,,,,,,,,,,,,,,,,573.4972413999494,573.5132585999672,574.0136559999664,573.9968630999792,574.0064208999975,574.0136559999664,574.0136559999664,574.0136559999664,575.0971221999498,Foils\scenes12.jpg,none,n,1.0811217000009492,None,,,,,,,,00061,001,2026-01-19_17h22.37.232,MST_test,2024.2.0,60.00974558004329,2026-01-19 17h22.44.516166 +0530,
138,0,139,o,2.5057238999870606,None,139,0,138,575.1131273999927,,,,,,,,,,,,,,,,,,,,,,,,,,,,,,,,,,,,,,,,,,,,,,,,,,575.0972162999678,575.1131273999927,575.6135031000013,575.5968376999954,575.6068116999813,575.6135031000013,575.6135031000013,575.6135031000013,578.1304700999754,Scenes\041a.jpg,post,o,2.5057238999870606,None,,,,,,,,00061,001,2026-01-19_17h22.37.232,MST_test,2024.2.0,60.00974558004329,2026-01-19 17h22.44.516166 +0530,
139,0,140,o,1.7124050999991596,None,140,0,139,578.1465927999816,,,,,,,,,,,,,,,,,,,,,,,,,,,,,,,,,,,,,,,,,,,,,,,,,,578.1305586999515,578.1465927999816,578.6470332999597,578.630015200004,578.6332381999819,578.6470332999597,578.6470332999597,578.6470332999597,580.363804899971,Objects\149a.jpg,pre,o,1.7124050999991596,None,,,,,,,,00061,001,2026-01-19_17h22.37.232,MST_test,2024.2.0,60.00974558004329,2026-01-19 17h22.44.516166 +0530,
140,0,141,n,1.0786759000038728,None,141,0,140,580.3799285999849,,,,,,,,,,,,,,,,,,,,,,,,,,,,,,,,,,,,,,,,,,,,,,,,,,580.3638962999685,580.3799285999849,580.8801681999466,580.8634803000023,580.8729920999613,580.8801681999466,580.8801681999466,580.8801681999466,581.9639912999701,Objects\130b.jpg,post,n,1.0786759000038728,None,,,,,,,,00061,001,2026-01-19_17h22.37.232,MST_test,2024.2.0,60.00974558004329,2026-01-19 17h22.44.516166 +0530,
141,0,142,n,3.0731077999807894,None,142,0,141,581.9798660999513,,,,,,,,,,,,,,,,,,,,,,,,,,,,,,,,,,,,,,,,,,,,,,,,,,581.9640805999516,581.9798660999513,582.4857522999519,582.4635533999535,582.483535599953,582.4857522999519,582.4857522999519,582.4857522999519,585.5637807999738,Scenes\046b.jpg,pre,n,3.0731077999807894,None,,,,,,,,00061,001,2026-01-19_17h22.37.232,MST_test,2024.2.0,60.00974558004329,2026-01-19 17h22.44.516166 +0530,
142,0,143,n,3.05457400000887,None,143,0,142,585.580111999996,,,,,,,,,,,,,,,,,,,,,,,,,,,,,,,,,,,,,,,,,,,,,,,,,,585.5638786999625,585.580111999996,586.0822798999725,586.0634926999919,586.0801805999945,586.0822798999725,586.0822798999725,586.0822798999725,589.1472191999783,Scenes\035b.jpg,pre,n,3.05457400000887,None,,,,,,,,00061,001,2026-01-19_17h22.37.232,MST_test,2024.2.0,60.00974558004329,2026-01-19 17h22.44.516166 +0530,
143,0,144,o,1.191070500004571,None,144,0,143,589.1632257999736,,,,,,,,,,,,,,,,,,,,,,,,,,,,,,,,,,,,,,,,,,,,,,,,,,589.1473142000032,589.1632257999736,589.6637593999621,589.6470353999757,589.6528001999832,589.6637593999621,589.6637593999621,589.6637593999621,590.8640098999604,Scenes\024a.jpg,post,o,1.191070500004571,None,,,,,,,,00061,001,2026-01-19_17h22.37.232,MST_test,2024.2.0,60.00974558004329,2026-01-19 17h22.44.516166 +0530,
144,0,145,n,1.2744151999941096,None,145,0,144,590.8798525999882,,,,,,,,,,,,,,,,,,,,,,,,,,,,,,,,,,,,,,,,,,,,,,,,,,590.8640999999479,590.8798525999882,591.3805292999605,591.3635686999769,591.3754642999847,591.3805292999605,591.3805292999605,591.3805292999605,592.6637732999516,Foils\018a.jpg,none,n,1.2744151999941096,None,,,,,,,,00061,001,2026-01-19_17h22.37.232,MST_test,2024.2.0,60.00974558004329,2026-01-19 17h22.44.516166 +0530,
145,0,146,o,3.2107960000284947,None,146,0,145,592.6796793999965,,,,,,,,,,,,,,,,,,,,,,,,,,,,,,,,,,,,,,,,,,,,,,,,,,592.6638680999749,592.6796793999965,593.1803459999501,593.1635449999594,593.1714656999684,593.1803459999501,593.1803459999501,593.1803459999501,596.3971988999983,Scenes\164a.jpg,pre,o,3.2107960000284947,None,,,,,,,,00061,001,2026-01-19_17h22.37.232,MST_test,2024.2.0,60.00974558004329,2026-01-19 17h22.44.516166 +0530,
146,0,147,s,1.964888799993787,None,147,0,146,596.4131814999855,,,,,,,,,,,,,,,,,,,,,,,,,,,,,,,,,,,,,,,,,,,,,,,,,,596.3972972999909,596.4131814999855,596.9137322999886,596.8968785000034,596.8998904000036,596.9137322999886,596.9137322999886,596.9137322999886,598.8803765999619,Objects\124a.jpg,post,s,1.964888799993787,None,,,,,,,,00061,001,2026-01-19_17h22.37.232,MST_test,2024.2.0,60.00974558004329,2026-01-19 17h22.44.516166 +0530,
147,0,148,s,1.5941717000096105,None,148,0,147,598.8965584999532,,,,,,,,,,,,,,,,,,,,,,,,,,,,,,,,,,,,,,,,,,,,,,,,,,598.880479399988,598.8965584999532,599.3968670999748,599.380167700001,599.3902320999769,599.3968670999748,599.3968670999748,599.3968670999748,600.9971606999752,Objects\038b.jpg,mid,s,1.5941717000096105,None,,,,,,,,00061,001,2026-01-19_17h22.37.232,MST_test,2024.2.0,60.00974558004329,2026-01-19 17h22.44.516166 +0530,
148,0,149,s,2.01393159996951,None,149,0,148,601.0131907999748,,,,,,,,,,,,,,,,,,,,,,,,,,,,,,,,,,,,,,,,,,,,,,,,,,600.9972499999567,601.0131907999748,601.5134807999711,601.4971145999734,601.5066150999628,601.5134807999711,601.5134807999711,601.5134807999711,603.530504299968,Objects\158b.jpg,post,s,2.01393159996951,None,,,,,,,,00061,001,2026-01-19_17h22.37.232,MST_test,2024.2.0,60.00974558004329,2026-01-19 17h22.44.516166 +0530,
149,0,150,s,2.800272899970878,None,150,0,149,603.5465166999493,,,,,,,,,,,,,,,,,,,,,,,,,,,,,,,,,,,,,,,,,,,,,,,,,,603.5306030999636,603.5465166999493,604.0467828999972,604.029998199956,604.039691599959,604.0467828999972,604.0467828999972,604.0467828999972,606.8636806999566,Objects\145b.jpg,pre,s,2.800272899970878,None,,,,,,,,00061,001,2026-01-19_17h22.37.232,MST_test,2024.2.0,60.00974558004329,2026-01-19 17h22.44.516166 +0530,
,,,,,,,,,,,,,,,,,,,,,,,,,,,,,,,,,,,,,,,,,,,,,,,,,,,,,,,,,,,,,,,,,,,,,,,,,606.8637442999752,606.8798103999579,606.8798103999579,609.713571899978,space,2.831286899978295,None,00061,001,2026-01-19_17h22.37.232,MST_test,2024.2.0,60.00974558004329,2026-01-19 17h22.44.516166 +0530,
