Sl_no,image_path,thisN,thisTrialN,thisRepN,key_resp_5.keys,key_resp_7.keys,key_resp_7.rt,key_resp_7.duration,key_resp_5.rt,key_resp_5.duration,key_resp_9.keys,key_resp_9.rt,key_resp_9.duration,key_resp_8.keys,key_resp_8.rt,key_resp_8.duration,practice.thisRepN,practice.thisTrialN,practice.thisN,trials.thisRepN,trials.thisTrialN,trials.thisN,thisRow.t,notes,welcome_page.started,text.started,key_resp.started,welcome_page.stopped,key_resp.keys,key_resp.rt,key_resp.duration,instructions.started,ins.started,key_resp_2.started,instructions.stopped,key_resp_2.keys,key_resp_2.rt,key_resp_2.duration,instructions_2.started,text_10.started,key_resp_10.started,instructions_2.stopped,key_resp_10.keys,key_resp_10.rt,key_resp_10.duration,objects_only_instruction.started,text_3.started,key_resp_3.started,objects_only_instruction.stopped,key_resp_3.keys,key_resp_3.rt,key_resp_3.duration,ISI.started,text_4.started,text_4.stopped,ISI.stopped,practice_block.started,image.started,text_5.started,key_resp_5.started,practice_block.stopped,practice.key_resp_5.keys,indoor_outdoor.started,text_7.started,key_resp_7.started,indoor_outdoor.stopped,practice.key_resp_7.keys,practice.key_resp_7.rt,practice.key_resp_7.duration,image.stopped,text_5.stopped,key_resp_5.stopped,practice.key_resp_5.rt,practice.key_resp_5.duration,practice_to_main.started,text_2.started,key_resp_4.started,practice_to_main.stopped,key_resp_4.keys,key_resp_4.rt,key_resp_4.duration,objects.started,image_2.started,text_9.started,key_resp_9.started,image_2.stopped,text_9.stopped,key_resp_9.stopped,objects.stopped,trials.key_resp_9.keys,trials.key_resp_9.rt,trials.key_resp_9.duration,encoding_task.started,encoding_task.stopped,trials.key_resp_8.keys,text_8.started,key_resp_8.started,trials.key_resp_8.rt,trials.key_resp_8.duration,end_experiment.started,text_6.started,key_resp_6.started,end_experiment.stopped,key_resp_6.keys,key_resp_6.rt,key_resp_6.duration,list_of_stimuli,encoding_task_accuracy,participant,session,date,expName,psychopyVersion,frameRate,expStart,
,,,,,,,,,,,,,,,,,,,,,,,,,0.0011789000127464533,0.0026228000060655177,0.0026228000060655177,17.717382700007875,space,17.70668719999958,None,,,,,,,,,,,,,,,,,,,,,,,,,,,,,,,,,,,,,,,,,,,,,,,,,,,,,,,,,,,,,,,,,,,,,,,,,,,,,,00062,001,2026-01-19_17h33.39.502,MST_task,2024.2.0,60.044913587850594,2026-01-19 17h33.48.416740 +0530,
,,,,,,,,,,,,,,,,,,,,,,,,,,,,,,,,17.71741270000348,17.732502500002738,17.732502500002738,37.94945449999068,space,20.209904099989217,None,,,,,,,,,,,,,,,,,,,,,,,,,,,,,,,,,,,,,,,,,,,,,,,,,,,,,,,,,,,,,,,,,,,,,,,00062,001,2026-01-19_17h33.39.502,MST_task,2024.2.0,60.044913587850594,2026-01-19 17h33.48.416740 +0530,
,,,,,,,,,,,,,,,,,,,,,,,,,,,,,,,,,,,,,,,37.949484699987806,37.96545010001864,37.96545010001864,46.36594739998691,space,8.38403339998331,None,,,,,,,,,,,,,,,,,,,,,,,,,,,,,,,,,,,,,,,,,,,,,,,,,,,,,,,,,,,,,,,,00062,001,2026-01-19_17h33.39.502,MST_task,2024.2.0,60.044913587850594,2026-01-19 17h33.48.416740 +0530,
,,,,,,,,,,,,,,,,,,,,,,,,,,,,,,,,,,,,,,,,,,,,,,46.36597879999317,46.38221599999815,46.38221599999815,70.54927990003489,space,24.15196049999213,None,,,,,,,,,,,,,,,,,,,,,,,,,,,,,,,,,,,,,,,,,,,,,,,,,,,,,,,,,00062,001,2026-01-19_17h33.39.502,MST_task,2024.2.0,60.044913587850594,2026-01-19 17h33.48.416740 +0530,
7,practice_images/166a.jpg,0,0,1,None,f,1.8207400999963284,None,,,,,,,,,1,0,0,,,,70.56551759998547,,,,,,,,,,,,,,,,,,,,,,,,,,,,,,70.55316270003095,70.56551759998547,71.067252799985,71.04935400001705,71.05577239999548,71.067252799985,71.067252799985,71.067252799985,74.06572810001671,None,74.06756789999781,74.08200689998921,74.08200689998921,75.915974500007,f,1.8207400999963284,None,,,,,,,,,,,,,,,,,,,,,,,,,,,,,,,,,,,,,,,,00062,001,2026-01-19_17h33.39.502,MST_task,2024.2.0,60.044913587850594,2026-01-19 17h33.48.416740 +0530,
9,practice_images/180a.jpg,1,1,1,f,None,,,2.101888899982441,0.158992099983152,,,,,,,1,1,1,,,,75.93213750002906,,,,,,,,,,,,,,,,,,,,,,,,,,,,,,75.9160596000147,75.93213750002906,76.43233879999025,76.41567860002397,76.41734839999117,76.43233879999025,76.43233879999025,76.43233879999025,79.4158419999876,f,79.4158855000278,,,79.41589850001037,None,,,79.43213249999098,79.43213249999098,79.43213249999098,2.101888899982441,0.158992099983152,,,,,,,,,,,,,,,,,,,,,,,,,,,,,,,,,,,00062,001,2026-01-19_17h33.39.502,MST_task,2024.2.0,60.044913587850594,2026-01-19 17h33.48.416740 +0530,
6,practice_images/158a.jpg,2,2,1,j,None,,,2.400921099993866,0.16866720002144575,,,,,,,1,2,2,,,,79.43213249999098,,,,,,,,,,,,,,,,,,,,,,,,,,,,,,79.41596369998297,79.43213249999098,79.9322132000234,79.91594839998288,79.91751040000236,79.9322132000234,79.9322132000234,79.9322132000234,82.91577349998988,j,82.91581390000647,,,82.915826499986,None,,,82.93207300000358,82.93207300000358,82.93207300000358,2.400921099993866,0.16866720002144575,,,,,,,,,,,,,,,,,,,,,,,,,,,,,,,,,,,00062,001,2026-01-19_17h33.39.502,MST_task,2024.2.0,60.044913587850594,2026-01-19 17h33.48.416740 +0530,
5,practice_images/139a.jpg,3,3,1,j,None,,,2.262238099996466,0.15889949997654185,,,,,,,1,3,3,,,,82.93207300000358,,,,,,,,,,,,,,,,,,,,,,,,,,,,,,82.91588919999776,82.93207300000358,83.43231080000987,83.4156277999864,83.41699430003064,83.43231080000987,83.43231080000987,83.43231080000987,86.41581289999885,j,86.41585230000783,,,86.41586569999345,None,,,86.43215770000825,86.43215770000825,86.43215770000825,2.262238099996466,0.15889949997654185,,,,,,,,,,,,,,,,,,,,,,,,,,,,,,,,,,,00062,001,2026-01-19_17h33.39.502,MST_task,2024.2.0,60.044913587850594,2026-01-19 17h33.48.416740 +0530,
10,practice_images/182a.jpg,4,4,1,None,f,0.4900820000329986,None,,,,,,,,,1,4,4,,,,86.43215770000825,,,,,,,,,,,,,,,,,,,,,,,,,,,,,,86.4159292000113,86.43215770000825,86.9323441000306,86.9157731999876,86.91705510002794,86.9323441000306,86.9323441000306,86.9323441000306,89.9158208000008,None,89.91585590003524,89.93189659999916,89.93189659999916,90.43243849999271,f,0.4900820000329986,None,89.93189659999916,89.93189659999916,89.93189659999916,,,,,,,,,,,,,,,,,,,,,,,,,,,,,,,,,,,,,00062,001,2026-01-19_17h33.39.502,MST_task,2024.2.0,60.044913587850594,2026-01-19 17h33.48.416740 +0530,
3,practice_images/037a.jpg,5,5,1,f,None,,,1.129144499951508,0.1120012000319548,,,,,,,1,5,5,,,,90.44876880000811,,,,,,,,,,,,,,,,,,,,,,,,,,,,,,90.43252690002555,90.44876880000811,90.94883840001421,90.93251349998172,90.93783589999657,90.94883840001421,90.94883840001421,90.94883840001421,93.9324287000345,f,93.93503589998,,,93.93505420000292,None,,,93.94872779998695,93.94872779998695,93.94872779998695,1.129144499951508,0.1120012000319548,,,,,,,,,,,,,,,,,,,,,,,,,,,,,,,,,,,00062,001,2026-01-19_17h33.39.502,MST_task,2024.2.0,60.044913587850594,2026-01-19 17h33.48.416740 +0530,
2,practice_images/031a.jpg,6,6,1,f,None,,,2.0452292999834754,0.1360510000376962,,,,,,,1,6,6,,,,93.94872779998695,,,,,,,,,,,,,,,,,,,,,,,,,,,,,,93.93512039998313,93.94872779998695,94.44889659999171,94.4322462999844,94.43377890001284,94.44889659999171,94.44889659999171,94.44889659999171,97.43247100000735,f,97.43251620000228,,,97.4325308999978,None,,,97.44873659999575,97.44873659999575,97.44873659999575,2.0452292999834754,0.1360510000376962,,,,,,,,,,,,,,,,,,,,,,,,,,,,,,,,,,,00062,001,2026-01-19_17h33.39.502,MST_task,2024.2.0,60.044913587850594,2026-01-19 17h33.48.416740 +0530,
8,practice_images/178a.jpg,7,7,1,f,None,,,0.8811868999619037,0.10335210000630468,,,,,,,1,7,7,,,,97.44873659999575,,,,,,,,,,,,,,,,,,,,,,,,,,,,,,97.43259959999705,97.44873659999575,97.94895390002057,97.93218950001756,97.93364840000868,97.94895390002057,97.94895390002057,97.94895390002057,100.93238930002553,f,100.93242790002842,,,100.9324401000049,None,,,100.94872470002156,100.94872470002156,100.94872470002156,0.8811868999619037,0.10335210000630468,,,,,,,,,,,,,,,,,,,,,,,,,,,,,,,,,,,00062,001,2026-01-19_17h33.39.502,MST_task,2024.2.0,60.044913587850594,2026-01-19 17h33.48.416740 +0530,
1,practice_images/013a.jpg,8,8,1,j,None,,,0.8931134999729693,0.1757831000140868,,,,,,,1,8,8,,,,100.94872470002156,,,,,,,,,,,,,,,,,,,,,,,,,,,,,,100.93250280001666,100.94872470002156,101.44891289999941,101.43223780003609,101.43367170001147,101.44891289999941,101.44891289999941,101.44891289999941,104.43239899998298,j,104.43243739998434,,,104.4324502000236,None,,,104.44872159999795,104.44872159999795,104.44872159999795,0.8931134999729693,0.1757831000140868,,,,,,,,,,,,,,,,,,,,,,,,,,,,,,,,,,,00062,001,2026-01-19_17h33.39.502,MST_task,2024.2.0,60.044913587850594,2026-01-19 17h33.48.416740 +0530,
4,practice_images/002b.jpg,9,9,1,f,None,,,2.784368099994026,0.14431269996566698,,,,,,,1,9,9,,,,104.44872159999795,,,,,,,,,,,,,,,,,,,,,,,,,,,,,,104.43251429998782,104.44872159999795,104.94889240001794,104.9322569000069,104.93394730001455,104.94889240001794,104.94889240001794,104.94889240001794,107.93248269998003,f,107.93252249999205,,,107.93254449998494,None,,,107.94871070003137,107.94871070003137,107.94871070003137,2.784368099994026,0.14431269996566698,,,,,,,,,,,,,,,,,,,,,,,,,,,,,,,,,,,00062,001,2026-01-19_17h33.39.502,MST_task,2024.2.0,60.044913587850594,2026-01-19 17h33.48.416740 +0530,
,,,,,,,,,,,,,,,,,,,,,,,,,,,,,,,,,,,,,,,,,,,,,,,,,,,,,,,,,,,,,,,,,,,,,,,,,,,107.9325886000297,107.94871070003137,107.94871070003137,130.63281009998173,space,22.68081869999878,None,,,,,,,,,,,,,,,,,,,,,,,,,,,,00062,001,2026-01-19_17h33.39.502,MST_task,2024.2.0,60.044913587850594,2026-01-19 17h33.48.416740 +0530,
,Scenes\127a.jpg,0,0,1,,,,,,,f,1.6971789000090212,0.15193599998019636,None,,,,,,1,0,0,130.64869170001475,,,,,,,,,,,,,,,,,,,,,,,,,,,,,,130.63360140001168,130.64869170001475,131.14907949999906,131.13216550002107,,,,,,,,,,,,,,,,,,,,,,,,,,131.1425520000048,131.14907949999906,131.14907949999906,131.14907949999906,134.1487552000326,134.1487552000326,134.1487552000326,134.1324953000294,f,1.6971789000090212,0.15193599998019636,134.13413790002232,134.13415639998857,None,,,,,,,,,,,,,,00062,001,2026-01-19_17h33.39.502,MST_task,2024.2.0,60.044913587850594,2026-01-19 17h33.48.416740 +0530,
,Scenes\128a.jpg,1,0,2,,,,,,,None,,,j,0.08491779997712001,None,,,,2,0,1,134.1487552000326,,,,,,,,,,,,,,,,,,,,,,,,,,,,,,134.13425220001955,134.1487552000326,134.64932399999816,134.63221860001795,,,,,,,,,,,,,,,,,,,,,,,,,,134.64267219998874,134.64932399999816,134.64932399999816,134.64932399999816,137.6487622000277,137.6487622000277,137.6487622000277,137.63254690001486,None,,,137.6325848000124,137.74913290003315,j,137.6487622000277,137.6487622000277,0.08491779997712001,None,,,,,,,,,,00062,001,2026-01-19_17h33.39.502,MST_task,2024.2.0,60.044913587850594,2026-01-19 17h33.48.416740 +0530,
,Scenes\016a.jpg,2,0,3,,,,,,,j,1.2046552000101656,0.14342590002343059,None,,,,,,3,0,2,137.76539509999566,,,,,,,,,,,,,,,,,,,,,,,,,,,,,,137.7492520000087,137.76539509999566,138.2656483000028,138.24900250002975,,,,,,,,,,,,,,,,,,,,,,,,,,138.25401770003373,138.2656483000028,138.2656483000028,138.2656483000028,141.26544220000505,141.26544220000505,141.26544220000505,141.24926040001446,j,1.2046552000101656,0.14342590002343059,141.2493026999873,141.24932330002775,None,,,,,,,,,,,,,,00062,001,2026-01-19_17h33.39.502,MST_task,2024.2.0,60.044913587850594,2026-01-19 17h33.48.416740 +0530,
,Scenes\047a.jpg,3,0,4,,,,,,,j,1.2961270000087097,0.19999970000935718,None,,,,,,4,0,3,141.26544220000505,,,,,,,,,,,,,,,,,,,,,,,,,,,,,,141.2494240999804,141.26544220000505,141.76596659998177,141.7491588999983,,,,,,,,,,,,,,,,,,,,,,,,,,141.7591470000334,141.76596659998177,141.76596659998177,141.76596659998177,144.76541150000412,144.76541150000412,144.76541150000412,144.74948559998302,j,1.2961270000087097,0.19999970000935718,144.74953189998632,144.74954350001644,None,,,,,,,,,,,,,,00062,001,2026-01-19_17h33.39.502,MST_task,2024.2.0,60.044913587850594,2026-01-19 17h33.48.416740 +0530,
,Scenes\171a.jpg,4,0,5,,,,,,,f,1.7241223000455648,0.1350772999576293,None,,,,,,5,0,4,144.76541150000412,,,,,,,,,,,,,,,,,,,,,,,,,,,,,,144.7496462999843,144.76541150000412,145.26604200003203,145.24899079999886,,,,,,,,,,,,,,,,,,,,,,,,,,145.26022500003455,145.26604200003203,145.26604200003203,145.26604200003203,148.26565459999256,148.26565459999256,148.26565459999256,148.24961649999022,f,1.7241223000455648,0.1350772999576293,148.24966580001637,148.2496775999898,None,,,,,,,,,,,,,,00062,001,2026-01-19_17h33.39.502,MST_task,2024.2.0,60.044913587850594,2026-01-19 17h33.48.416740 +0530,
,Scenes\190a.jpg,5,0,6,,,,,,,j,2.575104299990926,0.1599605999654159,None,,,,,,6,0,5,148.26565459999256,,,,,,,,,,,,,,,,,,,,,,,,,,,,,,148.24978820001706,148.26565459999256,148.76622079999652,148.74906230001943,,,,,,,,,,,,,,,,,,,,,,,,,,148.7595081999898,148.76622079999652,148.76622079999652,148.76622079999652,151.76560809998773,151.76560809998773,151.76560809998773,151.74988130002748,j,2.575104299990926,0.1599605999654159,151.74993320001522,151.74994549999246,None,,,,,,,,,,,,,,00062,001,2026-01-19_17h33.39.502,MST_task,2024.2.0,60.044913587850594,2026-01-19 17h33.48.416740 +0530,
,Scenes\052a.jpg,6,0,7,,,,,,,None,,,j,0.49230300000635907,None,,,,7,0,6,151.76560809998773,,,,,,,,,,,,,,,,,,,,,,,,,,,,,,151.7500163000077,151.76560809998773,152.2660135999904,152.24911299999803,,,,,,,,,,,,,,,,,,,,,,,,,,152.2576504999888,152.2660135999904,152.2660135999904,152.2660135999904,155.26565170002868,155.26565170002868,155.26565170002868,155.24961440003244,None,,,155.24965960002737,155.76594030001434,j,155.26565170002868,155.26565170002868,0.49230300000635907,None,,,,,,,,,,00062,001,2026-01-19_17h33.39.502,MST_task,2024.2.0,60.044913587850594,2026-01-19 17h33.48.416740 +0530,
,Objects\181a.jpg,7,0,8,,,,,,,j,2.32213409995893,0.16085010004462674,None,,,,,,8,0,7,155.7820528000011,,,,,,,,,,,,,,,,,,,,,,,,,,,,,,155.76602839998668,155.7820528000011,156.2830752999871,156.26574770000298,,,,,,,,,,,,,,,,,,,,,,,,,,156.27899920003256,156.2830752999871,156.2830752999871,156.2830752999871,159.28208040003665,159.28208040003665,159.28208040003665,159.26596869999776,j,2.32213409995893,0.16085010004462674,159.2691222000285,159.26914069999475,None,,,,,,,,,,,,,,00062,001,2026-01-19_17h33.39.502,MST_task,2024.2.0,60.044913587850594,2026-01-19 17h33.48.416740 +0530,
,Objects\045a.jpg,8,0,9,,,,,,,j,2.279420900042169,0.13577379996422678,None,,,,,,9,0,8,159.28208040003665,,,,,,,,,,,,,,,,,,,,,,,,,,,,,,159.26921190001303,159.28208040003665,159.78228240000317,159.7657510000281,,,,,,,,,,,,,,,,,,,,,,,,,,159.7761402000324,159.78228240000317,159.78228240000317,159.78228240000317,162.78219210001407,162.78219210001407,162.78219210001407,162.76603629998863,j,2.279420900042169,0.13577379996422678,162.7660791000235,162.76608999999007,None,,,,,,,,,,,,,,00062,001,2026-01-19_17h33.39.502,MST_task,2024.2.0,60.044913587850594,2026-01-19 17h33.48.416740 +0530,
,Objects\003a.jpg,9,0,10,,,,,,,j,2.3476849000435323,0.17592329997569323,None,,,,,,10,0,9,162.78219210001407,,,,,,,,,,,,,,,,,,,,,,,,,,,,,,162.76618969999254,162.78219210001407,163.2823805999942,163.26571150001837,,,,,,,,,,,,,,,,,,,,,,,,,,163.26827960001538,163.2823805999942,163.2823805999942,163.2823805999942,166.28201080003055,166.28201080003055,166.28201080003055,166.26614379999228,j,2.3476849000435323,0.17592329997569323,166.26619260001462,166.26620519999415,None,,,,,,,,,,,,,,00062,001,2026-01-19_17h33.39.502,MST_task,2024.2.0,60.044913587850594,2026-01-19 17h33.48.416740 +0530,
,Objects\125a.jpg,10,0,11,,,,,,,j,1.5991150000481866,0.19250010000541806,None,,,,,,11,0,10,166.28201080003055,,,,,,,,,,,,,,,,,,,,,,,,,,,,,,166.26627590000862,166.28201080003055,166.78228370001307,166.76574810000602,,,,,,,,,,,,,,,,,,,,,,,,,,166.76870110002346,166.78228370001307,166.78228370001307,166.78228370001307,169.78212570003234,169.78212570003234,169.78212570003234,169.76624640001683,j,1.5991150000481866,0.19250010000541806,169.76629290002165,169.76630429999204,None,,,,,,,,,,,,,,00062,001,2026-01-19_17h33.39.502,MST_task,2024.2.0,60.044913587850594,2026-01-19 17h33.48.416740 +0530,
,Objects\130a.jpg,11,0,12,,,,,,,f,1.6587675000191666,0.14505909994477406,None,,,,,,12,0,11,169.78212570003234,,,,,,,,,,,,,,,,,,,,,,,,,,,,,,169.76640359999146,169.78212570003234,170.2824879999971,170.2657192000188,,,,,,,,,,,,,,,,,,,,,,,,,,170.2683970000362,170.2824879999971,170.2824879999971,170.2824879999971,173.28214590001153,173.28214590001153,173.28214590001153,173.26599560002796,f,1.6587675000191666,0.14505909994477406,173.26603880000766,173.26604970003245,None,,,,,,,,,,,,,,00062,001,2026-01-19_17h33.39.502,MST_task,2024.2.0,60.044913587850594,2026-01-19 17h33.48.416740 +0530,
,Objects\008a.jpg,12,0,13,,,,,,,f,1.8789004999562167,0.13646520004840568,None,,,,,,13,0,12,173.28214590001153,,,,,,,,,,,,,,,,,,,,,,,,,,,,,,173.2661161000142,173.28214590001153,173.78238470002543,173.76569129998097,,,,,,,,,,,,,,,,,,,,,,,,,,173.76832959998865,173.78238470002543,173.78238470002543,173.78238470002543,176.78210240002954,176.78210240002954,176.78210240002954,176.7660968999844,f,1.8789004999562167,0.13646520004840568,176.7661399000208,176.76615089998813,None,,,,,,,,,,,,,,00062,001,2026-01-19_17h33.39.502,MST_task,2024.2.0,60.044913587850594,2026-01-19 17h33.48.416740 +0530,
,Objects\140a.jpg,13,0,14,,,,,,,f,0.7553613999625668,0.14395470003364608,None,,,,,,14,0,13,176.78210240002954,,,,,,,,,,,,,,,,,,,,,,,,,,,,,,176.76624840003205,176.78210240002954,177.28237640002044,177.2659466000041,,,,,,,,,,,,,,,,,,,,,,,,,,177.26869360002456,177.28237640002044,177.28237640002044,177.28237640002044,180.28218720003497,180.28218720003497,180.28218720003497,180.26606090000132,f,0.7553613999625668,0.14395470003364608,180.26610370003618,180.26611490000505,None,,,,,,,,,,,,,,00062,001,2026-01-19_17h33.39.502,MST_task,2024.2.0,60.044913587850594,2026-01-19 17h33.48.416740 +0530,
,Scenes\041a.jpg,14,0,15,,,,,,,j,1.3906025000032969,0.1291755000129342,None,,,,,,15,0,14,180.28218720003497,,,,,,,,,,,,,,,,,,,,,,,,,,,,,,180.26618159998907,180.28218720003497,180.7826730000088,180.76576199999545,,,,,,,,,,,,,,,,,,,,,,,,,,180.7771233000094,180.7826730000088,180.7826730000088,180.7826730000088,183.78221680002753,183.78221680002753,183.78221680002753,183.7660526999971,j,1.3906025000032969,0.1291755000129342,183.76770140003646,183.76771919999737,None,,,,,,,,,,,,,,00062,001,2026-01-19_17h33.39.502,MST_task,2024.2.0,60.044913587850594,2026-01-19 17h33.48.416740 +0530,
,Scenes\053a.jpg,15,0,16,,,,,,,j,2.1070711000356823,0.14398439996875823,None,,,,,,16,0,15,183.78221680002753,,,,,,,,,,,,,,,,,,,,,,,,,,,,,,183.7677885000012,183.78221680002753,184.28268060000846,184.26581640000222,,,,,,,,,,,,,,,,,,,,,,,,,,184.26865560002625,184.28268060000846,184.28268060000846,184.28268060000846,187.28215360001195,187.28215360001195,187.28215360001195,187.26601550000487,j,2.1070711000356823,0.14398439996875823,187.2660643000272,187.2660765000037,None,,,,,,,,,,,,,,00062,001,2026-01-19_17h33.39.502,MST_task,2024.2.0,60.044913587850594,2026-01-19 17h33.48.416740 +0530,
,Scenes\110a.jpg,16,0,17,,,,,,,None,,,j,0.06327949999831617,None,,,,17,0,16,187.28215360001195,,,,,,,,,,,,,,,,,,,,,,,,,,,,,,187.2661814999883,187.28215360001195,187.78261160000693,187.76577800000086,,,,,,,,,,,,,,,,,,,,,,,,,,187.7744116000249,187.78261160000693,187.78261160000693,187.78261160000693,190.78215099999215,190.78215099999215,190.78215099999215,190.76585440000053,None,,,190.76589219999732,190.84927830001106,j,190.78215099999215,190.78215099999215,0.06327949999831617,None,,,,,,,,,,00062,001,2026-01-19_17h33.39.502,MST_task,2024.2.0,60.044913587850594,2026-01-19 17h33.48.416740 +0530,
,Scenes\019a.jpg,17,0,18,,,,,,,f,2.4153503000270575,0.12800939998123795,None,,,,,,18,0,17,190.86550160002662,,,,,,,,,,,,,,,,,,,,,,,,,,,,,,190.84941000002436,190.86550160002662,191.36674570001196,191.34926919999998,,,,,,,,,,,,,,,,,,,,,,,,,,191.3576854999992,191.36674570001196,191.36674570001196,191.36674570001196,,,,194.3662124000257,f,2.4153503000270575,0.12800939998123795,194.36625800002366,194.36627120000776,None,,,,,,,,,,,,,,00062,001,2026-01-19_17h33.39.502,MST_task,2024.2.0,60.044913587850594,2026-01-19 17h33.48.416740 +0530,
,Scenes\058a.jpg,18,0,19,,,,,,,f,1.6350574999814853,0.13599360000807792,None,,,,,,19,0,18,194.3820961000165,,,,,,,,,,,,,,,,,,,,,,,,,,,,,,194.36634080001386,194.3820961000165,194.88270220003324,194.86578430002555,,,,,,,,,,,,,,,,,,,,,,,,,,194.87500780000119,194.88270220003324,194.88270220003324,194.88270220003324,197.88212000002386,197.88212000002386,197.88212000002386,197.86642370000482,f,1.6350574999814853,0.13599360000807792,197.86646940000355,197.8664804000291,None,,,,,,,,,,,,,,00062,001,2026-01-19_17h33.39.502,MST_task,2024.2.0,60.044913587850594,2026-01-19 17h33.48.416740 +0530,
,Scenes\159a.jpg,19,0,20,,,,,,,j,1.111174099962227,0.16804670001147315,None,,,,,,20,0,19,197.88212000002386,,,,,,,,,,,,,,,,,,,,,,,,,,,,,,197.86658740002895,197.88212000002386,198.38271939998958,198.36608340003295,,,,,,,,,,,,,,,,,,,,,,,,,,198.37747850001324,198.38271939998958,198.38271939998958,198.38271939998958,201.38219720002962,201.38219720002962,201.38219720002962,201.36615399998846,j,1.111174099962227,0.16804670001147315,201.3661993999849,201.36621050001122,None,,,,,,,,,,,,,,00062,001,2026-01-19_17h33.39.502,MST_task,2024.2.0,60.044913587850594,2026-01-19 17h33.48.416740 +0530,
,Scenes\132a.jpg,20,0,21,,,,,,,j,2.491434300027322,0.14353739999933168,None,,,,,,21,0,20,201.38219720002962,,,,,,,,,,,,,,,,,,,,,,,,,,,,,,201.3663094000076,201.38219720002962,201.88284839998232,201.86581450002268,,,,,,,,,,,,,,,,,,,,,,,,,,201.8717701000278,201.88284839998232,201.88284839998232,201.88284839998232,204.8821982999798,204.8821982999798,204.8821982999798,204.8660416000057,j,2.491434300027322,0.14353739999933168,204.866087900009,204.8660997999832,None,,,,,,,,,,,,,,00062,001,2026-01-19_17h33.39.502,MST_task,2024.2.0,60.044913587850594,2026-01-19 17h33.48.416740 +0530,
,Objects\188a.jpg,21,0,22,,,,,,,f,0.8308659000322223,0.13598819996695966,None,,,,,,22,0,21,204.8821982999798,,,,,,,,,,,,,,,,,,,,,,,,,,,,,,204.86616819998017,204.8821982999798,205.38268410001183,205.36583160003647,,,,,,,,,,,,,,,,,,,,,,,,,,205.37109650002094,205.38268410001183,205.38268410001183,205.38268410001183,208.38202459999593,208.38202459999593,208.38202459999593,208.36601719999453,f,0.8308659000322223,0.13598819996695966,208.36816170002567,208.3681796999881,None,,,,,,,,,,,,,,00062,001,2026-01-19_17h33.39.502,MST_task,2024.2.0,60.044913587850594,2026-01-19 17h33.48.416740 +0530,
,Objects\064a.jpg,22,0,23,,,,,,,f,1.7316604999941774,0.11199940001824871,None,,,,,,23,0,22,208.38202459999593,,,,,,,,,,,,,,,,,,,,,,,,,,,,,,208.36829060001764,208.38202459999593,208.88224350003293,208.86611719999928,,,,,,,,,,,,,,,,,,,,,,,,,,208.8685210000258,208.88224350003293,208.88224350003293,208.88224350003293,211.8820125000202,211.8820125000202,211.8820125000202,211.86633610003628,f,1.7316604999941774,0.11199940001824871,211.86638249998214,211.86639510001987,None,,,,,,,,,,,,,,00062,001,2026-01-19_17h33.39.502,MST_task,2024.2.0,60.044913587850594,2026-01-19 17h33.48.416740 +0530,
,Objects\111a.jpg,23,0,24,,,,,,,f,1.807567099982407,0.1834658000152558,None,,,,,,24,0,23,211.8820125000202,,,,,,,,,,,,,,,,,,,,,,,,,,,,,,211.86650350003038,211.8820125000202,212.38229410001077,212.36570470000152,,,,,,,,,,,,,,,,,,,,,,,,,,212.3684568000026,212.38229410001077,212.38229410001077,212.38229410001077,215.38211260002572,215.38211260002572,215.38211260002572,215.36599000002025,f,1.807567099982407,0.1834658000152558,215.36603650002507,215.36604870000156,None,,,,,,,,,,,,,,00062,001,2026-01-19_17h33.39.502,MST_task,2024.2.0,60.044913587850594,2026-01-19 17h33.48.416740 +0530,
,Objects\167a.jpg,24,0,25,,,,,,,f,1.9797579000005499,0.1679770999471657,None,,,,,,25,0,24,215.38211260002572,,,,,,,,,,,,,,,,,,,,,,,,,,,,,,215.36615499999607,215.38211260002572,215.88229809998302,215.86560950003332,,,,,,,,,,,,,,,,,,,,,,,,,,215.87555480003357,215.88229809998302,215.88229809998302,215.88229809998302,218.88197610003408,218.88197610003408,218.88197610003408,218.8660258000018,f,1.9797579000005499,0.1679770999471657,218.86607119999826,218.86608230002457,None,,,,,,,,,,,,,,00062,001,2026-01-19_17h33.39.502,MST_task,2024.2.0,60.044913587850594,2026-01-19 17h33.48.416740 +0530,
,Objects\144a.jpg,25,0,26,,,,,,,f,1.3672126999590546,0.15264500002376735,None,,,,,,26,0,25,218.88197610003408,,,,,,,,,,,,,,,,,,,,,,,,,,,,,,218.86614980001468,218.88197610003408,219.38239009998506,219.36585719999857,,,,,,,,,,,,,,,,,,,,,,,,,,219.36967640003422,219.38239009998506,219.38239009998506,219.38239009998506,222.38202790002106,222.38202790002106,222.38202790002106,222.36598050000612,f,1.3672126999590546,0.15264500002376735,222.36602620000485,222.3660380000365,None,,,,,,,,,,,,,,00062,001,2026-01-19_17h33.39.502,MST_task,2024.2.0,60.044913587850594,2026-01-19 17h33.48.416740 +0530,
,Objects\005a.jpg,26,0,27,,,,,,,f,1.540230899991002,0.16012529999716207,None,,,,,,27,0,26,222.38202790002106,,,,,,,,,,,,,,,,,,,,,,,,,,,,,,222.36613829998532,222.38202790002106,222.88209020002978,222.8656688000192,,,,,,,,,,,,,,,,,,,,,,,,,,222.86822659999598,222.88209020002978,222.88209020002978,222.88209020002978,225.88193370000226,225.88193370000226,225.88193370000226,225.86622020002687,f,1.540230899991002,0.16012529999716207,225.86626789998263,225.866279400012,None,,,,,,,,,,,,,,00062,001,2026-01-19_17h33.39.502,MST_task,2024.2.0,60.044913587850594,2026-01-19 17h33.48.416740 +0530,
,Objects\129a.jpg,27,0,28,,,,,,,f,2.647850400011521,0.15196789999026805,None,,,,,,28,0,27,225.88193370000226,,,,,,,,,,,,,,,,,,,,,,,,,,,,,,225.86638040002435,225.88193370000226,226.38215550000314,226.36608750000596,,,,,,,,,,,,,,,,,,,,,,,,,,226.36866799998097,226.38215550000314,226.38215550000314,226.38215550000314,229.38201840000693,229.38201840000693,229.38201840000693,229.36655740003334,f,2.647850400011521,0.15196789999026805,229.36660960002337,229.3666213999968,None,,,,,,,,,,,,,,00062,001,2026-01-19_17h33.39.502,MST_task,2024.2.0,60.044913587850594,2026-01-19 17h33.48.416740 +0530,
,Scenes\020a.jpg,28,0,29,,,,,,,f,2.700165200047195,0.15132760000415146,None,,,,,,29,0,28,229.38201840000693,,,,,,,,,,,,,,,,,,,,,,,,,,,,,,229.36672380001983,229.38201840000693,229.8824375999975,229.86570150003536,,,,,,,,,,,,,,,,,,,,,,,,,,229.8802117999876,229.8824375999975,229.8824375999975,229.8824375999975,232.88196680002147,232.88196680002147,232.88196680002147,232.8661293000332,f,2.700165200047195,0.15132760000415146,232.86774930002866,232.86777060001623,None,,,,,,,,,,,,,,00062,001,2026-01-19_17h33.39.502,MST_task,2024.2.0,60.044913587850594,2026-01-19 17h33.48.416740 +0530,
,Scenes\075a.jpg,29,0,30,,,,,,,j,1.3913255000370555,0.20748410001397133,None,,,,,,30,0,29,232.88196680002147,,,,,,,,,,,,,,,,,,,,,,,,,,,,,,232.8679734999896,232.88196680002147,233.38257429999067,233.36595040000975,,,,,,,,,,,,,,,,,,,,,,,,,,233.37309200002346,233.38257429999067,233.38257429999067,233.38257429999067,236.38203590002377,236.38203590002377,236.38203590002377,236.36683569999877,j,1.3913255000370555,0.20748410001397133,236.36687899997924,236.36689030000707,None,,,,,,,,,,,,,,00062,001,2026-01-19_17h33.39.502,MST_task,2024.2.0,60.044913587850594,2026-01-19 17h33.48.416740 +0530,
,Scenes\101a.jpg,30,0,31,,,,,,,j,2.866948999988381,None,None,,,,,,31,0,30,236.38203590002377,,,,,,,,,,,,,,,,,,,,,,,,,,,,,,236.36698599997908,236.38203590002377,236.8823890000349,236.8659010999836,,,,,,,,,,,,,,,,,,,,,,,,,,236.8730603000149,236.8823890000349,236.8823890000349,236.8823890000349,239.88186860003043,239.88186860003043,239.88186860003043,239.86601410002913,j,2.866948999988381,None,239.8660574000096,239.86606869997922,None,,,,,,,,,,,,,,00062,001,2026-01-19_17h33.39.502,MST_task,2024.2.0,60.044913587850594,2026-01-19 17h33.48.416740 +0530,
,Scenes\013a.jpg,31,0,32,,,,,,,j,1.7055383999831975,0.19265009998343885,None,,,,,,32,0,31,239.88186860003043,,,,,,,,,,,,,,,,,,,,,,,,,,,,,,239.86613570002373,239.88186860003043,240.38770110002952,240.3660011999891,,,,,,,,,,,,,,,,,,,,,,,,,,240.38536290003685,240.38770110002952,240.38770110002952,240.38770110002952,,,,243.3664218999911,j,1.7055383999831975,0.19265009998343885,243.36646699998528,243.36647920001997,None,,,,,,,,,,,,,,00062,001,2026-01-19_17h33.39.502,MST_task,2024.2.0,60.044913587850594,2026-01-19 17h33.48.416740 +0530,
,Scenes\189a.jpg,32,0,33,,,,,,,j,1.2916593000409193,0.20800379995489493,None,,,,,,33,0,32,243.38193480001064,,,,,,,,,,,,,,,,,,,,,,,,,,,,,,243.36658010003157,243.38193480001064,243.8824507999816,243.86562619998585,,,,,,,,,,,,,,,,,,,,,,,,,,243.8781197000062,243.8824507999816,243.8824507999816,243.8824507999816,246.88201440003468,246.88201440003468,246.88201440003468,246.8660692999838,j,1.2916593000409193,0.20800379995489493,246.8661283000256,246.8661398999975,None,,,,,,,,,,,,,,00062,001,2026-01-19_17h33.39.502,MST_task,2024.2.0,60.044913587850594,2026-01-19 17h33.48.416740 +0530,
,Scenes\170a.jpg,33,0,34,,,,,,,None,,,j,0.023949399997945875,None,,,,34,0,33,246.88201440003468,,,,,,,,,,,,,,,,,,,,,,,,,,,,,,246.86621529998956,246.88201440003468,,247.36640709999483,,,,,,,,,,,,,,,,,,,,,,,,,,247.37596079998184,247.38234429998556,247.38234429998556,247.38234429998556,,,,250.36618980002822,None,,,250.36623039998813,250.41587969998363,j,250.38194920000387,250.38194920000387,0.023949399997945875,None,,,,,,,,,,00062,001,2026-01-19_17h33.39.502,MST_task,2024.2.0,60.044913587850594,2026-01-19 17h33.48.416740 +0530,
,Scenes\143a.jpg,34,0,35,,,,,,,j,2.6336594999884255,0.12808039999799803,None,,,,,,35,0,34,250.43197059998056,,,,,,,,,,,,,,,,,,,,,,,,,,,,,,250.41596920002485,250.43197059998056,250.93239879998146,250.91567160002887,,,,,,,,,,,,,,,,,,,,,,,,,,250.9243404000299,250.93239879998146,250.93239879998146,250.93239879998146,253.932093099982,253.932093099982,253.932093099982,253.91626100003486,j,2.6336594999884255,0.12808039999799803,253.91630680003436,253.9163186000078,None,,,,,,,,,,,,,,00062,001,2026-01-19_17h33.39.502,MST_task,2024.2.0,60.044913587850594,2026-01-19 17h33.48.416740 +0530,
,Objects\124a.jpg,35,0,36,,,,,,,f,2.332996800018009,0.15200299996649846,None,,,,,,36,0,35,253.932093099982,,,,,,,,,,,,,,,,,,,,,,,,,,,,,,253.9164233999909,253.932093099982,254.43240190000506,254.41579769999953,,,,,,,,,,,,,,,,,,,,,,,,,,254.4217402000213,254.43240190000506,254.43240190000506,254.43240190000506,257.43197560001863,257.43197560001863,257.43197560001863,257.4160586000071,f,2.332996800018009,0.15200299996649846,257.4181198999868,257.41813860001275,None,,,,,,,,,,,,,,00062,001,2026-01-19_17h33.39.502,MST_task,2024.2.0,60.044913587850594,2026-01-19 17h33.48.416740 +0530,
,Objects\165a.jpg,36,0,37,,,,,,,f,1.0737184999743477,0.1839206000440754,None,,,,,,37,0,36,257.43197560001863,,,,,,,,,,,,,,,,,,,,,,,,,,,,,,257.4182407000335,257.43197560001863,257.932261799986,257.9157486000331,,,,,,,,,,,,,,,,,,,,,,,,,,257.91819940001005,257.932261799986,257.932261799986,257.932261799986,260.9319813000038,260.9319813000038,260.9319813000038,260.91596140002366,f,1.0737184999743477,0.1839206000440754,260.91600750002544,260.91601909999736,None,,,,,,,,,,,,,,00062,001,2026-01-19_17h33.39.502,MST_task,2024.2.0,60.044913587850594,2026-01-19 17h33.48.416740 +0530,
,Objects\171a.jpg,37,0,38,,,,,,,None,,,j,0.15796769998269156,None,,,,38,0,37,260.9319813000038,,,,,,,,,,,,,,,,,,,,,,,,,,,,,,260.9161185999983,260.9319813000038,261.43229710002197,261.4157939000288,,,,,,,,,,,,,,,,,,,,,,,,,,261.41865479998523,261.43229710002197,261.43229710002197,261.43229710002197,264.4319979000138,264.4319979000138,264.4319979000138,264.4160069000209,None,,,264.4160508000059,264.5993936000159,j,264.4319979000138,264.4319979000138,0.15796769998269156,None,,,,,,,,,,00062,001,2026-01-19_17h33.39.502,MST_task,2024.2.0,60.044913587850594,2026-01-19 17h33.48.416740 +0530,
,Objects\010a.jpg,38,0,39,,,,,,,f,2.0099977999925613,0.167886900017038,None,,,,,,39,0,38,264.61550690000877,,,,,,,,,,,,,,,,,,,,,,,,,,,,,,264.59951610001735,264.61550690000877,265.11562210001284,265.0990082999924,,,,,,,,,,,,,,,,,,,,,,,,,,265.1088364000316,265.11562210001284,265.11562210001284,265.11562210001284,268.115448400029,268.115448400029,268.115448400029,268.0994206999894,f,2.0099977999925613,0.167886900017038,268.09946950001176,268.0994814999867,None,,,,,,,,,,,,,,00062,001,2026-01-19_17h33.39.502,MST_task,2024.2.0,60.044913587850594,2026-01-19 17h33.48.416740 +0530,
,Objects\033a.jpg,39,0,40,,,,,,,f,0.9256542999646626,0.16858569998294115,None,,,,,,40,0,39,268.115448400029,,,,,,,,,,,,,,,,,,,,,,,,,,,,,,268.0995491000358,268.115448400029,268.6157850000309,268.5991459999932,,,,,,,,,,,,,,,,,,,,,,,,,,268.60224049998214,268.6157850000309,268.6157850000309,268.6157850000309,271.6155453000101,271.6155453000101,271.6155453000101,271.5993998000049,f,0.9256542999646626,0.16858569998294115,271.59944309998536,271.59945450001396,None,,,,,,,,,,,,,,00062,001,2026-01-19_17h33.39.502,MST_task,2024.2.0,60.044913587850594,2026-01-19 17h33.48.416740 +0530,
,Objects\192a.jpg,40,0,41,,,,,,,f,2.1866823000018485,0.1520225999993272,None,,,,,,41,0,40,271.6155453000101,,,,,,,,,,,,,,,,,,,,,,,,,,,,,,271.59952129999874,271.6155453000101,272.11579519999214,272.0990676000365,,,,,,,,,,,,,,,,,,,,,,,,,,272.1084997000289,272.11579519999214,272.11579519999214,272.11579519999214,275.1155598000041,275.1155598000041,275.1155598000041,275.09968350001145,f,2.1866823000018485,0.1520225999993272,275.09973860002356,275.0997500999947,None,,,,,,,,,,,,,,00062,001,2026-01-19_17h33.39.502,MST_task,2024.2.0,60.044913587850594,2026-01-19 17h33.48.416740 +0530,
,Objects\030a.jpg,41,0,42,,,,,,,f,1.5580973000032827,0.11200840002857149,None,,,,,,42,0,41,275.1155598000041,,,,,,,,,,,,,,,,,,,,,,,,,,,,,,275.099819199997,275.1155598000041,275.61570000002393,275.5991612999933,,,,,,,,,,,,,,,,,,,,,,,,,,275.609554500028,275.61570000002393,275.61570000002393,275.61570000002393,278.61556050000945,278.61556050000945,278.61556050000945,278.5994909000001,f,1.5580973000032827,0.11200840002857149,278.5995365999988,278.5995481000282,None,,,,,,,,,,,,,,00062,001,2026-01-19_17h33.39.502,MST_task,2024.2.0,60.044913587850594,2026-01-19 17h33.48.416740 +0530,
,Scenes\091a.jpg,42,0,43,,,,,,,j,1.2259926999686286,0.18386099999770522,None,,,,,,43,0,42,278.61556050000945,,,,,,,,,,,,,,,,,,,,,,,,,,,,,,278.59964600001695,278.61556050000945,279.1159470999846,279.09918000001926,,,,,,,,,,,,,,,,,,,,,,,,,,279.1077781000058,279.1159470999846,279.1159470999846,279.1159470999846,282.1155096000293,282.1155096000293,282.1155096000293,282.0998166000354,j,1.2259926999686286,0.18386099999770522,282.10145499999635,282.10148499999195,None,,,,,,,,,,,,,,00062,001,2026-01-19_17h33.39.502,MST_task,2024.2.0,60.044913587850594,2026-01-19 17h33.48.416740 +0530,
,Scenes\176a.jpg,43,0,44,,,,,,,j,1.1688840000424534,0.16028289997484535,None,,,,,,44,0,43,282.1155096000293,,,,,,,,,,,,,,,,,,,,,,,,,,,,,,282.1015981999808,282.1155096000293,282.62060460000066,282.59924499999033,,,,,,,,,,,,,,,,,,,,,,,,,,282.61818659998244,282.62060460000066,282.62060460000066,282.62060460000066,,,,285.6157974000089,j,1.1688840000424534,0.16028289997484535,285.61585130001185,285.6158645999967,None,,,,,,,,,,,,,,00062,001,2026-01-19_17h33.39.502,MST_task,2024.2.0,60.044913587850594,2026-01-19 17h33.48.416740 +0530,
,Scenes\160a.jpg,44,0,45,,,,,,,j,1.8171598000335507,0.17679260001750663,None,,,,,,45,0,44,285.6320302999811,,,,,,,,,,,,,,,,,,,,,,,,,,,,,,285.6159417000017,285.6320302999811,286.13270270003704,286.11573700001463,,,,,,,,,,,,,,,,,,,,,,,,,,286.12266749999253,286.13270270003704,286.13270270003704,286.13270270003704,289.13194819999626,289.13194819999626,289.13194819999626,289.1162296999828,j,1.8171598000335507,0.17679260001750663,289.1162842999911,289.11629610002274,None,,,,,,,,,,,,,,00062,001,2026-01-19_17h33.39.502,MST_task,2024.2.0,60.044913587850594,2026-01-19 17h33.48.416740 +0530,
,Scenes\035a.jpg,45,0,46,,,,,,,f,2.6295967999612913,0.1433921999996528,None,,,,,,46,0,45,289.13194819999626,,,,,,,,,,,,,,,,,,,,,,,,,,,,,,289.1164036000264,289.13194819999626,289.6325131999911,289.6159629999893,,,,,,,,,,,,,,,,,,,,,,,,,,289.6260531999869,289.6325131999911,289.6325131999911,289.6325131999911,292.6320846999879,292.6320846999879,292.6320846999879,292.6163057999802,f,2.6295967999612913,0.1433921999996528,292.616348200012,292.6163592999801,None,,,,,,,,,,,,,,00062,001,2026-01-19_17h33.39.502,MST_task,2024.2.0,60.044913587850594,2026-01-19 17h33.48.416740 +0530,
,Scenes\103a.jpg,46,0,47,,,,,,,j,1.184697300021071,0.19302290002815425,None,,,,,,47,0,46,292.6320846999879,,,,,,,,,,,,,,,,,,,,,,,,,,,,,,292.61642540001776,292.6320846999879,293.13257200003136,293.11581980000483,,,,,,,,,,,,,,,,,,,,,,,,,,293.125060499995,293.13257200003136,293.13257200003136,293.13257200003136,296.13225329999113,296.13225329999113,296.13225329999113,296.1162054000306,j,1.184697300021071,0.19302290002815425,296.1162480000057,296.11625860002823,None,,,,,,,,,,,,,,00062,001,2026-01-19_17h33.39.502,MST_task,2024.2.0,60.044913587850594,2026-01-19 17h33.48.416740 +0530,
,Scenes\180a.jpg,47,0,48,,,,,,,j,1.6295582999591716,0.14434140000957996,None,,,,,,48,0,47,296.13225329999113,,,,,,,,,,,,,,,,,,,,,,,,,,,,,,296.11635500000557,296.13225329999113,296.63247529999353,296.6159493000014,,,,,,,,,,,,,,,,,,,,,,,,,,296.6235806000186,296.63247529999353,296.63247529999353,296.63247529999353,299.63197099999525,299.63197099999525,299.63197099999525,299.6160488000023,j,1.6295582999591716,0.14434140000957996,299.6160905000288,299.61610199999996,None,,,,,,,,,,,,,,00062,001,2026-01-19_17h33.39.502,MST_task,2024.2.0,60.044913587850594,2026-01-19 17h33.48.416740 +0530,
,Scenes\069a.jpg,48,0,49,,,,,,,j,2.0891657000174746,0.16000729997176677,None,,,,,,49,0,48,299.63197099999525,,,,,,,,,,,,,,,,,,,,,,,,,,,,,,299.61616770003457,299.63197099999525,300.13236940000206,300.11574059998384,,,,,,,,,,,,,,,,,,,,,,,,,,300.1209809000138,300.13236940000206,300.13236940000206,300.13236940000206,303.1319662000169,303.1319662000169,303.1319662000169,303.11606989998836,j,2.0891657000174746,0.16000729997176677,303.1161114000133,303.11612239998067,None,,,,,,,,,,,,,,00062,001,2026-01-19_17h33.39.502,MST_task,2024.2.0,60.044913587850594,2026-01-19 17h33.48.416740 +0530,
,Objects\095a.jpg,49,0,50,,,,,,,f,1.8215172000345774,0.15917719999561086,None,,,,,,50,0,49,303.1319662000169,,,,,,,,,,,,,,,,,,,,,,,,,,,,,,303.1162188000162,303.1319662000169,303.63258390000556,303.615631600027,,,,,,,,,,,,,,,,,,,,,,,,,,303.6212730000261,303.63258390000556,303.63258390000556,303.63258390000556,306.6321449999814,306.6321449999814,306.6321449999814,306.61604510003235,f,1.8215172000345774,0.15917719999561086,306.6182326999842,306.6182522000163,None,,,,,,,,,,,,,,00062,001,2026-01-19_17h33.39.502,MST_task,2024.2.0,60.044913587850594,2026-01-19 17h33.48.416740 +0530,
,Objects\164a.jpg,50,0,51,,,,,,,f,1.1852139999973588,0.15200899995397776,None,,,,,,51,0,50,306.6321449999814,,,,,,,,,,,,,,,,,,,,,,,,,,,,,,306.6183583000093,306.6321449999814,307.13222169998335,307.1156372000114,,,,,,,,,,,,,,,,,,,,,,,,,,307.1184156999807,307.13222169998335,307.13222169998335,307.13222169998335,310.1320443000295,310.1320443000295,310.1320443000295,310.11601589998463,f,1.1852139999973588,0.15200899995397776,310.11606109997956,310.11607230000664,None,,,,,,,,,,,,,,00062,001,2026-01-19_17h33.39.502,MST_task,2024.2.0,60.044913587850594,2026-01-19 17h33.48.416740 +0530,
,Objects\191a.jpg,51,0,52,,,,,,,f,1.2537077000015415,0.1444045000243932,None,,,,,,52,0,51,310.1320443000295,,,,,,,,,,,,,,,,,,,,,,,,,,,,,,310.11618920002365,310.1320443000295,310.63244960003067,310.6160539999837,,,,,,,,,,,,,,,,,,,,,,,,,,310.62563090003096,310.63244960003067,310.63244960003067,310.63244960003067,313.6319743000204,313.6319743000204,313.6319743000204,313.61599459999707,f,1.2537077000015415,0.1444045000243932,313.6160367000266,313.61604789999546,None,,,,,,,,,,,,,,00062,001,2026-01-19_17h33.39.502,MST_task,2024.2.0,60.044913587850594,2026-01-19 17h33.48.416740 +0530,
,Objects\139a.jpg,52,0,53,,,,,,,f,0.9377036999794655,0.16747830004896969,None,,,,,,53,0,52,313.6319743000204,,,,,,,,,,,,,,,,,,,,,,,,,,,,,,313.6161543999915,313.6319743000204,314.1321622999967,314.11581019998994,,,,,,,,,,,,,,,,,,,,,,,,,,314.1185645000078,314.1321622999967,314.1321622999967,314.1321622999967,317.1322014000034,317.1322014000034,317.1322014000034,317.1159334999975,f,0.9377036999794655,0.16747830004896969,317.1159773999825,317.11598890001187,None,,,,,,,,,,,,,,00062,001,2026-01-19_17h33.39.502,MST_task,2024.2.0,60.044913587850594,2026-01-19 17h33.48.416740 +0530,
,Objects\179a.jpg,53,0,54,,,,,,,f,0.9089290000265464,0.16799689998151734,None,,,,,,54,0,53,317.1322014000034,,,,,,,,,,,,,,,,,,,,,,,,,,,,,,317.11605469998904,317.1322014000034,317.632308500004,317.6157311000279,,,,,,,,,,,,,,,,,,,,,,,,,,317.6182720999932,317.632308500004,317.632308500004,317.632308500004,320.6320029000053,320.6320029000053,320.6320029000053,320.61596050002845,f,0.9089290000265464,0.16799689998151734,320.61600340000587,320.61601410002913,None,,,,,,,,,,,,,,00062,001,2026-01-19_17h33.39.502,MST_task,2024.2.0,60.044913587850594,2026-01-19 17h33.48.416740 +0530,
,Objects\055a.jpg,54,0,55,,,,,,,f,2.2255589999840595,0.15199220000067726,None,,,,,,55,0,54,320.6320029000053,,,,,,,,,,,,,,,,,,,,,,,,,,,,,,320.61611619999167,320.6320029000053,321.13241259998176,321.11591749999207,,,,,,,,,,,,,,,,,,,,,,,,,,321.12611160002416,321.13241259998176,321.13241259998176,321.13241259998176,324.1320120000164,324.1320120000164,324.1320120000164,324.11605160002364,f,2.2255589999840595,0.15199220000067726,324.11609890003456,324.1161114000133,None,,,,,,,,,,,,,,00062,001,2026-01-19_17h33.39.502,MST_task,2024.2.0,60.044913587850594,2026-01-19 17h33.48.416740 +0530,
,Objects\077a.jpg,55,0,56,,,,,,,j,1.9178146000485867,0.15909509995253757,None,,,,,,56,0,55,324.1320120000164,,,,,,,,,,,,,,,,,,,,,,,,,,,,,,324.1161781999981,324.1320120000164,324.6323719000211,324.6157119999989,,,,,,,,,,,,,,,,,,,,,,,,,,324.62539240001934,324.6323719000211,324.6323719000211,324.6323719000211,327.6320523000322,327.6320523000322,327.6320523000322,327.616218900017,j,1.9178146000485867,0.15909509995253757,327.61626909999177,327.6162802000181,None,,,,,,,,,,,,,,00062,001,2026-01-19_17h33.39.502,MST_task,2024.2.0,60.044913587850594,2026-01-19 17h33.48.416740 +0530,
,Scenes\174a.jpg,56,0,57,,,,,,,j,1.929705600021407,0.15898409998044372,None,,,,,,57,0,56,327.6320523000322,,,,,,,,,,,,,,,,,,,,,,,,,,,,,,327.6163886000286,327.6320523000322,328.1327406000346,328.1157441000105,,,,,,,,,,,,,,,,,,,,,,,,,,328.1273246000055,328.1327406000346,328.1327406000346,328.1327406000346,331.1319763000356,331.1319763000356,331.1319763000356,331.116083800036,j,1.929705600021407,0.15898409998044372,331.11765750002814,331.1176754999906,None,,,,,,,,,,,,,,00062,001,2026-01-19_17h33.39.502,MST_task,2024.2.0,60.044913587850594,2026-01-19 17h33.48.416740 +0530,
,Scenes\007a.jpg,57,0,58,,,,,,,f,0.9327550000161864,0.128057699999772,None,,,,,,58,0,57,331.1319763000356,,,,,,,,,,,,,,,,,,,,,,,,,,,,,,331.11774489999516,331.1319763000356,331.6324642000254,331.615913000016,,,,,,,,,,,,,,,,,,,,,,,,,,331.629827900033,331.6324642000254,331.6324642000254,331.6324642000254,334.6320136000286,334.6320136000286,334.6320136000286,334.6160324999946,f,0.9327550000161864,0.128057699999772,334.6164809000329,334.6164964000345,None,,,,,,,,,,,,,,00062,001,2026-01-19_17h33.39.502,MST_task,2024.2.0,60.044913587850594,2026-01-19 17h33.48.416740 +0530,
,Scenes\088a.jpg,58,0,59,,,,,,,j,1.4654327999451198,0.15110500005539507,None,,,,,,59,0,58,334.6320136000286,,,,,,,,,,,,,,,,,,,,,,,,,,,,,,334.6165699000121,334.6320136000286,335.13274560001446,335.115733499988,,,,,,,,,,,,,,,,,,,,,,,,,,335.1285093000042,335.13274560001446,335.13274560001446,335.13274560001446,338.13196710002376,338.13196710002376,338.13196710002376,338.11602409998886,j,1.4654327999451198,0.15110500005539507,338.11606810003286,338.116079600004,None,,,,,,,,,,,,,,00062,001,2026-01-19_17h33.39.502,MST_task,2024.2.0,60.044913587850594,2026-01-19 17h33.48.416740 +0530,
,Scenes\105a.jpg,59,0,60,,,,,,,j,2.301044100022409,0.14430889999493957,None,,,,,,60,0,59,338.13196710002376,,,,,,,,,,,,,,,,,,,,,,,,,,,,,,338.1161768999882,338.13196710002376,338.63280249998206,338.6157813000027,,,,,,,,,,,,,,,,,,,,,,,,,,338.62539240001934,338.63280249998206,338.63280249998206,338.63280249998206,341.6319880000083,341.6319880000083,341.6319880000083,341.61599409999326,j,2.301044100022409,0.14430889999493957,341.6160382999806,341.6160499000107,None,,,,,,,,,,,,,,00062,001,2026-01-19_17h33.39.502,MST_task,2024.2.0,60.044913587850594,2026-01-19 17h33.48.416740 +0530,
,Scenes\060a.jpg,60,0,61,,,,,,,j,1.9538636999786831,0.1516323999967426,None,,,,,,61,0,60,341.6319880000083,,,,,,,,,,,,,,,,,,,,,,,,,,,,,,341.6161546999938,341.6319880000083,342.155835499987,342.1157122000004,,,,,,,,,,,,,,,,,,,,,,,,,,342.15335710003274,342.155835499987,342.155835499987,342.155835499987,,,,345.1322048000293,j,1.9538636999786831,0.1516323999967426,345.13224970002193,345.13226129999384,None,,,,,,,,,,,,,,00062,001,2026-01-19_17h33.39.502,MST_task,2024.2.0,60.044913587850594,2026-01-19 17h33.48.416740 +0530,
,Scenes\077a.jpg,61,0,62,,,,,,,j,1.7889158999896608,0.168048000021372,None,,,,,,62,0,61,345.148723100021,,,,,,,,,,,,,,,,,,,,,,,,,,,,,,345.13235989998793,345.148723100021,345.6493733000243,345.6322268000222,,,,,,,,,,,,,,,,,,,,,,,,,,345.63913000002503,345.6493733000243,345.6493733000243,345.6493733000243,348.64879649999784,348.64879649999784,348.64879649999784,348.63274000003,j,1.7889158999896608,0.168048000021372,348.6327910000109,348.63280249998206,None,,,,,,,,,,,,,,00062,001,2026-01-19_17h33.39.502,MST_task,2024.2.0,60.044913587850594,2026-01-19 17h33.48.416740 +0530,
,Scenes\161a.jpg,62,0,63,,,,,,,j,1.119870800001081,0.1602903999737464,None,,,,,,63,0,62,348.64879649999784,,,,,,,,,,,,,,,,,,,,,,,,,,,,,,348.6328741000034,348.64879649999784,349.14937910001026,349.1324575000326,,,,,,,,,,,,,,,,,,,,,,,,,,349.1421840999974,349.14937910001026,349.14937910001026,349.14937910001026,352.1487320000306,352.1487320000306,352.1487320000306,352.1326301000081,j,1.119870800001081,0.1602903999737464,352.132672799984,352.132683600008,None,,,,,,,,,,,,,,00062,001,2026-01-19_17h33.39.502,MST_task,2024.2.0,60.044913587850594,2026-01-19 17h33.48.416740 +0530,
,Objects\004a.jpg,63,0,64,,,,,,,f,2.4919664999470115,0.16159370000241324,None,,,,,,64,0,63,352.1487320000306,,,,,,,,,,,,,,,,,,,,,,,,,,,,,,352.13278109999374,352.1487320000306,352.6493363000336,352.6322900999803,,,,,,,,,,,,,,,,,,,,,,,,,,352.63762210001005,352.6493363000336,352.6493363000336,352.6493363000336,355.64880890003406,355.64880890003406,355.64880890003406,355.63254359998973,f,2.4919664999470115,0.16159370000241324,355.63462140003685,355.6346388999955,None,,,,,,,,,,,,,,00062,001,2026-01-19_17h33.39.502,MST_task,2024.2.0,60.044913587850594,2026-01-19 17h33.48.416740 +0530,
,Objects\183a.jpg,64,0,65,,,,,,,j,1.5047730000223964,0.08800089999567717,None,,,,,,65,0,64,355.64880890003406,,,,,,,,,,,,,,,,,,,,,,,,,,,,,,355.63470699999016,355.64880890003406,356.1490587000153,356.1322402000078,,,,,,,,,,,,,,,,,,,,,,,,,,356.1353076000232,356.1490587000153,356.1490587000153,356.1490587000153,359.14878220000537,359.14878220000537,359.14878220000537,359.13271660002647,j,1.5047730000223964,0.08800089999567717,359.13276190002216,359.13277299999027,None,,,,,,,,,,,,,,00062,001,2026-01-19_17h33.39.502,MST_task,2024.2.0,60.044913587850594,2026-01-19 17h33.48.416740 +0530,
,Objects\048a.jpg,65,0,66,,,,,,,j,1.5486560999997891,0.08005769998999313,None,,,,,,66,0,65,359.14878220000537,,,,,,,,,,,,,,,,,,,,,,,,,,,,,,359.1328802999924,359.14878220000537,359.6490080000367,359.63224970002193,,,,,,,,,,,,,,,,,,,,,,,,,,359.6350489000324,359.6490080000367,359.6490080000367,359.6490080000367,362.64880219998304,362.64880219998304,362.64880219998304,362.6325208999915,j,1.5486560999997891,0.08005769998999313,362.6325628000195,362.6325736999861,None,,,,,,,,,,,,,,00062,001,2026-01-19_17h33.39.502,MST_task,2024.2.0,60.044913587850594,2026-01-19 17h33.48.416740 +0530,
,Objects\020a.jpg,66,0,67,,,,,,,f,1.0490964999771677,0.18445770000107586,None,,,,,,67,0,66,362.64880219998304,,,,,,,,,,,,,,,,,,,,,,,,,,,,,,362.6326399000245,362.64880219998304,363.14903770003,363.13248869997915,,,,,,,,,,,,,,,,,,,,,,,,,,363.1355230000336,363.14903770003,363.14903770003,363.14903770003,366.1488410999882,366.1488410999882,366.1488410999882,366.13270730001386,f,1.0490964999771677,0.18445770000107586,366.13279659999534,366.13280820002547,None,,,,,,,,,,,,,,00062,001,2026-01-19_17h33.39.502,MST_task,2024.2.0,60.044913587850594,2026-01-19 17h33.48.416740 +0530,
,Objects\072a.jpg,67,0,68,,,,,,,None,,,f,0.5246327000204474,None,,,,68,0,67,366.1488410999882,,,,,,,,,,,,,,,,,,,,,,,,,,,,,,366.1329099999857,366.1488410999882,366.6490065000253,366.6325607000035,,,,,,,,,,,,,,,,,,,,,,,,,,366.63547929999186,366.6490065000253,366.6490065000253,366.6490065000253,369.6488362000091,369.6488362000091,369.6488362000091,369.6328659999999,None,,,369.6329064000165,370.1825150999939,f,369.6488362000091,369.6488362000091,0.5246327000204474,None,,,,,,,,,,00062,001,2026-01-19_17h33.39.502,MST_task,2024.2.0,60.044913587850594,2026-01-19 17h33.48.416740 +0530,
,Objects\050a.jpg,68,0,69,,,,,,,f,0.810851999965962,0.17612620000727475,None,,,,,,69,0,68,370.1987353999866,,,,,,,,,,,,,,,,,,,,,,,,,,,,,,370.1826023000176,370.1987353999866,370.6989631000324,370.68224049999844,,,,,,,,,,,,,,,,,,,,,,,,,,370.6848522000364,370.6989631000324,370.6989631000324,370.6989631000324,,,,373.68269350001356,f,0.810851999965962,0.17612620000727475,373.6827359999879,373.6827487000264,None,,,,,,,,,,,,,,00062,001,2026-01-19_17h33.39.502,MST_task,2024.2.0,60.044913587850594,2026-01-19 17h33.48.416740 +0530,
,Objects\058a.jpg,69,0,70,,,,,,,f,2.04675599996699,0.15948969998862594,None,,,,,,70,0,69,373.69880650000414,,,,,,,,,,,,,,,,,,,,,,,,,,,,,,373.68281640001805,373.69880650000414,374.1990944999852,374.1823145999806,,,,,,,,,,,,,,,,,,,,,,,,,,374.19225730001926,374.1990944999852,374.1990944999852,374.1990944999852,377.1988049999927,377.1988049999927,377.1988049999927,377.1825903999852,f,2.04675599996699,0.15948969998862594,377.1826336000231,377.1826446999912,None,,,,,,,,,,,,,,00062,001,2026-01-19_17h33.39.502,MST_task,2024.2.0,60.044913587850594,2026-01-19 17h33.48.416740 +0530,
,Scenes\085a.jpg,70,0,71,,,,,,,j,1.194204700004775,0.11954320000950247,None,,,,,,71,0,70,377.1988049999927,,,,,,,,,,,,,,,,,,,,,,,,,,,,,,377.1827108000289,377.1988049999927,377.6994766999851,377.68229349999456,,,,,,,,,,,,,,,,,,,,,,,,,,377.6947182000149,377.6994766999851,377.6994766999851,377.6994766999851,380.69882069999585,380.69882069999585,380.69882069999585,380.6826967999805,j,1.194204700004775,0.11954320000950247,380.6843459000229,380.6843641999876,None,,,,,,,,,,,,,,00062,001,2026-01-19_17h33.39.502,MST_task,2024.2.0,60.044913587850594,2026-01-19 17h33.48.416740 +0530,
,Scenes\106a.jpg,71,0,72,,,,,,,None,,,j,2.3912750000017695,None,,,,72,0,71,380.69882069999585,,,,,,,,,,,,,,,,,,,,,,,,,,,,,,380.68446890002815,380.69882069999585,381.199061900028,381.1822530000354,,,,,,,,,,,,,,,,,,,,,,,,,,381.19083330000285,381.199061900028,381.199061900028,381.199061900028,384.1988109999802,384.1988109999802,384.1988109999802,384.18274469999596,None,,,384.1827852000133,386.5993224999984,j,384.1988109999802,384.1988109999802,2.3912750000017695,None,,,,,,,,,,00062,001,2026-01-19_17h33.39.502,MST_task,2024.2.0,60.044913587850594,2026-01-19 17h33.48.416740 +0530,
,Scenes\014a.jpg,72,0,73,,,,,,,None,,,j,0.9622771999565884,None,,,,73,0,72,386.6154447000008,,,,,,,,,,,,,,,,,,,,,,,,,,,,,,386.5994531000033,386.6154447000008,387.1160780999926,387.0992335000192,,,,,,,,,,,,,,,,,,,,,,,,,,387.1041089000064,387.1160780999926,387.1160780999926,387.1160780999926,390.1156313000247,390.1156313000247,390.1156313000247,390.0994142999989,None,,,390.0994520999957,391.0825779000297,j,390.1156313000247,390.1156313000247,0.9622771999565884,None,,,,,,,,,,00062,001,2026-01-19_17h33.39.502,MST_task,2024.2.0,60.044913587850594,2026-01-19 17h33.48.416740 +0530,
,Scenes\130a.jpg,73,0,74,,,,,,,None,,,f,2.9659256000304595,None,,,,74,0,73,391.0988446000265,,,,,,,,,,,,,,,,,,,,,,,,,,,,,,391.08266240003286,391.0988446000265,391.60616359999403,391.5824192999862,,,,,,,,,,,,,,,,,,,,,,,,,,391.60371009999653,391.60616359999403,391.60616359999403,391.60616359999403,,,,394.5991812000284,None,,,394.5992522999877,397.58260500000324,f,394.6155691000167,394.6155691000167,2.9659256000304595,None,,,,,,,,,,00062,001,2026-01-19_17h33.39.502,MST_task,2024.2.0,60.044913587850594,2026-01-19 17h33.48.416740 +0530,
,Scenes\043a.jpg,74,0,75,,,,,,,j,1.625667300017085,0.1923823999823071,None,,,,,,75,0,74,397.5990748000331,,,,,,,,,,,,,,,,,,,,,,,,,,,,,,397.5826903000125,397.5990748000331,398.0996446000063,398.08253559999866,,,,,,,,,,,,,,,,,,,,,,,,,,398.09334389999276,398.0996446000063,398.0996446000063,398.0996446000063,401.0989406000008,401.0989406000008,401.0989406000008,401.08270919998176,j,1.625667300017085,0.1923823999823071,401.0827556999866,401.0827668000129,None,,,,,,,,,,,,,,00062,001,2026-01-19_17h33.39.502,MST_task,2024.2.0,60.044913587850594,2026-01-19 17h33.48.416740 +0530,
,Scenes\028a.jpg,75,0,76,,,,,,,None,,,j,0.9035702999681234,None,,,,76,0,75,401.0989406000008,,,,,,,,,,,,,,,,,,,,,,,,,,,,,,401.0828651000047,401.0989406000008,401.59931170003256,401.5825081000221,,,,,,,,,,,,,,,,,,,,,,,,,,401.5918746999814,401.59931170003256,401.59931170003256,401.59931170003256,404.5989051000215,404.5989051000215,404.5989051000215,404.5828247999889,None,,,404.5828625999857,405.51614880003035,j,404.5989051000215,404.5989051000215,0.9035702999681234,None,,,,,,,,,,00062,001,2026-01-19_17h33.39.502,MST_task,2024.2.0,60.044913587850594,2026-01-19 17h33.48.416740 +0530,
,Scenes\114a.jpg,76,0,77,,,,,,,f,1.372603000025265,0.13600030000088736,None,,,,,,77,0,76,405.53226330003235,,,,,,,,,,,,,,,,,,,,,,,,,,,,,,405.5162798999809,405.53226330003235,406.0328334000078,406.0159137999872,,,,,,,,,,,,,,,,,,,,,,,,,,406.02743600000395,406.0328334000078,406.0328334000078,406.0328334000078,409.0321017000242,409.0321017000242,409.0321017000242,409.0165505000041,f,1.372603000025265,0.13600030000088736,409.01660000003176,409.0166120000067,None,,,,,,,,,,,,,,00062,001,2026-01-19_17h33.39.502,MST_task,2024.2.0,60.044913587850594,2026-01-19 17h33.48.416740 +0530,
,Objects\091a.jpg,77,0,78,,,,,,,None,,,f,1.4253596999915317,None,,,,78,0,77,409.0321017000242,,,,,,,,,,,,,,,,,,,,,,,,,,,,,,409.01672910002526,409.0321017000242,409.53258490003645,409.51605670002755,,,,,,,,,,,,,,,,,,,,,,,,,,409.5214376000222,409.53258490003645,409.53258490003645,409.53258490003645,412.5322665999993,412.5322665999993,412.5322665999993,412.51605770003516,None,,,412.5181390999933,413.96628079999937,f,412.5322665999993,412.5322665999993,1.4253596999915317,None,,,,,,,,,,00062,001,2026-01-19_17h33.39.502,MST_task,2024.2.0,60.044913587850594,2026-01-19 17h33.48.416740 +0530,
,Objects\025a.jpg,78,0,79,,,,,,,f,2.2429396000225097,0.1608231000136584,None,,,,,,79,0,78,413.9825417000102,,,,,,,,,,,,,,,,,,,,,,,,,,,,,,413.96642549999524,413.9825417000102,414.48249179997947,414.46583070000634,,,,,,,,,,,,,,,,,,,,,,,,,,414.4687181999907,414.48249179997947,414.48249179997947,414.48249179997947,417.48225770000136,417.48225770000136,417.48225770000136,417.46620999998413,f,2.2429396000225097,0.1608231000136584,417.4662505000015,417.46626200003084,None,,,,,,,,,,,,,,00062,001,2026-01-19_17h33.39.502,MST_task,2024.2.0,60.044913587850594,2026-01-19 17h33.48.416740 +0530,
,Objects\023a.jpg,79,0,80,,,,,,,f,2.959693100012373,None,None,,,,,,80,0,79,417.48225770000136,,,,,,,,,,,,,,,,,,,,,,,,,,,,,,417.4663583000074,417.48225770000136,417.982488300011,417.96587880002335,,,,,,,,,,,,,,,,,,,,,,,,,,417.96898350003175,417.982488300011,417.982488300011,417.982488300011,420.9821680000168,420.9821680000168,420.9821680000168,420.9661786000361,f,2.959693100012373,None,420.96622420003405,420.9662355000037,None,,,,,,,,,,,,,,00062,001,2026-01-19_17h33.39.502,MST_task,2024.2.0,60.044913587850594,2026-01-19 17h33.48.416740 +0530,
,Objects\128a.jpg,80,0,81,,,,,,,f,2.147886599996127,0.12790189997758716,None,,,,,,81,0,80,420.9821680000168,,,,,,,,,,,,,,,,,,,,,,,,,,,,,,420.96629870001925,420.9821680000168,421.4822120000026,421.46600890002446,,,,,,,,,,,,,,,,,,,,,,,,,,421.4686768000247,421.4822120000026,421.4822120000026,421.4822120000026,424.48224859999027,424.48224859999027,424.48224859999027,424.4661682000151,f,2.147886599996127,0.12790189997758716,424.4662094999803,424.46622060000664,None,,,,,,,,,,,,,,00062,001,2026-01-19_17h33.39.502,MST_task,2024.2.0,60.044913587850594,2026-01-19 17h33.48.416740 +0530,
,Objects\057a.jpg,81,0,82,,,,,,,f,1.5756394000491127,0.1522044999874197,None,,,,,,82,0,81,424.48224859999027,,,,,,,,,,,,,,,,,,,,,,,,,,,,,,424.46628579997923,424.48224859999027,424.9822760000243,424.9659371000016,,,,,,,,,,,,,,,,,,,,,,,,,,424.97675430000527,424.9822760000243,424.9822760000243,424.9822760000243,427.98226940003224,427.98226940003224,427.98226940003224,427.96610960003454,f,1.5756394000491127,0.1522044999874197,427.9661519000074,427.966163300036,None,,,,,,,,,,,,,,00062,001,2026-01-19_17h33.39.502,MST_task,2024.2.0,60.044913587850594,2026-01-19 17h33.48.416740 +0530,
,Objects\070a.jpg,82,0,83,,,,,,,f,1.1553233999875374,0.15227120002964512,None,,,,,,83,0,82,427.98226940003224,,,,,,,,,,,,,,,,,,,,,,,,,,,,,,427.9662287000101,427.98226940003224,428.4824975000229,428.4657933000126,,,,,,,,,,,,,,,,,,,,,,,,,,428.46850800001994,428.4824975000229,428.4824975000229,428.4824975000229,431.4820558000356,431.4820558000356,431.4820558000356,431.46621340001,f,1.1553233999875374,0.15227120002964512,431.46626200003084,431.4662731999997,None,,,,,,,,,,,,,,00062,001,2026-01-19_17h33.39.502,MST_task,2024.2.0,60.044913587850594,2026-01-19 17h33.48.416740 +0530,
,Objects\069a.jpg,83,0,84,,,,,,,j,1.1037766999797896,0.17528530000708997,None,,,,,,84,0,83,431.4820558000356,,,,,,,,,,,,,,,,,,,,,,,,,,,,,,431.46634029998677,431.4820558000356,431.982290200016,431.96580429997994,,,,,,,,,,,,,,,,,,,,,,,,,,431.9688123000087,431.982290200016,431.982290200016,431.982290200016,434.9822547999793,434.9822547999793,434.9822547999793,434.96619680000003,j,1.1037766999797896,0.17528530000708997,434.9662394000334,434.9662517000106,None,,,,,,,,,,,,,,00062,001,2026-01-19_17h33.39.502,MST_task,2024.2.0,60.044913587850594,2026-01-19 17h33.48.416740 +0530,
,Scenes\153a.jpg,84,0,85,,,,,,,j,0.7148193999892101,0.18534120003459975,None,,,,,,85,0,84,434.9822547999793,,,,,,,,,,,,,,,,,,,,,,,,,,,,,,434.9663495999994,434.9822547999793,435.4826672000345,435.46583200001623,,,,,,,,,,,,,,,,,,,,,,,,,,435.47385010001017,435.4826672000345,435.4826672000345,435.4826672000345,,,,438.46657170000253,j,0.7148193999892101,0.18534120003459975,438.46835819998523,438.46837650000816,None,,,,,,,,,,,,,,00062,001,2026-01-19_17h33.39.502,MST_task,2024.2.0,60.044913587850594,2026-01-19 17h33.48.416740 +0530,
,Scenes\070a.jpg,85,0,86,,,,,,,None,,,f,0.006375500001013279,None,,,,86,0,85,438.4822522000177,,,,,,,,,,,,,,,,,,,,,,,,,,,,,,438.4684801999829,438.4822522000177,438.98709980002604,438.96589510003105,,,,,,,,,,,,,,,,,,,,,,,,,,438.9846966000041,438.98709980002604,438.98709980002604,438.98709980002604,,,,441.98244270001305,None,,,441.9824811000144,442.0160277999821,f,441.9989473000169,441.9989473000169,0.006375500001013279,None,,,,,,,,,,00062,001,2026-01-19_17h33.39.502,MST_task,2024.2.0,60.044913587850594,2026-01-19 17h33.48.416740 +0530,
,Scenes\186a.jpg,86,0,87,,,,,,,j,1.3456625999533571,0.15940600004978478,None,,,,,,87,0,86,442.032183000003,,,,,,,,,,,,,,,,,,,,,,,,,,,,,,442.0161530000041,442.032183000003,442.5328084999928,442.5158162000007,,,,,,,,,,,,,,,,,,,,,,,,,,442.5225395000307,442.5328084999928,442.5328084999928,442.5328084999928,445.53210369998123,445.53210369998123,445.53210369998123,445.51628380001057,j,1.3456625999533571,0.15940600004978478,445.51633220002986,445.51634470000863,None,,,,,,,,,,,,,,00062,001,2026-01-19_17h33.39.502,MST_task,2024.2.0,60.044913587850594,2026-01-19 17h33.48.416740 +0530,
,Scenes\017a.jpg,87,0,88,,,,,,,f,1.669495900045149,0.1831264999927953,None,,,,,,88,0,87,445.53210369998123,,,,,,,,,,,,,,,,,,,,,,,,,,,,,,445.51641550002387,445.53210369998123,446.03267960000085,446.0157588000293,,,,,,,,,,,,,,,,,,,,,,,,,,446.02571670000907,446.03267960000085,446.03267960000085,446.03267960000085,449.0320008000126,449.0320008000126,449.0320008000126,449.0160811999813,f,1.669495900045149,0.1831264999927953,449.0161353999865,449.0161466000136,None,,,,,,,,,,,,,,00062,001,2026-01-19_17h33.39.502,MST_task,2024.2.0,60.044913587850594,2026-01-19 17h33.48.416740 +0530,
,Scenes\040a.jpg,88,0,89,,,,,,,f,2.4166988999932073,0.12100899999495596,None,,,,,,89,0,88,449.0320008000126,,,,,,,,,,,,,,,,,,,,,,,,,,,,,,449.0162478000275,449.0320008000126,449.5326205000165,449.51572219998343,,,,,,,,,,,,,,,,,,,,,,,,,,449.52546159998747,449.5326205000165,449.5326205000165,449.5326205000165,452.53205939999316,452.53205939999316,452.53205939999316,452.51594519999344,f,2.4166988999932073,0.12100899999495596,452.5159860000131,452.5159969999804,None,,,,,,,,,,,,,,00062,001,2026-01-19_17h33.39.502,MST_task,2024.2.0,60.044913587850594,2026-01-19 17h33.48.416740 +0530,
,Scenes\164a.jpg,89,0,90,,,,,,,j,1.5975162000395358,0.19916749995900318,None,,,,,,90,0,89,452.53205939999316,,,,,,,,,,,,,,,,,,,,,,,,,,,,,,452.5160943000228,452.53205939999316,453.03275850001955,453.0156679000356,,,,,,,,,,,,,,,,,,,,,,,,,,453.02291920001153,453.03275850001955,453.03275850001955,453.03275850001955,456.032070700021,456.032070700021,456.032070700021,456.0162907000049,j,1.5975162000395358,0.19916749995900318,456.0163404000341,456.0163544000243,None,,,,,,,,,,,,,,00062,001,2026-01-19_17h33.39.502,MST_task,2024.2.0,60.044913587850594,2026-01-19 17h33.48.416740 +0530,
,Scenes\078a.jpg,90,0,91,,,,,,,None,,,j,0.2739861999871209,None,,,,91,0,90,456.032070700021,,,,,,,,,,,,,,,,,,,,,,,,,,,,,,456.0164278000011,456.032070700021,456.53251039999304,456.515874899982,,,,,,,,,,,,,,,,,,,,,,,,,,456.52484219998587,456.53251039999304,456.53251039999304,456.53251039999304,459.5320434999885,459.5320434999885,459.5320434999885,459.51605360000394,None,,,459.51609059999464,459.8158859999967,j,459.5320434999885,459.5320434999885,0.2739861999871209,None,,,,,,,,,,00062,001,2026-01-19_17h33.39.502,MST_task,2024.2.0,60.044913587850594,2026-01-19 17h33.48.416740 +0530,
,Objects\052a.jpg,91,0,92,,,,,,,f,1.4333182999980636,0.19998219999251887,None,,,,,,92,0,91,459.8320124000311,,,,,,,,,,,,,,,,,,,,,,,,,,,,,,459.81601180002326,459.8320124000311,460.3324720999808,460.3157991000335,,,,,,,,,,,,,,,,,,,,,,,,,,460.320945399988,460.3324720999808,460.3324720999808,460.3324720999808,463.33203109999886,463.33203109999886,463.33203109999886,463.31612410000525,f,1.4333182999980636,0.19998219999251887,463.31832999998005,463.3183491000091,None,,,,,,,,,,,,,,00062,001,2026-01-19_17h33.39.502,MST_task,2024.2.0,60.044913587850594,2026-01-19 17h33.48.416740 +0530,
,Objects\047a.jpg,92,0,93,,,,,,,f,2.870803400001023,None,None,,,,,,93,0,92,463.33203109999886,,,,,,,,,,,,,,,,,,,,,,,,,,,,,,463.3184179000091,463.33203109999886,463.8322831999976,463.81586179998703,,,,,,,,,,,,,,,,,,,,,,,,,,463.825650600018,463.8322831999976,463.8322831999976,463.8322831999976,466.8319916999899,466.8319916999899,466.8319916999899,466.8160530999885,f,2.870803400001023,None,466.81609510001726,466.8161060999846,None,,,,,,,,,,,,,,00062,001,2026-01-19_17h33.39.502,MST_task,2024.2.0,60.044913587850594,2026-01-19 17h33.48.416740 +0530,
,Objects\168a.jpg,93,0,94,,,,,,,f,1.801085899991449,0.16019730002153665,None,,,,,,94,0,93,466.8319916999899,,,,,,,,,,,,,,,,,,,,,,,,,,,,,,466.8162024000194,466.8319916999899,467.33226170000853,467.3156548999832,,,,,,,,,,,,,,,,,,,,,,,,,,467.31810800003586,467.33226170000853,467.33226170000853,467.33226170000853,470.33201610000106,470.33201610000106,470.33201610000106,470.31593370001065,f,1.801085899991449,0.16019730002153665,470.3159759999835,470.31598750001285,None,,,,,,,,,,,,,,00062,001,2026-01-19_17h33.39.502,MST_task,2024.2.0,60.044913587850594,2026-01-19 17h33.48.416740 +0530,
,Objects\068a.jpg,94,0,95,,,,,,,None,,,f,0.4941918000113219,None,,,,95,0,94,470.33201610000106,,,,,,,,,,,,,,,,,,,,,,,,,,,,,,470.3160864000092,470.33201610000106,470.83241070003714,470.8158412000048,,,,,,,,,,,,,,,,,,,,,,,,,,470.82822010002565,470.83241070003714,470.83241070003714,470.83241070003714,473.83207380003296,473.83207380003296,473.83207380003296,473.8162674999912,None,,,473.81631189998006,474.33247740002116,f,473.83207380003296,473.83207380003296,0.4941918000113219,None,,,,,,,,,,00062,001,2026-01-19_17h33.39.502,MST_task,2024.2.0,60.044913587850594,2026-01-19 17h33.48.416740 +0530,
,Objects\172a.jpg,95,0,96,,,,,,,j,1.6287759999977425,0.1287253000191413,None,,,,,,96,0,95,474.34883849998005,,,,,,,,,,,,,,,,,,,,,,,,,,,,,,474.3325639999821,474.34883849998005,474.8489876000094,474.83228620002046,,,,,,,,,,,,,,,,,,,,,,,,,,474.83466470002895,474.8489876000094,474.8489876000094,474.8489876000094,477.8488264000043,477.8488264000043,477.8488264000043,477.8325396000291,j,1.6287759999977425,0.1287253000191413,477.83258170000045,477.8325937000336,None,,,,,,,,,,,,,,00062,001,2026-01-19_17h33.39.502,MST_task,2024.2.0,60.044913587850594,2026-01-19 17h33.48.416740 +0530,
,Objects\151a.jpg,96,0,97,,,,,,,f,1.9527731999987736,0.13547219999600202,None,,,,,,97,0,96,477.8488264000043,,,,,,,,,,,,,,,,,,,,,,,,,,,,,,477.83268960000714,477.8488264000043,478.34932149999077,478.33247150003444,,,,,,,,,,,,,,,,,,,,,,,,,,478.3352176999906,478.34932149999077,478.34932149999077,478.34932149999077,481.34883199998876,481.34883199998876,481.34883199998876,481.3326537000248,f,1.9527731999987736,0.13547219999600202,481.3326969000045,481.33270820003236,None,,,,,,,,,,,,,,00062,001,2026-01-19_17h33.39.502,MST_task,2024.2.0,60.044913587850594,2026-01-19 17h33.48.416740 +0530,
,Objects\103a.jpg,97,0,98,,,,,,,j,2.180297299986705,0.13659480004571378,None,,,,,,98,0,97,481.34883199998876,,,,,,,,,,,,,,,,,,,,,,,,,,,,,,481.3327740000095,481.34883199998876,481.8491601999849,481.83226840000134,,,,,,,,,,,,,,,,,,,,,,,,,,481.84343910001917,481.8491601999849,481.8491601999849,481.8491601999849,484.84899969998514,484.84899969998514,484.84899969998514,484.8330304999836,j,2.180297299986705,0.13659480004571378,484.83308310003486,484.83309470000677,None,,,,,,,,,,,,,,00062,001,2026-01-19_17h33.39.502,MST_task,2024.2.0,60.044913587850594,2026-01-19 17h33.48.416740 +0530,
,Scenes\084a.jpg,98,0,99,,,,,,,None,,,j,0.6247137999744155,None,,,,99,0,98,484.84899969998514,,,,,,,,,,,,,,,,,,,,,,,,,,,,,,484.8332165000029,484.84899969998514,485.34989200002747,485.33225909998873,,,,,,,,,,,,,,,,,,,,,,,,,,485.34464920003666,485.34989200002747,485.34989200002747,485.34989200002747,488.34881729999324,488.34881729999324,488.34881729999324,488.3327764000278,None,,,488.33440490002977,488.9827168000047,j,488.34881729999324,488.34881729999324,0.6247137999744155,None,,,,,,,,,,00062,001,2026-01-19_17h33.39.502,MST_task,2024.2.0,60.044913587850594,2026-01-19 17h33.48.416740 +0530,
,Scenes\169a.jpg,99,0,100,,,,,,,j,2.850044499966316,None,None,,,,,,100,0,99,488.99875660002,,,,,,,,,,,,,,,,,,,,,,,,,,,,,,488.98284890002105,488.99875660002,489.4993635999854,489.4823698999826,,,,,,,,,,,,,,,,,,,,,,,,,,489.48892540001543,489.4993635999854,489.4993635999854,489.4993635999854,492.49884980003117,492.49884980003117,492.49884980003117,492.48248569999123,j,2.850044499966316,None,492.48252710001543,492.4825402999995,None,,,,,,,,,,,,,,00062,001,2026-01-19_17h33.39.502,MST_task,2024.2.0,60.044913587850594,2026-01-19 17h33.48.416740 +0530,
,Scenes\061a.jpg,100,0,101,,,,,,,j,1.7428955000359565,0.15947589999996126,None,,,,,,101,0,100,492.49884980003117,,,,,,,,,,,,,,,,,,,,,,,,,,,,,,492.48261010000715,492.49884980003117,492.99938880000263,492.9822698000353,,,,,,,,,,,,,,,,,,,,,,,,,,492.98757350002415,492.99938880000263,492.99938880000263,492.99938880000263,495.9988580000354,495.9988580000354,495.9988580000354,495.9827459999942,j,1.7428955000359565,0.15947589999996126,495.98279949999414,495.9828110000235,None,,,,,,,,,,,,,,00062,001,2026-01-19_17h33.39.502,MST_task,2024.2.0,60.044913587850594,2026-01-19 17h33.48.416740 +0530,
,Scenes\087a.jpg,101,0,102,,,,,,,j,1.2026073000160977,0.12799680000171065,None,,,,,,102,0,101,495.9988580000354,,,,,,,,,,,,,,,,,,,,,,,,,,,,,,495.98292570002377,495.9988580000354,496.4993187999935,496.4824011999881,,,,,,,,,,,,,,,,,,,,,,,,,,496.48757200001273,496.4993187999935,496.4993187999935,496.4993187999935,499.4988599999924,499.4988599999924,499.4988599999924,499.48261449998245,j,1.2026073000160977,0.12799680000171065,499.4826553000021,499.48266630002763,None,,,,,,,,,,,,,,00062,001,2026-01-19_17h33.39.502,MST_task,2024.2.0,60.044913587850594,2026-01-19 17h33.48.416740 +0530,
,Scenes\034a.jpg,102,0,103,,,,,,,None,,,j,1.2146120999823324,None,,,,103,0,102,499.4988599999924,,,,,,,,,,,,,,,,,,,,,,,,,,,,,,499.48273170000175,499.4988599999924,499.99945220001973,499.9823415999999,,,,,,,,,,,,,,,,,,,,,,,,,,499.9956752000144,499.99945220001973,499.99945220001973,499.99945220001973,502.99883970001247,502.99883970001247,502.99883970001247,502.982925600023,None,,,502.982965000032,504.2159553000238,j,502.99883970001247,502.99883970001247,1.2146120999823324,None,,,,,,,,,,00062,001,2026-01-19_17h33.39.502,MST_task,2024.2.0,60.044913587850594,2026-01-19 17h33.48.416740 +0530,
,Scenes\192a.jpg,103,0,104,,,,,,,j,2.5863851999747567,0.11092320003081113,None,,,,,,104,0,103,504.2321063000127,,,,,,,,,,,,,,,,,,,,,,,,,,,,,,504.21607309998944,504.2321063000127,504.73285750002833,504.7157480000169,,,,,,,,,,,,,,,,,,,,,,,,,,504.72211590001825,504.73285750002833,504.73285750002833,504.73285750002833,507.7321481999825,507.7321481999825,507.7321481999825,507.7162552999798,j,2.5863851999747567,0.11092320003081113,507.7162976000109,507.71630959998583,None,,,,,,,,,,,,,,00062,001,2026-01-19_17h33.39.502,MST_task,2024.2.0,60.044913587850594,2026-01-19 17h33.48.416740 +0530,
,Scenes\168a.jpg,104,0,105,,,,,,,j,1.181938900030218,0.14352679997682571,None,,,,,,105,0,104,507.7321481999825,,,,,,,,,,,,,,,,,,,,,,,,,,,,,,507.7163803000003,507.7321481999825,508.2325275000185,508.2157777000102,,,,,,,,,,,,,,,,,,,,,,,,,,508.2206775000086,508.2325275000185,508.2325275000185,508.2325275000185,511.23223750002217,511.23223750002217,511.23223750002217,511.2162429000018,j,1.181938900030218,0.14352679997682571,511.21628860000055,511.2162999000284,None,,,,,,,,,,,,,,00062,001,2026-01-19_17h33.39.502,MST_task,2024.2.0,60.044913587850594,2026-01-19 17h33.48.416740 +0530,
,Objects\046a.jpg,105,0,106,,,,,,,None,,,f,1.793745899980422,None,,,,106,0,105,511.23223750002217,,,,,,,,,,,,,,,,,,,,,,,,,,,,,,511.2163687000284,511.23223750002217,511.73263650003355,511.71594349999214,,,,,,,,,,,,,,,,,,,,,,,,,,511.72875579999527,511.73263650003355,511.73263650003355,511.73263650003355,514.7322010000353,514.7322010000353,514.7322010000353,514.7161960999947,None,,,514.7182404000196,516.5326426000101,f,514.7322010000353,514.7322010000353,1.793745899980422,None,,,,,,,,,,00062,001,2026-01-19_17h33.39.502,MST_task,2024.2.0,60.044913587850594,2026-01-19 17h33.48.416740 +0530,
,Objects\104a.jpg,106,0,107,,,,,,,f,0.8122213000315242,0.1606303000007756,None,,,,,,107,0,106,516.5489129000343,,,,,,,,,,,,,,,,,,,,,,,,,,,,,,516.5327313999878,516.5489129000343,517.0491166000138,517.0325207000133,,,,,,,,,,,,,,,,,,,,,,,,,,517.0355945000192,517.0491166000138,517.0491166000138,517.0491166000138,520.0489860000089,520.0489860000089,520.0489860000089,520.0327168999938,f,0.8122213000315242,0.1606303000007756,520.0327595000272,520.0327709999983,None,,,,,,,,,,,,,,00062,001,2026-01-19_17h33.39.502,MST_task,2024.2.0,60.044913587850594,2026-01-19 17h33.48.416740 +0530,
,Objects\137a.jpg,107,0,108,,,,,,,None,,,f,1.5532158999703825,None,,,,108,0,107,520.0489860000089,,,,,,,,,,,,,,,,,,,,,,,,,,,,,,520.0328666000278,520.0489860000089,520.5491962999804,520.5325526000233,,,,,,,,,,,,,,,,,,,,,,,,,,520.5351455000346,520.5491962999804,520.5491962999804,520.5491962999804,523.5489502000273,523.5489502000273,523.5489502000273,523.5330085000023,None,,,523.5330597999855,525.1161904000328,f,523.5489502000273,523.5489502000273,1.5532158999703825,None,,,,,,,,,,00062,001,2026-01-19_17h33.39.502,MST_task,2024.2.0,60.044913587850594,2026-01-19 17h33.48.416740 +0530,
,Objects\173a.jpg,108,0,109,,,,,,,f,1.381050200026948,0.12906219996511936,None,,,,,,109,0,108,525.1322989999899,,,,,,,,,,,,,,,,,,,,,,,,,,,,,,525.1162781000021,525.1322989999899,525.6323780000093,525.6158722999971,,,,,,,,,,,,,,,,,,,,,,,,,,525.6190619000117,525.6323780000093,525.6323780000093,525.6323780000093,528.6324314000085,528.6324314000085,528.6324314000085,528.6162537999917,f,1.381050200026948,0.12906219996511936,528.6163074999931,528.6163198000286,None,,,,,,,,,,,,,,00062,001,2026-01-19_17h33.39.502,MST_task,2024.2.0,60.044913587850594,2026-01-19 17h33.48.416740 +0530,
,Objects\157a.jpg,109,0,110,,,,,,,f,0.7455963999964297,0.1439959999988787,None,,,,,,110,0,109,528.6324314000085,,,,,,,,,,,,,,,,,,,,,,,,,,,,,,528.616419500031,528.6324314000085,529.1325902999961,529.115885599982,,,,,,,,,,,,,,,,,,,,,,,,,,529.1185215000296,529.1325902999961,529.1325902999961,529.1325902999961,532.132194100006,532.132194100006,532.132194100006,532.1161963000195,f,0.7455963999964297,0.1439959999988787,532.1162418000167,532.1162535999902,None,,,,,,,,,,,,,,00062,001,2026-01-19_17h33.39.502,MST_task,2024.2.0,60.044913587850594,2026-01-19 17h33.48.416740 +0530,
,Objects\105a.jpg,110,0,111,,,,,,,f,0.637526499980595,0.13623529998585582,None,,,,,,111,0,110,532.132194100006,,,,,,,,,,,,,,,,,,,,,,,,,,,,,,532.1163509000326,532.132194100006,532.6323076999979,532.6161347000161,,,,,,,,,,,,,,,,,,,,,,,,,,532.6190363999922,532.6323076999979,532.6323076999979,532.6323076999979,535.6322840999928,535.6322840999928,535.6322840999928,535.6161482000025,f,0.637526499980595,0.13623529998585582,535.6161900000297,535.6162007999956,None,,,,,,,,,,,,,,00062,001,2026-01-19_17h33.39.502,MST_task,2024.2.0,60.044913587850594,2026-01-19 17h33.48.416740 +0530,
,Objects\082a.jpg,111,0,112,,,,,,,j,2.825266500003636,None,None,,,,,,112,0,111,535.6322840999928,,,,,,,,,,,,,,,,,,,,,,,,,,,,,,535.616265300021,535.6322840999928,536.1324572000303,536.1160047000158,,,,,,,,,,,,,,,,,,,,,,,,,,536.118812300032,536.1324572000303,536.1324572000303,536.1324572000303,539.1321788000059,539.1321788000059,539.1321788000059,539.1161532999831,j,2.825266500003636,None,539.1162448999821,539.116259100032,None,,,,,,,,,,,,,,00062,001,2026-01-19_17h33.39.502,MST_task,2024.2.0,60.044913587850594,2026-01-19 17h33.48.416740 +0530,
,Scenes\074a.jpg,112,0,113,,,,,,,j,1.952095000015106,0.15991220000432804,None,,,,,,113,0,112,539.1321788000059,,,,,,,,,,,,,,,,,,,,,,,,,,,,,,539.1163651000243,539.1321788000059,539.6379841000307,539.6159216000233,,,,,,,,,,,,,,,,,,,,,,,,,,539.6355374000268,539.6379841000307,539.6379841000307,539.6379841000307,,,,542.6325152000063,j,1.952095000015106,0.15991220000432804,542.6343887000112,542.6344099999988,None,,,,,,,,,,,,,,00062,001,2026-01-19_17h33.39.502,MST_task,2024.2.0,60.044913587850594,2026-01-19 17h33.48.416740 +0530,
,Scenes\155a.jpg,113,0,114,,,,,,,None,,,j,0.00840220000827685,None,,,,114,0,113,542.6490715999971,,,,,,,,,,,,,,,,,,,,,,,,,,,,,,542.6345362000284,542.6490715999971,543.1495552000124,543.1335115000256,,,,,,,,,,,,,,,,,,,,,,,,,,543.1412299000076,543.1495552000124,543.1495552000124,543.1495552000124,546.1489564999938,546.1489564999938,546.1489564999938,546.1329442000133,None,,,546.1329898000113,546.1658265999868,j,546.1489564999938,546.1489564999938,0.00840220000827685,None,,,,,,,,,,00062,001,2026-01-19_17h33.39.502,MST_task,2024.2.0,60.044913587850594,2026-01-19 17h33.48.416740 +0530,
,Scenes\008a.jpg,114,0,115,,,,,,,j,0.9479026000481099,0.13490349997300655,None,,,,,,115,0,114,546.1821451000287,,,,,,,,,,,,,,,,,,,,,,,,,,,,,,546.1659428999992,546.1821451000287,546.682647300011,546.6659537000232,,,,,,,,,,,,,,,,,,,,,,,,,,546.6732712999801,546.682647300011,546.682647300011,546.682647300011,549.6822866000002,549.6822866000002,549.6822866000002,549.6661625999841,j,0.9479026000481099,0.13490349997300655,549.6662023999961,549.6662139000255,None,,,,,,,,,,,,,,00062,001,2026-01-19_17h33.39.502,MST_task,2024.2.0,60.044913587850594,2026-01-19 17h33.48.416740 +0530,
,Scenes\073a.jpg,115,0,116,,,,,,,j,1.5031924999784678,0.12001489999238402,None,,,,,,116,0,115,549.6822866000002,,,,,,,,,,,,,,,,,,,,,,,,,,,,,,549.6662799000042,549.6822866000002,550.1833796999999,550.165922300017,,,,,,,,,,,,,,,,,,,,,,,,,,550.181024599995,550.1833796999999,550.1833796999999,550.1833796999999,,,,553.182432200003,j,1.5031924999784678,0.12001489999238402,553.1824822000344,553.182495200017,None,,,,,,,,,,,,,,00062,001,2026-01-19_17h33.39.502,MST_task,2024.2.0,60.044913587850594,2026-01-19 17h33.48.416740 +0530,
,Scenes\104a.jpg,116,0,117,,,,,,,None,,,j,0.5624892999767326,None,,,,117,0,116,553.1990621000296,,,,,,,,,,,,,,,,,,,,,,,,,,,,,,553.1826064999914,553.1990621000296,553.6995307999896,553.6824784000055,,,,,,,,,,,,,,,,,,,,,,,,,,553.6916570999892,553.6995307999896,553.6995307999896,553.6995307999896,556.6990000000224,556.6990000000224,556.6990000000224,556.6828343999805,None,,,556.6828745999956,557.2660220999969,j,556.6990000000224,556.6990000000224,0.5624892999767326,None,,,,,,,,,,00062,001,2026-01-19_17h33.39.502,MST_task,2024.2.0,60.044913587850594,2026-01-19 17h33.48.416740 +0530,
,Scenes\003a.jpg,117,0,118,,,,,,,f,1.6152061000466347,0.17600219999440014,None,,,,,,118,0,117,557.282285400026,,,,,,,,,,,,,,,,,,,,,,,,,,,,,,557.2661086000153,557.282285400026,557.7825972000137,557.7659047000343,,,,,,,,,,,,,,,,,,,,,,,,,,557.7754363000276,557.7825972000137,557.7825972000137,557.7825972000137,560.782028799993,560.782028799993,560.782028799993,560.7661290999968,f,1.6152061000466347,0.17600219999440014,560.7661785000237,560.7661897999933,None,,,,,,,,,,,,,,00062,001,2026-01-19_17h33.39.502,MST_task,2024.2.0,60.044913587850594,2026-01-19 17h33.48.416740 +0530,
,Scenes\042a.jpg,118,0,119,,,,,,,None,,,j,0.06862699997145683,None,,,,119,0,118,560.782028799993,,,,,,,,,,,,,,,,,,,,,,,,,,,,,,560.7662944000331,560.782028799993,561.2829105000128,561.2657905999804,,,,,,,,,,,,,,,,,,,,,,,,,,561.2728173999931,561.2829105000128,561.2829105000128,561.2829105000128,564.2823498999933,564.2823498999933,564.2823498999933,564.2661787000252,None,,,564.2662176000304,564.3663470000029,j,564.2823498999933,564.2823498999933,0.06862699997145683,None,,,,,,,,,,00062,001,2026-01-19_17h33.39.502,MST_task,2024.2.0,60.044913587850594,2026-01-19 17h33.48.416740 +0530,
,Objects\112a.jpg,119,0,120,,,,,,,f,2.819202800048515,0.12800179998157546,None,,,,,,120,0,119,564.3822972000344,,,,,,,,,,,,,,,,,,,,,,,,,,,,,,564.366434000025,564.3822972000344,564.882798400009,564.8658332999912,,,,,,,,,,,,,,,,,,,,,,,,,,564.871503100032,564.882798400009,564.882798400009,564.882798400009,567.8823997,567.8823997,567.8823997,567.8662612999906,f,2.819202800048515,0.12800179998157546,567.8683659000089,567.8683883000049,None,,,,,,,,,,,,,,00062,001,2026-01-19_17h33.39.502,MST_task,2024.2.0,60.044913587850594,2026-01-19 17h33.48.416740 +0530,
,Objects\113a.jpg,120,0,121,,,,,,,f,0.9033182999701239,0.11212150001665577,None,,,,,,121,0,120,567.8823997,,,,,,,,,,,,,,,,,,,,,,,,,,,,,,567.8684705999913,567.8823997,568.3823666999815,568.366897800006,,,,,,,,,,,,,,,,,,,,,,,,,,568.3764549000189,568.3823666999815,568.3823666999815,568.3823666999815,571.3822145999875,571.3822145999875,571.3822145999875,571.3660858999938,f,0.9033182999701239,0.11212150001665577,571.3661308999872,571.3661425000173,None,,,,,,,,,,,,,,00062,001,2026-01-19_17h33.39.502,MST_task,2024.2.0,60.044913587850594,2026-01-19 17h33.48.416740 +0530,
,Objects\162a.jpg,121,0,122,,,,,,,None,,,f,0.6113435999723151,None,,,,122,0,121,571.3822145999875,,,,,,,,,,,,,,,,,,,,,,,,,,,,,,571.3662076999899,571.3822145999875,571.8823694000021,571.8658480999875,,,,,,,,,,,,,,,,,,,,,,,,,,571.8685323999962,571.8823694000021,571.8823694000021,571.8823694000021,574.8824242000119,574.8824242000119,574.8824242000119,574.8659991000313,None,,,574.8660387999844,575.4993075000239,f,574.8824242000119,574.8824242000119,0.6113435999723151,None,,,,,,,,,,00062,001,2026-01-19_17h33.39.502,MST_task,2024.2.0,60.044913587850594,2026-01-19 17h33.48.416740 +0530,
,Objects\133a.jpg,122,0,123,,,,,,,j,1.7659709000145085,0.12098329997388646,None,,,,,,123,0,122,575.5155252999975,,,,,,,,,,,,,,,,,,,,,,,,,,,,,,575.4993941999855,575.5155252999975,576.0157339000143,575.9990639000316,,,,,,,,,,,,,,,,,,,,,,,,,,576.002037600032,576.0157339000143,576.0157339000143,576.0157339000143,579.0154627999873,579.0154627999873,579.0154627999873,578.9994128000108,j,1.7659709000145085,0.12098329997388646,578.9994552999851,578.9994663000107,None,,,,,,,,,,,,,,00062,001,2026-01-19_17h33.39.502,MST_task,2024.2.0,60.044913587850594,2026-01-19 17h33.48.416740 +0530,
,Objects\039a.jpg,123,0,124,,,,,,,f,2.4099846000317484,0.13599769998108968,None,,,,,,124,0,123,579.0154627999873,,,,,,,,,,,,,,,,,,,,,,,,,,,,,,578.999531599984,579.0154627999873,579.5157089999993,579.499035899993,,,,,,,,,,,,,,,,,,,,,,,,,,579.5088818999939,579.5157089999993,579.5157089999993,579.5157089999993,582.5155313999858,582.5155313999858,582.5155313999858,582.4993208000087,f,2.4099846000317484,0.13599769998108968,582.4993641999899,582.4993757000193,None,,,,,,,,,,,,,,00062,001,2026-01-19_17h33.39.502,MST_task,2024.2.0,60.044913587850594,2026-01-19 17h33.48.416740 +0530,
,Objects\093a.jpg,124,0,125,,,,,,,None,,,j,1.519623700005468,None,,,,125,0,124,582.5155313999858,,,,,,,,,,,,,,,,,,,,,,,,,,,,,,582.4994733000058,582.5155313999858,583.0157149999868,582.9990922000143,,,,,,,,,,,,,,,,,,,,,,,,,,583.0017387000262,583.0157149999868,583.0157149999868,583.0157149999868,586.01555250003,586.01555250003,586.01555250003,585.9995070000296,None,,,585.9995475999895,587.5493196999887,j,586.01555250003,586.01555250003,1.519623700005468,None,,,,,,,,,,00062,001,2026-01-19_17h33.39.502,MST_task,2024.2.0,60.044913587850594,2026-01-19 17h33.48.416740 +0530,
,Objects\107a.jpg,125,0,126,,,,,,,j,2.0519884999957867,0.09663530002580956,None,,,,,,126,0,125,587.565503299993,,,,,,,,,,,,,,,,,,,,,,,,,,,,,,587.5494060000055,587.565503299993,588.0657163999858,588.0491030000267,,,,,,,,,,,,,,,,,,,,,,,,,,588.0520034999936,588.0657163999858,588.0657163999858,588.0657163999858,591.0654776000301,591.0654776000301,591.0654776000301,591.049474200001,j,2.0519884999957867,0.09663530002580956,591.0495178999845,591.04952890001,None,,,,,,,,,,,,,,00062,001,2026-01-19_17h33.39.502,MST_task,2024.2.0,60.044913587850594,2026-01-19 17h33.48.416740 +0530,
,Scenes\172a.jpg,126,0,127,,,,,,,j,1.2452504000393674,0.11201639997307211,None,,,,,,127,0,126,591.0654776000301,,,,,,,,,,,,,,,,,,,,,,,,,,,,,,591.0496319999802,591.0654776000301,591.5685540999984,591.5490801000269,,,,,,,,,,,,,,,,,,,,,,,,,,591.5658961000154,591.5685540999984,591.5685540999984,591.5685540999984,,,,594.5657157999813,j,1.2452504000393674,0.11201639997307211,594.567342400027,594.5673601999879,None,,,,,,,,,,,,,,00062,001,2026-01-19_17h33.39.502,MST_task,2024.2.0,60.044913587850594,2026-01-19 17h33.48.416740 +0530,
,Scenes\010a.jpg,127,0,128,,,,,,,j,0.9787666000192985,0.13637319998815656,None,,,,,,128,0,127,594.5819944000104,,,,,,,,,,,,,,,,,,,,,,,,,,,,,,594.5674299999955,594.5819944000104,595.0826685000211,595.066082400037,,,,,,,,,,,,,,,,,,,,,,,,,,595.0767798000015,595.0826685000211,595.0826685000211,595.0826685000211,598.0820687999949,598.0820687999949,598.0820687999949,598.0662649000296,j,0.9787666000192985,0.13637319998815656,598.0663126999862,598.0663246000186,None,,,,,,,,,,,,,,00062,001,2026-01-19_17h33.39.502,MST_task,2024.2.0,60.044913587850594,2026-01-19 17h33.48.416740 +0530,
,Scenes\117a.jpg,128,0,129,,,,,,,j,2.0546775000402704,0.09589299996150658,None,,,,,,129,0,128,598.0820687999949,,,,,,,,,,,,,,,,,,,,,,,,,,,,,,598.0664392000181,598.0820687999949,598.5827675000182,598.5658124000183,,,,,,,,,,,,,,,,,,,,,,,,,,598.5714405000326,598.5827675000182,598.5827675000182,598.5827675000182,601.5820718000177,601.5820718000177,601.5820718000177,601.5660412000143,j,2.0546775000402704,0.09589299996150658,601.5660835999879,601.5660947000142,None,,,,,,,,,,,,,,00062,001,2026-01-19_17h33.39.502,MST_task,2024.2.0,60.044913587850594,2026-01-19 17h33.48.416740 +0530,
,Scenes\120a.jpg,129,0,130,,,,,,,j,2.7677560999873094,0.08799450000515208,None,,,,,,130,0,129,601.5820718000177,,,,,,,,,,,,,,,,,,,,,,,,,,,,,,601.5661933000083,601.5820718000177,602.085698299983,602.0657786999946,,,,,,,,,,,,,,,,,,,,,,,,,,602.0830896000261,602.085698299983,602.085698299983,602.085698299983,,,,605.0824104000349,j,2.7677560999873094,0.08799450000515208,605.0824888999923,605.0825025999802,None,,,,,,,,,,,,,,00062,001,2026-01-19_17h33.39.502,MST_task,2024.2.0,60.044913587850594,2026-01-19 17h33.48.416740 +0530,
,Scenes\166a.jpg,130,0,131,,,,,,,None,,,j,0.22318329999689013,None,,,,131,0,130,605.0988193000085,,,,,,,,,,,,,,,,,,,,,,,,,,,,,,605.0826054000063,605.0988193000085,605.599486400024,605.5824537000153,,,,,,,,,,,,,,,,,,,,,,,,,,605.5876708999858,605.599486400024,605.599486400024,605.599486400024,608.5988784999936,608.5988784999936,608.5988784999936,608.5830629999982,None,,,608.5831030000118,608.832463800034,j,608.5988784999936,608.5988784999936,0.22318329999689013,None,,,,,,,,,,00062,001,2026-01-19_17h33.39.502,MST_task,2024.2.0,60.044913587850594,2026-01-19 17h33.48.416740 +0530,
,Scenes\083a.jpg,131,0,132,,,,,,,j,2.6164567000232637,0.13679979997687042,None,,,,,,132,0,131,608.8488574000075,,,,,,,,,,,,,,,,,,,,,,,,,,,,,,608.8325578999938,608.8488574000075,609.349461100006,609.3323521999991,,,,,,,,,,,,,,,,,,,,,,,,,,609.340236900025,609.349461100006,609.349461100006,609.349461100006,612.3489118000143,612.3489118000143,612.3489118000143,612.3329499000101,j,2.6164567000232637,0.13679979997687042,612.3330015999964,612.3330136000295,None,,,,,,,,,,,,,,00062,001,2026-01-19_17h33.39.502,MST_task,2024.2.0,60.044913587850594,2026-01-19 17h33.48.416740 +0530,
,Scenes\029a.jpg,132,0,133,,,,,,,j,1.1564361000200734,0.08799979998730123,None,,,,,,133,0,132,612.3489118000143,,,,,,,,,,,,,,,,,,,,,,,,,,,,,,612.3331357000279,612.3489118000143,612.8491902999813,612.832446400018,,,,,,,,,,,,,,,,,,,,,,,,,,612.8421737999888,612.8491902999813,612.8491902999813,612.8491902999813,615.848884200037,615.848884200037,615.848884200037,615.8327047000057,j,1.1564361000200734,0.08799979998730123,615.8327476999839,615.8327590000117,None,,,,,,,,,,,,,,00062,001,2026-01-19_17h33.39.502,MST_task,2024.2.0,60.044913587850594,2026-01-19 17h33.48.416740 +0530,
,Objects\127a.jpg,133,0,134,,,,,,,f,1.5841619000420906,0.16103299998212606,None,,,,,,134,0,133,615.848884200037,,,,,,,,,,,,,,,,,,,,,,,,,,,,,,615.8328594000195,615.848884200037,616.34938650002,616.3323852000176,,,,,,,,,,,,,,,,,,,,,,,,,,616.3376491999952,616.34938650002,616.34938650002,616.34938650002,619.3488242999883,619.3488242999883,619.3488242999883,619.3327047000057,f,1.5841619000420906,0.16103299998212606,619.334808900021,619.334827099985,None,,,,,,,,,,,,,,00062,001,2026-01-19_17h33.39.502,MST_task,2024.2.0,60.044913587850594,2026-01-19 17h33.48.416740 +0530,
,Objects\036a.jpg,134,0,135,,,,,,,f,0.8692987999529578,0.14329780003754422,None,,,,,,135,0,134,619.3488242999883,,,,,,,,,,,,,,,,,,,,,,,,,,,,,,619.3348992000101,619.3488242999883,619.8490444000345,619.8324539000168,,,,,,,,,,,,,,,,,,,,,,,,,,619.8352514000144,619.8490444000345,619.8490444000345,619.8490444000345,622.8488074000343,622.8488074000343,622.8488074000343,622.8326357000042,f,0.8692987999529578,0.14329780003754422,622.8326770000276,622.8326881999965,None,,,,,,,,,,,,,,00062,001,2026-01-19_17h33.39.502,MST_task,2024.2.0,60.044913587850594,2026-01-19 17h33.48.416740 +0530,
,Objects\106a.jpg,135,0,136,,,,,,,f,0.9208134000073187,0.16828470001928508,None,,,,,,136,0,135,622.8488074000343,,,,,,,,,,,,,,,,,,,,,,,,,,,,,,622.8327548999805,622.8488074000343,623.3491094000055,623.3324851000216,,,,,,,,,,,,,,,,,,,,,,,,,,623.3348597000004,623.3491094000055,623.3491094000055,623.3491094000055,626.3488843999803,626.3488843999803,626.3488843999803,626.332619599998,f,0.9208134000073187,0.16828470001928508,626.3326618000283,626.3326726999949,None,,,,,,,,,,,,,,00062,001,2026-01-19_17h33.39.502,MST_task,2024.2.0,60.044913587850594,2026-01-19 17h33.48.416740 +0530,
,Objects\018a.jpg,136,0,137,,,,,,,f,1.1487325999769382,0.15296450001187623,None,,,,,,137,0,136,626.3488843999803,,,,,,,,,,,,,,,,,,,,,,,,,,,,,,626.332772099995,626.3488843999803,626.8491487000138,626.8323900999967,,,,,,,,,,,,,,,,,,,,,,,,,,626.8352184999967,626.8491487000138,626.8491487000138,626.8491487000138,629.8490577000193,629.8490577000193,629.8490577000193,629.8337166000274,f,1.1487325999769382,0.15296450001187623,629.833758599998,629.8337699000258,None,,,,,,,,,,,,,,00062,001,2026-01-19_17h33.39.502,MST_task,2024.2.0,60.044913587850594,2026-01-19 17h33.48.416740 +0530,
,Objects\019a.jpg,137,0,138,,,,,,,f,1.2017879000050016,0.1669860000256449,None,,,,,,138,0,137,629.8490577000193,,,,,,,,,,,,,,,,,,,,,,,,,,,,,,629.8338369000121,629.8490577000193,630.3492126000347,630.3326738000032,,,,,,,,,,,,,,,,,,,,,,,,,,630.3432386000059,630.3492126000347,630.3492126000347,630.3492126000347,633.3489233999862,633.3489233999862,633.3489233999862,633.3325909000123,f,1.2017879000050016,0.1669860000256449,633.3326343999943,633.3326459000236,None,,,,,,,,,,,,,,00062,001,2026-01-19_17h33.39.502,MST_task,2024.2.0,60.044913587850594,2026-01-19 17h33.48.416740 +0530,
,Objects\155a.jpg,138,0,139,,,,,,,f,0.8441869999514893,0.11998940003104508,None,,,,,,139,0,138,633.3489233999862,,,,,,,,,,,,,,,,,,,,,,,,,,,,,,633.3327134000137,633.3489233999862,633.8491836999892,633.8326393000316,,,,,,,,,,,,,,,,,,,,,,,,,,633.8351343999966,633.8491836999892,633.8491836999892,633.8491836999892,636.8489667000249,636.8489667000249,636.8489667000249,636.8329035000061,f,0.8441869999514893,0.11998940003104508,636.8329464999842,636.8329579000128,None,,,,,,,,,,,,,,00062,001,2026-01-19_17h33.39.502,MST_task,2024.2.0,60.044913587850594,2026-01-19 17h33.48.416740 +0530,
,Objects\152a.jpg,139,0,140,,,,,,,None,,,f,0.16092039999784902,None,,,,140,0,139,636.8489667000249,,,,,,,,,,,,,,,,,,,,,,,,,,,,,,636.8330540999887,636.8489667000249,637.3492213999853,637.3325187999872,,,,,,,,,,,,,,,,,,,,,,,,,,637.3425976000144,637.3492213999853,637.3492213999853,637.3492213999853,640.3489191000117,640.3489191000117,640.3489191000117,640.3329419000074,None,,,640.3329792000004,640.5160594999907,f,640.3489191000117,640.3489191000117,0.16092039999784902,None,,,,,,,,,,00062,001,2026-01-19_17h33.39.502,MST_task,2024.2.0,60.044913587850594,2026-01-19 17h33.48.416740 +0530,
,Scenes\173a.jpg,140,0,141,,,,,,,j,2.349341200024355,0.16800040000816807,None,,,,,,141,0,140,640.5320318000158,,,,,,,,,,,,,,,,,,,,,,,,,,,,,,640.516189099988,640.5320318000158,641.0328446000349,641.0158440999803,,,,,,,,,,,,,,,,,,,,,,,,,,641.0247677000007,641.0328446000349,641.0328446000349,641.0328446000349,644.0322639999795,644.0322639999795,644.0322639999795,644.0165130000096,j,2.349341200024355,0.16800040000816807,644.0181312999921,644.0181487000082,None,,,,,,,,,,,,,,00062,001,2026-01-19_17h33.39.502,MST_task,2024.2.0,60.044913587850594,2026-01-19 17h33.48.416740 +0530,
,Scenes\179a.jpg,141,0,142,,,,,,,None,,,j,1.6095320000313222,None,,,,142,0,141,644.0322639999795,,,,,,,,,,,,,,,,,,,,,,,,,,,,,,644.0182276000269,644.0322639999795,644.5327798000071,644.5158810000285,,,,,,,,,,,,,,,,,,,,,,,,,,644.5218119000201,644.5327798000071,644.5327798000071,644.5327798000071,647.5322872999823,647.5322872999823,647.5322872999823,647.5160814999836,None,,,647.516120699991,649.1495689000003,j,647.5322872999823,647.5322872999823,1.6095320000313222,None,,,,,,,,,,00062,001,2026-01-19_17h33.39.502,MST_task,2024.2.0,60.044913587850594,2026-01-19 17h33.48.416740 +0530,
,Scenes\055a.jpg,142,0,143,,,,,,,j,2.0673946000169963,0.15954019996570423,None,,,,,,143,0,142,649.16566410003,,,,,,,,,,,,,,,,,,,,,,,,,,,,,,649.1496556000202,649.16566410003,649.666532800009,649.6492344000144,,,,,,,,,,,,,,,,,,,,,,,,,,649.6576001000358,649.666532800009,649.666532800009,649.666532800009,652.6655834999983,652.6655834999983,652.6655834999983,652.6496675999952,j,2.0673946000169963,0.15954019996570423,652.6497167000198,652.6497282999917,None,,,,,,,,,,,,,,00062,001,2026-01-19_17h33.39.502,MST_task,2024.2.0,60.044913587850594,2026-01-19 17h33.48.416740 +0530,
,Scenes\067a.jpg,143,0,144,,,,,,,None,,,j,1.8636708999983966,None,,,,144,0,143,652.6655834999983,,,,,,,,,,,,,,,,,,,,,,,,,,,,,,652.6497988000046,652.6655834999983,653.1684271999984,653.1492116000154,,,,,,,,,,,,,,,,,,,,,,,,,,653.1661164999823,653.1684271999984,653.1684271999984,653.1684271999984,,,,656.1659458000213,None,,,656.1659856000333,658.0494942999794,j,656.1823236999917,656.1823236999917,1.8636708999983966,None,,,,,,,,,,00062,001,2026-01-19_17h33.39.502,MST_task,2024.2.0,60.044913587850594,2026-01-19 17h33.48.416740 +0530,
,Scenes\011a.jpg,144,0,145,,,,,,,None,,,j,1.664777000027243,None,,,,145,0,144,658.0655715999892,,,,,,,,,,,,,,,,,,,,,,,,,,,,,,658.0496270000003,658.0655715999892,658.5662126999814,658.5491246000165,,,,,,,,,,,,,,,,,,,,,,,,,,658.5600537999999,658.5662126999814,658.5662126999814,658.5662126999814,661.5655791999889,661.5655791999889,661.5655791999889,661.5494339999859,None,,,661.5494713000371,663.2325575000141,j,661.5655791999889,661.5655791999889,1.664777000027243,None,,,,,,,,,,00062,001,2026-01-19_17h33.39.502,MST_task,2024.2.0,60.044913587850594,2026-01-19 17h33.48.416740 +0530,
,Scenes\138a.jpg,145,0,146,,,,,,,j,0.8396276999847032,0.14371809997828677,None,,,,,,146,0,145,663.2488770000055,,,,,,,,,,,,,,,,,,,,,,,,,,,,,,663.2326833999832,663.2488770000055,663.7502195999841,663.7324040000094,,,,,,,,,,,,,,,,,,,,,,,,,,663.7475435999804,663.7502195999841,663.7502195999841,663.7502195999841,,,,666.7490728999837,j,0.8396276999847032,0.14371809997828677,666.7491142000072,666.7491268999875,None,,,,,,,,,,,,,,00062,001,2026-01-19_17h33.39.502,MST_task,2024.2.0,60.044913587850594,2026-01-19 17h33.48.416740 +0530,
,Scenes\146a.jpg,146,0,147,,,,,,,j,1.7473083999939263,0.14396680000936612,None,,,,,,147,0,146,666.7655432000174,,,,,,,,,,,,,,,,,,,,,,,,,,,,,,666.7492262999876,666.7655432000174,667.2661136999959,667.2491360999993,,,,,,,,,,,,,,,,,,,,,,,,,,667.258707800007,667.2661136999959,667.2661136999959,667.2661136999959,670.2655700999894,670.2655700999894,670.2655700999894,670.2495951000019,j,1.7473083999939263,0.14396680000936612,670.2496417000075,670.2496539999847,None,,,,,,,,,,,,,,00062,001,2026-01-19_17h33.39.502,MST_task,2024.2.0,60.044913587850594,2026-01-19 17h33.48.416740 +0530,
,Objects\190a.jpg,147,0,148,,,,,,,f,1.32836700003827,0.15199399995617568,None,,,,,,148,0,147,670.2655700999894,,,,,,,,,,,,,,,,,,,,,,,,,,,,,,670.2497611999861,670.2655700999894,670.7660510999849,670.7490640000324,,,,,,,,,,,,,,,,,,,,,,,,,,670.7538451,670.7660510999849,670.7660510999849,670.7660510999849,673.7655722000054,673.7655722000054,673.7655722000054,673.7495022999938,f,1.32836700003827,0.15199399995617568,673.7518781999825,673.7518958,None,,,,,,,,,,,,,,00062,001,2026-01-19_17h33.39.502,MST_task,2024.2.0,60.044913587850594,2026-01-19 17h33.48.416740 +0530,
,Objects\175a.jpg,148,0,149,,,,,,,f,0.739545599964913,0.12804550002329051,None,,,,,,149,0,148,673.7655722000054,,,,,,,,,,,,,,,,,,,,,,,,,,,,,,673.7519653000054,673.7655722000054,674.2658481000108,674.2491693000193,,,,,,,,,,,,,,,,,,,,,,,,,,674.2518194000004,674.2658481000108,674.2658481000108,674.2658481000108,677.2654984000255,677.2654984000255,677.2654984000255,677.249446300033,f,0.739545599964913,0.12804550002329051,677.2494871999952,677.249497700017,None,,,,,,,,,,,,,,00062,001,2026-01-19_17h33.39.502,MST_task,2024.2.0,60.044913587850594,2026-01-19 17h33.48.416740 +0530,
,Objects\141a.jpg,149,0,150,,,,,,,None,,,j,None,None,,,,150,0,149,677.2654984000255,,,,,,,,,,,,,,,,,,,,,,,,,,,,,,677.2495629999903,677.2654984000255,677.7658939000103,677.7491898000007,,,,,,,,,,,,,,,,,,,,,,,,,,677.7593144000275,677.7658939000103,677.7658939000103,677.7658939000103,680.7655620999867,680.7655620999867,680.7655620999867,680.7495154000353,None,,,680.7495599000249,680.9493232999812,j,680.7655620999867,680.7655620999867,None,None,,,,,,,,,,00062,001,2026-01-19_17h33.39.502,MST_task,2024.2.0,60.044913587850594,2026-01-19 17h33.48.416740 +0530,
,Objects\084a.jpg,150,0,151,,,,,,,f,1.3881702000508085,0.13551989995175973,None,,,,,,151,0,150,680.9655644000159,,,,,,,,,,,,,,,,,,,,,,,,,,,,,,680.9494125000201,680.9655644000159,681.4658827999956,681.4491249999846,,,,,,,,,,,,,,,,,,,,,,,,,,681.4587013000273,681.4658827999956,681.4658827999956,681.4658827999956,684.4655287000351,684.4655287000351,684.4655287000351,684.4494772999897,f,1.3881702000508085,0.13551989995175973,684.449519900023,684.4495312999934,None,,,,,,,,,,,,,,00062,001,2026-01-19_17h33.39.502,MST_task,2024.2.0,60.044913587850594,2026-01-19 17h33.48.416740 +0530,
,Objects\080a.jpg,151,0,152,,,,,,,f,0.9368344999966212,0.12798220000695437,None,,,,,,152,0,151,684.4655287000351,,,,,,,,,,,,,,,,,,,,,,,,,,,,,,684.4496317000012,684.4655287000351,684.9657842000015,684.949119500001,,,,,,,,,,,,,,,,,,,,,,,,,,684.95170710003,684.9657842000015,684.9657842000015,684.9657842000015,687.9655524999835,687.9655524999835,687.9655524999835,687.9495289000333,f,0.9368344999966212,0.12798220000695437,687.9495731000206,687.9495839999872,None,,,,,,,,,,,,,,00062,001,2026-01-19_17h33.39.502,MST_task,2024.2.0,60.044913587850594,2026-01-19 17h33.48.416740 +0530,
,Objects\054a.jpg,152,0,153,,,,,,,None,,,f,1.9640112000051886,None,,,,153,0,152,687.9655524999835,,,,,,,,,,,,,,,,,,,,,,,,,,,,,,687.9496517000371,687.9655524999835,688.4657745999866,688.4491528000217,,,,,,,,,,,,,,,,,,,,,,,,,,688.4518801000086,688.4657745999866,688.4657745999866,688.4657745999866,691.4655016000033,691.4655016000033,691.4655016000033,691.4494550999952,None,,,691.4494925999898,693.4326730000321,f,691.4655016000033,691.4655016000033,1.9640112000051886,None,,,,,,,,,,00062,001,2026-01-19_17h33.39.502,MST_task,2024.2.0,60.044913587850594,2026-01-19 17h33.48.416740 +0530,
,Objects\116a.jpg,153,0,154,,,,,,,f,0.7850310999783687,0.1599737000069581,None,,,,,,154,0,153,693.4488168000244,,,,,,,,,,,,,,,,,,,,,,,,,,,,,,693.432790699997,693.4488168000244,693.9490706000361,693.9324653000222,,,,,,,,,,,,,,,,,,,,,,,,,,693.9352645000326,693.9490706000361,693.9490706000361,693.9490706000361,696.9488936000271,696.9488936000271,696.9488936000271,696.9330200999975,f,0.7850310999783687,0.1599737000069581,696.9330698000267,696.9330811999971,None,,,,,,,,,,,,,,00062,001,2026-01-19_17h33.39.502,MST_task,2024.2.0,60.044913587850594,2026-01-19 17h33.48.416740 +0530,
,Scenes\150a.jpg,154,0,155,,,,,,,j,1.6362517999950796,0.14399589999811724,None,,,,,,155,0,154,696.9488936000271,,,,,,,,,,,,,,,,,,,,,,,,,,,,,,696.9331912000198,696.9488936000271,697.4493038000073,697.4323946000077,,,,,,,,,,,,,,,,,,,,,,,,,,697.4415133000002,697.4493038000073,697.4493038000073,697.4493038000073,700.4489204999991,700.4489204999991,700.4489204999991,700.4329596000025,j,1.6362517999950796,0.14399589999811724,700.4347003999865,700.4347223000368,None,,,,,,,,,,,,,,00062,001,2026-01-19_17h33.39.502,MST_task,2024.2.0,60.044913587850594,2026-01-19 17h33.48.416740 +0530,
,Scenes\002a.jpg,155,0,156,,,,,,,j,0.8487549999845214,0.1119238999672234,None,,,,,,156,0,155,700.4489204999991,,,,,,,,,,,,,,,,,,,,,,,,,,,,,,700.434852699982,700.4489204999991,700.9495253000059,700.932736399991,,,,,,,,,,,,,,,,,,,,,,,,,,700.9440563999815,700.9495253000059,700.9495253000059,700.9495253000059,703.948923900025,703.948923900025,703.948923900025,703.9326318000094,j,0.8487549999845214,0.1119238999672234,703.9326721000252,703.9326832999941,None,,,,,,,,,,,,,,00062,001,2026-01-19_17h33.39.502,MST_task,2024.2.0,60.044913587850594,2026-01-19 17h33.48.416740 +0530,
