thisN,thisTrialN,thisRepN,key_resp_3.keys,key_resp_3.rt,key_resp_3.duration,trials.thisRepN,trials.thisTrialN,trials.thisN,thisRow.t,notes,intro_page.started,text.started,key_resp.started,intro_page.stopped,key_resp.keys,key_resp.rt,key_resp.duration,instructions.started,text_2.started,key_resp_2.started,instructions.stopped,key_resp_2.keys,key_resp_2.rt,key_resp_2.duration,demo1.started,image_1.started,image_2.started,text_7.started,key_resp_6.started,text_9.started,demo1.stopped,key_resp_6.keys,key_resp_6.rt,key_resp_6.duration,demo2.started,image_5.started,image_6.started,text_11.started,text_12.started,key_resp_8.started,demo2.stopped,key_resp_8.keys,key_resp_8.rt,key_resp_8.duration,demo_conclusion.started,text_13.started,key_resp_9.started,demo_conclusion.stopped,key_resp_9.keys,key_resp_9.rt,key_resp_9.duration,start_test.started,text_6.started,key_resp_5.started,start_test.stopped,key_resp_5.keys,key_resp_5.rt,key_resp_5.duration,ISI.started,text_4.started,text_4.stopped,ISI.stopped,routine_1.started,image.started,text_3.started,key_resp_3.started,routine_1.stopped,image_path,position_of_stimuli,trials.key_resp_3.keys,trials.key_resp_3.rt,trials.key_resp_3.duration,End_page.started,text_5.started,key_resp_4.started,End_page.stopped,key_resp_4.keys,key_resp_4.rt,key_resp_4.duration,participant,session,date,expName,psychopyVersion,frameRate,expStart,
,,,,,,,,,,,0.0012794999638572335,0.0027817999944090843,0.0027817999944090843,3.949302599998191,space,3.898860599962063,None,,,,,,,,,,,,,,,,,,,,,,,,,,,,,,,,,,,,,,,,,,,,,,,,,,,,,,,,,,,,,,,00063,001,2026-01-19_18h40.38.986,MST_test,2024.2.0,59.87113336012009,2026-01-19 18h40.48.398795 +0530,
,,,,,,,,,,,,,,,,,,3.9493444999679923,3.9624429999967106,3.9624429999967106,28.972846599994227,space,24.99573160003638,None,,,,,,,,,,,,,,,,,,,,,,,,,,,,,,,,,,,,,,,,,,,,,,,,,,,,,,,,00063,001,2026-01-19_18h40.38.986,MST_test,2024.2.0,59.87113336012009,2026-01-19 18h40.48.398795 +0530,
,,,,,,,,,,,,,,,,,,,,,,,,,28.972883799986448,28.989151999994647,28.989151999994647,28.989151999994647,28.989151999994647,28.989151999994647,35.856464500015136,space,6.857005500001833,None,,,,,,,,,,,,,,,,,,,,,,,,,,,,,,,,,,,,,,,,,,,,,,00063,001,2026-01-19_18h40.38.986,MST_test,2024.2.0,59.87113336012009,2026-01-19 18h40.48.398795 +0530,
,,,,,,,,,,,,,,,,,,,,,,,,,,,,,,,,,,,35.85649530001683,35.87262769998051,35.87262769998051,35.87262769998051,35.87262769998051,35.87262769998051,38.52292169997236,space,2.644999799958896,None,,,,,,,,,,,,,,,,,,,,,,,,,,,,,,,,,,,,00063,001,2026-01-19_18h40.38.986,MST_test,2024.2.0,59.87113336012009,2026-01-19 18h40.48.398795 +0530,
,,,,,,,,,,,,,,,,,,,,,,,,,,,,,,,,,,,,,,,,,,,,,38.52295299997786,38.538742600008845,38.538742600008845,132.2228367999778,space,93.68296360003296,None,,,,,,,,,,,,,,,,,,,,,,,,,,,,,00063,001,2026-01-19_18h40.38.986,MST_test,2024.2.0,59.87113336012009,2026-01-19 18h40.48.398795 +0530,
,,,,,,,,,,,,,,,,,,,,,,,,,,,,,,,,,,,,,,,,,,,,,,,,,,,,132.22286599996733,132.23884920001728,132.23884920001728,148.45612869999604,space,16.215181500010658,None,,,,,,,,,,,,,,,,,,,,,,00063,001,2026-01-19_18h40.38.986,MST_test,2024.2.0,59.87113336012009,2026-01-19 18h40.48.398795 +0530,
0,0,1,s,9.25802670000121,None,1,0,0,148.47213379997993,,,,,,,,,,,,,,,,,,,,,,,,,,,,,,,,,,,,,,,,,,,,,,,,,,148.46010660001775,148.47213379997993,148.9801535999868,148.95576929999515,148.97793150000507,148.9801535999868,148.9801535999868,148.9801535999868,158.23951009998564,Scenes\077b.jpg,post,s,9.25802670000121,None,,,,,,,,00063,001,2026-01-19_18h40.38.986,MST_test,2024.2.0,59.87113336012009,2026-01-19 18h40.48.398795 +0530,
1,0,2,s,3.2740886999526992,None,2,0,1,158.25554029998602,,,,,,,,,,,,,,,,,,,,,,,,,,,,,,,,,,,,,,,,,,,,,,,,,,158.23962100001518,158.25554029998602,158.7557925999863,158.7389060999849,158.75002649996895,158.7557925999863,158.7557925999863,158.7557925999863,162.03923499997472,Objects\179b.jpg,mid,s,3.2740886999526992,None,,,,,,,,00063,001,2026-01-19_18h40.38.986,MST_test,2024.2.0,59.87113336012009,2026-01-19 18h40.48.398795 +0530,
2,0,3,n,2.745822799974121,None,3,0,2,162.05554189998657,,,,,,,,,,,,,,,,,,,,,,,,,,,,,,,,,,,,,,,,,,,,,,,,,,162.03932789998362,162.05554189998657,162.55599680001615,162.53900679998333,162.5531758000143,162.55599680001615,162.55599680001615,162.55599680001615,165.3064498999738,Scenes\069b.jpg,post,n,2.745822799974121,None,,,,,,,,00063,001,2026-01-19_18h40.38.986,MST_test,2024.2.0,59.87113336012009,2026-01-19 18h40.48.398795 +0530,
3,0,4,n,1.535486500011757,None,4,0,3,165.32233970001107,,,,,,,,,,,,,,,,,,,,,,,,,,,,,,,,,,,,,,,,,,,,,,,,,,165.30655249999836,165.32233970001107,165.82267949997913,165.80580709996866,165.81602209998528,165.82267949997913,165.82267949997913,165.82267949997913,167.37278989999322,Foils\106a.jpg,none,n,1.535486500011757,None,,,,,,,,00063,001,2026-01-19_18h40.38.986,MST_test,2024.2.0,59.87113336012009,2026-01-19 18h40.48.398795 +0530,
4,0,5,o,1.5884585999883711,None,5,0,4,167.3888710999745,,,,,,,,,,,,,,,,,,,,,,,,,,,,,,,,,,,,,,,,,,,,,,,,,,167.37288239999907,167.3888710999745,167.8891816000105,167.87247930001467,167.88191260001622,167.8891816000105,167.8891816000105,167.8891816000105,169.48923890001606,Objects\108a.jpg,post,o,1.5884585999883711,None,,,,,,,,00063,001,2026-01-19_18h40.38.986,MST_test,2024.2.0,59.87113336012009,2026-01-19 18h40.48.398795 +0530,
5,0,6,n,1.5284012000192888,None,6,0,5,169.5055413999944,,,,,,,,,,,,,,,,,,,,,,,,,,,,,,,,,,,,,,,,,,,,,,,,,,169.4893321999698,169.5055413999944,170.00574649998453,169.98904459999176,169.9992773999693,170.00574649998453,170.00574649998453,170.00574649998453,171.53937279997626,Foils\042a.jpg,none,n,1.5284012000192888,None,,,,,,,,00063,001,2026-01-19_18h40.38.986,MST_test,2024.2.0,59.87113336012009,2026-01-19 18h40.48.398795 +0530,
6,0,7,n,2.3665607000002638,None,7,0,6,171.55553720000898,,,,,,,,,,,,,,,,,,,,,,,,,,,,,,,,,,,,,,,,,,,,,,,,,,171.53946329996688,171.55553720000898,172.0560144999763,172.03918369999155,172.04823580000084,172.0560144999763,172.0560144999763,172.0560144999763,174.4392071000184,Foils\scenes20.jpg,none,n,2.3665607000002638,None,,,,,,,,00063,001,2026-01-19_18h40.38.986,MST_test,2024.2.0,59.87113336012009,2026-01-19 18h40.48.398795 +0530,
7,0,8,o,2.1065698000020348,None,8,0,7,174.4555423000129,,,,,,,,,,,,,,,,,,,,,,,,,,,,,,,,,,,,,,,,,,,,,,,,,,174.43929750000825,174.4555423000129,174.95580739999423,174.93917949998286,174.94843629997922,174.95580739999423,174.95580739999423,174.95580739999423,177.07283769996138,Objects\075b.jpg,mid,o,2.1065698000020348,None,,,,,,,,00063,001,2026-01-19_18h40.38.986,MST_test,2024.2.0,59.87113336012009,2026-01-19 18h40.48.398795 +0530,
8,0,9,o,2.9132418999797665,None,9,0,8,177.0888052000082,,,,,,,,,,,,,,,,,,,,,,,,,,,,,,,,,,,,,,,,,,,,,,,,,,177.07292939996114,177.0888052000082,177.5893625000026,177.57259719999274,177.58489030000055,177.5893625000026,177.5893625000026,177.5893625000026,180.50617100001546,Scenes\163a.jpg,mid,o,2.9132418999797665,None,,,,,,,,00063,001,2026-01-19_18h40.38.986,MST_test,2024.2.0,59.87113336012009,2026-01-19 18h40.48.398795 +0530,
9,0,10,o,1.5362516999593936,None,10,0,9,180.52224749996094,,,,,,,,,,,,,,,,,,,,,,,,,,,,,,,,,,,,,,,,,,,,,,,,,,180.50626409996767,180.52224749996094,181.02957839996088,181.0057540999842,181.0273188999854,181.02957839996088,181.02957839996088,181.02957839996088,182.57296869996935,Scenes\043a.jpg,mid,o,1.5362516999593936,None,,,,,,,,00063,001,2026-01-19_18h40.38.986,MST_test,2024.2.0,59.87113336012009,2026-01-19 18h40.48.398795 +0530,
10,0,11,n,1.4043462999979965,None,11,0,10,182.588690900011,,,,,,,,,,,,,,,,,,,,,,,,,,,,,,,,,,,,,,,,,,,,,,,,,,182.57309079996776,182.588690900011,183.08920489996672,183.0725088000181,183.08539500000188,183.08920489996672,183.08920489996672,183.08920489996672,184.50611169997137,Foils\105a.jpg,none,n,1.4043462999979965,None,,,,,,,,00063,001,2026-01-19_18h40.38.986,MST_test,2024.2.0,59.87113336012009,2026-01-19 18h40.48.398795 +0530,
11,0,12,o,2.248007600021083,None,12,0,11,184.5222356999875,,,,,,,,,,,,,,,,,,,,,,,,,,,,,,,,,,,,,,,,,,,,,,,,,,184.5062060999917,184.5222356999875,185.0223963999888,185.0058686999837,185.01486880000448,185.0223963999888,185.0223963999888,185.0223963999888,187.272785499983,Objects\184a.jpg,pre,o,2.248007600021083,None,,,,,,,,00063,001,2026-01-19_18h40.38.986,MST_test,2024.2.0,59.87113336012009,2026-01-19 18h40.48.398795 +0530,
12,0,13,o,3.217563699989114,None,13,0,12,187.2888118000119,,,,,,,,,,,,,,,,,,,,,,,,,,,,,,,,,,,,,,,,,,,,,,,,,,187.2728793999995,187.2888118000119,187.78928409999935,187.77261129999533,187.78196220000973,187.78928409999935,187.78928409999935,187.78928409999935,191.0227506000083,Objects\064b.jpg,mid,o,3.217563699989114,None,,,,,,,,00063,001,2026-01-19_18h40.38.986,MST_test,2024.2.0,59.87113336012009,2026-01-19 18h40.48.398795 +0530,
13,0,14,o,1.386610399989877,None,14,0,13,191.03871310001705,,,,,,,,,,,,,,,,,,,,,,,,,,,,,,,,,,,,,,,,,,,,,,,,,,191.0228437000187,191.03871310001705,191.53903489996446,191.52252329996554,191.5313134000171,191.53903489996446,191.53903489996446,191.53903489996446,192.9392901000101,Objects\100b.jpg,post,o,1.386610399989877,None,,,,,,,,00063,001,2026-01-19_18h40.38.986,MST_test,2024.2.0,59.87113336012009,2026-01-19 18h40.48.398795 +0530,
14,0,15,o,1.0943277000333183,None,15,0,14,192.95555329998024,,,,,,,,,,,,,,,,,,,,,,,,,,,,,,,,,,,,,,,,,,,,,,,,,,192.9393839999684,192.95555329998024,193.4557953000185,193.43897750001634,193.4478902000119,193.4557953000185,193.4557953000185,193.4557953000185,194.55616139998892,Objects\152a.jpg,post,o,1.0943277000333183,None,,,,,,,,00063,001,2026-01-19_18h40.38.986,MST_test,2024.2.0,59.87113336012009,2026-01-19 18h40.48.398795 +0530,
15,0,16,s,2.5058043000171892,None,16,0,15,194.57216739997966,,,,,,,,,,,,,,,,,,,,,,,,,,,,,,,,,,,,,,,,,,,,,,,,,,194.55625759996474,194.57216739997966,195.0757244999986,195.05584200000158,195.07359669997822,195.0757244999986,195.0757244999986,195.0757244999986,197.58940319996327,Scenes\125b.jpg,pre,s,2.5058043000171892,None,,,,,,,,00063,001,2026-01-19_18h40.38.986,MST_test,2024.2.0,59.87113336012009,2026-01-19 18h40.48.398795 +0530,
16,0,17,s,3.2676601000130177,None,17,0,16,197.6055522999959,,,,,,,,,,,,,,,,,,,,,,,,,,,,,,,,,,,,,,,,,,,,,,,,,,197.58950860000914,197.6055522999959,198.10606309998548,198.08902889996534,198.09899319999386,198.10606309998548,198.10606309998548,198.10606309998548,201.3893018999952,Foils\086a.jpg,none,s,3.2676601000130177,None,,,,,,,,00063,001,2026-01-19_18h40.38.986,MST_test,2024.2.0,59.87113336012009,2026-01-19 18h40.48.398795 +0530,
17,0,18,n,1.3728255999740213,None,18,0,17,201.40554539998993,,,,,,,,,,,,,,,,,,,,,,,,,,,,,,,,,,,,,,,,,,,,,,,,,,201.38939470000332,201.40554539998993,201.90569689997938,201.888975400012,201.89921770000365,201.90569689997938,201.90569689997938,201.90569689997938,203.2893533000024,Foils\scenes11.jpg,none,n,1.3728255999740213,None,,,,,,,,00063,001,2026-01-19_18h40.38.986,MST_test,2024.2.0,59.87113336012009,2026-01-19 18h40.48.398795 +0530,
18,0,19,s,3.741840500035323,None,19,0,18,203.30560379999224,,,,,,,,,,,,,,,,,,,,,,,,,,,,,,,,,,,,,,,,,,,,,,,,,,203.28983570000855,203.30560379999224,203.80827899998985,203.78903079999145,203.80631559999892,203.80827899998985,203.80827899998985,203.80827899998985,207.5563408000162,Scenes\128a.jpg,mid,s,3.741840500035323,None,,,,,,,,00063,001,2026-01-19_18h40.38.986,MST_test,2024.2.0,59.87113336012009,2026-01-19 18h40.48.398795 +0530,
19,0,20,n,3.525439799996093,None,20,0,19,207.57224010000937,,,,,,,,,,,,,,,,,,,,,,,,,,,,,,,,,,,,,,,,,,,,,,,,,,207.55644650000613,207.57224010000937,208.07265250000637,208.0557841999689,208.06590529996902,208.07265250000637,208.07265250000637,208.07265250000637,211.60626550001325,Foils\049a.jpg,none,n,3.525439799996093,None,,,,,,,,00063,001,2026-01-19_18h40.38.986,MST_test,2024.2.0,59.87113336012009,2026-01-19 18h40.48.398795 +0530,
20,0,21,s,4.001612499996554,None,21,0,20,211.62223219999578,,,,,,,,,,,,,,,,,,,,,,,,,,,,,,,,,,,,,,,,,,,,,,,,,,211.60635829996318,211.62223219999578,212.1246615999844,212.10592870000983,212.12228459998732,212.1246615999844,212.1246615999844,212.1246615999844,216.13964720000513,Scenes\105a.jpg,mid,s,4.001612499996554,None,,,,,,,,00063,001,2026-01-19_18h40.38.986,MST_test,2024.2.0,59.87113336012009,2026-01-19 18h40.48.398795 +0530,
21,0,22,o,1.3181043000076897,None,22,0,21,216.155847899965,,,,,,,,,,,,,,,,,,,,,,,,,,,,,,,,,,,,,,,,,,,,,,,,,,216.13973980001174,216.155847899965,216.65605190000497,216.63934280001558,216.64989920001244,216.65605190000497,216.65605190000497,216.65605190000497,217.98928569996497,Scenes\033a.jpg,mid,o,1.3181043000076897,None,,,,,,,,00063,001,2026-01-19_18h40.38.986,MST_test,2024.2.0,59.87113336012009,2026-01-19 18h40.48.398795 +0530,
22,0,23,s,2.0747909999918193,None,23,0,22,218.0054911999614,,,,,,,,,,,,,,,,,,,,,,,,,,,,,,,,,,,,,,,,,,,,,,,,,,217.9893824000028,218.0054911999614,218.50755129999015,218.48923249996733,218.50541189999785,218.50755129999015,218.50755129999015,218.50755129999015,220.5896064999979,Scenes\093b.jpg,mid,s,2.0747909999918193,None,,,,,,,,00063,001,2026-01-19_18h40.38.986,MST_test,2024.2.0,59.87113336012009,2026-01-19 18h40.48.398795 +0530,
23,0,24,s,1.5876202999497764,None,24,0,23,220.60565649997443,,,,,,,,,,,,,,,,,,,,,,,,,,,,,,,,,,,,,,,,,,,,,,,,,,220.58970199996838,220.60565649997443,221.1061580000096,221.08911659999285,221.09855890000472,221.1061580000096,221.1061580000096,221.1061580000096,222.70617809996475,Objects\098b.jpg,mid,s,1.5876202999497764,None,,,,,,,,00063,001,2026-01-19_18h40.38.986,MST_test,2024.2.0,59.87113336012009,2026-01-19 18h40.48.398795 +0530,
24,0,25,s,3.7349439000245184,None,25,0,24,222.72221839998383,,,,,,,,,,,,,,,,,,,,,,,,,,,,,,,,,,,,,,,,,,,,,,,,,,222.70628099999158,222.72221839998383,223.2226062999689,223.20597080001608,223.21548209997127,223.2226062999689,223.2226062999689,223.2226062999689,226.9732290999964,Objects\020b.jpg,pre,s,3.7349439000245184,None,,,,,,,,00063,001,2026-01-19_18h40.38.986,MST_test,2024.2.0,59.87113336012009,2026-01-19 18h40.48.398795 +0530,
25,0,26,o,1.5965704999980517,None,26,0,25,226.98889300000155,,,,,,,,,,,,,,,,,,,,,,,,,,,,,,,,,,,,,,,,,,,,,,,,,,226.97333030001028,226.98889300000155,227.48892069997964,227.47248669998953,227.48193479998736,227.48892069997964,227.48892069997964,227.48892069997964,229.08960169996135,Objects\134b.jpg,pre,o,1.5965704999980517,None,,,,,,,,00063,001,2026-01-19_18h40.38.986,MST_test,2024.2.0,59.87113336012009,2026-01-19 18h40.48.398795 +0530,
26,0,27,o,1.3597973000141792,None,27,0,26,229.10564560000785,,,,,,,,,,,,,,,,,,,,,,,,,,,,,,,,,,,,,,,,,,,,,,,,,,229.08969230001094,229.10564560000785,229.60613789997296,229.58944050001446,229.6017867999617,229.60613789997296,229.60613789997296,229.60613789997296,230.97279659996275,Scenes\091a.jpg,mid,o,1.3597973000141792,None,,,,,,,,00063,001,2026-01-19_18h40.38.986,MST_test,2024.2.0,59.87113336012009,2026-01-19 18h40.48.398795 +0530,
27,0,28,o,1.493523399985861,None,28,0,27,230.98893379996298,,,,,,,,,,,,,,,,,,,,,,,,,,,,,,,,,,,,,,,,,,,,,,,,,,230.97289069998078,230.98893379996298,231.48938719998114,231.47257799998624,231.48205880000023,231.48938719998114,231.48938719998114,231.48938719998114,232.98955529998057,Objects\161a.jpg,mid,o,1.493523399985861,None,,,,,,,,00063,001,2026-01-19_18h40.38.986,MST_test,2024.2.0,59.87113336012009,2026-01-19 18h40.48.398795 +0530,
28,0,29,o,1.1775836999877356,None,29,0,28,233.00566759996582,,,,,,,,,,,,,,,,,,,,,,,,,,,,,,,,,,,,,,,,,,,,,,,,,,232.98964739998337,233.00566759996582,233.50790729996515,233.4892263999791,233.5059193999623,233.50790729996515,233.50790729996515,233.50790729996515,234.68966169998748,Scenes\085a.jpg,pre,o,1.1775836999877356,None,,,,,,,,00063,001,2026-01-19_18h40.38.986,MST_test,2024.2.0,59.87113336012009,2026-01-19 18h40.48.398795 +0530,
29,0,30,o,3.024731899960898,None,30,0,29,234.70557659998303,,,,,,,,,,,,,,,,,,,,,,,,,,,,,,,,,,,,,,,,,,,,,,,,,,234.68975859996863,234.70557659998303,235.2060050999862,235.1890939999721,235.1985077999998,235.2060050999862,235.2060050999862,235.2060050999862,238.23947649996262,Objects\025a.jpg,post,o,3.024731899960898,None,,,,,,,,00063,001,2026-01-19_18h40.38.986,MST_test,2024.2.0,59.87113336012009,2026-01-19 18h40.48.398795 +0530,
30,0,31,s,2.337739300040994,None,31,0,30,238.25553769996623,,,,,,,,,,,,,,,,,,,,,,,,,,,,,,,,,,,,,,,,,,,,,,,,,,238.2395761999651,238.25553769996623,238.75579799996922,238.73901670001214,238.7488369999919,238.75579799996922,238.75579799996922,238.75579799996922,241.1062491000048,Objects\101b.jpg,pre,s,2.337739300040994,None,,,,,,,,00063,001,2026-01-19_18h40.38.986,MST_test,2024.2.0,59.87113336012009,2026-01-19 18h40.48.398795 +0530,
31,0,32,n,1.3435305000166409,None,32,0,31,241.12225399998715,,,,,,,,,,,,,,,,,,,,,,,,,,,,,,,,,,,,,,,,,,,,,,,,,,241.10635319998255,241.12225399998715,241.62238750001416,241.60575659997994,241.61630479997257,241.62238750001416,241.62238750001416,241.62238750001416,242.97276159998728,Foils\034a.jpg,none,n,1.3435305000166409,None,,,,,,,,00063,001,2026-01-19_18h40.38.986,MST_test,2024.2.0,59.87113336012009,2026-01-19 18h40.48.398795 +0530,
32,0,33,s,1.7798714999807999,None,33,0,32,242.98872119997395,,,,,,,,,,,,,,,,,,,,,,,,,,,,,,,,,,,,,,,,,,,,,,,,,,242.9728643000126,242.98872119997395,243.49068340001395,243.47240430000238,243.48857300000964,243.49068340001395,243.49068340001395,243.49068340001395,245.2728558999952,Scenes\107b.jpg,mid,s,1.7798714999807999,None,,,,,,,,00063,001,2026-01-19_18h40.38.986,MST_test,2024.2.0,59.87113336012009,2026-01-19 18h40.48.398795 +0530,
33,0,34,n,1.8727842000080273,None,34,0,33,245.28877499996452,,,,,,,,,,,,,,,,,,,,,,,,,,,,,,,,,,,,,,,,,,,,,,,,,,245.27295199997025,245.28877499996452,245.78926459996728,245.77242709998973,245.7827606999781,245.78926459996728,245.78926459996728,245.78926459996728,247.6731298000086,Objects\085b.jpg,pre,n,1.8727842000080273,None,,,,,,,,00063,001,2026-01-19_18h40.38.986,MST_test,2024.2.0,59.87113336012009,2026-01-19 18h40.48.398795 +0530,
34,0,35,n,2.791668899997603,None,35,0,34,247.68941519997315,,,,,,,,,,,,,,,,,,,,,,,,,,,,,,,,,,,,,,,,,,,,,,,,,,247.67323299997952,247.68941519997315,248.1898412000155,248.17241890000878,248.18772940000053,248.1898412000155,248.1898412000155,248.1898412000155,250.98943610000424,Scenes\186b.jpg,mid,n,2.791668899997603,None,,,,,,,,00063,001,2026-01-19_18h40.38.986,MST_test,2024.2.0,59.87113336012009,2026-01-19 18h40.48.398795 +0530,
35,0,36,s,1.595971200033091,None,36,0,35,251.00549650000175,,,,,,,,,,,,,,,,,,,,,,,,,,,,,,,,,,,,,,,,,,,,,,,,,,250.98953339998843,251.00549650000175,251.50621959997807,251.4891322000185,251.5027962999884,251.50621959997807,251.50621959997807,251.50621959997807,253.10612379998202,Scenes\176b.jpg,post,s,1.595971200033091,None,,,,,,,,00063,001,2026-01-19_18h40.38.986,MST_test,2024.2.0,59.87113336012009,2026-01-19 18h40.48.398795 +0530,
36,0,37,o,1.6998516999883577,None,37,0,36,253.1222315999912,,,,,,,,,,,,,,,,,,,,,,,,,,,,,,,,,,,,,,,,,,,,,,,,,,253.10621609998634,253.1222315999912,253.62637070001801,253.60581370000727,253.62407159997383,253.62637070001801,253.62637070001801,253.62637070001801,255.3393949000165,Scenes\045a.jpg,mid,o,1.6998516999883577,None,,,,,,,,00063,001,2026-01-19_18h40.38.986,MST_test,2024.2.0,59.87113336012009,2026-01-19 18h40.48.398795 +0530,
37,0,38,o,1.08365970000159,None,38,0,37,255.35559849999845,,,,,,,,,,,,,,,,,,,,,,,,,,,,,,,,,,,,,,,,,,,,,,,,,,255.33949250000296,255.35559849999845,255.85897200001637,255.83903719997033,255.85655269998824,255.85897200001637,255.85897200001637,255.85897200001637,256.9561842000112,Scenes\120b.jpg,pre,o,1.08365970000159,None,,,,,,,,00063,001,2026-01-19_18h40.38.986,MST_test,2024.2.0,59.87113336012009,2026-01-19 18h40.48.398795 +0530,
38,0,39,o,2.2937740000197664,None,39,0,38,256.9722168999724,,,,,,,,,,,,,,,,,,,,,,,,,,,,,,,,,,,,,,,,,,,,,,,,,,256.9562755000079,256.9722168999724,257.47287140000844,257.45583970000735,257.4683178999694,257.47287140000844,257.47287140000844,257.47287140000844,259.77284569997573,Scenes\087a.jpg,pre,o,2.2937740000197664,None,,,,,,,,00063,001,2026-01-19_18h40.38.986,MST_test,2024.2.0,59.87113336012009,2026-01-19 18h40.48.398795 +0530,
39,0,40,n,1.2445834000245668,None,40,0,39,259.78875289997086,,,,,,,,,,,,,,,,,,,,,,,,,,,,,,,,,,,,,,,,,,,,,,,,,,259.7729426000151,259.78875289997086,260.28950349998195,260.27247899997747,260.2810756000108,260.28950349998195,260.28950349998195,260.28950349998195,261.5394269999815,Foils\scenes14.jpg,none,n,1.2445834000245668,None,,,,,,,,00063,001,2026-01-19_18h40.38.986,MST_test,2024.2.0,59.87113336012009,2026-01-19 18h40.48.398795 +0530,
40,0,41,o,1.381578000029549,None,41,0,40,261.5555573999882,,,,,,,,,,,,,,,,,,,,,,,,,,,,,,,,,,,,,,,,,,,,,,,,,,261.53951879998203,261.5555573999882,262.05661329999566,262.03907319996506,262.0542981000035,262.05661329999566,262.05661329999566,262.05661329999566,263.4394836999709,Scenes\038a.jpg,mid,o,1.381578000029549,None,,,,,,,,00063,001,2026-01-19_18h40.38.986,MST_test,2024.2.0,59.87113336012009,2026-01-19 18h40.48.398795 +0530,
41,0,42,o,1.5284425999852829,None,42,0,41,263.4556687999866,,,,,,,,,,,,,,,,,,,,,,,,,,,,,,,,,,,,,,,,,,,,,,,,,,263.4395827999688,263.4556687999866,263.9578104999964,263.9390824000002,263.9555861999979,263.9578104999964,263.9578104999964,263.9578104999964,265.4894410999841,Scenes\063a.jpg,pre,o,1.5284425999852829,None,,,,,,,,00063,001,2026-01-19_18h40.38.986,MST_test,2024.2.0,59.87113336012009,2026-01-19 18h40.48.398795 +0530,
42,0,43,s,1.472081399988383,None,43,0,42,265.50557749997824,,,,,,,,,,,,,,,,,,,,,,,,,,,,,,,,,,,,,,,,,,,,,,,,,,265.4895337999915,265.50557749997824,266.0061146999942,265.98919419996673,265.99899599998025,266.0061146999942,266.0061146999942,266.0061146999942,267.48945190000813,Objects\119b.jpg,pre,s,1.472081399988383,None,,,,,,,,00063,001,2026-01-19_18h40.38.986,MST_test,2024.2.0,59.87113336012009,2026-01-19 18h40.48.398795 +0530,
43,0,44,s,2.381275199993979,None,44,0,43,267.50557280000066,,,,,,,,,,,,,,,,,,,,,,,,,,,,,,,,,,,,,,,,,,,,,,,,,,267.48954939999385,267.50557280000066,268.00887909997255,267.9895048000035,268.0066347999964,268.00887909997255,268.00887909997255,268.00887909997255,270.40631759999087,Scenes\025b.jpg,post,s,2.381275199993979,None,,,,,,,,00063,001,2026-01-19_18h40.38.986,MST_test,2024.2.0,59.87113336012009,2026-01-19 18h40.48.398795 +0530,
44,0,45,n,1.1707859999733046,None,45,0,44,270.4222367000184,,,,,,,,,,,,,,,,,,,,,,,,,,,,,,,,,,,,,,,,,,,,,,,,,,270.40641439997125,270.4222367000184,270.92269739997573,270.90582809998887,270.91540050000185,270.92269739997573,270.92269739997573,270.92269739997573,272.106065400003,Foils\010a.jpg,none,n,1.1707859999733046,None,,,,,,,,00063,001,2026-01-19_18h40.38.986,MST_test,2024.2.0,59.87113336012009,2026-01-19 18h40.48.398795 +0530,
45,0,46,o,1.9030590999755077,None,46,0,45,272.12222969997674,,,,,,,,,,,,,,,,,,,,,,,,,,,,,,,,,,,,,,,,,,,,,,,,,,272.10615659999894,272.12222969997674,272.62244309997186,272.60602810001,272.61495299998205,272.62244309997186,272.62244309997186,272.62244309997186,274.5394151000073,Objects\006a.jpg,pre,o,1.9030590999755077,None,,,,,,,,00063,001,2026-01-19_18h40.38.986,MST_test,2024.2.0,59.87113336012009,2026-01-19 18h40.48.398795 +0530,
46,0,47,o,1.1658174999756739,None,47,0,46,274.555512299994,,,,,,,,,,,,,,,,,,,,,,,,,,,,,,,,,,,,,,,,,,,,,,,,,,274.53950449998956,274.555512299994,275.05575589998625,275.0390904999804,275.0481220000074,275.05575589998625,275.05575589998625,275.05575589998625,276.22288409998873,Objects\172a.jpg,post,o,1.1658174999756739,None,,,,,,,,00063,001,2026-01-19_18h40.38.986,MST_test,2024.2.0,59.87113336012009,2026-01-19 18h40.48.398795 +0530,
47,0,48,s,2.8516427999711595,None,48,0,47,276.23870899999747,,,,,,,,,,,,,,,,,,,,,,,,,,,,,,,,,,,,,,,,,,,,,,,,,,276.22299270000076,276.23870899999747,276.73919160000514,276.72247500001686,276.7318096999661,276.73919160000514,276.73919160000514,276.73919160000514,279.6061230999767,Objects\171b.jpg,pre,s,2.8516427999711595,None,,,,,,,,00063,001,2026-01-19_18h40.38.986,MST_test,2024.2.0,59.87113336012009,2026-01-19 18h40.48.398795 +0530,
48,0,49,n,1.2441411000327207,None,49,0,48,279.62221860000864,,,,,,,,,,,,,,,,,,,,,,,,,,,,,,,,,,,,,,,,,,,,,,,,,,279.60621429997263,279.62221860000864,280.1224277999718,280.1058505999972,280.1149093999993,280.1224277999718,280.1224277999718,280.1224277999718,281.37283720000414,Foils\082a.jpg,none,n,1.2441411000327207,None,,,,,,,,00063,001,2026-01-19_18h40.38.986,MST_test,2024.2.0,59.87113336012009,2026-01-19 18h40.48.398795 +0530,
49,0,50,n,7.021177099959459,None,50,0,49,281.3887641999754,,,,,,,,,,,,,,,,,,,,,,,,,,,,,,,,,,,,,,,,,,,,,,,,,,281.3729291000054,281.3887641999754,281.88894159998745,281.87241830001585,281.88122149999253,281.88894159998745,281.88894159998745,281.88894159998745,288.92298919998575,Foils\057a.jpg,none,n,7.021177099959459,None,,,,,,,,00063,001,2026-01-19_18h40.38.986,MST_test,2024.2.0,59.87113336012009,2026-01-19 18h40.48.398795 +0530,
50,0,51,s,2.0470076000201516,None,51,0,50,288.93889230000786,,,,,,,,,,,,,,,,,,,,,,,,,,,,,,,,,,,,,,,,,,,,,,,,,,288.92308829998365,288.93889230000786,289.4389105999726,289.4225342000136,289.43205319996923,289.4389105999726,289.4389105999726,289.4389105999726,291.48932579997927,Objects\145b.jpg,post,s,2.0470076000201516,None,,,,,,,,00063,001,2026-01-19_18h40.38.986,MST_test,2024.2.0,59.87113336012009,2026-01-19 18h40.48.398795 +0530,
51,0,52,s,1.7523105000145733,None,52,0,51,291.50555780000286,,,,,,,,,,,,,,,,,,,,,,,,,,,,,,,,,,,,,,,,,,,,,,,,,,291.48941490001744,291.50555780000286,292.0061074999976,291.98901069996646,292.0033652000129,292.0061074999976,292.0061074999976,292.0061074999976,293.7728059999645,Scenes\074b.jpg,pre,s,1.7523105000145733,None,,,,,,,,00063,001,2026-01-19_18h40.38.986,MST_test,2024.2.0,59.87113336012009,2026-01-19 18h40.48.398795 +0530,
52,0,53,n,1.183653999993112,None,53,0,52,293.7888348000124,,,,,,,,,,,,,,,,,,,,,,,,,,,,,,,,,,,,,,,,,,,,,,,,,,293.7728995999787,293.7888348000124,294.2947168999817,294.27254889998585,294.29242499999236,294.2947168999817,294.2947168999817,294.2947168999817,295.4895647999947,Foils\scenes28.jpg,none,n,1.183653999993112,None,,,,,,,,00063,001,2026-01-19_18h40.38.986,MST_test,2024.2.0,59.87113336012009,2026-01-19 18h40.48.398795 +0530,
53,0,54,o,2.2153912999783643,None,54,0,53,295.50556819996564,,,,,,,,,,,,,,,,,,,,,,,,,,,,,,,,,,,,,,,,,,,,,,,,,,295.4896635999903,295.50556819996564,296.0062915000017,295.9891242000158,295.9991289000027,296.0062915000017,296.0062915000017,296.0062915000017,298.22291770001175,Objects\109b.jpg,mid,o,2.2153912999783643,None,,,,,,,,00063,001,2026-01-19_18h40.38.986,MST_test,2024.2.0,59.87113336012009,2026-01-19 18h40.48.398795 +0530,
54,0,55,n,1.1630139999906532,None,55,0,54,298.23868209996726,,,,,,,,,,,,,,,,,,,,,,,,,,,,,,,,,,,,,,,,,,,,,,,,,,298.2230073999963,298.23868209996726,298.7390975999879,298.7223962999997,298.7308219000115,298.7390975999879,298.7390975999879,298.7390975999879,299.9062023999868,Foils\scenes5.jpg,none,n,1.1630139999906532,None,,,,,,,,00063,001,2026-01-19_18h40.38.986,MST_test,2024.2.0,59.87113336012009,2026-01-19 18h40.48.398795 +0530,
55,0,56,s,1.5758677999838255,None,56,0,55,299.92224300000817,,,,,,,,,,,,,,,,,,,,,,,,,,,,,,,,,,,,,,,,,,,,,,,,,,299.90629800001625,299.92224300000817,300.4225383999874,300.40582169999834,300.4155463000061,300.4225383999874,300.4225383999874,300.4225383999874,302.0061530999956,Objects\036b.jpg,mid,s,1.5758677999838255,None,,,,,,,,00063,001,2026-01-19_18h40.38.986,MST_test,2024.2.0,59.87113336012009,2026-01-19 18h40.48.398795 +0530,
56,0,57,n,2.131084099994041,None,57,0,56,302.02223479998065,,,,,,,,,,,,,,,,,,,,,,,,,,,,,,,,,,,,,,,,,,,,,,,,,,302.00624399998924,302.02223479998065,302.52250540000387,302.505857000011,302.5165338999941,302.52250540000387,302.52250540000387,302.52250540000387,304.65619760000845,Foils\020b.jpg,none,n,2.131084099994041,None,,,,,,,,00063,001,2026-01-19_18h40.38.986,MST_test,2024.2.0,59.87113336012009,2026-01-19 18h40.48.398795 +0530,
57,0,58,o,1.241220300027635,None,58,0,57,304.67223349999404,,,,,,,,,,,,,,,,,,,,,,,,,,,,,,,,,,,,,,,,,,,,,,,,,,304.656289400009,304.67223349999404,305.172424999997,305.1559410999762,305.1654031999642,305.172424999997,305.172424999997,305.172424999997,306.4228736999794,Objects\188b.jpg,post,o,1.241220300027635,None,,,,,,,,00063,001,2026-01-19_18h40.38.986,MST_test,2024.2.0,59.87113336012009,2026-01-19 18h40.48.398795 +0530,
58,0,59,s,5.971101400034968,None,59,0,58,306.4389613000094,,,,,,,,,,,,,,,,,,,,,,,,,,,,,,,,,,,,,,,,,,,,,,,,,,306.42296639998676,306.4389613000094,306.9390256999759,306.92248959996505,306.9317526000086,306.9390256999759,306.9390256999759,306.9390256999759,312.922733000014,Objects\095b.jpg,mid,s,5.971101400034968,None,,,,,,,,00063,001,2026-01-19_18h40.38.986,MST_test,2024.2.0,59.87113336012009,2026-01-19 18h40.48.398795 +0530,
59,0,60,o,2.095377300051041,None,60,0,59,312.9388389000087,,,,,,,,,,,,,,,,,,,,,,,,,,,,,,,,,,,,,,,,,,,,,,,,,,312.922825000016,312.9388389000087,313.43920749996323,313.4227281999774,313.43242879997706,313.43920749996323,313.43920749996323,313.43920749996323,315.53954329999397,Foils\scenes13.jpg,none,o,2.095377300051041,None,,,,,,,,00063,001,2026-01-19_18h40.38.986,MST_test,2024.2.0,59.87113336012009,2026-01-19 18h40.48.398795 +0530,
60,0,61,s,2.2543391000363044,None,61,0,60,315.55556110001635,,,,,,,,,,,,,,,,,,,,,,,,,,,,,,,,,,,,,,,,,,,,,,,,,,315.5396396999713,315.55556110001635,316.05583019996993,316.03900990000693,316.04870639997534,316.05583019996993,316.05583019996993,316.05583019996993,318.32282459997805,Objects\154a.jpg,post,s,2.2543391000363044,None,,,,,,,,00063,001,2026-01-19_18h40.38.986,MST_test,2024.2.0,59.87113336012009,2026-01-19 18h40.48.398795 +0530,
61,0,62,o,1.6938210999942385,None,62,0,61,318.33884029998444,,,,,,,,,,,,,,,,,,,,,,,,,,,,,,,,,,,,,,,,,,,,,,,,,,318.3229173999862,318.33884029998444,318.840729699994,318.8224314000108,318.8387042999966,318.840729699994,318.840729699994,318.840729699994,320.5393967999844,Scenes\110a.jpg,mid,o,1.6938210999942385,None,,,,,,,,00063,001,2026-01-19_18h40.38.986,MST_test,2024.2.0,59.87113336012009,2026-01-19 18h40.48.398795 +0530,
62,0,63,n,3.8855557999922894,None,63,0,62,320.5556028999854,,,,,,,,,,,,,,,,,,,,,,,,,,,,,,,,,,,,,,,,,,,,,,,,,,320.53950070001883,320.5556028999854,321.05614449997665,321.0391107000178,321.04899280000245,321.05614449997665,321.05614449997665,321.05614449997665,324.95622829999775,Objects\017b.jpg,post,n,3.8855557999922894,None,,,,,,,,00063,001,2026-01-19_18h40.38.986,MST_test,2024.2.0,59.87113336012009,2026-01-19 18h40.48.398795 +0530,
63,0,64,s,3.9417968000052497,None,64,0,63,324.9722698999685,,,,,,,,,,,,,,,,,,,,,,,,,,,,,,,,,,,,,,,,,,,,,,,,,,324.9563224000158,324.9722698999685,325.4724631999852,325.455841100018,325.465887999977,325.4724631999852,325.4724631999852,325.4724631999852,329.4228158000042,Objects\008b.jpg,post,s,3.9417968000052497,None,,,,,,,,00063,001,2026-01-19_18h40.38.986,MST_test,2024.2.0,59.87113336012009,2026-01-19 18h40.48.398795 +0530,
64,0,65,o,1.555060000042431,None,65,0,64,329.4389876999776,,,,,,,,,,,,,,,,,,,,,,,,,,,,,,,,,,,,,,,,,,,,,,,,,,329.4229094000184,329.4389876999776,329.9390241999645,329.922753699997,329.9329805999878,329.9390241999645,329.9390241999645,329.9390241999645,331.5063386000111,Objects\191b.jpg,pre,o,1.555060000042431,None,,,,,,,,00063,001,2026-01-19_18h40.38.986,MST_test,2024.2.0,59.87113336012009,2026-01-19 18h40.48.398795 +0530,
65,0,66,s,1.7509287999710068,None,66,0,65,331.5224745000014,,,,,,,,,,,,,,,,,,,,,,,,,,,,,,,,,,,,,,,,,,,,,,,,,,331.50643030001083,331.5224745000014,332.0225996999652,332.0060477000079,332.0150629999698,332.0225996999652,332.0225996999652,332.0225996999652,333.7896732999943,Objects\160a.jpg,pre,s,1.7509287999710068,None,,,,,,,,00063,001,2026-01-19_18h40.38.986,MST_test,2024.2.0,59.87113336012009,2026-01-19 18h40.48.398795 +0530,
66,0,67,o,1.6280215999577194,None,67,0,66,333.8056700999732,,,,,,,,,,,,,,,,,,,,,,,,,,,,,,,,,,,,,,,,,,,,,,,,,,333.78977049997775,333.8056700999732,334.30630669998936,334.28912959998706,334.30305499996757,334.30630669998936,334.30630669998936,334.30630669998936,335.939703800017,Scenes\095a.jpg,pre,o,1.6280215999577194,None,,,,,,,,00063,001,2026-01-19_18h40.38.986,MST_test,2024.2.0,59.87113336012009,2026-01-19 18h40.48.398795 +0530,
67,0,68,n,2.437437500047963,None,68,0,67,335.95570589997806,,,,,,,,,,,,,,,,,,,,,,,,,,,,,,,,,,,,,,,,,,,,,,,,,,335.93979699997,335.95570589997806,336.4562501999899,336.4392586000031,336.4506667999667,336.4562501999899,336.4562501999899,336.4562501999899,338.9061656999984,Scenes\014a.jpg,post,n,2.437437500047963,None,,,,,,,,00063,001,2026-01-19_18h40.38.986,MST_test,2024.2.0,59.87113336012009,2026-01-19 18h40.48.398795 +0530,
68,0,69,o,1.1587072999682277,None,69,0,68,338.92236979998415,,,,,,,,,,,,,,,,,,,,,,,,,,,,,,,,,,,,,,,,,,,,,,,,,,338.90625679999357,338.92236979998415,339.42284800001653,339.4060135000036,339.415486999962,339.42284800001653,339.42284800001653,339.42284800001653,340.58959240000695,Objects\050a.jpg,mid,o,1.1587072999682277,None,,,,,,,,00063,001,2026-01-19_18h40.38.986,MST_test,2024.2.0,59.87113336012009,2026-01-19 18h40.48.398795 +0530,
69,0,70,s,1.3723694999935105,None,70,0,69,340.6056974999956,,,,,,,,,,,,,,,,,,,,,,,,,,,,,,,,,,,,,,,,,,,,,,,,,,340.5896847000113,340.6056974999956,341.1062494000071,341.0892625999986,341.1011919999728,341.1062494000071,341.1062494000071,341.1062494000071,342.4895668000099,Scenes\141b.jpg,post,s,1.3723694999935105,None,,,,,,,,00063,001,2026-01-19_18h40.38.986,MST_test,2024.2.0,59.87113336012009,2026-01-19 18h40.48.398795 +0530,
70,0,71,s,1.1832971000112593,None,71,0,70,342.5056983999675,,,,,,,,,,,,,,,,,,,,,,,,,,,,,,,,,,,,,,,,,,,,,,,,,,342.489662899985,342.5056983999675,343.00712959998054,342.9893232000177,343.0048711000127,343.00712959998054,343.00712959998054,343.00712959998054,344.2065655000042,Scenes\078a.jpg,pre,s,1.1832971000112593,None,,,,,,,,00063,001,2026-01-19_18h40.38.986,MST_test,2024.2.0,59.87113336012009,2026-01-19 18h40.48.398795 +0530,
71,0,72,s,1.347367700014729,None,72,0,71,344.2224391999771,,,,,,,,,,,,,,,,,,,,,,,,,,,,,,,,,,,,,,,,,,,,,,,,,,344.2066647000029,344.2224391999771,344.7229058999801,344.70592969999416,344.71655409998493,344.7229058999801,344.7229058999801,344.7229058999801,346.0732766999863,Objects\167b.jpg,pre,s,1.347367700014729,None,,,,,,,,00063,001,2026-01-19_18h40.38.986,MST_test,2024.2.0,59.87113336012009,2026-01-19 18h40.48.398795 +0530,
72,0,73,n,2.2163358999532647,None,73,0,72,346.08899969997583,,,,,,,,,,,,,,,,,,,,,,,,,,,,,,,,,,,,,,,,,,,,,,,,,,346.0733659999678,346.08899969997583,346.58939500001725,346.5726655999897,346.58111580001423,346.58939500001725,346.58939500001725,346.58939500001725,348.8064454999985,Foils\scenes18.jpg,none,n,2.2163358999532647,None,,,,,,,,00063,001,2026-01-19_18h40.38.986,MST_test,2024.2.0,59.87113336012009,2026-01-19 18h40.48.398795 +0530,
73,0,74,o,2.4510733999777585,None,74,0,73,348.82236609997926,,,,,,,,,,,,,,,,,,,,,,,,,,,,,,,,,,,,,,,,,,,,,,,,,,348.80653830000665,348.82236609997926,349.32277909998083,349.3069583000033,349.32018919999246,349.32277909998083,349.32277909998083,349.32277909998083,351.78941289999057,Scenes\008a.jpg,post,o,2.4510733999777585,None,,,,,,,,00063,001,2026-01-19_18h40.38.986,MST_test,2024.2.0,59.87113336012009,2026-01-19 18h40.48.398795 +0530,
74,0,75,n,1.003711600031238,None,75,0,74,351.8057146999636,,,,,,,,,,,,,,,,,,,,,,,,,,,,,,,,,,,,,,,,,,,,,,,,,,351.7895043999888,351.8057146999636,352.3060808000155,352.2891807999695,352.2986383999814,352.3060808000155,352.3060808000155,352.3060808000155,353.3229435000103,Foils\074a.jpg,none,n,1.003711600031238,None,,,,,,,,00063,001,2026-01-19_18h40.38.986,MST_test,2024.2.0,59.87113336012009,2026-01-19 18h40.48.398795 +0530,
75,0,76,n,1.3350242999731563,None,76,0,75,353.3390222999733,,,,,,,,,,,,,,,,,,,,,,,,,,,,,,,,,,,,,,,,,,,,,,,,,,353.3230368999648,353.3390222999733,353.8392414000118,353.82254359999206,353.8319487000117,353.8392414000118,353.8392414000118,353.8392414000118,355.18957489996683,Foils\026a.jpg,none,n,1.3350242999731563,None,,,,,,,,00063,001,2026-01-19_18h40.38.986,MST_test,2024.2.0,59.87113336012009,2026-01-19 18h40.48.398795 +0530,
76,0,77,s,1.9722486999817193,None,77,0,76,355.205701400002,,,,,,,,,,,,,,,,,,,,,,,,,,,,,,,,,,,,,,,,,,,,,,,,,,355.1896658000187,355.205701400002,355.70592659997055,355.68917430000147,355.69839219999267,355.70592659997055,355.70592659997055,355.70592659997055,357.68956759996945,Objects\177b.jpg,post,s,1.9722486999817193,None,,,,,,,,00063,001,2026-01-19_18h40.38.986,MST_test,2024.2.0,59.87113336012009,2026-01-19 18h40.48.398795 +0530,
77,0,78,s,1.240471500030253,None,78,0,77,357.7056077999878,,,,,,,,,,,,,,,,,,,,,,,,,,,,,,,,,,,,,,,,,,,,,,,,,,357.6896703999955,357.7056077999878,358.20586739998544,358.1891314999666,358.1978626999771,358.20586739998544,358.20586739998544,358.20586739998544,359.4562442000024,Objects\187a.jpg,pre,s,1.240471500030253,None,,,,,,,,00063,001,2026-01-19_18h40.38.986,MST_test,2024.2.0,59.87113336012009,2026-01-19 18h40.48.398795 +0530,
78,0,79,n,4.138266899972223,None,79,0,78,359.4722917000181,,,,,,,,,,,,,,,,,,,,,,,,,,,,,,,,,,,,,,,,,,,,,,,,,,359.45634629996493,359.4722917000181,359.97246259998064,359.9559019000153,359.9655231999932,359.97246259998064,359.97246259998064,359.97246259998064,364.12297269998817,Objects\180b.jpg,post,n,4.138266899972223,None,,,,,,,,00063,001,2026-01-19_18h40.38.986,MST_test,2024.2.0,59.87113336012009,2026-01-19 18h40.48.398795 +0530,
79,0,80,s,2.5432857000268996,None,80,0,79,364.13893750001444,,,,,,,,,,,,,,,,,,,,,,,,,,,,,,,,,,,,,,,,,,,,,,,,,,364.12307309999596,364.13893750001444,364.6394408000051,364.6226287999889,364.6331239999854,364.6394408000051,364.6394408000051,364.6394408000051,367.1897641000105,Foils\scenes1.jpg,none,s,2.5432857000268996,None,,,,,,,,00063,001,2026-01-19_18h40.38.986,MST_test,2024.2.0,59.87113336012009,2026-01-19 18h40.48.398795 +0530,
80,0,81,o,1.3235998000018299,None,81,0,80,367.20561539998744,,,,,,,,,,,,,,,,,,,,,,,,,,,,,,,,,,,,,,,,,,,,,,,,,,367.18986079999013,367.20561539998744,367.7059282999835,367.689374700014,367.70322829997167,367.7059282999835,367.7059282999835,367.7059282999835,369.0396466999664,Scenes\115a.jpg,pre,o,1.3235998000018299,None,,,,,,,,00063,001,2026-01-19_18h40.38.986,MST_test,2024.2.0,59.87113336012009,2026-01-19 18h40.48.398795 +0530,
81,0,82,s,2.714179700007662,None,82,0,81,369.0556432000012,,,,,,,,,,,,,,,,,,,,,,,,,,,,,,,,,,,,,,,,,,,,,,,,,,369.0397368000122,369.0556432000012,369.55648369999835,369.53926370001864,369.5489059999818,369.55648369999835,369.55648369999835,369.55648369999835,372.27319239999633,Objects\142a.jpg,post,s,2.714179700007662,None,,,,,,,,00063,001,2026-01-19_18h40.38.986,MST_test,2024.2.0,59.87113336012009,2026-01-19 18h40.48.398795 +0530,
82,0,83,n,3.2782305000000633,None,83,0,82,372.2889296999783,,,,,,,,,,,,,,,,,,,,,,,,,,,,,,,,,,,,,,,,,,,,,,,,,,372.2733024999616,372.2889296999783,372.7923749999609,372.77256060001673,372.79036119999364,372.7923749999609,372.7923749999609,372.7923749999609,376.0729883000022,Scenes\190b.jpg,mid,n,3.2782305000000633,None,,,,,,,,00063,001,2026-01-19_18h40.38.986,MST_test,2024.2.0,59.87113336012009,2026-01-19 18h40.48.398795 +0530,
83,0,84,s,1.5280847999965772,None,84,0,83,376.08893319999333,,,,,,,,,,,,,,,,,,,,,,,,,,,,,,,,,,,,,,,,,,,,,,,,,,376.0730829999666,376.08893319999333,376.5894471000065,376.57253459998174,376.5823788999696,376.5894471000065,376.5894471000065,376.5894471000065,378.12288169999374,Objects\159b.jpg,pre,s,1.5280847999965772,None,,,,,,,,00063,001,2026-01-19_18h40.38.986,MST_test,2024.2.0,59.87113336012009,2026-01-19 18h40.48.398795 +0530,
84,0,85,o,2.599801300035324,None,85,0,84,378.1390299999621,,,,,,,,,,,,,,,,,,,,,,,,,,,,,,,,,,,,,,,,,,,,,,,,,,378.122984000016,378.1390299999621,378.6394879000145,378.62260740000056,378.63391069998033,378.6394879000145,378.6394879000145,378.6394879000145,381.2399396999972,Scenes\179a.jpg,mid,o,2.599801300035324,None,,,,,,,,00063,001,2026-01-19_18h40.38.986,MST_test,2024.2.0,59.87113336012009,2026-01-19 18h40.48.398795 +0530,
85,0,86,o,0.9536354999872856,None,86,0,85,381.2557162999874,,,,,,,,,,,,,,,,,,,,,,,,,,,,,,,,,,,,,,,,,,,,,,,,,,381.2400368999806,381.2557162999874,381.75617259996943,381.73906200000783,381.7484400999965,381.75617259996943,381.75617259996943,381.75617259996943,382.7231332999654,Objects\004a.jpg,pre,o,0.9536354999872856,None,,,,,,,,00063,001,2026-01-19_18h40.38.986,MST_test,2024.2.0,59.87113336012009,2026-01-19 18h40.48.398795 +0530,
86,0,87,s,1.3669831000152044,None,87,0,86,382.7389194999705,,,,,,,,,,,,,,,,,,,,,,,,,,,,,,,,,,,,,,,,,,,,,,,,,,382.72322659997735,382.7389194999705,383.23920579999685,383.22264599998016,383.23175009997794,383.23920579999685,383.23920579999685,383.23920579999685,384.62297019996913,Objects\110b.jpg,mid,s,1.3669831000152044,None,,,,,,,,00063,001,2026-01-19_18h40.38.986,MST_test,2024.2.0,59.87113336012009,2026-01-19 18h40.48.398795 +0530,
87,0,88,n,2.8345845000003465,None,88,0,87,384.6388726999867,,,,,,,,,,,,,,,,,,,,,,,,,,,,,,,,,,,,,,,,,,,,,,,,,,384.6230617999681,384.6388726999867,385.1394941000035,385.1226711999625,385.1351675000042,385.1394941000035,385.1394941000035,385.1394941000035,387.98944689997006,Scenes\154b.jpg,mid,n,2.8345845000003465,None,,,,,,,,00063,001,2026-01-19_18h40.38.986,MST_test,2024.2.0,59.87113336012009,2026-01-19 18h40.48.398795 +0530,
88,0,89,o,1.876019500021357,None,89,0,88,388.00569909997284,,,,,,,,,,,,,,,,,,,,,,,,,,,,,,,,,,,,,,,,,,,,,,,,,,387.9895508000045,388.00569909997284,388.5060766999959,388.4892024999717,388.4982467999798,388.5060766999959,388.5060766999959,388.5060766999959,390.38943989999825,Objects\038a.jpg,mid,o,1.876019500021357,None,,,,,,,,00063,001,2026-01-19_18h40.38.986,MST_test,2024.2.0,59.87113336012009,2026-01-19 18h40.48.398795 +0530,
89,0,90,n,2.8283903000410646,None,90,0,89,390.40557609999087,,,,,,,,,,,,,,,,,,,,,,,,,,,,,,,,,,,,,,,,,,,,,,,,,,390.38953479996417,390.40557609999087,390.90608609997435,390.8891403999878,390.90255110000726,390.90608609997435,390.90608609997435,390.90608609997435,393.73951240000315,Scenes\177a.jpg,mid,n,2.8283903000410646,None,,,,,,,,00063,001,2026-01-19_18h40.38.986,MST_test,2024.2.0,59.87113336012009,2026-01-19 18h40.48.398795 +0530,
90,0,91,n,4.902314799954183,None,91,0,90,393.75554019998526,,,,,,,,,,,,,,,,,,,,,,,,,,,,,,,,,,,,,,,,,,,,,,,,,,393.73960430000443,393.75554019998526,394.2559850999969,394.2390323000145,394.24737399996957,394.2559850999969,394.2559850999969,394.2559850999969,399.17279360000975,Foils\scenes29.jpg,none,n,4.902314799954183,None,,,,,,,,00063,001,2026-01-19_18h40.38.986,MST_test,2024.2.0,59.87113336012009,2026-01-19 18h40.48.398795 +0530,
91,0,92,n,1.2125929000321776,None,92,0,91,399.1888612000039,,,,,,,,,,,,,,,,,,,,,,,,,,,,,,,,,,,,,,,,,,,,,,,,,,399.172882999992,399.1888612000039,399.6892615999677,399.6726389999967,399.6860078999889,399.6892615999677,399.6892615999677,399.6892615999677,400.9068646999658,Scenes\178b.jpg,post,n,1.2125929000321776,None,,,,,,,,00063,001,2026-01-19_18h40.38.986,MST_test,2024.2.0,59.87113336012009,2026-01-19 18h40.48.398795 +0530,
92,0,93,s,2.743024700030219,None,93,0,92,400.92222269997,,,,,,,,,,,,,,,,,,,,,,,,,,,,,,,,,,,,,,,,,,,,,,,,,,400.90695749997394,400.92222269997,401.4227236000006,401.40599629998906,401.4157089999644,401.4227236000006,401.4227236000006,401.4227236000006,404.1728621000075,Objects\081a.jpg,pre,s,2.743024700030219,None,,,,,,,,00063,001,2026-01-19_18h40.38.986,MST_test,2024.2.0,59.87113336012009,2026-01-19 18h40.48.398795 +0530,
93,0,94,o,3.8770596000249498,None,94,0,93,404.18871849996503,,,,,,,,,,,,,,,,,,,,,,,,,,,,,,,,,,,,,,,,,,,,,,,,,,404.1729546000133,404.18871849996503,404.6893713999889,404.6729241000139,404.6845665000146,404.6893713999889,404.6893713999889,404.6893713999889,408.57295140001224,Scenes\166a.jpg,post,o,3.8770596000249498,None,,,,,,,,00063,001,2026-01-19_18h40.38.986,MST_test,2024.2.0,59.87113336012009,2026-01-19 18h40.48.398795 +0530,
94,0,95,o,1.2100535000208765,None,95,0,94,408.588867799961,,,,,,,,,,,,,,,,,,,,,,,,,,,,,,,,,,,,,,,,,,,,,,,,,,408.5730451999698,408.588867799961,409.092185699963,409.0725291999988,409.0901116000023,409.092185699963,409.092185699963,409.092185699963,410.3061510999687,Scenes\031b.jpg,pre,o,1.2100535000208765,None,,,,,,,,00063,001,2026-01-19_18h40.38.986,MST_test,2024.2.0,59.87113336012009,2026-01-19 18h40.48.398795 +0530,
95,0,96,s,1.630848100001458,None,96,0,95,410.32227999996394,,,,,,,,,,,,,,,,,,,,,,,,,,,,,,,,,,,,,,,,,,,,,,,,,,410.30624160001753,410.32227999996394,410.8227318999707,410.80577789997915,410.8157079999801,410.8227318999707,410.8227318999707,410.8227318999707,412.45639830001164,Objects\005a.jpg,post,s,1.630848100001458,None,,,,,,,,00063,001,2026-01-19_18h40.38.986,MST_test,2024.2.0,59.87113336012009,2026-01-19 18h40.48.398795 +0530,
96,0,97,n,1.6577687000390142,None,97,0,96,412.4722160999663,,,,,,,,,,,,,,,,,,,,,,,,,,,,,,,,,,,,,,,,,,,,,,,,,,412.4564932999783,412.4722160999663,412.97291459998814,412.9557795000146,412.9707177999662,412.97291459998814,412.97291459998814,412.97291459998814,414.63965329999337,Scenes\182b.jpg,pre,n,1.6577687000390142,None,,,,,,,,00063,001,2026-01-19_18h40.38.986,MST_test,2024.2.0,59.87113336012009,2026-01-19 18h40.48.398795 +0530,
97,0,98,s,2.432123899983708,None,98,0,97,414.6555982999853,,,,,,,,,,,,,,,,,,,,,,,,,,,,,,,,,,,,,,,,,,,,,,,,,,414.6397506999783,414.6555982999853,415.15856519999215,415.1391171999858,415.15633059997344,415.15856519999215,415.15856519999215,415.15856519999215,417.6061813000124,Scenes\114a.jpg,pre,s,2.432123899983708,None,,,,,,,,00063,001,2026-01-19_18h40.38.986,MST_test,2024.2.0,59.87113336012009,2026-01-19 18h40.48.398795 +0530,
98,0,99,s,1.411586600006558,None,99,0,98,417.6222648000112,,,,,,,,,,,,,,,,,,,,,,,,,,,,,,,,,,,,,,,,,,,,,,,,,,417.60627170000225,417.6222648000112,418.12269689998357,418.106275499973,418.1160877000075,418.12269689998357,418.12269689998357,418.12269689998357,419.53968609997537,Objects\018a.jpg,post,s,1.411586600006558,None,,,,,,,,00063,001,2026-01-19_18h40.38.986,MST_test,2024.2.0,59.87113336012009,2026-01-19 18h40.48.398795 +0530,
99,0,100,s,3.975085499987472,None,100,0,99,419.5555736999959,,,,,,,,,,,,,,,,,,,,,,,,,,,,,,,,,,,,,,,,,,,,,,,,,,419.5397799999919,419.5555736999959,420.0559472999885,420.0390671999776,420.04744529997697,420.0559472999885,420.0559472999885,420.0559472999885,424.0394834000035,Foils\scenes3.jpg,none,s,3.975085499987472,None,,,,,,,,00063,001,2026-01-19_18h40.38.986,MST_test,2024.2.0,59.87113336012009,2026-01-19 18h40.48.398795 +0530,
100,0,101,o,1.414658399997279,None,101,0,100,424.0556077999645,,,,,,,,,,,,,,,,,,,,,,,,,,,,,,,,,,,,,,,,,,,,,,,,,,424.03957570000784,424.0556077999645,424.55932920001214,424.53909129998647,424.5574301999877,424.55932920001214,424.55932920001214,424.55932920001214,425.98967310000444,Scenes\134a.jpg,post,o,1.414658399997279,None,,,,,,,,00063,001,2026-01-19_18h40.38.986,MST_test,2024.2.0,59.87113336012009,2026-01-19 18h40.48.398795 +0530,
101,0,102,o,1.603584900032729,None,102,0,101,426.00571459997445,,,,,,,,,,,,,,,,,,,,,,,,,,,,,,,,,,,,,,,,,,,,,,,,,,425.989773600013,426.00571459997445,426.5061180999619,426.48910979996435,426.49844180000946,426.5061180999619,426.5061180999619,426.5061180999619,428.1230248999782,Scenes\097a.jpg,pre,o,1.603584900032729,None,,,,,,,,00063,001,2026-01-19_18h40.38.986,MST_test,2024.2.0,59.87113336012009,2026-01-19 18h40.48.398795 +0530,
102,0,103,s,1.582543500000611,None,103,0,102,428.13882900000317,,,,,,,,,,,,,,,,,,,,,,,,,,,,,,,,,,,,,,,,,,,,,,,,,,428.12311869999394,428.13882900000317,428.63911549997283,428.6226744999876,428.6321306999889,428.63911549997283,428.63911549997283,428.63911549997283,430.2229358999757,Objects\062a.jpg,post,s,1.582543500000611,None,,,,,,,,00063,001,2026-01-19_18h40.38.986,MST_test,2024.2.0,59.87113336012009,2026-01-19 18h40.48.398795 +0530,
103,0,104,n,2.355203499959316,None,104,0,103,430.2388121999684,,,,,,,,,,,,,,,,,,,,,,,,,,,,,,,,,,,,,,,,,,,,,,,,,,430.22302789997775,430.2388121999684,430.7390832999954,430.72253009997075,430.73141319997376,430.7390832999954,430.7390832999954,430.7390832999954,433.1061380999745,Foils\093b.jpg,none,n,2.355203499959316,None,,,,,,,,00063,001,2026-01-19_18h40.38.986,MST_test,2024.2.0,59.87113336012009,2026-01-19 18h40.48.398795 +0530,
104,0,105,o,1.1858268000069074,None,105,0,104,433.122315399989,,,,,,,,,,,,,,,,,,,,,,,,,,,,,,,,,,,,,,,,,,,,,,,,,,433.106240299996,433.122315399989,433.6281251999899,433.6058536999626,433.6260524999816,433.6281251999899,433.6281251999899,433.6281251999899,434.8230249999906,Scenes\034a.jpg,pre,o,1.1858268000069074,None,,,,,,,,00063,001,2026-01-19_18h40.38.986,MST_test,2024.2.0,59.87113336012009,2026-01-19 18h40.48.398795 +0530,
105,0,106,n,1.0027821999974549,None,106,0,105,434.83882319997065,,,,,,,,,,,,,,,,,,,,,,,,,,,,,,,,,,,,,,,,,,,,,,,,,,434.8231222999748,434.83882319997065,435.33946149999974,435.3224898999906,435.3320213999832,435.33946149999974,435.33946149999974,435.33946149999974,436.35616039996967,Objects\132a.jpg,mid,n,1.0027821999974549,None,,,,,,,,00063,001,2026-01-19_18h40.38.986,MST_test,2024.2.0,59.87113336012009,2026-01-19 18h40.48.398795 +0530,
106,0,107,o,2.2372872999985702,None,107,0,106,436.37229249998927,,,,,,,,,,,,,,,,,,,,,,,,,,,,,,,,,,,,,,,,,,,,,,,,,,436.3562510999618,436.37229249998927,436.87253469997086,436.85595110000577,436.86478379997425,436.87253469997086,436.87253469997086,436.87253469997086,439.12302090000594,Objects\046b.jpg,mid,o,2.2372872999985702,None,,,,,,,,00063,001,2026-01-19_18h40.38.986,MST_test,2024.2.0,59.87113336012009,2026-01-19 18h40.48.398795 +0530,
107,0,108,o,1.9593809000216424,None,108,0,107,439.13881699997,,,,,,,,,,,,,,,,,,,,,,,,,,,,,,,,,,,,,,,,,,,,,,,,,,439.12311559997033,439.13881699997,439.6391502000042,439.6226362999878,439.6321483000065,439.6391502000042,439.6391502000042,439.6391502000042,441.60612010001205,Objects\002b.jpg,post,o,1.9593809000216424,None,,,,,,,,00063,001,2026-01-19_18h40.38.986,MST_test,2024.2.0,59.87113336012009,2026-01-19 18h40.48.398795 +0530,
108,0,109,s,1.2916245000087656,None,109,0,108,441.6222745999694,,,,,,,,,,,,,,,,,,,,,,,,,,,,,,,,,,,,,,,,,,,,,,,,,,441.6062101999996,441.6222745999694,442.1224427999696,442.10599119996186,442.11558300000615,442.1224427999696,442.1224427999696,442.1224427999696,443.4229638999677,Objects\063b.jpg,pre,s,1.2916245000087656,None,,,,,,,,00063,001,2026-01-19_18h40.38.986,MST_test,2024.2.0,59.87113336012009,2026-01-19 18h40.48.398795 +0530,
109,0,110,s,2.9952568999724463,None,110,0,109,443.4387901999871,,,,,,,,,,,,,,,,,,,,,,,,,,,,,,,,,,,,,,,,,,,,,,,,,,443.42306010000175,443.4387901999871,443.9390427999897,443.92254060000414,443.93152899999404,443.9390427999897,443.9390427999897,443.9390427999897,446.93929700000444,Foils\065a.jpg,none,s,2.9952568999724463,None,,,,,,,,00063,001,2026-01-19_18h40.38.986,MST_test,2024.2.0,59.87113336012009,2026-01-19 18h40.48.398795 +0530,
110,0,111,o,1.8222510000341572,None,111,0,110,446.9556414000108,,,,,,,,,,,,,,,,,,,,,,,,,,,,,,,,,,,,,,,,,,,,,,,,,,446.9393890000065,446.9556414000108,447.4558333000168,447.43899950000923,447.44749449996743,447.4558333000168,447.4558333000168,447.4558333000168,449.28953999996884,Objects\001a.jpg,mid,o,1.8222510000341572,None,,,,,,,,00063,001,2026-01-19_18h40.38.986,MST_test,2024.2.0,59.87113336012009,2026-01-19 18h40.48.398795 +0530,
111,0,112,n,2.407478799985256,None,112,0,111,449.3057301999652,,,,,,,,,,,,,,,,,,,,,,,,,,,,,,,,,,,,,,,,,,,,,,,,,,449.2896297000116,449.3057301999652,449.806430800003,449.78940409998177,449.8042631999706,449.806430800003,449.806430800003,449.806430800003,452.22317309997743,Scenes\039b.jpg,post,n,2.407478799985256,None,,,,,,,,00063,001,2026-01-19_18h40.38.986,MST_test,2024.2.0,59.87113336012009,2026-01-19 18h40.48.398795 +0530,
112,0,113,n,5.474050700024236,None,113,0,112,452.23893910000334,,,,,,,,,,,,,,,,,,,,,,,,,,,,,,,,,,,,,,,,,,,,,,,,,,452.22327529999893,452.23893910000334,452.7395280000055,452.7228042999632,452.7319368000026,452.7395280000055,452.7395280000055,452.7395280000055,458.22299089998705,Foils\scenes7.jpg,none,n,5.474050700024236,None,,,,,,,,00063,001,2026-01-19_18h40.38.986,MST_test,2024.2.0,59.87113336012009,2026-01-19 18h40.48.398795 +0530,
113,0,114,s,1.5785475999582559,None,114,0,113,458.2389258000185,,,,,,,,,,,,,,,,,,,,,,,,,,,,,,,,,,,,,,,,,,,,,,,,,,458.2230833999929,458.2389258000185,458.73926399997436,458.72270059998846,458.73216020001564,458.73926399997436,458.73926399997436,458.73926399997436,460.3229832999641,Objects\114a.jpg,pre,s,1.5785475999582559,None,,,,,,,,00063,001,2026-01-19_18h40.38.986,MST_test,2024.2.0,59.87113336012009,2026-01-19 18h40.48.398795 +0530,
114,0,115,o,1.5500369000365026,None,115,0,114,460.33894559997134,,,,,,,,,,,,,,,,,,,,,,,,,,,,,,,,,,,,,,,,,,,,,,,,,,460.32307400001446,460.33894559997134,460.8402863999945,460.8227333999821,460.83819939999375,460.8402863999945,460.8402863999945,460.8402863999945,462.4063237999799,Scenes\131a.jpg,post,o,1.5500369000365026,None,,,,,,,,00063,001,2026-01-19_18h40.38.986,MST_test,2024.2.0,59.87113336012009,2026-01-19 18h40.48.398795 +0530,
115,0,116,o,1.5870742999832146,None,116,0,115,462.4223554999917,,,,,,,,,,,,,,,,,,,,,,,,,,,,,,,,,,,,,,,,,,,,,,,,,,462.4064283000189,462.4223554999917,462.9230241999612,462.90599449997535,462.9186871999991,462.9230241999612,462.9230241999612,462.9230241999612,464.5231768999947,Scenes\191a.jpg,mid,o,1.5870742999832146,None,,,,,,,,00063,001,2026-01-19_18h40.38.986,MST_test,2024.2.0,59.87113336012009,2026-01-19 18h40.48.398795 +0530,
116,0,117,n,1.6459897000459023,None,117,0,116,464.538841600006,,,,,,,,,,,,,,,,,,,,,,,,,,,,,,,,,,,,,,,,,,,,,,,,,,464.5232809999725,464.538841600006,465.039566499996,465.02265449997503,465.03338999999687,465.039566499996,465.039566499996,465.039566499996,466.6897128999699,Objects\067b.jpg,mid,n,1.6459897000459023,None,,,,,,,,00063,001,2026-01-19_18h40.38.986,MST_test,2024.2.0,59.87113336012009,2026-01-19 18h40.48.398795 +0530,
117,0,118,n,1.2642749000224285,None,118,0,117,466.70564429997467,,,,,,,,,,,,,,,,,,,,,,,,,,,,,,,,,,,,,,,,,,,,,,,,,,466.68980749999173,466.70564429997467,467.20590309996624,467.1894114000024,467.19848099997034,467.20590309996624,467.20590309996624,467.20590309996624,468.4729794000159,Objects\131b.jpg,mid,n,1.2642749000224285,None,,,,,,,,00063,001,2026-01-19_18h40.38.986,MST_test,2024.2.0,59.87113336012009,2026-01-19 18h40.48.398795 +0530,
118,0,119,n,1.2590011999709532,None,119,0,118,468.489004699979,,,,,,,,,,,,,,,,,,,,,,,,,,,,,,,,,,,,,,,,,,,,,,,,,,468.4730809999746,468.489004699979,469.21098189998884,468.9727136999718,469.20637369999895,469.21098189998884,469.21098189998884,469.21098189998884,470.4732799999765,Foils\scenes26.jpg,none,n,1.2590011999709532,None,,,,,,,,00063,001,2026-01-19_18h40.38.986,MST_test,2024.2.0,59.87113336012009,2026-01-19 18h40.48.398795 +0530,
119,0,120,n,2.0303120999597013,None,120,0,119,470.4891678999993,,,,,,,,,,,,,,,,,,,,,,,,,,,,,,,,,,,,,,,,,,,,,,,,,,470.47337560000597,470.4891678999993,471.02435379999224,470.9726755999727,471.02230650000274,471.02435379999224,471.02435379999224,471.02435379999224,473.0564072999987,Scenes\126b.jpg,pre,n,2.0303120999597013,None,,,,,,,,00063,001,2026-01-19_18h40.38.986,MST_test,2024.2.0,59.87113336012009,2026-01-19 18h40.48.398795 +0530,
120,0,121,s,2.2805855000042357,None,121,0,120,473.07237979996717,,,,,,,,,,,,,,,,,,,,,,,,,,,,,,,,,,,,,,,,,,,,,,,,,,473.0565001000068,473.07237979996717,473.57292939996114,473.55585030000657,473.56968259997666,473.57292939996114,473.57292939996114,473.57292939996114,475.85623749997467,Scenes\007b.jpg,pre,s,2.2805855000042357,None,,,,,,,,00063,001,2026-01-19_18h40.38.986,MST_test,2024.2.0,59.87113336012009,2026-01-19 18h40.48.398795 +0530,
121,0,122,o,1.3848062999895774,None,122,0,121,475.8723727000179,,,,,,,,,,,,,,,,,,,,,,,,,,,,,,,,,,,,,,,,,,,,,,,,,,475.85633769998094,475.8723727000179,476.37274839996826,476.3560900000157,476.3668161999667,476.37274839996826,476.37274839996826,476.37274839996826,477.7730412000092,Scenes\022a.jpg,post,o,1.3848062999895774,None,,,,,,,,00063,001,2026-01-19_18h40.38.986,MST_test,2024.2.0,59.87113336012009,2026-01-19 18h40.48.398795 +0530,
122,0,123,o,1.028244299988728,None,123,0,122,477.7889318999951,,,,,,,,,,,,,,,,,,,,,,,,,,,,,,,,,,,,,,,,,,,,,,,,,,477.7731402000063,477.7889318999951,478.2894529000041,478.27259239996783,478.2821682000067,478.2894529000041,478.2894529000041,478.2894529000041,479.32297179999296,Objects\185a.jpg,mid,o,1.028244299988728,None,,,,,,,,00063,001,2026-01-19_18h40.38.986,MST_test,2024.2.0,59.87113336012009,2026-01-19 18h40.48.398795 +0530,
123,0,124,n,1.111283199978061,None,124,0,123,479.33898130001035,,,,,,,,,,,,,,,,,,,,,,,,,,,,,,,,,,,,,,,,,,,,,,,,,,479.32306289998814,479.33898130001035,479.83921489998465,479.8226840000134,479.8323015999631,479.83921489998465,479.83921489998465,479.83921489998465,480.9562377000111,Objects\047b.jpg,mid,n,1.111283199978061,None,,,,,,,,00063,001,2026-01-19_18h40.38.986,MST_test,2024.2.0,59.87113336012009,2026-01-19 18h40.48.398795 +0530,
124,0,125,o,2.148191799991764,None,125,0,124,480.97240829997463,,,,,,,,,,,,,,,,,,,,,,,,,,,,,,,,,,,,,,,,,,,,,,,,,,480.95633879996603,480.97240829997463,481.4736478999839,481.4559422999737,481.47138860000996,481.4736478999839,481.4736478999839,481.4736478999839,483.6229270999902,Foils\scenes27.jpg,none,o,2.148191799991764,None,,,,,,,,00063,001,2026-01-19_18h40.38.986,MST_test,2024.2.0,59.87113336012009,2026-01-19 18h40.48.398795 +0530,
125,0,126,o,5.0793729000142775,None,126,0,125,483.6390549999778,,,,,,,,,,,,,,,,,,,,,,,,,,,,,,,,,,,,,,,,,,,,,,,,,,483.62302339996677,483.6390549999778,484.14236820000224,484.1227937999647,484.1401489999844,484.14236820000224,484.14236820000224,484.14236820000224,489.223024100007,Scenes\136b.jpg,pre,o,5.0793729000142775,None,,,,,,,,00063,001,2026-01-19_18h40.38.986,MST_test,2024.2.0,59.87113336012009,2026-01-19 18h40.48.398795 +0530,
126,0,127,s,1.546754399954807,None,127,0,126,489.23898560000816,,,,,,,,,,,,,,,,,,,,,,,,,,,,,,,,,,,,,,,,,,,,,,,,,,489.2231162000098,489.23898560000816,489.7396734000067,489.72274180001114,489.73418879997917,489.7396734000067,489.7396734000067,489.7396734000067,491.28968429996166,Objects\146b.jpg,mid,s,1.546754399954807,None,,,,,,,,00063,001,2026-01-19_18h40.38.986,MST_test,2024.2.0,59.87113336012009,2026-01-19 18h40.48.398795 +0530,
127,0,128,o,1.8956700999988243,None,128,0,127,491.30577609996544,,,,,,,,,,,,,,,,,,,,,,,,,,,,,,,,,,,,,,,,,,,,,,,,,,491.28977979999036,491.30577609996544,491.8059576000087,491.78985150001245,491.80358810001053,491.8059576000087,491.8059576000087,491.8059576000087,493.7062496999861,Scenes\117a.jpg,pre,o,1.8956700999988243,None,,,,,,,,00063,001,2026-01-19_18h40.38.986,MST_test,2024.2.0,59.87113336012009,2026-01-19 18h40.48.398795 +0530,
128,0,129,o,1.4632677999907173,None,129,0,128,493.72242589999223,,,,,,,,,,,,,,,,,,,,,,,,,,,,,,,,,,,,,,,,,,,,,,,,,,493.7063419999904,493.72242589999223,494.2228758999845,494.2060070000007,494.2153978999704,494.2228758999845,494.2228758999845,494.2228758999845,495.6896503000171,Objects\163a.jpg,pre,o,1.4632677999907173,None,,,,,,,,00063,001,2026-01-19_18h40.38.986,MST_test,2024.2.0,59.87113336012009,2026-01-19 18h40.48.398795 +0530,
129,0,130,n,2.1365460999659263,None,130,0,129,495.70572769996943,,,,,,,,,,,,,,,,,,,,,,,,,,,,,,,,,,,,,,,,,,,,,,,,,,495.6897481000051,495.70572769996943,496.2059225999983,496.1892155999667,496.1979885000037,496.2059225999983,496.2059225999983,496.2059225999983,498.3561902999645,Foils\113a.jpg,none,n,2.1365460999659263,None,,,,,,,,00063,001,2026-01-19_18h40.38.986,MST_test,2024.2.0,59.87113336012009,2026-01-19 18h40.48.398795 +0530,
130,0,131,o,1.2811840000213124,None,131,0,130,498.3723939000047,,,,,,,,,,,,,,,,,,,,,,,,,,,,,,,,,,,,,,,,,,,,,,,,,,498.3562807000126,498.3723939000047,498.87631520000286,498.8561730000074,498.874229500012,498.87631520000286,498.87631520000286,498.87631520000286,500.1729339999729,Scenes\059a.jpg,post,o,1.2811840000213124,None,,,,,,,,00063,001,2026-01-19_18h40.38.986,MST_test,2024.2.0,59.87113336012009,2026-01-19 18h40.48.398795 +0530,
131,0,132,s,4.338884899974801,None,132,0,131,500.1890847000177,,,,,,,,,,,,,,,,,,,,,,,,,,,,,,,,,,,,,,,,,,,,,,,,,,500.17302980000386,500.1890847000177,500.69070749997627,500.6726484000101,500.68848770001205,500.69070749997627,500.69070749997627,500.69070749997627,505.04029239999363,Scenes\092a.jpg,pre,s,4.338884899974801,None,,,,,,,,00063,001,2026-01-19_18h40.38.986,MST_test,2024.2.0,59.87113336012009,2026-01-19 18h40.48.398795 +0530,
132,0,133,n,1.22668550000526,None,133,0,132,505.0556213000091,,,,,,,,,,,,,,,,,,,,,,,,,,,,,,,,,,,,,,,,,,,,,,,,,,505.0403923999984,505.0556213000091,505.5559353000135,505.5391224999912,505.54824269999517,505.5559353000135,505.5559353000135,505.5559353000135,506.78983700001845,Foils\097a.jpg,none,n,1.22668550000526,None,,,,,,,,00063,001,2026-01-19_18h40.38.986,MST_test,2024.2.0,59.87113336012009,2026-01-19 18h40.48.398795 +0530,
133,0,134,s,1.3440849999897182,None,134,0,133,506.8056132000056,,,,,,,,,,,,,,,,,,,,,,,,,,,,,,,,,,,,,,,,,,,,,,,,,,506.78994019998936,506.8056132000056,507.3102482999675,507.2892625000095,507.3080590000027,507.3102482999675,507.3102482999675,507.3102482999675,508.6559493999812,Scenes\012b.jpg,post,s,1.3440849999897182,None,,,,,,,,00063,001,2026-01-19_18h40.38.986,MST_test,2024.2.0,59.87113336012009,2026-01-19 18h40.48.398795 +0530,
134,0,135,s,3.584763600025326,None,135,0,134,508.67228810000233,,,,,,,,,,,,,,,,,,,,,,,,,,,,,,,,,,,,,,,,,,,,,,,,,,508.6560409999802,508.67228810000233,509.1727911999915,509.15584209997905,509.1655671999906,509.1727911999915,509.1727911999915,509.1727911999915,512.758468999993,Objects\045a.jpg,mid,s,3.584763600025326,None,,,,,,,,00063,001,2026-01-19_18h40.38.986,MST_test,2024.2.0,59.87113336012009,2026-01-19 18h40.48.398795 +0530,
135,0,136,o,1.8768966000061482,None,136,0,135,512.7722426999826,,,,,,,,,,,,,,,,,,,,,,,,,,,,,,,,,,,,,,,,,,,,,,,,,,512.7585664999788,512.7722426999826,513.2728660000139,513.2557280999608,513.2697947999695,513.2728660000139,513.2728660000139,513.2728660000139,515.1562189999968,Scenes\037b.jpg,post,o,1.8768966000061482,None,,,,,,,,00063,001,2026-01-19_18h40.38.986,MST_test,2024.2.0,59.87113336012009,2026-01-19 18h40.48.398795 +0530,
136,0,137,o,2.466355500044301,None,137,0,136,515.1723042000085,,,,,,,,,,,,,,,,,,,,,,,,,,,,,,,,,,,,,,,,,,,,,,,,,,515.1563190000015,515.1723042000085,515.675865600002,515.655787799973,515.6737179000047,515.675865600002,515.675865600002,515.675865600002,518.1561520000105,Scenes\145b.jpg,mid,o,2.466355500044301,None,,,,,,,,00063,001,2026-01-19_18h40.38.986,MST_test,2024.2.0,59.87113336012009,2026-01-19 18h40.48.398795 +0530,
137,0,138,s,3.7808564999722876,None,138,0,137,518.1722701999824,,,,,,,,,,,,,,,,,,,,,,,,,,,,,,,,,,,,,,,,,,,,,,,,,,518.1562479999848,518.1722701999824,518.6727814999758,518.655928799999,518.6654331000173,518.6727814999758,518.6727814999758,518.6727814999758,522.4560790999676,Objects\156b.jpg,post,s,3.7808564999722876,None,,,,,,,,00063,001,2026-01-19_18h40.38.986,MST_test,2024.2.0,59.87113336012009,2026-01-19 18h40.48.398795 +0530,
138,0,139,n,3.201657300000079,None,139,0,138,522.4722488999832,,,,,,,,,,,,,,,,,,,,,,,,,,,,,,,,,,,,,,,,,,,,,,,,,,522.4561718999757,522.4722488999832,522.9724898000131,522.9560014000162,522.9656930000056,522.9724898000131,522.9724898000131,522.9724898000131,526.1895815000171,Objects\011b.jpg,pre,n,3.201657300000079,None,,,,,,,,00063,001,2026-01-19_18h40.38.986,MST_test,2024.2.0,59.87113336012009,2026-01-19 18h40.48.398795 +0530,
139,0,140,o,3.7771685000043362,None,140,0,139,526.2055693999864,,,,,,,,,,,,,,,,,,,,,,,,,,,,,,,,,,,,,,,,,,,,,,,,,,526.1896735999617,526.2055693999864,526.7084736999823,526.6892279000022,526.7065390999778,526.7084736999823,526.7084736999823,526.7084736999823,530.4895265999949,Scenes\011b.jpg,post,o,3.7771685000043362,None,,,,,,,,00063,001,2026-01-19_18h40.38.986,MST_test,2024.2.0,59.87113336012009,2026-01-19 18h40.48.398795 +0530,
140,0,141,o,5.463720799947623,None,141,0,140,530.5054826000123,,,,,,,,,,,,,,,,,,,,,,,,,,,,,,,,,,,,,,,,,,,,,,,,,,530.4896294999635,530.5054826000123,531.006395799981,530.9891630999628,531.0039674,531.006395799981,531.006395799981,531.006395799981,536.4729574999656,Scenes\144a.jpg,mid,o,5.463720799947623,None,,,,,,,,00063,001,2026-01-19_18h40.38.986,MST_test,2024.2.0,59.87113336012009,2026-01-19 18h40.48.398795 +0530,
141,0,142,o,2.32920620002551,None,142,0,141,536.4889150999952,,,,,,,,,,,,,,,,,,,,,,,,,,,,,,,,,,,,,,,,,,,,,,,,,,536.4730634000152,536.4889150999952,536.9894080999657,536.9725063999649,536.9829214999918,536.9894080999657,536.9894080999657,536.9894080999657,539.3229072999675,Objects\104a.jpg,post,o,2.32920620002551,None,,,,,,,,00063,001,2026-01-19_18h40.38.986,MST_test,2024.2.0,59.87113336012009,2026-01-19 18h40.48.398795 +0530,
142,0,143,s,2.5489178000134416,None,143,0,142,539.3389643999981,,,,,,,,,,,,,,,,,,,,,,,,,,,,,,,,,,,,,,,,,,,,,,,,,,539.3229991999688,539.3389643999981,539.8406262999633,539.8226497999858,539.8385770000168,539.8406262999633,539.8406262999633,539.8406262999633,542.4060820000013,Scenes\083b.jpg,post,s,2.5489178000134416,None,,,,,,,,00063,001,2026-01-19_18h40.38.986,MST_test,2024.2.0,59.87113336012009,2026-01-19 18h40.48.398795 +0530,
143,0,144,o,1.8807336000027135,None,144,0,143,542.4223109000013,,,,,,,,,,,,,,,,,,,,,,,,,,,,,,,,,,,,,,,,,,,,,,,,,,542.4061767999665,542.4223109000013,542.9252672999864,542.9058116999804,542.9231447000057,542.9252672999864,542.9252672999864,542.9252672999864,544.823203100008,Scenes\001a.jpg,post,o,1.8807336000027135,None,,,,,,,,00063,001,2026-01-19_18h40.38.986,MST_test,2024.2.0,59.87113336012009,2026-01-19 18h40.48.398795 +0530,
144,0,145,s,1.5116566000506282,None,145,0,144,544.8389913999708,,,,,,,,,,,,,,,,,,,,,,,,,,,,,,,,,,,,,,,,,,,,,,,,,,544.8233025000081,544.8389913999708,545.3429105000105,545.3226355999941,545.3408248999622,545.3429105000105,545.3429105000105,545.3429105000105,546.8560527999653,Scenes\062a.jpg,post,s,1.5116566000506282,None,,,,,,,,00063,001,2026-01-19_18h40.38.986,MST_test,2024.2.0,59.87113336012009,2026-01-19 18h40.48.398795 +0530,
145,0,146,n,2.234115800005384,None,146,0,145,546.8722969999653,,,,,,,,,,,,,,,,,,,,,,,,,,,,,,,,,,,,,,,,,,,,,,,,,,546.8561435000156,546.8722969999653,547.3726798999705,547.3560977000161,547.3705372000113,547.3726798999705,547.3726798999705,547.3726798999705,549.6232243999839,Scenes\156b.jpg,mid,n,2.234115800005384,None,,,,,,,,00063,001,2026-01-19_18h40.38.986,MST_test,2024.2.0,59.87113336012009,2026-01-19 18h40.48.398795 +0530,
146,0,147,n,1.2981687000137754,None,147,0,146,549.6391281000106,,,,,,,,,,,,,,,,,,,,,,,,,,,,,,,,,,,,,,,,,,,,,,,,,,549.623325099994,549.6391281000106,550.1395176000078,550.1225691,550.1347736999742,550.1395176000078,550.1395176000078,550.1395176000078,551.4395182000007,Scenes\118a.jpg,pre,n,1.2981687000137754,None,,,,,,,,00063,001,2026-01-19_18h40.38.986,MST_test,2024.2.0,59.87113336012009,2026-01-19 18h40.48.398795 +0530,
147,0,148,n,2.2259792999830097,None,148,0,147,551.4555201000185,,,,,,,,,,,,,,,,,,,,,,,,,,,,,,,,,,,,,,,,,,,,,,,,,,551.4396108000074,551.4555201000185,551.956238600018,551.9392219000147,551.9487939999672,551.956238600018,551.956238600018,551.956238600018,554.1895440999651,Objects\149a.jpg,post,n,2.2259792999830097,None,,,,,,,,00063,001,2026-01-19_18h40.38.986,MST_test,2024.2.0,59.87113336012009,2026-01-19 18h40.48.398795 +0530,
148,0,149,n,1.3322333000251092,None,149,0,148,554.20576599997,,,,,,,,,,,,,,,,,,,,,,,,,,,,,,,,,,,,,,,,,,,,,,,,,,554.1896360999672,554.20576599997,554.7057988999877,554.6891581999953,554.6982379999827,554.7057988999877,554.7057988999877,554.7057988999877,556.0397903000121,Foils\018a.jpg,none,n,1.3322333000251092,None,,,,,,,,00063,001,2026-01-19_18h40.38.986,MST_test,2024.2.0,59.87113336012009,2026-01-19 18h40.48.398795 +0530,
149,0,150,n,0.9624688000185415,None,150,0,149,556.0556690999656,,,,,,,,,,,,,,,,,,,,,,,,,,,,,,,,,,,,,,,,,,,,,,,,,,556.03988940001,556.0556690999656,556.5558500000043,556.5392639999627,556.5489716000156,556.5558500000043,556.5558500000043,556.5558500000043,557.5228298999718,Objects\183b.jpg,pre,n,0.9624688000185415,None,,,,,,,,00063,001,2026-01-19_18h40.38.986,MST_test,2024.2.0,59.87113336012009,2026-01-19 18h40.48.398795 +0530,
,,,,,,,,,,,,,,,,,,,,,,,,,,,,,,,,,,,,,,,,,,,,,,,,,,,,,,,,,,,,,,,,,,,,,,,,,557.5228945999988,557.5390040999628,557.5390040999628,559.7059558999608,space,2.1558271999820136,None,00063,001,2026-01-19_18h40.38.986,MST_test,2024.2.0,59.87113336012009,2026-01-19 18h40.48.398795 +0530,
