Sl_no,image_path,thisN,thisTrialN,thisRepN,key_resp_5.keys,key_resp_5.rt,key_resp_5.duration,key_resp_7.keys,key_resp_9.keys,key_resp_9.rt,key_resp_9.duration,key_resp_8.keys,key_resp_8.rt,key_resp_8.duration,practice.thisRepN,practice.thisTrialN,practice.thisN,practice.thisIndex,trials.thisRepN,trials.thisTrialN,trials.thisN,trials.thisIndex,thisRow.t,notes,welcome_page.started,text.started,key_resp.started,welcome_page.stopped,key_resp.keys,key_resp.rt,key_resp.duration,instructions.started,ins.started,key_resp_2.started,instructions.stopped,key_resp_2.keys,key_resp_2.rt,key_resp_2.duration,objects_only_instruction.started,text_3.started,key_resp_3.started,objects_only_instruction.stopped,key_resp_3.keys,key_resp_3.rt,key_resp_3.duration,ISI.started,text_4.started,text_4.stopped,ISI.stopped,practice_block.started,image.started,key_resp_5.started,text_5.started,practice_block.stopped,practice.key_resp_5.keys,practice.key_resp_5.rt,practice.key_resp_5.duration,indoor_outdoor.started,indoor_outdoor.stopped,practice.key_resp_7.keys,image.stopped,key_resp_5.stopped,text_5.stopped,practice_to_main.started,text_2.started,key_resp_4.started,practice_to_main.stopped,key_resp_4.keys,key_resp_4.rt,key_resp_4.duration,objects.started,image_2.started,text_9.started,key_resp_9.started,objects.stopped,category,trials.key_resp_9.keys,trials.key_resp_9.rt,trials.key_resp_9.duration,encoding_task.started,encoding_task.stopped,trials.key_resp_8.keys,image_2.stopped,text_9.stopped,key_resp_9.stopped,text_8.started,key_resp_8.started,trials.key_resp_8.rt,trials.key_resp_8.duration,end_experiment.started,text_6.started,key_resp_6.started,end_experiment.stopped,key_resp_6.keys,key_resp_6.rt,key_resp_6.duration,list_of_stimuli,encoding_task_accuracy,participant,session,date,expName,psychopyVersion,frameRate,expStart,
,,,,,,,,,,,,,,,,,,,,,,,,,0.007189699999798904,0.023749499999667023,0.023749499999667023,11.274309399999765,space,11.203711199999816,None,,,,,,,,,,,,,,,,,,,,,,,,,,,,,,,,,,,,,,,,,,,,,,,,,,,,,,,,,,,,,,,,,,,,00019,001,2025-11-08_12h25.21.130,MST_task,2024.2.2,60.00250810489111,2025-11-08 12h25.26.510569 +0530,
,,,,,,,,,,,,,,,,,,,,,,,,,,,,,,,,11.27434809999977,11.290175499999805,11.290175499999805,35.056659599999875,space,23.75593979999985,None,,,,,,,,,,,,,,,,,,,,,,,,,,,,,,,,,,,,,,,,,,,,,,,,,,,,,,,,,,,,,00019,001,2025-11-08_12h25.21.130,MST_task,2024.2.2,60.00250810489111,2025-11-08 12h25.26.510569 +0530,
,,,,,,,,,,,,,,,,,,,,,,,,,,,,,,,,,,,,,,,35.056692499999826,35.07298149999997,35.07298149999997,43.7565540999999,space,8.66859439999962,None,,,,,,,,,,,,,,,,,,,,,,,,,,,,,,,,,,,,,,,,,,,,,,,,,,,,,,00019,001,2025-11-08_12h25.21.130,MST_task,2024.2.2,60.00250810489111,2025-11-08 12h25.26.510569 +0530,
9,practice_images/180a.jpg,0,0,0,f,1.430143500000213,0.13592659999994794,None,,,,,,,0,0,0,8,,,,,43.77281859999994,,,,,,,,,,,,,,,,,,,,,,,43.76319109999986,43.77281859999994,44.28943569999956,44.25637009999991,44.283818399999745,44.28943569999956,44.28943569999956,44.28943569999956,47.27284589999999,f,1.430143500000213,0.13592659999994794,47.273923999999624,47.2739360999999,None,,,,,,,,,,,,,,,,,,,,,,,,,,,,,,,,,,,,,,,00019,001,2025-11-08_12h25.21.130,MST_task,2024.2.2,60.00250810489111,2025-11-08 12h25.26.510569 +0530,
8,practice_images/178a.jpg,1,1,0,j,1.574807999999848,0.1686163000003944,None,,,,,,,0,1,1,7,,,,,47.289373599999635,,,,,,,,,,,,,,,,,,,,,,,47.27399199999991,47.289373599999635,47.806030499999906,47.772947199999635,47.78925839999965,47.806030499999906,47.806030499999906,47.806030499999906,50.78932329999998,j,1.574807999999848,0.1686163000003944,50.78935489999958,50.78936419999991,None,,,,,,,,,,,,,,,,,,,,,,,,,,,,,,,,,,,,,,,00019,001,2025-11-08_12h25.21.130,MST_task,2024.2.2,60.00250810489111,2025-11-08 12h25.26.510569 +0530,
5,practice_images/139a.jpg,2,2,0,j,0.5986296000000948,0.1263560000002144,None,,,,,,,0,2,2,4,,,,,50.80599089999987,,,,,,,,,,,,,,,,,,,,,,,50.78941829999985,50.80599089999987,51.32265839999991,51.28941939999959,51.30414129999963,51.32265839999991,51.32265839999991,51.32265839999991,54.30592349999961,j,0.5986296000000948,0.1263560000002144,54.30595709999989,54.3059661999996,None,,,,,,,,,,,,,,,,,,,,,,,,,,,,,,,,,,,,,,,00019,001,2025-11-08_12h25.21.130,MST_task,2024.2.2,60.00250810489111,2025-11-08 12h25.26.510569 +0530,
6,practice_images/158a.jpg,3,3,0,j,0.7914633999998841,0.17015170000013313,None,,,,,,,0,3,3,5,,,,,54.32258729999967,,,,,,,,,,,,,,,,,,,,,,,54.30602399999998,54.32258729999967,54.822570299999825,54.806065699999635,54.81271029999971,54.822570299999825,54.822570299999825,54.822570299999825,57.80605699999978,j,0.7914633999998841,0.17015170000013313,57.806087899999966,57.8060959999998,None,57.82251069999984,57.82251069999984,57.82251069999984,,,,,,,,,,,,,,,,,,,,,,,,,,,,,,,,,,,,00019,001,2025-11-08_12h25.21.130,MST_task,2024.2.2,60.00250810489111,2025-11-08 12h25.26.510569 +0530,
1,practice_images/013a.jpg,4,4,0,j,1.7945442000000185,0.135385099999894,None,,,,,,,0,4,4,0,,,,,57.82251069999984,,,,,,,,,,,,,,,,,,,,,,,57.806146799999624,57.82251069999984,58.33921149999969,58.30605899999955,58.324335999999676,58.33921149999969,58.33921149999969,58.33921149999969,61.32244549999996,j,1.7945442000000185,0.135385099999894,61.32249449999972,61.322504099999605,None,,,,,,,,,,,,,,,,,,,,,,,,,,,,,,,,,,,,,,,00019,001,2025-11-08_12h25.21.130,MST_task,2024.2.2,60.00250810489111,2025-11-08 12h25.26.510569 +0530,
10,practice_images/182a.jpg,5,5,0,f,2.2979615999997804,0.17014090000020587,None,,,,,,,0,5,5,9,,,,,61.33909279999989,,,,,,,,,,,,,,,,,,,,,,,61.32256739999957,61.33909279999989,61.855819899999915,61.822599999999966,61.840656299999864,61.855819899999915,61.855819899999915,61.855819899999915,64.83917939999992,f,2.2979615999997804,0.17014090000020587,64.84065759999976,64.84067089999962,None,,,,,,,,,,,,,,,,,,,,,,,,,,,,,,,,,,,,,,,00019,001,2025-11-08_12h25.21.130,MST_task,2024.2.2,60.00250810489111,2025-11-08 12h25.26.510569 +0530,
2,practice_images/031a.jpg,6,6,0,j,0.9717105999998239,0.25145000000020445,None,,,,,,,0,6,6,1,,,,,64.85576269999956,,,,,,,,,,,,,,,,,,,,,,,64.84072289999995,64.85576269999956,65.37240619999966,65.33923269999968,65.35654169999998,65.37240619999966,65.37240619999966,65.37240619999966,68.35570849999976,j,0.9717105999998239,0.25145000000020445,68.35574029999998,68.3557496999997,None,,,,,,,,,,,,,,,,,,,,,,,,,,,,,,,,,,,,,,,00019,001,2025-11-08_12h25.21.130,MST_task,2024.2.2,60.00250810489111,2025-11-08 12h25.26.510569 +0530,
7,practice_images/166a.jpg,7,7,0,f,2.154989200000273,0.1742909999998119,None,,,,,,,0,7,7,6,,,,,68.37241419999964,,,,,,,,,,,,,,,,,,,,,,,68.35580839999966,68.37241419999964,68.8890623999996,68.85591799999975,68.87153489999992,68.8890623999996,68.8890623999996,68.8890623999996,71.87231949999978,f,2.154989200000273,0.1742909999998119,71.87235459999965,71.87236449999955,None,,,,,,,,,,,,,,,,,,,,,,,,,,,,,,,,,,,,,,,00019,001,2025-11-08_12h25.21.130,MST_task,2024.2.2,60.00250810489111,2025-11-08 12h25.26.510569 +0530,
3,practice_images/037a.jpg,8,8,0,f,1.410018499999751,0.18354480000016338,None,,,,,,,0,8,8,2,,,,,71.88895799999955,,,,,,,,,,,,,,,,,,,,,,,71.8724202999997,71.88895799999955,72.40561869999965,72.37242749999996,72.38995729999988,72.40561869999965,72.40561869999965,72.40561869999965,75.38902469999994,f,1.410018499999751,0.18354480000016338,75.38905539999996,75.38906719999977,None,,,,,,,,,,,,,,,,,,,,,,,,,,,,,,,,,,,,,,,00019,001,2025-11-08_12h25.21.130,MST_task,2024.2.2,60.00250810489111,2025-11-08 12h25.26.510569 +0530,
4,practice_images/002b.jpg,9,9,0,j,1.274953000000096,0.20517759999984264,None,,,,,,,0,9,9,3,,,,,75.40554639999982,,,,,,,,,,,,,,,,,,,,,,,75.38912049999999,75.40554639999982,75.90551159999995,75.88900599999988,75.8959133999997,75.90551159999995,75.90551159999995,75.90551159999995,78.88891819999981,j,1.274953000000096,0.20517759999984264,78.88895429999957,78.88896419999992,None,78.9054498999999,78.9054498999999,78.9054498999999,,,,,,,,,,,,,,,,,,,,,,,,,,,,,,,,,,,,00019,001,2025-11-08_12h25.21.130,MST_task,2024.2.2,60.00250810489111,2025-11-08 12h25.26.510569 +0530,
,,,,,,,,,,,,,,,,,,,,,,,,,,,,,,,,,,,,,,,,,,,,,,,,,,,,,,,,,,,,,,,,78.8890022999999,78.9054498999999,78.9054498999999,107.40510349999977,space,28.48386150000033,None,,,,,,,,,,,,,,,,,,,,,,,,,,,,,00019,001,2025-11-08_12h25.21.130,MST_task,2024.2.2,60.00250810489111,2025-11-08 12h25.26.510569 +0530,
,Objects\151a.jpg,0,0,0,,,,,f,2.411026899999797,0.1416932000001907,None,,,,,,,0,0,0,0,107.42142959999956,,,,,,,,,,,,,,,,,,,,,,,107.40580899999986,107.42142959999956,107.95503889999964,107.9050428999999,,,,,,,,,,,,,,,,,,,,,,107.93792719999965,107.95503889999964,107.95503889999964,107.95503889999964,110.92151639999975,shoe,f,2.411026899999797,0.1416932000001907,110.92310339999995,110.92311559999962,None,,,,,,,,,,,,,,,,,00019,001,2025-11-08_12h25.21.130,MST_task,2024.2.2,60.00250810489111,2025-11-08 12h25.26.510569 +0530,
,Objects\095a.jpg,1,0,1,,,,,f,1.5475214999996751,0.13592510000034963,None,,,,,,,1,0,1,0,110.93798879999986,,,,,,,,,,,,,,,,,,,,,,,110.9231705999996,110.93798879999986,111.45464729999958,111.42159599999968,,,,,,,,,,,,,,,,,,,,,,111.4357616999996,111.45464729999958,111.45464729999958,111.45464729999958,114.43807549999974,shoe,f,1.5475214999996751,0.13592510000034963,114.43812149999985,114.43813239999963,None,,,,,,,,,,,,,,,,,00019,001,2025-11-08_12h25.21.130,MST_task,2024.2.2,60.00250810489111,2025-11-08 12h25.26.510569 +0530,
,Objects\309a.jpg,2,0,2,,,,,f,2.2180538999996315,0.14292650000015783,None,,,,,,,2,0,2,0,114.45463829999971,,,,,,,,,,,,,,,,,,,,,,,114.43822479999972,114.45463829999971,114.97156389999964,114.93816899999956,,,,,,,,,,,,,,,,,,,,,,114.95528709999962,114.97156389999964,114.97156389999964,114.97156389999964,117.9545364999999,shoe,f,2.2180538999996315,0.14292650000015783,117.95456989999957,117.95457889999989,None,,,,,,,,,,,,,,,,,00019,001,2025-11-08_12h25.21.130,MST_task,2024.2.2,60.00250810489111,2025-11-08 12h25.26.510569 +0530,
,Objects\263a.jpg,3,0,3,,,,,j,1.8016217000003962,0.15396609999970678,None,,,,,,,3,0,3,0,117.97119659999998,,,,,,,,,,,,,,,,,,,,,,,117.95463219999965,117.97119659999998,118.48783099999991,118.45478409999987,,,,,,,,,,,,,,,,,,,,,,118.47488789999989,118.48783099999991,118.48783099999991,118.48783099999991,121.47115589999976,shoe,j,1.8016217000003962,0.15396609999970678,121.47119309999971,121.47120219999988,None,,,,,,,,,,,,,,,,,00019,001,2025-11-08_12h25.21.130,MST_task,2024.2.2,60.00250810489111,2025-11-08 12h25.26.510569 +0530,
,Objects\165a.jpg,4,0,4,,,,,f,1.0731673999998748,0.17933270000003176,None,,,,,,,4,0,4,0,121.48779959999956,,,,,,,,,,,,,,,,,,,,,,,121.47128099999964,121.48779959999956,122.00441909999972,121.97133559999975,,,,,,,,,,,,,,,,,,,,,,121.9944773999996,122.00441909999972,122.00441909999972,122.00441909999972,124.98774249999997,shoe,f,1.0731673999998748,0.17933270000003176,124.98777829999972,124.98778719999973,None,,,,,,,,,,,,,,,,,00019,001,2025-11-08_12h25.21.130,MST_task,2024.2.2,60.00250810489111,2025-11-08 12h25.26.510569 +0530,
,Objects\206a.jpg,5,0,5,,,,,j,1.2127685000000383,0.1858723000000282,None,,,,,,,5,0,5,0,125.00435089999974,,,,,,,,,,,,,,,,,,,,,,,124.98787079999965,125.00435089999974,,125.48785829999997,,,,,,,,,,,,,,,,,,,,,,125.51207919999979,125.52100889999974,125.52100889999974,125.52100889999974,128.5043483999998,shoe,j,1.2127685000000383,0.1858723000000282,128.50438499999973,128.50439559999995,None,,,,,,,,,,,,,,,,,00019,001,2025-11-08_12h25.21.130,MST_task,2024.2.2,60.00250810489111,2025-11-08 12h25.26.510569 +0530,
,Objects\229a.jpg,6,0,6,,,,,f,1.418598799999927,0.13501690000020972,None,,,,,,,6,0,6,0,128.52096859999983,,,,,,,,,,,,,,,,,,,,,,,128.50445119999995,128.52096859999983,129.0376025999999,129.00450499999988,,,,,,,,,,,,,,,,,,,,,,129.02270009999984,129.0376025999999,129.0376025999999,129.0376025999999,132.0209190999999,shoe,f,1.418598799999927,0.13501690000020972,132.02096079999956,132.02097019999974,None,,,,,,,,,,,,,,,,,00019,001,2025-11-08_12h25.21.130,MST_task,2024.2.2,60.00250810489111,2025-11-08 12h25.26.510569 +0530,
,Objects\375a.jpg,7,0,7,,,,,j,2.04287690000001,0.13700440000002345,None,,,,,,,7,0,7,0,132.0375638999999,,,,,,,,,,,,,,,,,,,,,,,132.02102809999997,132.0375638999999,132.5541863999997,132.52106139999978,,,,,,,,,,,,,,,,,,,,,,132.54193859999987,132.5541863999997,132.5541863999997,132.5541863999997,135.53752169999962,indoor,j,2.04287690000001,0.13700440000002345,135.53880899999967,135.5388198999999,None,,,,,,,,,,,,,,,,,00019,001,2025-11-08_12h25.21.130,MST_task,2024.2.2,60.00250810489111,2025-11-08 12h25.26.510569 +0530,
,Objects\193a.jpg,8,0,8,,,,,f,1.883826499999941,0.116829499999767,None,,,,,,,8,0,8,0,135.55415779999976,,,,,,,,,,,,,,,,,,,,,,,135.53887559999976,135.55415779999976,136.0708064999999,136.0376954999997,,,,,,,,,,,,,,,,,,,,,,136.05983929999957,136.0708064999999,136.0708064999999,136.0708064999999,139.05413439999984,indoor,f,1.883826499999941,0.116829499999767,139.05417399999988,139.05418399999962,None,,,,,,,,,,,,,,,,,00019,001,2025-11-08_12h25.21.130,MST_task,2024.2.2,60.00250810489111,2025-11-08 12h25.26.510569 +0530,
,Objects\269a.jpg,9,0,9,,,,,j,2.777900000000045,0.17870230000016818,None,,,,,,,9,0,9,0,139.07074239999974,,,,,,,,,,,,,,,,,,,,,,,139.05424279999988,139.07074239999974,139.5873918999996,139.55424119999998,,,,,,,,,,,,,,,,,,,,,,139.57183049999958,139.5873918999996,139.5873918999996,139.5873918999996,142.57084039999972,indoor,j,2.777900000000045,0.17870230000016818,142.57087869999987,142.57088829999975,None,,,,,,,,,,,,,,,,,00019,001,2025-11-08_12h25.21.130,MST_task,2024.2.2,60.00250810489111,2025-11-08 12h25.26.510569 +0530,
,Objects\205a.jpg,10,0,10,,,,,f,1.062058099999831,0.16973170000028404,None,,,,,,,10,0,10,0,142.5873743999996,,,,,,,,,,,,,,,,,,,,,,,142.57094659999984,142.5873743999996,143.1039563999998,143.07081289999996,,,,,,,,,,,,,,,,,,,,,,143.0958344999999,143.1039563999998,143.1039563999998,143.1039563999998,146.08730229999992,indoor,f,1.062058099999831,0.16973170000028404,146.0873385,146.0873474,None,,,,,,,,,,,,,,,,,00019,001,2025-11-08_12h25.21.130,MST_task,2024.2.2,60.00250810489111,2025-11-08 12h25.26.510569 +0530,
,Objects\135a.jpg,11,0,11,,,,,f,1.7374337999999625,0.1417397999998684,None,,,,,,,11,0,11,0,146.10392169999977,,,,,,,,,,,,,,,,,,,,,,,146.08740439999974,146.10392169999977,,146.58739129999958,,,,,,,,,,,,,,,,,,,,,,146.6066337999996,146.62058069999966,146.62058069999966,146.62058069999966,149.60388909999983,indoor,f,1.7374337999999625,0.1417397999998684,149.60392429999956,149.6039341999999,None,,,,,,,,,,,,,,,,,00019,001,2025-11-08_12h25.21.130,MST_task,2024.2.2,60.00250810489111,2025-11-08 12h25.26.510569 +0530,
,Objects\191a.jpg,12,0,12,,,,,f,1.65452920000007,0.1753417999998419,None,,,,,,,12,0,12,0,149.6205404999996,,,,,,,,,,,,,,,,,,,,,,,149.60399089999964,149.6205404999996,150.1371511999996,150.10400409999966,,,,,,,,,,,,,,,,,,,,,,150.1247884999998,150.1371511999996,150.1371511999996,150.1371511999996,153.12049019999995,indoor,f,1.65452920000007,0.1753417999998419,153.12052669999957,153.1205356999999,None,,,,,,,,,,,,,,,,,00019,001,2025-11-08_12h25.21.130,MST_task,2024.2.2,60.00250810489111,2025-11-08 12h25.26.510569 +0530,
,Objects\187a.jpg,13,0,13,,,,,f,1.56772570000021,0.1904244999996081,None,,,,,,,13,0,13,0,153.13710149999997,,,,,,,,,,,,,,,,,,,,,,,153.12059199999976,153.13710149999997,153.6537318999999,153.62059629999976,,,,,,,,,,,,,,,,,,,,,,153.63471579999987,153.6537318999999,153.6537318999999,153.6537318999999,156.63711159999957,indoor,f,1.56772570000021,0.1904244999996081,156.6371568999998,156.63716669999985,None,,,,,,,,,,,,,,,,,00019,001,2025-11-08_12h25.21.130,MST_task,2024.2.2,60.00250810489111,2025-11-08 12h25.26.510569 +0530,
,Objects\054a.jpg,14,0,14,,,,,j,1.361597300000085,0.181847999999718,None,,,,,,,14,0,14,0,156.6536759999999,,,,,,,,,,,,,,,,,,,,,,,156.6372266999997,156.6536759999999,157.17031689999976,157.13717259999976,,,,,,,,,,,,,,,,,,,,,,157.1610552999996,157.17031689999976,157.17031689999976,157.17031689999976,160.15368059999992,shoe,j,1.361597300000085,0.181847999999718,160.1551872,160.15519909999966,None,,,,,,,,,,,,,,,,,00019,001,2025-11-08_12h25.21.130,MST_task,2024.2.2,60.00250810489111,2025-11-08 12h25.26.510569 +0530,
,Objects\061a.jpg,15,0,15,,,,,j,1.3318512999999257,0.17736599999989267,None,,,,,,,15,0,15,0,160.17025159999957,,,,,,,,,,,,,,,,,,,,,,,160.15528589999985,160.17025159999957,160.68691229999968,160.6539184999997,,,,,,,,,,,,,,,,,,,,,,160.66740629999958,160.68691229999968,160.68691229999968,160.68691229999968,163.67025799999965,shoe,j,1.3318512999999257,0.17736599999989267,163.67029589999993,163.67030529999965,None,,,,,,,,,,,,,,,,,00019,001,2025-11-08_12h25.21.130,MST_task,2024.2.2,60.00250810489111,2025-11-08 12h25.26.510569 +0530,
,Objects\370a.jpg,16,0,16,,,,,f,2.0529131999996935,0.17464230000041425,None,,,,,,,16,0,16,0,163.68687109999973,,,,,,,,,,,,,,,,,,,,,,,163.67038859999957,163.68687109999973,164.18645379999998,164.17044819999956,,,,,,,,,,,,,,,,,,,,,,164.18080519999967,164.18645379999998,164.18645379999998,164.18645379999998,167.1703934999996,shoe,f,2.0529131999996935,0.17464230000041425,167.17042739999988,167.17043559999956,None,167.1868000999998,167.1868000999998,167.1868000999998,,,,,,,,,,,,,,00019,001,2025-11-08_12h25.21.130,MST_task,2024.2.2,60.00250810489111,2025-11-08 12h25.26.510569 +0530,
,Objects\222a.jpg,17,0,17,,,,,j,1.7581184000000576,0.19468529999994644,None,,,,,,,17,0,17,0,167.1868000999998,,,,,,,,,,,,,,,,,,,,,,,167.17048689999956,167.1868000999998,167.70342439999968,167.67026389999955,,,,,,,,,,,,,,,,,,,,,,167.69626679999965,167.70342439999968,167.70342439999968,167.70342439999968,170.68674779999992,shoe,j,1.7581184000000576,0.19468529999994644,170.68678279999995,170.68679169999996,None,,,,,,,,,,,,,,,,,00019,001,2025-11-08_12h25.21.130,MST_task,2024.2.2,60.00250810489111,2025-11-08 12h25.26.510569 +0530,
,Objects\314a.jpg,18,0,18,,,,,f,1.833871299999828,0.16748950000010154,None,,,,,,,18,0,18,0,170.70339399999966,,,,,,,,,,,,,,,,,,,,,,,170.68684529999973,170.70339399999966,171.220014,171.18688499999962,,,,,,,,,,,,,,,,,,,,,,171.20911259999957,171.220014,171.220014,171.220014,174.20338679999986,shoe,f,1.833871299999828,0.16748950000010154,174.20342289999962,174.20343179999963,None,,,,,,,,,,,,,,,,,00019,001,2025-11-08_12h25.21.130,MST_task,2024.2.2,60.00250810489111,2025-11-08 12h25.26.510569 +0530,
,Objects\109a.jpg,19,0,19,,,,,j,1.6636266999998952,0.19028209999987666,None,,,,,,,19,0,19,0,174.21997949999968,,,,,,,,,,,,,,,,,,,,,,,174.20348909999984,174.21997949999968,174.73660249999966,174.7034761,,,,,,,,,,,,,,,,,,,,,,174.72818769999958,174.73660249999966,174.73660249999966,174.73660249999966,177.72004329999982,shoe,j,1.6636266999998952,0.19028209999987666,177.72008449999976,177.72009469999966,None,,,,,,,,,,,,,,,,,00019,001,2025-11-08_12h25.21.130,MST_task,2024.2.2,60.00250810489111,2025-11-08 12h25.26.510569 +0530,
,Objects\199a.jpg,20,0,20,,,,,f,2.586942100000215,0.16521800000009534,None,,,,,,,20,0,20,0,177.73657549999962,,,,,,,,,,,,,,,,,,,,,,,177.72018249999974,177.73657549999962,178.25319329999957,178.22005929999978,,,,,,,,,,,,,,,,,,,,,,178.24520109999958,178.25319329999957,178.25319329999957,178.25319329999957,181.23655309999958,shoe,f,2.586942100000215,0.16521800000009534,181.2365907999997,181.2366004999999,None,,,,,,,,,,,,,,,,,00019,001,2025-11-08_12h25.21.130,MST_task,2024.2.2,60.00250810489111,2025-11-08 12h25.26.510569 +0530,
,Objects\189a.jpg,21,0,21,,,,,f,2.369894899999963,0.17377880000003643,None,,,,,,,21,0,21,0,181.25315839999985,,,,,,,,,,,,,,,,,,,,,,,181.23666779999985,181.25315839999985,181.76978489999965,181.73666719999983,,,,,,,,,,,,,,,,,,,,,,181.7605782999999,181.76978489999965,181.76978489999965,181.76978489999965,184.75316099999964,indoor,f,2.369894899999963,0.17377880000003643,184.7542940999997,184.75430609999967,None,,,,,,,,,,,,,,,,,00019,001,2025-11-08_12h25.21.130,MST_task,2024.2.2,60.00250810489111,2025-11-08 12h25.26.510569 +0530,
,Objects\044a.jpg,22,0,22,,,,,f,1.5837357000000338,0.1694268999999622,None,,,,,,,22,0,22,0,184.76972279999973,,,,,,,,,,,,,,,,,,,,,,,184.75436049999962,184.76972279999973,185.2863766999999,185.25323509999998,,,,,,,,,,,,,,,,,,,,,,185.2727473,185.2863766999999,185.2863766999999,185.2863766999999,188.26970519999986,indoor,f,1.5837357000000338,0.1694268999999622,188.26975479999965,188.26976429999968,None,,,,,,,,,,,,,,,,,00019,001,2025-11-08_12h25.21.130,MST_task,2024.2.2,60.00250810489111,2025-11-08 12h25.26.510569 +0530,
,Objects\378a.jpg,23,0,23,,,,,j,2.0943984999998975,0.20627039999999397,None,,,,,,,23,0,23,0,188.28634079999983,,,,,,,,,,,,,,,,,,,,,,,188.26982419999968,188.28634079999983,188.80297119999977,188.76996899999995,,,,,,,,,,,,,,,,,,,,,,188.78426489999993,188.80297119999977,188.80297119999977,188.80297119999977,191.7863212999996,indoor,j,2.0943984999998975,0.20627039999999397,191.78635759999997,191.78636689999985,None,,,,,,,,,,,,,,,,,00019,001,2025-11-08_12h25.21.130,MST_task,2024.2.2,60.00250810489111,2025-11-08 12h25.26.510569 +0530,
,Objects\049a.jpg,24,0,24,,,,,f,2.073399100000188,0.1894345999999132,None,,,,,,,24,0,24,0,191.80289959999982,,,,,,,,,,,,,,,,,,,,,,,191.78642459999992,191.80289959999982,192.30251059999955,192.2864070999999,,,,,,,,,,,,,,,,,,,,,,192.29727649999995,192.30251059999955,192.30251059999955,192.30251059999955,195.28641249999964,indoor,f,2.073399100000188,0.1894345999999132,195.28644589999976,195.2864543999999,None,195.3028617,195.3028617,195.3028617,,,,,,,,,,,,,,00019,001,2025-11-08_12h25.21.130,MST_task,2024.2.2,60.00250810489111,2025-11-08 12h25.26.510569 +0530,
,Objects\105a.jpg,25,0,25,,,,,f,1.6317997999999534,0.1567049000004772,None,,,,,,,25,0,25,0,195.3028617,,,,,,,,,,,,,,,,,,,,,,,195.28650719999996,195.3028617,195.8028148999997,195.7863438999998,,,,,,,,,,,,,,,,,,,,,,195.79422299999987,195.8028148999997,195.8028148999997,195.8028148999997,198.7864184,indoor,f,1.6317997999999534,0.1567049000004772,198.78645479999977,198.78646359999948,None,198.80276950000007,198.80276950000007,198.80276950000007,,,,,,,,,,,,,,00019,001,2025-11-08_12h25.21.130,MST_task,2024.2.2,60.00250810489111,2025-11-08 12h25.26.510569 +0530,
,Objects\286a.jpg,26,0,26,,,,,j,2.7423079999998663,0.19413259999964794,None,,,,,,,26,0,26,0,198.80276950000007,,,,,,,,,,,,,,,,,,,,,,,198.7865184000002,198.80276950000007,199.31943859999956,199.28631069999938,,,,,,,,,,,,,,,,,,,,,,199.3023733,199.31943859999956,199.31943859999956,199.31943859999956,202.30276090000007,indoor,j,2.7423079999998663,0.19413259999964794,202.30279749999954,202.30280630000016,None,,,,,,,,,,,,,,,,,00019,001,2025-11-08_12h25.21.130,MST_task,2024.2.2,60.00250810489111,2025-11-08 12h25.26.510569 +0530,
,Objects\256a.jpg,27,0,27,,,,,f,1.5595731999992495,0.16970080000010057,None,,,,,,,27,0,27,0,202.31934339999952,,,,,,,,,,,,,,,,,,,,,,,202.30286479999995,202.31934339999952,202.8359959999998,202.80284119999942,,,,,,,,,,,,,,,,,,,,,,202.8239294999994,202.8359959999998,202.8359959999998,202.8359959999998,205.81934879999972,indoor,f,1.5595731999992495,0.16970080000010057,205.81938470000023,205.81939369999964,None,,,,,,,,,,,,,,,,,00019,001,2025-11-08_12h25.21.130,MST_task,2024.2.2,60.00250810489111,2025-11-08 12h25.26.510569 +0530,
,Objects\310a.jpg,28,0,28,,,,,j,1.8536225000007107,0.2170507999999245,None,,,,,,,28,0,28,0,205.8359276000001,,,,,,,,,,,,,,,,,,,,,,,205.81944750000002,205.8359276000001,206.3525823,206.31944329999988,,,,,,,,,,,,,,,,,,,,,,206.33170410000002,206.3525823,206.3525823,206.3525823,209.33590800000002,shoe,j,1.8536225000007107,0.2170507999999245,209.3373961999996,209.33740829999988,None,,,,,,,,,,,,,,,,,00019,001,2025-11-08_12h25.21.130,MST_task,2024.2.2,60.00250810489111,2025-11-08 12h25.26.510569 +0530,
,Objects\251a.jpg,29,0,29,,,,,f,1.858489300000656,0.18605469999965862,None,,,,,,,29,0,29,0,209.35256310000022,,,,,,,,,,,,,,,,,,,,,,,209.3374629,209.35256310000022,209.86920589999954,209.83611130000008,,,,,,,,,,,,,,,,,,,,,,209.85837459999948,209.86920589999954,209.86920589999954,209.86920589999954,212.8526052999996,shoe,f,1.858489300000656,0.18605469999965862,212.85264300000017,212.85265249999975,None,,,,,,,,,,,,,,,,,00019,001,2025-11-08_12h25.21.130,MST_task,2024.2.2,60.00250810489111,2025-11-08 12h25.26.510569 +0530,
,Objects\037a.jpg,30,0,30,,,,,f,1.502619599999889,0.1862449000000197,None,,,,,,,30,0,30,0,212.8691457999994,,,,,,,,,,,,,,,,,,,,,,,212.85271349999948,212.8691457999994,213.38576920000014,213.35267699999986,,,,,,,,,,,,,,,,,,,,,,213.37361919999967,213.38576920000014,213.38576920000014,213.38576920000014,216.36907239999982,shoe,f,1.502619599999889,0.1862449000000197,216.36912779999966,216.36914410000009,None,,,,,,,,,,,,,,,,,00019,001,2025-11-08_12h25.21.130,MST_task,2024.2.2,60.00250810489111,2025-11-08 12h25.26.510569 +0530,
,Objects\284a.jpg,31,0,31,,,,,f,1.8177190000005794,0.21894499999962136,None,,,,,,,31,0,31,0,216.38575649999984,,,,,,,,,,,,,,,,,,,,,,,216.36923649999972,216.38575649999984,216.9023932,216.86920419999933,,,,,,,,,,,,,,,,,,,,,,216.8897465,216.9023932,216.9023932,216.9023932,219.88573050000014,shoe,f,1.8177190000005794,0.21894499999962136,219.88577160000023,219.88578020000023,None,,,,,,,,,,,,,,,,,00019,001,2025-11-08_12h25.21.130,MST_task,2024.2.2,60.00250810489111,2025-11-08 12h25.26.510569 +0530,
,Objects\214a.jpg,32,0,32,,,,,f,2.0177997999999207,0.1296176000005289,None,,,,,,,32,0,32,0,219.90232599999945,,,,,,,,,,,,,,,,,,,,,,,219.88583519999975,219.90232599999945,220.4021699999994,220.38587349999943,,,,,,,,,,,,,,,,,,,,,,220.39696110000023,220.4021699999994,220.4021699999994,220.4021699999994,223.38580999999976,shoe,f,2.0177997999999207,0.1296176000005289,223.38584720000017,223.38585599999988,None,223.4022401000002,223.4022401000002,223.4022401000002,,,,,,,,,,,,,,00019,001,2025-11-08_12h25.21.130,MST_task,2024.2.2,60.00250810489111,2025-11-08 12h25.26.510569 +0530,
,Objects\363a.jpg,33,0,33,,,,,f,2.215340499999911,0.19362480000017968,None,,,,,,,33,0,33,0,223.4022401000002,,,,,,,,,,,,,,,,,,,,,,,223.38591149999957,223.4022401000002,223.9188749999994,223.88571779999984,,,,,,,,,,,,,,,,,,,,,,223.89869999999974,223.9188749999994,223.9188749999994,223.9188749999994,226.90222119999999,shoe,f,2.215340499999911,0.19362480000017968,226.90225479999935,226.90226350000012,None,,,,,,,,,,,,,,,,,00019,001,2025-11-08_12h25.21.130,MST_task,2024.2.2,60.00250810489111,2025-11-08 12h25.26.510569 +0530,
,Objects\097a.jpg,34,0,34,,,,,j,2.486903799999709,0.1734418000005462,None,,,,,,,34,0,34,0,226.9188355999995,,,,,,,,,,,,,,,,,,,,,,,226.9023185999995,226.9188355999995,227.43548909999936,227.40237290000005,,,,,,,,,,,,,,,,,,,,,,227.42489599999953,227.43548909999936,227.43548909999936,227.43548909999936,230.4187581999995,shoe,j,2.486903799999709,0.1734418000005462,230.41879309999968,230.41880219999985,None,,,,,,,,,,,,,,,,,00019,001,2025-11-08_12h25.21.130,MST_task,2024.2.2,60.00250810489111,2025-11-08 12h25.26.510569 +0530,
,Objects\227a.jpg,35,0,35,,,,,f,1.795367100000476,0.16650839999965683,None,,,,,,,35,0,35,0,230.43542329999946,,,,,,,,,,,,,,,,,,,,,,,230.41885829999956,230.43542329999946,230.95208449999973,230.9188951999995,,,,,,,,,,,,,,,,,,,,,,230.93099989999973,230.95208449999973,230.95208449999973,230.95208449999973,233.93536399999994,indoor,f,1.795367100000476,0.16650839999965683,233.9364958999995,233.93650770000022,None,,,,,,,,,,,,,,,,,00019,001,2025-11-08_12h25.21.130,MST_task,2024.2.2,60.00250810489111,2025-11-08 12h25.26.510569 +0530,
,Objects\179a.jpg,36,0,36,,,,,f,2.346721200000502,0.18660089999957563,None,,,,,,,36,0,36,0,233.9519849999997,,,,,,,,,,,,,,,,,,,,,,,233.93656310000006,233.9519849999997,234.46865079999952,234.43548869999995,,,,,,,,,,,,,,,,,,,,,,234.45335429999977,234.46865079999952,234.46865079999952,234.46865079999952,237.45197740000003,indoor,f,2.346721200000502,0.18660089999957563,237.4520179000001,237.4520268999995,None,,,,,,,,,,,,,,,,,00019,001,2025-11-08_12h25.21.130,MST_task,2024.2.2,60.00250810489111,2025-11-08 12h25.26.510569 +0530,
,Objects\168a.jpg,37,0,37,,,,,j,2.488444200000231,0.19400409999980184,None,,,,,,,37,0,37,0,237.4686088999997,,,,,,,,,,,,,,,,,,,,,,,237.45208129999992,237.4686088999997,237.98526599999968,237.95214010000018,,,,,,,,,,,,,,,,,,,,,,237.97510669999974,237.98526599999968,237.98526599999968,237.98526599999968,240.96869489999972,indoor,j,2.488444200000231,0.19400409999980184,240.96873199999936,240.96874070000013,None,,,,,,,,,,,,,,,,,00019,001,2025-11-08_12h25.21.130,MST_task,2024.2.2,60.00250810489111,2025-11-08 12h25.26.510569 +0530,
,Objects\361a.jpg,38,0,38,,,,,f,1.3945572999991782,0.20318140000017593,None,,,,,,,38,0,38,0,240.98516800000016,,,,,,,,,,,,,,,,,,,,,,,240.96879329999956,240.98516800000016,241.5018258,241.46865609999986,,,,,,,,,,,,,,,,,,,,,,241.48985489999995,241.5018258,241.5018258,241.5018258,244.48515899999984,indoor,f,1.3945572999991782,0.20318140000017593,244.48520730000018,244.48521660000006,None,,,,,,,,,,,,,,,,,00019,001,2025-11-08_12h25.21.130,MST_task,2024.2.2,60.00250810489111,2025-11-08 12h25.26.510569 +0530,
,Objects\007a.jpg,39,0,39,,,,,f,1.695334200000616,0.22052259999964008,None,,,,,,,39,0,39,0,244.50175709999985,,,,,,,,,,,,,,,,,,,,,,,244.48527719999947,244.50175709999985,245.01844549999987,244.98532029999933,,,,,,,,,,,,,,,,,,,,,,245.00408460000017,245.01844549999987,245.01844549999987,245.01844549999987,248.00172419999944,indoor,f,1.695334200000616,0.22052259999964008,248.00176180000017,248.0017710000002,None,,,,,,,,,,,,,,,,,00019,001,2025-11-08_12h25.21.130,MST_task,2024.2.2,60.00250810489111,2025-11-08 12h25.26.510569 +0530,
,Objects\106a.jpg,40,0,40,,,,,f,1.4071545999995578,0.19306839999990189,None,,,,,,,40,0,40,0,248.01838129999942,,,,,,,,,,,,,,,,,,,,,,,248.00182940000013,248.01838129999942,248.53502879999996,248.50192179999976,,,,,,,,,,,,,,,,,,,,,,248.5238546999999,248.53502879999996,248.53502879999996,248.53502879999996,251.5183477999999,indoor,f,1.4071545999995578,0.19306839999990189,251.51838390000012,251.51839310000014,None,,,,,,,,,,,,,,,,,00019,001,2025-11-08_12h25.21.130,MST_task,2024.2.2,60.00250810489111,2025-11-08 12h25.26.510569 +0530,
,Objects\381a.jpg,41,0,41,,,,,f,1.4642317999996521,0.19760109999970155,None,,,,,,,41,0,41,0,251.53497479999987,,,,,,,,,,,,,,,,,,,,,,,251.5184491,251.53497479999987,252.05159839999942,252.01860539999961,,,,,,,,,,,,,,,,,,,,,,252.03465030000007,252.05159839999942,252.05159839999942,252.05159839999942,255.03489529999933,indoor,f,1.4642317999996521,0.19760109999970155,255.03493220000018,255.03494169999976,None,,,,,,,,,,,,,,,,,00019,001,2025-11-08_12h25.21.130,MST_task,2024.2.2,60.00250810489111,2025-11-08 12h25.26.510569 +0530,
,Objects\063a.jpg,42,0,42,,,,,f,1.9079987999994046,0.21365670000068349,None,,,,,,,42,0,42,0,255.0515574000001,,,,,,,,,,,,,,,,,,,,,,,255.03500170000007,255.0515574000001,255.5682028000001,255.5350956000002,,,,,,,,,,,,,,,,,,,,,,255.5554763,255.5682028000001,255.5682028000001,255.5682028000001,258.55152779999935,shoe,f,1.9079987999994046,0.21365670000068349,258.5530668000001,258.5530778000002,None,,,,,,,,,,,,,,,,,00019,001,2025-11-08_12h25.21.130,MST_task,2024.2.2,60.00250810489111,2025-11-08 12h25.26.510569 +0530,
,Objects\334a.jpg,43,0,43,,,,,j,1.855232199999591,0.17356420000032813,None,,,,,,,43,0,43,0,258.5681545999996,,,,,,,,,,,,,,,,,,,,,,,258.55316779999976,258.5681545999996,259.0847740999998,259.0516878999997,,,,,,,,,,,,,,,,,,,,,,259.0727369999995,259.0847740999998,259.0847740999998,259.0847740999998,262.0681311999997,shoe,j,1.855232199999591,0.17356420000032813,262.0681749999994,262.06818459999977,None,,,,,,,,,,,,,,,,,00019,001,2025-11-08_12h25.21.130,MST_task,2024.2.2,60.00250810489111,2025-11-08 12h25.26.510569 +0530,
,Objects\143a.jpg,44,0,44,,,,,j,2.016721100000723,0.19357379999928526,None,,,,,,,44,0,44,0,262.08472729999994,,,,,,,,,,,,,,,,,,,,,,,262.0682434999999,262.08472729999994,262.60140279999996,262.5683423999999,,,,,,,,,,,,,,,,,,,,,,262.5842684999998,262.60140279999996,262.60140279999996,262.60140279999996,265.5847955999998,shoe,j,2.016721100000723,0.19357379999928526,265.5848320999994,265.58484169999974,None,,,,,,,,,,,,,,,,,00019,001,2025-11-08_12h25.21.130,MST_task,2024.2.2,60.00250810489111,2025-11-08 12h25.26.510569 +0530,
,Objects\198a.jpg,45,0,45,,,,,f,1.5421606999998403,0.1732889000004434,None,,,,,,,45,0,45,0,265.60132969999995,,,,,,,,,,,,,,,,,,,,,,,265.5848969999997,265.60132969999995,266.11798850000014,266.0849207000001,,,,,,,,,,,,,,,,,,,,,,266.1014613999996,266.11798850000014,266.11798850000014,266.11798850000014,269.10126519999994,shoe,f,1.5421606999998403,0.1732889000004434,269.1013004999995,269.1013095999997,None,,,,,,,,,,,,,,,,,00019,001,2025-11-08_12h25.21.130,MST_task,2024.2.2,60.00250810489111,2025-11-08 12h25.26.510569 +0530,
,Objects\300a.jpg,46,0,46,,,,,f,1.8772750999996788,0.14996059999975841,None,,,,,,,46,0,46,0,269.1179210999999,,,,,,,,,,,,,,,,,,,,,,,269.1013647999998,269.1179210999999,269.6345510000001,269.60148109999955,,,,,,,,,,,,,,,,,,,,,,269.6236898999996,269.6345510000001,269.6345510000001,269.6345510000001,272.617972,shoe,f,1.8772750999996788,0.14996059999975841,272.6180124000002,272.6180214999995,None,,,,,,,,,,,,,,,,,00019,001,2025-11-08_12h25.21.130,MST_task,2024.2.2,60.00250810489111,2025-11-08 12h25.26.510569 +0530,
,Objects\104a.jpg,47,0,47,,,,,f,1.50052020000021,0.18591050000031828,None,,,,,,,47,0,47,0,272.63458159999936,,,,,,,,,,,,,,,,,,,,,,,272.6180919999997,272.63458159999936,273.1512326000002,273.1181193000002,,,,,,,,,,,,,,,,,,,,,,273.12934849999965,273.1512326000002,273.1512326000002,273.1512326000002,276.1345629999996,shoe,f,1.50052020000021,0.18591050000031828,276.1345984999998,276.13461219999954,None,,,,,,,,,,,,,,,,,00019,001,2025-11-08_12h25.21.130,MST_task,2024.2.2,60.00250810489111,2025-11-08 12h25.26.510569 +0530,
,Objects\162a.jpg,48,0,48,,,,,f,1.9278938999996171,0.19859550000001036,None,,,,,,,48,0,48,0,276.1511663000001,,,,,,,,,,,,,,,,,,,,,,,276.1347079999996,276.1511663000001,276.6678523999999,276.63462960000015,,,,,,,,,,,,,,,,,,,,,,276.65863199999967,276.6678523999999,276.6678523999999,276.6678523999999,279.6511464999994,shoe,f,1.9278938999996171,0.19859550000001036,279.6511873999998,279.6511974999994,None,,,,,,,,,,,,,,,,,00019,001,2025-11-08_12h25.21.130,MST_task,2024.2.2,60.00250810489111,2025-11-08 12h25.26.510569 +0530,
,Objects\027a.jpg,49,0,49,,,,,f,2.756316500000139,None,None,,,,,,,49,0,49,0,279.6678339,,,,,,,,,,,,,,,,,,,,,,,279.65125739999985,279.6678339,280.1677503000001,280.1511866000001,,,,,,,,,,,,,,,,,,,,,,280.1604327999994,280.1677503000001,280.1677503000001,280.1677503000001,283.1513691,indoor,f,2.756316500000139,None,283.1524927999999,283.1525120999995,None,283.1677067999999,283.1677067999999,283.1677067999999,,,,,,,,,,,,,,00019,001,2025-11-08_12h25.21.130,MST_task,2024.2.2,60.00250810489111,2025-11-08 12h25.26.510569 +0530,
,Objects\141a.jpg,50,0,50,,,,,j,2.253526200000124,0.18244070000037027,None,,,,,,,50,0,50,0,283.1677067999999,,,,,,,,,,,,,,,,,,,,,,,283.1525673999995,283.1677067999999,283.6843399999998,283.6511335999994,,,,,,,,,,,,,,,,,,,,,,283.6711629000001,283.6843399999998,283.6843399999998,283.6843399999998,286.6676714999994,indoor,j,2.253526200000124,0.18244070000037027,286.6677252999998,286.66773589999957,None,,,,,,,,,,,,,,,,,00019,001,2025-11-08_12h25.21.130,MST_task,2024.2.2,60.00250810489111,2025-11-08 12h25.26.510569 +0530,
,Objects\232a.jpg,51,0,51,,,,,f,1.9171768000005613,0.2517091999998229,None,,,,,,,51,0,51,0,286.6842958999996,,,,,,,,,,,,,,,,,,,,,,,286.6678088999997,286.6842958999996,287.20095779999974,287.16778650000015,,,,,,,,,,,,,,,,,,,,,,287.19329169999946,287.20095779999974,287.20095779999974,287.20095779999974,290.1842224000002,indoor,f,1.9171768000005613,0.2517091999998229,290.1842566999994,290.18426569999974,None,,,,,,,,,,,,,,,,,00019,001,2025-11-08_12h25.21.130,MST_task,2024.2.2,60.00250810489111,2025-11-08 12h25.26.510569 +0530,
,Objects\360a.jpg,52,0,52,,,,,f,2.1843878999998196,0.26764319999983854,None,,,,,,,52,0,52,0,290.20088529999975,,,,,,,,,,,,,,,,,,,,,,,290.1843186999995,290.20088529999975,290.71751869999935,290.68437300000005,,,,,,,,,,,,,,,,,,,,,,290.70374230000016,290.71751869999935,290.71751869999935,290.71751869999935,293.70086420000007,indoor,f,2.1843878999998196,0.26764319999983854,293.70090319999963,293.7009191999996,None,,,,,,,,,,,,,,,,,00019,001,2025-11-08_12h25.21.130,MST_task,2024.2.2,60.00250810489111,2025-11-08 12h25.26.510569 +0530,
,Objects\223a.jpg,53,0,53,,,,,j,2.765715600000476,None,None,,,,,,,53,0,53,0,293.7174808,,,,,,,,,,,,,,,,,,,,,,,293.7009860999997,293.7174808,294.23410819999935,294.2010574999995,,,,,,,,,,,,,,,,,,,,,,294.21622789999947,294.23410819999935,294.23410819999935,294.23410819999935,297.21742600000016,indoor,j,2.765715600000476,None,297.2174596999994,297.2174688999994,None,,,,,,,,,,,,,,,,,00019,001,2025-11-08_12h25.21.130,MST_task,2024.2.2,60.00250810489111,2025-11-08 12h25.26.510569 +0530,
,Objects\326a.jpg,54,0,54,,,,,f,1.5905445999997028,0.21414519999962067,None,,,,,,,54,0,54,0,297.2340685999998,,,,,,,,,,,,,,,,,,,,,,,297.2175226999998,297.2340685999998,297.76737219999995,297.71755589999975,,,,,,,,,,,,,,,,,,,,,,297.75270099999943,297.76737219999995,297.76737219999995,297.76737219999995,300.73403749999943,indoor,f,1.5905445999997028,0.21414519999962067,300.7340766999996,300.7340859999995,None,,,,,,,,,,,,,,,,,00019,001,2025-11-08_12h25.21.130,MST_task,2024.2.2,60.00250810489111,2025-11-08 12h25.26.510569 +0530,
,Objects\313a.jpg,55,0,55,,,,,f,2.436298800000259,0.21045169999979407,None,,,,,,,55,0,55,0,300.7508035999999,,,,,,,,,,,,,,,,,,,,,,,300.73414199999934,300.7508035999999,301.2673199999999,301.2341501000001,,,,,,,,,,,,,,,,,,,,,,301.2500401999996,301.2673199999999,301.2673199999999,301.2673199999999,304.25054980000004,indoor,f,2.436298800000259,0.21045169999979407,304.25058589999935,304.2505954999997,None,,,,,,,,,,,,,,,,,00019,001,2025-11-08_12h25.21.130,MST_task,2024.2.2,60.00250810489111,2025-11-08 12h25.26.510569 +0530,
,Objects\322a.jpg,56,0,56,,,,,f,1.6461842999997316,0.218137800000477,None,,,,,,,56,0,56,0,304.26716639999995,,,,,,,,,,,,,,,,,,,,,,,304.25064939999993,304.26716639999995,304.7837829,304.75063919999957,,,,,,,,,,,,,,,,,,,,,,304.77525419999984,304.7837829,304.7837829,304.7837829,307.76711199999954,shoe,f,1.6461842999997316,0.218137800000477,307.7686761999994,307.7686877999995,None,,,,,,,,,,,,,,,,,00019,001,2025-11-08_12h25.21.130,MST_task,2024.2.2,60.00250810489111,2025-11-08 12h25.26.510569 +0530,
,Objects\017a.jpg,57,0,57,,,,,f,2.659020099999907,0.22451670000009472,None,,,,,,,57,0,57,0,307.7837534,,,,,,,,,,,,,,,,,,,,,,,307.76874169999974,307.7837534,308.30045059999975,308.2672782999998,,,,,,,,,,,,,,,,,,,,,,308.2785647999999,308.30045059999975,308.30045059999975,308.30045059999975,311.28373529999953,shoe,f,2.659020099999907,0.22451670000009472,311.2837725999998,311.2837816000001,None,,,,,,,,,,,,,,,,,00019,001,2025-11-08_12h25.21.130,MST_task,2024.2.2,60.00250810489111,2025-11-08 12h25.26.510569 +0530,
,Objects\290a.jpg,58,0,58,,,,,j,1.4707848000007289,0.18950189999941358,None,,,,,,,58,0,58,0,311.3003047000002,,,,,,,,,,,,,,,,,,,,,,,311.28383699999995,311.3003047000002,311.81696439999996,311.7838996999999,,,,,,,,,,,,,,,,,,,,,,311.8001932999996,311.81696439999996,311.81696439999996,311.81696439999996,314.8002891999995,shoe,j,1.4707848000007289,0.18950189999941358,314.80033679999997,314.8003471000002,None,,,,,,,,,,,,,,,,,00019,001,2025-11-08_12h25.21.130,MST_task,2024.2.2,60.00250810489111,2025-11-08 12h25.26.510569 +0530,
,Objects\211a.jpg,59,0,59,,,,,j,1.8419486000002507,0.19889919999968697,None,,,,,,,59,0,59,0,314.81692680000015,,,,,,,,,,,,,,,,,,,,,,,314.80040839999947,314.81692680000015,315.33356000000003,315.30037079999965,,,,,,,,,,,,,,,,,,,,,,315.32081879999987,315.33356000000003,315.33356000000003,315.33356000000003,318.3169022000002,shoe,j,1.8419486000002507,0.19889919999968697,318.31694249999964,318.3169634999995,None,,,,,,,,,,,,,,,,,00019,001,2025-11-08_12h25.21.130,MST_task,2024.2.2,60.00250810489111,2025-11-08 12h25.26.510569 +0530,
,Objects\257a.jpg,60,0,60,,,,,j,1.8835149999995338,0.21293260000038572,None,,,,,,,60,0,60,0,318.3335275999998,,,,,,,,,,,,,,,,,,,,,,,318.31702439999935,318.3335275999998,318.8502622999995,318.8170191999998,,,,,,,,,,,,,,,,,,,,,,318.8388838000001,318.8502622999995,318.8502622999995,318.8502622999995,321.8334675999995,shoe,j,1.8835149999995338,0.21293260000038572,321.83350319999954,321.8335124999994,None,,,,,,,,,,,,,,,,,00019,001,2025-11-08_12h25.21.130,MST_task,2024.2.2,60.00250810489111,2025-11-08 12h25.26.510569 +0530,
,Objects\093a.jpg,61,0,61,,,,,j,2.0071656000000075,0.1981885000004695,None,,,,,,,61,0,61,0,321.8501182,,,,,,,,,,,,,,,,,,,,,,,321.83357419999993,321.8501182,322.3667332999994,322.33364729999994,,,,,,,,,,,,,,,,,,,,,,322.35927809999976,322.3667332999994,322.3667332999994,322.3667332999994,325.3500942999999,shoe,j,2.0071656000000075,0.1981885000004695,325.3501285000002,325.3501378000001,None,,,,,,,,,,,,,,,,,00019,001,2025-11-08_12h25.21.130,MST_task,2024.2.2,60.00250810489111,2025-11-08 12h25.26.510569 +0530,
,Objects\023a.jpg,62,0,62,,,,,f,1.8511519000003318,0.16998729999977513,None,,,,,,,62,0,62,0,325.36669749999965,,,,,,,,,,,,,,,,,,,,,,,325.3501933999996,325.36669749999965,325.86671560000013,325.8501964999996,,,,,,,,,,,,,,,,,,,,,,325.85873059999994,325.86671560000013,325.86671560000013,325.86671560000013,328.8501897999995,shoe,f,1.8511519000003318,0.16998729999977513,328.8502225000002,328.8502312999999,None,328.86663059999955,328.86663059999955,328.86663059999955,,,,,,,,,,,,,,00019,001,2025-11-08_12h25.21.130,MST_task,2024.2.2,60.00250810489111,2025-11-08 12h25.26.510569 +0530,
,Objects\127a.jpg,63,0,63,,,,,f,2.0187628000003315,0.2136553999998796,None,,,,,,,63,0,63,0,328.86663059999955,,,,,,,,,,,,,,,,,,,,,,,328.8502865999999,328.86663059999955,329.3832543999997,329.35006579999936,,,,,,,,,,,,,,,,,,,,,,329.3671969999996,329.3832543999997,329.3832543999997,329.3832543999997,332.36667959999977,indoor,f,2.0187628000003315,0.2136553999998796,332.3679801999997,332.3679922000001,None,,,,,,,,,,,,,,,,,00019,001,2025-11-08_12h25.21.130,MST_task,2024.2.2,60.00250810489111,2025-11-08 12h25.26.510569 +0530,
,Objects\032a.jpg,64,0,64,,,,,j,2.0619343999997,0.23596079999970243,None,,,,,,,64,0,64,0,332.38320999999996,,,,,,,,,,,,,,,,,,,,,,,332.3680478999995,332.38320999999996,332.8998424000001,332.86667529999977,,,,,,,,,,,,,,,,,,,,,,332.89062209999975,332.8998424000001,332.8998424000001,332.8998424000001,335.8832851999996,indoor,j,2.0619343999997,0.23596079999970243,335.88332850000006,335.88333799999964,None,,,,,,,,,,,,,,,,,00019,001,2025-11-08_12h25.21.130,MST_task,2024.2.2,60.00250810489111,2025-11-08 12h25.26.510569 +0530,
,Objects\110a.jpg,65,0,65,,,,,j,2.6353649000002406,0.18845839999994496,None,,,,,,,65,0,65,0,335.8998053999994,,,,,,,,,,,,,,,,,,,,,,,335.88339480000013,335.8998053999994,336.4164472000002,336.3832645000002,,,,,,,,,,,,,,,,,,,,,,336.40458539999963,336.4164472000002,336.4164472000002,336.4164472000002,339.3997651999998,indoor,j,2.6353649000002406,0.18845839999994496,339.39979929999936,339.3998084999994,None,,,,,,,,,,,,,,,,,00019,001,2025-11-08_12h25.21.130,MST_task,2024.2.2,60.00250810489111,2025-11-08 12h25.26.510569 +0530,
,Objects\144a.jpg,66,0,66,,,,,f,2.93486699999994,None,None,,,,,,,66,0,66,0,339.4163918999993,,,,,,,,,,,,,,,,,,,,,,,339.39986229999977,339.4163918999993,,339.89987889999975,,,,,,,,,,,,,,,,,,,,,,339.9144589999996,339.9330444999996,339.9330444999996,339.9330444999996,342.9163496000001,indoor,f,2.93486699999994,None,342.9163988999999,342.91641399999935,None,,,,,,,,,,,,,,,,,00019,001,2025-11-08_12h25.21.130,MST_task,2024.2.2,60.00250810489111,2025-11-08 12h25.26.510569 +0530,
,Objects\102a.jpg,67,0,67,,,,,f,1.0879233000005115,0.22189220000018395,None,,,,,,,67,0,67,0,342.9329866999997,,,,,,,,,,,,,,,,,,,,,,,342.916467,342.9329866999997,343.44960869999977,343.4165028999996,,,,,,,,,,,,,,,,,,,,,,343.4407249999995,343.44960869999977,343.44960869999977,343.44960869999977,346.43300420000014,indoor,f,1.0879233000005115,0.22189220000018395,346.4330405999999,346.4330503000001,None,,,,,,,,,,,,,,,,,00019,001,2025-11-08_12h25.21.130,MST_task,2024.2.2,60.00250810489111,2025-11-08 12h25.26.510569 +0530,
,Objects\174a.jpg,68,0,68,,,,,f,1.7765149000006204,0.20579319999978907,None,,,,,,,68,0,68,0,346.44956959999945,,,,,,,,,,,,,,,,,,,,,,,346.4331081999999,346.44956959999945,346.94953499999974,346.93306719999964,,,,,,,,,,,,,,,,,,,,,,346.94154679999974,346.94953499999974,346.94953499999974,346.94953499999974,349.9330794999996,indoor,f,1.7765149000006204,0.20579319999978907,349.9331135000002,349.93312220000007,None,349.9495068999995,349.9495068999995,349.9495068999995,,,,,,,,,,,,,,00019,001,2025-11-08_12h25.21.130,MST_task,2024.2.2,60.00250810489111,2025-11-08 12h25.26.510569 +0530,
,Objects\136a.jpg,69,0,69,,,,,f,1.2224734000001263,0.21932050000032177,None,,,,,,,69,0,69,0,349.9495068999995,,,,,,,,,,,,,,,,,,,,,,,349.9331754999994,349.9495068999995,350.4494651999994,350.4329902999998,,,,,,,,,,,,,,,,,,,,,,350.44093900000007,350.4494651999994,350.4494651999994,350.4494651999994,353.4330861999997,indoor,f,1.2224734000001263,0.21932050000032177,353.4331207999994,353.43312929999956,None,353.449431,353.449431,353.449431,,,,,,,,,,,,,,00019,001,2025-11-08_12h25.21.130,MST_task,2024.2.2,60.00250810489111,2025-11-08 12h25.26.510569 +0530,
,Objects\203a.jpg,70,0,70,,,,,f,2.620586099999855,0.201625900000181,None,,,,,,,70,0,70,0,353.449431,,,,,,,,,,,,,,,,,,,,,,,353.43318249999993,353.449431,353.9656742999996,353.93288500000017,,,,,,,,,,,,,,,,,,,,,,353.9607710999999,353.9656742999996,353.9656742999996,353.9656742999996,356.94948509999995,shoe,f,2.620586099999855,0.201625900000181,356.95111279999946,356.95112639999934,None,,,,,,,,,,,,,,,,,00019,001,2025-11-08_12h25.21.130,MST_task,2024.2.2,60.00250810489111,2025-11-08 12h25.26.510569 +0530,
,Objects\184a.jpg,71,0,71,,,,,j,1.0352339000000939,0.22831259999929898,None,,,,,,,71,0,71,0,356.96601029999965,,,,,,,,,,,,,,,,,,,,,,,356.9512370000002,356.96601029999965,357.4826723999995,357.4494840999996,,,,,,,,,,,,,,,,,,,,,,357.46788169999945,357.4826723999995,357.4826723999995,357.4826723999995,360.4660033,shoe,j,1.0352339000000939,0.22831259999929898,360.46603999999934,360.4660488999998,None,,,,,,,,,,,,,,,,,00019,001,2025-11-08_12h25.21.130,MST_task,2024.2.2,60.00250810489111,2025-11-08 12h25.26.510569 +0530,
,Objects\076a.jpg,72,0,72,,,,,f,1.1788171999996848,0.22975899999983085,None,,,,,,,72,0,72,0,360.4825759999994,,,,,,,,,,,,,,,,,,,,,,,360.4661322000002,360.4825759999994,360.99927409999964,360.966058,,,,,,,,,,,,,,,,,,,,,,360.98657060000005,360.99927409999964,360.99927409999964,360.99927409999964,363.98257139999987,shoe,f,1.1788171999996848,0.22975899999983085,363.98260690000006,363.9826162999998,None,,,,,,,,,,,,,,,,,00019,001,2025-11-08_12h25.21.130,MST_task,2024.2.2,60.00250810489111,2025-11-08 12h25.26.510569 +0530,
,Objects\002a.jpg,73,0,73,,,,,f,1.5100827000005665,0.22538119999990158,None,,,,,,,73,0,73,0,363.99918999999954,,,,,,,,,,,,,,,,,,,,,,,363.98269919999984,363.99918999999954,364.5158363999999,364.4826303,,,,,,,,,,,,,,,,,,,,,,364.5053908,364.5158363999999,364.5158363999999,364.5158363999999,367.49916889999986,shoe,f,1.5100827000005665,0.22538119999990158,367.4992037000002,367.4992132999996,None,,,,,,,,,,,,,,,,,00019,001,2025-11-08_12h25.21.130,MST_task,2024.2.2,60.00250810489111,2025-11-08 12h25.26.510569 +0530,
,Objects\075a.jpg,74,0,74,,,,,f,1.4244047000001956,0.24160140000003594,None,,,,,,,74,0,74,0,367.5158083999995,,,,,,,,,,,,,,,,,,,,,,,367.4992946000002,367.5158083999995,368.0157478000001,367.9992529000001,,,,,,,,,,,,,,,,,,,,,,368.0076860999998,368.0157478000001,368.0157478000001,368.0157478000001,370.99936230000003,shoe,f,1.4244047000001956,0.24160140000003594,370.99939579999955,370.9994041,None,371.01570639999954,371.01570639999954,371.01570639999954,,,,,,,,,,,,,,00019,001,2025-11-08_12h25.21.130,MST_task,2024.2.2,60.00250810489111,2025-11-08 12h25.26.510569 +0530,
,Objects\148a.jpg,75,0,75,,,,,j,2.5400079999999434,0.20326730000033422,None,,,,,,,75,0,75,0,371.01570639999954,,,,,,,,,,,,,,,,,,,,,,,370.9994812999994,371.01570639999954,371.5323690999994,371.4992139999995,,,,,,,,,,,,,,,,,,,,,,371.5133214999996,371.5323690999994,371.5323690999994,371.5323690999994,374.51565630000005,shoe,j,2.5400079999999434,0.20326730000033422,374.5156941999994,374.5157042000001,None,,,,,,,,,,,,,,,,,00019,001,2025-11-08_12h25.21.130,MST_task,2024.2.2,60.00250810489111,2025-11-08 12h25.26.510569 +0530,
,Objects\082a.jpg,76,0,76,,,,,j,1.0112419999995836,0.23985190000075818,None,,,,,,,76,0,76,0,374.5322983999995,,,,,,,,,,,,,,,,,,,,,,,374.51576079999995,374.5322983999995,375.0489256000001,375.0158886999998,,,,,,,,,,,,,,,,,,,,,,375.02962059999936,375.0489256000001,375.0489256000001,375.0489256000001,378.0322729999998,shoe,j,1.0112419999995836,0.23985190000075818,378.0323275999999,378.03233980000005,None,,,,,,,,,,,,,,,,,00019,001,2025-11-08_12h25.21.130,MST_task,2024.2.2,60.00250810489111,2025-11-08 12h25.26.510569 +0530,
,Objects\160a.jpg,77,0,77,,,,,f,1.7606923000003007,0.22363419999965117,None,,,,,,,77,0,77,0,378.04888819999996,,,,,,,,,,,,,,,,,,,,,,,378.032432,378.04888819999996,378.56554400000005,378.5323897999997,,,,,,,,,,,,,,,,,,,,,,378.5532500999998,378.56554400000005,378.56554400000005,378.56554400000005,381.54884909999964,indoor,f,1.7606923000003007,0.22363419999965117,381.55000389999987,381.5500157999995,None,,,,,,,,,,,,,,,,,00019,001,2025-11-08_12h25.21.130,MST_task,2024.2.2,60.00250810489111,2025-11-08 12h25.26.510569 +0530,
,Objects\220a.jpg,78,0,78,,,,,j,1.4586988999999448,0.22389839999959804,None,,,,,,,78,0,78,0,381.5654648,,,,,,,,,,,,,,,,,,,,,,,381.5500745999998,381.5654648,382.09880259999954,382.04896519999966,,,,,,,,,,,,,,,,,,,,,,382.0815169999996,382.09880259999954,382.09880259999954,382.09880259999954,385.0654881999999,indoor,j,1.4586988999999448,0.22389839999959804,385.0655249000001,385.0655342,None,,,,,,,,,,,,,,,,,00019,001,2025-11-08_12h25.21.130,MST_task,2024.2.2,60.00250810489111,2025-11-08 12h25.26.510569 +0530,
,Objects\085a.jpg,79,0,79,,,,,f,1.9071451999998317,0.24389530000007653,None,,,,,,,79,0,79,0,385.0820711999995,,,,,,,,,,,,,,,,,,,,,,,385.06559239999933,385.0820711999995,385.59869509999953,385.56560139999965,,,,,,,,,,,,,,,,,,,,,,385.5905795999997,385.59869509999953,385.59869509999953,385.59869509999953,388.58205389999966,indoor,f,1.9071451999998317,0.24389530000007653,388.5821004999998,388.58210979999967,None,,,,,,,,,,,,,,,,,00019,001,2025-11-08_12h25.21.130,MST_task,2024.2.2,60.00250810489111,2025-11-08 12h25.26.510569 +0530,
,Objects\333a.jpg,80,0,80,,,,,f,2.151065799999742,0.22504730000036943,None,,,,,,,80,0,80,0,388.59865790000003,,,,,,,,,,,,,,,,,,,,,,,388.5821656999997,388.59865790000003,389.11528439999984,389.0821403,,,,,,,,,,,,,,,,,,,,,,389.09506989999954,389.11528439999984,389.11528439999984,389.11528439999984,392.0986095999997,indoor,f,2.151065799999742,0.22504730000036943,392.0986445999997,392.0986536999999,None,,,,,,,,,,,,,,,,,00019,001,2025-11-08_12h25.21.130,MST_task,2024.2.2,60.00250810489111,2025-11-08 12h25.26.510569 +0530,
,Objects\014a.jpg,81,0,81,,,,,f,1.8622199000001274,0.20570909999969444,None,,,,,,,81,0,81,0,392.1153368999994,,,,,,,,,,,,,,,,,,,,,,,392.09870779999983,392.1153368999994,392.6318790999994,392.59881659999974,,,,,,,,,,,,,,,,,,,,,,392.62178479999966,392.6318790999994,392.6318790999994,392.6318790999994,395.61523039999975,indoor,f,1.8622199000001274,0.20570909999969444,395.6152787000001,395.6152876999995,None,,,,,,,,,,,,,,,,,00019,001,2025-11-08_12h25.21.130,MST_task,2024.2.2,60.00250810489111,2025-11-08 12h25.26.510569 +0530,
,Objects\261a.jpg,82,0,82,,,,,f,1.387539999999717,0.22176480000052834,None,,,,,,,82,0,82,0,395.63182659999984,,,,,,,,,,,,,,,,,,,,,,,395.61534799999936,395.63182659999984,396.1484886999997,396.1153242999999,,,,,,,,,,,,,,,,,,,,,,396.1326524999995,396.1484886999997,396.1484886999997,396.1484886999997,399.1318025999999,indoor,f,1.387539999999717,0.22176480000052834,399.1318374000002,399.1318467000001,None,,,,,,,,,,,,,,,,,00019,001,2025-11-08_12h25.21.130,MST_task,2024.2.2,60.00250810489111,2025-11-08 12h25.26.510569 +0530,
,Objects\112a.jpg,83,0,83,,,,,f,1.6782114999996338,0.2375915000002351,None,,,,,,,83,0,83,0,399.14842899999985,,,,,,,,,,,,,,,,,,,,,,,399.13190440000017,399.14842899999985,399.6480127999994,399.6318975999993,,,,,,,,,,,,,,,,,,,,,,399.6434337999999,399.6480127999994,399.6480127999994,399.6480127999994,402.63193969999975,indoor,f,1.6782114999996338,0.2375915000002351,402.6319776999999,402.6319919999996,None,402.6483202999998,402.6483202999998,402.6483202999998,,,,,,,,,,,,,,00019,001,2025-11-08_12h25.21.130,MST_task,2024.2.2,60.00250810489111,2025-11-08 12h25.26.510569 +0530,
,Objects\347a.jpg,84,0,84,,,,,j,2.15945499999998,0.23438120000082563,None,,,,,,,84,0,84,0,402.6483202999998,,,,,,,,,,,,,,,,,,,,,,,402.6320519000001,402.6483202999998,403.1660179999999,403.1317994000001,,,,,,,,,,,,,,,,,,,,,,403.14674379999997,403.1660179999999,403.1660179999999,403.1660179999999,406.14831090000007,shoe,j,2.15945499999998,0.23438120000082563,406.1499426999999,406.1499544999997,None,,,,,,,,,,,,,,,,,00019,001,2025-11-08_12h25.21.130,MST_task,2024.2.2,60.00250810489111,2025-11-08 12h25.26.510569 +0530,
,Objects\319a.jpg,85,0,85,,,,,f,1.450580899999295,0.20721950000006473,None,,,,,,,85,0,85,0,406.1649306999998,,,,,,,,,,,,,,,,,,,,,,,406.1500135999995,406.1649306999998,406.68157149999934,406.6483827000002,,,,,,,,,,,,,,,,,,,,,,406.6682258999999,406.68157149999934,406.68157149999934,406.68157149999934,409.6650201000002,shoe,f,1.450580899999295,0.20721950000006473,409.6650582000002,409.6650676999998,None,,,,,,,,,,,,,,,,,00019,001,2025-11-08_12h25.21.130,MST_task,2024.2.2,60.00250810489111,2025-11-08 12h25.26.510569 +0530,
,Objects\058a.jpg,86,0,86,,,,,None,,,f,0.1293615000004138,None,,,,,86,0,86,0,409.68153339999935,,,,,,,,,,,,,,,,,,,,,,,409.6651549999997,409.68153339999935,410.19817819999935,410.16504299999997,,,,,,,,,,,,,,,,,,,,,,410.1905273000002,410.19817819999935,410.19817819999935,410.19817819999935,413.1815160999995,shoe,None,,,413.1815458000001,413.33179089999976,f,,,,413.1981273000001,413.1981273000001,0.1293615000004138,None,,,,,,,,,,00019,001,2025-11-08_12h25.21.130,MST_task,2024.2.2,60.00250810489111,2025-11-08 12h25.26.510569 +0530,
,Objects\188a.jpg,87,0,87,,,,,f,1.0369615999998132,0.23836690000007366,None,,,,,,,87,0,87,0,413.3481204999998,,,,,,,,,,,,,,,,,,,,,,,413.33186229999956,413.3481204999998,413.86477560000003,413.8316156000001,,,,,,,,,,,,,,,,,,,,,,413.8501491999996,413.86477560000003,413.86477560000003,413.86477560000003,416.84810709999965,shoe,f,1.0369615999998132,0.23836690000007366,416.8481458999995,416.8481555999997,None,,,,,,,,,,,,,,,,,00019,001,2025-11-08_12h25.21.130,MST_task,2024.2.2,60.00250810489111,2025-11-08 12h25.26.510569 +0530,
,Objects\182a.jpg,88,0,88,,,,,j,1.989911900000152,0.1690404999999373,None,,,,,,,88,0,88,0,416.86468220000006,,,,,,,,,,,,,,,,,,,,,,,416.8482434999996,416.86468220000006,417.3814077999996,417.3482895999996,,,,,,,,,,,,,,,,,,,,,,417.36085619999994,417.3814077999996,417.3814077999996,417.3814077999996,420.3646622999995,shoe,j,1.989911900000152,0.1690404999999373,420.3646964999998,420.3647055000001,None,,,,,,,,,,,,,,,,,00019,001,2025-11-08_12h25.21.130,MST_task,2024.2.2,60.00250810489111,2025-11-08 12h25.26.510569 +0530,
,Objects\270a.jpg,89,0,89,,,,,j,1.433853999999883,0.16626780000024155,None,,,,,,,89,0,89,0,420.38129779999963,,,,,,,,,,,,,,,,,,,,,,,420.36476069999935,420.38129779999963,420.89792380000017,420.86490159999994,,,,,,,,,,,,,,,,,,,,,,420.88976749999983,420.89792380000017,420.89792380000017,420.89792380000017,423.8812496999999,shoe,j,1.433853999999883,0.16626780000024155,423.88128640000014,423.8812958999997,None,,,,,,,,,,,,,,,,,00019,001,2025-11-08_12h25.21.130,MST_task,2024.2.2,60.00250810489111,2025-11-08 12h25.26.510569 +0530,
,Objects\228a.jpg,90,0,90,,,,,j,1.845109500000035,0.16160219999983383,None,,,,,,,90,0,90,0,423.89789109999947,,,,,,,,,,,,,,,,,,,,,,,423.8813528999999,423.89789109999947,424.4145905999994,424.38135299999976,,,,,,,,,,,,,,,,,,,,,,424.4045127999998,424.4145905999994,424.4145905999994,424.4145905999994,427.39783519999946,shoe,j,1.845109500000035,0.16160219999983383,427.3978698000001,427.3978787999995,None,,,,,,,,,,,,,,,,,00019,001,2025-11-08_12h25.21.130,MST_task,2024.2.2,60.00250810489111,2025-11-08 12h25.26.510569 +0530,
,Objects\371a.jpg,91,0,91,,,,,j,1.8070066000000224,0.20947789999991073,None,,,,,,,91,0,91,0,427.4145155999995,,,,,,,,,,,,,,,,,,,,,,,427.3979337999999,427.4145155999995,427.93111510000017,427.8979706,,,,,,,,,,,,,,,,,,,,,,427.9183659,427.93111510000017,427.93111510000017,427.93111510000017,430.91447139999946,indoor,j,1.8070066000000224,0.20947789999991073,430.9157140999996,430.91572989999986,None,,,,,,,,,,,,,,,,,00019,001,2025-11-08_12h25.21.130,MST_task,2024.2.2,60.00250810489111,2025-11-08 12h25.26.510569 +0530,
,Objects\224a.jpg,92,0,92,,,,,j,2.1223160000008647,0.1894611999996414,None,,,,,,,92,0,92,0,430.93105279999963,,,,,,,,,,,,,,,,,,,,,,,430.9157927999995,430.93105279999963,431.4477017999998,431.41457159999936,,,,,,,,,,,,,,,,,,,,,,431.43298309999955,431.4477017999998,431.4477017999998,431.4477017999998,434.4310378,indoor,j,2.1223160000008647,0.1894611999996414,434.4310840999997,434.43109469999945,None,,,,,,,,,,,,,,,,,00019,001,2025-11-08_12h25.21.130,MST_task,2024.2.2,60.00250810489111,2025-11-08 12h25.26.510569 +0530,
,Objects\276a.jpg,93,0,93,,,,,j,1.9274419000003036,0.2180717999999615,None,,,,,,,93,0,93,0,434.4476642999998,,,,,,,,,,,,,,,,,,,,,,,434.4311630000002,434.4476642999998,434.9642914999995,434.93113619999986,,,,,,,,,,,,,,,,,,,,,,434.9489727,434.9642914999995,434.9642914999995,434.9642914999995,437.94762119999996,indoor,j,1.9274419000003036,0.2180717999999615,437.94766869999967,437.9476774999994,None,,,,,,,,,,,,,,,,,00019,001,2025-11-08_12h25.21.130,MST_task,2024.2.2,60.00250810489111,2025-11-08 12h25.26.510569 +0530,
,Objects\200a.jpg,94,0,94,,,,,None,,,j,0.915219900000011,None,,,,,94,0,94,0,437.9642789999998,,,,,,,,,,,,,,,,,,,,,,,437.9477353000002,437.9642789999998,438.4808803999995,438.44777929999964,,,,,,,,,,,,,,,,,,,,,,438.47166669999933,438.4808803999995,438.4808803999995,438.4808803999995,441.4642077999997,indoor,None,,,441.4642385999996,442.3979118999996,j,,,,441.4808925999996,441.4808925999996,0.915219900000011,None,,,,,,,,,,00019,001,2025-11-08_12h25.21.130,MST_task,2024.2.2,60.00250810489111,2025-11-08 12h25.26.510569 +0530,
,Objects\296a.jpg,95,0,95,,,,,j,1.729278599999816,0.22182390000034502,None,,,,,,,95,0,95,0,442.41416149999986,,,,,,,,,,,,,,,,,,,,,,,442.39799499999936,442.41416149999986,442.93078479999986,442.89761929999986,,,,,,,,,,,,,,,,,,,,,,442.92355829999997,442.93078479999986,442.93078479999986,442.93078479999986,445.9140999000001,indoor,j,1.729278599999816,0.22182390000034502,445.9141351999997,445.91414449999957,None,,,,,,,,,,,,,,,,,00019,001,2025-11-08_12h25.21.130,MST_task,2024.2.2,60.00250810489111,2025-11-08 12h25.26.510569 +0530,
,Objects\051a.jpg,96,0,96,,,,,j,1.2879403999995702,0.197983000000022,None,,,,,,,96,0,96,0,445.93077769999945,,,,,,,,,,,,,,,,,,,,,,,445.9142004999994,445.93077769999945,446.4474087999997,446.41419249999944,,,,,,,,,,,,,,,,,,,,,,446.43869039999936,446.4474087999997,446.4474087999997,446.4474087999997,449.4307296999996,indoor,j,1.2879403999995702,0.197983000000022,449.4307656000001,449.4307748000001,None,,,,,,,,,,,,,,,,,00019,001,2025-11-08_12h25.21.130,MST_task,2024.2.2,60.00250810489111,2025-11-08 12h25.26.510569 +0530,
,Objects\325a.jpg,97,0,97,,,,,f,1.7650212999997166,0.2556009999998423,None,,,,,,,97,0,97,0,449.4473358999994,,,,,,,,,,,,,,,,,,,,,,,449.43083209999986,449.4473358999994,449.9469156999994,449.93080610000015,,,,,,,,,,,,,,,,,,,,,,449.9416063999997,449.9469156999994,449.9469156999994,449.9469156999994,452.9308887999996,indoor,f,1.7650212999997166,0.2556009999998423,452.9309311999996,452.93094479999945,None,452.94735219999984,452.94735219999984,452.94735219999984,,,,,,,,,,,,,,00019,001,2025-11-08_12h25.21.130,MST_task,2024.2.2,60.00250810489111,2025-11-08 12h25.26.510569 +0530,
,Objects\048a.jpg,98,0,98,,,,,j,2.525760999999875,0.16981769999983953,None,,,,,,,98,0,98,0,452.94735219999984,,,,,,,,,,,,,,,,,,,,,,,452.9310029999997,452.94735219999984,453.48056279999946,453.4308584999999,,,,,,,,,,,,,,,,,,,,,,453.4598850000002,453.48056279999946,453.48056279999946,453.48056279999946,456.44727389999935,shoe,j,2.525760999999875,0.16981769999983953,456.44894769999974,456.44896059999974,None,,,,,,,,,,,,,,,,,00019,001,2025-11-08_12h25.21.130,MST_task,2024.2.2,60.00250810489111,2025-11-08 12h25.26.510569 +0530,
,Objects\202a.jpg,99,0,99,,,,,j,1.3663633999995,0.16631690000031085,None,,,,,,,99,0,99,0,456.46383309999965,,,,,,,,,,,,,,,,,,,,,,,456.4490162000002,456.46383309999965,456.9634269999997,456.94733019999967,,,,,,,,,,,,,,,,,,,,,,456.9579844,456.9634269999997,456.9634269999997,456.9634269999997,459.94733429999997,shoe,j,1.3663633999995,0.16631690000031085,459.94736769999963,459.94737579999946,None,459.9637458999996,459.9637458999996,459.9637458999996,,,,,,,,,,,,,,00019,001,2025-11-08_12h25.21.130,MST_task,2024.2.2,60.00250810489111,2025-11-08 12h25.26.510569 +0530,
,Objects\026a.jpg,100,0,100,,,,,j,1.3031160999998974,0.18357389999982843,None,,,,,,,100,0,100,0,459.9637458999996,,,,,,,,,,,,,,,,,,,,,,,459.94742719999977,459.9637458999996,460.4803985999997,460.4473075999995,,,,,,,,,,,,,,,,,,,,,,460.47077850000005,460.4803985999997,460.4803985999997,460.4803985999997,463.46370229999957,shoe,j,1.3031160999998974,0.18357389999982843,463.46373929999936,463.46374879999985,None,,,,,,,,,,,,,,,,,00019,001,2025-11-08_12h25.21.130,MST_task,2024.2.2,60.00250810489111,2025-11-08 12h25.26.510569 +0530,
,Objects\355a.jpg,101,0,101,,,,,f,2.0025414000001547,0.23781770000005054,None,,,,,,,101,0,101,0,463.48036390000016,,,,,,,,,,,,,,,,,,,,,,,463.4638378999998,463.48036390000016,463.99699770000007,463.96387049999976,,,,,,,,,,,,,,,,,,,,,,463.9906050999998,463.99699770000007,463.99699770000007,463.99699770000007,466.98031959999935,shoe,f,2.0025414000001547,0.23781770000005054,466.9803571000002,466.98036629999933,None,,,,,,,,,,,,,,,,,00019,001,2025-11-08_12h25.21.130,MST_task,2024.2.2,60.00250810489111,2025-11-08 12h25.26.510569 +0530,
,Objects\134a.jpg,102,0,102,,,,,j,1.3399366000003283,0.22601569999915228,None,,,,,,,102,0,102,0,466.99694699999964,,,,,,,,,,,,,,,,,,,,,,,466.9804273,466.99694699999964,467.51360359999944,467.48050069999954,,,,,,,,,,,,,,,,,,,,,,467.49924289999944,467.51360359999944,467.51360359999944,467.51360359999944,470.4970446999996,shoe,j,1.3399366000003283,0.22601569999915228,470.4970870999996,470.4970966000001,None,,,,,,,,,,,,,,,,,00019,001,2025-11-08_12h25.21.130,MST_task,2024.2.2,60.00250810489111,2025-11-08 12h25.26.510569 +0530,
,Objects\245a.jpg,103,0,103,,,,,f,1.8121862999996665,0.23321910000049684,None,,,,,,,103,0,103,0,470.5135362000001,,,,,,,,,,,,,,,,,,,,,,,470.4971893000002,470.5135362000001,471.03017629999977,470.99712289999934,,,,,,,,,,,,,,,,,,,,,,471.01528619999954,471.03017629999977,471.03017629999977,471.03017629999977,474.01360139999997,shoe,f,1.8121862999996665,0.23321910000049684,474.0136371999997,474.0136462999999,None,,,,,,,,,,,,,,,,,00019,001,2025-11-08_12h25.21.130,MST_task,2024.2.2,60.00250810489111,2025-11-08 12h25.26.510569 +0530,
,Objects\138a.jpg,104,0,104,,,,,j,2.8226657000004707,None,None,,,,,,,104,0,104,0,474.03013629999987,,,,,,,,,,,,,,,,,,,,,,,474.0137042999995,474.03013629999987,474.5467897999997,474.51369799999975,,,,,,,,,,,,,,,,,,,,,,474.52981649999947,474.5467897999997,474.5467897999997,474.5467897999997,477.5300677999994,shoe,j,2.8226657000004707,None,477.5301015999994,477.5301101999994,None,,,,,,,,,,,,,,,,,00019,001,2025-11-08_12h25.21.130,MST_task,2024.2.2,60.00250810489111,2025-11-08 12h25.26.510569 +0530,
,Objects\149a.jpg,105,0,105,,,,,f,1.6907670000000508,0.2259094000000914,None,,,,,,,105,0,105,0,477.5467528999998,,,,,,,,,,,,,,,,,,,,,,,477.53019179999956,477.5467528999998,478.06335619999936,478.03019200000017,,,,,,,,,,,,,,,,,,,,,,478.0513675000002,478.06335619999936,478.06335619999936,478.06335619999936,481.0467755999998,indoor,f,1.6907670000000508,0.2259094000000914,481.04798070000015,481.0479924000001,None,,,,,,,,,,,,,,,,,00019,001,2025-11-08_12h25.21.130,MST_task,2024.2.2,60.00250810489111,2025-11-08 12h25.26.510569 +0530,
,Objects\195a.jpg,106,0,106,,,,,f,1.0779505000000427,0.23557249999976193,None,,,,,,,106,0,106,0,481.0632813000002,,,,,,,,,,,,,,,,,,,,,,,481.0480499999994,481.0632813000002,481.57994379999946,481.54692909999994,,,,,,,,,,,,,,,,,,,,,,481.5721145999996,481.57994379999946,481.57994379999946,481.57994379999946,484.56345689999944,indoor,f,1.0779505000000427,0.23557249999976193,484.5634957000002,484.56350549999934,None,,,,,,,,,,,,,,,,,00019,001,2025-11-08_12h25.21.130,MST_task,2024.2.2,60.00250810489111,2025-11-08 12h25.26.510569 +0530,
,Objects\098a.jpg,107,0,107,,,,,j,1.314513000000261,0.18559910000021773,None,,,,,,,107,0,107,0,484.57987539999976,,,,,,,,,,,,,,,,,,,,,,,484.56356629999937,484.57987539999976,485.09655810000004,485.06343669999933,,,,,,,,,,,,,,,,,,,,,,485.07573409999986,485.09655810000004,485.09655810000004,485.09655810000004,488.07985869999993,indoor,j,1.314513000000261,0.18559910000021773,488.0798946999994,488.07990359999985,None,,,,,,,,,,,,,,,,,00019,001,2025-11-08_12h25.21.130,MST_task,2024.2.2,60.00250810489111,2025-11-08 12h25.26.510569 +0530,
,Objects\008a.jpg,108,0,108,,,,,f,1.901073500000166,0.22325550000005023,None,,,,,,,108,0,108,0,488.09653419999995,,,,,,,,,,,,,,,,,,,,,,,488.0799600999999,488.09653419999995,488.6131184999995,488.5799485999996,,,,,,,,,,,,,,,,,,,,,,488.6019233999996,488.6131184999995,488.6131184999995,488.6131184999995,491.59649249999984,indoor,f,1.901073500000166,0.22325550000005023,491.5965288999996,491.5965377000002,None,,,,,,,,,,,,,,,,,00019,001,2025-11-08_12h25.21.130,MST_task,2024.2.2,60.00250810489111,2025-11-08 12h25.26.510569 +0530,
,Objects\053a.jpg,109,0,109,,,,,f,2.4642259000002014,0.19957290000002104,None,,,,,,,109,0,109,0,491.6130892000001,,,,,,,,,,,,,,,,,,,,,,,491.5965964999996,491.6130892000001,492.1297408999999,492.0965540999996,,,,,,,,,,,,,,,,,,,,,,492.11398310000004,492.1297408999999,492.1297408999999,492.1297408999999,495.11314559999937,indoor,f,2.4642259000002014,0.19957290000002104,495.1131869999999,495.11319619999995,None,,,,,,,,,,,,,,,,,00019,001,2025-11-08_12h25.21.130,MST_task,2024.2.2,60.00250810489111,2025-11-08 12h25.26.510569 +0530,
,Objects\356a.jpg,110,0,110,,,,,f,2.343804499999351,0.24758660000043164,None,,,,,,,110,0,110,0,495.12968060000003,,,,,,,,,,,,,,,,,,,,,,,495.1132545999999,495.12968060000003,495.6463173000002,495.61338220000016,,,,,,,,,,,,,,,,,,,,,,495.62770889999956,495.6463173000002,495.6463173000002,495.6463173000002,498.6296255999996,indoor,f,2.343804499999351,0.24758660000043164,498.62966119999965,498.6296708,None,,,,,,,,,,,,,,,,,00019,001,2025-11-08_12h25.21.130,MST_task,2024.2.2,60.00250810489111,2025-11-08 12h25.26.510569 +0530,
,Objects\158a.jpg,111,0,111,,,,,f,1.3269390000004933,0.21786899999915477,None,,,,,,,111,0,111,0,498.6462689,,,,,,,,,,,,,,,,,,,,,,,498.6297267,498.6462689,499.16288949999944,499.12980309999966,,,,,,,,,,,,,,,,,,,,,,499.15308169999935,499.16288949999944,499.16288949999944,499.16288949999944,502.12970959999984,indoor,f,1.3269390000004933,0.21786899999915477,502.1297562,502.1297684000001,None,,,,,,,,,,,,,,,,,00019,001,2025-11-08_12h25.21.130,MST_task,2024.2.2,60.00250810489111,2025-11-08 12h25.26.510569 +0530,
,Objects\340a.jpg,112,0,112,,,,,f,1.9199678000004496,0.2247840999998516,None,,,,,,,112,0,112,0,502.14619289999973,,,,,,,,,,,,,,,,,,,,,,,502.12982939999984,502.14619289999973,502.66281699999945,502.6296493,,,,,,,,,,,,,,,,,,,,,,502.64971049999986,502.66281699999945,502.66281699999945,502.66281699999945,505.6461690999995,shoe,f,1.9199678000004496,0.2247840999998516,505.6477057000002,505.6477178999994,None,,,,,,,,,,,,,,,,,00019,001,2025-11-08_12h25.21.130,MST_task,2024.2.2,60.00250810489111,2025-11-08 12h25.26.510569 +0530,
,Objects\272a.jpg,113,0,113,,,,,j,2.007538700000623,0.22935839999991003,None,,,,,,,113,0,113,0,505.6627529999996,,,,,,,,,,,,,,,,,,,,,,,505.64777349999986,505.6627529999996,506.17940819999967,506.1462739999997,,,,,,,,,,,,,,,,,,,,,,506.1653804999996,506.17940819999967,506.17940819999967,506.17940819999967,509.1627245999998,shoe,j,2.007538700000623,0.22935839999991003,509.16278109999985,509.1627946999997,None,,,,,,,,,,,,,,,,,00019,001,2025-11-08_12h25.21.130,MST_task,2024.2.2,60.00250810489111,2025-11-08 12h25.26.510569 +0530,
,Objects\225a.jpg,114,0,114,,,,,f,1.737469499999861,0.2382527999998274,None,,,,,,,114,0,114,0,509.1794146000002,,,,,,,,,,,,,,,,,,,,,,,509.16288859999986,509.1794146000002,509.69598769999993,509.6628475999996,,,,,,,,,,,,,,,,,,,,,,509.68450889999986,509.69598769999993,509.69598769999993,509.69598769999993,512.6628873999998,shoe,f,1.737469499999861,0.2382527999998274,512.6629255999997,512.6629358999999,None,,,,,,,,,,,,,,,,,00019,001,2025-11-08_12h25.21.130,MST_task,2024.2.2,60.00250810489111,2025-11-08 12h25.26.510569 +0530,
,Objects\254a.jpg,115,0,115,,,,,j,1.6087072000000262,0.2621680000002016,None,,,,,,,115,0,115,0,512.6793833000002,,,,,,,,,,,,,,,,,,,,,,,512.6629942999998,512.6793833000002,513.1788832000002,513.1628393999999,,,,,,,,,,,,,,,,,,,,,,513.1744844999994,513.1788832000002,513.1788832000002,513.1788832000002,516.1628894999994,shoe,j,1.6087072000000262,0.2621680000002016,516.1629242999998,516.1629327,None,516.1794117999998,516.1794117999998,516.1794117999998,,,,,,,,,,,,,,00019,001,2025-11-08_12h25.21.130,MST_task,2024.2.2,60.00250810489111,2025-11-08 12h25.26.510569 +0530,
,Objects\086a.jpg,116,0,116,,,,,f,2.3935999000004813,0.1879399999997986,None,,,,,,,116,0,116,0,516.1794117999998,,,,,,,,,,,,,,,,,,,,,,,516.1630163,516.1794117999998,516.6959386999997,516.6629050000001,,,,,,,,,,,,,,,,,,,,,,516.6830415999993,516.6959386999997,516.6959386999997,516.6959386999997,519.6792611000001,shoe,f,2.3935999000004813,0.1879399999997986,519.6792943,519.6793037999996,None,,,,,,,,,,,,,,,,,00019,001,2025-11-08_12h25.21.130,MST_task,2024.2.2,60.00250810489111,2025-11-08 12h25.26.510569 +0530,
,Objects\003a.jpg,117,0,117,,,,,j,1.4697399999995469,0.16625260000000708,None,,,,,,,117,0,117,0,519.6958981999996,,,,,,,,,,,,,,,,,,,,,,,519.6793883999999,519.6958981999996,520.1958599999998,520.1794189000002,,,,,,,,,,,,,,,,,,,,,,520.1875651,520.1958599999998,520.1958599999998,520.1958599999998,523.1794258,shoe,j,1.4697399999995469,0.16625260000000708,523.1794577999999,523.1794662000002,None,523.1958183999996,523.1958183999996,523.1958183999996,,,,,,,,,,,,,,00019,001,2025-11-08_12h25.21.130,MST_task,2024.2.2,60.00250810489111,2025-11-08 12h25.26.510569 +0530,
,Objects\128a.jpg,118,0,118,,,,,j,2.935531200000696,None,None,,,,,,,118,0,118,0,523.1958183999996,,,,,,,,,,,,,,,,,,,,,,,523.1795187999996,523.1958183999996,523.7124773999994,523.6794086,,,,,,,,,,,,,,,,,,,,,,523.6990232999997,523.7124773999994,523.7124773999994,523.7124773999994,526.6957581999995,shoe,j,2.935531200000696,None,526.6957920999994,526.6958011999996,None,,,,,,,,,,,,,,,,,00019,001,2025-11-08_12h25.21.130,MST_task,2024.2.2,60.00250810489111,2025-11-08 12h25.26.510569 +0530,
,Objects\173a.jpg,119,0,119,,,,,f,0.7666316999993796,0.20614240000031714,None,,,,,,,119,0,119,0,526.7124168,,,,,,,,,,,,,,,,,,,,,,,526.6958521999995,526.7124168,527.2291079999995,527.1959109,,,,,,,,,,,,,,,,,,,,,,527.2104233999999,527.2291079999995,527.2291079999995,527.2291079999995,530.2123670999999,indoor,f,0.7666316999993796,0.20614240000031714,530.2136259999997,530.2136375,None,,,,,,,,,,,,,,,,,00019,001,2025-11-08_12h25.21.130,MST_task,2024.2.2,60.00250810489111,2025-11-08 12h25.26.510569 +0530,
,Objects\062a.jpg,120,0,120,,,,,None,,,f,0.7242003999999724,None,,,,,120,0,120,0,530.2289995000001,,,,,,,,,,,,,,,,,,,,,,,530.2136922,530.2289995000001,530.7456385999994,530.7125575,,,,,,,,,,,,,,,,,,,,,,530.7350746000002,530.7456385999994,530.7456385999994,530.7456385999994,533.728959,indoor,None,,,533.7289936999996,534.4792769999995,f,,,,533.7455740999994,533.7455740999994,0.7242003999999724,None,,,,,,,,,,00019,001,2025-11-08_12h25.21.130,MST_task,2024.2.2,60.00250810489111,2025-11-08 12h25.26.510569 +0530,
,Objects\060a.jpg,121,0,121,,,,,f,1.302901999999449,0.23500590000003285,None,,,,,,,121,0,121,0,534.4955808999994,,,,,,,,,,,,,,,,,,,,,,,534.4793426999995,534.4955808999994,535.0122274999994,534.9790271000002,,,,,,,,,,,,,,,,,,,,,,534.9992756000001,535.0122274999994,535.0122274999994,535.0122274999994,537.9955070999995,indoor,f,1.302901999999449,0.23500590000003285,537.9955540999999,537.9955635999995,None,,,,,,,,,,,,,,,,,00019,001,2025-11-08_12h25.21.130,MST_task,2024.2.2,60.00250810489111,2025-11-08 12h25.26.510569 +0530,
,Objects\209a.jpg,122,0,122,,,,,f,2.344090800000231,0.1927574999999706,None,,,,,,,122,0,122,0,538.0121954999995,,,,,,,,,,,,,,,,,,,,,,,537.9956231999995,538.0121954999995,538.5117069999997,538.4957629999999,,,,,,,,,,,,,,,,,,,,,,538.5070910999993,538.5117069999997,538.5117069999997,538.5117069999997,541.4956328999997,indoor,f,2.344090800000231,0.1927574999999706,541.4956667999995,541.4956745,None,541.5121012,541.5121012,541.5121012,,,,,,,,,,,,,,00019,001,2025-11-08_12h25.21.130,MST_task,2024.2.2,60.00250810489111,2025-11-08 12h25.26.510569 +0530,
,Objects\145a.jpg,123,0,123,,,,,f,1.6551243000003524,0.24009800000021642,None,,,,,,,123,0,123,0,541.5121012,,,,,,,,,,,,,,,,,,,,,,,541.4957254000001,541.5121012,542.0286277999994,541.9955896000001,,,,,,,,,,,,,,,,,,,,,,542.0204872999993,542.0286277999994,542.0286277999994,542.0286277999994,545.0119488999999,indoor,f,1.6551243000003524,0.24009800000021642,545.0119834999996,545.0119926999996,None,,,,,,,,,,,,,,,,,00019,001,2025-11-08_12h25.21.130,MST_task,2024.2.2,60.00250810489111,2025-11-08 12h25.26.510569 +0530,
,Objects\358a.jpg,124,0,124,,,,,f,1.943855800000165,0.2526300999998057,None,,,,,,,124,0,124,0,545.0285894999997,,,,,,,,,,,,,,,,,,,,,,,545.0120473999996,545.0285894999997,545.5619766999998,545.5120698000001,,,,,,,,,,,,,,,,,,,,,,545.5526927000001,545.5619766999998,545.5619766999998,545.5619766999998,548.5286083999999,indoor,f,1.943855800000165,0.2526300999998057,548.5286465999998,548.5286557,None,,,,,,,,,,,,,,,,,00019,001,2025-11-08_12h25.21.130,MST_task,2024.2.2,60.00250810489111,2025-11-08 12h25.26.510569 +0530,
,Objects\244a.jpg,125,0,125,,,,,f,2.2122835999998642,0.24548049999975774,None,,,,,,,125,0,125,0,548.5451827999996,,,,,,,,,,,,,,,,,,,,,,,548.5287131999994,548.5451827999996,549.0618158999996,549.0286673999999,,,,,,,,,,,,,,,,,,,,,,549.0513376999997,549.0618158999996,549.0618158999996,549.0618158999996,552.0452589999995,indoor,f,2.2122835999998642,0.24548049999975774,552.0453019999995,552.0453120000002,None,,,,,,,,,,,,,,,,,00019,001,2025-11-08_12h25.21.130,MST_task,2024.2.2,60.00250810489111,2025-11-08 12h25.26.510569 +0530,
,Objects\146a.jpg,126,0,126,,,,,f,2.3171903000002203,0.24667219999992085,None,,,,,,,126,0,126,0,552.0617702999998,,,,,,,,,,,,,,,,,,,,,,,552.0453720999994,552.0617702999998,552.5784223999999,552.5452740000001,,,,,,,,,,,,,,,,,,,,,,552.5578324999997,552.5784223999999,552.5784223999999,552.5784223999999,555.5617576999994,shoe,f,2.3171903000002203,0.24667219999992085,555.5633355999998,555.5633478,None,,,,,,,,,,,,,,,,,00019,001,2025-11-08_12h25.21.130,MST_task,2024.2.2,60.00250810489111,2025-11-08 12h25.26.510569 +0530,
,Objects\084a.jpg,127,0,127,,,,,f,2.3687683999996807,0.2842983999998978,None,,,,,,,127,0,127,0,555.5783600999994,,,,,,,,,,,,,,,,,,,,,,,555.5634092999999,555.5783600999994,556.0949856999996,556.0618341999998,,,,,,,,,,,,,,,,,,,,,,556.0760556999994,556.0949856999996,556.0949856999996,556.0949856999996,559.0783455000001,shoe,f,2.3687683999996807,0.2842983999998978,559.0783817000001,559.0783905999997,None,,,,,,,,,,,,,,,,,00019,001,2025-11-08_12h25.21.130,MST_task,2024.2.2,60.00250810489111,2025-11-08 12h25.26.510569 +0530,
,Objects\262a.jpg,128,0,128,,,,,f,2.84865230000014,None,None,,,,,,,128,0,128,0,559.0949148999998,,,,,,,,,,,,,,,,,,,,,,,559.0784766999996,559.0949148999998,559.6116032,559.5784280999997,,,,,,,,,,,,,,,,,,,,,,559.6004191000002,559.6116032,559.6116032,559.6116032,562.5949028999994,shoe,f,2.84865230000014,None,562.5949615,562.5949707999998,None,,,,,,,,,,,,,,,,,00019,001,2025-11-08_12h25.21.130,MST_task,2024.2.2,60.00250810489111,2025-11-08 12h25.26.510569 +0530,
,Objects\376a.jpg,129,0,129,,,,,j,0.8713267000002816,0.24992680000013934,None,,,,,,,129,0,129,0,562.6115346999995,,,,,,,,,,,,,,,,,,,,,,,562.5950309999998,562.6115346999995,,563.0952019999995,,,,,,,,,,,,,,,,,,,,,,563.1070424999998,563.1281969000001,563.1281969000001,563.1281969000001,566.1114932,shoe,j,0.8713267000002816,0.24992680000013934,566.1115351999997,566.1115466000001,None,,,,,,,,,,,,,,,,,00019,001,2025-11-08_12h25.21.130,MST_task,2024.2.2,60.00250810489111,2025-11-08 12h25.26.510569 +0530,
,Objects\065a.jpg,130,0,130,,,,,j,1.81073379999998,0.1943851000005452,None,,,,,,,130,0,130,0,566.1281873999997,,,,,,,,,,,,,,,,,,,,,,,566.1116111000001,566.1281873999997,566.6447785999999,566.6116012000002,,,,,,,,,,,,,,,,,,,,,,566.6253083000001,566.6447785999999,566.6447785999999,566.6447785999999,569.6281147,shoe,j,1.81073379999998,0.1943851000005452,569.6281498999997,569.6281589999999,None,,,,,,,,,,,,,,,,,00019,001,2025-11-08_12h25.21.130,MST_task,2024.2.2,60.00250810489111,2025-11-08 12h25.26.510569 +0530,
,Objects\011a.jpg,131,0,131,,,,,j,2.368203199999698,0.1899399000003541,None,,,,,,,131,0,131,0,569.6447268000002,,,,,,,,,,,,,,,,,,,,,,,569.6282408999996,569.6447268000002,570.1613750999995,570.1281969000001,,,,,,,,,,,,,,,,,,,,,,570.140378,570.1613750999995,570.1613750999995,570.1613750999995,573.1448190000001,shoe,j,2.368203199999698,0.1899399000003541,573.1448546000001,573.1448629999995,None,,,,,,,,,,,,,,,,,00019,001,2025-11-08_12h25.21.130,MST_task,2024.2.2,60.00250810489111,2025-11-08 12h25.26.510569 +0530,
,Objects\167a.jpg,132,0,132,,,,,f,1.567670000000362,0.21352500000011787,None,,,,,,,132,0,132,0,573.1613376999994,,,,,,,,,,,,,,,,,,,,,,,573.1449218999996,573.1613376999994,573.6779824999994,573.6448916999998,,,,,,,,,,,,,,,,,,,,,,573.6629434999995,573.6779824999994,573.6779824999994,573.6779824999994,576.6612937,shoe,f,1.567670000000362,0.21352500000011787,576.6613294999997,576.6613388999995,None,,,,,,,,,,,,,,,,,00019,001,2025-11-08_12h25.21.130,MST_task,2024.2.2,60.00250810489111,2025-11-08 12h25.26.510569 +0530,
,Objects\235a.jpg,133,0,133,,,,,j,2.2453826999999364,0.2135671000005459,None,,,,,,,133,0,133,0,576.6779015000002,,,,,,,,,,,,,,,,,,,,,,,576.6613988999998,576.6779015000002,577.1945332999994,577.1614691999994,,,,,,,,,,,,,,,,,,,,,,577.1870994000001,577.1945332999994,577.1945332999994,577.1945332999994,580.1779585999993,indoor,j,2.2453826999999364,0.2135671000005459,580.1791895999995,580.1792010999998,None,,,,,,,,,,,,,,,,,00019,001,2025-11-08_12h25.21.130,MST_task,2024.2.2,60.00250810489111,2025-11-08 12h25.26.510569 +0530,
,Objects\346a.jpg,134,0,134,,,,,j,1.8171635999997306,0.20214709999982006,None,,,,,,,134,0,134,0,580.1944747999996,,,,,,,,,,,,,,,,,,,,,,,580.1792562999999,580.1944747999996,580.6944527999995,580.6779982999997,,,,,,,,,,,,,,,,,,,,,,580.6890923999999,580.6944527999995,580.6944527999995,580.6944527999995,583.6779575,indoor,j,1.8171635999997306,0.20214709999982006,583.6779929999993,583.6780011000001,None,583.6944131,583.6944131,583.6944131,,,,,,,,,,,,,,00019,001,2025-11-08_12h25.21.130,MST_task,2024.2.2,60.00250810489111,2025-11-08 12h25.26.510569 +0530,
,Objects\217a.jpg,135,0,135,,,,,None,,,f,0.9266778000001068,None,,,,,135,0,135,0,583.6944131,,,,,,,,,,,,,,,,,,,,,,,583.6780548999996,583.6944131,584.2110419,584.1779281999998,,,,,,,,,,,,,,,,,,,,,,584.1949421999998,584.2110419,584.2110419,584.2110419,587.1943430000001,indoor,None,,,587.1943838999996,588.1446827999998,f,,,,587.2110093000001,587.2110093000001,0.9266778000001068,None,,,,,,,,,,00019,001,2025-11-08_12h25.21.130,MST_task,2024.2.2,60.00250810489111,2025-11-08 12h25.26.510569 +0530,
,Objects\293a.jpg,136,0,136,,,,,f,1.2781734999998662,0.21049650000077236,None,,,,,,,136,0,136,0,588.1609797000001,,,,,,,,,,,,,,,,,,,,,,,588.1447613999999,588.1609797000001,588.6776129,588.6445503999994,,,,,,,,,,,,,,,,,,,,,,588.6675000999994,588.6776129,588.6776129,588.6776129,591.6609626999998,indoor,f,1.2781734999998662,0.21049650000077236,591.6609999000002,591.6610094999996,None,,,,,,,,,,,,,,,,,00019,001,2025-11-08_12h25.21.130,MST_task,2024.2.2,60.00250810489111,2025-11-08 12h25.26.510569 +0530,
,Objects\373a.jpg,137,0,137,,,,,j,2.2894720999993297,0.2566016999999192,None,,,,,,,137,0,137,0,591.6775753000002,,,,,,,,,,,,,,,,,,,,,,,591.6610655999993,591.6775753000002,592.1942056999997,592.1611097999994,,,,,,,,,,,,,,,,,,,,,,592.1801946999994,592.1942056999997,592.1942056999997,592.1942056999997,595.1775091999998,indoor,j,2.2894720999993297,0.2566016999999192,595.1775441999998,595.1775535999996,None,,,,,,,,,,,,,,,,,00019,001,2025-11-08_12h25.21.130,MST_task,2024.2.2,60.00250810489111,2025-11-08 12h25.26.510569 +0530,
,Objects\164a.jpg,138,0,138,,,,,j,1.6829680999999255,0.24180249999972148,None,,,,,,,138,0,138,0,595.1941649,,,,,,,,,,,,,,,,,,,,,,,595.1776093999997,595.1941649,595.7107977999995,595.6776464999994,,,,,,,,,,,,,,,,,,,,,,595.7034477999996,595.7107977999995,595.7107977999995,595.7107977999995,598.6941123999995,indoor,j,1.6829680999999255,0.24180249999972148,598.6941590999995,598.6941679000001,None,,,,,,,,,,,,,,,,,00019,001,2025-11-08_12h25.21.130,MST_task,2024.2.2,60.00250810489111,2025-11-08 12h25.26.510569 +0530,
,Objects\219a.jpg,139,0,139,,,,,None,,,f,0.06228060000012192,None,,,,,139,0,139,0,598.7107609999994,,,,,,,,,,,,,,,,,,,,,,,598.6942278999995,598.7107609999994,599.2273895999997,599.1943095999995,,,,,,,,,,,,,,,,,,,,,,599.2174060999996,599.2273895999997,599.2273895999997,599.2273895999997,602.2108142999996,indoor,None,,,602.2108461999997,602.2943029999997,f,,,,602.227347,602.227347,0.06228060000012192,None,,,,,,,,,,00019,001,2025-11-08_12h25.21.130,MST_task,2024.2.2,60.00250810489111,2025-11-08 12h25.26.510569 +0530,
,Objects\367a.jpg,140,0,140,,,,,f,1.452092900000025,0.1939026999998532,None,,,,,,,140,0,140,0,602.3106774999997,,,,,,,,,,,,,,,,,,,,,,,602.2943631999997,602.3106774999997,602.8273098,602.7942051,,,,,,,,,,,,,,,,,,,,,,602.8130921000002,602.8273098,602.8273098,602.8273098,605.8106312999998,shoe,f,1.452092900000025,0.1939026999998532,605.812199,605.8122113,None,,,,,,,,,,,,,,,,,00019,001,2025-11-08_12h25.21.130,MST_task,2024.2.2,60.00250810489111,2025-11-08 12h25.26.510569 +0530,
,Objects\275a.jpg,141,0,141,,,,,j,1.345856000000822,0.25130929999977525,None,,,,,,,141,0,141,0,605.8272442999996,,,,,,,,,,,,,,,,,,,,,,,605.8122674999995,605.8272442999996,606.3605680000001,606.3107460000001,,,,,,,,,,,,,,,,,,,,,,606.3477463999998,606.3605680000001,606.3605680000001,606.3605680000001,609.3273313999998,shoe,j,1.345856000000822,0.25130929999977525,609.3273680000002,609.3273768999998,None,,,,,,,,,,,,,,,,,00019,001,2025-11-08_12h25.21.130,MST_task,2024.2.2,60.00250810489111,2025-11-08 12h25.26.510569 +0530,
,Objects\328a.jpg,142,0,142,,,,,f,1.5910824000002322,0.2641279999998005,None,,,,,,,142,0,142,0,609.3438649999998,,,,,,,,,,,,,,,,,,,,,,,609.3274390999995,609.3438649999998,609.8604949999999,609.8274032999998,,,,,,,,,,,,,,,,,,,,,,609.8401139999996,609.8604949999999,609.8604949999999,609.8604949999999,612.8438342,shoe,f,1.5910824000002322,0.2641279999998005,612.8438682999995,612.8438774999995,None,,,,,,,,,,,,,,,,,00019,001,2025-11-08_12h25.21.130,MST_task,2024.2.2,60.00250810489111,2025-11-08 12h25.26.510569 +0530,
,Objects\311a.jpg,143,0,143,,,,,j,1.2831515999996554,0.20125069999994594,None,,,,,,,143,0,143,0,612.8604544999998,,,,,,,,,,,,,,,,,,,,,,,612.8439338999997,612.8604544999998,613.3770924999999,613.3439256000001,,,,,,,,,,,,,,,,,,,,,,613.3619660999993,613.3770924999999,613.3770924999999,613.3770924999999,616.3604587,shoe,j,1.2831515999996554,0.20125069999994594,616.3605029999999,616.3605122999998,None,,,,,,,,,,,,,,,,,00019,001,2025-11-08_12h25.21.130,MST_task,2024.2.2,60.00250810489111,2025-11-08 12h25.26.510569 +0530,
,Objects\069a.jpg,144,0,144,,,,,j,1.9125175999997737,0.18995950000044104,None,,,,,,,144,0,144,0,616.3770359,,,,,,,,,,,,,,,,,,,,,,,616.3605714999994,616.3770359,616.8937393999995,616.8605185999995,,,,,,,,,,,,,,,,,,,,,,616.8766360999998,616.8937393999995,616.8937393999995,616.8937393999995,619.8770419000002,shoe,j,1.9125175999997737,0.18995950000044104,619.8770773999995,619.8770862000001,None,,,,,,,,,,,,,,,,,00019,001,2025-11-08_12h25.21.130,MST_task,2024.2.2,60.00250810489111,2025-11-08 12h25.26.510569 +0530,
,Objects\115a.jpg,145,0,145,,,,,f,1.5838406999992003,0.19856350000009115,None,,,,,,,145,0,145,0,619.8936689000002,,,,,,,,,,,,,,,,,,,,,,,619.8771704000001,619.8936689000002,620.4102715999998,620.3771066999998,,,,,,,,,,,,,,,,,,,,,,620.3982504999994,620.4102715999998,620.4102715999998,620.4102715999998,623.3936845999997,shoe,f,1.5838406999992003,0.19856350000009115,623.3937233999995,623.3937323,None,,,,,,,,,,,,,,,,,00019,001,2025-11-08_12h25.21.130,MST_task,2024.2.2,60.00250810489111,2025-11-08 12h25.26.510569 +0530,
,Objects\103a.jpg,146,0,146,,,,,j,1.429195400000026,0.24833209999997052,None,,,,,,,146,0,146,0,623.4102235,,,,,,,,,,,,,,,,,,,,,,,623.3938168999994,623.4102235,623.9102032999999,623.8936710999997,,,,,,,,,,,,,,,,,,,,,,623.9015572999997,623.9102032999999,623.9102032999999,623.9102032999999,626.8938103999999,shoe,j,1.429195400000026,0.24833209999997052,626.8938570999999,626.8938680000001,None,626.9101440999993,626.9101440999993,626.9101440999993,,,,,,,,,,,,,,00019,001,2025-11-08_12h25.21.130,MST_task,2024.2.2,60.00250810489111,2025-11-08 12h25.26.510569 +0530,
,Objects\282a.jpg,147,0,147,,,,,j,2.4085863000000245,0.24620690000028844,None,,,,,,,147,0,147,0,626.9101440999993,,,,,,,,,,,,,,,,,,,,,,,626.8939621999998,626.9101440999993,627.4434603,627.3935756000001,,,,,,,,,,,,,,,,,,,,,,627.4301764000002,627.4434603,627.4434603,627.4434603,630.4101590999999,indoor,j,2.4085863000000245,0.24620690000028844,630.4113040000002,630.4113148999995,None,,,,,,,,,,,,,,,,,00019,001,2025-11-08_12h25.21.130,MST_task,2024.2.2,60.00250810489111,2025-11-08 12h25.26.510569 +0530,
,Objects\250a.jpg,148,0,148,,,,,f,2.6123695999995107,0.20189690000006522,None,,,,,,,148,0,148,0,630.4267056999997,,,,,,,,,,,,,,,,,,,,,,,630.4113681999997,630.4267056999997,630.9434084999994,630.9102119999998,,,,,,,,,,,,,,,,,,,,,,630.9297483,630.9434084999994,630.9434084999994,630.9434084999994,633.9267547999998,indoor,f,2.6123695999995107,0.20189690000006522,633.9267929999996,633.9268023999994,None,,,,,,,,,,,,,,,,,00019,001,2025-11-08_12h25.21.130,MST_task,2024.2.2,60.00250810489111,2025-11-08 12h25.26.510569 +0530,
,Objects\117a.jpg,149,0,149,,,,,j,2.181959100000313,0.24217999999927997,None,,,,,,,149,0,149,0,633.9434197999999,,,,,,,,,,,,,,,,,,,,,,,633.9268578000001,633.9434197999999,,634.4268689,,,,,,,,,,,,,,,,,,,,,,634.4458488,634.4600500999995,634.4600500999995,634.4600500999995,637.4435044000002,indoor,j,2.181959100000313,0.24217999999927997,637.4435390999997,637.4435487000001,None,,,,,,,,,,,,,,,,,00019,001,2025-11-08_12h25.21.130,MST_task,2024.2.2,60.00250810489111,2025-11-08 12h25.26.510569 +0530,
,Objects\052a.jpg,150,0,150,,,,,f,1.314194000000498,0.2981041000002733,None,,,,,,,150,0,150,0,637.4600065999994,,,,,,,,,,,,,,,,,,,,,,,637.4436083999999,637.4600065999994,637.9599988999998,637.9435103999995,,,,,,,,,,,,,,,,,,,,,,637.9520692999995,637.9599988999998,637.9599988999998,637.9599988999998,640.9435021999998,indoor,f,1.314194000000498,0.2981041000002733,640.9435411999993,640.9435506,None,640.9599271999996,640.9599271999996,640.9599271999996,,,,,,,,,,,,,,00019,001,2025-11-08_12h25.21.130,MST_task,2024.2.2,60.00250810489111,2025-11-08 12h25.26.510569 +0530,
,Objects\212a.jpg,151,0,151,,,,,j,2.595908000000236,0.21777759999986301,None,,,,,,,151,0,151,0,640.9599271999996,,,,,,,,,,,,,,,,,,,,,,,640.9436083,640.9599271999996,641.4765601999998,641.4433613000001,,,,,,,,,,,,,,,,,,,,,,641.4553747999998,641.4765601999998,641.4765601999998,641.4765601999998,644.4598623000002,indoor,j,2.595908000000236,0.21777759999986301,644.4599011999999,644.4599103,None,,,,,,,,,,,,,,,,,00019,001,2025-11-08_12h25.21.130,MST_task,2024.2.2,60.00250810489111,2025-11-08 12h25.26.510569 +0530,
,Objects\156a.jpg,152,0,152,,,,,f,2.6858365000007325,0.21261849999973492,None,,,,,,,152,0,152,0,644.4765198999994,,,,,,,,,,,,,,,,,,,,,,,644.4599647999994,644.4765198999994,644.9931511999994,644.9600431999997,,,,,,,,,,,,,,,,,,,,,,644.9808316999997,644.9931511999994,644.9931511999994,644.9931511999994,647.9764745000002,indoor,f,2.6858365000007325,0.21261849999973492,647.9765213000001,647.9765308999995,None,,,,,,,,,,,,,,,,,00019,001,2025-11-08_12h25.21.130,MST_task,2024.2.2,60.00250810489111,2025-11-08 12h25.26.510569 +0530,
,Objects\066a.jpg,153,0,153,,,,,j,2.5267541000002893,0.20495149999987916,None,,,,,,,153,0,153,0,647.9931127999998,,,,,,,,,,,,,,,,,,,,,,,647.9765889999999,647.9931127999998,648.5097406999994,648.4765675999997,,,,,,,,,,,,,,,,,,,,,,648.4963134,648.5097406999994,648.5097406999994,648.5097406999994,651.4930386999995,indoor,j,2.5267541000002893,0.20495149999987916,651.4930724999995,651.4930814999998,None,,,,,,,,,,,,,,,,,00019,001,2025-11-08_12h25.21.130,MST_task,2024.2.2,60.00250810489111,2025-11-08 12h25.26.510569 +0530,
,Objects\074a.jpg,154,0,154,,,,,f,1.4025038999998287,0.19800280000072235,None,,,,,,,154,0,154,0,651.5097543000002,,,,,,,,,,,,,,,,,,,,,,,651.4931349999997,651.5097543000002,,651.9931866999996,,,,,,,,,,,,,,,,,,,,,,652.0111161999994,652.0263298,652.0263298,652.0263298,655.0096509999994,shoe,f,1.4025038999998287,0.19800280000072235,655.0112162999994,655.0112333999996,None,,,,,,,,,,,,,,,,,00019,001,2025-11-08_12h25.21.130,MST_task,2024.2.2,60.00250810489111,2025-11-08 12h25.26.510569 +0530,
,Objects\201a.jpg,155,0,155,,,,,f,1.3602928000000247,0.21668700000009267,None,,,,,,,155,0,155,0,655.0262904000001,,,,,,,,,,,,,,,,,,,,,,,655.0113218999995,655.0262904000001,655.5429230999998,655.5098018999997,,,,,,,,,,,,,,,,,,,,,,655.5328380999999,655.5429230999998,655.5429230999998,655.5429230999998,658.5262629999997,shoe,f,1.3602928000000247,0.21668700000009267,658.5262986999996,658.5263250999997,None,,,,,,,,,,,,,,,,,00019,001,2025-11-08_12h25.21.130,MST_task,2024.2.2,60.00250810489111,2025-11-08 12h25.26.510569 +0530,
,Objects\299a.jpg,156,0,156,,,,,j,1.351429299999836,0.295817199999874,None,,,,,,,156,0,156,0,658.5428762000001,,,,,,,,,,,,,,,,,,,,,,,658.5264084,658.5428762000001,659.0430152999998,659.0263679999998,,,,,,,,,,,,,,,,,,,,,,659.0371077999998,659.0430152999998,659.0430152999998,659.0430152999998,662.0263317999998,shoe,j,1.351429299999836,0.295817199999874,662.0263659000002,662.0263741999997,None,662.0428032,662.0428032,662.0428032,,,,,,,,,,,,,,00019,001,2025-11-08_12h25.21.130,MST_task,2024.2.2,60.00250810489111,2025-11-08 12h25.26.510569 +0530,
,Objects\233a.jpg,157,0,157,,,,,f,1.5863822999999684,0.2537137999997867,None,,,,,,,157,0,157,0,662.0428032,,,,,,,,,,,,,,,,,,,,,,,662.0264274000001,662.0428032,662.5593915999998,662.5263786999994,,,,,,,,,,,,,,,,,,,,,,662.5504142999998,662.5593915999998,662.5593915999998,662.5593915999998,665.5427623999994,shoe,f,1.5863822999999684,0.2537137999997867,665.5428114999995,665.5428203000001,None,,,,,,,,,,,,,,,,,00019,001,2025-11-08_12h25.21.130,MST_task,2024.2.2,60.00250810489111,2025-11-08 12h25.26.510569 +0530,
,Objects\147a.jpg,158,0,158,,,,,j,2.426282400000673,0.31940359999953216,None,,,,,,,158,0,158,0,665.5593217999995,,,,,,,,,,,,,,,,,,,,,,,665.5428782999998,665.5593217999995,666.0760392000002,666.0429187,,,,,,,,,,,,,,,,,,,,,,666.0605982999996,666.0760392000002,666.0760392000002,666.0760392000002,669.0593385000002,shoe,j,2.426282400000673,0.31940359999953216,669.0593743,669.0593835,None,,,,,,,,,,,,,,,,,00019,001,2025-11-08_12h25.21.130,MST_task,2024.2.2,60.00250810489111,2025-11-08 12h25.26.510569 +0530,
,Objects\329a.jpg,159,0,159,,,,,f,1.7632642999997188,0.31346920000032696,None,,,,,,,159,0,159,0,669.0760313999999,,,,,,,,,,,,,,,,,,,,,,,669.0594407999997,669.0760313999999,669.5926420999995,669.5595237999996,,,,,,,,,,,,,,,,,,,,,,669.5815988999993,669.5926420999995,669.5926420999995,669.5926420999995,672.5759201000001,shoe,f,1.7632642999997188,0.31346920000032696,672.5759576,672.5759668000001,None,,,,,,,,,,,,,,,,,00019,001,2025-11-08_12h25.21.130,MST_task,2024.2.2,60.00250810489111,2025-11-08 12h25.26.510569 +0530,
,Objects\243a.jpg,160,0,160,,,,,f,2.8722514000000956,None,None,,,,,,,160,0,160,0,672.5925756999995,,,,,,,,,,,,,,,,,,,,,,,672.5760495999994,672.5925756999995,673.1259031999998,673.0761702,,,,,,,,,,,,,,,,,,,,,,673.1067039,673.1259031999998,673.1259031999998,673.1259031999998,676.0925054999998,shoe,f,2.8722514000000956,None,676.0925391000001,676.0925481999993,None,,,,,,,,,,,,,,,,,00019,001,2025-11-08_12h25.21.130,MST_task,2024.2.2,60.00250810489111,2025-11-08 12h25.26.510569 +0530,
,Objects\172a.jpg,161,0,161,,,,,j,1.615517500000351,0.17805289999978413,None,,,,,,,161,0,161,0,676.1091626999996,,,,,,,,,,,,,,,,,,,,,,,676.0926007999997,676.1091626999996,676.6425331999999,676.5927465999994,,,,,,,,,,,,,,,,,,,,,,676.6209246999997,676.6425331999999,676.6425331999999,676.6425331999999,679.6090354999997,indoor,j,1.615517500000351,0.17805289999978413,679.6101929999995,679.6102157999994,None,,,,,,,,,,,,,,,,,00019,001,2025-11-08_12h25.21.130,MST_task,2024.2.2,60.00250810489111,2025-11-08 12h25.26.510569 +0530,
,Objects\253a.jpg,162,0,162,,,,,f,2.06980349999958,0.21168719999968744,None,,,,,,,162,0,162,0,679.6256587999997,,,,,,,,,,,,,,,,,,,,,,,679.6102731000001,679.6256587999997,680.1422936999998,680.1091452999999,,,,,,,,,,,,,,,,,,,,,,680.1245570000001,680.1422936999998,680.1422936999998,680.1422936999998,683.1256374999994,indoor,f,2.06980349999958,0.21168719999968744,683.1256739999999,683.1256831000001,None,,,,,,,,,,,,,,,,,00019,001,2025-11-08_12h25.21.130,MST_task,2024.2.2,60.00250810489111,2025-11-08 12h25.26.510569 +0530,
,Objects\258a.jpg,163,0,163,,,,,f,1.9256588999996893,0.251620200000616,None,,,,,,,163,0,163,0,683.1422510000002,,,,,,,,,,,,,,,,,,,,,,,683.1257417999996,683.1422510000002,683.6422384999996,683.6258464000002,,,,,,,,,,,,,,,,,,,,,,683.6366423999998,683.6422384999996,683.6422384999996,683.6422384999996,686.6258416999999,indoor,f,1.9256588999996893,0.251620200000616,686.6258776999994,686.6258865,None,686.6422034999996,686.6422034999996,686.6422034999996,,,,,,,,,,,,,,00019,001,2025-11-08_12h25.21.130,MST_task,2024.2.2,60.00250810489111,2025-11-08 12h25.26.510569 +0530,
,Objects\215a.jpg,164,0,164,,,,,f,1.3834307000006447,0.2816559999992023,None,,,,,,,164,0,164,0,686.6422034999996,,,,,,,,,,,,,,,,,,,,,,,686.6259394999997,686.6422034999996,687.1588403999995,687.1257753999998,,,,,,,,,,,,,,,,,,,,,,687.1418782000001,687.1588403999995,687.1588403999995,687.1588403999995,690.1421280999994,indoor,f,1.3834307000006447,0.2816559999992023,690.1421651999999,690.142175,None,,,,,,,,,,,,,,,,,00019,001,2025-11-08_12h25.21.130,MST_task,2024.2.2,60.00250810489111,2025-11-08 12h25.26.510569 +0530,
,Objects\324a.jpg,165,0,165,,,,,f,1.9198294999996506,0.25440750000052503,None,,,,,,,165,0,165,0,690.1587707999997,,,,,,,,,,,,,,,,,,,,,,,690.1422335999996,690.1587707999997,690.6920645,690.6422388000001,,,,,,,,,,,,,,,,,,,,,,690.6713848999998,690.6920645,690.6920645,690.6920645,693.6588388,indoor,f,1.9198294999996506,0.25440750000052503,693.6588752999996,693.6588842000001,None,,,,,,,,,,,,,,,,,00019,001,2025-11-08_12h25.21.130,MST_task,2024.2.2,60.00250810489111,2025-11-08 12h25.26.510569 +0530,
,Objects\064a.jpg,166,0,166,,,,,j,1.4671712999997908,0.28297220000058587,None,,,,,,,166,0,166,0,693.6753792999998,,,,,,,,,,,,,,,,,,,,,,,693.6589408,693.6753792999998,694.1919849999995,694.1590533999997,,,,,,,,,,,,,,,,,,,,,,694.1849106,694.1919849999995,694.1919849999995,694.1919849999995,697.1753680000002,indoor,j,1.4671712999997908,0.28297220000058587,697.1754021999996,697.1754110000002,None,,,,,,,,,,,,,,,,,00019,001,2025-11-08_12h25.21.130,MST_task,2024.2.2,60.00250810489111,2025-11-08 12h25.26.510569 +0530,
,Objects\094a.jpg,167,0,167,,,,,f,2.771676000000298,0.19379860000026383,None,,,,,,,167,0,167,0,697.1920048000002,,,,,,,,,,,,,,,,,,,,,,,697.1754675000002,697.1920048000002,697.7086304999993,697.6754234,,,,,,,,,,,,,,,,,,,,,,697.6924838999994,697.7086304999993,697.7086304999993,697.7086304999993,700.6919073999998,indoor,f,2.771676000000298,0.19379860000026383,700.6919416000001,700.6919505999995,None,,,,,,,,,,,,,,,,,00019,001,2025-11-08_12h25.21.130,MST_task,2024.2.2,60.00250810489111,2025-11-08 12h25.26.510569 +0530,
,Objects\018a.jpg,168,0,168,,,,,f,2.2564944999994623,0.20363150000048336,None,,,,,,,168,0,168,0,700.7085148999995,,,,,,,,,,,,,,,,,,,,,,,700.6920050999997,700.7085148999995,701.2252005,701.1920206999994,,,,,,,,,,,,,,,,,,,,,,701.2107679999999,701.2252005,701.2252005,701.2252005,704.2085224000002,shoe,f,2.2564944999994623,0.20363150000048336,704.210016,704.2100301,None,,,,,,,,,,,,,,,,,00019,001,2025-11-08_12h25.21.130,MST_task,2024.2.2,60.00250810489111,2025-11-08 12h25.26.510569 +0530,
,Objects\045a.jpg,169,0,169,,,,,j,2.301047500000095,0.21327320000000327,None,,,,,,,169,0,169,0,704.2251329000001,,,,,,,,,,,,,,,,,,,,,,,704.2100898999997,704.2251329000001,704.7250906999998,704.7086806999996,,,,,,,,,,,,,,,,,,,,,,704.7169321000001,704.7250906999998,704.7250906999998,704.7250906999998,707.7086663999999,shoe,j,2.301047500000095,0.21327320000000327,707.7087020999998,707.7087110000002,None,707.7250310999998,707.7250310999998,707.7250310999998,,,,,,,,,,,,,,00019,001,2025-11-08_12h25.21.130,MST_task,2024.2.2,60.00250810489111,2025-11-08 12h25.26.510569 +0530,
,Objects\249a.jpg,170,0,170,,,,,f,1.5873774000001504,0.21020729999963805,None,,,,,,,170,0,170,0,707.7250310999998,,,,,,,,,,,,,,,,,,,,,,,707.7087974999995,707.7250310999998,708.2417240999994,708.2085294999997,,,,,,,,,,,,,,,,,,,,,,708.2290518,708.2417240999994,708.2417240999994,708.2417240999994,711.2250242999999,shoe,f,1.5873774000001504,0.21020729999963805,711.2250727,711.2250816999995,None,,,,,,,,,,,,,,,,,00019,001,2025-11-08_12h25.21.130,MST_task,2024.2.2,60.00250810489111,2025-11-08 12h25.26.510569 +0530,
,Objects\042a.jpg,171,0,171,,,,,j,1.6814798000004885,0.22188910000022588,None,,,,,,,171,0,171,0,711.241669,,,,,,,,,,,,,,,,,,,,,,,711.2251683999993,711.241669,711.7582671,711.7251033000002,,,,,,,,,,,,,,,,,,,,,,711.7457777999998,711.7582671,711.7582671,711.7582671,714.7415898999998,shoe,j,1.6814798000004885,0.22188910000022588,714.7416248999998,714.7416343999994,None,,,,,,,,,,,,,,,,,00019,001,2025-11-08_12h25.21.130,MST_task,2024.2.2,60.00250810489111,2025-11-08 12h25.26.510569 +0530,
,Objects\091a.jpg,172,0,172,,,,,j,1.2687517000003936,0.26408009999977367,None,,,,,,,172,0,172,0,714.7582383999998,,,,,,,,,,,,,,,,,,,,,,,714.7416933999993,714.7582383999998,,715.2416815999995,,,,,,,,,,,,,,,,,,,,,,715.2612256000002,715.2748652,715.2748652,715.2748652,718.2582461000002,shoe,j,1.2687517000003936,0.26408009999977367,718.2582837999998,718.2582941000001,None,,,,,,,,,,,,,,,,,00019,001,2025-11-08_12h25.21.130,MST_task,2024.2.2,60.00250810489111,2025-11-08 12h25.26.510569 +0530,
,Objects\255a.jpg,173,0,173,,,,,f,2.581561199999669,0.19641469999987748,None,,,,,,,173,0,173,0,718.2748217999997,,,,,,,,,,,,,,,,,,,,,,,718.2583819000001,718.2748217999997,718.7914532999994,718.7583144999999,,,,,,,,,,,,,,,,,,,,,,718.7763491999995,718.7914532999994,718.7914532999994,718.7914532999994,721.7749081000002,shoe,f,2.581561199999669,0.19641469999987748,721.7749508999996,721.7749601999994,None,,,,,,,,,,,,,,,,,00019,001,2025-11-08_12h25.21.130,MST_task,2024.2.2,60.00250810489111,2025-11-08 12h25.26.510569 +0530,
