thisN,thisTrialN,thisRepN,key_resp_3.keys,key_resp_3.rt,key_resp_3.duration,trials.thisRepN,trials.thisTrialN,trials.thisN,trials.thisIndex,thisRow.t,notes,intro_page.started,text.started,key_resp.started,intro_page.stopped,key_resp.keys,key_resp.rt,key_resp.duration,instructions.started,text_2.started,key_resp_2.started,instructions.stopped,key_resp_2.keys,key_resp_2.rt,key_resp_2.duration,demo1.started,image_1.started,image_2.started,text_7.started,key_resp_6.started,text_9.started,demo1.stopped,key_resp_6.keys,key_resp_6.rt,key_resp_6.duration,demo3.started,image_5.started,image_6.started,text_11.started,text_12.started,key_resp_8.started,demo3.stopped,key_resp_8.keys,key_resp_8.rt,key_resp_8.duration,demo_conclusion.started,text_13.started,key_resp_9.started,demo_conclusion.stopped,key_resp_9.keys,key_resp_9.rt,key_resp_9.duration,start_test.started,text_6.started,key_resp_5.started,start_test.stopped,key_resp_5.keys,key_resp_5.rt,key_resp_5.duration,ISI.started,text_4.started,text_4.stopped,ISI.stopped,routine_1.started,image.started,text_3.started,key_resp_3.started,routine_1.stopped,image_path,position_of_stimuli,trials.key_resp_3.keys,trials.key_resp_3.rt,trials.key_resp_3.duration,End_page.started,text_5.started,key_resp_4.started,End_page.stopped,key_resp_4.keys,key_resp_4.rt,key_resp_4.duration,participant,session,date,expName,psychopyVersion,frameRate,expStart,
,,,,,,,,,,,,0.01662750000014057,0.032811799999763025,0.032811799999763025,2.5175972999995793,space,2.4711130999994566,None,,,,,,,,,,,,,,,,,,,,,,,,,,,,,,,,,,,,,,,,,,,,,,,,,,,,,,,,,,,,,,,00019,001,2025-11-08_12h49.14.340,MST_test,2024.2.2,59.99192508672502,2025-11-08 12h49.21.096286 +0530,
,,,,,,,,,,,,,,,,,,,2.517629699999816,2.5327053000000888,2.5327053000000888,11.549529999999322,space,9.005150399999366,None,,,,,,,,,,,,,,,,,,,,,,,,,,,,,,,,,,,,,,,,,,,,,,,,,,,,,,,,00019,001,2025-11-08_12h49.14.340,MST_test,2024.2.2,59.99192508672502,2025-11-08 12h49.21.096286 +0530,
,,,,,,,,,,,,,,,,,,,,,,,,,,11.549551199999769,11.56588069999998,11.56588069999998,11.56588069999998,11.56588069999998,11.56588069999998,15.566198900000018,space,3.9907075999999506,None,,,,,,,,,,,,,,,,,,,,,,,,,,,,,,,,,,,,,,,,,,,,,,00019,001,2025-11-08_12h49.14.340,MST_test,2024.2.2,59.99192508672502,2025-11-08 12h49.21.096286 +0530,
,,,,,,,,,,,,,,,,,,,,,,,,,,,,,,,,,,,,15.566223299999365,15.582447099999627,15.582447099999627,15.582447099999627,15.582447099999627,15.582447099999627,18.56602810000004,space,2.9676472000001013,None,,,,,,,,,,,,,,,,,,,,,,,,,,,,,,,,,,,,00019,001,2025-11-08_12h49.14.340,MST_test,2024.2.2,59.99192508672502,2025-11-08 12h49.21.096286 +0530,
,,,,,,,,,,,,,,,,,,,,,,,,,,,,,,,,,,,,,,,,,,,,,,18.566050299999915,18.582379200000105,18.582379200000105,72.36503559999983,space,53.777653199999804,None,,,,,,,,,,,,,,,,,,,,,,,,,,,,,00019,001,2025-11-08_12h49.14.340,MST_test,2024.2.2,59.99192508672502,2025-11-08 12h49.21.096286 +0530,
,,,,,,,,,,,,,,,,,,,,,,,,,,,,,,,,,,,,,,,,,,,,,,,,,,,,,72.36507859999983,72.38119430000006,72.38119430000006,146.22999530000016,space,73.84496539999964,None,,,,,,,,,,,,,,,,,,,,,,00019,001,2025-11-08_12h49.14.340,MST_test,2024.2.2,59.99192508672502,2025-11-08 12h49.21.096286 +0530,
0,0,0,s,4.273006399999758,None,0,0,0,0,146.24628070000017,,,,,,,,,,,,,,,,,,,,,,,,,,,,,,,,,,,,,,,,,,,,,,,,,,146.23296039999968,146.24628070000017,146.76317909999943,146.7298106999997,146.7532381000001,146.76317909999943,146.76317909999943,146.76317909999943,151.04653999999937,Objects\166b.jpg,mid,s,4.273006399999758,None,,,,,,,,00019,001,2025-11-08_12h49.14.340,MST_test,2024.2.2,59.99192508672502,2025-11-08 12h49.21.096286 +0530,
1,0,1,o,3.5314213000001473,None,1,0,1,0,151.06284789999972,,,,,,,,,,,,,,,,,,,,,,,,,,,,,,,,,,,,,,,,,,,,,,,,,,151.0466252999995,151.06284789999972,151.56280089999927,151.5463891999998,151.54843189999974,151.56280089999927,151.56280089999927,151.56280089999927,155.0964989999993,Objects\162a.jpg,pre,o,3.5314213000001473,None,,,,,,,,00019,001,2025-11-08_12h49.14.340,MST_test,2024.2.2,59.99192508672502,2025-11-08 12h49.21.096286 +0530,
2,0,2,o,1.2690022000006138,None,2,0,2,0,155.1127534999996,,,,,,,,,,,,,,,,,,,,,,,,,,,,,,,,,,,,,,,,,,,,,,,,,,155.09658369999943,155.1127534999996,155.61288299999978,155.59633589999976,155.60163029999967,155.61288299999978,155.61288299999978,155.61288299999978,156.89642269999968,Objects\209a.jpg,mid,o,1.2690022000006138,None,,,,,,,,00019,001,2025-11-08_12h49.14.340,MST_test,2024.2.2,59.99192508672502,2025-11-08 12h49.21.096286 +0530,
3,0,3,o,1.0673518000003241,None,3,0,3,0,156.9127172999997,,,,,,,,,,,,,,,,,,,,,,,,,,,,,,,,,,,,,,,,,,,,,,,,,,156.8965075999995,156.9127172999997,157.41266600000017,157.39631419999932,157.40222579999954,157.41266600000017,157.41266600000017,157.41266600000017,158.4964903,Objects\237a.jpg,pre,o,1.0673518000003241,None,,,,,,,,00019,001,2025-11-08_12h49.14.340,MST_test,2024.2.2,59.99192508672502,2025-11-08 12h49.21.096286 +0530,
4,0,4,o,0.9943619000005128,None,4,0,4,0,158.5127655999995,,,,,,,,,,,,,,,,,,,,,,,,,,,,,,,,,,,,,,,,,,,,,,,,,,158.49658329999966,158.5127655999995,159.0293432999997,158.9961476999997,159.0153105999998,159.0293432999997,159.0293432999997,159.0293432999997,160.02982929999962,Objects\317b.jpg,post,o,0.9943619000005128,None,,,,,,,,00019,001,2025-11-08_12h49.14.340,MST_test,2024.2.2,59.99192508672502,2025-11-08 12h49.21.096286 +0530,
5,0,5,s,0.9160370999998122,None,5,0,5,0,160.04596189999938,,,,,,,,,,,,,,,,,,,,,,,,,,,,,,,,,,,,,,,,,,,,,,,,,,160.02991179999935,160.04596189999938,160.56263409999974,160.52958529999978,160.54551509999965,160.56263409999974,160.56263409999974,160.56263409999974,161.47963609999988,Foils\101b.jpg,none,s,0.9160370999998122,None,,,,,,,,00019,001,2025-11-08_12h49.14.340,MST_test,2024.2.2,59.99192508672502,2025-11-08 12h49.21.096286 +0530,
6,0,6,o,2.1638995999992403,None,6,0,6,0,161.49598289999994,,,,,,,,,,,,,,,,,,,,,,,,,,,,,,,,,,,,,,,,,,,,,,,,,,161.4797093999996,161.49598289999994,162.01257290000012,161.97951019999982,162.0035780999997,162.01257290000012,162.01257290000012,162.01257290000012,164.17964989999928,Objects\082b.jpg,pre,o,2.1638995999992403,None,,,,,,,,00019,001,2025-11-08_12h49.14.340,MST_test,2024.2.2,59.99192508672502,2025-11-08 12h49.21.096286 +0530,
7,0,7,o,0.8604001000003336,None,7,0,7,0,164.19589859999996,,,,,,,,,,,,,,,,,,,,,,,,,,,,,,,,,,,,,,,,,,,,,,,,,,164.1797364999993,164.19589859999996,164.69584339999983,164.67942289999974,164.68425219999972,164.69584339999983,164.69584339999983,164.69584339999983,165.56282889999966,Objects\381a.jpg,pre,o,0.8604001000003336,None,,,,,,,,00019,001,2025-11-08_12h49.14.340,MST_test,2024.2.2,59.99192508672502,2025-11-08 12h49.21.096286 +0530,
8,0,8,o,2.0952477000000727,None,8,0,8,0,165.57922319999943,,,,,,,,,,,,,,,,,,,,,,,,,,,,,,,,,,,,,,,,,,,,,,,,,,165.56291169999986,165.57922319999943,166.09582079999927,166.06274269999994,166.08107519999976,166.09582079999927,166.09582079999927,166.09582079999927,168.19623129999945,Foils\066a.jpg,none,o,2.0952477000000727,None,,,,,,,,00019,001,2025-11-08_12h49.14.340,MST_test,2024.2.2,59.99192508672502,2025-11-08 12h49.21.096286 +0530,
9,0,9,o,0.9452241999997568,None,9,0,9,0,168.21248060000016,,,,,,,,,,,,,,,,,,,,,,,,,,,,,,,,,,,,,,,,,,,,,,,,,,168.19631429999936,168.21248060000016,168.72911229999954,168.69602159999977,168.71324809999987,168.72911229999954,168.72911229999954,168.72911229999954,169.67946870000014,Objects\203b.jpg,post,o,0.9452241999997568,None,,,,,,,,00019,001,2025-11-08_12h49.14.340,MST_test,2024.2.2,59.99192508672502,2025-11-08 12h49.21.096286 +0530,
10,0,10,o,1.4317974000005051,None,10,0,10,0,169.69573579999997,,,,,,,,,,,,,,,,,,,,,,,,,,,,,,,,,,,,,,,,,,,,,,,,,,169.67956809999941,169.69573579999997,170.21239849999984,170.17930379999962,170.20344299999942,170.21239849999984,170.21239849999984,170.21239849999984,171.64597909999975,Objects\052b.jpg,mid,o,1.4317974000005051,None,,,,,,,,00019,001,2025-11-08_12h49.14.340,MST_test,2024.2.2,59.99192508672502,2025-11-08 12h49.21.096286 +0530,
11,0,11,o,0.7858676000005289,None,11,0,11,0,171.66236489999937,,,,,,,,,,,,,,,,,,,,,,,,,,,,,,,,,,,,,,,,,,,,,,,,,,171.64605810000012,171.66236489999937,172.17906390000007,172.14598469999964,172.16738739999982,172.17906390000007,172.17906390000007,172.17906390000007,172.97927509999954,Objects\371b.jpg,post,o,0.7858676000005289,None,,,,,,,,00019,001,2025-11-08_12h49.14.340,MST_test,2024.2.2,59.99192508672502,2025-11-08 12h49.21.096286 +0530,
12,0,12,o,0.542524699999376,None,12,0,12,0,172.9957074999993,,,,,,,,,,,,,,,,,,,,,,,,,,,,,,,,,,,,,,,,,,,,,,,,,,172.9793493999996,172.9957074999993,173.49565929999972,173.47922609999932,173.48424629999954,173.49565929999972,173.49565929999972,173.49565929999972,174.04594899999938,Objects\167a.jpg,pre,o,0.542524699999376,None,,,,,,,,00019,001,2025-11-08_12h49.14.340,MST_test,2024.2.2,59.99192508672502,2025-11-08 12h49.21.096286 +0530,
13,0,13,o,1.4950636000003215,None,13,0,13,0,174.06230929999947,,,,,,,,,,,,,,,,,,,,,,,,,,,,,,,,,,,,,,,,,,,,,,,,,,174.04601719999937,174.06230929999947,174.57900549999977,174.5459039999996,174.5686498999994,174.57900549999977,174.57900549999977,174.57900549999977,176.0792160000001,Objects\034b.jpg,pre,o,1.4950636000003215,None,,,,,,,,00019,001,2025-11-08_12h49.14.340,MST_test,2024.2.2,59.99192508672502,2025-11-08 12h49.21.096286 +0530,
14,0,14,s,1.3002520999998524,None,14,0,14,0,176.09565289999955,,,,,,,,,,,,,,,,,,,,,,,,,,,,,,,,,,,,,,,,,,,,,,,,,,176.07929150000018,176.09565289999955,176.61235209999995,176.57917169999928,176.59921599999961,176.61235209999995,176.61235209999995,176.61235209999995,177.92931580000004,Foils\082a.jpg,none,s,1.3002520999998524,None,,,,,,,,00019,001,2025-11-08_12h49.14.340,MST_test,2024.2.2,59.99192508672502,2025-11-08 12h49.21.096286 +0530,
15,0,15,s,1.2550074000000677,None,15,0,15,0,177.94559909999953,,,,,,,,,,,,,,,,,,,,,,,,,,,,,,,,,,,,,,,,,,,,,,,,,,177.92939419999948,177.94559909999953,178.4622486999997,178.42914909999945,178.4456814999994,178.4622486999997,178.4622486999997,178.4622486999997,179.7292067999997,Foils\121a.jpg,none,s,1.2550074000000677,None,,,,,,,,00019,001,2025-11-08_12h49.14.340,MST_test,2024.2.2,59.99192508672502,2025-11-08 12h49.21.096286 +0530,
16,0,16,o,1.0618841000004977,None,16,0,16,0,179.7455731,,,,,,,,,,,,,,,,,,,,,,,,,,,,,,,,,,,,,,,,,,,,,,,,,,179.72928580000007,179.7455731,180.26217850000012,180.22914969999965,180.24895860000015,180.26217850000012,180.26217850000012,180.26217850000012,181.32924850000018,Objects\313b.jpg,pre,o,1.0618841000004977,None,,,,,,,,00019,001,2025-11-08_12h49.14.340,MST_test,2024.2.2,59.99192508672502,2025-11-08 12h49.21.096286 +0530,
17,0,17,o,0.936063699999977,None,17,0,17,0,181.34551939999983,,,,,,,,,,,,,,,,,,,,,,,,,,,,,,,,,,,,,,,,,,,,,,,,,,181.3293206999997,181.34551939999983,181.86213769999995,181.8290895,181.85416850000001,181.86213769999995,181.86213769999995,181.86213769999995,182.81252700000005,Objects\222b.jpg,mid,o,0.936063699999977,None,,,,,,,,00019,001,2025-11-08_12h49.14.340,MST_test,2024.2.2,59.99192508672502,2025-11-08 12h49.21.096286 +0530,
18,0,18,s,2.7362965000002077,None,18,0,18,0,182.82882100000006,,,,,,,,,,,,,,,,,,,,,,,,,,,,,,,,,,,,,,,,,,,,,,,,,,182.81260719999955,182.82882100000006,183.34546450000016,183.31242339999972,183.33835929999987,183.34546450000016,183.34546450000016,183.34546450000016,186.0958359999995,Objects\244b.jpg,pre,s,2.7362965000002077,None,,,,,,,,00019,001,2025-11-08_12h49.14.340,MST_test,2024.2.2,59.99192508672502,2025-11-08 12h49.21.096286 +0530,
19,0,19,s,2.1510895000001256,None,19,0,19,0,186.11211860000003,,,,,,,,,,,,,,,,,,,,,,,,,,,,,,,,,,,,,,,,,,,,,,,,,,186.0959243999996,186.11211860000003,186.6287180999998,186.59555980000005,186.61509849999948,186.6287180999998,186.6287180999998,186.6287180999998,188.7957446999999,Objects\239b.jpg,mid,s,2.1510895000001256,None,,,,,,,,00019,001,2025-11-08_12h49.14.340,MST_test,2024.2.2,59.99192508672502,2025-11-08 12h49.21.096286 +0530,
20,0,20,s,0.9758983000001535,None,20,0,20,0,188.81220339999982,,,,,,,,,,,,,,,,,,,,,,,,,,,,,,,,,,,,,,,,,,,,,,,,,,188.79582279999977,188.81220339999982,189.32876269999997,189.2955382,189.3098043,189.32876269999997,189.32876269999997,189.32876269999997,190.31233919999977,Foils\049a.jpg,none,s,0.9758983000001535,None,,,,,,,,00019,001,2025-11-08_12h49.14.340,MST_test,2024.2.2,59.99192508672502,2025-11-08 12h49.21.096286 +0530,
21,0,21,n,1.883028700000068,None,21,0,21,0,190.32877839999946,,,,,,,,,,,,,,,,,,,,,,,,,,,,,,,,,,,,,,,,,,,,,,,,,,190.3124111999996,190.32877839999946,190.8453783999994,190.81224329999986,190.83406399999967,190.8453783999994,190.8453783999994,190.8453783999994,192.7291894,Objects\018b.jpg,post,n,1.883028700000068,None,,,,,,,,00019,001,2025-11-08_12h49.14.340,MST_test,2024.2.2,59.99192508672502,2025-11-08 12h49.21.096286 +0530,
22,0,22,s,2.921548599999369,None,22,0,22,0,192.74533470000006,,,,,,,,,,,,,,,,,,,,,,,,,,,,,,,,,,,,,,,,,,,,,,,,,,192.72927600000003,192.74533470000006,193.26198529999965,193.22883199999978,193.2519916000001,193.26198529999965,193.26198529999965,193.26198529999965,196.19555630000013,Objects\360b.jpg,mid,s,2.921548599999369,None,,,,,,,,00019,001,2025-11-08_12h49.14.340,MST_test,2024.2.2,59.99192508672502,2025-11-08 12h49.21.096286 +0530,
23,0,23,o,0.9303091000001587,None,23,0,23,0,196.2119192,,,,,,,,,,,,,,,,,,,,,,,,,,,,,,,,,,,,,,,,,,,,,,,,,,196.19563409999955,196.2119192,196.71196529999997,196.69537909999963,196.7001812999997,196.71196529999997,196.71196529999997,196.71196529999997,197.64558399999987,Objects\127a.jpg,post,o,0.9303091000001587,None,,,,,,,,00019,001,2025-11-08_12h49.14.340,MST_test,2024.2.2,59.99192508672502,2025-11-08 12h49.21.096286 +0530,
24,0,24,o,1.1317889000001742,None,24,0,24,0,197.66191809999964,,,,,,,,,,,,,,,,,,,,,,,,,,,,,,,,,,,,,,,,,,,,,,,,,,197.64565820000007,197.66191809999964,198.16187889999946,198.14543719999983,198.1476032999999,198.16187889999946,198.16187889999946,198.16187889999946,199.2955947999999,Objects\042a.jpg,mid,o,1.1317889000001742,None,,,,,,,,00019,001,2025-11-08_12h49.14.340,MST_test,2024.2.2,59.99192508672502,2025-11-08 12h49.21.096286 +0530,
25,0,25,o,0.8925735000002533,None,25,0,25,0,199.31184049999956,,,,,,,,,,,,,,,,,,,,,,,,,,,,,,,,,,,,,,,,,,,,,,,,,,199.2956863999998,199.31184049999956,199.81185619999997,199.79536519999965,199.79754179999964,199.81185619999997,199.81185619999997,199.81185619999997,200.71230699999978,Objects\285a.jpg,pre,o,0.8925735000002533,None,,,,,,,,00019,001,2025-11-08_12h49.14.340,MST_test,2024.2.2,59.99192508672502,2025-11-08 12h49.21.096286 +0530,
26,0,26,n,2.3726011999997354,None,26,0,26,0,200.72854839999945,,,,,,,,,,,,,,,,,,,,,,,,,,,,,,,,,,,,,,,,,,,,,,,,,,200.7123904,200.72854839999945,201.24514999999974,201.21205499999996,201.23235849999946,201.24514999999974,201.24514999999974,201.24514999999974,203.62876830000005,Foils\065a.jpg,none,n,2.3726011999997354,None,,,,,,,,00019,001,2025-11-08_12h49.14.340,MST_test,2024.2.2,59.99192508672502,2025-11-08 12h49.21.096286 +0530,
27,0,27,n,1.8150802000000112,None,27,0,27,0,203.64515729999948,,,,,,,,,,,,,,,,,,,,,,,,,,,,,,,,,,,,,,,,,,,,,,,,,,203.6288580999999,203.64515729999948,204.14508539999952,204.12862349999978,204.1366337999998,204.14508539999952,204.14508539999952,204.14508539999952,205.96203759999935,Foils\097a.jpg,none,n,1.8150802000000112,None,,,,,,,,00019,001,2025-11-08_12h49.14.340,MST_test,2024.2.2,59.99192508672502,2025-11-08 12h49.21.096286 +0530,
28,0,28,s,2.158625899999606,None,28,0,28,0,205.97841759999937,,,,,,,,,,,,,,,,,,,,,,,,,,,,,,,,,,,,,,,,,,,,,,,,,,205.96211760000006,205.97841759999937,206.49505469999986,206.4619993999995,206.48217359999944,206.49505469999986,206.49505469999986,206.49505469999986,208.66205480000008,Objects\066b.jpg,pre,s,2.158625899999606,None,,,,,,,,00019,001,2025-11-08_12h49.14.340,MST_test,2024.2.2,59.99192508672502,2025-11-08 12h49.21.096286 +0530,
29,0,29,o,1.2450347000003603,None,29,0,29,0,208.67842239999936,,,,,,,,,,,,,,,,,,,,,,,,,,,,,,,,,,,,,,,,,,,,,,,,,,208.66213119999975,208.67842239999936,209.1949685999998,209.16194629999973,209.17997539999942,209.1949685999998,209.1949685999998,209.1949685999998,210.44544199999928,Objects\172b.jpg,post,o,1.2450347000003603,None,,,,,,,,00019,001,2025-11-08_12h49.14.340,MST_test,2024.2.2,59.99192508672502,2025-11-08 12h49.21.096286 +0530,
30,0,30,o,1.1106214999999793,None,30,0,30,0,210.46163160000015,,,,,,,,,,,,,,,,,,,,,,,,,,,,,,,,,,,,,,,,,,,,,,,,,,210.44553189999988,210.46163160000015,210.96160319999944,210.94522629999938,210.94689729999936,210.96160319999944,210.96160319999944,210.96160319999944,212.0785194,Objects\333a.jpg,mid,o,1.1106214999999793,None,,,,,,,,00019,001,2025-11-08_12h49.14.340,MST_test,2024.2.2,59.99192508672502,2025-11-08 12h49.21.096286 +0530,
31,0,31,s,1.1682155999997121,None,31,0,31,0,212.0949571000001,,,,,,,,,,,,,,,,,,,,,,,,,,,,,,,,,,,,,,,,,,,,,,,,,,212.07859519999965,212.0949571000001,212.61156440000013,212.57841219999955,212.60007319999931,212.61156440000013,212.61156440000013,212.61156440000013,213.79515509999965,Foils\020b.jpg,none,s,1.1682155999997121,None,,,,,,,,00019,001,2025-11-08_12h49.14.340,MST_test,2024.2.2,59.99192508672502,2025-11-08 12h49.21.096286 +0530,
32,0,32,n,1.0562867999997252,None,32,0,32,0,213.81157059999987,,,,,,,,,,,,,,,,,,,,,,,,,,,,,,,,,,,,,,,,,,,,,,,,,,213.79522850000012,213.81157059999987,214.32819089999975,214.2950293999993,214.31735859999935,214.32819089999975,214.32819089999975,214.32819089999975,215.39521460000014,Foils\f5.jpg,none,n,1.0562867999997252,None,,,,,,,,00019,001,2025-11-08_12h49.14.340,MST_test,2024.2.2,59.99192508672502,2025-11-08 12h49.21.096286 +0530,
33,0,33,o,2.460260699999708,None,33,0,33,0,215.41157889999977,,,,,,,,,,,,,,,,,,,,,,,,,,,,,,,,,,,,,,,,,,,,,,,,,,215.3952994000001,215.41157889999977,215.92816630000016,215.89502289999928,215.9066217999998,215.92816630000016,215.92816630000016,215.92816630000016,218.39508109999952,Objects\372b.jpg,post,o,2.460260699999708,None,,,,,,,,00019,001,2025-11-08_12h49.14.340,MST_test,2024.2.2,59.99192508672502,2025-11-08 12h49.21.096286 +0530,
34,0,34,o,1.0300434999999197,None,34,0,34,0,218.41138429999955,,,,,,,,,,,,,,,,,,,,,,,,,,,,,,,,,,,,,,,,,,,,,,,,,,218.39517539999997,218.41138429999955,218.92802369999936,218.8950503999995,218.91491529999985,218.92802369999936,218.92802369999936,218.92802369999936,219.96169670000018,Objects\041b.jpg,pre,o,1.0300434999999197,None,,,,,,,,00019,001,2025-11-08_12h49.14.340,MST_test,2024.2.2,59.99192508672502,2025-11-08 12h49.21.096286 +0530,
35,0,35,o,0.8399224000004324,None,35,0,35,0,219.97800800000005,,,,,,,,,,,,,,,,,,,,,,,,,,,,,,,,,,,,,,,,,,,,,,,,,,219.96178109999983,219.97800800000005,220.47796990000006,220.46156999999948,220.4658555999995,220.47796990000006,220.47796990000006,220.47796990000006,221.3282804999999,Objects\227a.jpg,post,o,0.8399224000004324,None,,,,,,,,00019,001,2025-11-08_12h49.14.340,MST_test,2024.2.2,59.99192508672502,2025-11-08 12h49.21.096286 +0530,
36,0,36,o,1.17500949999976,None,36,0,36,0,221.34467829999994,,,,,,,,,,,,,,,,,,,,,,,,,,,,,,,,,,,,,,,,,,,,,,,,,,221.32835579999937,221.34467829999994,221.86130439999943,221.82814569999937,221.84227629999987,221.86130439999943,221.86130439999943,221.86130439999943,223.04496409999956,Objects\128b.jpg,pre,o,1.17500949999976,None,,,,,,,,00019,001,2025-11-08_12h49.14.340,MST_test,2024.2.2,59.99192508672502,2025-11-08 12h49.21.096286 +0530,
37,0,37,o,0.7272106999998869,None,37,0,37,0,223.06139059999987,,,,,,,,,,,,,,,,,,,,,,,,,,,,,,,,,,,,,,,,,,,,,,,,,,223.04504579999957,223.06139059999987,223.56127359999937,223.54472689999966,223.54678449999938,223.56127359999937,223.56127359999937,223.56127359999937,224.29490559999977,Objects\161a.jpg,post,o,0.7272106999998869,None,,,,,,,,00019,001,2025-11-08_12h49.14.340,MST_test,2024.2.2,59.99192508672502,2025-11-08 12h49.21.096286 +0530,
38,0,38,o,0.8563669000004666,None,38,0,38,0,224.3112470999995,,,,,,,,,,,,,,,,,,,,,,,,,,,,,,,,,,,,,,,,,,,,,,,,,,224.29498650000005,224.3112470999995,224.81120569999985,224.79485479999948,224.7969536999999,224.81120569999985,224.81120569999985,224.81120569999985,225.67819899999995,Objects\152a.jpg,pre,o,0.8563669000004666,None,,,,,,,,00019,001,2025-11-08_12h49.14.340,MST_test,2024.2.2,59.99192508672502,2025-11-08 12h49.21.096286 +0530,
39,0,39,s,3.22478510000019,None,39,0,39,0,225.69454809999934,,,,,,,,,,,,,,,,,,,,,,,,,,,,,,,,,,,,,,,,,,,,,,,,,,225.6782736999994,225.69454809999934,226.21119699999963,226.1780232000001,226.19201340000018,226.21119699999963,226.21119699999963,226.21119699999963,229.44480369999928,Objects\188b.jpg,mid,s,3.22478510000019,None,,,,,,,,00019,001,2025-11-08_12h49.14.340,MST_test,2024.2.2,59.99192508672502,2025-11-08 12h49.21.096286 +0530,
40,0,40,s,4.098952000000281,None,40,0,40,0,229.4610944999995,,,,,,,,,,,,,,,,,,,,,,,,,,,,,,,,,,,,,,,,,,,,,,,,,,229.4448857999996,229.4610944999995,229.96112189999985,229.94458059999943,229.94652020000012,229.96112189999985,229.96112189999985,229.96112189999985,234.06142639999962,Objects\252a.jpg,mid,s,4.098952000000281,None,,,,,,,,00019,001,2025-11-08_12h49.14.340,MST_test,2024.2.2,59.99192508672502,2025-11-08 12h49.21.096286 +0530,
41,0,41,o,2.0677175000000716,None,41,0,41,0,234.0777051999994,,,,,,,,,,,,,,,,,,,,,,,,,,,,,,,,,,,,,,,,,,,,,,,,,,234.0615128999998,234.0777051999994,234.59432449999986,234.5612615,234.58641839999927,234.59432449999986,234.59432449999986,234.59432449999986,236.6779431999994,Objects\200b.jpg,mid,o,2.0677175000000716,None,,,,,,,,00019,001,2025-11-08_12h49.14.340,MST_test,2024.2.2,59.99192508672502,2025-11-08 12h49.21.096286 +0530,
42,0,42,o,0.7830512000000454,None,42,0,42,0,236.6943268999994,,,,,,,,,,,,,,,,,,,,,,,,,,,,,,,,,,,,,,,,,,,,,,,,,,236.6780332999997,236.6943268999994,237.2109574999995,237.17783849999978,237.19603619999998,237.2109574999995,237.2109574999995,237.2109574999995,237.99468969999998,Foils\057a.jpg,none,o,0.7830512000000454,None,,,,,,,,00019,001,2025-11-08_12h49.14.340,MST_test,2024.2.2,59.99192508672502,2025-11-08 12h49.21.096286 +0530,
43,0,43,s,2.7947975999995833,None,43,0,43,0,238.01096439999947,,,,,,,,,,,,,,,,,,,,,,,,,,,,,,,,,,,,,,,,,,,,,,,,,,237.9947586999997,238.01096439999947,238.52757509999992,238.49443949999932,238.52014019999933,238.52757509999992,238.52757509999992,238.52757509999992,241.32778879999933,Objects\233b.jpg,mid,s,2.7947975999995833,None,,,,,,,,00019,001,2025-11-08_12h49.14.340,MST_test,2024.2.2,59.99192508672502,2025-11-08 12h49.21.096286 +0530,
44,0,44,o,1.5410767999992458,None,44,0,44,0,241.34420669999963,,,,,,,,,,,,,,,,,,,,,,,,,,,,,,,,,,,,,,,,,,,,,,,,,,241.32787499999995,241.34420669999963,241.8608317999997,241.82769219999955,241.8523497999995,241.8608317999997,241.8608317999997,241.8608317999997,243.41119600000002,Objects\284b.jpg,mid,o,1.5410767999992458,None,,,,,,,,00019,001,2025-11-08_12h49.14.340,MST_test,2024.2.2,59.99192508672502,2025-11-08 12h49.21.096286 +0530,
45,0,45,o,2.682045399999879,None,45,0,45,0,243.42749539999932,,,,,,,,,,,,,,,,,,,,,,,,,,,,,,,,,,,,,,,,,,,,,,,,,,243.41127099999994,243.42749539999932,243.94412939999984,243.91098340000008,243.93277880000005,243.94412939999984,243.94412939999984,243.94412939999984,246.62788869999986,Objects\355b.jpg,mid,o,2.682045399999879,None,,,,,,,,00019,001,2025-11-08_12h49.14.340,MST_test,2024.2.2,59.99192508672502,2025-11-08 12h49.21.096286 +0530,
46,0,46,o,0.9418395999991844,None,46,0,46,0,246.64409720000003,,,,,,,,,,,,,,,,,,,,,,,,,,,,,,,,,,,,,,,,,,,,,,,,,,246.62796439999966,246.64409720000003,247.14404839999952,247.1276300999998,247.12980890000017,247.14404839999952,247.14404839999952,247.14404839999952,248.0943201,Objects\189a.jpg,post,o,0.9418395999991844,None,,,,,,,,00019,001,2025-11-08_12h49.14.340,MST_test,2024.2.2,59.99192508672502,2025-11-08 12h49.21.096286 +0530,
47,0,47,o,0.6650337000000945,None,47,0,47,0,248.11073119999946,,,,,,,,,,,,,,,,,,,,,,,,,,,,,,,,,,,,,,,,,,,,,,,,,,248.09440319999976,248.11073119999946,248.6107039999997,248.59426480000002,248.59621909999987,248.6107039999997,248.6107039999997,248.6107039999997,249.27765889999955,Objects\376a.jpg,mid,o,0.6650337000000945,None,,,,,,,,00019,001,2025-11-08_12h49.14.340,MST_test,2024.2.2,59.99192508672502,2025-11-08 12h49.21.096286 +0530,
48,0,48,o,2.769057700000303,None,48,0,48,0,249.29399869999997,,,,,,,,,,,,,,,,,,,,,,,,,,,,,,,,,,,,,,,,,,,,,,,,,,249.2777374999996,249.29399869999997,249.81074669999998,249.77755089999937,249.79581549999966,249.81074669999998,249.81074669999998,249.81074669999998,252.59443909999936,Objects\173b.jpg,post,o,2.769057700000303,None,,,,,,,,00019,001,2025-11-08_12h49.14.340,MST_test,2024.2.2,59.99192508672502,2025-11-08 12h49.21.096286 +0530,
49,0,49,o,0.8030688999997437,None,49,0,49,0,252.61063000000013,,,,,,,,,,,,,,,,,,,,,,,,,,,,,,,,,,,,,,,,,,,,,,,,,,252.59452479999982,252.61063000000013,253.11062989999937,253.09418349999942,253.09662339999977,253.11062989999937,253.11062989999937,253.11062989999937,253.9275530999994,Objects\144a.jpg,mid,o,0.8030688999997437,None,,,,,,,,00019,001,2025-11-08_12h49.14.340,MST_test,2024.2.2,59.99192508672502,2025-11-08 12h49.21.096286 +0530,
50,0,50,o,0.7386071999999331,None,50,0,50,0,253.9439328999997,,,,,,,,,,,,,,,,,,,,,,,,,,,,,,,,,,,,,,,,,,,,,,,,,,253.9276278999996,253.9439328999997,254.44388809999964,254.42749980000008,254.42940809999982,254.44388809999964,254.44388809999964,254.44388809999964,255.19429049999962,Objects\380a.jpg,mid,o,0.7386071999999331,None,,,,,,,,00019,001,2025-11-08_12h49.14.340,MST_test,2024.2.2,59.99192508672502,2025-11-08 12h49.21.096286 +0530,
51,0,51,s,2.5025916000004145,None,51,0,51,0,255.2105719000001,,,,,,,,,,,,,,,,,,,,,,,,,,,,,,,,,,,,,,,,,,,,,,,,,,255.19436940000014,255.2105719000001,255.7272014,255.69414169999982,255.70774840000013,255.7272014,255.7272014,255.7272014,258.2442081999998,Objects\015b.jpg,pre,s,2.5025916000004145,None,,,,,,,,00019,001,2025-11-08_12h49.14.340,MST_test,2024.2.2,59.99192508672502,2025-11-08 12h49.21.096286 +0530,
52,0,52,s,2.014107099999819,None,52,0,52,0,258.26051169999937,,,,,,,,,,,,,,,,,,,,,,,,,,,,,,,,,,,,,,,,,,,,,,,,,,258.2442977999999,258.26051169999937,258.76045969999996,258.74410569999964,258.7488487999999,258.76045969999996,258.76045969999996,258.76045969999996,260.7775861,Objects\310a.jpg,post,s,2.014107099999819,None,,,,,,,,00019,001,2025-11-08_12h49.14.340,MST_test,2024.2.2,59.99192508672502,2025-11-08 12h49.21.096286 +0530,
53,0,53,o,1.3962052999995649,None,53,0,53,0,260.7937959000001,,,,,,,,,,,,,,,,,,,,,,,,,,,,,,,,,,,,,,,,,,,,,,,,,,260.77767309999945,260.7937959000001,261.31044629999997,261.27726600000005,261.3000575999995,261.31044629999997,261.31044629999997,261.31044629999997,262.71079069999996,Objects\048b.jpg,post,o,1.3962052999995649,None,,,,,,,,00019,001,2025-11-08_12h49.14.340,MST_test,2024.2.2,59.99192508672502,2025-11-08 12h49.21.096286 +0530,
54,0,54,o,1.9660609000002296,None,54,0,54,0,262.72708389999934,,,,,,,,,,,,,,,,,,,,,,,,,,,,,,,,,,,,,,,,,,,,,,,,,,262.71086529999957,262.72708389999934,263.2436954999994,263.2106531999998,263.23066669999935,263.2436954999994,263.2436954999994,263.2436954999994,265.21062749999965,Objects\205b.jpg,mid,o,1.9660609000002296,None,,,,,,,,00019,001,2025-11-08_12h49.14.340,MST_test,2024.2.2,59.99192508672502,2025-11-08 12h49.21.096286 +0530,
55,0,55,o,0.8468743999992512,None,55,0,55,0,265.22702369999934,,,,,,,,,,,,,,,,,,,,,,,,,,,,,,,,,,,,,,,,,,,,,,,,,,265.21071159999974,265.22702369999934,265.7270136999996,265.7104813999995,265.71538839999994,265.7270136999996,265.7270136999996,265.7270136999996,266.5772864999999,Objects\140a.jpg,mid,o,0.8468743999992512,None,,,,,,,,00019,001,2025-11-08_12h49.14.340,MST_test,2024.2.2,59.99192508672502,2025-11-08 12h49.21.096286 +0530,
56,0,56,o,1.674149800000123,None,56,0,56,0,266.59366390000014,,,,,,,,,,,,,,,,,,,,,,,,,,,,,,,,,,,,,,,,,,,,,,,,,,266.5773608999998,266.59366390000014,267.09363959999973,267.0772475999993,267.07897909999974,267.09363959999973,267.09363959999973,267.09363959999973,268.77731979999953,Objects\035a.jpg,post,o,1.674149800000123,None,,,,,,,,00019,001,2025-11-08_12h49.14.340,MST_test,2024.2.2,59.99192508672502,2025-11-08 12h49.21.096286 +0530,
57,0,57,s,3.810158500000398,None,57,0,57,0,268.79360839999936,,,,,,,,,,,,,,,,,,,,,,,,,,,,,,,,,,,,,,,,,,,,,,,,,,268.77740409999933,268.79360839999936,269.31025839999984,269.27714359999936,269.2939588999998,269.31025839999984,269.31025839999984,269.31025839999984,273.1272399999998,Foils\113a.jpg,none,s,3.810158500000398,None,,,,,,,,00019,001,2025-11-08_12h49.14.340,MST_test,2024.2.2,59.99192508672502,2025-11-08 12h49.21.096286 +0530,
58,0,58,s,2.781816400000025,None,58,0,58,0,273.1435646,,,,,,,,,,,,,,,,,,,,,,,,,,,,,,,,,,,,,,,,,,,,,,,,,,273.12732210000013,273.1435646,273.66017699999975,273.62716980000005,273.64323460000014,273.66017699999975,273.66017699999975,273.66017699999975,276.4438696999996,Objects\337b.jpg,pre,s,2.781816400000025,None,,,,,,,,00019,001,2025-11-08_12h49.14.340,MST_test,2024.2.2,59.99192508672502,2025-11-08 12h49.21.096286 +0530,
59,0,59,o,1.3439791000000696,None,59,0,59,0,276.4601154000002,,,,,,,,,,,,,,,,,,,,,,,,,,,,,,,,,,,,,,,,,,,,,,,,,,276.4439599999996,276.4601154000002,276.9600842,276.9436504999994,276.9516972000001,276.9600842,276.9600842,276.9600842,278.3103403999994,Objects\080b.jpg,mid,o,1.3439791000000696,None,,,,,,,,00019,001,2025-11-08_12h49.14.340,MST_test,2024.2.2,59.99192508672502,2025-11-08 12h49.21.096286 +0530,
60,0,60,s,1.390871500000685,None,60,0,60,0,278.32671429999937,,,,,,,,,,,,,,,,,,,,,,,,,,,,,,,,,,,,,,,,,,,,,,,,,,278.3104235999999,278.32671429999937,278.86004109999976,278.8103142,278.8384823999995,278.86004109999976,278.86004109999976,278.86004109999976,280.26051670000015,Objects\332b.jpg,mid,s,1.390871500000685,None,,,,,,,,00019,001,2025-11-08_12h49.14.340,MST_test,2024.2.2,59.99192508672502,2025-11-08 12h49.21.096286 +0530,
61,0,61,s,1.2646913000007771,None,61,0,61,0,280.2768691000001,,,,,,,,,,,,,,,,,,,,,,,,,,,,,,,,,,,,,,,,,,,,,,,,,,280.2606068999994,280.2768691000001,280.79334149999977,280.7602326999995,280.78597979999995,280.79334149999977,280.79334149999977,280.79334149999977,282.06040979999943,Objects\160b.jpg,post,s,1.2646913000007771,None,,,,,,,,00019,001,2025-11-08_12h49.14.340,MST_test,2024.2.2,59.99192508672502,2025-11-08 12h49.21.096286 +0530,
62,0,62,n,1.9329448999997112,None,62,0,62,0,282.0766598,,,,,,,,,,,,,,,,,,,,,,,,,,,,,,,,,,,,,,,,,,,,,,,,,,282.06048849999934,282.0766598,282.5933328000001,282.56018349999977,282.57454770000004,282.5933328000001,282.5933328000001,282.5933328000001,284.5270174999996,Foils\086a.jpg,none,n,1.9329448999997112,None,,,,,,,,00019,001,2025-11-08_12h49.14.340,MST_test,2024.2.2,59.99192508672502,2025-11-08 12h49.21.096286 +0530,
63,0,63,s,1.827149300000201,None,63,0,63,0,284.5432370999997,,,,,,,,,,,,,,,,,,,,,,,,,,,,,,,,,,,,,,,,,,,,,,,,,,284.52710339999976,284.5432370999997,285.0432678999996,285.02687119999973,285.0290041999997,285.0432678999996,285.0432678999996,285.0432678999996,286.87695619999977,Objects\031a.jpg,mid,s,1.827149300000201,None,,,,,,,,00019,001,2025-11-08_12h49.14.340,MST_test,2024.2.2,59.99192508672502,2025-11-08 12h49.21.096286 +0530,
64,0,64,s,1.721321099999841,None,64,0,64,0,286.89321819999986,,,,,,,,,,,,,,,,,,,,,,,,,,,,,,,,,,,,,,,,,,,,,,,,,,286.8770412999993,286.89321819999986,287.4098376000002,287.3768141999999,287.38961329999984,287.4098376000002,287.4098376000002,287.4098376000002,289.1435070999996,Objects\036b.jpg,pre,s,1.721321099999841,None,,,,,,,,00019,001,2025-11-08_12h49.14.340,MST_test,2024.2.2,59.99192508672502,2025-11-08 12h49.21.096286 +0530,
65,0,65,o,1.2380248999998003,None,65,0,65,0,289.15983179999967,,,,,,,,,,,,,,,,,,,,,,,,,,,,,,,,,,,,,,,,,,,,,,,,,,289.14358809999976,289.15983179999967,289.6597260999997,289.6433470000002,289.6551273999994,289.6597260999997,289.6597260999997,289.6597260999997,290.9101680999993,Objects\263b.jpg,mid,o,1.2380248999998003,None,,,,,,,,00019,001,2025-11-08_12h49.14.340,MST_test,2024.2.2,59.99192508672502,2025-11-08 12h49.21.096286 +0530,
66,0,66,o,0.7712711000003765,None,66,0,66,0,290.9264740999997,,,,,,,,,,,,,,,,,,,,,,,,,,,,,,,,,,,,,,,,,,,,,,,,,,290.91024319999997,290.9264740999997,291.4264244999995,291.4099994999997,291.4151412000001,291.4264244999995,291.4264244999995,291.4264244999995,292.2101367999994,Objects\063a.jpg,post,o,0.7712711000003765,None,,,,,,,,00019,001,2025-11-08_12h49.14.340,MST_test,2024.2.2,59.99192508672502,2025-11-08 12h49.21.096286 +0530,
67,0,67,o,0.7034751999999571,None,67,0,67,0,292.2264417999995,,,,,,,,,,,,,,,,,,,,,,,,,,,,,,,,,,,,,,,,,,,,,,,,,,292.2102099999993,292.2264417999995,292.7263941000001,292.7099021999993,292.7120871999996,292.7263941000001,292.7263941000001,292.7263941000001,293.44337259999975,Objects\118a.jpg,mid,o,0.7034751999999571,None,,,,,,,,00019,001,2025-11-08_12h49.14.340,MST_test,2024.2.2,59.99192508672502,2025-11-08 12h49.21.096286 +0530,
68,0,68,o,2.9050732000005155,None,68,0,68,0,293.45971459999964,,,,,,,,,,,,,,,,,,,,,,,,,,,,,,,,,,,,,,,,,,,,,,,,,,293.44344,293.45971459999964,293.9763705999994,293.9432677999994,293.96238110000013,293.9763705999994,293.9763705999994,293.9763705999994,296.8933632999997,Foils\050a.jpg,none,o,2.9050732000005155,None,,,,,,,,00019,001,2025-11-08_12h49.14.340,MST_test,2024.2.2,59.99192508672502,2025-11-08 12h49.21.096286 +0530,
69,0,69,s,1.2088000000003376,None,69,0,69,0,296.90966879999996,,,,,,,,,,,,,,,,,,,,,,,,,,,,,,,,,,,,,,,,,,,,,,,,,,296.8934413999996,296.90966879999996,297.40962709999985,297.3932445999999,297.3951757999994,297.40962709999985,297.40962709999985,297.40962709999985,298.62674530000004,Objects\083a.jpg,post,s,1.2088000000003376,None,,,,,,,,00019,001,2025-11-08_12h49.14.340,MST_test,2024.2.2,59.99192508672502,2025-11-08 12h49.21.096286 +0530,
70,0,70,o,0.9791689000003316,None,70,0,70,0,298.64296000000013,,,,,,,,,,,,,,,,,,,,,,,,,,,,,,,,,,,,,,,,,,,,,,,,,,298.6268295,298.64296000000013,299.1429154999996,299.1265383,299.1285933999998,299.1429154999996,299.1429154999996,299.1429154999996,300.12665839999954,Objects\038a.jpg,mid,o,0.9791689000003316,None,,,,,,,,00019,001,2025-11-08_12h49.14.340,MST_test,2024.2.2,59.99192508672502,2025-11-08 12h49.21.096286 +0530,
71,0,71,o,0.7923596000000543,None,71,0,71,0,300.1429301999997,,,,,,,,,,,,,,,,,,,,,,,,,,,,,,,,,,,,,,,,,,,,,,,,,,300.1267405999997,300.1429301999997,300.67627579999953,300.6264917999997,300.6286817,300.67627579999953,300.67627579999953,300.67627579999953,301.47657160000017,Objects\054a.jpg,post,o,0.7923596000000543,None,,,,,,,,00019,001,2025-11-08_12h49.14.340,MST_test,2024.2.2,59.99192508672502,2025-11-08 12h49.21.096286 +0530,
72,0,72,o,2.1692093000001478,None,72,0,72,0,301.4929010999995,,,,,,,,,,,,,,,,,,,,,,,,,,,,,,,,,,,,,,,,,,,,,,,,,,301.4766503000001,301.4929010999995,301.99288049999996,301.9764589999995,301.97822240000005,301.99288049999996,301.99288049999996,301.99288049999996,304.1765349999996,Objects\198a.jpg,mid,o,2.1692093000001478,None,,,,,,,,00019,001,2025-11-08_12h49.14.340,MST_test,2024.2.2,59.99192508672502,2025-11-08 12h49.21.096286 +0530,
73,0,73,o,0.8035213000002841,None,73,0,73,0,304.1928448999997,,,,,,,,,,,,,,,,,,,,,,,,,,,,,,,,,,,,,,,,,,,,,,,,,,304.1766173999995,304.1928448999997,304.6928339999995,304.67626289999953,304.6782396999997,304.6928339999995,304.6928339999995,304.6928339999995,305.50985669999955,Objects\097a.jpg,pre,o,0.8035213000002841,None,,,,,,,,00019,001,2025-11-08_12h49.14.340,MST_test,2024.2.2,59.99192508672502,2025-11-08 12h49.21.096286 +0530,
74,0,74,o,0.7935795000003054,None,74,0,74,0,305.5261466000002,,,,,,,,,,,,,,,,,,,,,,,,,,,,,,,,,,,,,,,,,,,,,,,,,,305.5099376999997,305.5261466000002,306.0261458999994,306.00963649999994,306.01164489999974,306.0261458999994,306.0261458999994,306.0261458999994,306.82644419999997,Objects\138a.jpg,pre,o,0.7935795000003054,None,,,,,,,,00019,001,2025-11-08_12h49.14.340,MST_test,2024.2.2,59.99192508672502,2025-11-08 12h49.21.096286 +0530,
75,0,75,o,0.5888844999999492,None,75,0,75,0,306.8427842000001,,,,,,,,,,,,,,,,,,,,,,,,,,,,,,,,,,,,,,,,,,,,,,,,,,306.82652139999936,306.8427842000001,307.3427680999994,307.32623239999975,307.3280888999998,307.3427680999994,307.3427680999994,307.3427680999994,307.94300740000017,Objects\273a.jpg,pre,o,0.5888844999999492,None,,,,,,,,00019,001,2025-11-08_12h49.14.340,MST_test,2024.2.2,59.99192508672502,2025-11-08 12h49.21.096286 +0530,
76,0,76,o,0.6333629000000656,None,76,0,76,0,307.95943069999976,,,,,,,,,,,,,,,,,,,,,,,,,,,,,,,,,,,,,,,,,,,,,,,,,,307.94309109999995,307.95943069999976,308.459382,308.44289279999975,308.44502060000013,308.459382,308.459382,308.459382,309.0930886999995,Objects\234a.jpg,pre,o,0.6333629000000656,None,,,,,,,,00019,001,2025-11-08_12h49.14.340,MST_test,2024.2.2,59.99192508672502,2025-11-08 12h49.21.096286 +0530,
77,0,77,o,1.1310316999997667,None,77,0,77,0,309.10939640000015,,,,,,,,,,,,,,,,,,,,,,,,,,,,,,,,,,,,,,,,,,,,,,,,,,309.0931645999999,309.10939640000015,309.6089988999993,309.5930042,309.6026516000002,309.6089988999993,309.6089988999993,309.6089988999993,310.74310329999935,Objects\094b.jpg,pre,o,1.1310316999997667,None,,,,,,,,00019,001,2025-11-08_12h49.14.340,MST_test,2024.2.2,59.99192508672502,2025-11-08 12h49.21.096286 +0530,
78,0,78,s,0.9176715000003242,None,78,0,78,0,310.75937199999953,,,,,,,,,,,,,,,,,,,,,,,,,,,,,,,,,,,,,,,,,,,,,,,,,,310.74318609999955,310.75937199999953,311.27605869999934,311.24296830000003,311.25836100000015,311.27605869999934,311.27605869999934,311.27605869999934,312.2095376999996,Foils\002a.jpg,none,s,0.9176715000003242,None,,,,,,,,00019,001,2025-11-08_12h49.14.340,MST_test,2024.2.2,59.99192508672502,2025-11-08 12h49.21.096286 +0530,
79,0,79,n,1.5030321000003823,None,79,0,79,0,312.2260170999998,,,,,,,,,,,,,,,,,,,,,,,,,,,,,,,,,,,,,,,,,,,,,,,,,,312.20961309999984,312.2260170999998,312.74265130000003,312.70946149999963,312.7271929999997,312.74265130000003,312.74265130000003,312.74265130000003,314.2597673,Objects\158b.jpg,pre,n,1.5030321000003823,None,,,,,,,,00019,001,2025-11-08_12h49.14.340,MST_test,2024.2.2,59.99192508672502,2025-11-08 12h49.21.096286 +0530,
80,0,80,s,1.78884620000008,None,80,0,80,0,314.2759599000001,,,,,,,,,,,,,,,,,,,,,,,,,,,,,,,,,,,,,,,,,,,,,,,,,,314.25985429999946,314.2759599000001,314.7926097999998,314.7594154999997,314.7763895999997,314.7926097999998,314.7926097999998,314.7926097999998,316.5929243999999,Objects\177b.jpg,pre,s,1.78884620000008,None,,,,,,,,00019,001,2025-11-08_12h49.14.340,MST_test,2024.2.2,59.99192508672502,2025-11-08 12h49.21.096286 +0530,
81,0,81,s,1.9691401000000042,None,81,0,81,0,316.6092635999994,,,,,,,,,,,,,,,,,,,,,,,,,,,,,,,,,,,,,,,,,,,,,,,,,,316.59300669999993,316.6092635999994,317.1254807999994,317.09265760000017,317.12037599999985,317.1254807999994,317.1254807999994,317.1254807999994,319.1095403999998,Objects\282b.jpg,post,s,1.9691401000000042,None,,,,,,,,00019,001,2025-11-08_12h49.14.340,MST_test,2024.2.2,59.99192508672502,2025-11-08 12h49.21.096286 +0530,
82,0,82,o,0.8959481000001688,None,82,0,82,0,319.1258567999994,,,,,,,,,,,,,,,,,,,,,,,,,,,,,,,,,,,,,,,,,,,,,,,,,,319.10961619999944,319.1258567999994,319.62583429999995,319.6093216999998,319.61480070000016,319.62583429999995,319.62583429999995,319.62583429999995,320.52624659999947,Objects\229a.jpg,pre,o,0.8959481000001688,None,,,,,,,,00019,001,2025-11-08_12h49.14.340,MST_test,2024.2.2,59.99192508672502,2025-11-08 12h49.21.096286 +0530,
83,0,83,s,2.507099399999788,None,83,0,83,0,320.5424846999995,,,,,,,,,,,,,,,,,,,,,,,,,,,,,,,,,,,,,,,,,,,,,,,,,,320.52632769999946,320.5424846999995,321.0591117999993,321.0260281000001,321.0484650999997,321.0591117999993,321.0591117999993,321.0591117999993,323.5760274999993,Foils\034a.jpg,none,s,2.507099399999788,None,,,,,,,,00019,001,2025-11-08_12h49.14.340,MST_test,2024.2.2,59.99192508672502,2025-11-08 12h49.21.096286 +0530,
84,0,84,o,0.856133299999783,None,84,0,84,0,323.59241250000014,,,,,,,,,,,,,,,,,,,,,,,,,,,,,,,,,,,,,,,,,,,,,,,,,,323.5761017999994,323.59241250000014,324.0923776999998,324.0759559999997,324.0814541999998,324.0923776999998,324.0923776999998,324.0923776999998,324.9594582,Objects\322a.jpg,post,o,0.856133299999783,None,,,,,,,,00019,001,2025-11-08_12h49.14.340,MST_test,2024.2.2,59.99192508672502,2025-11-08 12h49.21.096286 +0530,
85,0,85,o,0.9900311999999758,None,85,0,85,0,324.9757280999993,,,,,,,,,,,,,,,,,,,,,,,,,,,,,,,,,,,,,,,,,,,,,,,,,,324.95954059999985,324.9757280999993,325.4923398000001,325.4591806999997,325.48348819999956,325.4923398000001,325.4923398000001,325.4923398000001,326.4927515999998,Objects\187b.jpg,pre,o,0.9900311999999758,None,,,,,,,,00019,001,2025-11-08_12h49.14.340,MST_test,2024.2.2,59.99192508672502,2025-11-08 12h49.21.096286 +0530,
86,0,86,n,2.2893733999999313,None,86,0,86,0,326.50899239999944,,,,,,,,,,,,,,,,,,,,,,,,,,,,,,,,,,,,,,,,,,,,,,,,,,326.49282369999946,326.50899239999944,327.02567480000016,326.99253809999936,327.0052390999999,327.02567480000016,327.02567480000016,327.02567480000016,329.32589180000014,Foils\033a.jpg,none,n,2.2893733999999313,None,,,,,,,,00019,001,2025-11-08_12h49.14.340,MST_test,2024.2.2,59.99192508672502,2025-11-08 12h49.21.096286 +0530,
87,0,87,o,2.560534400000506,None,87,0,87,0,329.3422617999995,,,,,,,,,,,,,,,,,,,,,,,,,,,,,,,,,,,,,,,,,,,,,,,,,,329.32596829999966,329.3422617999995,329.8589172000002,329.82575929999985,329.84732769999937,329.8589172000002,329.8589172000002,329.8589172000002,332.4259081,Objects\336b.jpg,post,o,2.560534400000506,None,,,,,,,,00019,001,2025-11-08_12h49.14.340,MST_test,2024.2.2,59.99192508672502,2025-11-08 12h49.21.096286 +0530,
88,0,88,n,2.130725099999836,None,88,0,88,0,332.4422274999997,,,,,,,,,,,,,,,,,,,,,,,,,,,,,,,,,,,,,,,,,,,,,,,,,,332.42598259999977,332.4422274999997,332.94179840000015,332.92566889999944,332.9368565999994,332.94179840000015,332.94179840000015,332.94179840000015,335.0759210999995,Foils\042a.jpg,none,n,2.130725099999836,None,,,,,,,,00019,001,2025-11-08_12h49.14.340,MST_test,2024.2.2,59.99192508672502,2025-11-08 12h49.21.096286 +0530,
89,0,89,n,0.9164534999999887,None,89,0,89,0,335.0921647999994,,,,,,,,,,,,,,,,,,,,,,,,,,,,,,,,,,,,,,,,,,,,,,,,,,335.0760031,335.0921647999994,335.6087929999994,335.57574620000014,335.6007974999993,335.6087929999994,335.6087929999994,335.6087929999994,336.5258530000001,Foils\090a.jpg,none,n,0.9164534999999887,None,,,,,,,,00019,001,2025-11-08_12h49.14.340,MST_test,2024.2.2,59.99192508672502,2025-11-08 12h49.21.096286 +0530,
90,0,90,o,1.4635231000002022,None,90,0,90,0,336.5421384000001,,,,,,,,,,,,,,,,,,,,,,,,,,,,,,,,,,,,,,,,,,,,,,,,,,336.52594409999983,336.5421384000001,337.0421338999995,337.0257074000001,337.03008169999976,337.0421338999995,337.0421338999995,337.0421338999995,338.50904720000017,Objects\321a.jpg,pre,o,1.4635231000002022,None,,,,,,,,00019,001,2025-11-08_12h49.14.340,MST_test,2024.2.2,59.99192508672502,2025-11-08 12h49.21.096286 +0530,
91,0,91,o,1.3444353000004412,None,91,0,91,0,338.52538579999964,,,,,,,,,,,,,,,,,,,,,,,,,,,,,,,,,,,,,,,,,,,,,,,,,,338.50912359999984,338.52538579999964,339.04211309999937,339.00892339999973,339.02825070000017,339.04211309999937,339.04211309999937,339.04211309999937,340.39247239999986,Objects\199b.jpg,pre,o,1.3444353000004412,None,,,,,,,,00019,001,2025-11-08_12h49.14.340,MST_test,2024.2.2,59.99192508672502,2025-11-08 12h49.21.096286 +0530,
92,0,92,n,0.9796306000007462,None,92,0,92,0,340.4087394999997,,,,,,,,,,,,,,,,,,,,,,,,,,,,,,,,,,,,,,,,,,,,,,,,,,340.3925534,340.4087394999997,340.9087022999993,340.89217889999964,340.9033811999998,340.9087022999993,340.9087022999993,340.9087022999993,341.8922757999999,Foils\098a.jpg,none,n,0.9796306000007462,None,,,,,,,,00019,001,2025-11-08_12h49.14.340,MST_test,2024.2.2,59.99192508672502,2025-11-08 12h49.21.096286 +0530,
93,0,93,s,2.6575592999997752,None,93,0,93,0,341.9087187999994,,,,,,,,,,,,,,,,,,,,,,,,,,,,,,,,,,,,,,,,,,,,,,,,,,341.8923516999994,341.9087187999994,342.4253454999998,342.3923729999997,342.41391680000015,342.4253454999998,342.4253454999998,342.4253454999998,345.0923477999995,Objects\235b.jpg,post,s,2.6575592999997752,None,,,,,,,,00019,001,2025-11-08_12h49.14.340,MST_test,2024.2.2,59.99192508672502,2025-11-08 12h49.21.096286 +0530,
94,0,94,o,3.4673806999999215,None,94,0,94,0,345.10861419999947,,,,,,,,,,,,,,,,,,,,,,,,,,,,,,,,,,,,,,,,,,,,,,,,,,345.0924309000002,345.10861419999947,345.6085809999995,345.59207759999936,345.5957191999996,345.6085809999995,345.6085809999995,345.6085809999995,349.0921598999994,Objects\231a.jpg,pre,o,3.4673806999999215,None,,,,,,,,00019,001,2025-11-08_12h49.14.340,MST_test,2024.2.2,59.99192508672502,2025-11-08 12h49.21.096286 +0530,
95,0,95,o,0.9151848999999856,None,95,0,95,0,349.10853510000015,,,,,,,,,,,,,,,,,,,,,,,,,,,,,,,,,,,,,,,,,,,,,,,,,,349.0922452999994,349.10853510000015,349.60848889999943,349.5919789999998,349.5970989999996,349.60848889999943,349.60848889999943,349.60848889999943,350.5254845999998,Objects\215a.jpg,mid,o,0.9151848999999856,None,,,,,,,,00019,001,2025-11-08_12h49.14.340,MST_test,2024.2.2,59.99192508672502,2025-11-08 12h49.21.096286 +0530,
96,0,96,o,0.7682007000003068,None,96,0,96,0,350.5418056999997,,,,,,,,,,,,,,,,,,,,,,,,,,,,,,,,,,,,,,,,,,,,,,,,,,350.52556920000006,350.5418056999997,351.04179190000013,351.0253548999999,351.0273073999997,351.04179190000013,351.04179190000013,351.04179190000013,351.82539050000014,Objects\190a.jpg,pre,o,0.7682007000003068,None,,,,,,,,00019,001,2025-11-08_12h49.14.340,MST_test,2024.2.2,59.99192508672502,2025-11-08 12h49.21.096286 +0530,
97,0,97,o,0.6202395999998771,None,97,0,97,0,351.8417750999997,,,,,,,,,,,,,,,,,,,,,,,,,,,,,,,,,,,,,,,,,,,,,,,,,,351.82547129999966,351.8417750999997,352.34176879999995,352.32537689999936,352.3274367999993,352.34176879999995,352.34176879999995,352.34176879999995,352.97544449999987,Objects\112a.jpg,pre,o,0.6202395999998771,None,,,,,,,,00019,001,2025-11-08_12h49.14.340,MST_test,2024.2.2,59.99192508672502,2025-11-08 12h49.21.096286 +0530,
98,0,98,s,2.2353518999998414,None,98,0,98,0,352.9917723999997,,,,,,,,,,,,,,,,,,,,,,,,,,,,,,,,,,,,,,,,,,,,,,,,,,352.9755199000001,352.9917723999997,353.5084006999996,353.47529889999987,353.4875652999999,353.5084006999996,353.5084006999996,353.5084006999996,355.75875799999994,Objects\149b.jpg,post,s,2.2353518999998414,None,,,,,,,,00019,001,2025-11-08_12h49.14.340,MST_test,2024.2.2,59.99192508672502,2025-11-08 12h49.21.096286 +0530,
99,0,99,n,1.356670099999974,None,99,0,99,0,355.77504080000017,,,,,,,,,,,,,,,,,,,,,,,,,,,,,,,,,,,,,,,,,,,,,,,,,,355.7588320999994,355.77504080000017,356.2917346999993,356.25858340000013,356.28187479999997,356.2917346999993,356.2917346999993,356.2917346999993,357.6585844000001,Objects\361b.jpg,mid,n,1.356670099999974,None,,,,,,,,00019,001,2025-11-08_12h49.14.340,MST_test,2024.2.2,59.99192508672502,2025-11-08 12h49.21.096286 +0530,
100,0,100,s,2.064007899999524,None,100,0,100,0,357.67500819999987,,,,,,,,,,,,,,,,,,,,,,,,,,,,,,,,,,,,,,,,,,,,,,,,,,357.6586641999993,357.67500819999987,358.19164120000005,358.1585169,358.17886649999946,358.19164120000005,358.19164120000005,358.19164120000005,360.25853709999956,Objects\243b.jpg,pre,s,2.064007899999524,None,,,,,,,,00019,001,2025-11-08_12h49.14.340,MST_test,2024.2.2,59.99192508672502,2025-11-08 12h49.21.096286 +0530,
101,0,101,o,3.848647300000266,None,101,0,101,0,360.27495910000016,,,,,,,,,,,,,,,,,,,,,,,,,,,,,,,,,,,,,,,,,,,,,,,,,,360.2586238999993,360.27495910000016,360.79158109999935,360.75836100000015,360.7750077999999,360.79158109999935,360.79158109999935,360.79158109999935,364.64185279999947,Objects\081b.jpg,mid,o,3.848647300000266,None,,,,,,,,00019,001,2025-11-08_12h49.14.340,MST_test,2024.2.2,59.99192508672502,2025-11-08 12h49.21.096286 +0530,
102,0,102,o,1.423807900000611,None,102,0,102,0,364.6582036,,,,,,,,,,,,,,,,,,,,,,,,,,,,,,,,,,,,,,,,,,,,,,,,,,364.641936,364.6582036,365.15815569999995,365.14169969999966,365.14596149999943,365.15815569999995,365.15815569999995,365.15815569999995,366.5918776999997,Objects\293a.jpg,mid,o,1.423807900000611,None,,,,,,,,00019,001,2025-11-08_12h49.14.340,MST_test,2024.2.2,59.99192508672502,2025-11-08 12h49.21.096286 +0530,
103,0,103,o,2.8735438999992766,None,103,0,103,0,366.6081500999999,,,,,,,,,,,,,,,,,,,,,,,,,,,,,,,,,,,,,,,,,,,,,,,,,,366.59196689999953,366.6081500999999,367.10810369999945,367.0915981999997,367.09658919999947,367.10810369999945,367.10810369999945,367.10810369999945,369.9918828,Objects\049a.jpg,mid,o,2.8735438999992766,None,,,,,,,,00019,001,2025-11-08_12h49.14.340,MST_test,2024.2.2,59.99192508672502,2025-11-08 12h49.21.096286 +0530,
104,0,104,n,1.461529100000007,None,104,0,104,0,370.0080675999998,,,,,,,,,,,,,,,,,,,,,,,,,,,,,,,,,,,,,,,,,,,,,,,,,,369.99196109999957,370.0080675999998,370.5247266999995,370.4916075000001,370.5073053999995,370.5247266999995,370.5247266999995,370.5247266999995,371.9917110999995,Foils\010a.jpg,none,n,1.461529100000007,None,,,,,,,,00019,001,2025-11-08_12h49.14.340,MST_test,2024.2.2,59.99192508672502,2025-11-08 12h49.21.096286 +0530,
105,0,105,s,1.7181890000001658,None,105,0,105,0,372.0080306,,,,,,,,,,,,,,,,,,,,,,,,,,,,,,,,,,,,,,,,,,,,,,,,,,371.9917845,372.0080306,372.5079872999995,372.49148289999994,372.4933633999999,372.5079872999995,372.5079872999995,372.5079872999995,374.2416997,Objects\155a.jpg,mid,s,1.7181890000001658,None,,,,,,,,00019,001,2025-11-08_12h49.14.340,MST_test,2024.2.2,59.99192508672502,2025-11-08 12h49.21.096286 +0530,
106,0,106,s,2.7244409000004453,None,106,0,106,0,374.2579799999994,,,,,,,,,,,,,,,,,,,,,,,,,,,,,,,,,,,,,,,,,,,,,,,,,,374.2417839999998,374.2579799999994,374.7579458,374.7414749999998,374.7436189,374.7579458,374.7579458,374.7579458,377.49160369999936,Objects\136a.jpg,pre,s,2.7244409000004453,None,,,,,,,,00019,001,2025-11-08_12h49.14.340,MST_test,2024.2.2,59.99192508672502,2025-11-08 12h49.21.096286 +0530,
107,0,107,o,1.3327095000004192,None,107,0,107,0,377.5079115999997,,,,,,,,,,,,,,,,,,,,,,,,,,,,,,,,,,,,,,,,,,,,,,,,,,377.49168610000015,377.5079115999997,378.0078952999993,377.9914794999995,377.9937891999998,378.0078952999993,378.0078952999993,378.0078952999993,379.3414753999996,Objects\298a.jpg,mid,o,1.3327095000004192,None,,,,,,,,00019,001,2025-11-08_12h49.14.340,MST_test,2024.2.2,59.99192508672502,2025-11-08 12h49.21.096286 +0530,
108,0,108,o,2.4752214000000095,None,108,0,108,0,379.35787470000014,,,,,,,,,,,,,,,,,,,,,,,,,,,,,,,,,,,,,,,,,,,,,,,,,,379.34155399999963,379.35787470000014,379.8744954999993,379.8414628999999,379.8670388999999,379.8744954999993,379.8744954999993,379.8744954999993,382.3581938999996,Objects\311b.jpg,mid,o,2.4752214000000095,None,,,,,,,,00019,001,2025-11-08_12h49.14.340,MST_test,2024.2.2,59.99192508672502,2025-11-08 12h49.21.096286 +0530,
109,0,109,o,0.6692908000004536,None,109,0,109,0,382.3744779999997,,,,,,,,,,,,,,,,,,,,,,,,,,,,,,,,,,,,,,,,,,,,,,,,,,382.35828279999987,382.3744779999997,382.8744221999996,382.8579261999994,382.8600400999994,382.8744221999996,382.8744221999996,382.8744221999996,383.5581825999998,Objects\163a.jpg,post,o,0.6692908000004536,None,,,,,,,,00019,001,2025-11-08_12h49.14.340,MST_test,2024.2.2,59.99192508672502,2025-11-08 12h49.21.096286 +0530,
110,0,110,o,2.162592599999698,None,110,0,110,0,383.57445000000007,,,,,,,,,,,,,,,,,,,,,,,,,,,,,,,,,,,,,,,,,,,,,,,,,,383.55825360000017,383.57445000000007,384.07439629999953,384.05798830000003,384.0600080999993,384.07439629999953,384.07439629999953,384.07439629999953,386.2414867999996,Objects\008a.jpg,mid,o,2.162592599999698,None,,,,,,,,00019,001,2025-11-08_12h49.14.340,MST_test,2024.2.2,59.99192508672502,2025-11-08 12h49.21.096286 +0530,
111,0,111,o,2.1510322000003725,None,111,0,111,0,386.2577287999993,,,,,,,,,,,,,,,,,,,,,,,,,,,,,,,,,,,,,,,,,,,,,,,,,,386.24156909999965,386.2577287999993,386.7577057999997,386.74133619999975,386.7459205999994,386.7577057999997,386.7577057999997,386.7577057999997,388.9247270999995,Objects\211a.jpg,mid,o,2.1510322000003725,None,,,,,,,,00019,001,2025-11-08_12h49.14.340,MST_test,2024.2.2,59.99192508672502,2025-11-08 12h49.21.096286 +0530,
112,0,112,n,0.972795199999382,None,112,0,112,0,388.9409958999995,,,,,,,,,,,,,,,,,,,,,,,,,,,,,,,,,,,,,,,,,,,,,,,,,,388.92481099999986,388.9409958999995,389.45762829999967,389.4244527000001,389.44685389999995,389.45762829999967,389.45762829999967,389.45762829999967,390.44126139999935,Foils\074a.jpg,none,n,0.972795199999382,None,,,,,,,,00019,001,2025-11-08_12h49.14.340,MST_test,2024.2.2,59.99192508672502,2025-11-08 12h49.21.096286 +0530,
113,0,113,s,1.0707425000000512,None,113,0,113,0,390.4576323000001,,,,,,,,,,,,,,,,,,,,,,,,,,,,,,,,,,,,,,,,,,,,,,,,,,390.44133280000005,390.4576323000001,390.9575986,390.94123450000006,390.9456554999997,390.9575986,390.9575986,390.9575986,392.0412185999994,Objects\348a.jpg,post,s,1.0707425000000512,None,,,,,,,,00019,001,2025-11-08_12h49.14.340,MST_test,2024.2.2,59.99192508672502,2025-11-08 12h49.21.096286 +0530,
114,0,114,n,1.6677144999994198,None,114,0,114,0,392.05760120000014,,,,,,,,,,,,,,,,,,,,,,,,,,,,,,,,,,,,,,,,,,,,,,,,,,392.0412970999996,392.05760120000014,392.57422229999975,392.54113700000016,392.5584396999993,392.57422229999975,392.57422229999975,392.57422229999975,394.2579343999996,Foils\017a.jpg,none,n,1.6677144999994198,None,,,,,,,,00019,001,2025-11-08_12h49.14.340,MST_test,2024.2.2,59.99192508672502,2025-11-08 12h49.21.096286 +0530,
115,0,115,o,0.9864865999998074,None,115,0,115,0,394.2742121000001,,,,,,,,,,,,,,,,,,,,,,,,,,,,,,,,,,,,,,,,,,,,,,,,,,394.25802359999943,394.2742121000001,394.7741648000001,394.75767259999975,394.7627499,394.7741648000001,394.7741648000001,394.7741648000001,395.7744525999997,Objects\281a.jpg,pre,o,0.9864865999998074,None,,,,,,,,00019,001,2025-11-08_12h49.14.340,MST_test,2024.2.2,59.99192508672502,2025-11-08 12h49.21.096286 +0530,
116,0,116,s,1.5237764999992578,None,116,0,116,0,395.7908441999998,,,,,,,,,,,,,,,,,,,,,,,,,,,,,,,,,,,,,,,,,,,,,,,,,,395.77452899999935,395.7908441999998,396.3074773999997,396.27439400000003,396.29499529999975,396.3074773999997,396.3074773999997,396.3074773999997,397.84118599999965,Objects\024b.jpg,pre,s,1.5237764999992578,None,,,,,,,,00019,001,2025-11-08_12h49.14.340,MST_test,2024.2.2,59.99192508672502,2025-11-08 12h49.21.096286 +0530,
117,0,117,n,1.0107171999998172,None,117,0,117,0,397.8574622999995,,,,,,,,,,,,,,,,,,,,,,,,,,,,,,,,,,,,,,,,,,,,,,,,,,397.84127219999937,397.8574622999995,398.37413039999956,398.3410509999994,398.36172389999956,398.37413039999956,398.37413039999956,398.37413039999956,399.39114749999953,Foils\105a.jpg,none,n,1.0107171999998172,None,,,,,,,,00019,001,2025-11-08_12h49.14.340,MST_test,2024.2.2,59.99192508672502,2025-11-08 12h49.21.096286 +0530,
118,0,118,n,0.8065771999999924,None,118,0,118,0,399.4074320999998,,,,,,,,,,,,,,,,,,,,,,,,,,,,,,,,,,,,,,,,,,,,,,,,,,399.3912313000001,399.4074320999998,399.9074203,399.8909464999997,399.8951379,399.9074203,399.9074203,399.9074203,400.72441999999955,Objects\367a.jpg,post,n,0.8065771999999924,None,,,,,,,,00019,001,2025-11-08_12h49.14.340,MST_test,2024.2.2,59.99192508672502,2025-11-08 12h49.21.096286 +0530,
119,0,119,s,2.463107100000343,None,119,0,119,0,400.74076460000015,,,,,,,,,,,,,,,,,,,,,,,,,,,,,,,,,,,,,,,,,,,,,,,,,,400.72449569999935,400.74076460000015,401.2403239999994,401.2243396999993,401.23585829999956,401.2403239999994,401.2403239999994,401.2403239999994,403.70782509999935,Objects\256b.jpg,pre,s,2.463107100000343,None,,,,,,,,00019,001,2025-11-08_12h49.14.340,MST_test,2024.2.2,59.99192508672502,2025-11-08 12h49.21.096286 +0530,
120,0,120,o,2.0997529999995095,None,120,0,120,0,403.7239675999999,,,,,,,,,,,,,,,,,,,,,,,,,,,,,,,,,,,,,,,,,,,,,,,,,,403.7079126999997,403.7239675999999,404.2239718000001,404.2074890999993,404.2127948999996,404.2239718000001,404.2239718000001,404.2239718000001,406.32440829999996,Objects\027a.jpg,post,o,2.0997529999995095,None,,,,,,,,00019,001,2025-11-08_12h49.14.340,MST_test,2024.2.2,59.99192508672502,2025-11-08 12h49.21.096286 +0530,
121,0,121,n,1.8671795999998722,None,121,0,121,0,406.34060059999956,,,,,,,,,,,,,,,,,,,,,,,,,,,,,,,,,,,,,,,,,,,,,,,,,,406.32448699999986,406.34060059999956,406.8572385999996,406.82412680000016,406.8422080999999,406.8572385999996,406.8572385999996,406.8572385999996,408.74090569999953,Objects\151b.jpg,post,n,1.8671795999998722,None,,,,,,,,00019,001,2025-11-08_12h49.14.340,MST_test,2024.2.2,59.99192508672502,2025-11-08 12h49.21.096286 +0530,
122,0,122,s,3.3167302000001655,None,122,0,122,0,408.7572304999994,,,,,,,,,,,,,,,,,,,,,,,,,,,,,,,,,,,,,,,,,,,,,,,,,,408.74098689999937,408.7572304999994,409.2572030000001,409.2407429999994,409.2487879999999,409.2572030000001,409.2572030000001,409.2572030000001,412.5742999999993,Objects\154b.jpg,post,s,3.3167302000001655,None,,,,,,,,00019,001,2025-11-08_12h49.14.340,MST_test,2024.2.2,59.99192508672502,2025-11-08 12h49.21.096286 +0530,
123,0,123,n,1.2622645999999804,None,123,0,123,0,412.5904909000001,,,,,,,,,,,,,,,,,,,,,,,,,,,,,,,,,,,,,,,,,,,,,,,,,,412.5743797999994,412.5904909000001,413.10713469999973,413.07405199999994,413.08735350000006,413.10713469999973,413.10713469999973,413.10713469999973,414.37422830000014,Objects\103b.jpg,pre,n,1.2622645999999804,None,,,,,,,,00019,001,2025-11-08_12h49.14.340,MST_test,2024.2.2,59.99192508672502,2025-11-08 12h49.21.096286 +0530,
124,0,124,s,1.6319781000001967,None,124,0,124,0,414.3904832999997,,,,,,,,,,,,,,,,,,,,,,,,,,,,,,,,,,,,,,,,,,,,,,,,,,414.3743195999996,414.3904832999997,414.8904013000001,414.8740517999995,414.87630029999946,414.8904013000001,414.8904013000001,414.8904013000001,416.5242068999996,Objects\228a.jpg,pre,s,1.6319781000001967,None,,,,,,,,00019,001,2025-11-08_12h49.14.340,MST_test,2024.2.2,59.99192508672502,2025-11-08 12h49.21.096286 +0530,
125,0,125,n,1.688963199999307,None,125,0,125,0,416.54039529999955,,,,,,,,,,,,,,,,,,,,,,,,,,,,,,,,,,,,,,,,,,,,,,,,,,416.52429589999974,416.54039529999955,417.0570496,417.0239517,417.0419912999996,417.0570496,417.0570496,417.0570496,418.7575621999995,Foils\081a.jpg,none,n,1.688963199999307,None,,,,,,,,00019,001,2025-11-08_12h49.14.340,MST_test,2024.2.2,59.99192508672502,2025-11-08 12h49.21.096286 +0530,
126,0,126,s,1.3747672000008606,None,126,0,126,0,418.7736839999998,,,,,,,,,,,,,,,,,,,,,,,,,,,,,,,,,,,,,,,,,,,,,,,,,,418.75764419999996,418.7736839999998,419.2736721000001,419.25713929999984,419.2613505999998,419.2736721000001,419.2736721000001,419.2736721000001,420.65728189999936,Objects\340a.jpg,post,s,1.3747672000008606,None,,,,,,,,00019,001,2025-11-08_12h49.14.340,MST_test,2024.2.2,59.99192508672502,2025-11-08 12h49.21.096286 +0530,
127,0,127,o,1.6777062999999544,None,127,0,127,0,420.6736332999999,,,,,,,,,,,,,,,,,,,,,,,,,,,,,,,,,,,,,,,,,,,,,,,,,,420.65736000000015,420.6736332999999,421.19029729999966,421.15716539999994,421.1722510999998,421.19029729999966,421.19029729999966,421.19029729999966,422.8739550999999,Foils\f6.jpg,none,o,1.6777062999999544,None,,,,,,,,00019,001,2025-11-08_12h49.14.340,MST_test,2024.2.2,59.99192508672502,2025-11-08 12h49.21.096286 +0530,
128,0,128,n,2.637246700000105,None,128,0,128,0,422.89025049999964,,,,,,,,,,,,,,,,,,,,,,,,,,,,,,,,,,,,,,,,,,,,,,,,,,422.8740410999999,422.89025049999964,423.4068819999993,423.37406310000006,423.3913756000002,423.4068819999993,423.4068819999993,423.4068819999993,426.05729879999944,Foils\018a.jpg,none,n,2.637246700000105,None,,,,,,,,00019,001,2025-11-08_12h49.14.340,MST_test,2024.2.2,59.99192508672502,2025-11-08 12h49.21.096286 +0530,
129,0,129,s,1.7165666999999303,None,129,0,129,0,426.0734765999996,,,,,,,,,,,,,,,,,,,,,,,,,,,,,,,,,,,,,,,,,,,,,,,,,,426.0573764999999,426.0734765999996,426.5735085999995,426.5570103,426.5591528999994,426.5735085999995,426.5735085999995,426.5735085999995,428.29069939999954,Objects\357a.jpg,mid,s,1.7165666999999303,None,,,,,,,,00019,001,2025-11-08_12h49.14.340,MST_test,2024.2.2,59.99192508672502,2025-11-08 12h49.21.096286 +0530,
130,0,130,s,2.2391890999997486,None,130,0,130,0,428.3068115999995,,,,,,,,,,,,,,,,,,,,,,,,,,,,,,,,,,,,,,,,,,,,,,,,,,428.2907804999995,428.3068115999995,428.82346789999974,428.79039869999997,428.80915060000007,428.82346789999974,428.82346789999974,428.82346789999974,431.0737909999998,Foils\026a.jpg,none,s,2.2391890999997486,None,,,,,,,,00019,001,2025-11-08_12h49.14.340,MST_test,2024.2.2,59.99192508672502,2025-11-08 12h49.21.096286 +0530,
131,0,131,n,1.8320574999997916,None,131,0,131,0,431.0900751999998,,,,,,,,,,,,,,,,,,,,,,,,,,,,,,,,,,,,,,,,,,,,,,,,,,431.0738713999999,431.0900751999998,431.5900689,431.5735219999997,431.58263050000005,431.5900689,431.5900689,431.5900689,433.42379019999953,Foils\058a.jpg,none,n,1.8320574999997916,None,,,,,,,,00019,001,2025-11-08_12h49.14.340,MST_test,2024.2.2,59.99192508672502,2025-11-08 12h49.21.096286 +0530,
132,0,132,s,0.8720460000004095,None,132,0,132,0,433.4400267000001,,,,,,,,,,,,,,,,,,,,,,,,,,,,,,,,,,,,,,,,,,,,,,,,,,433.42388609999944,433.4400267000001,433.93998759999977,433.92359899999974,433.9256798999995,433.93998759999977,433.93998759999977,433.93998759999977,434.82367410000006,Objects\146a.jpg,post,s,0.8720460000004095,None,,,,,,,,00019,001,2025-11-08_12h49.14.340,MST_test,2024.2.2,59.99192508672502,2025-11-08 12h49.21.096286 +0530,
133,0,133,s,1.633840099999361,None,133,0,133,0,434.8400200999995,,,,,,,,,,,,,,,,,,,,,,,,,,,,,,,,,,,,,,,,,,,,,,,,,,434.82374419999996,434.8400200999995,435.33996969999953,435.3235089,435.3256131999997,435.33996969999953,435.33996969999953,435.33996969999953,436.9902843,Objects\013a.jpg,post,s,1.633840099999361,None,,,,,,,,00019,001,2025-11-08_12h49.14.340,MST_test,2024.2.2,59.99192508672502,2025-11-08 12h49.21.096286 +0530,
134,0,134,o,1.2996947999999975,None,134,0,134,0,437.00662120000015,,,,,,,,,,,,,,,,,,,,,,,,,,,,,,,,,,,,,,,,,,,,,,,,,,436.9903661999997,437.00662120000015,437.50660979999975,437.49013339999965,437.4950656000001,437.50660979999975,437.50660979999975,437.50660979999975,438.8071025999998,Objects\325a.jpg,pre,o,1.2996947999999975,None,,,,,,,,00019,001,2025-11-08_12h49.14.340,MST_test,2024.2.2,59.99192508672502,2025-11-08 12h49.21.096286 +0530,
135,0,135,o,0.8807059000000663,None,135,0,135,0,438.8233618999993,,,,,,,,,,,,,,,,,,,,,,,,,,,,,,,,,,,,,,,,,,,,,,,,,,438.8071796999993,438.8233618999993,439.32319670000015,439.30673169999955,439.3118231999997,439.32319670000015,439.32319670000015,439.32319670000015,440.20691929999975,Objects\295a.jpg,post,o,0.8807059000000663,None,,,,,,,,00019,001,2025-11-08_12h49.14.340,MST_test,2024.2.2,59.99192508672502,2025-11-08 12h49.21.096286 +0530,
136,0,136,o,0.7140159999999014,None,136,0,136,0,440.2232078999996,,,,,,,,,,,,,,,,,,,,,,,,,,,,,,,,,,,,,,,,,,,,,,,,,,440.20700099999976,440.2232078999996,440.73987020000004,440.7067176999999,440.7189400999996,440.73987020000004,440.73987020000004,440.73987020000004,441.45686639999985,Objects\002b.jpg,mid,o,0.7140159999999014,None,,,,,,,,00019,001,2025-11-08_12h49.14.340,MST_test,2024.2.2,59.99192508672502,2025-11-08 12h49.21.096286 +0530,
137,0,137,o,1.749764199999845,None,137,0,137,0,441.4731828999993,,,,,,,,,,,,,,,,,,,,,,,,,,,,,,,,,,,,,,,,,,,,,,,,,,441.4569501999995,441.4731828999993,441.98986179999974,441.9567782999993,441.97931079999944,441.98986179999974,441.98986179999974,441.98986179999974,443.74021079999966,Objects\347b.jpg,post,o,1.749764199999845,None,,,,,,,,00019,001,2025-11-08_12h49.14.340,MST_test,2024.2.2,59.99192508672502,2025-11-08 12h49.21.096286 +0530,
138,0,138,s,2.2373569000001226,None,138,0,138,0,443.7564855999999,,,,,,,,,,,,,,,,,,,,,,,,,,,,,,,,,,,,,,,,,,,,,,,,,,443.7402940000002,443.7564855999999,444.2731219999996,444.2400112999994,444.25394359999973,444.2731219999996,444.2731219999996,444.2731219999996,446.52346469999975,Foils\073a.jpg,none,s,2.2373569000001226,None,,,,,,,,00019,001,2025-11-08_12h49.14.340,MST_test,2024.2.2,59.99192508672502,2025-11-08 12h49.21.096286 +0530,
139,0,139,s,2.434591199999886,None,139,0,139,0,446.5397355999994,,,,,,,,,,,,,,,,,,,,,,,,,,,,,,,,,,,,,,,,,,,,,,,,,,446.52354899999955,446.5397355999994,447.03969679999955,447.0233671999995,447.0253686999995,447.03969679999955,447.03969679999955,447.03969679999955,449.48996629999965,Objects\345a.jpg,post,s,2.434591199999886,None,,,,,,,,00019,001,2025-11-08_12h49.14.340,MST_test,2024.2.2,59.99192508672502,2025-11-08 12h49.21.096286 +0530,
140,0,140,o,1.0602687999999034,None,140,0,140,0,449.5063076999995,,,,,,,,,,,,,,,,,,,,,,,,,,,,,,,,,,,,,,,,,,,,,,,,,,449.4900497999997,449.5063076999995,450.0062981000001,449.98990739999954,449.99475429999984,450.0062981000001,450.0062981000001,450.0062981000001,451.0732001999995,Objects\375a.jpg,post,o,1.0602687999999034,None,,,,,,,,00019,001,2025-11-08_12h49.14.340,MST_test,2024.2.2,59.99192508672502,2025-11-08 12h49.21.096286 +0530,
141,0,141,o,3.3383167000001777,None,141,0,141,0,451.0896438,,,,,,,,,,,,,,,,,,,,,,,,,,,,,,,,,,,,,,,,,,,,,,,,,,451.0732739999994,451.0896438,451.5895964000001,451.5732917999994,451.5789304,451.5895964000001,451.5895964000001,451.5895964000001,454.93993109999974,Objects\219a.jpg,pre,o,3.3383167000001777,None,,,,,,,,00019,001,2025-11-08_12h49.14.340,MST_test,2024.2.2,59.99192508672502,2025-11-08 12h49.21.096286 +0530,
142,0,142,s,1.4354787000002034,None,142,0,142,0,454.9562409,,,,,,,,,,,,,,,,,,,,,,,,,,,,,,,,,,,,,,,,,,,,,,,,,,454.9400132999999,454.9562409,455.4728316999999,455.43982549999964,455.4616602999995,455.4728316999999,455.4728316999999,455.4728316999999,456.9233381999993,Objects\254b.jpg,mid,s,1.4354787000002034,None,,,,,,,,00019,001,2025-11-08_12h49.14.340,MST_test,2024.2.2,59.99192508672502,2025-11-08 12h49.21.096286 +0530,
143,0,143,s,1.2223726000001989,None,143,0,143,0,456.9395135999994,,,,,,,,,,,,,,,,,,,,,,,,,,,,,,,,,,,,,,,,,,,,,,,,,,456.9234321999993,456.9395135999994,457.4561285,457.42309529999966,457.4409435999996,457.4561285,457.4561285,457.4561285,458.6897693000001,Objects\074b.jpg,post,s,1.2223726000001989,None,,,,,,,,00019,001,2025-11-08_12h49.14.340,MST_test,2024.2.2,59.99192508672502,2025-11-08 12h49.21.096286 +0530,
144,0,144,o,2.3697728000006464,None,144,0,144,0,458.706142,,,,,,,,,,,,,,,,,,,,,,,,,,,,,,,,,,,,,,,,,,,,,,,,,,458.6898526999994,458.706142,459.2227632999993,459.1896627999995,459.20427070000005,459.2227632999993,459.2227632999993,459.2227632999993,461.60637189999943,Objects\023b.jpg,pre,o,2.3697728000006464,None,,,,,,,,00019,001,2025-11-08_12h49.14.340,MST_test,2024.2.2,59.99192508672502,2025-11-08 12h49.21.096286 +0530,
145,0,145,n,1.892818299999817,None,145,0,145,0,461.6227119999994,,,,,,,,,,,,,,,,,,,,,,,,,,,,,,,,,,,,,,,,,,,,,,,,,,461.60645039999963,461.6227119999994,462.1394129,462.10621230000015,462.1269738000001,462.1394129,462.1394129,462.1394129,464.03969569999936,Objects\364b.jpg,post,n,1.892818299999817,None,,,,,,,,00019,001,2025-11-08_12h49.14.340,MST_test,2024.2.2,59.99192508672502,2025-11-08 12h49.21.096286 +0530,
146,0,146,s,1.4667935000006764,None,146,0,146,0,464.0560240999994,,,,,,,,,,,,,,,,,,,,,,,,,,,,,,,,,,,,,,,,,,,,,,,,,,464.0397871999994,464.0560240999994,464.58931140000004,464.5395904999996,464.5746129999998,464.58931140000004,464.58931140000004,464.58931140000004,466.0564298999998,Objects\377b.jpg,post,s,1.4667935000006764,None,,,,,,,,00019,001,2025-11-08_12h49.14.340,MST_test,2024.2.2,59.99192508672502,2025-11-08 12h49.21.096286 +0530,
147,0,147,n,1.3519897000005585,None,147,0,147,0,466.0726447999996,,,,,,,,,,,,,,,,,,,,,,,,,,,,,,,,,,,,,,,,,,,,,,,,,,466.0565121999998,466.0726447999996,466.5722171999996,466.5561586999993,466.56723859999965,466.5722171999996,466.5722171999996,466.5722171999996,467.9396180999993,Foils\106a.jpg,none,n,1.3519897000005585,None,,,,,,,,00019,001,2025-11-08_12h49.14.340,MST_test,2024.2.2,59.99192508672502,2025-11-08 12h49.21.096286 +0530,
148,0,148,s,0.9717690999996194,None,148,0,148,0,467.9560652,,,,,,,,,,,,,,,,,,,,,,,,,,,,,,,,,,,,,,,,,,,,,,,,,,467.9397031999997,467.9560652,468.47256149999976,468.4395588999996,468.45913930000006,468.47256149999976,468.47256149999976,468.47256149999976,469.45627869999953,Objects\323b.jpg,mid,s,0.9717690999996194,None,,,,,,,,00019,001,2025-11-08_12h49.14.340,MST_test,2024.2.2,59.99192508672502,2025-11-08 12h49.21.096286 +0530,
149,0,149,s,1.2700679999998101,None,149,0,149,0,469.47256409999954,,,,,,,,,,,,,,,,,,,,,,,,,,,,,,,,,,,,,,,,,,,,,,,,,,469.4563647999994,469.47256409999954,470.0058570000001,469.9561475999999,469.9852654999995,470.0058570000001,470.0058570000001,470.0058570000001,471.2896056999998,Objects\194b.jpg,post,s,1.2700679999998101,None,,,,,,,,00019,001,2025-11-08_12h49.14.340,MST_test,2024.2.2,59.99192508672502,2025-11-08 12h49.21.096286 +0530,
,,,,,,,,,,,,,,,,,,,,,,,,,,,,,,,,,,,,,,,,,,,,,,,,,,,,,,,,,,,,,,,,,,,,,,,,,,471.2896651000001,471.30584480000016,471.30584480000016,473.33960260000003,space,2.0263030999994953,None,00019,001,2025-11-08_12h49.14.340,MST_test,2024.2.2,59.99192508672502,2025-11-08 12h49.21.096286 +0530,
