thisN,thisTrialN,thisRepN,key_resp_3.keys,key_resp_3.rt,key_resp_3.duration,trials.thisRepN,trials.thisTrialN,trials.thisN,trials.thisIndex,thisRow.t,notes,intro_page.started,text.started,key_resp.started,intro_page.stopped,key_resp.keys,key_resp.rt,key_resp.duration,instructions.started,text_2.started,key_resp_2.started,instructions.stopped,key_resp_2.keys,key_resp_2.rt,key_resp_2.duration,demo1.started,image_1.started,image_2.started,text_7.started,key_resp_6.started,text_9.started,demo1.stopped,key_resp_6.keys,key_resp_6.rt,key_resp_6.duration,demo3.started,image_5.started,image_6.started,text_11.started,text_12.started,key_resp_8.started,demo3.stopped,key_resp_8.keys,key_resp_8.rt,key_resp_8.duration,demo_conclusion.started,text_13.started,key_resp_9.started,demo_conclusion.stopped,key_resp_9.keys,key_resp_9.rt,key_resp_9.duration,start_test.started,text_6.started,key_resp_5.started,start_test.stopped,key_resp_5.keys,key_resp_5.rt,key_resp_5.duration,ISI.started,text_4.started,text_4.stopped,ISI.stopped,routine_1.started,image.started,text_3.started,key_resp_3.started,routine_1.stopped,image_path,position_of_stimuli,trials.key_resp_3.keys,trials.key_resp_3.rt,trials.key_resp_3.duration,End_page.started,text_5.started,key_resp_4.started,End_page.stopped,key_resp_4.keys,key_resp_4.rt,key_resp_4.duration,participant,session,date,expName,psychopyVersion,frameRate,expStart,
,,,,,,,,,,,,0.013814400000228488,0.030165900000611146,0.030165900000611146,1.98190330000034,space,1.9384602999998606,None,,,,,,,,,,,,,,,,,,,,,,,,,,,,,,,,,,,,,,,,,,,,,,,,,,,,,,,,,,,,,,,00025,001,2025-11-10_16h04.32.749,MST_test,2024.2.2,60.00668474460773,2025-11-10 16h04.38.407261 +0530,
,,,,,,,,,,,,,,,,,,,1.9819332000006398,1.9967695000004824,1.9967695000004824,11.680228400000487,space,9.670342399999754,None,,,,,,,,,,,,,,,,,,,,,,,,,,,,,,,,,,,,,,,,,,,,,,,,,,,,,,,,00025,001,2025-11-10_16h04.32.749,MST_test,2024.2.2,60.00668474460773,2025-11-10 16h04.38.407261 +0530,
,,,,,,,,,,,,,,,,,,,,,,,,,,11.680254500000046,11.696551300000465,11.696551300000465,11.696551300000465,11.696551300000465,11.696551300000465,16.813430000000153,space,5.110265000000254,None,,,,,,,,,,,,,,,,,,,,,,,,,,,,,,,,,,,,,,,,,,,,,,00025,001,2025-11-10_16h04.32.749,MST_test,2024.2.2,60.00668474460773,2025-11-10 16h04.38.407261 +0530,
,,,,,,,,,,,,,,,,,,,,,,,,,,,,,,,,,,,,16.813454200000706,16.829770300000746,16.829770300000746,16.829770300000746,16.829770300000746,16.829770300000746,20.730118200000106,space,3.8853815000002214,None,,,,,,,,,,,,,,,,,,,,,,,,,,,,,,,,,,,,00025,001,2025-11-10_16h04.32.749,MST_test,2024.2.2,60.00668474460773,2025-11-10 16h04.38.407261 +0530,
,,,,,,,,,,,,,,,,,,,,,,,,,,,,,,,,,,,,,,,,,,,,,,20.73014300000068,20.746413500000017,20.746413500000017,69.72901640000055,space,48.97292970000035,None,,,,,,,,,,,,,,,,,,,,,,,,,,,,,00025,001,2025-11-10_16h04.32.749,MST_test,2024.2.2,60.00668474460773,2025-11-10 16h04.38.407261 +0530,
,,,,,,,,,,,,,,,,,,,,,,,,,,,,,,,,,,,,,,,,,,,,,,,,,,,,,69.72905990000072,69.7453286,69.7453286,82.42876130000059,space,12.676149599999917,None,,,,,,,,,,,,,,,,,,,,,,00025,001,2025-11-10_16h04.32.749,MST_test,2024.2.2,60.00668474460773,2025-11-10 16h04.38.407261 +0530,
0,0,0,o,4.842346399999769,None,0,0,0,0,82.44503060000079,,,,,,,,,,,,,,,,,,,,,,,,,,,,,,,,,,,,,,,,,,,,,,,,,,82.43137780000052,82.44503060000079,82.94502100000045,82.92849330000081,82.93639490000078,82.94502100000045,82.94502100000045,82.94502100000045,87.79533059999994,Objects\382a.jpg,pre,o,4.842346399999769,None,,,,,,,,00025,001,2025-11-10_16h04.32.749,MST_test,2024.2.2,60.00668474460773,2025-11-10 16h04.38.407261 +0530,
1,0,1,o,8.229854700000033,None,1,0,1,0,87.81155730000046,,,,,,,,,,,,,,,,,,,,,,,,,,,,,,,,,,,,,,,,,,,,,,,,,,87.7954152000002,87.81155730000046,88.31156540000029,88.29508030000034,88.30081050000081,88.31156540000029,88.31156540000029,88.31156540000029,96.54507940000076,Objects\229a.jpg,mid,o,8.229854700000033,None,,,,,,,,00025,001,2025-11-10_16h04.32.749,MST_test,2024.2.2,60.00668474460773,2025-11-10 16h04.38.407261 +0530,
2,0,2,o,1.6254963999999745,None,2,0,2,0,96.56138640000063,,,,,,,,,,,,,,,,,,,,,,,,,,,,,,,,,,,,,,,,,,,,,,,,,,96.54516140000032,96.56138640000063,97.06156700000065,97.04487410000002,97.05016070000056,97.06156700000065,97.06156700000065,97.06156700000065,98.69501740000032,Objects\021a.jpg,post,o,1.6254963999999745,None,,,,,,,,00025,001,2025-11-10_16h04.32.749,MST_test,2024.2.2,60.00668474460773,2025-11-10 16h04.38.407261 +0530,
3,0,3,s,4.409024799999315,None,3,0,3,0,98.71134150000034,,,,,,,,,,,,,,,,,,,,,,,,,,,,,,,,,,,,,,,,,,,,,,,,,,98.69511020000027,98.71134150000034,99.21141130000069,99.19481210000049,99.19668910000019,99.21141130000069,99.21141130000069,99.21141130000069,103.62828010000067,Objects\305a.jpg,mid,s,4.409024799999315,None,,,,,,,,00025,001,2025-11-10_16h04.32.749,MST_test,2024.2.2,60.00668474460773,2025-11-10 16h04.38.407261 +0530,
4,0,4,o,1.1605442999998559,None,4,0,4,0,103.6445646000002,,,,,,,,,,,,,,,,,,,,,,,,,,,,,,,,,,,,,,,,,,,,,,,,,,103.6283641,103.6445646000002,104.14452190000065,104.12803900000017,104.12999060000038,104.14452190000065,104.14452190000065,104.14452190000065,105.31147930000043,Objects\104a.jpg,pre,o,1.1605442999998559,None,,,,,,,,00025,001,2025-11-10_16h04.32.749,MST_test,2024.2.2,60.00668474460773,2025-11-10 16h04.38.407261 +0530,
5,0,5,s,4.287156000000323,None,5,0,5,0,105.32788789999995,,,,,,,,,,,,,,,,,,,,,,,,,,,,,,,,,,,,,,,,,,,,,,,,,,105.31156320000082,105.32788789999995,105.82806700000037,105.81130329999996,105.81592249999994,105.82806700000037,105.82806700000037,105.82806700000037,110.12814270000035,Objects\316a.jpg,mid,s,4.287156000000323,None,,,,,,,,00025,001,2025-11-10_16h04.32.749,MST_test,2024.2.2,60.00668474460773,2025-11-10 16h04.38.407261 +0530,
6,0,6,n,3.7711638999999195,None,6,0,6,0,110.14441910000005,,,,,,,,,,,,,,,,,,,,,,,,,,,,,,,,,,,,,,,,,,,,,,,,,,110.12822570000026,110.14441910000005,110.67782690000058,110.6278927000003,110.6571311000007,110.67782690000058,110.67782690000058,110.67782690000058,114.46152170000005,Objects\058b.jpg,mid,n,3.7711638999999195,None,,,,,,,,00025,001,2025-11-10_16h04.32.749,MST_test,2024.2.2,60.00668474460773,2025-11-10 16h04.38.407261 +0530,
7,0,7,n,3.915519099999983,None,7,0,7,0,114.47774780000054,,,,,,,,,,,,,,,,,,,,,,,,,,,,,,,,,,,,,,,,,,,,,,,,,,114.46160959999997,114.47774780000054,114.97779620000074,114.9616289000005,114.97041230000013,114.97779620000074,114.97779620000074,114.97779620000074,118.89459979999992,Foils\065a.jpg,none,n,3.915519099999983,None,,,,,,,,00025,001,2025-11-10_16h04.32.749,MST_test,2024.2.2,60.00668474460773,2025-11-10 16h04.38.407261 +0530,
8,0,8,s,2.8394596999996793,None,8,0,8,0,118.91098899999997,,,,,,,,,,,,,,,,,,,,,,,,,,,,,,,,,,,,,,,,,,,,,,,,,,118.8946874000003,118.91098899999997,119.42762080000011,119.39457730000049,119.41184640000029,119.42762080000011,119.42762080000011,119.42762080000011,122.27786930000002,Objects\091b.jpg,mid,s,2.8394596999996793,None,,,,,,,,00025,001,2025-11-10_16h04.32.749,MST_test,2024.2.2,60.00668474460773,2025-11-10 16h04.38.407261 +0530,
9,0,9,n,4.1531688999994,None,9,0,9,0,122.29424350000045,,,,,,,,,,,,,,,,,,,,,,,,,,,,,,,,,,,,,,,,,,,,,,,,,,122.2779429000002,122.29424350000045,122.79420090000076,122.77778860000035,122.78576890000022,122.79420090000076,122.79420090000076,122.79420090000076,126.96118300000035,Foils\081a.jpg,none,n,4.1531688999994,None,,,,,,,,00025,001,2025-11-10_16h04.32.749,MST_test,2024.2.2,60.00668474460773,2025-11-10 16h04.38.407261 +0530,
10,0,10,o,2.0791848999997455,None,10,0,10,0,126.97748180000053,,,,,,,,,,,,,,,,,,,,,,,,,,,,,,,,,,,,,,,,,,,,,,,,,,126.96126490000006,126.97748180000053,127.4774380000008,127.46097750000081,127.46287269999993,127.4774380000008,127.4774380000008,127.4774380000008,129.5611224000004,Objects\110a.jpg,mid,o,2.0791848999997455,None,,,,,,,,00025,001,2025-11-10_16h04.32.749,MST_test,2024.2.2,60.00668474460773,2025-11-10 16h04.38.407261 +0530,
11,0,11,o,1.1267205000003742,None,11,0,11,0,129.57745690000047,,,,,,,,,,,,,,,,,,,,,,,,,,,,,,,,,,,,,,,,,,,,,,,,,,129.5612058000006,129.57745690000047,130.07738360000076,130.0609168000001,130.06273480000073,130.07738360000076,130.07738360000076,130.07738360000076,131.2112087000005,Objects\075a.jpg,pre,o,1.1267205000003742,None,,,,,,,,00025,001,2025-11-10_16h04.32.749,MST_test,2024.2.2,60.00668474460773,2025-11-10 16h04.38.407261 +0530,
12,0,12,n,2.893832900000234,None,12,0,12,0,131.22746160000042,,,,,,,,,,,,,,,,,,,,,,,,,,,,,,,,,,,,,,,,,,,,,,,,,,131.2112902000008,131.22746160000042,131.7273748000007,131.71088409999993,131.71850750000067,131.7273748000007,131.7273748000007,131.7273748000007,134.62760300000082,Foils\050a.jpg,none,n,2.893832900000234,None,,,,,,,,00025,001,2025-11-10_16h04.32.749,MST_test,2024.2.2,60.00668474460773,2025-11-10 16h04.38.407261 +0530,
13,0,13,n,3.734614199999669,None,13,0,13,0,134.6439773000002,,,,,,,,,,,,,,,,,,,,,,,,,,,,,,,,,,,,,,,,,,,,,,,,,,134.62768420000066,134.6439773000002,135.1439992000005,135.12755180000022,135.13493130000006,135.1439992000005,135.1439992000005,135.1439992000005,138.89424810000037,Foils\026a.jpg,none,n,3.734614199999669,None,,,,,,,,00025,001,2025-11-10_16h04.32.749,MST_test,2024.2.2,60.00668474460773,2025-11-10 16h04.38.407261 +0530,
14,0,14,s,1.8231868000002578,None,14,0,14,0,138.9105193000005,,,,,,,,,,,,,,,,,,,,,,,,,,,,,,,,,,,,,,,,,,,,,,,,,,138.8943294999999,138.9105193000005,139.44385290000082,139.3941074000004,139.42743940000037,139.44385290000082,139.44385290000082,139.44385290000082,141.27747100000033,Objects\336b.jpg,pre,s,1.8231868000002578,None,,,,,,,,00025,001,2025-11-10_16h04.32.749,MST_test,2024.2.2,60.00668474460773,2025-11-10 16h04.38.407261 +0530,
15,0,15,o,1.1896397000000434,None,15,0,15,0,141.29374069999994,,,,,,,,,,,,,,,,,,,,,,,,,,,,,,,,,,,,,,,,,,,,,,,,,,141.27755200000047,141.29374069999994,141.79369980000047,141.7774070000005,141.78227250000054,141.79369980000047,141.79369980000047,141.79369980000047,142.9940875000002,Objects\281a.jpg,mid,o,1.1896397000000434,None,,,,,,,,00025,001,2025-11-10_16h04.32.749,MST_test,2024.2.2,60.00668474460773,2025-11-10 16h04.38.407261 +0530,
16,0,16,o,0.8803176000001258,None,16,0,16,0,143.01036610000028,,,,,,,,,,,,,,,,,,,,,,,,,,,,,,,,,,,,,,,,,,,,,,,,,,142.99416790000032,143.01036610000028,143.52702190000036,143.49394220000067,143.51411570000073,143.52702190000036,143.52702190000036,143.52702190000036,144.4106756000001,Objects\191b.jpg,post,o,0.8803176000001258,None,,,,,,,,00025,001,2025-11-10_16h04.32.749,MST_test,2024.2.2,60.00668474460773,2025-11-10 16h04.38.407261 +0530,
17,0,17,s,1.6500030999995943,None,17,0,17,0,144.4269759000008,,,,,,,,,,,,,,,,,,,,,,,,,,,,,,,,,,,,,,,,,,,,,,,,,,144.41075010000077,144.4269759000008,144.94365370000014,144.9104894000002,144.9302516000007,144.94365370000014,144.94365370000014,144.94365370000014,146.59418360000018,Objects\152b.jpg,mid,s,1.6500030999995943,None,,,,,,,,00025,001,2025-11-10_16h04.32.749,MST_test,2024.2.2,60.00668474460773,2025-11-10 16h04.38.407261 +0530,
18,0,18,s,2.118410500000209,None,18,0,18,0,146.6103116000004,,,,,,,,,,,,,,,,,,,,,,,,,,,,,,,,,,,,,,,,,,,,,,,,,,146.59426520000034,146.6103116000004,147.11028140000053,147.09374620000017,147.09570900000017,147.11028140000053,147.11028140000053,147.11028140000053,149.2438531000007,Objects\142a.jpg,post,s,2.118410500000209,None,,,,,,,,00025,001,2025-11-10_16h04.32.749,MST_test,2024.2.2,60.00668474460773,2025-11-10 16h04.38.407261 +0530,
19,0,19,o,1.4270095000001675,None,19,0,19,0,149.26023570000052,,,,,,,,,,,,,,,,,,,,,,,,,,,,,,,,,,,,,,,,,,,,,,,,,,149.24394030000076,149.26023570000052,149.760217,149.74377900000036,149.74603650000063,149.760217,149.760217,149.760217,151.1937740000003,Objects\175a.jpg,mid,o,1.4270095000001675,None,,,,,,,,00025,001,2025-11-10_16h04.32.749,MST_test,2024.2.2,60.00668474460773,2025-11-10 16h04.38.407261 +0530,
20,0,20,s,3.0498177999998006,None,20,0,20,0,151.21018470000035,,,,,,,,,,,,,,,,,,,,,,,,,,,,,,,,,,,,,,,,,,,,,,,,,,151.193851,151.21018470000035,151.7434817000003,151.69363740000063,151.7224685000001,151.7434817000003,151.7434817000003,151.7434817000003,154.79386130000057,Objects\160b.jpg,pre,s,3.0498177999998006,None,,,,,,,,00025,001,2025-11-10_16h04.32.749,MST_test,2024.2.2,60.00668474460773,2025-11-10 16h04.38.407261 +0530,
21,0,21,s,2.911790699999983,None,21,0,21,0,154.81010920000062,,,,,,,,,,,,,,,,,,,,,,,,,,,,,,,,,,,,,,,,,,,,,,,,,,154.7939464000001,154.81010920000062,155.32673290000002,155.29356600000028,155.31998199999998,155.32673290000002,155.32673290000002,155.32673290000002,158.24371450000035,Objects\209b.jpg,post,s,2.911790699999983,None,,,,,,,,00025,001,2025-11-10_16h04.32.749,MST_test,2024.2.2,60.00668474460773,2025-11-10 16h04.38.407261 +0530,
22,0,22,o,1.6091839999999138,None,22,0,22,0,158.2600435000004,,,,,,,,,,,,,,,,,,,,,,,,,,,,,,,,,,,,,,,,,,,,,,,,,,158.2437959000008,158.2600435000004,158.79333100000076,158.74345620000076,158.78262260000065,158.79333100000076,158.79333100000076,158.79333100000076,160.41023170000062,Objects\046b.jpg,pre,o,1.6091839999999138,None,,,,,,,,00025,001,2025-11-10_16h04.32.749,MST_test,2024.2.2,60.00668474460773,2025-11-10 16h04.38.407261 +0530,
23,0,23,s,1.3396676000002117,None,23,0,23,0,160.42665130000023,,,,,,,,,,,,,,,,,,,,,,,,,,,,,,,,,,,,,,,,,,,,,,,,,,160.4103154000004,160.42665130000023,160.94329170000037,160.91011140000046,160.92715510000016,160.94329170000037,160.94329170000037,160.94329170000037,162.2935537000003,Objects\276b.jpg,post,s,1.3396676000002117,None,,,,,,,,00025,001,2025-11-10_16h04.32.749,MST_test,2024.2.2,60.00668474460773,2025-11-10 16h04.38.407261 +0530,
24,0,24,n,2.5968167999999423,None,24,0,24,0,162.30994350000037,,,,,,,,,,,,,,,,,,,,,,,,,,,,,,,,,,,,,,,,,,,,,,,,,,162.2936346000006,162.30994350000037,162.80989769999996,162.79348800000025,162.80133550000028,162.80989769999996,162.80989769999996,162.80989769999996,165.41028900000038,Foils\097a.jpg,none,n,2.5968167999999423,None,,,,,,,,00025,001,2025-11-10_16h04.32.749,MST_test,2024.2.2,60.00668474460773,2025-11-10 16h04.38.407261 +0530,
25,0,25,n,1.7604785000003176,None,25,0,25,0,165.42654029999994,,,,,,,,,,,,,,,,,,,,,,,,,,,,,,,,,,,,,,,,,,,,,,,,,,165.4103698000008,165.42654029999994,165.92650589999994,165.91002110000045,165.9177324000002,165.92650589999994,165.92650589999994,165.92650589999994,167.69357209999998,Foils\049a.jpg,none,n,1.7604785000003176,None,,,,,,,,00025,001,2025-11-10_16h04.32.749,MST_test,2024.2.2,60.00668474460773,2025-11-10 16h04.38.407261 +0530,
26,0,26,s,2.3648972999999387,None,26,0,26,0,167.70983780000006,,,,,,,,,,,,,,,,,,,,,,,,,,,,,,,,,,,,,,,,,,,,,,,,,,167.69365570000082,167.70983780000006,168.22651920000044,168.19334320000053,168.22050170000057,168.22651920000044,168.22651920000044,168.22651920000044,170.5934059000001,Objects\269b.jpg,pre,s,2.3648972999999387,None,,,,,,,,00025,001,2025-11-10_16h04.32.749,MST_test,2024.2.2,60.00668474460773,2025-11-10 16h04.38.407261 +0530,
27,0,27,o,1.547000599999592,None,27,0,27,0,170.6097651,,,,,,,,,,,,,,,,,,,,,,,,,,,,,,,,,,,,,,,,,,,,,,,,,,170.59348540000065,170.6097651,171.10971570000038,171.09321320000072,171.09837810000045,171.10971570000038,171.10971570000038,171.10971570000038,172.66025549999995,Objects\254a.jpg,post,o,1.547000599999592,None,,,,,,,,00025,001,2025-11-10_16h04.32.749,MST_test,2024.2.2,60.00668474460773,2025-11-10 16h04.38.407261 +0530,
28,0,28,s,2.2125123999994685,None,28,0,28,0,172.67647770000076,,,,,,,,,,,,,,,,,,,,,,,,,,,,,,,,,,,,,,,,,,,,,,,,,,172.6603386000006,172.67647770000076,173.19301300000006,173.16000170000007,173.1805978000002,173.19301300000006,173.19301300000006,173.19301300000006,175.41020900000058,Objects\321b.jpg,post,s,2.2125123999994685,None,,,,,,,,00025,001,2025-11-10_16h04.32.749,MST_test,2024.2.2,60.00668474460773,2025-11-10 16h04.38.407261 +0530,
29,0,29,o,1.3437149999999747,None,29,0,29,0,175.42633410000053,,,,,,,,,,,,,,,,,,,,,,,,,,,,,,,,,,,,,,,,,,,,,,,,,,175.41029250000065,175.42633410000053,175.94297690000076,175.90979460000017,175.92975990000014,175.94297690000076,175.94297690000076,175.94297690000076,177.29325160000008,Objects\125b.jpg,mid,o,1.3437149999999747,None,,,,,,,,00025,001,2025-11-10_16h04.32.749,MST_test,2024.2.2,60.00668474460773,2025-11-10 16h04.38.407261 +0530,
30,0,30,s,1.569706700000097,None,30,0,30,0,177.30961630000002,,,,,,,,,,,,,,,,,,,,,,,,,,,,,,,,,,,,,,,,,,,,,,,,,,177.29333540000061,177.30961630000002,177.8262364000002,177.7931561000005,177.81090790000053,177.8262364000002,177.8262364000002,177.8262364000002,179.40996059999998,Objects\325b.jpg,mid,s,1.569706700000097,None,,,,,,,,00025,001,2025-11-10_16h04.32.749,MST_test,2024.2.2,60.00668474460773,2025-11-10 16h04.38.407261 +0530,
31,0,31,s,1.6538765000004787,None,31,0,31,0,179.42623810000077,,,,,,,,,,,,,,,,,,,,,,,,,,,,,,,,,,,,,,,,,,,,,,,,,,179.4100442000008,179.42623810000077,179.95956490000026,179.9098681000005,179.93887540000014,179.95956490000026,179.95956490000026,179.95956490000026,181.62654190000012,Objects\092b.jpg,pre,s,1.6538765000004787,None,,,,,,,,00025,001,2025-11-10_16h04.32.749,MST_test,2024.2.2,60.00668474460773,2025-11-10 16h04.38.407261 +0530,
32,0,32,s,5.6633269000003565,None,32,0,32,0,181.64286130000073,,,,,,,,,,,,,,,,,,,,,,,,,,,,,,,,,,,,,,,,,,,,,,,,,,181.6266239000006,181.64286130000073,182.1595453,182.1263529000007,182.14308210000036,182.1595453,182.1595453,182.1595453,187.82646250000016,Objects\301b.jpg,mid,s,5.6633269000003565,None,,,,,,,,00025,001,2025-11-10_16h04.32.749,MST_test,2024.2.2,60.00668474460773,2025-11-10 16h04.38.407261 +0530,
33,0,33,o,1.6281674000001658,None,33,0,33,0,187.84272630000032,,,,,,,,,,,,,,,,,,,,,,,,,,,,,,,,,,,,,,,,,,,,,,,,,,187.82654470000034,187.84272630000032,188.3426801000005,188.3262067000005,188.3310887000007,188.3426801000005,188.3426801000005,188.3426801000005,189.9762799,Objects\300a.jpg,mid,o,1.6281674000001658,None,,,,,,,,00025,001,2025-11-10_16h04.32.749,MST_test,2024.2.2,60.00668474460773,2025-11-10 16h04.38.407261 +0530,
34,0,34,o,1.3747334999998202,None,34,0,34,0,189.99265780000042,,,,,,,,,,,,,,,,,,,,,,,,,,,,,,,,,,,,,,,,,,,,,,,,,,189.9763563000006,189.99265780000042,190.49224260000028,190.47627830000056,190.4876514000007,190.49224260000028,190.49224260000028,190.49224260000028,191.87634780000008,Objects\263b.jpg,mid,o,1.3747334999998202,None,,,,,,,,00025,001,2025-11-10_16h04.32.749,MST_test,2024.2.2,60.00668474460773,2025-11-10 16h04.38.407261 +0530,
35,0,35,s,1.1606622999997853,None,35,0,35,0,191.89260060000015,,,,,,,,,,,,,,,,,,,,,,,,,,,,,,,,,,,,,,,,,,,,,,,,,,191.8764226000003,191.89260060000015,192.42592420000074,192.37611490000018,192.40621680000004,192.42592420000074,192.42592420000074,192.42592420000074,193.59286969999994,Objects\308b.jpg,post,s,1.1606622999997853,None,,,,,,,,00025,001,2025-11-10_16h04.32.749,MST_test,2024.2.2,60.00668474460773,2025-11-10 16h04.38.407261 +0530,
36,0,36,o,1.8773454000001948,None,36,0,36,0,193.60926070000005,,,,,,,,,,,,,,,,,,,,,,,,,,,,,,,,,,,,,,,,,,,,,,,,,,193.59294560000035,193.60926070000005,194.12591940000038,194.09269510000013,194.11496630000056,194.12591940000038,194.12591940000038,194.12591940000038,196.00959260000036,Objects\213b.jpg,pre,o,1.8773454000001948,None,,,,,,,,00025,001,2025-11-10_16h04.32.749,MST_test,2024.2.2,60.00668474460773,2025-11-10 16h04.38.407261 +0530,
37,0,37,s,2.9045452000000296,None,37,0,37,0,196.0258775000002,,,,,,,,,,,,,,,,,,,,,,,,,,,,,,,,,,,,,,,,,,,,,,,,,,196.00966560000052,196.0258775000002,196.54252950000046,196.50942960000066,196.53262330000052,196.54252950000046,196.54252950000046,196.54252950000046,199.4595650000001,Objects\010b.jpg,pre,s,2.9045452000000296,None,,,,,,,,00025,001,2025-11-10_16h04.32.749,MST_test,2024.2.2,60.00668474460773,2025-11-10 16h04.38.407261 +0530,
38,0,38,s,1.601579700000002,None,38,0,38,0,199.47580030000063,,,,,,,,,,,,,,,,,,,,,,,,,,,,,,,,,,,,,,,,,,,,,,,,,,199.45965250000063,199.47580030000063,200.00911820000056,199.9592891000002,199.99535660000038,200.00911820000056,200.00911820000056,200.00911820000056,201.62605320000057,Objects\324b.jpg,mid,s,1.601579700000002,None,,,,,,,,00025,001,2025-11-10_16h04.32.749,MST_test,2024.2.2,60.00668474460773,2025-11-10 16h04.38.407261 +0530,
39,0,39,s,1.1562992999997732,None,39,0,39,0,201.64242340000055,,,,,,,,,,,,,,,,,,,,,,,,,,,,,,,,,,,,,,,,,,,,,,,,,,201.62614010000016,201.64242340000055,202.1590468000004,202.1260198,202.1505648000002,202.1590468000004,202.1590468000004,202.1590468000004,203.32600600000023,Objects\186b.jpg,post,s,1.1562992999997732,None,,,,,,,,00025,001,2025-11-10_16h04.32.749,MST_test,2024.2.2,60.00668474460773,2025-11-10 16h04.38.407261 +0530,
40,0,40,n,2.101039700000001,None,40,0,40,0,203.34238820000064,,,,,,,,,,,,,,,,,,,,,,,,,,,,,,,,,,,,,,,,,,,,,,,,,,203.32609130000037,203.34238820000064,203.84239419999994,203.82596980000017,203.8335147000007,203.84239419999994,203.84239419999994,203.84239419999994,205.9593149000002,Foils\058a.jpg,none,n,2.101039700000001,None,,,,,,,,00025,001,2025-11-10_16h04.32.749,MST_test,2024.2.2,60.00668474460773,2025-11-10 16h04.38.407261 +0530,
41,0,41,o,1.632397299999866,None,41,0,41,0,205.9756556000002,,,,,,,,,,,,,,,,,,,,,,,,,,,,,,,,,,,,,,,,,,,,,,,,,,205.95939690000068,205.9756556000002,206.47560860000067,206.4592115000005,206.4611829000005,206.47560860000067,206.47560860000067,206.47560860000067,208.10929080000005,Objects\005a.jpg,pre,o,1.632397299999866,None,,,,,,,,00025,001,2025-11-10_16h04.32.749,MST_test,2024.2.2,60.00668474460773,2025-11-10 16h04.38.407261 +0530,
42,0,42,o,2.092676200000824,None,42,0,42,0,208.1255882000005,,,,,,,,,,,,,,,,,,,,,,,,,,,,,,,,,,,,,,,,,,,,,,,,,,208.1093694000001,208.1255882000005,208.62559750000037,208.60911620000024,208.6114133000001,208.62559750000037,208.62559750000037,208.62559750000037,210.72588520000045,Objects\282a.jpg,mid,o,2.092676200000824,None,,,,,,,,00025,001,2025-11-10_16h04.32.749,MST_test,2024.2.2,60.00668474460773,2025-11-10 16h04.38.407261 +0530,
43,0,43,n,1.7281997999998566,None,43,0,43,0,210.74222460000055,,,,,,,,,,,,,,,,,,,,,,,,,,,,,,,,,,,,,,,,,,,,,,,,,,210.72597170000063,210.74222460000055,211.24220530000002,211.2256625,211.23314310000023,211.24220530000002,211.24220530000002,211.24220530000002,212.97590310000032,Foils\020b.jpg,none,n,1.7281997999998566,None,,,,,,,,00025,001,2025-11-10_16h04.32.749,MST_test,2024.2.2,60.00668474460773,2025-11-10 16h04.38.407261 +0530,
44,0,44,s,1.09931830000005,None,44,0,44,0,212.99218110000038,,,,,,,,,,,,,,,,,,,,,,,,,,,,,,,,,,,,,,,,,,,,,,,,,,212.97598520000065,212.99218110000038,213.49212669999997,213.47573790000024,213.47771340000054,213.49212669999997,213.49212669999997,213.49212669999997,214.5924782000002,Objects\028a.jpg,pre,s,1.09931830000005,None,,,,,,,,00025,001,2025-11-10_16h04.32.749,MST_test,2024.2.2,60.00668474460773,2025-11-10 16h04.38.407261 +0530,
45,0,45,s,1.6392249000000447,None,45,0,45,0,214.60879710000063,,,,,,,,,,,,,,,,,,,,,,,,,,,,,,,,,,,,,,,,,,,,,,,,,,214.5925552000008,214.60879710000063,215.1254183000001,215.09228860000076,215.11052400000062,215.1254183000001,215.1254183000001,215.1254183000001,216.7757231000005,Objects\086b.jpg,pre,s,1.6392249000000447,None,,,,,,,,00025,001,2025-11-10_16h04.32.749,MST_test,2024.2.2,60.00668474460773,2025-11-10 16h04.38.407261 +0530,
46,0,46,n,2.2010583999999653,None,46,0,46,0,216.7920810000005,,,,,,,,,,,,,,,,,,,,,,,,,,,,,,,,,,,,,,,,,,,,,,,,,,216.77580300000045,216.7920810000005,217.2920447000006,217.2755769000005,217.28311050000048,217.2920447000006,217.2920447000006,217.2920447000006,219.50893890000043,Foils\010a.jpg,none,n,2.2010583999999653,None,,,,,,,,00025,001,2025-11-10_16h04.32.749,MST_test,2024.2.2,60.00668474460773,2025-11-10 16h04.38.407261 +0530,
47,0,47,n,2.2458913999998913,None,47,0,47,0,219.52551500000027,,,,,,,,,,,,,,,,,,,,,,,,,,,,,,,,,,,,,,,,,,,,,,,,,,219.5090125000006,219.52551500000027,220.04197900000054,220.00886290000017,220.03278000000046,220.04197900000054,220.04197900000054,220.04197900000054,222.29222050000044,Objects\340b.jpg,mid,n,2.2458913999998913,None,,,,,,,,00025,001,2025-11-10_16h04.32.749,MST_test,2024.2.2,60.00668474460773,2025-11-10 16h04.38.407261 +0530,
48,0,48,o,2.9460932000001776,None,48,0,48,0,222.30863900000077,,,,,,,,,,,,,,,,,,,,,,,,,,,,,,,,,,,,,,,,,,,,,,,,,,222.29229680000026,222.30863900000077,222.82525390000046,222.7922965000007,222.8154058,222.82525390000046,222.82525390000046,222.82525390000046,225.77564650000022,Objects\149b.jpg,pre,o,2.9460932000001776,None,,,,,,,,00025,001,2025-11-10_16h04.32.749,MST_test,2024.2.2,60.00668474460773,2025-11-10 16h04.38.407261 +0530,
49,0,49,n,2.2738917999995465,None,49,0,49,0,225.79189440000027,,,,,,,,,,,,,,,,,,,,,,,,,,,,,,,,,,,,,,,,,,,,,,,,,,225.7757304000006,225.79189440000027,226.30850940000073,226.27536970000074,226.29866829999992,226.30850940000073,226.30850940000073,226.30850940000073,228.59223060000022,Objects\306b.jpg,pre,n,2.2738917999995465,None,,,,,,,,00025,001,2025-11-10_16h04.32.749,MST_test,2024.2.2,60.00668474460773,2025-11-10 16h04.38.407261 +0530,
50,0,50,s,3.204461400000582,None,50,0,50,0,228.6084924000006,,,,,,,,,,,,,,,,,,,,,,,,,,,,,,,,,,,,,,,,,,,,,,,,,,228.59230819999993,228.6084924000006,229.10844240000006,229.09211649999997,229.0972225000005,229.10844240000006,229.10844240000006,229.10844240000006,232.32538970000041,Objects\064a.jpg,pre,s,3.204461400000582,None,,,,,,,,00025,001,2025-11-10_16h04.32.749,MST_test,2024.2.2,60.00668474460773,2025-11-10 16h04.38.407261 +0530,
51,0,51,s,1.4348103000002084,None,51,0,51,0,232.3417459000002,,,,,,,,,,,,,,,,,,,,,,,,,,,,,,,,,,,,,,,,,,,,,,,,,,232.32546640000055,232.3417459000002,232.85840090000056,232.8253953000003,232.84041920000072,232.85840090000056,232.85840090000056,232.85840090000056,234.30878590000066,Objects\337b.jpg,post,s,1.4348103000002084,None,,,,,,,,00025,001,2025-11-10_16h04.32.749,MST_test,2024.2.2,60.00668474460773,2025-11-10 16h04.38.407261 +0530,
52,0,52,o,1.4556265999999596,None,52,0,52,0,234.3250491000008,,,,,,,,,,,,,,,,,,,,,,,,,,,,,,,,,,,,,,,,,,,,,,,,,,234.3088714000005,234.3250491000008,234.84166189999996,234.80850310000005,234.82651690000057,234.84166189999996,234.84166189999996,234.84166189999996,236.30859860000055,Objects\343b.jpg,pre,o,1.4556265999999596,None,,,,,,,,00025,001,2025-11-10_16h04.32.749,MST_test,2024.2.2,60.00668474460773,2025-11-10 16h04.38.407261 +0530,
53,0,53,s,2.5237778000000617,None,53,0,53,0,236.32499880000069,,,,,,,,,,,,,,,,,,,,,,,,,,,,,,,,,,,,,,,,,,,,,,,,,,236.30867600000056,236.32499880000069,236.84161700000004,236.80858370000078,236.83474999999999,236.84161700000004,236.84161700000004,236.84161700000004,239.37518640000053,Objects\290b.jpg,pre,s,2.5237778000000617,None,,,,,,,,00025,001,2025-11-10_16h04.32.749,MST_test,2024.2.2,60.00668474460773,2025-11-10 16h04.38.407261 +0530,
54,0,54,o,1.1571767999994336,None,54,0,54,0,239.39158300000054,,,,,,,,,,,,,,,,,,,,,,,,,,,,,,,,,,,,,,,,,,,,,,,,,,239.37526650000018,239.39158300000054,239.89157330000035,239.8750794000007,239.87930940000024,239.89157330000035,239.89157330000035,239.89157330000035,241.05847390000054,Objects\202a.jpg,mid,o,1.1571767999994336,None,,,,,,,,00025,001,2025-11-10_16h04.32.749,MST_test,2024.2.2,60.00668474460773,2025-11-10 16h04.38.407261 +0530,
55,0,55,n,1.9814164999997956,None,55,0,55,0,241.0748790000007,,,,,,,,,,,,,,,,,,,,,,,,,,,,,,,,,,,,,,,,,,,,,,,,,,241.0585557000004,241.0748790000007,241.59150070000032,241.55847859999994,241.57025560000056,241.59150070000032,241.59150070000032,241.59150070000032,243.57532700000047,Foils\033a.jpg,none,n,1.9814164999997956,None,,,,,,,,00025,001,2025-11-10_16h04.32.749,MST_test,2024.2.2,60.00668474460773,2025-11-10 16h04.38.407261 +0530,
56,0,56,s,0.9801508000000467,None,56,0,56,0,243.59152230000018,,,,,,,,,,,,,,,,,,,,,,,,,,,,,,,,,,,,,,,,,,,,,,,,,,243.57540940000035,243.59152230000018,244.09107380000023,244.0750424000007,244.08599219999996,244.09107380000023,244.09107380000023,244.09107380000023,245.07507880000048,Objects\292b.jpg,post,s,0.9801508000000467,None,,,,,,,,00025,001,2025-11-10_16h04.32.749,MST_test,2024.2.2,60.00668474460773,2025-11-10 16h04.38.407261 +0530,
57,0,57,n,2.8446970000004512,None,57,0,57,0,245.09149070000058,,,,,,,,,,,,,,,,,,,,,,,,,,,,,,,,,,,,,,,,,,,,,,,,,,245.07515970000077,245.09149070000058,245.60815320000074,245.57501910000065,245.5894627000007,245.60815320000074,245.60815320000074,245.60815320000074,248.45845970000028,Foils\f6.jpg,none,n,2.8446970000004512,None,,,,,,,,00025,001,2025-11-10_16h04.32.749,MST_test,2024.2.2,60.00668474460773,2025-11-10 16h04.38.407261 +0530,
58,0,58,s,3.2270982999998523,None,58,0,58,0,248.47472110000035,,,,,,,,,,,,,,,,,,,,,,,,,,,,,,,,,,,,,,,,,,,,,,,,,,248.45853660000012,248.47472110000035,248.97430340000028,248.9582106000007,248.9696210000002,248.97430340000028,248.97430340000028,248.97430340000028,252.20821960000012,Foils\086a.jpg,none,s,3.2270982999998523,None,,,,,,,,00025,001,2025-11-10_16h04.32.749,MST_test,2024.2.2,60.00668474460773,2025-11-10 16h04.38.407261 +0530,
59,0,59,s,1.1078224000002592,None,59,0,59,0,252.22465300000022,,,,,,,,,,,,,,,,,,,,,,,,,,,,,,,,,,,,,,,,,,,,,,,,,,252.20830210000076,252.22465300000022,252.7247008000004,252.70816770000056,252.7101201000005,252.7247008000004,252.7247008000004,252.7247008000004,253.8416390000002,Objects\192a.jpg,mid,s,1.1078224000002592,None,,,,,,,,00025,001,2025-11-10_16h04.32.749,MST_test,2024.2.2,60.00668474460773,2025-11-10 16h04.38.407261 +0530,
60,0,60,n,1.2654206000006525,None,60,0,60,0,253.85793990000002,,,,,,,,,,,,,,,,,,,,,,,,,,,,,,,,,,,,,,,,,,,,,,,,,,253.8417186000006,253.85793990000002,254.35789210000075,254.3414999000006,254.34949940000024,254.35789210000075,254.35789210000075,254.35789210000075,255.62492700000075,Foils\101b.jpg,none,n,1.2654206000006525,None,,,,,,,,00025,001,2025-11-10_16h04.32.749,MST_test,2024.2.2,60.00668474460773,2025-11-10 16h04.38.407261 +0530,
61,0,61,s,1.3105873999993491,None,61,0,61,0,255.64123370000016,,,,,,,,,,,,,,,,,,,,,,,,,,,,,,,,,,,,,,,,,,,,,,,,,,255.62501620000057,255.64123370000016,256.1579083000006,256.12478790000023,256.1435132000006,256.1579083000006,256.1579083000006,256.1579083000006,257.47487530000035,Objects\293b.jpg,post,s,1.3105873999993491,None,,,,,,,,00025,001,2025-11-10_16h04.32.749,MST_test,2024.2.2,60.00668474460773,2025-11-10 16h04.38.407261 +0530,
62,0,62,s,3.0122009000006074,None,62,0,62,0,257.49115770000026,,,,,,,,,,,,,,,,,,,,,,,,,,,,,,,,,,,,,,,,,,,,,,,,,,257.47495380000055,257.49115770000026,257.9911550000006,257.97465340000053,257.9797023000001,257.9911550000006,257.9911550000006,257.9911550000006,261.0080889000001,Objects\011a.jpg,post,s,3.0122009000006074,None,,,,,,,,00025,001,2025-11-10_16h04.32.749,MST_test,2024.2.2,60.00668474460773,2025-11-10 16h04.38.407261 +0530,
63,0,63,s,2.154085500000292,None,63,0,63,0,261.02445549999993,,,,,,,,,,,,,,,,,,,,,,,,,,,,,,,,,,,,,,,,,,,,,,,,,,261.0081813000006,261.02445549999993,261.5244532000006,261.5079071,261.5129669000007,261.5244532000006,261.5244532000006,261.5244532000006,263.6914484000008,Objects\355a.jpg,post,s,2.154085500000292,None,,,,,,,,00025,001,2025-11-10_16h04.32.749,MST_test,2024.2.2,60.00668474460773,2025-11-10 16h04.38.407261 +0530,
64,0,64,o,2.682969599999524,None,64,0,64,0,263.70769139999993,,,,,,,,,,,,,,,,,,,,,,,,,,,,,,,,,,,,,,,,,,,,,,,,,,263.6915288,263.70769139999993,264.2243903000008,264.1912233000003,264.2179332000005,264.2243903000008,264.2243903000008,264.2243903000008,266.9079448000002,Objects\054b.jpg,mid,o,2.682969599999524,None,,,,,,,,00025,001,2025-11-10_16h04.32.749,MST_test,2024.2.2,60.00668474460773,2025-11-10 16h04.38.407261 +0530,
65,0,65,s,1.7545473999998649,None,65,0,65,0,266.92433230000006,,,,,,,,,,,,,,,,,,,,,,,,,,,,,,,,,,,,,,,,,,,,,,,,,,266.9080341000008,266.92433230000006,267.42432009999993,267.4078300000001,267.40987680000035,267.42432009999993,267.42432009999993,267.42432009999993,269.19120550000025,Objects\148a.jpg,post,s,1.7545473999998649,None,,,,,,,,00025,001,2025-11-10_16h04.32.749,MST_test,2024.2.2,60.00668474460773,2025-11-10 16h04.38.407261 +0530,
66,0,66,o,1.168975099999443,None,66,0,66,0,269.2076425000005,,,,,,,,,,,,,,,,,,,,,,,,,,,,,,,,,,,,,,,,,,,,,,,,,,269.19128249999994,269.2076425000005,269.72430070000064,269.69115970000075,269.7065695000001,269.72430070000064,269.72430070000064,269.72430070000064,270.90793680000024,Objects\195b.jpg,post,o,1.168975099999443,None,,,,,,,,00025,001,2025-11-10_16h04.32.749,MST_test,2024.2.2,60.00668474460773,2025-11-10 16h04.38.407261 +0530,
67,0,67,o,1.3767816999998104,None,67,0,67,0,270.9242086000004,,,,,,,,,,,,,,,,,,,,,,,,,,,,,,,,,,,,,,,,,,,,,,,,,,270.9080227000004,270.9242086000004,271.42418570000063,271.4077625,271.4127070000004,271.42418570000063,271.42418570000063,271.42418570000063,272.8078090000008,Objects\265a.jpg,post,o,1.3767816999998104,None,,,,,,,,00025,001,2025-11-10_16h04.32.749,MST_test,2024.2.2,60.00668474460773,2025-11-10 16h04.38.407261 +0530,
68,0,68,o,0.9581916999995883,None,68,0,68,0,272.82417930000065,,,,,,,,,,,,,,,,,,,,,,,,,,,,,,,,,,,,,,,,,,,,,,,,,,272.80788680000023,272.82417930000065,273.3408405,273.3077860000003,273.32449160000033,273.3408405,273.3408405,273.3408405,274.3079179000006,Objects\309b.jpg,mid,o,0.9581916999995883,None,,,,,,,,00025,001,2025-11-10_16h04.32.749,MST_test,2024.2.2,60.00668474460773,2025-11-10 16h04.38.407261 +0530,
69,0,69,s,1.5004904999996143,None,69,0,69,0,274.32413240000005,,,,,,,,,,,,,,,,,,,,,,,,,,,,,,,,,,,,,,,,,,,,,,,,,,274.3079953000006,274.32413240000005,274.82414140000037,274.80764270000054,274.8127591000002,274.82414140000037,274.82414140000037,274.82414140000037,276.3410365,Objects\138a.jpg,post,s,1.5004904999996143,None,,,,,,,,00025,001,2025-11-10_16h04.32.749,MST_test,2024.2.2,60.00668474460773,2025-11-10 16h04.38.407261 +0530,
70,0,70,s,1.340923599999769,None,70,0,70,0,276.3574428000002,,,,,,,,,,,,,,,,,,,,,,,,,,,,,,,,,,,,,,,,,,,,,,,,,,276.3411128000007,276.3574428000002,276.87407170000006,276.84093630000007,276.8570901000003,276.87407170000006,276.87407170000006,276.87407170000006,278.22442840000076,Objects\332b.jpg,post,s,1.340923599999769,None,,,,,,,,00025,001,2025-11-10_16h04.32.749,MST_test,2024.2.2,60.00668474460773,2025-11-10 16h04.38.407261 +0530,
71,0,71,o,1.7172685000005004,None,71,0,71,0,278.24077579999994,,,,,,,,,,,,,,,,,,,,,,,,,,,,,,,,,,,,,,,,,,,,,,,,,,278.22451,278.24077579999994,278.77407570000014,278.72418910000033,278.7291606000008,278.77407570000014,278.77407570000014,278.77407570000014,280.5076532000003,Objects\112a.jpg,post,o,1.7172685000005004,None,,,,,,,,00025,001,2025-11-10_16h04.32.749,MST_test,2024.2.2,60.00668474460773,2025-11-10 16h04.38.407261 +0530,
72,0,72,n,1.1671828000007736,None,72,0,72,0,280.52401960000043,,,,,,,,,,,,,,,,,,,,,,,,,,,,,,,,,,,,,,,,,,,,,,,,,,280.50773389999995,280.52401960000043,281.0239762000001,281.0076093000007,281.0150981000006,281.0239762000001,281.0239762000001,281.0239762000001,282.2075940000004,Foils\106a.jpg,none,n,1.1671828000007736,None,,,,,,,,00025,001,2025-11-10_16h04.32.749,MST_test,2024.2.2,60.00668474460773,2025-11-10 16h04.38.407261 +0530,
73,0,73,s,3.0650868000002447,None,73,0,73,0,282.2239902000001,,,,,,,,,,,,,,,,,,,,,,,,,,,,,,,,,,,,,,,,,,,,,,,,,,282.2076790000001,282.2239902000001,282.72393770000053,282.7074945000004,282.71511250000003,282.72393770000053,282.72393770000053,282.72393770000053,285.7909357000008,Foils\042a.jpg,none,s,3.0650868000002447,None,,,,,,,,00025,001,2025-11-10_16h04.32.749,MST_test,2024.2.2,60.00668474460773,2025-11-10 16h04.38.407261 +0530,
74,0,74,n,1.675969100000657,None,74,0,74,0,285.80727879999995,,,,,,,,,,,,,,,,,,,,,,,,,,,,,,,,,,,,,,,,,,,,,,,,,,285.79102260000036,285.80727879999995,286.30720330000077,286.2908187000003,286.29864309999994,286.30720330000077,286.30720330000077,286.30720330000077,287.99085860000014,Foils\057a.jpg,none,n,1.675969100000657,None,,,,,,,,00025,001,2025-11-10_16h04.32.749,MST_test,2024.2.2,60.00668474460773,2025-11-10 16h04.38.407261 +0530,
75,0,75,o,1.9365213999999469,None,75,0,75,0,288.00720490000003,,,,,,,,,,,,,,,,,,,,,,,,,,,,,,,,,,,,,,,,,,,,,,,,,,287.99094910000076,288.00720490000003,288.50715500000024,288.4906656000003,288.49256289999994,288.50715500000024,288.50715500000024,288.50715500000024,290.4575497000005,Objects\087a.jpg,post,o,1.9365213999999469,None,,,,,,,,00025,001,2025-11-10_16h04.32.749,MST_test,2024.2.2,60.00668474460773,2025-11-10 16h04.38.407261 +0530,
76,0,76,s,1.428273999999874,None,76,0,76,0,290.47384240000065,,,,,,,,,,,,,,,,,,,,,,,,,,,,,,,,,,,,,,,,,,,,,,,,,,290.45762809999997,290.47384240000065,290.99042670000017,290.95729180000035,290.9757268000003,290.99042670000017,290.99042670000017,290.99042670000017,292.42402240000047,Objects\083b.jpg,mid,s,1.428273999999874,None,,,,,,,,00025,001,2025-11-10_16h04.32.749,MST_test,2024.2.2,60.00668474460773,2025-11-10 16h04.38.407261 +0530,
77,0,77,s,1.1617090999998254,None,77,0,77,0,292.4404306000006,,,,,,,,,,,,,,,,,,,,,,,,,,,,,,,,,,,,,,,,,,,,,,,,,,292.4240976000001,292.4404306000006,292.95706659999996,292.92392689999997,292.94149600000037,292.95706659999996,292.95706659999996,292.95706659999996,294.1239929000003,Objects\123b.jpg,mid,s,1.1617090999998254,None,,,,,,,,00025,001,2025-11-10_16h04.32.749,MST_test,2024.2.2,60.00668474460773,2025-11-10 16h04.38.407261 +0530,
78,0,78,s,3.61672069999986,None,78,0,78,0,294.14035950000016,,,,,,,,,,,,,,,,,,,,,,,,,,,,,,,,,,,,,,,,,,,,,,,,,,294.1240645000007,294.14035950000016,294.6403523000008,294.62388980000014,294.6260637000005,294.6403523000008,294.6403523000008,294.6403523000008,298.2738881000005,Objects\072a.jpg,post,s,3.61672069999986,None,,,,,,,,00025,001,2025-11-10_16h04.32.749,MST_test,2024.2.2,60.00668474460773,2025-11-10 16h04.38.407261 +0530,
79,0,79,n,1.3108036999992692,None,79,0,79,0,298.2903283000005,,,,,,,,,,,,,,,,,,,,,,,,,,,,,,,,,,,,,,,,,,,,,,,,,,298.2739623000007,298.2903283000005,298.79026520000025,298.7738870000003,298.78279770000063,298.79026520000025,298.79026520000025,298.79026520000025,300.10732499999995,Foils\034a.jpg,none,n,1.3108036999992692,None,,,,,,,,00025,001,2025-11-10_16h04.32.749,MST_test,2024.2.2,60.00668474460773,2025-11-10 16h04.38.407261 +0530,
80,0,80,s,1.1534578000000693,None,80,0,80,0,300.1235824000005,,,,,,,,,,,,,,,,,,,,,,,,,,,,,,,,,,,,,,,,,,,,,,,,,,300.1074100000005,300.1235824000005,300.6235482000002,300.6070685000004,300.61551730000065,300.6235482000002,300.6235482000002,300.6235482000002,301.79057060000014,Objects\035b.jpg,mid,s,1.1534578000000693,None,,,,,,,,00025,001,2025-11-10_16h04.32.749,MST_test,2024.2.2,60.00668474460773,2025-11-10 16h04.38.407261 +0530,
81,0,81,o,2.2118381999998746,None,81,0,81,0,301.8069172000005,,,,,,,,,,,,,,,,,,,,,,,,,,,,,,,,,,,,,,,,,,,,,,,,,,301.7906582000005,301.8069172000005,302.3068634000001,302.2904144000004,302.29468330000054,302.3068634000001,302.3068634000001,302.3068634000001,304.52387739999995,Objects\262a.jpg,pre,o,2.2118381999998746,None,,,,,,,,00025,001,2025-11-10_16h04.32.749,MST_test,2024.2.2,60.00668474460773,2025-11-10 16h04.38.407261 +0530,
82,0,82,o,1.0289877000004708,None,82,0,82,0,304.54013340000074,,,,,,,,,,,,,,,,,,,,,,,,,,,,,,,,,,,,,,,,,,,,,,,,,,304.5239573000008,304.54013340000074,305.04011640000044,305.0236771,305.03013809999993,305.04011640000044,305.04011640000044,305.04011640000044,306.0738110000002,Objects\203a.jpg,mid,o,1.0289877000004708,None,,,,,,,,00025,001,2025-11-10_16h04.32.749,MST_test,2024.2.2,60.00668474460773,2025-11-10 16h04.38.407261 +0530,
83,0,83,s,2.59826350000003,None,83,0,83,0,306.09015120000004,,,,,,,,,,,,,,,,,,,,,,,,,,,,,,,,,,,,,,,,,,,,,,,,,,306.0738923000008,306.09015120000004,306.60682410000027,306.5736024000007,306.5926595000001,306.60682410000027,306.60682410000027,306.60682410000027,309.20708190000005,Objects\260b.jpg,pre,s,2.59826350000003,None,,,,,,,,00025,001,2025-11-10_16h04.32.749,MST_test,2024.2.2,60.00668474460773,2025-11-10 16h04.38.407261 +0530,
84,0,84,o,1.1417876999994405,None,84,0,84,0,309.22339550000015,,,,,,,,,,,,,,,,,,,,,,,,,,,,,,,,,,,,,,,,,,,,,,,,,,309.2071573000003,309.22339550000015,309.7233464000001,309.7069225000005,309.71194210000067,309.7233464000001,309.7233464000001,309.7233464000001,310.8736761,Objects\246a.jpg,post,o,1.1417876999994405,None,,,,,,,,00025,001,2025-11-10_16h04.32.749,MST_test,2024.2.2,60.00668474460773,2025-11-10 16h04.38.407261 +0530,
85,0,85,o,1.0377975000001243,None,85,0,85,0,310.8899953,,,,,,,,,,,,,,,,,,,,,,,,,,,,,,,,,,,,,,,,,,,,,,,,,,310.87375410000004,310.8899953,311.39002830000027,311.3736337,311.3754288,311.39002830000027,311.39002830000027,311.39002830000027,312.44037090000074,Objects\001a.jpg,mid,o,1.0377975000001243,None,,,,,,,,00025,001,2025-11-10_16h04.32.749,MST_test,2024.2.2,60.00668474460773,2025-11-10 16h04.38.407261 +0530,
86,0,86,o,1.0965150000001813,None,86,0,86,0,312.4566837000002,,,,,,,,,,,,,,,,,,,,,,,,,,,,,,,,,,,,,,,,,,,,,,,,,,312.4404426000001,312.4566837000002,312.95661030000065,312.94025390000024,312.9422192000002,312.95661030000065,312.95661030000065,312.95661030000065,314.0570512000004,Objects\156a.jpg,mid,o,1.0965150000001813,None,,,,,,,,00025,001,2025-11-10_16h04.32.749,MST_test,2024.2.2,60.00668474460773,2025-11-10 16h04.38.407261 +0530,
87,0,87,s,3.7196594999995796,None,87,0,87,0,314.07328250000046,,,,,,,,,,,,,,,,,,,,,,,,,,,,,,,,,,,,,,,,,,,,,,,,,,314.05712440000025,314.07328250000046,314.57326040000044,314.55675710000014,314.5648174000007,314.57326040000044,314.57326040000044,314.57326040000044,318.30688780000037,Objects\132b.jpg,pre,s,3.7196594999995796,None,,,,,,,,00025,001,2025-11-10_16h04.32.749,MST_test,2024.2.2,60.00668474460773,2025-11-10 16h04.38.407261 +0530,
88,0,88,o,1.0616532000003644,None,88,0,88,0,318.32319890000053,,,,,,,,,,,,,,,,,,,,,,,,,,,,,,,,,,,,,,,,,,,,,,,,,,318.30697430000055,318.32319890000053,318.8231529000004,318.8066682000008,318.8086733,318.8231529000004,318.8231529000004,318.8231529000004,319.89020040000014,Objects\170a.jpg,post,o,1.0616532000003644,None,,,,,,,,00025,001,2025-11-10_16h04.32.749,MST_test,2024.2.2,60.00668474460773,2025-11-10 16h04.38.407261 +0530,
89,0,89,o,0.9242529000002833,None,89,0,89,0,319.90650600000026,,,,,,,,,,,,,,,,,,,,,,,,,,,,,,,,,,,,,,,,,,,,,,,,,,319.89027650000025,319.90650600000026,320.4065077000005,320.39005610000004,320.3953179,320.4065077000005,320.4065077000005,320.4065077000005,321.34025500000007,Objects\267a.jpg,mid,o,0.9242529000002833,None,,,,,,,,00025,001,2025-11-10_16h04.32.749,MST_test,2024.2.2,60.00668474460773,2025-11-10 16h04.38.407261 +0530,
90,0,90,s,0.9647206999998161,None,90,0,90,0,321.3564591000004,,,,,,,,,,,,,,,,,,,,,,,,,,,,,,,,,,,,,,,,,,,,,,,,,,321.34033140000065,321.3564591000004,321.8564255000001,321.83997480000016,321.8510679000001,321.8564255000001,321.8564255000001,321.8564255000001,322.82351370000015,Foils\098a.jpg,none,s,0.9647206999998161,None,,,,,,,,00025,001,2025-11-10_16h04.32.749,MST_test,2024.2.2,60.00668474460773,2025-11-10 16h04.38.407261 +0530,
91,0,91,n,1.8846342999995613,None,91,0,91,0,322.8397575000008,,,,,,,,,,,,,,,,,,,,,,,,,,,,,,,,,,,,,,,,,,,,,,,,,,322.82359480000014,322.8397575000008,323.3397530000002,323.3234538000006,323.33109310000054,323.3397530000002,323.3397530000002,323.3397530000002,325.2399821000008,Foils\121a.jpg,none,n,1.8846342999995613,None,,,,,,,,00025,001,2025-11-10_16h04.32.749,MST_test,2024.2.2,60.00668474460773,2025-11-10 16h04.38.407261 +0530,
92,0,92,n,2.064317399999709,None,92,0,92,0,325.25638290000006,,,,,,,,,,,,,,,,,,,,,,,,,,,,,,,,,,,,,,,,,,,,,,,,,,325.24006370000006,325.25638290000006,325.77300040000046,325.7398802000007,325.7655773000006,325.77300040000046,325.77300040000046,325.77300040000046,327.84007700000075,Objects\194b.jpg,post,n,2.064317399999709,None,,,,,,,,00025,001,2025-11-10_16h04.32.749,MST_test,2024.2.2,60.00668474460773,2025-11-10 16h04.38.407261 +0530,
93,0,93,s,1.4179470999997648,None,93,0,93,0,327.85631360000025,,,,,,,,,,,,,,,,,,,,,,,,,,,,,,,,,,,,,,,,,,,,,,,,,,327.84015810000074,327.85631360000025,328.3729608000003,328.33994410000014,328.35839209999995,328.3729608000003,328.3729608000003,328.3729608000003,329.80654649999997,Objects\048b.jpg,mid,s,1.4179470999997648,None,,,,,,,,00025,001,2025-11-10_16h04.32.749,MST_test,2024.2.2,60.00668474460773,2025-11-10 16h04.38.407261 +0530,
94,0,94,s,2.4623584999999366,None,94,0,94,0,329.8229444000008,,,,,,,,,,,,,,,,,,,,,,,,,,,,,,,,,,,,,,,,,,,,,,,,,,329.8066348000002,329.8229444000008,330.3229353000006,330.30639539999993,330.30831000000035,330.3229353000006,330.3229353000006,330.3229353000006,332.7901195000004,Objects\223a.jpg,post,s,2.4623584999999366,None,,,,,,,,00025,001,2025-11-10_16h04.32.749,MST_test,2024.2.2,60.00668474460773,2025-11-10 16h04.38.407261 +0530,
95,0,95,s,1.974855899999966,None,95,0,95,0,332.8062935000007,,,,,,,,,,,,,,,,,,,,,,,,,,,,,,,,,,,,,,,,,,,,,,,,,,332.79020710000077,332.8062935000007,333.3061591000005,333.2897130000001,333.2916249,333.3061591000005,333.3061591000005,333.3061591000005,335.28978860000007,Objects\165a.jpg,pre,s,1.974855899999966,None,,,,,,,,00025,001,2025-11-10_16h04.32.749,MST_test,2024.2.2,60.00668474460773,2025-11-10 16h04.38.407261 +0530,
96,0,96,s,2.0000188999993043,None,96,0,96,0,335.3061740000003,,,,,,,,,,,,,,,,,,,,,,,,,,,,,,,,,,,,,,,,,,,,,,,,,,335.2898655000008,335.3061740000003,335.8061127000001,335.78964070000075,335.79186540000046,335.8061127000001,335.8061127000001,335.8061127000001,337.8066185000007,Objects\024a.jpg,post,s,2.0000188999993043,None,,,,,,,,00025,001,2025-11-10_16h04.32.749,MST_test,2024.2.2,60.00668474460773,2025-11-10 16h04.38.407261 +0530,
97,0,97,o,0.99548649999997,None,97,0,97,0,337.8227646000005,,,,,,,,,,,,,,,,,,,,,,,,,,,,,,,,,,,,,,,,,,,,,,,,,,337.8067008000007,337.8227646000005,338.3394136000006,338.3062645,338.3243086000002,338.3394136000006,338.3394136000006,338.3394136000006,339.33980210000027,Objects\032b.jpg,mid,o,0.99548649999997,None,,,,,,,,00025,001,2025-11-10_16h04.32.749,MST_test,2024.2.2,60.00668474460773,2025-11-10 16h04.38.407261 +0530,
98,0,98,s,2.953637599999638,None,98,0,98,0,339.3560739000004,,,,,,,,,,,,,,,,,,,,,,,,,,,,,,,,,,,,,,,,,,,,,,,,,,339.33987960000013,339.3560739000004,339.8560473000007,339.83957510000073,339.84708279999995,339.8560473000007,339.8560473000007,339.8560473000007,342.82308850000027,Foils\073a.jpg,none,s,2.953637599999638,None,,,,,,,,00025,001,2025-11-10_16h04.32.749,MST_test,2024.2.2,60.00668474460773,2025-11-10 16h04.38.407261 +0530,
99,0,99,n,1.3862358999995195,None,99,0,99,0,342.8393797000008,,,,,,,,,,,,,,,,,,,,,,,,,,,,,,,,,,,,,,,,,,,,,,,,,,342.82317090000015,342.8393797000008,343.33928170000036,343.3227874000004,343.3307713000004,343.33928170000036,343.33928170000036,343.33928170000036,344.739638,Objects\369b.jpg,pre,n,1.3862358999995195,None,,,,,,,,00025,001,2025-11-10_16h04.32.749,MST_test,2024.2.2,60.00668474460773,2025-11-10 16h04.38.407261 +0530,
100,0,100,n,3.945926500000496,None,100,0,100,0,344.75594720000026,,,,,,,,,,,,,,,,,,,,,,,,,,,,,,,,,,,,,,,,,,,,,,,,,,344.7397228,344.75594720000026,345.2726325000003,345.2395232000008,345.2560775000002,345.2726325000003,345.2726325000003,345.2726325000003,349.22282880000057,Objects\124b.jpg,post,n,3.945926500000496,None,,,,,,,,00025,001,2025-11-10_16h04.32.749,MST_test,2024.2.2,60.00668474460773,2025-11-10 16h04.38.407261 +0530,
101,0,101,s,0.9649531000004572,None,101,0,101,0,349.23915380000017,,,,,,,,,,,,,,,,,,,,,,,,,,,,,,,,,,,,,,,,,,,,,,,,,,349.2229061000007,349.23915380000017,349.7558219000002,349.7226547,349.74277770000026,349.7558219000002,349.7558219000002,349.7558219000002,350.7227541000002,Objects\380b.jpg,pre,s,0.9649531000004572,None,,,,,,,,00025,001,2025-11-10_16h04.32.749,MST_test,2024.2.2,60.00668474460773,2025-11-10 16h04.38.407261 +0530,
102,0,102,s,1.2993301000005886,None,102,0,102,0,350.73912050000035,,,,,,,,,,,,,,,,,,,,,,,,,,,,,,,,,,,,,,,,,,,,,,,,,,350.7228273999999,350.73912050000035,351.2391079000008,351.2226005000002,351.2329019000008,351.2391079000008,351.2391079000008,351.2391079000008,352.5394268,Objects\373b.jpg,post,s,1.2993301000005886,None,,,,,,,,00025,001,2025-11-10_16h04.32.749,MST_test,2024.2.2,60.00668474460773,2025-11-10 16h04.38.407261 +0530,
103,0,103,n,1.1585774000004676,None,103,0,103,0,352.55574720000004,,,,,,,,,,,,,,,,,,,,,,,,,,,,,,,,,,,,,,,,,,,,,,,,,,352.5395171,352.55574720000004,353.0553496000002,353.0394509000007,353.0506802,353.0553496000002,353.0553496000002,353.0553496000002,354.22280709999995,Foils\105a.jpg,none,n,1.1585774000004676,None,,,,,,,,00025,001,2025-11-10_16h04.32.749,MST_test,2024.2.2,60.00668474460773,2025-11-10 16h04.38.407261 +0530,
104,0,104,s,1.4563318000000436,None,104,0,104,0,354.23907080000026,,,,,,,,,,,,,,,,,,,,,,,,,,,,,,,,,,,,,,,,,,,,,,,,,,354.2228932000007,354.23907080000026,354.7723663000006,354.72261570000046,354.7530353000002,354.7723663000006,354.7723663000006,354.7723663000006,356.2393288000003,Objects\377b.jpg,post,s,1.4563318000000436,None,,,,,,,,00025,001,2025-11-10_16h04.32.749,MST_test,2024.2.2,60.00668474460773,2025-11-10 16h04.38.407261 +0530,
105,0,105,s,1.7140896000000794,None,105,0,105,0,356.25571880000007,,,,,,,,,,,,,,,,,,,,,,,,,,,,,,,,,,,,,,,,,,,,,,,,,,356.23941490000016,356.25571880000007,356.77233440000055,356.73931059999995,356.7572084000003,356.77233440000055,356.77233440000055,356.77233440000055,358.4892841000001,Objects\168b.jpg,post,s,1.7140896000000794,None,,,,,,,,00025,001,2025-11-10_16h04.32.749,MST_test,2024.2.2,60.00668474460773,2025-11-10 16h04.38.407261 +0530,
106,0,106,n,1.7329329999993206,None,106,0,106,0,358.5056568,,,,,,,,,,,,,,,,,,,,,,,,,,,,,,,,,,,,,,,,,,,,,,,,,,358.4893611000007,358.5056568,359.0056441000006,358.98911990000033,358.99908740000046,359.0056441000006,359.0056441000006,359.0056441000006,360.7392540999999,Foils\002a.jpg,none,n,1.7329329999993206,None,,,,,,,,00025,001,2025-11-10_16h04.32.749,MST_test,2024.2.2,60.00668474460773,2025-11-10 16h04.38.407261 +0530,
107,0,107,n,1.2282427000000098,None,107,0,107,0,360.7555673000006,,,,,,,,,,,,,,,,,,,,,,,,,,,,,,,,,,,,,,,,,,,,,,,,,,360.73933810000017,360.7555673000006,361.2722222000002,361.2390834000007,361.2623170000006,361.2722222000002,361.2722222000002,361.2722222000002,362.5059136,Foils\f5.jpg,none,n,1.2282427000000098,None,,,,,,,,00025,001,2025-11-10_16h04.32.749,MST_test,2024.2.2,60.00668474460773,2025-11-10 16h04.38.407261 +0530,
108,0,108,s,1.0331441999996969,None,108,0,108,0,362.5222231000007,,,,,,,,,,,,,,,,,,,,,,,,,,,,,,,,,,,,,,,,,,,,,,,,,,362.5059957000003,362.5222231000007,363.02218170000015,363.00570810000045,363.0108095000005,363.02218170000015,363.02218170000015,363.02218170000015,364.0559658000002,Objects\180a.jpg,mid,s,1.0331441999996969,None,,,,,,,,00025,001,2025-11-10_16h04.32.749,MST_test,2024.2.2,60.00668474460773,2025-11-10 16h04.38.407261 +0530,
109,0,109,s,1.095396100000471,None,109,0,109,0,364.07215950000045,,,,,,,,,,,,,,,,,,,,,,,,,,,,,,,,,,,,,,,,,,,,,,,,,,364.0560576000007,364.07215950000045,364.58891050000057,364.5557529000007,364.57169560000057,364.58891050000057,364.58891050000057,364.58891050000057,365.6892663000008,Objects\022b.jpg,post,s,1.095396100000471,None,,,,,,,,00025,001,2025-11-10_16h04.32.749,MST_test,2024.2.2,60.00668474460773,2025-11-10 16h04.38.407261 +0530,
110,0,110,o,0.8172949999998309,None,110,0,110,0,365.7054842000007,,,,,,,,,,,,,,,,,,,,,,,,,,,,,,,,,,,,,,,,,,,,,,,,,,365.68935320000037,365.7054842000007,366.2054482000003,366.18899560000045,366.1934486,366.2054482000003,366.2054482000003,366.2054482000003,367.03906840000036,Objects\258a.jpg,pre,o,0.8172949999998309,None,,,,,,,,00025,001,2025-11-10_16h04.32.749,MST_test,2024.2.2,60.00668474460773,2025-11-10 16h04.38.407261 +0530,
111,0,111,o,1.4531776999992871,None,111,0,111,0,367.05545750000056,,,,,,,,,,,,,,,,,,,,,,,,,,,,,,,,,,,,,,,,,,,,,,,,,,367.03914280000026,367.05545750000056,367.55541560000074,367.5390933000008,367.5444399000007,367.55541560000074,367.55541560000074,367.55541560000074,369.02240660000007,Objects\193a.jpg,pre,o,1.4531776999992871,None,,,,,,,,00025,001,2025-11-10_16h04.32.749,MST_test,2024.2.2,60.00668474460773,2025-11-10 16h04.38.407261 +0530,
112,0,112,o,0.9885460999994393,None,112,0,112,0,369.0387748000003,,,,,,,,,,,,,,,,,,,,,,,,,,,,,,,,,,,,,,,,,,,,,,,,,,369.0224837000005,369.0387748000003,369.5387060000003,369.5222110000004,369.5241136000004,369.5387060000003,369.5387060000003,369.5387060000003,370.5389834000007,Objects\063a.jpg,pre,o,0.9885460999994393,None,,,,,,,,00025,001,2025-11-10_16h04.32.749,MST_test,2024.2.2,60.00668474460773,2025-11-10 16h04.38.407261 +0530,
113,0,113,s,0.8456040999999459,None,113,0,113,0,370.5553763000007,,,,,,,,,,,,,,,,,,,,,,,,,,,,,,,,,,,,,,,,,,,,,,,,,,370.5390700000007,370.5553763000007,371.0553411000001,371.0388732000001,371.04101680000076,371.0553411000001,371.0553411000001,371.0553411000001,371.9056694000001,Objects\159a.jpg,post,s,0.8456040999999459,None,,,,,,,,00025,001,2025-11-10_16h04.32.749,MST_test,2024.2.2,60.00668474460773,2025-11-10 16h04.38.407261 +0530,
114,0,114,s,0.8060545000007551,None,114,0,114,0,371.92204240000046,,,,,,,,,,,,,,,,,,,,,,,,,,,,,,,,,,,,,,,,,,,,,,,,,,371.9057395,371.92204240000046,372.4387348,372.40552449999996,372.4291509000004,372.4387348,372.4387348,372.4387348,373.25559350000003,Objects\085b.jpg,pre,s,0.8060545000007551,None,,,,,,,,00025,001,2025-11-10_16h04.32.749,MST_test,2024.2.2,60.00668474460773,2025-11-10 16h04.38.407261 +0530,
115,0,115,s,2.7614629999998215,None,115,0,115,0,373.2720222000007,,,,,,,,,,,,,,,,,,,,,,,,,,,,,,,,,,,,,,,,,,,,,,,,,,373.2556787000003,373.2720222000007,373.7719481000004,373.75546980000036,373.7574058,373.7719481000004,373.7719481000004,373.7719481000004,376.53886800000055,Objects\133a.jpg,post,s,2.7614629999998215,None,,,,,,,,00025,001,2025-11-10_16h04.32.749,MST_test,2024.2.2,60.00668474460773,2025-11-10 16h04.38.407261 +0530,
116,0,116,o,2.267145800000435,None,116,0,116,0,376.55525790000047,,,,,,,,,,,,,,,,,,,,,,,,,,,,,,,,,,,,,,,,,,,,,,,,,,376.5389556,376.55525790000047,377.05522980000023,377.0389030000006,377.04105620000064,377.05522980000023,377.05522980000023,377.05522980000023,379.33882130000075,Objects\088a.jpg,pre,o,2.267145800000435,None,,,,,,,,00025,001,2025-11-10_16h04.32.749,MST_test,2024.2.2,60.00668474460773,2025-11-10 16h04.38.407261 +0530,
117,0,117,o,2.7299464999996417,None,117,0,117,0,379.35519550000026,,,,,,,,,,,,,,,,,,,,,,,,,,,,,,,,,,,,,,,,,,,,,,,,,,379.33889830000044,379.35519550000026,379.8551516000007,379.8387442000003,379.84123380000074,379.8551516000007,379.8551516000007,379.8551516000007,382.58883830000013,Objects\242a.jpg,mid,o,2.7299464999996417,None,,,,,,,,00025,001,2025-11-10_16h04.32.749,MST_test,2024.2.2,60.00668474460773,2025-11-10 16h04.38.407261 +0530,
118,0,118,s,0.9979812999999922,None,118,0,118,0,382.6051172000007,,,,,,,,,,,,,,,,,,,,,,,,,,,,,,,,,,,,,,,,,,,,,,,,,,382.5889208000008,382.6051172000007,383.1051002000004,383.08855720000065,383.0962163000004,383.1051002000004,383.1051002000004,383.1051002000004,384.1055133,Foils\018a.jpg,none,s,0.9979812999999922,None,,,,,,,,00025,001,2025-11-10_16h04.32.749,MST_test,2024.2.2,60.00668474460773,2025-11-10 16h04.38.407261 +0530,
119,0,119,s,1.0949132000005193,None,119,0,119,0,384.1217508,,,,,,,,,,,,,,,,,,,,,,,,,,,,,,,,,,,,,,,,,,,,,,,,,,384.1055888000001,384.1217508,384.6217712000007,384.6052419000007,384.61169450000034,384.6217712000007,384.6217712000007,384.6217712000007,385.72210710000036,Objects\248a.jpg,mid,s,1.0949132000005193,None,,,,,,,,00025,001,2025-11-10_16h04.32.749,MST_test,2024.2.2,60.00668474460773,2025-11-10 16h04.38.407261 +0530,
120,0,120,s,1.6227429000000484,None,120,0,120,0,385.73837960000037,,,,,,,,,,,,,,,,,,,,,,,,,,,,,,,,,,,,,,,,,,,,,,,,,,385.7221915,385.73837960000037,386.23828950000006,386.22187080000003,386.2327498000004,386.23828950000006,386.23828950000006,386.23828950000006,387.87212760000057,Foils\066a.jpg,none,s,1.6227429000000484,None,,,,,,,,00025,001,2025-11-10_16h04.32.749,MST_test,2024.2.2,60.00668474460773,2025-11-10 16h04.38.407261 +0530,
121,0,121,n,1.6143423000003168,None,121,0,121,0,387.8883379000008,,,,,,,,,,,,,,,,,,,,,,,,,,,,,,,,,,,,,,,,,,,,,,,,,,387.87220940000043,387.8883379000008,388.3883022,388.3719032000008,388.3794491000008,388.3883022,388.3883022,388.3883022,390.0054697000005,Foils\113a.jpg,none,n,1.6143423000003168,None,,,,,,,,00025,001,2025-11-10_16h04.32.749,MST_test,2024.2.2,60.00668474460773,2025-11-10 16h04.38.407261 +0530,
122,0,122,o,3.8363200000003417,None,122,0,122,0,390.0216259000008,,,,,,,,,,,,,,,,,,,,,,,,,,,,,,,,,,,,,,,,,,,,,,,,,,390.00555860000077,390.0216259000008,390.52161680000063,390.50511840000036,390.51073890000043,390.52161680000063,390.52161680000063,390.52161680000063,394.3719991000007,Objects\327a.jpg,pre,o,3.8363200000003417,None,,,,,,,,00025,001,2025-11-10_16h04.32.749,MST_test,2024.2.2,60.00668474460773,2025-11-10 16h04.38.407261 +0530,
123,0,123,o,1.4799960000000283,None,123,0,123,0,394.38822810000056,,,,,,,,,,,,,,,,,,,,,,,,,,,,,,,,,,,,,,,,,,,,,,,,,,394.3720882000007,394.38822810000056,394.90481400000044,394.87170890000016,394.8987670000006,394.90481400000044,394.90481400000044,394.90481400000044,396.3883940000005,Objects\144b.jpg,mid,o,1.4799960000000283,None,,,,,,,,00025,001,2025-11-10_16h04.32.749,MST_test,2024.2.2,60.00668474460773,2025-11-10 16h04.38.407261 +0530,
124,0,124,o,0.9743251999998392,None,124,0,124,0,396.4048478000004,,,,,,,,,,,,,,,,,,,,,,,,,,,,,,,,,,,,,,,,,,,,,,,,,,396.38847350000015,396.4048478000004,396.90477570000076,396.88838470000064,396.8938063000005,396.90477570000076,396.90477570000076,396.90477570000076,397.8884672000004,Objects\299a.jpg,mid,o,0.9743251999998392,None,,,,,,,,00025,001,2025-11-10_16h04.32.749,MST_test,2024.2.2,60.00668474460773,2025-11-10 16h04.38.407261 +0530,
125,0,125,o,0.9794013999999152,None,125,0,125,0,397.9047853000002,,,,,,,,,,,,,,,,,,,,,,,,,,,,,,,,,,,,,,,,,,,,,,,,,,397.8885457000006,397.9047853000002,398.4047696000007,398.3883981000008,398.3936429000005,398.4047696000007,398.4047696000007,398.4047696000007,399.38841610000054,Objects\094a.jpg,post,o,0.9794013999999152,None,,,,,,,,00025,001,2025-11-10_16h04.32.749,MST_test,2024.2.2,60.00668474460773,2025-11-10 16h04.38.407261 +0530,
126,0,126,o,2.119181000000026,None,126,0,126,0,399.40475100000003,,,,,,,,,,,,,,,,,,,,,,,,,,,,,,,,,,,,,,,,,,,,,,,,,,399.38849130000017,399.40475100000003,399.92141100000026,399.8883564000007,399.91095940000014,399.92141100000026,399.92141100000026,399.92141100000026,402.05521150000004,Objects\071b.jpg,pre,o,2.119181000000026,None,,,,,,,,00025,001,2025-11-10_16h04.32.749,MST_test,2024.2.2,60.00668474460773,2025-11-10 16h04.38.407261 +0530,
127,0,127,o,0.8467617000005703,None,127,0,127,0,402.07136210000044,,,,,,,,,,,,,,,,,,,,,,,,,,,,,,,,,,,,,,,,,,,,,,,,,,402.0553008000006,402.07136210000044,402.5880197000006,402.5549372000005,402.57135670000025,402.5880197000006,402.5880197000006,402.5880197000006,403.4383563000001,Objects\090b.jpg,mid,o,0.8467617000005703,None,,,,,,,,00025,001,2025-11-10_16h04.32.749,MST_test,2024.2.2,60.00668474460773,2025-11-10 16h04.38.407261 +0530,
128,0,128,o,0.832351899999594,None,128,0,128,0,403.45466320000014,,,,,,,,,,,,,,,,,,,,,,,,,,,,,,,,,,,,,,,,,,,,,,,,,,403.4384377000006,403.45466320000014,403.9546196000001,403.9381656000005,403.9400450000003,403.9546196000001,403.9546196000001,403.9546196000001,404.7882984000007,Objects\017a.jpg,pre,o,0.832351899999594,None,,,,,,,,00025,001,2025-11-10_16h04.32.749,MST_test,2024.2.2,60.00668474460773,2025-11-10 16h04.38.407261 +0530,
129,0,129,o,0.7344309999998586,None,129,0,129,0,404.8046365,,,,,,,,,,,,,,,,,,,,,,,,,,,,,,,,,,,,,,,,,,,,,,,,,,404.7883802000006,404.8046365,405.30460270000003,405.2881188000001,405.2929623,405.30460270000003,405.30460270000003,405.30460270000003,406.05489209999996,Objects\358a.jpg,pre,o,0.7344309999998586,None,,,,,,,,00025,001,2025-11-10_16h04.32.749,MST_test,2024.2.2,60.00668474460773,2025-11-10 16h04.38.407261 +0530,
130,0,130,n,1.4274716999998418,None,130,0,130,0,406.07128140000077,,,,,,,,,,,,,,,,,,,,,,,,,,,,,,,,,,,,,,,,,,,,,,,,,,406.0549643000004,406.07128140000077,406.57123950000005,406.55485020000015,406.56572740000047,406.57123950000005,406.57123950000005,406.57123950000005,408.0049235000006,Foils\090a.jpg,none,n,1.4274716999998418,None,,,,,,,,00025,001,2025-11-10_16h04.32.749,MST_test,2024.2.2,60.00668474460773,2025-11-10 16h04.38.407261 +0530,
131,0,131,s,1.1954931000000215,None,131,0,131,0,408.02126380000027,,,,,,,,,,,,,,,,,,,,,,,,,,,,,,,,,,,,,,,,,,,,,,,,,,408.0050043000001,408.02126380000027,408.52119930000026,408.5047639000004,408.5125611000003,408.52119930000026,408.52119930000026,408.52119930000026,409.7216201000001,Foils\082a.jpg,none,s,1.1954931000000215,None,,,,,,,,00025,001,2025-11-10_16h04.32.749,MST_test,2024.2.2,60.00668474460773,2025-11-10 16h04.38.407261 +0530,
132,0,132,n,2.3601442999997744,None,132,0,132,0,409.73782350000056,,,,,,,,,,,,,,,,,,,,,,,,,,,,,,,,,,,,,,,,,,,,,,,,,,409.72170280000046,409.73782350000056,410.25448010000036,410.2213363999999,410.2449942000003,410.25448010000036,410.25448010000036,410.25448010000036,412.6214862000006,Objects\217b.jpg,pre,n,2.3601442999997744,None,,,,,,,,00025,001,2025-11-10_16h04.32.749,MST_test,2024.2.2,60.00668474460773,2025-11-10 16h04.38.407261 +0530,
133,0,133,s,2.3510180000002947,None,133,0,133,0,412.63776830000006,,,,,,,,,,,,,,,,,,,,,,,,,,,,,,,,,,,,,,,,,,,,,,,,,,412.6215692000005,412.63776830000006,413.1544526000007,413.12132310000015,413.1410278000003,413.1544526000007,413.1544526000007,413.1544526000007,415.5215339000006,Objects\117b.jpg,post,s,2.3510180000002947,None,,,,,,,,00025,001,2025-11-10_16h04.32.749,MST_test,2024.2.2,60.00668474460773,2025-11-10 16h04.38.407261 +0530,
134,0,134,o,2.0437071000005744,None,134,0,134,0,415.5377326000007,,,,,,,,,,,,,,,,,,,,,,,,,,,,,,,,,,,,,,,,,,,,,,,,,,415.5216199000006,415.5377326000007,416.0543972000005,416.0213281000006,416.03749530000005,416.0543972000005,416.0543972000005,416.0543972000005,418.10466240000005,Objects\166b.jpg,post,o,2.0437071000005744,None,,,,,,,,00025,001,2025-11-10_16h04.32.749,MST_test,2024.2.2,60.00668474460773,2025-11-10 16h04.38.407261 +0530,
135,0,135,o,0.882360499999777,None,135,0,135,0,418.1210286000005,,,,,,,,,,,,,,,,,,,,,,,,,,,,,,,,,,,,,,,,,,,,,,,,,,418.10474710000017,418.1210286000005,418.6209591000006,418.60467770000014,418.6067335000007,418.6209591000006,418.6209591000006,418.6209591000006,419.5046484000004,Objects\082a.jpg,pre,o,0.882360499999777,None,,,,,,,,00025,001,2025-11-10_16h04.32.749,MST_test,2024.2.2,60.00668474460773,2025-11-10 16h04.38.407261 +0530,
136,0,136,o,0.79086019999977,None,136,0,136,0,419.5209689000003,,,,,,,,,,,,,,,,,,,,,,,,,,,,,,,,,,,,,,,,,,,,,,,,,,419.5047245000005,419.5209689000003,420.0542643000008,420.0045004000003,420.03359440000077,420.0542643000008,420.0542643000008,420.0542643000008,420.8547449000007,Objects\238b.jpg,mid,o,0.79086019999977,None,,,,,,,,00025,001,2025-11-10_16h04.32.749,MST_test,2024.2.2,60.00668474460773,2025-11-10 16h04.38.407261 +0530,
137,0,137,s,1.1780362999998033,None,137,0,137,0,420.87101359999997,,,,,,,,,,,,,,,,,,,,,,,,,,,,,,,,,,,,,,,,,,,,,,,,,,420.8548167000008,420.87101359999997,421.3709402000004,421.3545644000005,421.3599638000005,421.3709402000004,421.3709402000004,421.3709402000004,422.5546159000005,Objects\237a.jpg,post,s,1.1780362999998033,None,,,,,,,,00025,001,2025-11-10_16h04.32.749,MST_test,2024.2.2,60.00668474460773,2025-11-10 16h04.38.407261 +0530,
138,0,138,n,1.3697714999998425,None,138,0,138,0,422.5709323000001,,,,,,,,,,,,,,,,,,,,,,,,,,,,,,,,,,,,,,,,,,,,,,,,,,422.55470010000045,422.5709323000001,423.0875623000002,423.0544987000003,423.0744614000005,423.0875623000002,423.0875623000002,423.0875623000002,424.47115340000073,Foils\f7.jpg,none,n,1.3697714999998425,None,,,,,,,,00025,001,2025-11-10_16h04.32.749,MST_test,2024.2.2,60.00668474460773,2025-11-10 16h04.38.407261 +0530,
139,0,139,s,2.2608823999999004,None,139,0,139,0,424.48753170000055,,,,,,,,,,,,,,,,,,,,,,,,,,,,,,,,,,,,,,,,,,,,,,,,,,424.47123830000055,424.48753170000055,425.0041568000006,424.9710283000004,424.9847724000001,425.0041568000006,425.0041568000006,425.0041568000006,427.27109480000036,Objects\277b.jpg,post,s,2.2608823999999004,None,,,,,,,,00025,001,2025-11-10_16h04.32.749,MST_test,2024.2.2,60.00668474460773,2025-11-10 16h04.38.407261 +0530,
140,0,140,s,1.3587987000000794,None,140,0,140,0,427.2874674000004,,,,,,,,,,,,,,,,,,,,,,,,,,,,,,,,,,,,,,,,,,,,,,,,,,427.27117739999994,427.2874674000004,427.80410180000035,427.7709812000003,427.7969928000002,427.80410180000035,427.80410180000035,427.80410180000035,429.17102800000066,Objects\181b.jpg,mid,s,1.3587987000000794,None,,,,,,,,00025,001,2025-11-10_16h04.32.749,MST_test,2024.2.2,60.00668474460773,2025-11-10 16h04.38.407261 +0530,
141,0,141,s,1.8898933000000397,None,141,0,141,0,429.18743600000016,,,,,,,,,,,,,,,,,,,,,,,,,,,,,,,,,,,,,,,,,,,,,,,,,,429.17110500000035,429.18743600000016,429.68742890000067,429.67089600000054,429.67309530000057,429.68742890000067,429.68742890000067,429.68742890000067,431.5877679000005,Objects\188a.jpg,pre,s,1.8898933000000397,None,,,,,,,,00025,001,2025-11-10_16h04.32.749,MST_test,2024.2.2,60.00668474460773,2025-11-10 16h04.38.407261 +0530,
142,0,142,o,0.856435199999396,None,142,0,142,0,431.6040395,,,,,,,,,,,,,,,,,,,,,,,,,,,,,,,,,,,,,,,,,,,,,,,,,,431.58785570000055,431.6040395,432.1040430000003,432.0876195000001,432.08979739999995,432.1040430000003,432.1040430000003,432.1040430000003,432.9710324000007,Objects\363a.jpg,mid,o,0.856435199999396,None,,,,,,,,00025,001,2025-11-10_16h04.32.749,MST_test,2024.2.2,60.00668474460773,2025-11-10 16h04.38.407261 +0530,
143,0,143,s,1.9916555999998309,None,143,0,143,0,432.98734910000076,,,,,,,,,,,,,,,,,,,,,,,,,,,,,,,,,,,,,,,,,,,,,,,,,,432.9711139000001,432.98734910000076,433.4873423000008,433.4708977,433.47277080000003,433.4873423000008,433.4873423000008,433.4873423000008,435.4875862000008,Objects\097a.jpg,pre,s,1.9916555999998309,None,,,,,,,,00025,001,2025-11-10_16h04.32.749,MST_test,2024.2.2,60.00668474460773,2025-11-10 16h04.38.407261 +0530,
144,0,144,o,1.4491304000002856,None,144,0,144,0,435.50396510000064,,,,,,,,,,,,,,,,,,,,,,,,,,,,,,,,,,,,,,,,,,,,,,,,,,435.48767130000033,435.50396510000064,436.00391579999996,435.98755100000017,435.9896826000004,436.00391579999996,436.00391579999996,436.00391579999996,437.45424880000064,Objects\034a.jpg,post,o,1.4491304000002856,None,,,,,,,,00025,001,2025-11-10_16h04.32.749,MST_test,2024.2.2,60.00668474460773,2025-11-10 16h04.38.407261 +0530,
145,0,145,s,1.3465067000006457,None,145,0,145,0,437.47059080000054,,,,,,,,,,,,,,,,,,,,,,,,,,,,,,,,,,,,,,,,,,,,,,,,,,437.4543308000002,437.47059080000054,437.97053890000007,437.9540771000002,437.95610170000054,437.97053890000007,437.97053890000007,437.97053890000007,439.32082549999996,Objects\189a.jpg,pre,s,1.3465067000006457,None,,,,,,,,00025,001,2025-11-10_16h04.32.749,MST_test,2024.2.2,60.00668474460773,2025-11-10 16h04.38.407261 +0530,
146,0,146,s,1.1373678999998447,None,146,0,146,0,439.33721010000045,,,,,,,,,,,,,,,,,,,,,,,,,,,,,,,,,,,,,,,,,,,,,,,,,,439.3209089000002,439.33721010000045,439.8371747000001,439.8206917000007,439.82277070000055,439.8371747000001,439.8371747000001,439.8371747000001,440.9876845000008,Objects\154a.jpg,mid,s,1.1373678999998447,None,,,,,,,,00025,001,2025-11-10_16h04.32.749,MST_test,2024.2.2,60.00668474460773,2025-11-10 16h04.38.407261 +0530,
147,0,147,o,1.3270912999996654,None,147,0,147,0,441.0039037000006,,,,,,,,,,,,,,,,,,,,,,,,,,,,,,,,,,,,,,,,,,,,,,,,,,440.98776030000045,441.0039037000006,441.5038280000008,441.4873481000004,441.4917677000003,441.5038280000008,441.5038280000008,441.5038280000008,442.83745739999995,Objects\329a.jpg,pre,o,1.3270912999996654,None,,,,,,,,00025,001,2025-11-10_16h04.32.749,MST_test,2024.2.2,60.00668474460773,2025-11-10 16h04.38.407261 +0530,
148,0,148,o,1.0550376999999571,None,148,0,148,0,442.85380500000065,,,,,,,,,,,,,,,,,,,,,,,,,,,,,,,,,,,,,,,,,,,,,,,,,,442.8375339000004,442.85380500000065,443.3533694000007,443.33726620000016,443.3488259000005,443.3533694000007,443.3533694000007,443.3533694000007,444.4208057000005,Objects\295b.jpg,pre,o,1.0550376999999571,None,,,,,,,,00025,001,2025-11-10_16h04.32.749,MST_test,2024.2.2,60.00668474460773,2025-11-10 16h04.38.407261 +0530,
149,0,149,n,2.6936529000004157,None,149,0,149,0,444.437097,,,,,,,,,,,,,,,,,,,,,,,,,,,,,,,,,,,,,,,,,,,,,,,,,,444.420889,444.437097,444.9370613000001,444.9206565000004,444.92805360000057,444.9370613000001,444.9370613000001,444.9370613000001,447.63743370000066,Foils\074a.jpg,none,n,2.6936529000004157,None,,,,,,,,00025,001,2025-11-10_16h04.32.749,MST_test,2024.2.2,60.00668474460773,2025-11-10 16h04.38.407261 +0530,
,,,,,,,,,,,,,,,,,,,,,,,,,,,,,,,,,,,,,,,,,,,,,,,,,,,,,,,,,,,,,,,,,,,,,,,,,,447.63748830000077,447.6539448000003,447.6539448000003,450.27069819999997,space,2.607500799999798,None,00025,001,2025-11-10_16h04.32.749,MST_test,2024.2.2,60.00668474460773,2025-11-10 16h04.38.407261 +0530,
