Sl_no,image_path,thisN,thisTrialN,thisRepN,key_resp_5.keys,key_resp_7.keys,key_resp_7.rt,key_resp_7.duration,key_resp_5.rt,key_resp_5.duration,key_resp_9.keys,key_resp_8.keys,key_resp_8.rt,key_resp_8.duration,key_resp_9.rt,key_resp_9.duration,practice.thisRepN,practice.thisTrialN,practice.thisN,practice.thisIndex,trials.thisRepN,trials.thisTrialN,trials.thisN,trials.thisIndex,thisRow.t,notes,welcome_page.started,text.started,key_resp.started,welcome_page.stopped,key_resp.keys,key_resp.rt,key_resp.duration,instructions.started,ins.started,key_resp_2.started,instructions.stopped,key_resp_2.keys,key_resp_2.rt,key_resp_2.duration,objects_only_instruction.started,text_3.started,key_resp_3.started,objects_only_instruction.stopped,key_resp_3.keys,key_resp_3.rt,key_resp_3.duration,ISI.started,text_4.started,text_4.stopped,ISI.stopped,practice_block.started,image.started,key_resp_5.started,text_5.started,image.stopped,key_resp_5.stopped,text_5.stopped,practice_block.stopped,practice.key_resp_5.keys,indoor_outdoor.started,text_7.started,key_resp_7.started,indoor_outdoor.stopped,practice.key_resp_7.keys,practice.key_resp_7.rt,practice.key_resp_7.duration,practice.key_resp_5.rt,practice.key_resp_5.duration,practice_to_main.started,text_2.started,key_resp_4.started,practice_to_main.stopped,key_resp_4.keys,key_resp_4.rt,key_resp_4.duration,objects.started,image_2.started,text_9.started,key_resp_9.started,objects.stopped,category,trials.key_resp_9.keys,encoding_task.started,text_8.started,key_resp_8.started,encoding_task.stopped,trials.key_resp_8.keys,trials.key_resp_8.rt,trials.key_resp_8.duration,image_2.stopped,text_9.stopped,key_resp_9.stopped,trials.key_resp_9.rt,trials.key_resp_9.duration,end_experiment.started,text_6.started,key_resp_6.started,end_experiment.stopped,key_resp_6.keys,key_resp_6.rt,key_resp_6.duration,list_of_stimuli,encoding_task_accuracy,participant,session,date,expName,psychopyVersion,frameRate,expStart,
,,,,,,,,,,,,,,,,,,,,,,,,,,,0.004020700000182842,0.020638599999983853,0.020638599999983853,1020.6507756000001,space,1020.6161715999997,None,,,,,,,,,,,,,,,,,,,,,,,,,,,,,,,,,,,,,,,,,,,,,,,,,,,,,,,,,,,,,,,,,,,,,,,,00027,001,2025-11-14_16h15.34.724,MST_task,2024.2.2,59.96343429774439,2025-11-14 16h15.46.176029 +0530,
,,,,,,,,,,,,,,,,,,,,,,,,,,,,,,,,,,1020.6508116,1020.6655755000002,1020.6655755000002,1073.3149256000002,space,52.64335750000009,None,,,,,,,,,,,,,,,,,,,,,,,,,,,,,,,,,,,,,,,,,,,,,,,,,,,,,,,,,,,,,,,,,00027,001,2025-11-14_16h15.34.724,MST_task,2024.2.2,59.96343429774439,2025-11-14 16h15.46.176029 +0530,
,,,,,,,,,,,,,,,,,,,,,,,,,,,,,,,,,,,,,,,,,1073.3149586,1073.3312106000003,1073.3312106000003,1081.364649,space,8.031209799999942,None,,,,,,,,,,,,,,,,,,,,,,,,,,,,,,,,,,,,,,,,,,,,,,,,,,,,,,,,,,00027,001,2025-11-14_16h15.34.724,MST_task,2024.2.2,59.96343429774439,2025-11-14 16h15.46.176029 +0530,
6,practice_images/158a.jpg,0,0,0,None,j,0.9500410999999076,None,,,,,,,,,0,0,0,5,,,,,1081.381297,,,,,,,,,,,,,,,,,,,,,,,1081.3770022000003,1081.381297,1081.8805722000002,1081.8644726000002,1081.8767613,1081.8805722000002,1081.8805722000002,1081.8805722000002,1084.8809941,1084.8809941,1084.8809941,1084.8644943,None,1084.8655631000001,1084.8809941,1084.8809941,1085.8478714000003,j,0.9500410999999076,None,,,,,,,,,,,,,,,,,,,,,,,,,,,,,,,,,,,,,,00027,001,2025-11-14_16h15.34.724,MST_task,2024.2.2,59.96343429774439,2025-11-14 16h15.46.176029 +0530,
9,practice_images/180a.jpg,1,1,0,None,f,0.528798000000279,None,,,,,,,,,0,1,1,8,,,,,1085.8643064000003,,,,,,,,,,,,,,,,,,,,,,,1085.8479387000002,1085.8643064000003,1086.3641599000002,1086.3477498000002,1086.3544401,1086.3641599000002,1086.3641599000002,1086.3641599000002,1089.3641705,1089.3641705,1089.3641705,1089.3477647,None,1089.347797,1089.3641705,1089.3641705,1089.8977903,f,0.528798000000279,None,,,,,,,,,,,,,,,,,,,,,,,,,,,,,,,,,,,,,,00027,001,2025-11-14_16h15.34.724,MST_task,2024.2.2,59.96343429774439,2025-11-14 16h15.46.176029 +0530,
2,practice_images/031a.jpg,2,2,0,None,f,0.7682730999999876,None,,,,,,,,,0,2,2,1,,,,,1089.9142156000003,,,,,,,,,,,,,,,,,,,,,,,1089.897857,1089.9142156000003,1090.4141533000002,1090.3976473000002,1090.4042501,1090.4141533000002,1090.4141533000002,1090.4141533000002,1093.4141527000002,1093.4141527000002,1093.4141527000002,1093.3975814,None,1093.3976086000002,1093.4141527000002,1093.4141527000002,1094.1977141000002,f,0.7682730999999876,None,,,,,,,,,,,,,,,,,,,,,,,,,,,,,,,,,,,,,,00027,001,2025-11-14_16h15.34.724,MST_task,2024.2.2,59.96343429774439,2025-11-14 16h15.46.176029 +0530,
3,practice_images/037a.jpg,3,3,0,None,f,0.9344194000000243,None,,,,,,,,,0,3,3,2,,,,,1094.2140971000003,,,,,,,,,,,,,,,,,,,,,,,1094.1977866000002,1094.2140971000003,1094.7140547,1094.6975867,1094.7045400000002,1094.7140547,1094.7140547,1094.7140547,1097.7140216000003,1097.7140216000003,1097.7140216000003,1097.6974961,None,1097.6975293,1097.7140216000003,1097.7140216000003,1098.6642328000003,f,0.9344194000000243,None,,,,,,,,,,,,,,,,,,,,,,,,,,,,,,,,,,,,,,00027,001,2025-11-14_16h15.34.724,MST_task,2024.2.2,59.96343429774439,2025-11-14 16h15.46.176029 +0530,
4,practice_images/002b.jpg,4,4,0,None,j,0.19691960000000108,None,,,,,,,,,0,4,4,3,,,,,1098.6806682000001,,,,,,,,,,,,,,,,,,,,,,,1098.6642989000002,1098.6806682000001,1099.1972743000001,1099.1640987,1099.1852113,1099.1972743000001,1099.1972743000001,1099.1972743000001,,,,1102.1806253,None,1102.1806603,1102.1972967000002,1102.1972967000002,1102.3974997,j,0.19691960000000108,None,,,,,,,,,,,,,,,,,,,,,,,,,,,,,,,,,,,,,,00027,001,2025-11-14_16h15.34.724,MST_task,2024.2.2,59.96343429774439,2025-11-14 16h15.46.176029 +0530,
7,practice_images/166a.jpg,5,5,0,None,f,1.4248431999999411,None,,,,,,,,,0,5,5,6,,,,,1102.4139596,,,,,,,,,,,,,,,,,,,,,,,1102.3975681000002,1102.4139596,1102.9138822,1102.8974261000003,1102.9061983000001,1102.9138822,1102.9138822,1102.9138822,1105.9137569,1105.9137569,1105.9137569,1105.8973473,None,1105.898924,1105.9137569,1105.9137569,1107.3475271000002,f,1.4248431999999411,None,,,,,,,,,,,,,,,,,,,,,,,,,,,,,,,,,,,,,,00027,001,2025-11-14_16h15.34.724,MST_task,2024.2.2,59.96343429774439,2025-11-14 16h15.46.176029 +0530,
1,practice_images/013a.jpg,6,6,0,j,None,,,2.2977915999999823,0.13603280000006635,,,,,,,0,6,6,0,,,,,1107.3637345000002,,,,,,,,,,,,,,,,,,,,,,,1107.3476118000003,1107.3637345000002,1107.8803496,1107.8472150000002,1107.8619744000002,1107.8803496,1107.8803496,1107.8803496,,,,1110.8638134000003,j,1110.8638508,,,1110.8638607000003,None,,,2.2977915999999823,0.13603280000006635,,,,,,,,,,,,,,,,,,,,,,,,,,,,,,,,,,,,00027,001,2025-11-14_16h15.34.724,MST_task,2024.2.2,59.96343429774439,2025-11-14 16h15.46.176029 +0530,
10,practice_images/182a.jpg,7,7,0,f,None,,,1.7280297000002065,0.10377440000002025,,,,,,,0,7,7,9,,,,,1110.8803155,,,,,,,,,,,,,,,,,,,,,,,1110.8639217,1110.8803155,1111.3803103,1111.3639877,1111.3708245000003,1111.3803103,1111.3803103,1111.3803103,1114.3802494000001,1114.3802494000001,1114.3802494000001,1114.3637419000002,f,1114.3637766000002,,,1114.3637858000002,None,,,1.7280297000002065,0.10377440000002025,,,,,,,,,,,,,,,,,,,,,,,,,,,,,,,,,,,,00027,001,2025-11-14_16h15.34.724,MST_task,2024.2.2,59.96343429774439,2025-11-14 16h15.46.176029 +0530,
8,practice_images/178a.jpg,8,8,0,f,None,,,1.4440684999999576,0.11583749999999782,,,,,,,0,8,8,7,,,,,1114.3802494000001,,,,,,,,,,,,,,,,,,,,,,,1114.3638420000002,1114.3802494000001,1114.8802382000003,1114.8637911,1114.870403,1114.8802382000003,1114.8802382000003,1114.8802382000003,1117.880177,1117.880177,1117.880177,1117.8637028000003,f,1117.8637332000003,,,1117.8637414,None,,,1.4440684999999576,0.11583749999999782,,,,,,,,,,,,,,,,,,,,,,,,,,,,,,,,,,,,00027,001,2025-11-14_16h15.34.724,MST_task,2024.2.2,59.96343429774439,2025-11-14 16h15.46.176029 +0530,
5,practice_images/139a.jpg,9,9,0,None,j,1.1198100000001432,None,,,,,,,,,0,9,9,4,,,,,1117.880177,,,,,,,,,,,,,,,,,,,,,,,1117.8637944000002,1117.880177,1118.3801283000003,1118.3637240000003,1118.3705145,1118.3801283000003,1118.3801283000003,1118.3801283000003,1121.3801001000002,1121.3801001000002,1121.3801001000002,1121.3636053,None,1121.3636354,1121.3801001000002,1121.3801001000002,1122.5137444000002,j,1.1198100000001432,None,,,,,,,,,,,,,,,,,,,,,,,,,,,,,,,,,,,,,,00027,001,2025-11-14_16h15.34.724,MST_task,2024.2.2,59.96343429774439,2025-11-14 16h15.46.176029 +0530,
,,,,,,,,,,,,,,,,,,,,,,,,,,,,,,,,,,,,,,,,,,,,,,,,,,,,,,,,,,,,,,,,,,,,,,1122.5138024000003,1122.5300377000003,1122.5300377000003,1145.5133301,space,22.966434400000253,None,,,,,,,,,,,,,,,,,,,,,,,,,,,,,00027,001,2025-11-14_16h15.34.724,MST_task,2024.2.2,59.96343429774439,2025-11-14 16h15.46.176029 +0530,
,Objects\290a.jpg,0,0,0,,,,,,,None,j,1.7347398000001704,None,,,,,,,0,0,0,0,1145.5296886,,,,,,,,,,,,,,,,,,,,,,,1145.5139830000003,1145.5296886,1146.0463557000003,1146.0131589000002,,,,,,,,,,,,,,,,,,,,,,,,,,1146.0309586000003,1146.0463557000003,1146.0463557000003,1146.0463557000003,1149.0296298000003,shoe,None,1149.0311878000002,1149.046292,1149.046292,1150.7964636000002,j,1.7347398000001704,None,,,,,,,,,,,,,,,00027,001,2025-11-14_16h15.34.724,MST_task,2024.2.2,59.96343429774439,2025-11-14 16h15.46.176029 +0530,
,Objects\256a.jpg,1,0,1,,,,,,,None,j,1.2478489000000081,None,,,,,,,1,0,1,0,1150.8128885,,,,,,,,,,,,,,,,,,,,,,,1150.7965362,1150.8128885,1151.3128040000001,1151.2963454,,,,,,,,,,,,,,,,,,,,,,,,,,1151.307303,1151.3128040000001,1151.3128040000001,1151.3128040000001,1154.2963726000003,shoe,None,1154.2964098000002,1154.3127663,1154.3127663,1155.5630463000002,j,1.2478489000000081,None,1154.3127663,1154.3127663,1154.3127663,,,,,,,,,,,,00027,001,2025-11-14_16h15.34.724,MST_task,2024.2.2,59.96343429774439,2025-11-14 16h15.46.176029 +0530,
,Objects\028a.jpg,2,0,2,,,,,,,None,j,0.736261800000193,None,,,,,,,2,0,2,0,1155.5794083,,,,,,,,,,,,,,,,,,,,,,,1155.5631257,1155.5794083,1156.0962711000002,1156.062896,,,,,,,,,,,,,,,,,,,,,,,,,,1156.0745645000002,1156.0962711000002,1156.0962711000002,1156.0962711000002,1159.0794416000003,shoe,None,1159.0794738,1159.0960976000001,1159.0960976000001,1159.8462252,j,0.736261800000193,None,,,,,,,,,,,,,,,00027,001,2025-11-14_16h15.34.724,MST_task,2024.2.2,59.96343429774439,2025-11-14 16h15.46.176029 +0530,
,Objects\098a.jpg,3,0,3,,,,,,,None,f,0.6479202000000441,None,,,,,,,3,0,3,0,1159.8625894000002,,,,,,,,,,,,,,,,,,,,,,,1159.8463379,1159.8625894000002,1160.3625970000003,1160.3461258000002,,,,,,,,,,,,,,,,,,,,,,,,,,1160.3539394,1160.3625970000003,1160.3625970000003,1160.3625970000003,1163.3461363000001,shoe,None,1163.3461683,1163.3625333,1163.3625333,1164.0130856,f,0.6479202000000441,None,1163.3625333,1163.3625333,1163.3625333,,,,,,,,,,,,00027,001,2025-11-14_16h15.34.724,MST_task,2024.2.2,59.96343429774439,2025-11-14 16h15.46.176029 +0530,
,Objects\157a.jpg,4,0,4,,,,,,,None,f,0.9909730000003947,None,,,,,,,4,0,4,0,1164.0293042000003,,,,,,,,,,,,,,,,,,,,,,,1164.0131828000003,1164.0293042000003,1164.5292493000002,1164.5129146,,,,,,,,,,,,,,,,,,,,,,,,,,1164.5202952,1164.5292493000002,1164.5292493000002,1164.5292493000002,1167.5127653,shoe,None,1167.5127968000002,1167.5292220000001,1167.5292220000001,1168.5295901,f,0.9909730000003947,None,1167.5292220000001,1167.5292220000001,1167.5292220000001,,,,,,,,,,,,00027,001,2025-11-14_16h15.34.724,MST_task,2024.2.2,59.96343429774439,2025-11-14 16h15.46.176029 +0530,
,Objects\311a.jpg,5,0,5,,,,,,,None,j,0.6170426000003317,None,,,,,,,5,0,5,0,1168.5458505000001,,,,,,,,,,,,,,,,,,,,,,,1168.5296964,1168.5458505000001,1169.0458141,1169.0294232,,,,,,,,,,,,,,,,,,,,,,,,,,1169.0375225000003,1169.0458141,1169.0458141,1169.0458141,1172.029356,shoe,None,1172.0293849,1172.0458051,1172.0458051,1172.6793109,j,0.6170426000003317,None,1172.0458051,1172.0458051,1172.0458051,,,,,,,,,,,,00027,001,2025-11-14_16h15.34.724,MST_task,2024.2.2,59.96343429774439,2025-11-14 16h15.46.176029 +0530,
,Objects\243a.jpg,6,0,6,,,,,,,None,f,0.7150575000000572,None,,,,,,,6,0,6,0,1172.6958123,,,,,,,,,,,,,,,,,,,,,,,1172.679384,1172.6958123,1173.1959851000001,1173.1791905,,,,,,,,,,,,,,,,,,,,,,,,,,1173.1899795,1173.1959851000001,1173.1959851000001,1173.1959851000001,1176.1792106000003,shoe,None,1176.1792435000002,1176.1956725,1176.1956725,1176.9126850000002,f,0.7150575000000572,None,1176.1956725,1176.1956725,1176.1956725,,,,,,,,,,,,00027,001,2025-11-14_16h15.34.724,MST_task,2024.2.2,59.96343429774439,2025-11-14 16h15.46.176029 +0530,
,Objects\195a.jpg,7,0,7,,,,,,,None,f,1.103065400000105,None,,,,,,,7,0,7,0,1176.9290417000002,,,,,,,,,,,,,,,,,,,,,,,1176.9127636000003,1176.9290417000002,1177.4284820000003,1177.4124505,,,,,,,,,,,,,,,,,,,,,,,,,,1177.4245521000003,1177.4284820000003,1177.4284820000003,1177.4284820000003,1180.412612,indoor,None,1180.413721,1180.4289095,1180.4289095,1181.5460858000001,f,1.103065400000105,None,1180.4289095,1180.4289095,1180.4289095,,,,,,,,,,,,00027,001,2025-11-14_16h15.34.724,MST_task,2024.2.2,59.96343429774439,2025-11-14 16h15.46.176029 +0530,
,Objects\178a.jpg,8,0,8,,,,,,,None,j,0.48045060000004014,None,,,,,,,8,0,8,0,1181.5622682000003,,,,,,,,,,,,,,,,,,,,,,,1181.5461619000002,1181.5622682000003,1182.0787909,1182.0456670000003,,,,,,,,,,,,,,,,,,,,,,,,,,1182.0718324,1182.0787909,1182.0787909,1182.0787909,1185.0621304000001,indoor,None,1185.0621636,1185.0787542000003,1185.0787542000003,1185.5624608000003,j,0.48045060000004014,None,,,,,,,,,,,,,,,00027,001,2025-11-14_16h15.34.724,MST_task,2024.2.2,59.96343429774439,2025-11-14 16h15.46.176029 +0530,
,Objects\381a.jpg,9,0,9,,,,,,,f,None,,,2.5551862999996047,0.10882430000037857,,,,,9,0,9,0,1185.5787714000003,,,,,,,,,,,,,,,,,,,,,,,1185.5625359,1185.5787714000003,1186.078783,1186.0622625,,,,,,,,,,,,,,,,,,,,,,,,,,1186.0722087,1186.078783,1186.078783,1186.078783,1189.0622437000002,indoor,f,1189.0622811000003,,,1189.0622902,None,,,1189.0786732000001,1189.0786732000001,1189.0786732000001,2.5551862999996047,0.10882430000037857,,,,,,,,,,00027,001,2025-11-14_16h15.34.724,MST_task,2024.2.2,59.96343429774439,2025-11-14 16h15.46.176029 +0530,
,Objects\355a.jpg,10,0,10,,,,,,,None,j,0.5160224999999627,None,,,,,,,10,0,10,0,1189.0786732000001,,,,,,,,,,,,,,,,,,,,,,,1189.0623464,1189.0786732000001,1189.5786141000003,1189.5621834000003,,,,,,,,,,,,,,,,,,,,,,,,,,1189.5728427,1189.5786141000003,1189.5786141000003,1189.5786141000003,1192.5621797000003,indoor,None,1192.5622104,1192.5786171,1192.5786171,1193.0955456000002,j,0.5160224999999627,None,1192.5786171,1192.5786171,1192.5786171,,,,,,,,,,,,00027,001,2025-11-14_16h15.34.724,MST_task,2024.2.2,59.96343429774439,2025-11-14 16h15.46.176029 +0530,
,Objects\061a.jpg,11,0,11,,,,,,,None,j,0.5705749999997352,None,,,,,,,11,0,11,0,1193.1119000000003,,,,,,,,,,,,,,,,,,,,,,,1193.0956268,1193.1119000000003,1193.6114860000002,1193.5953801,,,,,,,,,,,,,,,,,,,,,,,,,,1193.6061189000002,1193.6114860000002,1193.6114860000002,1193.6114860000002,1196.5954580000002,indoor,None,1196.5954891000001,1196.6118282000002,1196.6118282000002,1197.1954092,j,0.5705749999997352,None,1196.6118282000002,1196.6118282000002,1196.6118282000002,,,,,,,,,,,,00027,001,2025-11-14_16h15.34.724,MST_task,2024.2.2,59.96343429774439,2025-11-14 16h15.46.176029 +0530,
,Objects\228a.jpg,12,0,12,,,,,,,None,j,0.9029480999997759,None,,,,,,,12,0,12,0,1197.2118124000003,,,,,,,,,,,,,,,,,,,,,,,1197.1954832000001,1197.2118124000003,1197.7118195000003,1197.6954974,,,,,,,,,,,,,,,,,,,,,,,,,,1197.7033310000002,1197.7118195000003,1197.7118195000003,1197.7118195000003,1200.6953346,indoor,None,1200.6953657,1200.7117452000002,1200.7117452000002,1201.6287996,j,0.9029480999997759,None,1200.7117452000002,1200.7117452000002,1200.7117452000002,,,,,,,,,,,,00027,001,2025-11-14_16h15.34.724,MST_task,2024.2.2,59.96343429774439,2025-11-14 16h15.46.176029 +0530,
,Objects\378a.jpg,13,0,13,,,,,,,None,j,0.5833345999999437,None,,,,,,,13,0,13,0,1201.6450585000002,,,,,,,,,,,,,,,,,,,,,,,1201.6288733000001,1201.6450585000002,1202.1446270000001,1202.1284976000002,,,,,,,,,,,,,,,,,,,,,,,,,,1202.1379253,1202.1446270000001,1202.1446270000001,1202.1446270000001,1205.1285926,indoor,None,1205.1286244000003,1205.1449531000003,1205.1449531000003,1205.7287521000003,j,0.5833345999999437,None,1205.1449531000003,1205.1449531000003,1205.1449531000003,,,,,,,,,,,,00027,001,2025-11-14_16h15.34.724,MST_task,2024.2.2,59.96343429774439,2025-11-14 16h15.46.176029 +0530,
,Objects\362a.jpg,14,0,14,,,,,,,None,f,0.4960038999997778,None,,,,,,,14,0,14,0,1205.7449669000002,,,,,,,,,,,,,,,,,,,,,,,1205.7288276,1205.7449669000002,1206.2448033,1206.2284354000003,,,,,,,,,,,,,,,,,,,,,,,,,,1206.2400818,1206.2448033,1206.2448033,1206.2448033,1209.2284901000003,shoe,None,1209.2300186000002,1209.2448698000003,1209.2448698000003,1209.7452723000001,f,0.4960038999997778,None,1209.2448698000003,1209.2448698000003,1209.2448698000003,,,,,,,,,,,,00027,001,2025-11-14_16h15.34.724,MST_task,2024.2.2,59.96343429774439,2025-11-14 16h15.46.176029 +0530,
,Objects\268a.jpg,15,0,15,,,,,,,None,f,0.6428669000001719,None,,,,,,,15,0,15,0,1209.7615711000003,,,,,,,,,,,,,,,,,,,,,,,1209.7453462000003,1209.7615711000003,1210.2615496000003,1210.2450346,,,,,,,,,,,,,,,,,,,,,,,,,,1210.2547127000003,1210.2615496000003,1210.2615496000003,1210.2615496000003,1213.2450759000003,shoe,None,1213.2451105,1213.2614873000002,1213.2614873000002,1213.9118488,f,0.6428669000001719,None,1213.2614873000002,1213.2614873000002,1213.2614873000002,,,,,,,,,,,,00027,001,2025-11-14_16h15.34.724,MST_task,2024.2.2,59.96343429774439,2025-11-14 16h15.46.176029 +0530,
,Objects\369a.jpg,16,0,16,,,,,,,None,f,0.6365488999999798,None,,,,,,,16,0,16,0,1213.9281287000003,,,,,,,,,,,,,,,,,,,,,,,1213.9119317,1213.9281287000003,1214.4280881,1214.411708,,,,,,,,,,,,,,,,,,,,,,,,,,1214.4225908000003,1214.4280881,1214.4280881,1214.4280881,1217.4116557000002,shoe,None,1217.4116886000002,1217.4280541000003,1217.4280541000003,1218.0784913000002,f,0.6365488999999798,None,1217.4280541000003,1217.4280541000003,1217.4280541000003,,,,,,,,,,,,00027,001,2025-11-14_16h15.34.724,MST_task,2024.2.2,59.96343429774439,2025-11-14 16h15.46.176029 +0530,
,Objects\129a.jpg,17,0,17,,,,,,,None,f,0.4177143000001706,None,,,,,,,17,0,17,0,1218.0947122000002,,,,,,,,,,,,,,,,,,,,,,,1218.0786248,1218.0947122000002,1218.5946994,1218.5782050000003,,,,,,,,,,,,,,,,,,,,,,,,,,1218.5859220000002,1218.5946994,1218.5946994,1218.5946994,1221.5781980000002,shoe,None,1221.5782303,1221.5946289000003,1221.5946289000003,1222.028413,f,0.4177143000001706,None,1221.5946289000003,1221.5946289000003,1221.5946289000003,,,,,,,,,,,,00027,001,2025-11-14_16h15.34.724,MST_task,2024.2.2,59.96343429774439,2025-11-14 16h15.46.176029 +0530,
,Objects\225a.jpg,18,0,18,,,,,,,None,f,0.640418899999986,None,,,,,,,18,0,18,0,1222.0446275,,,,,,,,,,,,,,,,,,,,,,,1222.0285217,1222.0446275,1222.5445845,1222.5282041,,,,,,,,,,,,,,,,,,,,,,,,,,1222.5359975000001,1222.5445845,1222.5445845,1222.5445845,1225.5281053000003,shoe,None,1225.5281381,1225.5445499000002,1225.5445499000002,1226.1949416000002,f,0.640418899999986,None,1225.5445499000002,1225.5445499000002,1225.5445499000002,,,,,,,,,,,,00027,001,2025-11-14_16h15.34.724,MST_task,2024.2.2,59.96343429774439,2025-11-14 16h15.46.176029 +0530,
,Objects\033a.jpg,19,0,19,,,,,,,None,f,0.979435900000226,None,,,,,,,19,0,19,0,1226.2111998,,,,,,,,,,,,,,,,,,,,,,,1226.1950191,1226.2111998,1226.7112138000002,1226.6946297,,,,,,,,,,,,,,,,,,,,,,,,,,1226.7026443,1226.7112138000002,1226.7112138000002,1226.7112138000002,1229.6947084000003,shoe,None,1229.6947405,1229.7111459000002,1229.7111459000002,1230.6947572,f,0.979435900000226,None,1229.7111459000002,1229.7111459000002,1229.7111459000002,,,,,,,,,,,,00027,001,2025-11-14_16h15.34.724,MST_task,2024.2.2,59.96343429774439,2025-11-14 16h15.46.176029 +0530,
,Objects\071a.jpg,20,0,20,,,,,,,None,j,1.1062010000000555,None,,,,,,,20,0,20,0,1230.7111060000002,,,,,,,,,,,,,,,,,,,,,,,1230.6948286000002,1230.7111060000002,1231.2111377,1231.194685,,,,,,,,,,,,,,,,,,,,,,,,,,1231.2026316000001,1231.2111377,1231.2111377,1231.2111377,1234.1947158000003,shoe,None,1234.1947483,1234.2110315,1234.2110315,1235.3280888,j,1.1062010000000555,None,1234.2110315,1234.2110315,1234.2110315,,,,,,,,,,,,00027,001,2025-11-14_16h15.34.724,MST_task,2024.2.2,59.96343429774439,2025-11-14 16h15.46.176029 +0530,
,Objects\220a.jpg,21,0,21,,,,,,,None,j,0.49550829999998314,None,,,,,,,21,0,21,0,1235.3443404,,,,,,,,,,,,,,,,,,,,,,,1235.3281997,1235.3443404,1235.8609867,1235.8278250000003,,,,,,,,,,,,,,,,,,,,,,,,,,1235.8399567000001,1235.8609867,1235.8609867,1235.8609867,1238.8444251,indoor,None,1238.8456734000001,1238.8609191,1238.8609191,1239.3611707,j,0.49550829999998314,None,,,,,,,,,,,,,,,00027,001,2025-11-14_16h15.34.724,MST_task,2024.2.2,59.96343429774439,2025-11-14 16h15.46.176029 +0530,
,Objects\036a.jpg,22,0,22,,,,,,,None,f,0.025222799999937706,None,,,,,,,22,0,22,0,1239.3775883000003,,,,,,,,,,,,,,,,,,,,,,,1239.3612422,1239.3775883000003,1239.8774928000003,1239.8610655000002,,,,,,,,,,,,,,,,,,,,,,,,,,1239.8719829000001,1239.8774928000003,1239.8774928000003,1239.8774928000003,1242.8611958000001,indoor,None,1242.8612271000002,1242.8775148,1242.8775148,1242.9111658000002,f,0.025222799999937706,None,1242.8775148,1242.8775148,1242.8775148,,,,,,,,,,,,00027,001,2025-11-14_16h15.34.724,MST_task,2024.2.2,59.96343429774439,2025-11-14 16h15.46.176029 +0530,
,Objects\370a.jpg,23,0,23,,,,,,,None,f,0.6728990000001431,None,,,,,,,23,0,23,0,1242.9275162,,,,,,,,,,,,,,,,,,,,,,,1242.9112254000001,1242.9275162,1243.4275218000002,1243.4110549000002,,,,,,,,,,,,,,,,,,,,,,,,,,1243.4181781000002,1243.4275218000002,1243.4275218000002,1243.4275218000002,1246.4109851000003,indoor,None,1246.4110202000002,1246.4274327000003,1246.4274327000003,1247.1110577,f,0.6728990000001431,None,1246.4274327000003,1246.4274327000003,1246.4274327000003,,,,,,,,,,,,00027,001,2025-11-14_16h15.34.724,MST_task,2024.2.2,59.96343429774439,2025-11-14 16h15.46.176029 +0530,
,Objects\227a.jpg,24,0,24,,,,,,,None,f,0.5731427000000622,None,,,,,,,24,0,24,0,1247.1273854,,,,,,,,,,,,,,,,,,,,,,,1247.1111353000001,1247.1273854,1247.6270009,1247.6110151000003,,,,,,,,,,,,,,,,,,,,,,,,,,1247.6211759000003,1247.6270009,1247.6270009,1247.6270009,1250.6109253,indoor,None,1250.6109572,1250.6273497000002,1250.6273497000002,1251.2110697000003,f,0.5731427000000622,None,1250.6273497000002,1250.6273497000002,1250.6273497000002,,,,,,,,,,,,00027,001,2025-11-14_16h15.34.724,MST_task,2024.2.2,59.96343429774439,2025-11-14 16h15.46.176029 +0530,
,Objects\281a.jpg,25,0,25,,,,,,,None,f,0.5297829000001002,None,,,,,,,25,0,25,0,1251.2273815000003,,,,,,,,,,,,,,,,,,,,,,,1251.2111439,1251.2273815000003,1251.7272940000003,1251.7108579,,,,,,,,,,,,,,,,,,,,,,,,,,1251.7214859,1251.7272940000003,1251.7272940000003,1251.7272940000003,1254.7109302000003,indoor,None,1254.7109649,1254.7272616,1254.7272616,1255.2611169000002,f,0.5297829000001002,None,1254.7272616,1254.7272616,1254.7272616,,,,,,,,,,,,00027,001,2025-11-14_16h15.34.724,MST_task,2024.2.2,59.96343429774439,2025-11-14 16h15.46.176029 +0530,
,Objects\001a.jpg,26,0,26,,,,,,,None,f,0.6045275999999831,None,,,,,,,26,0,26,0,1255.277254,,,,,,,,,,,,,,,,,,,,,,,1255.2612435,1255.277254,1255.7772118000003,1255.7607664000002,,,,,,,,,,,,,,,,,,,,,,,,,,1255.771366,1255.7772118000003,1255.7772118000003,1255.7772118000003,1258.760772,indoor,None,1258.7608053,1258.7771849,1258.7771849,1259.3942524,f,0.6045275999999831,None,1258.7771849,1258.7771849,1258.7771849,,,,,,,,,,,,00027,001,2025-11-14_16h15.34.724,MST_task,2024.2.2,59.96343429774439,2025-11-14 16h15.46.176029 +0530,
,Objects\179a.jpg,27,0,27,,,,,,,None,f,0.8437992999997732,None,,,,,,,27,0,27,0,1259.4105021,,,,,,,,,,,,,,,,,,,,,,,1259.3943237000003,1259.4105021,1259.9105065000003,1259.8939888,,,,,,,,,,,,,,,,,,,,,,,,,,1259.9028811000003,1259.9105065000003,1259.9105065000003,1259.9105065000003,1262.8939991000002,indoor,None,1262.8940302,1262.9104234000001,1262.9104234000001,1263.760758,f,0.8437992999997732,None,1262.9104234000001,1262.9104234000001,1262.9104234000001,,,,,,,,,,,,00027,001,2025-11-14_16h15.34.724,MST_task,2024.2.2,59.96343429774439,2025-11-14 16h15.46.176029 +0530,
,Objects\067a.jpg,28,0,28,,,,,,,None,j,1.0338409999999385,None,,,,,,,28,0,28,0,1263.7770728,,,,,,,,,,,,,,,,,,,,,,,1263.7608374000001,1263.7770728,1264.2770393,1264.2606592000002,,,,,,,,,,,,,,,,,,,,,,,,,,1264.2711665000002,1264.2770393,1264.2770393,1264.2770393,1267.260706,shoe,None,1267.2622212,1267.2769614000003,1267.2769614000003,1268.3273204000002,j,1.0338409999999385,None,1267.2769614000003,1267.2769614000003,1267.2769614000003,,,,,,,,,,,,00027,001,2025-11-14_16h15.34.724,MST_task,2024.2.2,59.96343429774439,2025-11-14 16h15.46.176029 +0530,
,Objects\172a.jpg,29,0,29,,,,,,,None,j,0.9924538000000211,None,,,,,,,29,0,29,0,1268.3436407,,,,,,,,,,,,,,,,,,,,,,,1268.3273992,1268.3436407,1268.8436180000003,1268.827197,,,,,,,,,,,,,,,,,,,,,,,,,,1268.8347565,1268.8436180000003,1268.8436180000003,1268.8436180000003,1271.8272013,shoe,None,1271.8272355,1271.84355,1271.84355,1272.8438758000002,j,0.9924538000000211,None,1271.84355,1271.84355,1271.84355,,,,,,,,,,,,00027,001,2025-11-14_16h15.34.724,MST_task,2024.2.2,59.96343429774439,2025-11-14 16h15.46.176029 +0530,
,Objects\138a.jpg,30,0,30,,,,,,,None,j,0.541521499999817,None,,,,,,,30,0,30,0,1272.8602132,,,,,,,,,,,,,,,,,,,,,,,1272.8439744000002,1272.8602132,1273.3601874,1273.3438509000002,,,,,,,,,,,,,,,,,,,,,,,,,,1273.3517608000002,1273.3601874,1273.3601874,1273.3601874,1276.3437868,shoe,None,1276.3438223000003,1276.3601395,1276.3601395,1276.9105016000003,j,0.541521499999817,None,1276.3601395,1276.3601395,1276.3601395,,,,,,,,,,,,00027,001,2025-11-14_16h15.34.724,MST_task,2024.2.2,59.96343429774439,2025-11-14 16h15.46.176029 +0530,
,Objects\222a.jpg,31,0,31,,,,,,,None,j,0.6036764000000403,None,,,,,,,31,0,31,0,1276.9267851,,,,,,,,,,,,,,,,,,,,,,,1276.9106137000003,1276.9267851,1277.4267497,1277.4102823000003,,,,,,,,,,,,,,,,,,,,,,,,,,1277.4209697000001,1277.4267497,1277.4267497,1277.4267497,1280.4103048000002,shoe,None,1280.4103367000002,1280.4267321000002,1280.4267321000002,1281.0437656,j,0.6036764000000403,None,1280.4267321000002,1280.4267321000002,1280.4267321000002,,,,,,,,,,,,00027,001,2025-11-14_16h15.34.724,MST_task,2024.2.2,59.96343429774439,2025-11-14 16h15.46.176029 +0530,
,Objects\008a.jpg,32,0,32,,,,,,,None,f,0.6321996000001491,None,,,,,,,32,0,32,0,1281.0600024,,,,,,,,,,,,,,,,,,,,,,,1281.0438452000003,1281.0600024,1281.5766517000002,1281.5436164000002,,,,,,,,,,,,,,,,,,,,,,,,,,1281.554916,1281.5766517000002,1281.5766517000002,1281.5766517000002,1284.5600642,shoe,None,1284.5601059,1284.5767107000001,1284.5767107000001,1285.2103372000001,f,0.6321996000001491,None,,,,,,,,,,,,,,,00027,001,2025-11-14_16h15.34.724,MST_task,2024.2.2,59.96343429774439,2025-11-14 16h15.46.176029 +0530,
,Objects\156a.jpg,33,0,33,,,,,,,None,j,0.3620994999996583,None,,,,,,,33,0,33,0,1285.2266974,,,,,,,,,,,,,,,,,,,,,,,1285.2104407000002,1285.2266974,1285.7266675,1285.7101772,,,,,,,,,,,,,,,,,,,,,,,,,,1285.7181309000002,1285.7266675,1285.7266675,1285.7266675,1288.7101559000002,shoe,None,1288.7101862,1288.7267136,1288.7267136,1289.0935570000001,j,0.3620994999996583,None,1288.7267136,1288.7267136,1288.7267136,,,,,,,,,,,,00027,001,2025-11-14_16h15.34.724,MST_task,2024.2.2,59.96343429774439,2025-11-14 16h15.46.176029 +0530,
,Objects\333a.jpg,34,0,34,,,,,,,None,f,0.4671520000001692,None,,,,,,,34,0,34,0,1289.1099808,,,,,,,,,,,,,,,,,,,,,,,1289.0936249000001,1289.1099808,1289.6099347,1289.5933793,,,,,,,,,,,,,,,,,,,,,,,,,,1289.6011238,1289.6099347,1289.6099347,1289.6099347,1292.5934513000002,shoe,None,1292.5934886,1292.6098774000002,1292.6098774000002,1293.0936752000002,f,0.4671520000001692,None,1292.6098774000002,1292.6098774000002,1292.6098774000002,,,,,,,,,,,,00027,001,2025-11-14_16h15.34.724,MST_task,2024.2.2,59.96343429774439,2025-11-14 16h15.46.176029 +0530,
,Objects\253a.jpg,35,0,35,,,,,,,None,j,0.856615299999703,None,,,,,,,35,0,35,0,1293.109871,,,,,,,,,,,,,,,,,,,,,,,1293.0937505000002,1293.109871,1293.6098249000001,1293.5933847000001,,,,,,,,,,,,,,,,,,,,,,,,,,1293.6020928000003,1293.6098249000001,1293.6098249000001,1293.6098249000001,1296.593543,indoor,None,1296.5946844,1296.6097880000002,1296.6097880000002,1297.4766656000002,j,0.856615299999703,None,1296.6097880000002,1296.6097880000002,1296.6097880000002,,,,,,,,,,,,00027,001,2025-11-14_16h15.34.724,MST_task,2024.2.2,59.96343429774439,2025-11-14 16h15.46.176029 +0530,
,Objects\280a.jpg,36,0,36,,,,,,,None,f,0.3758489000001646,None,,,,,,,36,0,36,0,1297.4931338000001,,,,,,,,,,,,,,,,,,,,,,,1297.4767293,1297.4931338000001,1297.9930876000003,1297.9765673000002,,,,,,,,,,,,,,,,,,,,,,,,,,1297.9839352,1297.9930876000003,1297.9930876000003,1297.9930876000003,1300.9765857000002,indoor,None,1300.9766158000002,1300.9930102000003,1300.9930102000003,1301.3765923,f,0.3758489000001646,None,1300.9930102000003,1300.9930102000003,1300.9930102000003,,,,,,,,,,,,00027,001,2025-11-14_16h15.34.724,MST_task,2024.2.2,59.96343429774439,2025-11-14 16h15.46.176029 +0530,
,Objects\189a.jpg,37,0,37,,,,,,,None,f,0.3478559000000132,None,,,,,,,37,0,37,0,1301.3929939,,,,,,,,,,,,,,,,,,,,,,,1301.3766531,1301.3929939,1301.8929981,1301.8765142000002,,,,,,,,,,,,,,,,,,,,,,,,,,1301.8846358,1301.8929981,1301.8929981,1301.8929981,1304.8766461,indoor,None,1304.8766796,1304.8929215000003,1304.8929215000003,1305.2433801000002,f,0.3478559000000132,None,1304.8929215000003,1304.8929215000003,1304.8929215000003,,,,,,,,,,,,00027,001,2025-11-14_16h15.34.724,MST_task,2024.2.2,59.96343429774439,2025-11-14 16h15.46.176029 +0530,
,Objects\293a.jpg,38,0,38,,,,,,,None,f,0.5383689000000231,None,,,,,,,38,0,38,0,1305.2596107,,,,,,,,,,,,,,,,,,,,,,,1305.2434463,1305.2596107,1305.7595702000003,1305.7431006000002,,,,,,,,,,,,,,,,,,,,,,,,,,1305.7525961000001,1305.7595702000003,1305.7595702000003,1305.7595702000003,1308.7431184000002,indoor,None,1308.7431569,1308.7595353000002,1308.7595353000002,1309.3097879000002,f,0.5383689000000231,None,1308.7595353000002,1308.7595353000002,1308.7595353000002,,,,,,,,,,,,00027,001,2025-11-14_16h15.34.724,MST_task,2024.2.2,59.96343429774439,2025-11-14 16h15.46.176029 +0530,
,Objects\329a.jpg,39,0,39,,,,,,,None,j,0.5843657000000348,None,,,,,,,39,0,39,0,1309.3261733,,,,,,,,,,,,,,,,,,,,,,,1309.3098521000002,1309.3261733,1309.8257639000003,1309.8097097,,,,,,,,,,,,,,,,,,,,,,,,,,1309.8196724,1309.8257639000003,1309.8257639000003,1309.8257639000003,1312.8096488,indoor,None,1312.8096809000003,1312.8261652,1312.8261652,1313.4264632,j,0.5843657000000348,None,1312.8261652,1312.8261652,1312.8261652,,,,,,,,,,,,00027,001,2025-11-14_16h15.34.724,MST_task,2024.2.2,59.96343429774439,2025-11-14 16h15.46.176029 +0530,
,Objects\115a.jpg,40,0,40,,,,,,,None,f,0.6405177999999978,None,,,,,,,40,0,40,0,1313.4428039,,,,,,,,,,,,,,,,,,,,,,,1313.4265358000002,1313.4428039,1313.9423022,1313.9262827000002,,,,,,,,,,,,,,,,,,,,,,,,,,1313.9370431000002,1313.9423022,1313.9423022,1313.9423022,1316.9263021000002,indoor,None,1316.9263316000001,1316.9427395000002,1316.9427395000002,1317.5929397,f,0.6405177999999978,None,1316.9427395000002,1316.9427395000002,1316.9427395000002,,,,,,,,,,,,00027,001,2025-11-14_16h15.34.724,MST_task,2024.2.2,59.96343429774439,2025-11-14 16h15.46.176029 +0530,
,Objects\016a.jpg,41,0,41,,,,,,,None,f,0.583444899999904,None,,,,,,,41,0,41,0,1317.6093108,,,,,,,,,,,,,,,,,,,,,,,1317.5930138000003,1317.6093108,1318.1093141000001,1318.0929168000002,,,,,,,,,,,,,,,,,,,,,,,,,,1318.1004571000003,1318.1093141000001,1318.1093141000001,1318.1093141000001,1321.0928757000001,indoor,None,1321.0929070000002,1321.1094751,1321.1094751,1321.7096244,f,0.583444899999904,None,1321.1094751,1321.1094751,1321.1094751,,,,,,,,,,,,00027,001,2025-11-14_16h15.34.724,MST_task,2024.2.2,59.96343429774439,2025-11-14 16h15.46.176029 +0530,
,Objects\095a.jpg,42,0,42,,,,,,,None,f,0.6129593999999088,None,,,,,,,42,0,42,0,1321.7258928,,,,,,,,,,,,,,,,,,,,,,,1321.7096932,1321.7258928,1322.2426501,1322.2094969,,,,,,,,,,,,,,,,,,,,,,,,,,1322.2302074,1322.2426501,1322.2426501,1322.2426501,1325.2258687000003,shoe,None,1325.2273786,1325.2425194000002,1325.2425194000002,1325.8596019000001,f,0.6129593999999088,None,,,,,,,,,,,,,,,00027,001,2025-11-14_16h15.34.724,MST_task,2024.2.2,59.96343429774439,2025-11-14 16h15.46.176029 +0530,
,Objects\108a.jpg,43,0,43,,,,,,,None,j,0.5788828999998259,None,,,,,,,43,0,43,0,1325.8758342,,,,,,,,,,,,,,,,,,,,,,,1325.8597184,1325.8758342,1326.3757988000002,1326.3592949000004,,,,,,,,,,,,,,,,,,,,,,,,,,1326.3669367000002,1326.3757988000002,1326.3757988000002,1326.3757988000002,1329.3593,shoe,None,1329.3593300000002,1329.3757964000001,1329.3757964000001,1329.9592682000002,j,0.5788828999998259,None,1329.3757964000001,1329.3757964000001,1329.3757964000001,,,,,,,,,,,,00027,001,2025-11-14_16h15.34.724,MST_task,2024.2.2,59.96343429774439,2025-11-14 16h15.46.176029 +0530,
,Objects\238a.jpg,44,0,44,,,,,,,None,j,0.5374031999999715,None,,,,,,,44,0,44,0,1329.975802,,,,,,,,,,,,,,,,,,,,,,,1329.9593633,1329.975802,1330.4752829,1330.4592827000001,,,,,,,,,,,,,,,,,,,,,,,,,,1330.4702089000002,1330.4752829,1330.4752829,1330.4752829,1333.4592123000002,shoe,None,1333.4592425,1333.4757207000002,1333.4757207000002,1334.0261664,j,0.5374031999999715,None,1333.4757207000002,1333.4757207000002,1333.4757207000002,,,,,,,,,,,,00027,001,2025-11-14_16h15.34.724,MST_task,2024.2.2,59.96343429774439,2025-11-14 16h15.46.176029 +0530,
,Objects\093a.jpg,45,0,45,,,,,,,None,j,0.7310647999997855,None,,,,,,,45,0,45,0,1334.0423048000002,,,,,,,,,,,,,,,,,,,,,,,1334.0262461000002,1334.0423048000002,1334.5422967,1334.5258322,,,,,,,,,,,,,,,,,,,,,,,,,,1334.5368990000002,1334.5422967,1334.5422967,1334.5422967,1337.5258461000003,shoe,None,1337.5258805000003,1337.5422326000003,1337.5422326000003,1338.2760345000002,j,0.7310647999997855,None,1337.5422326000003,1337.5422326000003,1337.5422326000003,,,,,,,,,,,,00027,001,2025-11-14_16h15.34.724,MST_task,2024.2.2,59.96343429774439,2025-11-14 16h15.46.176029 +0530,
,Objects\142a.jpg,46,0,46,,,,,,,None,f,0.5510416000001896,None,,,,,,,46,0,46,0,1338.2922573,,,,,,,,,,,,,,,,,,,,,,,1338.2761003,1338.2922573,1338.7921928,1338.7757616,,,,,,,,,,,,,,,,,,,,,,,,,,1338.7835583,1338.7921928,1338.7921928,1338.7921928,1341.7757504,shoe,None,1341.7757867,1341.7922007000002,1341.7922007000002,1342.3591587,f,0.5510416000001896,None,1341.7922007000002,1341.7922007000002,1341.7922007000002,,,,,,,,,,,,00027,001,2025-11-14_16h15.34.724,MST_task,2024.2.2,59.96343429774439,2025-11-14 16h15.46.176029 +0530,
,Objects\035a.jpg,47,0,47,,,,,,,None,j,0.5293764000002739,None,,,,,,,47,0,47,0,1342.3755722,,,,,,,,,,,,,,,,,,,,,,,1342.3592488,1342.3755722,1342.8754622000001,1342.8590271000003,,,,,,,,,,,,,,,,,,,,,,,,,,1342.8668464000002,1342.8754622000001,1342.8754622000001,1342.8754622000001,1345.8588698000003,shoe,None,1345.8589019,1345.8753292000001,1345.8753292000001,1346.4089279,j,0.5293764000002739,None,1345.8753292000001,1345.8753292000001,1345.8753292000001,,,,,,,,,,,,00027,001,2025-11-14_16h15.34.724,MST_task,2024.2.2,59.96343429774439,2025-11-14 16h15.46.176029 +0530,
,Objects\145a.jpg,48,0,48,,,,,,,None,f,0.445073500000035,None,,,,,,,48,0,48,0,1346.4253149,,,,,,,,,,,,,,,,,,,,,,,1346.4089987000002,1346.4253149,1346.9252726,1346.9087787000003,,,,,,,,,,,,,,,,,,,,,,,,,,1346.9165338000003,1346.9252726,1346.9252726,1346.9252726,1349.9088328000003,shoe,None,1349.9088676000001,1349.9252425,1349.9252425,1350.3755022,f,0.445073500000035,None,1349.9252425,1349.9252425,1349.9252425,,,,,,,,,,,,00027,001,2025-11-14_16h15.34.724,MST_task,2024.2.2,59.96343429774439,2025-11-14 16h15.46.176029 +0530,
,Objects\289a.jpg,49,0,49,,,,,,,None,j,0.5299151000003803,None,,,,,,,49,0,49,0,1350.3918935000002,,,,,,,,,,,,,,,,,,,,,,,1350.3755976000002,1350.3918935000002,1350.9085496000002,1350.8753856000003,,,,,,,,,,,,,,,,,,,,,,,,,,1350.8871631000002,1350.9085496000002,1350.9085496000002,1350.9085496000002,1353.8919274,indoor,None,1353.8931433000002,1353.9085476,1353.9085476,1354.4420733000002,j,0.5299151000003803,None,,,,,,,,,,,,,,,00027,001,2025-11-14_16h15.34.724,MST_task,2024.2.2,59.96343429774439,2025-11-14 16h15.46.176029 +0530,
,Objects\373a.jpg,50,0,50,,,,,,,None,j,0.5344108000003871,None,,,,,,,50,0,50,0,1354.4584765,,,,,,,,,,,,,,,,,,,,,,,1354.4421373,1354.4584765,1354.9584380000001,1354.9419644,,,,,,,,,,,,,,,,,,,,,,,,,,1354.9518979,1354.9584380000001,1354.9584380000001,1354.9584380000001,1357.9419871,indoor,None,1357.9420187,1357.9583942,1357.9583942,1358.5086332,j,0.5344108000003871,None,1357.9583942,1357.9583942,1357.9583942,,,,,,,,,,,,00027,001,2025-11-14_16h15.34.724,MST_task,2024.2.2,59.96343429774439,2025-11-14 16h15.46.176029 +0530,
,Objects\231a.jpg,51,0,51,,,,,,,None,j,0.5368796000002476,None,,,,,,,51,0,51,0,1358.5250578,,,,,,,,,,,,,,,,,,,,,,,1358.5086968,1358.5250578,1359.0250626000002,1359.0085123000003,,,,,,,,,,,,,,,,,,,,,,,,,,1359.0174376,1359.0250626000002,1359.0250626000002,1359.0250626000002,1362.0085404000001,indoor,None,1362.00857,1362.0249817,1362.0249817,1362.5754228,j,0.5368796000002476,None,1362.0249817,1362.0249817,1362.0249817,,,,,,,,,,,,00027,001,2025-11-14_16h15.34.724,MST_task,2024.2.2,59.96343429774439,2025-11-14 16h15.46.176029 +0530,
,Objects\099a.jpg,52,0,52,,,,,,,None,f,0.7657429000000775,None,,,,,,,52,0,52,0,1362.5915992,,,,,,,,,,,,,,,,,,,,,,,1362.575499,1362.5915992,1363.09161,1363.0750722000002,,,,,,,,,,,,,,,,,,,,,,,,,,1363.0859792,1363.09161,1363.09161,1363.09161,1366.0751180000002,indoor,None,1366.0751476,1366.0915254000001,1366.0915254000001,1366.8586116000001,f,0.7657429000000775,None,1366.0915254000001,1366.0915254000001,1366.0915254000001,,,,,,,,,,,,00027,001,2025-11-14_16h15.34.724,MST_task,2024.2.2,59.96343429774439,2025-11-14 16h15.46.176029 +0530,
,Objects\215a.jpg,53,0,53,,,,,,,None,f,0.42180259999986447,None,,,,,,,53,0,53,0,1366.8748794000003,,,,,,,,,,,,,,,,,,,,,,,1366.8586903,1366.8748794000003,1367.3748375,1367.3584667,,,,,,,,,,,,,,,,,,,,,,,,,,1367.3661612,1367.3748375,1367.3748375,1367.3748375,1370.3583601,indoor,None,1370.3583904000002,1370.3748041000003,1370.3748041000003,1370.8085148,f,0.42180259999986447,None,1370.3748041000003,1370.3748041000003,1370.3748041000003,,,,,,,,,,,,00027,001,2025-11-14_16h15.34.724,MST_task,2024.2.2,59.96343429774439,2025-11-14 16h15.46.176029 +0530,
,Objects\069a.jpg,54,0,54,,,,,,,None,j,0.5416708000002473,None,,,,,,,54,0,54,0,1370.8247931,,,,,,,,,,,,,,,,,,,,,,,1370.808586,1370.8247931,,1371.3093049,,,,,,,,,,,,,,,,,,,,,,,,,,1371.3168494000001,1371.3247649,1371.3247649,1371.3247649,1374.308262,indoor,None,1374.3082924,1374.3247244,1374.3247244,1374.8750939000001,j,0.5416708000002473,None,1374.3247244,1374.3247244,1374.3247244,,,,,,,,,,,,00027,001,2025-11-14_16h15.34.724,MST_task,2024.2.2,59.96343429774439,2025-11-14 16h15.46.176029 +0530,
,Objects\251a.jpg,55,0,55,,,,,,,None,f,0.4913590999999542,None,,,,,,,55,0,55,0,1374.8913785,,,,,,,,,,,,,,,,,,,,,,,1374.8751734000002,1374.8913785,1375.3913295000002,1375.3748853000002,,,,,,,,,,,,,,,,,,,,,,,,,,1375.3846616,1375.3913295000002,1375.3913295000002,1375.3913295000002,1378.3748862000002,indoor,None,1378.3749175000003,1378.3913024000003,1378.3913024000003,1378.8915392,f,0.4913590999999542,None,1378.3913024000003,1378.3913024000003,1378.3913024000003,,,,,,,,,,,,00027,001,2025-11-14_16h15.34.724,MST_task,2024.2.2,59.96343429774439,2025-11-14 16h15.46.176029 +0530,
,Objects\118a.jpg,56,0,56,,,,,,,None,j,0.5980027000000518,None,,,,,,,56,0,56,0,1378.9079147000002,,,,,,,,,,,,,,,,,,,,,,,1378.8916134,1378.9079147000002,1379.4245705000003,1379.3914355000002,,,,,,,,,,,,,,,,,,,,,,,,,,1379.4039487,1379.4245705000003,1379.4245705000003,1379.4245705000003,1382.4080415000003,shoe,None,1382.4096672,1382.4245057000003,1382.4245057000003,1383.0249024,j,0.5980027000000518,None,,,,,,,,,,,,,,,00027,001,2025-11-14_16h15.34.724,MST_task,2024.2.2,59.96343429774439,2025-11-14 16h15.46.176029 +0530,
,Objects\240a.jpg,57,0,57,,,,,,,None,f,0.5833417999997437,None,,,,,,,57,0,57,0,1383.0411665000001,,,,,,,,,,,,,,,,,,,,,,,1383.0249722000003,1383.0411665000001,1383.5578260000002,1383.5246659,,,,,,,,,,,,,,,,,,,,,,,,,,1383.538212,1383.5578260000002,1383.5578260000002,1383.5578260000002,1386.5411907000002,shoe,None,1386.5412238,1386.5577965000002,1386.5577965000002,1387.1414525,f,0.5833417999997437,None,,,,,,,,,,,,,,,00027,001,2025-11-14_16h15.34.724,MST_task,2024.2.2,59.96343429774439,2025-11-14 16h15.46.176029 +0530,
,Objects\314a.jpg,58,0,58,,,,,,,None,f,0.6606319000002259,None,,,,,,,58,0,58,0,1387.1577792000003,,,,,,,,,,,,,,,,,,,,,,,1387.1415335000002,1387.1577792000003,1387.6573599000003,1387.6412623,,,,,,,,,,,,,,,,,,,,,,,,,,1387.6528838,1387.6573599000003,1387.6573599000003,1387.6573599000003,1390.6413145000001,shoe,None,1390.6413443000001,1390.6577122000003,1390.6577122000003,1391.3246363000003,f,0.6606319000002259,None,1390.6577122000003,1390.6577122000003,1390.6577122000003,,,,,,,,,,,,00027,001,2025-11-14_16h15.34.724,MST_task,2024.2.2,59.96343429774439,2025-11-14 16h15.46.176029 +0530,
,Objects\173a.jpg,59,0,59,,,,,,,None,f,0.5515395999996144,None,,,,,,,59,0,59,0,1391.3410325,,,,,,,,,,,,,,,,,,,,,,,1391.3247190000002,1391.3410325,1391.840949,1391.824462,,,,,,,,,,,,,,,,,,,,,,,,,,1391.8351480000001,1391.840949,1391.840949,1391.840949,1394.8245276000002,shoe,None,1394.8245575,1394.8409150000002,1394.8409150000002,1395.4078535000003,f,0.5515395999996144,None,1394.8409150000002,1394.8409150000002,1394.8409150000002,,,,,,,,,,,,00027,001,2025-11-14_16h15.34.724,MST_task,2024.2.2,59.96343429774439,2025-11-14 16h15.46.176029 +0530,
,Objects\065a.jpg,60,0,60,,,,,,,None,j,0.8383613999999397,None,,,,,,,60,0,60,0,1395.4242968000003,,,,,,,,,,,,,,,,,,,,,,,1395.4079495,1395.4242968000003,1395.9243015000002,1395.9077419,,,,,,,,,,,,,,,,,,,,,,,,,,1395.915731,1395.9243015000002,1395.9243015000002,1395.9243015000002,1398.9077763,shoe,None,1398.9078060000002,1398.9241908,1398.9241908,1399.774562,j,0.8383613999999397,None,1398.9241908,1398.9241908,1398.9241908,,,,,,,,,,,,00027,001,2025-11-14_16h15.34.724,MST_task,2024.2.2,59.96343429774439,2025-11-14 16h15.46.176029 +0530,
,Objects\233a.jpg,61,0,61,,,,,,,None,f,2.391861399999925,None,,,,,,,61,0,61,0,1399.7908696,,,,,,,,,,,,,,,,,,,,,,,1399.7746770000003,1399.7908696,1400.2908336,1400.2743051000002,,,,,,,,,,,,,,,,,,,,,,,,,,1400.2848096000002,1400.2908336,1400.2908336,1400.2908336,1403.2743532,shoe,None,1403.2743851,1403.2907621,1403.2907621,1405.6911329,f,2.391861399999925,None,1403.2907621,1403.2907621,1403.2907621,,,,,,,,,,,,00027,001,2025-11-14_16h15.34.724,MST_task,2024.2.2,59.96343429774439,2025-11-14 16h15.46.176029 +0530,
,Objects\091a.jpg,62,0,62,,,,,,,None,j,0.7329202000000805,None,,,,,,,62,0,62,0,1405.7073821,,,,,,,,,,,,,,,,,,,,,,,1405.6912096,1405.7073821,1406.2073591000003,1406.1909667,,,,,,,,,,,,,,,,,,,,,,,,,,1406.2017974,1406.2073591000003,1406.2073591000003,1406.2073591000003,1409.1909259,shoe,None,1409.1909654,1409.2073383000002,1409.2073383000002,1409.9412074000002,j,0.7329202000000805,None,1409.2073383000002,1409.2073383000002,1409.2073383000002,,,,,,,,,,,,00027,001,2025-11-14_16h15.34.724,MST_task,2024.2.2,59.96343429774439,2025-11-14 16h15.46.176029 +0530,
,Objects\285a.jpg,63,0,63,,,,,,,None,j,0.6874233999997159,None,,,,,,,63,0,63,0,1409.9572647,,,,,,,,,,,,,,,,,,,,,,,1409.9413416000002,1409.9572647,1410.4572792,1410.4407901,,,,,,,,,,,,,,,,,,,,,,,,,,1410.4499751000003,1410.4572792,1410.4572792,1410.4572792,1413.4408875,indoor,None,1413.4419916000002,1413.4572168,1413.4572168,1414.1574222,j,0.6874233999997159,None,1413.4572168,1413.4572168,1413.4572168,,,,,,,,,,,,00027,001,2025-11-14_16h15.34.724,MST_task,2024.2.2,59.96343429774439,2025-11-14 16h15.46.176029 +0530,
,Objects\158a.jpg,64,0,64,,,,,,,None,f,0.5172215999996297,None,,,,,,,64,0,64,0,1414.173871,,,,,,,,,,,,,,,,,,,,,,,1414.1574835000001,1414.173871,1414.6738285000001,1414.6573117000003,,,,,,,,,,,,,,,,,,,,,,,,,,1414.6649701000001,1414.6738285000001,1414.6738285000001,1414.6738285000001,1417.6573742,indoor,None,1417.657405,1417.6737649000002,1417.6737649000002,1418.2073961,f,0.5172215999996297,None,1417.6737649000002,1417.6737649000002,1417.6737649000002,,,,,,,,,,,,00027,001,2025-11-14_16h15.34.724,MST_task,2024.2.2,59.96343429774439,2025-11-14 16h15.46.176029 +0530,
,Objects\030a.jpg,65,0,65,,,,,,,None,f,0.5708002999999735,None,,,,,,,65,0,65,0,1418.2237848,,,,,,,,,,,,,,,,,,,,,,,1418.2074649,1418.2237848,1418.7237418,1418.7073276,,,,,,,,,,,,,,,,,,,,,,,,,,1418.7148505,1418.7237418,1418.7237418,1418.7237418,1421.7074266,indoor,None,1421.7074588,1421.7237136000003,1421.7237136000003,1422.3072408000003,f,0.5708002999999735,None,1421.7237136000003,1421.7237136000003,1421.7237136000003,,,,,,,,,,,,00027,001,2025-11-14_16h15.34.724,MST_task,2024.2.2,59.96343429774439,2025-11-14 16h15.46.176029 +0530,
,Objects\307a.jpg,66,0,66,,,,,,,f,None,,,2.784837400000015,0.11239119999981995,,,,,66,0,66,0,1422.3237082,,,,,,,,,,,,,,,,,,,,,,,1422.3073052,1422.3237082,1422.8236599000002,1422.8071825000002,,,,,,,,,,,,,,,,,,,,,,,,,,1422.8148085000003,1422.8236599000002,1422.8236599000002,1422.8236599000002,1425.8072215000002,indoor,f,1425.8072577000003,,,1425.8072667000001,None,,,1425.8236236000002,1425.8236236000002,1425.8236236000002,2.784837400000015,0.11239119999981995,,,,,,,,,,00027,001,2025-11-14_16h15.34.724,MST_task,2024.2.2,59.96343429774439,2025-11-14 16h15.46.176029 +0530,
,Objects\089a.jpg,67,0,67,,,,,,,f,None,,,1.420999799999663,0.11468880000029458,,,,,67,0,67,0,1425.8236236000002,,,,,,,,,,,,,,,,,,,,,,,1425.8073252,1425.8236236000002,1426.3236094,1426.3071186000002,,,,,,,,,,,,,,,,,,,,,,,,,,1426.3143622000002,1426.3236094,1426.3236094,1426.3236094,1429.3071368,indoor,f,1429.3071717000003,,,1429.3071799,None,,,1429.3235479,1429.3235479,1429.3235479,1.420999799999663,0.11468880000029458,,,,,,,,,,00027,001,2025-11-14_16h15.34.724,MST_task,2024.2.2,59.96343429774439,2025-11-14 16h15.46.176029 +0530,
,Objects\109a.jpg,68,0,68,,,,,,,None,f,0.501063300000169,None,,,,,,,68,0,68,0,1429.3235479,,,,,,,,,,,,,,,,,,,,,,,1429.3072361,1429.3235479,1429.8235301,1429.8070539,,,,,,,,,,,,,,,,,,,,,,,,,,1429.814445,1429.8235301,1429.8235301,1429.8235301,1432.8071637000003,indoor,None,1432.8071975000003,1432.8234860000002,1432.8234860000002,1433.3404363,f,0.501063300000169,None,1432.8234860000002,1432.8234860000002,1432.8234860000002,,,,,,,,,,,,00027,001,2025-11-14_16h15.34.724,MST_task,2024.2.2,59.96343429774439,2025-11-14 16h15.46.176029 +0530,
,Objects\094a.jpg,69,0,69,,,,,,,None,f,0.762263399999938,None,,,,,,,69,0,69,0,1433.3568002000002,,,,,,,,,,,,,,,,,,,,,,,1433.3405018000003,1433.3568002000002,1433.8567587000002,1433.8402867,,,,,,,,,,,,,,,,,,,,,,,,,,1433.8475459000001,1433.8567587000002,1433.8567587000002,1433.8567587000002,1436.8403065000002,indoor,None,1436.8403360000002,1436.8567317000002,1436.8567317000002,1437.6236130000002,f,0.762263399999938,None,1436.8567317000002,1436.8567317000002,1436.8567317000002,,,,,,,,,,,,00027,001,2025-11-14_16h15.34.724,MST_task,2024.2.2,59.96343429774439,2025-11-14 16h15.46.176029 +0530,
,Objects\257a.jpg,70,0,70,,,,,,,None,f,1.4236845000000358,None,,,,,,,70,0,70,0,1437.6400404,,,,,,,,,,,,,,,,,,,,,,,1437.6236862,1437.6400404,1438.1396135,1438.1235232,,,,,,,,,,,,,,,,,,,,,,,,,,1438.1350833000001,1438.1396135,1438.1396135,1438.1396135,1441.123537,shoe,None,1441.1250608,1441.1400278,1441.1400278,1442.5737492000003,f,1.4236845000000358,None,1441.1400278,1441.1400278,1441.1400278,,,,,,,,,,,,00027,001,2025-11-14_16h15.34.724,MST_task,2024.2.2,59.96343429774439,2025-11-14 16h15.46.176029 +0530,
,Objects\380a.jpg,71,0,71,,,,,,,None,j,0.5374876999999287,None,,,,,,,71,0,71,0,1442.5899539000002,,,,,,,,,,,,,,,,,,,,,,,1442.5738343000003,1442.5899539000002,1443.0898926,1443.0733920000002,,,,,,,,,,,,,,,,,,,,,,,,,,1443.0842928000002,1443.0898926,1443.0898926,1443.0898926,1446.0734446000001,shoe,None,1446.0734755000003,1446.0898597,1446.0898597,1446.6402387000003,j,0.5374876999999287,None,1446.0898597,1446.0898597,1446.0898597,,,,,,,,,,,,00027,001,2025-11-14_16h15.34.724,MST_task,2024.2.2,59.96343429774439,2025-11-14 16h15.46.176029 +0530,
,Objects\244a.jpg,72,0,72,,,,,,,None,f,0.6179081000000224,None,,,,,,,72,0,72,0,1446.6565110000001,,,,,,,,,,,,,,,,,,,,,,,1446.6403108,1446.6565110000001,1447.1560887,1447.1399903000001,,,,,,,,,,,,,,,,,,,,,,,,,,1447.1508638,1447.1560887,1447.1560887,1447.1560887,1450.1400371,shoe,None,1450.1400712,1450.1564407,1450.1564407,1450.7901356000002,f,0.6179081000000224,None,1450.1564407,1450.1564407,1450.1564407,,,,,,,,,,,,00027,001,2025-11-14_16h15.34.724,MST_task,2024.2.2,59.96343429774439,2025-11-14 16h15.46.176029 +0530,
,Objects\072a.jpg,73,0,73,,,,,,,None,f,1.2258600999998635,None,,,,,,,73,0,73,0,1450.8064875,,,,,,,,,,,,,,,,,,,,,,,1450.790203,1450.8064875,1451.3231463000002,1451.2898962,,,,,,,,,,,,,,,,,,,,,,,,,,1451.3021143,1451.3231463000002,1451.3231463000002,1451.3231463000002,1454.3064600000002,shoe,None,1454.3064954000001,1454.3230533,1454.3230533,1455.5566629,f,1.2258600999998635,None,,,,,,,,,,,,,,,00027,001,2025-11-14_16h15.34.724,MST_task,2024.2.2,59.96343429774439,2025-11-14 16h15.46.176029 +0530,
,Objects\304a.jpg,74,0,74,,,,,,,None,f,1.0061119000001781,None,,,,,,,74,0,74,0,1455.5729822000003,,,,,,,,,,,,,,,,,,,,,,,1455.5567314,1455.5729822000003,1456.0725644,1456.0564644,,,,,,,,,,,,,,,,,,,,,,,,,,1456.0677538,1456.0725644,1456.0725644,1456.0725644,1459.0565462,shoe,None,1459.0565756,1459.0729091000003,1459.0729091000003,1460.0898188,f,1.0061119000001781,None,1459.0729091000003,1459.0729091000003,1459.0729091000003,,,,,,,,,,,,00027,001,2025-11-14_16h15.34.724,MST_task,2024.2.2,59.96343429774439,2025-11-14 16h15.46.176029 +0530,
,Objects\041a.jpg,75,0,75,,,,,,,j,None,,,2.7201530000002094,0.08794149999994261,,,,,75,0,75,0,1460.1062299,,,,,,,,,,,,,,,,,,,,,,,1460.0899216000003,1460.1062299,1460.6228537000002,1460.5897335,,,,,,,,,,,,,,,,,,,,,,,,,,1460.6121147000003,1460.6228537000002,1460.6228537000002,1460.6228537000002,1463.6062041,shoe,j,1463.6062391,,,1463.6062487,None,,,,,,2.7201530000002094,0.08794149999994261,,,,,,,,,,00027,001,2025-11-14_16h15.34.724,MST_task,2024.2.2,59.96343429774439,2025-11-14 16h15.46.176029 +0530,
,Objects\155a.jpg,76,0,76,,,,,,,f,None,,,1.714531199999783,0.11188270000002376,,,,,76,0,76,0,1463.6228517,,,,,,,,,,,,,,,,,,,,,,,1463.6063306,1463.6228517,1464.1227812000002,1464.1063210000002,,,,,,,,,,,,,,,,,,,,,,,,,,1464.1143014,1464.1227812000002,1464.1227812000002,1464.1227812000002,1467.1063344,shoe,f,1467.1063669,,,1467.1063749,None,,,1467.1227752,1467.1227752,1467.1227752,1.714531199999783,0.11188270000002376,,,,,,,,,,00027,001,2025-11-14_16h15.34.724,MST_task,2024.2.2,59.96343429774439,2025-11-14 16h15.46.176029 +0530,
,Objects\174a.jpg,77,0,77,,,,,,,f,None,,,2.3701164999997673,0.15786449999995966,,,,,77,0,77,0,1467.1227752,,,,,,,,,,,,,,,,,,,,,,,1467.1064555000003,1467.1227752,1467.6227024,1467.6063345000002,,,,,,,,,,,,,,,,,,,,,,,,,,1467.615193,1467.6227024,1467.6227024,1467.6227024,1470.6063702000001,indoor,f,1470.6074834,,,1470.6074935000001,None,,,1470.6226766,1470.6226766,1470.6226766,2.3701164999997673,0.15786449999995966,,,,,,,,,,00027,001,2025-11-14_16h15.34.724,MST_task,2024.2.2,59.96343429774439,2025-11-14 16h15.46.176029 +0530,
,Objects\171a.jpg,78,0,78,,,,,,,f,None,,,2.802613100000144,0.13728849999961312,,,,,78,0,78,0,1470.6226766,,,,,,,,,,,,,,,,,,,,,,,1470.6075465,1470.6226766,1471.1226267000002,1471.1061456000002,,,,,,,,,,,,,,,,,,,,,,,,,,1471.1138973000002,1471.1226267000002,1471.1226267000002,1471.1226267000002,1474.1062379,indoor,f,1474.1062744,,,1474.1062824,None,,,1474.1226578,1474.1226578,1474.1226578,2.802613100000144,0.13728849999961312,,,,,,,,,,00027,001,2025-11-14_16h15.34.724,MST_task,2024.2.2,59.96343429774439,2025-11-14 16h15.46.176029 +0530,
,Objects\114a.jpg,79,0,79,,,,,,,None,j,1.5619532999999137,None,,,,,,,79,0,79,0,1474.1226578,,,,,,,,,,,,,,,,,,,,,,,1474.1063330000002,1474.1226578,1474.6225589,1474.6060648000002,,,,,,,,,,,,,,,,,,,,,,,,,,1474.6136318000003,1474.6225589,1474.6225589,1474.6225589,1477.6061401000002,indoor,None,1477.6061713,1477.6225258,1477.6225258,1479.1895344,j,1.5619532999999137,None,1477.6225258,1477.6225258,1477.6225258,,,,,,,,,,,,00027,001,2025-11-14_16h15.34.724,MST_task,2024.2.2,59.96343429774439,2025-11-14 16h15.46.176029 +0530,
,Objects\282a.jpg,80,0,80,,,,,,,None,f,0.6447450999999091,None,,,,,,,80,0,80,0,1479.2058293,,,,,,,,,,,,,,,,,,,,,,,1479.1896059,1479.2058293,1479.7058079000003,1479.6894123000002,,,,,,,,,,,,,,,,,,,,,,,,,,1479.6971865,1479.7058079000003,1479.7058079000003,1479.7058079000003,1482.6892825,indoor,None,1482.6893123,1482.7057488,1482.7057488,1483.3560721000003,f,0.6447450999999091,None,1482.7057488,1482.7057488,1482.7057488,,,,,,,,,,,,00027,001,2025-11-14_16h15.34.724,MST_task,2024.2.2,59.96343429774439,2025-11-14 16h15.46.176029 +0530,
,Objects\201a.jpg,81,0,81,,,,,,,None,f,0.695008499999858,None,,,,,,,81,0,81,0,1483.3723837000002,,,,,,,,,,,,,,,,,,,,,,,1483.3561396,1483.3723837000002,1483.8723574,1483.8558777000003,,,,,,,,,,,,,,,,,,,,,,,,,,1483.8663371000002,1483.8723574,1483.8723574,1483.8723574,1486.8559104,indoor,None,1486.8559414000001,1486.8722902,1486.8722902,1487.5725569,f,0.695008499999858,None,1486.8722902,1486.8722902,1486.8722902,,,,,,,,,,,,00027,001,2025-11-14_16h15.34.724,MST_task,2024.2.2,59.96343429774439,2025-11-14 16h15.46.176029 +0530,
,Objects\192a.jpg,82,0,82,,,,,,,None,j,0.6221537999999782,None,,,,,,,82,0,82,0,1487.5889785,,,,,,,,,,,,,,,,,,,,,,,1487.5726248,1487.5889785,1488.0889843,1488.0724261,,,,,,,,,,,,,,,,,,,,,,,,,,1488.0829537,1488.0889843,1488.0889843,1488.0889843,1491.0725150000003,indoor,None,1491.0725449000001,1491.0888657,1491.0888657,1491.7224776000003,j,0.6221537999999782,None,1491.0888657,1491.0888657,1491.0888657,,,,,,,,,,,,00027,001,2025-11-14_16h15.34.724,MST_task,2024.2.2,59.96343429774439,2025-11-14 16h15.46.176029 +0530,
,Objects\003a.jpg,83,0,83,,,,,,,None,j,0.5284434999998666,None,,,,,,,83,0,83,0,1491.7388916,,,,,,,,,,,,,,,,,,,,,,,1491.722542,1491.7388916,1492.238851,1492.22235,,,,,,,,,,,,,,,,,,,,,,,,,,1492.2297729000002,1492.238851,1492.238851,1492.238851,1495.2223863,indoor,None,1495.2224154,1495.2388225,1495.2388225,1495.7724319,j,0.5284434999998666,None,1495.2388225,1495.2388225,1495.2388225,,,,,,,,,,,,00027,001,2025-11-14_16h15.34.724,MST_task,2024.2.2,59.96343429774439,2025-11-14 16h15.46.176029 +0530,
,Objects\331a.jpg,84,0,84,,,,,,,None,j,0.7616094999998495,None,,,,,,,84,0,84,0,1495.7887723000003,,,,,,,,,,,,,,,,,,,,,,,1495.7725073000001,1495.7887723000003,1496.2887539000003,1496.2722782,,,,,,,,,,,,,,,,,,,,,,,,,,1496.2840349000003,1496.2887539000003,1496.2887539000003,1496.2887539000003,1499.272395,shoe,None,1499.2739711,1499.2888179000001,1499.2888179000001,1500.0557166000003,j,0.7616094999998495,None,1499.2888179000001,1499.2888179000001,1499.2888179000001,,,,,,,,,,,,00027,001,2025-11-14_16h15.34.724,MST_task,2024.2.2,59.96343429774439,2025-11-14 16h15.46.176029 +0530,
,Objects\024a.jpg,85,0,85,,,,,,,None,f,0.6085818000001382,None,,,,,,,85,0,85,0,1500.0720506000002,,,,,,,,,,,,,,,,,,,,,,,1500.0557882000003,1500.0720506000002,1500.5719985,1500.5555243000003,,,,,,,,,,,,,,,,,,,,,,,,,,1500.5663960000002,1500.5719985,1500.5719985,1500.5719985,1503.5555788000001,shoe,None,1503.5556140000003,1503.5719670000003,1503.5719670000003,1504.1890155,f,0.6085818000001382,None,1503.5719670000003,1503.5719670000003,1503.5719670000003,,,,,,,,,,,,00027,001,2025-11-14_16h15.34.724,MST_task,2024.2.2,59.96343429774439,2025-11-14 16h15.46.176029 +0530,
,Objects\245a.jpg,86,0,86,,,,,,,None,f,0.6295095999998921,None,,,,,,,86,0,86,0,1504.2052576,,,,,,,,,,,,,,,,,,,,,,,1504.1891094000002,1504.2052576,1504.7052604,1504.6888094,,,,,,,,,,,,,,,,,,,,,,,,,,1504.6962156,1504.7052604,1504.7052604,1504.7052604,1507.6887972,shoe,None,1507.6888273,1507.7051869000002,1507.7051869000002,1508.338796,f,0.6295095999998921,None,1507.7051869000002,1507.7051869000002,1507.7051869000002,,,,,,,,,,,,00027,001,2025-11-14_16h15.34.724,MST_task,2024.2.2,59.96343429774439,2025-11-14 16h15.46.176029 +0530,
,Objects\300a.jpg,87,0,87,,,,,,,None,f,0.49094220000006317,None,,,,,,,87,0,87,0,1508.3551970000003,,,,,,,,,,,,,,,,,,,,,,,1508.3388761,1508.3551970000003,1508.8718807,1508.8386724000002,,,,,,,,,,,,,,,,,,,,,,,,,,1508.8507958,1508.8718807,1508.8718807,1508.8718807,1511.8552032000002,shoe,None,1511.8552385000003,1511.8717973000003,1511.8717973000003,1512.3720412000002,f,0.49094220000006317,None,,,,,,,,,,,,,,,00027,001,2025-11-14_16h15.34.724,MST_task,2024.2.2,59.96343429774439,2025-11-14 16h15.46.176029 +0530,
,Objects\136a.jpg,88,0,88,,,,,,,None,f,0.7500127000002976,None,,,,,,,88,0,88,0,1512.3884717,,,,,,,,,,,,,,,,,,,,,,,1512.3721115000003,1512.3884717,1512.9051018,1512.8719416,,,,,,,,,,,,,,,,,,,,,,,,,,1512.8842492000003,1512.9051018,1512.9051018,1512.9051018,1515.8884351000002,shoe,None,1515.8884674,1515.9050367,1515.9050367,1516.6554113000002,f,0.7500127000002976,None,,,,,,,,,,,,,,,00027,001,2025-11-14_16h15.34.724,MST_task,2024.2.2,59.96343429774439,2025-11-14 16h15.46.176029 +0530,
,Objects\223a.jpg,89,0,89,,,,,,,None,j,0.515824099999918,None,,,,,,,89,0,89,0,1516.6716933000002,,,,,,,,,,,,,,,,,,,,,,,1516.65551,1516.6716933000002,1517.1716532,1517.155194,,,,,,,,,,,,,,,,,,,,,,,,,,1517.1625067,1517.1716532,1517.1716532,1517.1716532,1520.1551991000001,shoe,None,1520.1552298000001,1520.1716284,1520.1716284,1520.6885626000003,j,0.515824099999918,None,1520.1716284,1520.1716284,1520.1716284,,,,,,,,,,,,00027,001,2025-11-14_16h15.34.724,MST_task,2024.2.2,59.96343429774439,2025-11-14 16h15.46.176029 +0530,
,Objects\352a.jpg,90,0,90,,,,,,,None,f,0.43382999999994354,None,,,,,,,90,0,90,0,1520.7049384000002,,,,,,,,,,,,,,,,,,,,,,,1520.688659,1520.7049384000002,1521.2048921,1521.1884711000002,,,,,,,,,,,,,,,,,,,,,,,,,,1521.198738,1521.2048921,1521.2048921,1521.2048921,1524.1884746,shoe,None,1524.1885040000002,1524.2048815000003,1524.2048815000003,1524.6551239,f,0.43382999999994354,None,1524.2048815000003,1524.2048815000003,1524.2048815000003,,,,,,,,,,,,00027,001,2025-11-14_16h15.34.724,MST_task,2024.2.2,59.96343429774439,2025-11-14 16h15.46.176029 +0530,
,Objects\132a.jpg,91,0,91,,,,,,,None,j,0.35856650000005175,None,,,,,,,91,0,91,0,1524.6715198000002,,,,,,,,,,,,,,,,,,,,,,,1524.6552043000002,1524.6715198000002,1525.1881837,1525.1549909,,,,,,,,,,,,,,,,,,,,,,,,,,1525.1667417000003,1525.1881837,1525.1881837,1525.1881837,1528.1716153000002,indoor,None,1528.1730191000001,1528.1880913,1528.1880913,1528.5550251,j,0.35856650000005175,None,,,,,,,,,,,,,,,00027,001,2025-11-14_16h15.34.724,MST_task,2024.2.2,59.96343429774439,2025-11-14 16h15.46.176029 +0530,
,Objects\080a.jpg,92,0,92,,,,,,,None,f,0.40505599999960396,None,,,,,,,92,0,92,0,1528.571406,,,,,,,,,,,,,,,,,,,,,,,1528.5550973,1528.571406,1529.0713972000003,1529.0549431,,,,,,,,,,,,,,,,,,,,,,,,,,1529.0629145000003,1529.0713972000003,1529.0713972000003,1529.0713972000003,1532.0549146000003,indoor,None,1532.0549466000002,1532.0713711000003,1532.0713711000003,1532.4883222000003,f,0.40505599999960396,None,1532.0713711000003,1532.0713711000003,1532.0713711000003,,,,,,,,,,,,00027,001,2025-11-14_16h15.34.724,MST_task,2024.2.2,59.96343429774439,2025-11-14 16h15.46.176029 +0530,
,Objects\218a.jpg,93,0,93,,,,,,,None,j,0.9462064999997892,None,,,,,,,93,0,93,0,1532.5046942,,,,,,,,,,,,,,,,,,,,,,,1532.4883987000003,1532.5046942,1533.0046767000003,1532.9881628000003,,,,,,,,,,,,,,,,,,,,,,,,,,1532.9984568,1533.0046767000003,1533.0046767000003,1533.0046767000003,1535.9882053000001,indoor,None,1535.9882354000001,1536.0046207,1536.0046207,1536.9548643000003,j,0.9462064999997892,None,1536.0046207,1536.0046207,1536.0046207,,,,,,,,,,,,00027,001,2025-11-14_16h15.34.724,MST_task,2024.2.2,59.96343429774439,2025-11-14 16h15.46.176029 +0530,
,Objects\097a.jpg,94,0,94,,,,,,,None,j,0.429994699999952,None,,,,,,,94,0,94,0,1536.9712727,,,,,,,,,,,,,,,,,,,,,,,1536.9549343000003,1536.9712727,1537.4712748000002,1537.4547023,,,,,,,,,,,,,,,,,,,,,,,,,,1537.4651998,1537.4712748000002,1537.4712748000002,1537.4712748000002,1540.4548330000002,indoor,None,1540.4548645,1540.4711537000003,1540.4711537000003,1540.904767,j,0.429994699999952,None,1540.4711537000003,1540.4711537000003,1540.4711537000003,,,,,,,,,,,,00027,001,2025-11-14_16h15.34.724,MST_task,2024.2.2,59.96343429774439,2025-11-14 16h15.46.176029 +0530,
,Objects\324a.jpg,95,0,95,,,,,,,None,f,0.451512300000104,None,,,,,,,95,0,95,0,1540.9211816000002,,,,,,,,,,,,,,,,,,,,,,,1540.9048359000003,1540.9211816000002,1541.4211559,1541.4046616,,,,,,,,,,,,,,,,,,,,,,,,,,1541.415527,1541.4211559,1541.4211559,1541.4211559,1544.4046667000002,indoor,None,1544.4046972,1544.4211077,1544.4211077,1544.8880192000001,f,0.451512300000104,None,1544.4211077,1544.4211077,1544.4211077,,,,,,,,,,,,00027,001,2025-11-14_16h15.34.724,MST_task,2024.2.2,59.96343429774439,2025-11-14 16h15.46.176029 +0530,
,Objects\342a.jpg,96,0,96,,,,,,,None,f,0.41204060000018217,None,,,,,,,96,0,96,0,1544.9044497,,,,,,,,,,,,,,,,,,,,,,,1544.8880949,1544.9044497,1545.4039989000003,1545.3880160000003,,,,,,,,,,,,,,,,,,,,,,,,,,1545.3986783,1545.4039989000003,1545.4039989000003,1545.4039989000003,1548.3878952,indoor,None,1548.3879298000002,1548.4043582,1548.4043582,1548.8212688000003,f,0.41204060000018217,None,1548.4043582,1548.4043582,1548.4043582,,,,,,,,,,,,00027,001,2025-11-14_16h15.34.724,MST_task,2024.2.2,59.96343429774439,2025-11-14 16h15.46.176029 +0530,
,Objects\112a.jpg,97,0,97,,,,,,,None,f,0.3994318000000021,None,,,,,,,97,0,97,0,1548.8376701000002,,,,,,,,,,,,,,,,,,,,,,,1548.8213441000003,1548.8376701000002,1549.3376371,1549.32116,,,,,,,,,,,,,,,,,,,,,,,,,,1549.3290725000002,1549.3376371,1549.3376371,1549.3376371,1552.3212174,indoor,None,1552.3212527,1552.3376409000002,1552.3376409000002,1552.7378915,f,0.3994318000000021,None,1552.3376409000002,1552.3376409000002,1552.3376409000002,,,,,,,,,,,,00027,001,2025-11-14_16h15.34.724,MST_task,2024.2.2,59.96343429774439,2025-11-14 16h15.46.176029 +0530,
,Objects\273a.jpg,98,0,98,,,,,,,None,j,0.5620073999998567,None,,,,,,,98,0,98,0,1552.7543028,,,,,,,,,,,,,,,,,,,,,,,1552.7379668000003,1552.7543028,1553.2542158,1553.2377249,,,,,,,,,,,,,,,,,,,,,,,,,,1553.2467106,1553.2542158,1553.2542158,1553.2542158,1556.2377569,shoe,None,1556.2392564000002,1556.2541876,1556.2541876,1556.8211909000001,j,0.5620073999998567,None,1556.2541876,1556.2541876,1556.2541876,,,,,,,,,,,,00027,001,2025-11-14_16h15.34.724,MST_task,2024.2.2,59.96343429774439,2025-11-14 16h15.46.176029 +0530,
,Objects\234a.jpg,99,0,99,,,,,,,None,j,0.46384630000011384,None,,,,,,,99,0,99,0,1556.8375168000002,,,,,,,,,,,,,,,,,,,,,,,1556.8212685000003,1556.8375168000002,1557.3374767,1557.3209761000003,,,,,,,,,,,,,,,,,,,,,,,,,,1557.3284289000003,1557.3374767,1557.3374767,1557.3374767,1560.3212173000002,shoe,None,1560.321249,1560.3374283000003,1560.3374283000003,1560.8044281000002,j,0.46384630000011384,None,1560.3374283000003,1560.3374283000003,1560.3374283000003,,,,,,,,,,,,00027,001,2025-11-14_16h15.34.724,MST_task,2024.2.2,59.96343429774439,2025-11-14 16h15.46.176029 +0530,
,Objects\010a.jpg,100,0,100,,,,,,,None,f,1.0176982000002681,None,,,,,,,100,0,100,0,1560.8207584000002,,,,,,,,,,,,,,,,,,,,,,,1560.8044986,1560.8207584000002,1561.3207263,1561.3043093,,,,,,,,,,,,,,,,,,,,,,,,,,1561.3116880000002,1561.3207263,1561.3207263,1561.3207263,1564.3042312000002,shoe,None,1564.3042611,1564.3206868000002,1564.3206868000002,1565.3543058,f,1.0176982000002681,None,1564.3206868000002,1564.3206868000002,1564.3206868000002,,,,,,,,,,,,00027,001,2025-11-14_16h15.34.724,MST_task,2024.2.2,59.96343429774439,2025-11-14 16h15.46.176029 +0530,
,Objects\198a.jpg,101,0,101,,,,,,,None,f,1.4446171999998114,None,,,,,,,101,0,101,0,1565.3707259000003,,,,,,,,,,,,,,,,,,,,,,,1565.3543783,1565.3707259000003,1565.8706158,1565.8541327000003,,,,,,,,,,,,,,,,,,,,,,,,,,1565.8615449,1565.8706158,1565.8706158,1565.8706158,1568.8541709,shoe,None,1568.8542015000003,1568.8705828000002,1568.8705828000002,1570.3208690000001,f,1.4446171999998114,None,1568.8705828000002,1568.8705828000002,1568.8705828000002,,,,,,,,,,,,00027,001,2025-11-14_16h15.34.724,MST_task,2024.2.2,59.96343429774439,2025-11-14 16h15.46.176029 +0530,
,Objects\360a.jpg,102,0,102,,,,,,,None,f,1.0449275000000853,None,,,,,,,102,0,102,0,1570.3372009,,,,,,,,,,,,,,,,,,,,,,,1570.3209494000002,1570.3372009,1570.8538419000001,1570.8206926000003,,,,,,,,,,,,,,,,,,,,,,,,,,1570.8330206,1570.8538419000001,1570.8538419000001,1570.8538419000001,1573.8372300000005,shoe,None,1573.8372719000004,1573.8538074000003,1573.8538074000003,1574.9040781999997,f,1.0449275000000853,None,,,,,,,,,,,,,,,00027,001,2025-11-14_16h15.34.724,MST_task,2024.2.2,59.96343429774439,2025-11-14 16h15.46.176029 +0530,
,Objects\241a.jpg,103,0,103,,,,,,,None,f,0.6614607999999862,None,,,,,,,103,0,103,0,1574.9204917000002,,,,,,,,,,,,,,,,,,,,,,,1574.9041505,1574.9204917000002,1575.4371753,1575.4040443,,,,,,,,,,,,,,,,,,,,,,,,,,1575.4156785,1575.4371753,1575.4371753,1575.4371753,1578.4204059999997,shoe,None,1578.4204376000002,1578.4370417000005,1578.4370417000005,1579.1040073,f,0.6614607999999862,None,,,,,,,,,,,,,,,00027,001,2025-11-14_16h15.34.724,MST_task,2024.2.2,59.96343429774439,2025-11-14 16h15.46.176029 +0530,
,Objects\259a.jpg,104,0,104,,,,,,,None,j,0.45573890000014217,None,,,,,,,104,0,104,0,1579.1203379000003,,,,,,,,,,,,,,,,,,,,,,,1579.104081,1579.1203379000003,1579.6369866,1579.6038346999999,,,,,,,,,,,,,,,,,,,,,,,,,,1579.6163825999997,1579.6369866,1579.6369866,1579.6369866,1582.6203359000006,shoe,None,1582.6203688,1582.6369214000001,1582.6369214000001,1583.104017,j,0.45573890000014217,None,,,,,,,,,,,,,,,00027,001,2025-11-14_16h15.34.724,MST_task,2024.2.2,59.96343429774439,2025-11-14 16h15.46.176029 +0530,
,Objects\147a.jpg,105,0,105,,,,,,,None,f,0.5459190999999919,None,,,,,,,105,0,105,0,1583.1202796000002,,,,,,,,,,,,,,,,,,,,,,,1583.1040944000001,1583.1202796000002,1583.6369031,1583.6038266,,,,,,,,,,,,,,,,,,,,,,,,,,1583.6161521,1583.6369031,1583.6369031,1583.6369031,1586.6203762,indoor,None,1586.6216790000003,1586.6368306999998,1586.6368306999998,1587.1872552999998,f,0.5459190999999919,None,,,,,,,,,,,,,,,00027,001,2025-11-14_16h15.34.724,MST_task,2024.2.2,59.96343429774439,2025-11-14 16h15.46.176029 +0530,
,Objects\043a.jpg,106,0,106,,,,,,,None,f,0.330880900000011,None,,,,,,,106,0,106,0,1587.2035370999997,,,,,,,,,,,,,,,,,,,,,,,1587.1873216999998,1587.2035370999997,1587.7034874000005,1587.6870744000003,,,,,,,,,,,,,,,,,,,,,,,,,,1587.6945895000003,1587.7034874000005,1587.7034874000005,1587.7034874000005,1590.6870138999998,indoor,None,1590.6870452999997,1590.7034544000003,1590.7034544000003,1591.0370280000002,f,0.330880900000011,None,1590.7034544000003,1590.7034544000003,1590.7034544000003,,,,,,,,,,,,00027,001,2025-11-14_16h15.34.724,MST_task,2024.2.2,59.96343429774439,2025-11-14 16h15.46.176029 +0530,
,Objects\075a.jpg,107,0,107,,,,,,,None,j,0.34202389999973093,None,,,,,,,107,0,107,0,1591.0534444,,,,,,,,,,,,,,,,,,,,,,,1591.0370945,1591.0534444,1591.5534166000002,1591.5369127,,,,,,,,,,,,,,,,,,,,,,,,,,1591.5443971,1591.5534166000002,1591.5534166000002,1591.5534166000002,1594.5369502999997,indoor,None,1594.5369809999997,1594.5533332,1594.5533332,1594.9037584000002,j,0.34202389999973093,None,1594.5533332,1594.5533332,1594.5533332,,,,,,,,,,,,00027,001,2025-11-14_16h15.34.724,MST_task,2024.2.2,59.96343429774439,2025-11-14 16h15.46.176029 +0530,
,Objects\270a.jpg,108,0,108,,,,,,,None,j,0.37673630000062985,None,,,,,,,108,0,108,0,1594.9200246000005,,,,,,,,,,,,,,,,,,,,,,,1594.9038237,1594.9200246000005,1595.4199808999997,1595.4035047000002,,,,,,,,,,,,,,,,,,,,,,,,,,1595.4129880000005,1595.4199808999997,1595.4199808999997,1595.4199808999997,1598.4036602,indoor,None,1598.4036898,1598.4199474000002,1598.4199474000002,1598.8038725000001,j,0.37673630000062985,None,1598.4199474000002,1598.4199474000002,1598.4199474000002,,,,,,,,,,,,00027,001,2025-11-14_16h15.34.724,MST_task,2024.2.2,59.96343429774439,2025-11-14 16h15.46.176029 +0530,
,Objects\340a.jpg,109,0,109,,,,,,,None,f,1.1584723999994821,None,,,,,,,109,0,109,0,1598.8199538000003,,,,,,,,,,,,,,,,,,,,,,,1598.8039689000002,1598.8199538000003,1599.3199297000006,1599.3036238,,,,,,,,,,,,,,,,,,,,,,,,,,1599.3135747000001,1599.3199297000006,1599.3199297000006,1599.3199297000006,1602.3034291,indoor,None,1602.3034622,1602.3198661000001,1602.3198661000001,1603.4868428000004,f,1.1584723999994821,None,1602.3198661000001,1602.3198661000001,1602.3198661000001,,,,,,,,,,,,00027,001,2025-11-14_16h15.34.724,MST_task,2024.2.2,59.96343429774439,2025-11-14 16h15.46.176029 +0530,
,Objects\175a.jpg,110,0,110,,,,,,,None,f,0.6278633000001719,None,,,,,,,110,0,110,0,1603.5031800000002,,,,,,,,,,,,,,,,,,,,,,,1603.4869230999998,1603.5031800000002,1604.0027504000004,1603.9867797000002,,,,,,,,,,,,,,,,,,,,,,,,,,1603.9975426000005,1604.0027504000004,1604.0027504000004,1604.0027504000004,1606.9866942000003,indoor,None,1606.9867281000002,1607.0031153000004,1607.0031153000004,1607.6368267000003,f,0.6278633000001719,None,1607.0031153000004,1607.0031153000004,1607.0031153000004,,,,,,,,,,,,00027,001,2025-11-14_16h15.34.724,MST_task,2024.2.2,59.96343429774439,2025-11-14 16h15.46.176029 +0530,
,Objects\176a.jpg,111,0,111,,,,,,,None,f,0.6524652999996761,None,,,,,,,111,0,111,0,1607.6530954000004,,,,,,,,,,,,,,,,,,,,,,,1607.6369070000005,1607.6530954000004,1608.1530490999999,1608.1365766000004,,,,,,,,,,,,,,,,,,,,,,,,,,1608.144538,1608.1530490999999,1608.1530490999999,1608.1530490999999,1611.1366148000002,indoor,None,1611.1366465000006,1611.1530226999998,1611.1530226999998,1611.8200194000005,f,0.6524652999996761,None,1611.1530226999998,1611.1530226999998,1611.1530226999998,,,,,,,,,,,,00027,001,2025-11-14_16h15.34.724,MST_task,2024.2.2,59.96343429774439,2025-11-14 16h15.46.176029 +0530,
,Objects\255a.jpg,112,0,112,,,,,,,None,f,0.8498988000001191,None,,,,,,,112,0,112,0,1611.8363372,,,,,,,,,,,,,,,,,,,,,,,1611.8201007000002,1611.8363372,1612.3530173000004,1612.319951,,,,,,,,,,,,,,,,,,,,,,,,,,1612.3318162,1612.3530173000004,1612.3530173000004,1612.3530173000004,1615.3363277000003,shoe,None,1615.3379076000006,1615.3529332000003,1615.3529332000003,1616.2033535000005,f,0.8498988000001191,None,,,,,,,,,,,,,,,00027,001,2025-11-14_16h15.34.724,MST_task,2024.2.2,59.96343429774439,2025-11-14 16h15.46.176029 +0530,
,Objects\120a.jpg,113,0,113,,,,,,,None,f,0.3874067000006107,None,,,,,,,113,0,113,0,1616.2195836000005,,,,,,,,,,,,,,,,,,,,,,,1616.2034313,1616.2195836000005,1616.7191539,1616.7031155999998,,,,,,,,,,,,,,,,,,,,,,,,,,1616.7142747000003,1616.7191539,1616.7191539,1616.7191539,1619.7030813000006,shoe,None,1619.7031156999997,1619.7195085999997,1619.7195085999997,1620.1198430999998,f,0.3874067000006107,None,1619.7195085999997,1619.7195085999997,1619.7195085999997,,,,,,,,,,,,00027,001,2025-11-14_16h15.34.724,MST_task,2024.2.2,59.96343429774439,2025-11-14 16h15.46.176029 +0530,
,Objects\207a.jpg,114,0,114,,,,,,,None,f,1.2687544000000344,None,,,,,,,114,0,114,0,1620.1361579999998,,,,,,,,,,,,,,,,,,,,,,,1620.1199141000002,1620.1361579999998,1620.6357318000005,1620.6197263,,,,,,,,,,,,,,,,,,,,,,,,,,1620.6305392,1620.6357318000005,1620.6357318000005,1620.6357318000005,1623.6196391999997,shoe,None,1623.6196700000005,1623.6360785000002,1623.6360785000002,1624.9197522,f,1.2687544000000344,None,1623.6360785000002,1623.6360785000002,1623.6360785000002,,,,,,,,,,,,00027,001,2025-11-14_16h15.34.724,MST_task,2024.2.2,59.96343429774439,2025-11-14 16h15.46.176029 +0530,
,Objects\339a.jpg,115,0,115,,,,,,,None,j,0.36130539999976463,None,,,,,,,115,0,115,0,1624.9360579,,,,,,,,,,,,,,,,,,,,,,,1624.9198287000004,1624.9360579,1625.4360372000006,1625.4195928000004,,,,,,,,,,,,,,,,,,,,,,,,,,1625.4301835,1625.4360372000006,1625.4360372000006,1625.4360372000006,1628.4195482,shoe,None,1628.4195796999998,1628.4359835999999,1628.4359835999999,1628.8029517999998,j,0.36130539999976463,None,1628.4359835999999,1628.4359835999999,1628.4359835999999,,,,,,,,,,,,00027,001,2025-11-14_16h15.34.724,MST_task,2024.2.2,59.96343429774439,2025-11-14 16h15.46.176029 +0530,
,Objects\128a.jpg,116,0,116,,,,,,,None,f,0.285023700000238,None,,,,,,,116,0,116,0,1628.8193156000002,,,,,,,,,,,,,,,,,,,,,,,1628.8030234000003,1628.8193156000002,1629.3359373999997,1629.3028239999999,,,,,,,,,,,,,,,,,,,,,,,,,,1629.3132256000004,1629.3359373999997,1629.3359373999997,1629.3359373999997,1632.3192577000004,shoe,None,1632.3192898000002,1632.3359341999999,1632.3359341999999,1632.6362352,f,0.285023700000238,None,,,,,,,,,,,,,,,00027,001,2025-11-14_16h15.34.724,MST_task,2024.2.2,59.96343429774439,2025-11-14 16h15.46.176029 +0530,
,Objects\159a.jpg,117,0,117,,,,,,,None,f,0.35028980000060983,None,,,,,,,117,0,117,0,1632.6525567000003,,,,,,,,,,,,,,,,,,,,,,,1632.6363043000006,1632.6525567000003,1633.1525508999998,1633.1360648000004,,,,,,,,,,,,,,,,,,,,,,,,,,1633.1450823,1633.1525508999998,1633.1525508999998,1633.1525508999998,1636.1360684000006,shoe,None,1636.1361044,1636.1524851999998,1636.1524851999998,1636.5194717,f,0.35028980000060983,None,1636.1524851999998,1636.1524851999998,1636.1524851999998,,,,,,,,,,,,00027,001,2025-11-14_16h15.34.724,MST_task,2024.2.2,59.96343429774439,2025-11-14 16h15.46.176029 +0530,
,Objects\337a.jpg,118,0,118,,,,,,,None,j,1.188017200000104,None,,,,,,,118,0,118,0,1636.5358103000003,,,,,,,,,,,,,,,,,,,,,,,1636.5195827000002,1636.5358103000003,1637.0524246999998,1637.0193320000003,,,,,,,,,,,,,,,,,,,,,,,,,,1637.0315356000006,1637.0524246999998,1637.0524246999998,1637.0524246999998,1640.0358416000004,shoe,None,1640.0358750999999,1640.0531805000005,1640.0531805000005,1641.2526714,j,1.188017200000104,None,,,,,,,,,,,,,,,00027,001,2025-11-14_16h15.34.724,MST_task,2024.2.2,59.96343429774439,2025-11-14 16h15.46.176029 +0530,
,Objects\363a.jpg,119,0,119,,,,,,,None,f,0.4545208999998067,None,,,,,,,119,0,119,0,1641.2690497999997,,,,,,,,,,,,,,,,,,,,,,,1641.252744,1641.2690497999997,1641.7857377000005,1641.7525056999998,,,,,,,,,,,,,,,,,,,,,,,,,,1641.7647481,1641.7857377000005,1641.7857377000005,1641.7857377000005,1644.7690233999997,indoor,None,1644.7703514999998,1644.7856370000004,1644.7856370000004,1645.2525480999998,f,0.4545208999998067,None,,,,,,,,,,,,,,,00027,001,2025-11-14_16h15.34.724,MST_task,2024.2.2,59.96343429774439,2025-11-14 16h15.46.176029 +0530,
,Objects\306a.jpg,120,0,120,,,,,,,None,f,0.35276840000005905,None,,,,,,,120,0,120,0,1645.2689633000005,,,,,,,,,,,,,,,,,,,,,,,1645.2526193999997,1645.2689633000005,1645.7685361,1645.7524238,,,,,,,,,,,,,,,,,,,,,,,,,,1645.7629100999998,1645.7685361,1645.7685361,1645.7685361,1648.7524719999997,indoor,None,1648.7525066000003,1648.7688881999998,1648.7688881999998,1649.1358006000005,f,0.35276840000005905,None,1648.7688881999998,1648.7688881999998,1648.7688881999998,,,,,,,,,,,,00027,001,2025-11-14_16h15.34.724,MST_task,2024.2.2,59.96343429774439,2025-11-14 16h15.46.176029 +0530,
,Objects\088a.jpg,121,0,121,,,,,,,None,f,0.3725395000001299,None,,,,,,,121,0,121,0,1649.1522086999998,,,,,,,,,,,,,,,,,,,,,,,1649.1358712000006,1649.1522086999998,1649.6521711,1649.6356625000003,,,,,,,,,,,,,,,,,,,,,,,,,,1649.6470615000003,1649.6521711,1649.6521711,1649.6521711,1652.6357189000005,indoor,None,1652.6357523000001,1652.6521018999997,1652.6521018999997,1653.0357980000003,f,0.3725395000001299,None,1652.6521018999997,1652.6521018999997,1652.6521018999997,,,,,,,,,,,,00027,001,2025-11-14_16h15.34.724,MST_task,2024.2.2,59.96343429774439,2025-11-14 16h15.46.176029 +0530,
,Objects\064a.jpg,122,0,122,,,,,,,None,j,0.34672150000005786,None,,,,,,,122,0,122,0,1653.0521193,,,,,,,,,,,,,,,,,,,,,,,1653.035864,1653.0521193,1653.5520902000003,1653.5356745000004,,,,,,,,,,,,,,,,,,,,,,,,,,1653.5435436000002,1653.5520902000003,1653.5520902000003,1653.5520902000003,1656.5356071,indoor,None,1656.5356367,1656.5520141000002,1656.5520141000002,1656.9023537999997,j,0.34672150000005786,None,1656.5520141000002,1656.5520141000002,1656.5520141000002,,,,,,,,,,,,00027,001,2025-11-14_16h15.34.724,MST_task,2024.2.2,59.96343429774439,2025-11-14 16h15.46.176029 +0530,
,Objects\334a.jpg,123,0,123,,,,,,,None,f,0.32059620000018185,None,,,,,,,123,0,123,0,1656.9187115999998,,,,,,,,,,,,,,,,,,,,,,,1656.9024157,1656.9187115999998,1657.4186633000004,1657.4022010000003,,,,,,,,,,,,,,,,,,,,,,,,,,1657.4093742999999,1657.4186633000004,1657.4186633000004,1657.4186633000004,1660.4022144000005,indoor,None,1660.4022448,1660.4186314000003,1660.4186314000003,1660.7522093000002,f,0.32059620000018185,None,1660.4186314000003,1660.4186314000003,1660.4186314000003,,,,,,,,,,,,00027,001,2025-11-14_16h15.34.724,MST_task,2024.2.2,59.96343429774439,2025-11-14 16h15.46.176029 +0530,
,Objects\059a.jpg,124,0,124,,,,,,,None,j,1.5580346999995527,None,,,,,,,124,0,124,0,1660.7686391000002,,,,,,,,,,,,,,,,,,,,,,,1660.7522796999997,1660.7686391000002,1661.2685924000002,1661.2521071000006,,,,,,,,,,,,,,,,,,,,,,,,,,1661.2601013999997,1661.2685924000002,1661.2685924000002,1661.2685924000002,1664.2521272999998,indoor,None,1664.2521588000004,1664.2685487000003,1664.2685487000003,1665.8354644000005,j,1.5580346999995527,None,1664.2685487000003,1664.2685487000003,1664.2685487000003,,,,,,,,,,,,00027,001,2025-11-14_16h15.34.724,MST_task,2024.2.2,59.96343429774439,2025-11-14 16h15.46.176029 +0530,
,Objects\252a.jpg,125,0,125,,,,,,,None,f,0.7707153000001199,None,,,,,,,125,0,125,0,1665.8518535999997,,,,,,,,,,,,,,,,,,,,,,,1665.8355366,1665.8518535999997,1666.3518301,1666.3353296999999,,,,,,,,,,,,,,,,,,,,,,,,,,1666.3430989000003,1666.3518301,1666.3518301,1666.3518301,1669.3353576000004,indoor,None,1669.3353881999997,1669.3517809,1669.3517809,1670.1353592,f,0.7707153000001199,None,1669.3517809,1669.3517809,1669.3517809,,,,,,,,,,,,00027,001,2025-11-14_16h15.34.724,MST_task,2024.2.2,59.96343429774439,2025-11-14 16h15.46.176029 +0530,
,Objects\124a.jpg,126,0,126,,,,,,,None,j,0.4687260000000606,None,,,,,,,126,0,126,0,1670.1517737,,,,,,,,,,,,,,,,,,,,,,,1670.1354346000003,1670.1517737,1670.6517211000005,1670.6352520000005,,,,,,,,,,,,,,,,,,,,,,,,,,1670.6448489,1670.6517211000005,1670.6517211000005,1670.6517211000005,1673.6352603,shoe,None,1673.6367372999998,1673.6516837000004,1673.6516837000004,1674.1352621,j,0.4687260000000606,None,1673.6516837000004,1673.6516837000004,1673.6516837000004,,,,,,,,,,,,00027,001,2025-11-14_16h15.34.724,MST_task,2024.2.2,59.96343429774439,2025-11-14 16h15.46.176029 +0530,
,Objects\009a.jpg,127,0,127,,,,,,,None,f,0.37745989999984886,None,,,,,,,127,0,127,0,1674.1516849000004,,,,,,,,,,,,,,,,,,,,,,,1674.1353565000004,1674.1516849000004,1674.6516302000005,1674.6351541,,,,,,,,,,,,,,,,,,,,,,,,,,1674.6428098000001,1674.6516302000005,1674.6516302000005,1674.6516302000005,1677.6352253999999,shoe,None,1677.6352571000002,1677.6515984000002,1677.6515984000002,1678.0352128999998,f,0.37745989999984886,None,1677.6515984000002,1677.6515984000002,1677.6515984000002,,,,,,,,,,,,00027,001,2025-11-14_16h15.34.724,MST_task,2024.2.2,59.96343429774439,2025-11-14 16h15.46.176029 +0530,
,Objects\107a.jpg,128,0,128,,,,,,,None,j,0.41674829999919893,None,,,,,,,128,0,128,0,1678.0515968000004,,,,,,,,,,,,,,,,,,,,,,,1678.0352748,1678.0515968000004,1678.5682441000004,1678.5351308000004,,,,,,,,,,,,,,,,,,,,,,,,,,1678.5516252000002,1678.5682441000004,1678.5682441000004,1678.5682441000004,1681.5515892999997,shoe,None,1681.5516230999997,1681.5681903,1681.5681903,1681.9853258999997,j,0.41674829999919893,None,,,,,,,,,,,,,,,00027,001,2025-11-14_16h15.34.724,MST_task,2024.2.2,59.96343429774439,2025-11-14 16h15.46.176029 +0530,
,Objects\248a.jpg,129,0,129,,,,,,,None,f,0.7326594999994995,None,,,,,,,129,0,129,0,1682.0015166999997,,,,,,,,,,,,,,,,,,,,,,,1681.9854259999997,1682.0015166999997,1682.5181548000005,1682.4850677,,,,,,,,,,,,,,,,,,,,,,,,,,1682.4971394999998,1682.5181548000005,1682.5181548000005,1682.5181548000005,1685.5015794000005,shoe,None,1685.5016126000005,1685.5181040000002,1685.5181040000002,1686.2517739,f,0.7326594999994995,None,,,,,,,,,,,,,,,00027,001,2025-11-14_16h15.34.724,MST_task,2024.2.2,59.96343429774439,2025-11-14 16h15.46.176029 +0530,
,Objects\163a.jpg,130,0,130,,,,,,,None,j,0.6812368999999308,None,,,,,,,130,0,130,0,1686.2680849000003,,,,,,,,,,,,,,,,,,,,,,,1686.2518516000005,1686.2680849000003,1686.7680393000005,1686.7515711,,,,,,,,,,,,,,,,,,,,,,,,,,1686.7622631,1686.7680393000005,1686.7680393000005,1686.7680393000005,1689.7516154,shoe,None,1689.7516448000001,1689.7680442000005,1689.7680442000005,1690.4517099,j,0.6812368999999308,None,1689.7680442000005,1689.7680442000005,1689.7680442000005,,,,,,,,,,,,00027,001,2025-11-14_16h15.34.724,MST_task,2024.2.2,59.96343429774439,2025-11-14 16h15.46.176029 +0530,
,Objects\292a.jpg,131,0,131,,,,,,,None,j,0.5128530000001774,None,,,,,,,131,0,131,0,1690.4679990999998,,,,,,,,,,,,,,,,,,,,,,,1690.4517834000003,1690.4679990999998,1690.967951,1690.9516063000005,,,,,,,,,,,,,,,,,,,,,,,,,,1690.9615061,1690.967951,1690.967951,1690.967951,1693.9515464,shoe,None,1693.9515757000004,1693.9679200000005,1693.9679200000005,1694.4850351999999,j,0.5128530000001774,None,1693.9679200000005,1693.9679200000005,1693.9679200000005,,,,,,,,,,,,00027,001,2025-11-14_16h15.34.724,MST_task,2024.2.2,59.96343429774439,2025-11-14 16h15.46.176029 +0530,
,Objects\298a.jpg,132,0,132,,,,,,,None,f,1.1591899999993984,None,,,,,,,132,0,132,0,1694.5012491000002,,,,,,,,,,,,,,,,,,,,,,,1694.4851119999998,1694.5012491000002,1695.0178656000003,1694.9848275,,,,,,,,,,,,,,,,,,,,,,,,,,1694.9972186999998,1695.0178656000003,1695.0178656000003,1695.0178656000003,1698.0012263000003,shoe,None,1698.0012594000004,1698.0177946999997,1698.0177946999997,1699.1847236999997,f,1.1591899999993984,None,,,,,,,,,,,,,,,00027,001,2025-11-14_16h15.34.724,MST_task,2024.2.2,59.96343429774439,2025-11-14 16h15.46.176029 +0530,
,Objects\020a.jpg,133,0,133,,,,,,,None,f,0.481901399999515,None,,,,,,,133,0,133,0,1699.2011470000002,,,,,,,,,,,,,,,,,,,,,,,1699.1847997,1699.2011470000002,1699.7007160999997,1699.6846572999998,,,,,,,,,,,,,,,,,,,,,,,,,,1699.6946259000001,1699.7007160999997,1699.7007160999997,1699.7007160999997,1702.6848083999998,indoor,None,1702.6859692000003,1702.7010669000006,1702.7010669000006,1703.1846685000005,f,0.481901399999515,None,1702.7010669000006,1702.7010669000006,1702.7010669000006,,,,,,,,,,,,00027,001,2025-11-14_16h15.34.724,MST_task,2024.2.2,59.96343429774439,2025-11-14 16h15.46.176029 +0530,
,Objects\305a.jpg,134,0,134,,,,,,,None,f,0.37679279999974824,None,,,,,,,134,0,134,0,1703.2010530000002,,,,,,,,,,,,,,,,,,,,,,,1703.1847282000003,1703.2010530000002,1703.7010126,1703.6846584999998,,,,,,,,,,,,,,,,,,,,,,,,,,1703.6923028000006,1703.7010126,1703.7010126,1703.7010126,1706.6846925000004,indoor,None,1706.6847226000004,1706.7009745999999,1706.7009745999999,1707.0846787000005,f,0.37679279999974824,None,1706.7009745999999,1706.7009745999999,1706.7009745999999,,,,,,,,,,,,00027,001,2025-11-14_16h15.34.724,MST_task,2024.2.2,59.96343429774439,2025-11-14 16h15.46.176029 +0530,
,Objects\336a.jpg,135,0,135,,,,,,,None,j,0.5755392000000938,None,,,,,,,135,0,135,0,1707.10097,,,,,,,,,,,,,,,,,,,,,,,1707.0847459000001,1707.10097,1707.6008053,1707.5845614000004,,,,,,,,,,,,,,,,,,,,,,,,,,1707.5957424000003,1707.6008053,1707.6008053,1707.6008053,1710.5844670000001,indoor,None,1710.5844991,1710.6008971000006,1710.6008971000006,1711.1845098999997,j,0.5755392000000938,None,1710.6008971000006,1710.6008971000006,1710.6008971000006,,,,,,,,,,,,00027,001,2025-11-14_16h15.34.724,MST_task,2024.2.2,59.96343429774439,2025-11-14 16h15.46.176029 +0530,
,Objects\082a.jpg,136,0,136,,,,,,,None,f,0.49234809999961726,None,,,,,,,136,0,136,0,1711.2009119999998,,,,,,,,,,,,,,,,,,,,,,,1711.1845813000004,1711.2009119999998,1711.7008492999998,1711.6843624999997,,,,,,,,,,,,,,,,,,,,,,,,,,1711.6953377000004,1711.7008492999998,1711.7008492999998,1711.7008492999998,1714.6845059000002,indoor,None,1714.6845405,1714.7008186999997,1714.7008186999997,1715.2010583000006,f,0.49234809999961726,None,1714.7008186999997,1714.7008186999997,1714.7008186999997,,,,,,,,,,,,00027,001,2025-11-14_16h15.34.724,MST_task,2024.2.2,59.96343429774439,2025-11-14 16h15.46.176029 +0530,
,Objects\338a.jpg,137,0,137,,,,,,,None,f,1.2314368999996077,None,,,,,,,137,0,137,0,1715.2174670999998,,,,,,,,,,,,,,,,,,,,,,,1715.2011242000003,1715.2174670999998,1715.7174257000001,1715.7009444,,,,,,,,,,,,,,,,,,,,,,,,,,1715.7114064000002,1715.7174257000001,1715.7174257000001,1715.7174257000001,1718.7010715000001,indoor,None,1718.7011032000005,1718.7173927,1718.7173927,1719.9509957000005,f,1.2314368999996077,None,1718.7173927,1718.7173927,1718.7173927,,,,,,,,,,,,00027,001,2025-11-14_16h15.34.724,MST_task,2024.2.2,59.96343429774439,2025-11-14 16h15.46.176029 +0530,
,Objects\372a.jpg,138,0,138,,,,,,,None,j,0.5296699999998964,None,,,,,,,138,0,138,0,1719.9673671000005,,,,,,,,,,,,,,,,,,,,,,,1719.9510633000004,1719.9673671000005,1720.4669558,1720.4508246,,,,,,,,,,,,,,,,,,,,,,,,,,1720.4613307000004,1720.4669558,1720.4669558,1720.4669558,1723.4508486,indoor,None,1723.4508794999997,1723.4672974999999,1723.4672974999999,1724.0009448000005,j,0.5296699999998964,None,1723.4672974999999,1723.4672974999999,1723.4672974999999,,,,,,,,,,,,00027,001,2025-11-14_16h15.34.724,MST_task,2024.2.2,59.96343429774439,2025-11-14 16h15.46.176029 +0530,
,Objects\367a.jpg,139,0,139,,,,,,,None,f,0.28169270000034885,None,,,,,,,139,0,139,0,1724.0172882000002,,,,,,,,,,,,,,,,,,,,,,,1724.0010119000003,1724.0172882000002,1724.5172355999998,1724.5007470000005,,,,,,,,,,,,,,,,,,,,,,,,,,1724.5107124,1724.5172355999998,1724.5172355999998,1724.5172355999998,1727.5007827000004,indoor,None,1727.5008117000002,1727.5172425000005,1727.5172425000005,1727.8008292999998,f,0.28169270000034885,None,1727.5172425000005,1727.5172425000005,1727.5172425000005,,,,,,,,,,,,00027,001,2025-11-14_16h15.34.724,MST_task,2024.2.2,59.96343429774439,2025-11-14 16h15.46.176029 +0530,
,Objects\146a.jpg,140,0,140,,,,,,,None,j,0.31511540000064997,None,,,,,,,140,0,140,0,1727.817203,,,,,,,,,,,,,,,,,,,,,,,1727.8008879000004,1727.817203,1728.3338524000005,1728.3006552000002,,,,,,,,,,,,,,,,,,,,,,,,,,1728.3126392999998,1728.3338524000005,1728.3338524000005,1728.3338524000005,1731.3171837000004,shoe,None,1731.3187092000003,1731.3337900000001,1731.3337900000001,1731.6507197000005,j,0.31511540000064997,None,,,,,,,,,,,,,,,00027,001,2025-11-14_16h15.34.724,MST_task,2024.2.2,59.96343429774439,2025-11-14 16h15.46.176029 +0530,
,Objects\365a.jpg,141,0,141,,,,,,,f,None,,,1.9240718000000925,0.08338350000030914,,,,,141,0,141,0,1731.6670842999997,,,,,,,,,,,,,,,,,,,,,,,1731.6507824000005,1731.6670842999997,1732.1670795000005,1732.1506019000003,,,,,,,,,,,,,,,,,,,,,,,,,,1732.1608453000003,1732.1670795000005,1732.1670795000005,1732.1670795000005,1735.1506136000003,shoe,f,1735.1506483999997,,,1735.1506568999998,None,,,1735.1670154999997,1735.1670154999997,1735.1670154999997,1.9240718000000925,0.08338350000030914,,,,,,,,,,00027,001,2025-11-14_16h15.34.724,MST_task,2024.2.2,59.96343429774439,2025-11-14 16h15.46.176029 +0530,
,Objects\154a.jpg,142,0,142,,,,,,,j,None,,,1.3597476999993887,0.11009150000063528,,,,,142,0,142,0,1735.1670154999997,,,,,,,,,,,,,,,,,,,,,,,1735.150712,1735.1670154999997,1735.6669541000006,1735.6505137,,,,,,,,,,,,,,,,,,,,,,,,,,1735.6612701999998,1735.6669541000006,1735.6669541000006,1735.6669541000006,1738.6505565000002,shoe,j,1738.6505923,,,1738.6506006000004,None,,,1738.6669671000004,1738.6669671000004,1738.6669671000004,1.3597476999993887,0.11009150000063528,,,,,,,,,,00027,001,2025-11-14_16h15.34.724,MST_task,2024.2.2,59.96343429774439,2025-11-14 16h15.46.176029 +0530,
,Objects\288a.jpg,143,0,143,,,,,,,f,None,,,1.3865342999997665,0.12922009999965667,,,,,143,0,143,0,1738.6669671000004,,,,,,,,,,,,,,,,,,,,,,,1738.6506856,1738.6669671000004,1739.1668589000005,1739.1504713999998,,,,,,,,,,,,,,,,,,,,,,,,,,1739.1614277000003,1739.1668589000005,1739.1668589000005,1739.1668589000005,1742.1504799,shoe,f,1742.1505124999999,,,1742.1505215000002,None,,,1742.1668868000002,1742.1668868000002,1742.1668868000002,1.3865342999997665,0.12922009999965667,,,,,,,,,,00027,001,2025-11-14_16h15.34.724,MST_task,2024.2.2,59.96343429774439,2025-11-14 16h15.46.176029 +0530,
,Objects\127a.jpg,144,0,144,,,,,,,f,None,,,2.577298599999267,0.09982990000025893,,,,,144,0,144,0,1742.1668868000002,,,,,,,,,,,,,,,,,,,,,,,1742.1505732,1742.1668868000002,1742.6835537000002,1742.6503875000003,,,,,,,,,,,,,,,,,,,,,,,,,,1742.6674528999997,1742.6835537000002,1742.6835537000002,1742.6835537000002,1745.6668771,shoe,f,1745.6669493000004,,,1745.6669588,None,,,,,,2.577298599999267,0.09982990000025893,,,,,,,,,,00027,001,2025-11-14_16h15.34.724,MST_task,2024.2.2,59.96343429774439,2025-11-14 16h15.46.176029 +0530,
,Objects\196a.jpg,145,0,145,,,,,,,f,None,,,2.5150690000000395,0.09218969999983528,,,,,145,0,145,0,1745.6834662000006,,,,,,,,,,,,,,,,,,,,,,,1745.6670212000004,1745.6834662000006,1746.1834427,1746.1669572000005,,,,,,,,,,,,,,,,,,,,,,,,,,1746.1755155000005,1746.1834427,1746.1834427,1746.1834427,1749.1669963999998,shoe,f,1749.1670285000005,,,1749.1670367000002,None,,,1749.1834095,1749.1834095,1749.1834095,2.5150690000000395,0.09218969999983528,,,,,,,,,,00027,001,2025-11-14_16h15.34.724,MST_task,2024.2.2,59.96343429774439,2025-11-14 16h15.46.176029 +0530,
,Objects\054a.jpg,146,0,146,,,,,,,j,None,,,1.401080899999215,0.091661400000703,,,,,146,0,146,0,1749.1834095,,,,,,,,,,,,,,,,,,,,,,,1749.1670900000004,1749.1834095,1749.6833701,1749.6670319999998,,,,,,,,,,,,,,,,,,,,,,,,,,1749.6747122000002,1749.6833701,1749.6833701,1749.6833701,1752.6669675999997,shoe,j,1752.6670073,,,1752.6670163000003,None,,,1752.6833923,1752.6833923,1752.6833923,1.401080899999215,0.091661400000703,,,,,,,,,,00027,001,2025-11-14_16h15.34.724,MST_task,2024.2.2,59.96343429774439,2025-11-14 16h15.46.176029 +0530,
,Objects\105a.jpg,147,0,147,,,,,,,f,None,,,1.763839100000041,0.13035099999979138,,,,,147,0,147,0,1752.6833923,,,,,,,,,,,,,,,,,,,,,,,1752.6671151000005,1752.6833923,1753.1832968000003,1753.1668709,,,,,,,,,,,,,,,,,,,,,,,,,,1753.1756588000003,1753.1832968000003,1753.1832968000003,1753.1832968000003,1756.1670696000006,indoor,f,1756.168217,,,1756.1682273000001,None,,,1756.1832289,1756.1832289,1756.1832289,1.763839100000041,0.13035099999979138,,,,,,,,,,00027,001,2025-11-14_16h15.34.724,MST_task,2024.2.2,59.96343429774439,2025-11-14 16h15.46.176029 +0530,
,Objects\106a.jpg,148,0,148,,,,,,,None,f,0.9441108999999415,None,,,,,,,148,0,148,0,1756.1832289,,,,,,,,,,,,,,,,,,,,,,,1756.1682848000005,1756.1832289,1756.6832165,1756.6667416000005,,,,,,,,,,,,,,,,,,,,,,,,,,1756.6755004000001,1756.6832165,1756.6832165,1756.6832165,1759.6667811000002,indoor,None,1759.6668112000002,1759.6831883,1759.6831883,1760.6334462,f,0.9441108999999415,None,1759.6831883,1759.6831883,1759.6831883,,,,,,,,,,,,00027,001,2025-11-14_16h15.34.724,MST_task,2024.2.2,59.96343429774439,2025-11-14 16h15.46.176029 +0530,
,Objects\015a.jpg,149,0,149,,,,,,,f,None,,,1.792069299999639,0.08338830000047892,,,,,149,0,149,0,1760.6498369000005,,,,,,,,,,,,,,,,,,,,,,,1760.6335136000002,1760.6498369000005,1761.1512103,1761.1334024000003,,,,,,,,,,,,,,,,,,,,,,,,,,1761.1427005,1761.1512103,1761.1512103,1761.1512103,1764.1498400000005,indoor,f,1764.1498766999998,,,1764.1498858999998,None,,,,,,1.792069299999639,0.08338830000047892,,,,,,,,,,00027,001,2025-11-14_16h15.34.724,MST_task,2024.2.2,59.96343429774439,2025-11-14 16h15.46.176029 +0530,
,Objects\023a.jpg,150,0,150,,,,,,,f,None,,,1.7742545000000973,0.0903437999995731,,,,,150,0,150,0,1764.1664221000005,,,,,,,,,,,,,,,,,,,,,,,1764.1499426000005,1764.1664221000005,1764.6663994000005,1764.6498939999997,,,,,,,,,,,,,,,,,,,,,,,,,,1764.6575720000005,1764.6663994000005,1764.6663994000005,1764.6663994000005,1767.6499411,indoor,f,1767.6499774,,,1767.6499860999998,None,,,1767.6663751,1767.6663751,1767.6663751,1.7742545000000973,0.0903437999995731,,,,,,,,,,00027,001,2025-11-14_16h15.34.724,MST_task,2024.2.2,59.96343429774439,2025-11-14 16h15.46.176029 +0530,
,Objects\162a.jpg,151,0,151,,,,,,,None,f,0.706312600000274,None,,,,,,,151,0,151,0,1767.6663751,,,,,,,,,,,,,,,,,,,,,,,1767.6500403000005,1767.6663751,1768.1663621000002,1768.1497925999997,,,,,,,,,,,,,,,,,,,,,,,,,,1768.1571263,1768.1663621000002,1768.1663621000002,1768.1663621000002,1771.1498352000003,indoor,None,1771.1498635000003,1771.1662984,1771.1662984,1771.8833519000004,f,0.706312600000274,None,1771.1662984,1771.1662984,1771.1662984,,,,,,,,,,,,00027,001,2025-11-14_16h15.34.724,MST_task,2024.2.2,59.96343429774439,2025-11-14 16h15.46.176029 +0530,
,Objects\346a.jpg,152,0,152,,,,,,,None,f,0.38337610000053246,None,,,,,,,152,0,152,0,1771.8996284999998,,,,,,,,,,,,,,,,,,,,,,,1771.8834253,1771.8996284999998,1772.3995595000001,1772.3830966,,,,,,,,,,,,,,,,,,,,,,,,,,1772.3938025000002,1772.3995595000001,1772.3995595000001,1772.3995595000001,1775.3832237000001,indoor,None,1775.3832566000005,1775.3995252,1775.3995252,1775.7832287000006,f,0.38337610000053246,None,1775.3995252,1775.3995252,1775.3995252,,,,,,,,,,,,00027,001,2025-11-14_16h15.34.724,MST_task,2024.2.2,59.96343429774439,2025-11-14 16h15.46.176029 +0530,
,Objects\060a.jpg,153,0,153,,,,,,,None,f,0.29641240000000835,None,,,,,,,153,0,153,0,1775.7995188,,,,,,,,,,,,,,,,,,,,,,,1775.7832991,1775.7995188,1776.3161793000004,1776.2829923000004,,,,,,,,,,,,,,,,,,,,,,,,,,1776.2953465000005,1776.3161793000004,1776.3161793000004,1776.3161793000004,1779.2995113000002,indoor,None,1779.2995636,1779.3161363000004,1779.3161363000004,1779.6164319000004,f,0.29641240000000835,None,,,,,,,,,,,,,,,00027,001,2025-11-14_16h15.34.724,MST_task,2024.2.2,59.96343429774439,2025-11-14 16h15.46.176029 +0530,
,Objects\119a.jpg,154,0,154,,,,,,,None,f,0.3045366999995167,None,,,,,,,154,0,154,0,1779.6327705999997,,,,,,,,,,,,,,,,,,,,,,,1779.6165102,1779.6327705999997,1780.1327719000005,1780.1162531000004,,,,,,,,,,,,,,,,,,,,,,,,,,1780.1254541000003,1780.1327719000005,1780.1327719000005,1780.1327719000005,1783.1162872999998,shoe,None,1783.1178701000003,1783.1326917000001,1783.1326917000001,1783.4495769,f,0.3045366999995167,None,1783.1326917000001,1783.1326917000001,1783.1326917000001,,,,,,,,,,,,00027,001,2025-11-14_16h15.34.724,MST_task,2024.2.2,59.96343429774439,2025-11-14 16h15.46.176029 +0530,
,Objects\321a.jpg,155,0,155,,,,,,,None,f,0.3914636999998038,None,,,,,,,155,0,155,0,1783.4660233,,,,,,,,,,,,,,,,,,,,,,,1783.4496666999999,1783.4660233,1783.9660128,1783.9494392000001,,,,,,,,,,,,,,,,,,,,,,,,,,1783.9596566000005,1783.9660128,1783.9660128,1783.9660128,1786.9495284,shoe,None,1786.9495609,1786.9659069000004,1786.9659069000004,1787.3662884,f,0.3914636999998038,None,1786.9659069000004,1786.9659069000004,1786.9659069000004,,,,,,,,,,,,00027,001,2025-11-14_16h15.34.724,MST_task,2024.2.2,59.96343429774439,2025-11-14 16h15.46.176029 +0530,
,Objects\326a.jpg,156,0,156,,,,,,,None,f,0.23813199999949575,None,,,,,,,156,0,156,0,1787.3825627,,,,,,,,,,,,,,,,,,,,,,,1787.3663651000002,1787.3825627,1787.8992518999999,1787.8660740999999,,,,,,,,,,,,,,,,,,,,,,,,,,1787.878174,1787.8992518999999,1787.8992518999999,1787.8992518999999,1790.8825442000002,shoe,None,1790.8825921000002,1790.8991902000002,1790.8991902000002,1791.1495381999998,f,0.23813199999949575,None,,,,,,,,,,,,,,,00027,001,2025-11-14_16h15.34.724,MST_task,2024.2.2,59.96343429774439,2025-11-14 16h15.46.176029 +0530,
,Objects\050a.jpg,157,0,157,,,,,,,None,j,0.3332901000003403,None,,,,,,,157,0,157,0,1791.1658407,,,,,,,,,,,,,,,,,,,,,,,1791.1496092000002,1791.1658407,1791.6658129000002,1791.6494073,,,,,,,,,,,,,,,,,,,,,,,,,,1791.6571416000002,1791.6658129000002,1791.6658129000002,1791.6658129000002,1794.6494613999998,shoe,None,1794.6494906000003,1794.6658047000005,1794.6658047000005,1794.9995648,j,0.3332901000003403,None,1794.6658047000005,1794.6658047000005,1794.6658047000005,,,,,,,,,,,,00027,001,2025-11-14_16h15.34.724,MST_task,2024.2.2,59.96343429774439,2025-11-14 16h15.46.176029 +0530,
,Objects\083a.jpg,158,0,158,,,,,,,None,f,0.31519680000019434,None,,,,,,,158,0,158,0,1795.0157712000005,,,,,,,,,,,,,,,,,,,,,,,1794.9996299,1795.0157712000005,1795.5157567,1795.4992658000006,,,,,,,,,,,,,,,,,,,,,,,,,,1795.5069913000002,1795.5157567,1795.5157567,1795.5157567,1798.4992881000003,shoe,None,1798.4993197,1798.5156991,1798.5156991,1798.8327015,f,0.31519680000019434,None,1798.5156991,1798.5156991,1798.5156991,,,,,,,,,,,,00027,001,2025-11-14_16h15.34.724,MST_task,2024.2.2,59.96343429774439,2025-11-14 16h15.46.176029 +0530,
,Objects\152a.jpg,159,0,159,,,,,,,None,f,0.6757706000007602,None,,,,,,,159,0,159,0,1798.849028,,,,,,,,,,,,,,,,,,,,,,,1798.8327642999998,1798.849028,1799.3490101000002,1799.3324925000002,,,,,,,,,,,,,,,,,,,,,,,,,,1799.3405146999999,1799.3490101000002,1799.3490101000002,1799.3490101000002,1802.3325344,shoe,None,1802.3325682999998,1802.3489423000005,1802.3489423000005,1803.0326589000001,f,0.6757706000007602,None,1802.3489423000005,1802.3489423000005,1802.3489423000005,,,,,,,,,,,,00027,001,2025-11-14_16h15.34.724,MST_task,2024.2.2,59.96343429774439,2025-11-14 16h15.46.176029 +0530,
,Objects\079a.jpg,160,0,160,,,,,,,None,j,0.43634689999998955,None,,,,,,,160,0,160,0,1803.0489300000004,,,,,,,,,,,,,,,,,,,,,,,1803.0327575000006,1803.0489300000004,1803.5488884000001,1803.5325190999997,,,,,,,,,,,,,,,,,,,,,,,,,,1803.5405561000002,1803.5488884000001,1803.5488884000001,1803.5488884000001,1806.5325489000002,shoe,None,1806.5325887000004,1806.5489202000003,1806.5489202000003,1806.9992341000002,j,0.43634689999998955,None,1806.5489202000003,1806.5489202000003,1806.5489202000003,,,,,,,,,,,,00027,001,2025-11-14_16h15.34.724,MST_task,2024.2.2,59.96343429774439,2025-11-14 16h15.46.176029 +0530,
,Objects\219a.jpg,161,0,161,,,,,,,None,f,1.2233361999997214,None,,,,,,,161,0,161,0,1807.0155123999998,,,,,,,,,,,,,,,,,,,,,,,1806.9993295999998,1807.0155123999998,1807.5153522000005,1807.4990091000004,,,,,,,,,,,,,,,,,,,,,,,,,,1807.5084628,1807.5153522000005,1807.5153522000005,1807.5153522000005,1810.4991228000004,indoor,None,1810.5003069,1810.5154456000005,1810.5154456000005,1811.7491149000002,f,1.2233361999997214,None,1810.5154456000005,1810.5154456000005,1810.5154456000005,,,,,,,,,,,,00027,001,2025-11-14_16h15.34.724,MST_task,2024.2.2,59.96343429774439,2025-11-14 16h15.46.176029 +0530,
,Objects\267a.jpg,162,0,162,,,,,,,None,j,0.33144459999948594,None,,,,,,,162,0,162,0,1811.7654128,,,,,,,,,,,,,,,,,,,,,,,1811.7491909000005,1811.7654128,1812.2653723999997,1812.2488893000004,,,,,,,,,,,,,,,,,,,,,,,,,,1812.2598560000001,1812.2653723999997,1812.2653723999997,1812.2653723999997,1815.2489713999998,indoor,None,1815.2490018000003,1815.2653341,1815.2653341,1815.5990113000003,j,0.33144459999948594,None,1815.2653341,1815.2653341,1815.2653341,,,,,,,,,,,,00027,001,2025-11-14_16h15.34.724,MST_task,2024.2.2,59.96343429774439,2025-11-14 16h15.46.176029 +0530,
,Objects\310a.jpg,163,0,163,,,,,,,None,j,0.6394177000001946,None,,,,,,,163,0,163,0,1815.6153399,,,,,,,,,,,,,,,,,,,,,,,1815.5990836000005,1815.6153399,1816.1319735000002,1816.0988848000002,,,,,,,,,,,,,,,,,,,,,,,,,,1816.1093486000004,1816.1319735000002,1816.1319735000002,1816.1319735000002,1819.1152793000006,indoor,None,1819.1153107000005,1819.1319323000002,1819.1319323000002,1819.7823261999997,j,0.6394177000001946,None,,,,,,,,,,,,,,,00027,001,2025-11-14_16h15.34.724,MST_task,2024.2.2,59.96343429774439,2025-11-14 16h15.46.176029 +0530,
,Objects\322a.jpg,164,0,164,,,,,,,None,f,0.8578851000002032,None,,,,,,,164,0,164,0,1819.7985884000004,,,,,,,,,,,,,,,,,,,,,,,1819.7824112000003,1819.7985884000004,1820.3152673,1820.2820388000005,,,,,,,,,,,,,,,,,,,,,,,,,,1820.2944475999998,1820.3152673,1820.3152673,1820.3152673,1823.2985835000004,indoor,None,1823.2986163,1823.3151321999999,1823.3151321999999,1824.1821590000004,f,0.8578851000002032,None,,,,,,,,,,,,,,,00027,001,2025-11-14_16h15.34.724,MST_task,2024.2.2,59.96343429774439,2025-11-14 16h15.46.176029 +0530,
,Objects\165a.jpg,165,0,165,,,,,,,None,f,0.4824337000000014,None,,,,,,,165,0,165,0,1824.1984865,,,,,,,,,,,,,,,,,,,,,,,1824.1822331999997,1824.1984865,1824.7151823,1824.6820721,,,,,,,,,,,,,,,,,,,,,,,,,,1824.6938671000003,1824.7151823,1824.7151823,1824.7151823,1827.6984617000003,indoor,None,1827.6984979000003,1827.7150423999997,1827.7150423999997,1828.1987388000002,f,0.4824337000000014,None,,,,,,,,,,,,,,,00027,001,2025-11-14_16h15.34.724,MST_task,2024.2.2,59.96343429774439,2025-11-14 16h15.46.176029 +0530,
