Sl_no,image_path,thisN,thisTrialN,thisRepN,key_resp_5.keys,key_resp_5.rt,key_resp_5.duration,key_resp_7.keys,key_resp_9.keys,key_resp_9.rt,key_resp_9.duration,key_resp_8.keys,key_resp_8.rt,key_resp_8.duration,practice.thisRepN,practice.thisTrialN,practice.thisN,practice.thisIndex,trials.thisRepN,trials.thisTrialN,trials.thisN,trials.thisIndex,thisRow.t,notes,welcome_page.started,text.started,key_resp.started,welcome_page.stopped,key_resp.keys,key_resp.rt,key_resp.duration,instructions.started,ins.started,key_resp_2.started,instructions.stopped,key_resp_2.keys,key_resp_2.rt,key_resp_2.duration,objects_only_instruction.started,text_3.started,key_resp_3.started,objects_only_instruction.stopped,key_resp_3.keys,key_resp_3.rt,key_resp_3.duration,ISI.started,text_4.started,text_4.stopped,ISI.stopped,practice_block.started,image.started,key_resp_5.started,text_5.started,practice_block.stopped,practice.key_resp_5.keys,practice.key_resp_5.rt,practice.key_resp_5.duration,indoor_outdoor.started,indoor_outdoor.stopped,practice.key_resp_7.keys,image.stopped,key_resp_5.stopped,text_5.stopped,practice_to_main.started,text_2.started,key_resp_4.started,practice_to_main.stopped,key_resp_4.keys,key_resp_4.rt,key_resp_4.duration,objects.started,image_2.started,text_9.started,key_resp_9.started,objects.stopped,category,trials.key_resp_9.keys,trials.key_resp_9.rt,trials.key_resp_9.duration,encoding_task.started,encoding_task.stopped,trials.key_resp_8.keys,image_2.stopped,text_9.stopped,key_resp_9.stopped,text_8.started,key_resp_8.started,trials.key_resp_8.rt,trials.key_resp_8.duration,end_experiment.started,text_6.started,key_resp_6.started,end_experiment.stopped,key_resp_6.keys,key_resp_6.rt,key_resp_6.duration,list_of_stimuli,encoding_task_accuracy,participant,session,date,expName,psychopyVersion,frameRate,expStart,
,,,,,,,,,,,,,,,,,,,,,,,,,0.01625079999985246,0.03277230000003328,0.03277230000003328,4.384294099999806,space,4.345473899999888,None,,,,,,,,,,,,,,,,,,,,,,,,,,,,,,,,,,,,,,,,,,,,,,,,,,,,,,,,,,,,,,,,,,,,00026,001,2025-11-11_05h26.46.426,MST_task,2024.2.2,60.047401418791054,2025-11-11 05h26.51.406060 +0530,
,,,,,,,,,,,,,,,,,,,,,,,,,,,,,,,,4.384322200000042,4.399339999999938,4.399339999999938,42.91550240000015,space,38.50115649999998,None,,,,,,,,,,,,,,,,,,,,,,,,,,,,,,,,,,,,,,,,,,,,,,,,,,,,,,,,,,,,,00026,001,2025-11-11_05h26.46.426,MST_task,2024.2.2,60.047401418791054,2025-11-11 05h26.51.406060 +0530,
,,,,,,,,,,,,,,,,,,,,,,,,,,,,,,,,,,,,,,,42.915532800000165,42.93174420000014,42.93174420000014,53.215296599999874,space,10.27268869999989,None,,,,,,,,,,,,,,,,,,,,,,,,,,,,,,,,,,,,,,,,,,,,,,,,,,,,,,00026,001,2025-11-11_05h26.46.426,MST_task,2024.2.2,60.047401418791054,2025-11-11 05h26.51.406060 +0530,
6,practice_images/158a.jpg,0,0,0,j,1.4405723999998372,0.12758130000020174,None,,,,,,,0,0,0,5,,,,,53.23150769999984,,,,,,,,,,,,,,,,,,,,,,,53.221317,53.23150769999984,53.74819669999988,53.71513950000008,53.72969490000014,53.74819669999988,53.74819669999988,53.74819669999988,56.73158030000013,j,1.4405723999998372,0.12758130000020174,56.732728099999804,56.73274140000012,None,,,,,,,,,,,,,,,,,,,,,,,,,,,,,,,,,,,,,,,00026,001,2025-11-11_05h26.46.426,MST_task,2024.2.2,60.047401418791054,2025-11-11 05h26.51.406060 +0530,
3,practice_images/037a.jpg,1,1,0,f,2.1166489000002002,0.11886759999970309,None,,,,,,,0,1,1,2,,,,,56.74818839999989,,,,,,,,,,,,,,,,,,,,,,,56.73279760000014,56.74818839999989,57.24810900000011,57.23184039999978,57.23914710000008,57.24810900000011,57.24810900000011,57.24810900000011,60.231540100000075,f,2.1166489000002002,0.11886759999970309,60.23157540000011,60.231584499999826,None,60.24804459999996,60.24804459999996,60.24804459999996,,,,,,,,,,,,,,,,,,,,,,,,,,,,,,,,,,,,00026,001,2025-11-11_05h26.46.426,MST_task,2024.2.2,60.047401418791054,2025-11-11 05h26.51.406060 +0530,
8,practice_images/178a.jpg,2,2,0,j,1.4220753999998124,0.12277880000010555,None,,,,,,,0,2,2,7,,,,,60.24804459999996,,,,,,,,,,,,,,,,,,,,,,,60.23163479999994,60.24804459999996,60.74800240000013,60.73152579999987,60.73860130000003,60.74800240000013,60.74800240000013,60.74800240000013,63.731486199999836,j,1.4220753999998124,0.12277880000010555,63.73151659999985,63.73152549999986,None,63.74796040000001,63.74796040000001,63.74796040000001,,,,,,,,,,,,,,,,,,,,,,,,,,,,,,,,,,,,00026,001,2025-11-11_05h26.46.426,MST_task,2024.2.2,60.047401418791054,2025-11-11 05h26.51.406060 +0530,
7,practice_images/166a.jpg,3,3,0,f,2.1010048000002826,0.161931199999799,None,,,,,,,0,3,3,6,,,,,63.74796040000001,,,,,,,,,,,,,,,,,,,,,,,63.73157760000004,63.74796040000001,64.24794689999999,64.2315595,64.23857950000001,64.24794689999999,64.24794689999999,64.24794689999999,67.23136579999982,f,2.1010048000002826,0.161931199999799,67.23139540000011,67.23140779999994,None,67.24788839999974,67.24788839999974,67.24788839999974,,,,,,,,,,,,,,,,,,,,,,,,,,,,,,,,,,,,00026,001,2025-11-11_05h26.46.426,MST_task,2024.2.2,60.047401418791054,2025-11-11 05h26.51.406060 +0530,
9,practice_images/180a.jpg,4,4,0,f,1.1826278999997157,0.12391930000012508,None,,,,,,,0,4,4,8,,,,,67.24788839999974,,,,,,,,,,,,,,,,,,,,,,,67.23145969999996,67.24788839999974,67.74786469999981,67.73136309999973,67.73851149999973,67.74786469999981,67.74786469999981,67.74786469999981,70.73137229999975,f,1.1826278999997157,0.12391930000012508,70.73140749999993,70.73141799999985,None,70.7478016,70.7478016,70.7478016,,,,,,,,,,,,,,,,,,,,,,,,,,,,,,,,,,,,00026,001,2025-11-11_05h26.46.426,MST_task,2024.2.2,60.047401418791054,2025-11-11 05h26.51.406060 +0530,
2,practice_images/031a.jpg,5,5,0,f,1.3085981999997784,0.12212570000019696,None,,,,,,,0,5,5,1,,,,,70.7478016,,,,,,,,,,,,,,,,,,,,,,,70.73147800000015,70.7478016,71.24776410000004,71.23128689999976,71.24058590000004,71.24776410000004,71.24776410000004,71.24776410000004,74.2312407999998,f,1.3085981999997784,0.12212570000019696,74.2327421,74.23275400000011,None,74.24770690000014,74.24770690000014,74.24770690000014,,,,,,,,,,,,,,,,,,,,,,,,,,,,,,,,,,,,00026,001,2025-11-11_05h26.46.426,MST_task,2024.2.2,60.047401418791054,2025-11-11 05h26.51.406060 +0530,
4,practice_images/002b.jpg,6,6,0,j,1.5302033000002666,0.11987139999973806,None,,,,,,,0,6,6,3,,,,,74.24770690000014,,,,,,,,,,,,,,,,,,,,,,,74.23280939999995,74.24770690000014,74.76434889999973,74.73119940000015,74.74660159999985,74.76434889999973,74.76434889999973,74.76434889999973,77.74767889999976,j,1.5302033000002666,0.11987139999973806,77.74771169999985,77.74772189999976,None,,,,,,,,,,,,,,,,,,,,,,,,,,,,,,,,,,,,,,,00026,001,2025-11-11_05h26.46.426,MST_task,2024.2.2,60.047401418791054,2025-11-11 05h26.51.406060 +0530,
1,practice_images/013a.jpg,7,7,0,j,1.3217749000000367,0.12035060000016529,None,,,,,,,0,7,7,0,,,,,77.76430159999973,,,,,,,,,,,,,,,,,,,,,,,77.74777649999987,77.76430159999973,78.26429389999976,78.2479287000001,78.25973449999992,78.26429389999976,78.26429389999976,78.26429389999976,81.24780610000016,j,1.3217749000000367,0.12035060000016529,81.2478388999998,81.24784890000001,None,81.26422999999977,81.26422999999977,81.26422999999977,,,,,,,,,,,,,,,,,,,,,,,,,,,,,,,,,,,,00026,001,2025-11-11_05h26.46.426,MST_task,2024.2.2,60.047401418791054,2025-11-11 05h26.51.406060 +0530,
10,practice_images/182a.jpg,8,8,0,f,1.5425270999999157,0.11362319999989268,None,,,,,,,0,8,8,9,,,,,81.26422999999977,,,,,,,,,,,,,,,,,,,,,,,81.2479131,81.26422999999977,81.76418629999989,81.74783709999974,81.75471079999988,81.76418629999989,81.76418629999989,81.76418629999989,84.7476603,f,1.5425270999999157,0.11362319999989268,84.74769220000007,84.74770209999997,None,84.7641577999998,84.7641577999998,84.7641577999998,,,,,,,,,,,,,,,,,,,,,,,,,,,,,,,,,,,,00026,001,2025-11-11_05h26.46.426,MST_task,2024.2.2,60.047401418791054,2025-11-11 05h26.51.406060 +0530,
5,practice_images/139a.jpg,9,9,0,j,1.4581806000001052,0.13764249999985623,None,,,,,,,0,9,9,4,,,,,84.7641577999998,,,,,,,,,,,,,,,,,,,,,,,84.74775450000016,84.7641577999998,85.26412609999988,85.24770549999994,85.25443099999984,85.26412609999988,85.26412609999988,85.26412609999988,88.24758269999984,j,1.4581806000001052,0.13764249999985623,88.24761260000014,88.24762169999985,None,88.2640338000001,88.2640338000001,88.2640338000001,,,,,,,,,,,,,,,,,,,,,,,,,,,,,,,,,,,,00026,001,2025-11-11_05h26.46.426,MST_task,2024.2.2,60.047401418791054,2025-11-11 05h26.51.406060 +0530,
,,,,,,,,,,,,,,,,,,,,,,,,,,,,,,,,,,,,,,,,,,,,,,,,,,,,,,,,,,,,,,,,88.24765840000009,88.2640338000001,88.2640338000001,146.11316679999982,space,57.8472741999999,None,,,,,,,,,,,,,,,,,,,,,,,,,,,,,00026,001,2025-11-11_05h26.46.426,MST_task,2024.2.2,60.047401418791054,2025-11-11 05h26.51.406060 +0530,
,Objects\114a.jpg,0,0,0,,,,,f,1.1007948999999826,0.13118970000004992,None,,,,,,,0,0,0,0,146.12952309999991,,,,,,,,,,,,,,,,,,,,,,,146.11391849999973,146.12952309999991,146.64629430000014,146.6129990999998,,,,,,,,,,,,,,,,,,,,,,146.6266301999999,146.64629430000014,146.64629430000014,146.64629430000014,149.629363,indoor,f,1.1007948999999826,0.13118970000004992,149.63059019999992,149.63060330000008,None,,,,,,,,,,,,,,,,,00026,001,2025-11-11_05h26.46.426,MST_task,2024.2.2,60.047401418791054,2025-11-11 05h26.51.406060 +0530,
,Objects\215a.jpg,1,0,1,,,,,f,2.202640099999826,0.11392060000025594,None,,,,,,,1,0,1,0,149.6459921999999,,,,,,,,,,,,,,,,,,,,,,,149.63066320000007,149.6459921999999,150.14596260000008,150.12960109999995,,,,,,,,,,,,,,,,,,,,,,150.13752750000003,150.14596260000008,150.14596260000008,150.14596260000008,153.1294527,indoor,f,2.202640099999826,0.11392060000025594,153.12948909999977,153.12949879999996,None,153.1459116000001,153.1459116000001,153.1459116000001,,,,,,,,,,,,,,00026,001,2025-11-11_05h26.46.426,MST_task,2024.2.2,60.047401418791054,2025-11-11 05h26.51.406060 +0530,
,Objects\314a.jpg,2,0,2,,,,,j,2.308250600000065,0.13778709999996863,None,,,,,,,2,0,2,0,153.1459116000001,,,,,,,,,,,,,,,,,,,,,,,153.12955139999985,153.1459116000001,153.64619820000007,153.62948819999974,,,,,,,,,,,,,,,,,,,,,,153.64035749999994,153.64619820000007,153.64619820000007,153.64619820000007,156.62938559999975,indoor,j,2.308250600000065,0.13778709999996863,156.62942250000015,156.6294340999998,None,156.64582979999977,156.64582979999977,156.64582979999977,,,,,,,,,,,,,,00026,001,2025-11-11_05h26.46.426,MST_task,2024.2.2,60.047401418791054,2025-11-11 05h26.51.406060 +0530,
,Objects\110a.jpg,3,0,3,,,,,j,2.3036723000000165,0.17813699999987875,None,,,,,,,3,0,3,0,156.64582979999977,,,,,,,,,,,,,,,,,,,,,,,156.62948849999975,156.64582979999977,157.1624538000001,157.1292800000001,,,,,,,,,,,,,,,,,,,,,,157.14035479999984,157.1624538000001,157.1624538000001,157.1624538000001,160.1457835000001,indoor,j,2.3036723000000165,0.17813699999987875,160.14582719999999,160.14583809999976,None,,,,,,,,,,,,,,,,,00026,001,2025-11-11_05h26.46.426,MST_task,2024.2.2,60.047401418791054,2025-11-11 05h26.51.406060 +0530,
,Objects\116a.jpg,4,0,4,,,,,f,2.39463939999996,0.14974320000010266,None,,,,,,,4,0,4,0,160.16244359999973,,,,,,,,,,,,,,,,,,,,,,,160.14589669999987,160.16244359999973,,160.64590640000006,,,,,,,,,,,,,,,,,,,,,,160.65337199999976,160.6624339,160.6624339,160.6624339,163.6459829999999,indoor,f,2.39463939999996,0.14974320000010266,163.64601709999988,163.64602749999995,None,163.66233569999986,163.66233569999986,163.66233569999986,,,,,,,,,,,,,,00026,001,2025-11-11_05h26.46.426,MST_task,2024.2.2,60.047401418791054,2025-11-11 05h26.51.406060 +0530,
,Objects\201a.jpg,5,0,5,,,,,f,2.0862641999997322,0.19375669999999445,None,,,,,,,5,0,5,0,163.66233569999986,,,,,,,,,,,,,,,,,,,,,,,163.64608180000005,163.66233569999986,164.16235469999992,164.14588109999977,,,,,,,,,,,,,,,,,,,,,,164.1564644,164.16235469999992,164.16235469999992,164.16235469999992,167.14591840000003,indoor,f,2.0862641999997322,0.19375669999999445,167.14595389999977,167.14596279999978,None,167.1622622,167.1622622,167.1622622,,,,,,,,,,,,,,00026,001,2025-11-11_05h26.46.426,MST_task,2024.2.2,60.047401418791054,2025-11-11 05h26.51.406060 +0530,
,Objects\288a.jpg,6,0,6,,,,,f,1.3536738000002515,0.14489129999992656,None,,,,,,,6,0,6,0,167.1622622,,,,,,,,,,,,,,,,,,,,,,,167.1460146999998,167.1622622,167.66221889999997,167.64581339999995,,,,,,,,,,,,,,,,,,,,,,167.65661150000005,167.66221889999997,167.66221889999997,167.66221889999997,170.64600949999976,indoor,f,1.3536738000002515,0.14489129999992656,170.6460492000001,170.64605889999984,None,170.66219039999987,170.66219039999987,170.66219039999987,,,,,,,,,,,,,,00026,001,2025-11-11_05h26.46.426,MST_task,2024.2.2,60.047401418791054,2025-11-11 05h26.51.406060 +0530,
,Objects\361a.jpg,7,0,7,,,,,j,1.8556327000001147,0.14540069999975458,None,,,,,,,7,0,7,0,170.66219039999987,,,,,,,,,,,,,,,,,,,,,,,170.64611669999977,170.66219039999987,171.17881260000013,171.14573100000007,,,,,,,,,,,,,,,,,,,,,,171.16367050000008,171.17881260000013,171.17881260000013,171.17881260000013,174.16217039999992,shoe,j,1.8556327000001147,0.14540069999975458,174.16377699999975,174.16378919999988,None,,,,,,,,,,,,,,,,,00026,001,2025-11-11_05h26.46.426,MST_task,2024.2.2,60.047401418791054,2025-11-11 05h26.51.406060 +0530,
,Objects\345a.jpg,8,0,8,,,,,f,1.715490999999929,0.16237989999990532,None,,,,,,,8,0,8,0,174.1787592999999,,,,,,,,,,,,,,,,,,,,,,,174.1638696,174.1787592999999,174.67872350000016,174.66235289999986,,,,,,,,,,,,,,,,,,,,,,174.6702621999998,174.67872350000016,174.67872350000016,174.67872350000016,177.6623295999998,shoe,f,1.715490999999929,0.16237989999990532,177.66236230000004,177.66237069999988,None,177.67868769999995,177.67868769999995,177.67868769999995,,,,,,,,,,,,,,00026,001,2025-11-11_05h26.46.426,MST_task,2024.2.2,60.047401418791054,2025-11-11 05h26.51.406060 +0530,
,Objects\256a.jpg,9,0,9,,,,,f,1.8232459000000745,0.14043919999994614,None,,,,,,,9,0,9,0,177.67868769999995,,,,,,,,,,,,,,,,,,,,,,,177.66242169999987,177.67868769999995,178.1952983000001,178.16214760000003,,,,,,,,,,,,,,,,,,,,,,178.17369389999976,178.1952983000001,178.1952983000001,178.1952983000001,181.1786444999998,shoe,f,1.8232459000000745,0.14043919999994614,181.17868210000006,181.17869169999994,None,,,,,,,,,,,,,,,,,00026,001,2025-11-11_05h26.46.426,MST_task,2024.2.2,60.047401418791054,2025-11-11 05h26.51.406060 +0530,
,Objects\259a.jpg,10,0,10,,,,,j,2.156850200000008,0.1370625999998083,None,,,,,,,10,0,10,0,181.1952978999998,,,,,,,,,,,,,,,,,,,,,,,181.17874960000017,181.1952978999998,,181.67877709999993,,,,,,,,,,,,,,,,,,,,,,181.69155479999972,181.7118943999999,181.7118943999999,181.7118943999999,184.6953196999998,shoe,j,2.156850200000008,0.1370625999998083,184.69535719999976,184.69536800000014,None,,,,,,,,,,,,,,,,,00026,001,2025-11-11_05h26.46.426,MST_task,2024.2.2,60.047401418791054,2025-11-11 05h26.51.406060 +0530,
,Objects\146a.jpg,11,0,11,,,,,f,2.5483957000001283,0.15851569999995263,None,,,,,,,11,0,11,0,184.7118504,,,,,,,,,,,,,,,,,,,,,,,184.69542349999983,184.7118504,185.21142969999983,185.1954507999999,,,,,,,,,,,,,,,,,,,,,,185.20621389999997,185.21142969999983,185.21142969999983,185.21142969999983,188.19565669999974,shoe,f,2.5483957000001283,0.15851569999995263,188.19569379999984,188.19570350000004,None,188.21177970000008,188.21177970000008,188.21177970000008,,,,,,,,,,,,,,00026,001,2025-11-11_05h26.46.426,MST_task,2024.2.2,60.047401418791054,2025-11-11 05h26.51.406060 +0530,
,Objects\022a.jpg,12,0,12,,,,,j,1.5767703999999867,0.16580479999993258,None,,,,,,,12,0,12,0,188.21177970000008,,,,,,,,,,,,,,,,,,,,,,,188.19575840000016,188.21177970000008,188.71134729999994,188.69522920000009,,,,,,,,,,,,,,,,,,,,,,188.70474569999988,188.71134729999994,188.71134729999994,188.71134729999994,191.69522400000005,shoe,j,1.5767703999999867,0.16580479999993258,191.69527000000016,191.69527879999987,None,191.7117002,191.7117002,191.7117002,,,,,,,,,,,,,,00026,001,2025-11-11_05h26.46.426,MST_task,2024.2.2,60.047401418791054,2025-11-11 05h26.51.406060 +0530,
,Objects\243a.jpg,13,0,13,,,,,None,,,f,3.732701100000213,None,,,,,13,0,13,0,191.7117002,,,,,,,,,,,,,,,,,,,,,,,191.69533030000002,191.7117002,192.21126959999992,192.1951571999998,,,,,,,,,,,,,,,,,,,,,,192.20606210000005,192.21126959999992,192.21126959999992,192.21126959999992,195.1951537,shoe,None,,,195.1951856999999,198.9451571999998,f,195.2116172000001,195.2116172000001,195.2116172000001,195.2116172000001,195.2116172000001,3.732701100000213,None,,,,,,,,,,00026,001,2025-11-11_05h26.46.426,MST_task,2024.2.2,60.047401418791054,2025-11-11 05h26.51.406060 +0530,
,Objects\066a.jpg,14,0,14,,,,,j,2.3423079999997753,0.15824410000004718,None,,,,,,,14,0,14,0,198.9615318000001,,,,,,,,,,,,,,,,,,,,,,,198.94523130000016,198.9615318000001,199.47818740000002,199.4451737999998,,,,,,,,,,,,,,,,,,,,,,199.4579745000001,199.47818740000002,199.47818740000002,199.47818740000002,202.46149680000008,indoor,j,2.3423079999997753,0.15824410000004718,202.4626662999999,202.46267839999973,None,,,,,,,,,,,,,,,,,00026,001,2025-11-11_05h26.46.426,MST_task,2024.2.2,60.047401418791054,2025-11-11 05h26.51.406060 +0530,
,Objects\249a.jpg,15,0,15,,,,,j,2.3182303999997202,0.16559110000025612,None,,,,,,,15,0,15,0,202.47811279999996,,,,,,,,,,,,,,,,,,,,,,,202.46273079999992,202.47811279999996,202.97807049999983,202.9615834000001,,,,,,,,,,,,,,,,,,,,,,202.97201670000004,202.97807049999983,202.97807049999983,202.97807049999983,205.96173150000004,indoor,j,2.3182303999997202,0.16559110000025612,205.9617715999998,205.96178099999997,None,205.9780307000001,205.9780307000001,205.9780307000001,,,,,,,,,,,,,,00026,001,2025-11-11_05h26.46.426,MST_task,2024.2.2,60.047401418791054,2025-11-11 05h26.51.406060 +0530,
,Objects\080a.jpg,16,0,16,,,,,f,1.5187344999999368,0.11814659999981814,None,,,,,,,16,0,16,0,205.9780307000001,,,,,,,,,,,,,,,,,,,,,,,205.96183789999986,205.9780307000001,206.47798479999983,206.46149019999984,,,,,,,,,,,,,,,,,,,,,,206.47222239999974,206.47798479999983,206.47798479999983,206.47798479999983,209.46152540000003,indoor,f,1.5187344999999368,0.11814659999981814,209.46155820000013,209.46156659999997,None,209.47794889999977,209.47794889999977,209.47794889999977,,,,,,,,,,,,,,00026,001,2025-11-11_05h26.46.426,MST_task,2024.2.2,60.047401418791054,2025-11-11 05h26.51.406060 +0530,
,Objects\001a.jpg,17,0,17,,,,,f,1.9661559000001034,0.14628650000031485,None,,,,,,,17,0,17,0,209.47794889999977,,,,,,,,,,,,,,,,,,,,,,,209.4616163999999,209.47794889999977,209.97790489999988,209.96144689999983,,,,,,,,,,,,,,,,,,,,,,209.96929880000016,209.97790489999988,209.97790489999988,209.97790489999988,212.96152870000014,indoor,f,1.9661559000001034,0.14628650000031485,212.96156939999992,212.96157859999994,None,212.97787329999983,212.97787329999983,212.97787329999983,,,,,,,,,,,,,,00026,001,2025-11-11_05h26.46.426,MST_task,2024.2.2,60.047401418791054,2025-11-11 05h26.51.406060 +0530,
,Objects\269a.jpg,18,0,18,,,,,f,2.440500400000019,0.13035609999997178,None,,,,,,,18,0,18,0,212.97787329999983,,,,,,,,,,,,,,,,,,,,,,,212.9616335999999,212.97787329999983,213.47782229999984,213.4613346000001,,,,,,,,,,,,,,,,,,,,,,213.47194189999982,213.47782229999984,213.47782229999984,213.47782229999984,216.4613635999999,indoor,f,2.440500400000019,0.13035609999997178,216.46139829999993,216.4614075999998,None,216.47779140000011,216.47779140000011,216.47779140000011,,,,,,,,,,,,,,00026,001,2025-11-11_05h26.46.426,MST_task,2024.2.2,60.047401418791054,2025-11-11 05h26.51.406060 +0530,
,Objects\292a.jpg,19,0,19,,,,,j,1.3707942999999432,0.18269770000006247,None,,,,,,,19,0,19,0,216.47779140000011,,,,,,,,,,,,,,,,,,,,,,,216.46146169999975,216.47779140000011,216.97774479999998,216.96127239999987,,,,,,,,,,,,,,,,,,,,,,216.97123539999984,216.97774479999998,216.97774479999998,216.97774479999998,219.96140650000007,indoor,j,1.3707942999999432,0.18269770000006247,219.96144550000008,219.96145579999984,None,219.97771629999988,219.97771629999988,219.97771629999988,,,,,,,,,,,,,,00026,001,2025-11-11_05h26.46.426,MST_task,2024.2.2,60.047401418791054,2025-11-11 05h26.51.406060 +0530,
,Objects\245a.jpg,20,0,20,,,,,j,2.168653499999891,0.15141280000034385,None,,,,,,,20,0,20,0,219.97771629999988,,,,,,,,,,,,,,,,,,,,,,,219.9615149000001,219.97771629999988,220.4776840999998,220.46127220000017,,,,,,,,,,,,,,,,,,,,,,220.4719052999999,220.4776840999998,220.4776840999998,220.4776840999998,223.46132780000016,indoor,j,2.168653499999891,0.15141280000034385,223.46136160000015,223.4613703,None,223.4776336,223.4776336,223.4776336,,,,,,,,,,,,,,00026,001,2025-11-11_05h26.46.426,MST_task,2024.2.2,60.047401418791054,2025-11-11 05h26.51.406060 +0530,
,Objects\137a.jpg,21,0,21,,,,,j,2.4422199999999066,0.15455530000008366,None,,,,,,,21,0,21,0,223.4776336,,,,,,,,,,,,,,,,,,,,,,,223.46142069999996,223.4776336,223.97763010000017,223.96120299999984,,,,,,,,,,,,,,,,,,,,,,223.97037619999992,223.97763010000017,223.97763010000017,223.97763010000017,226.9612287,shoe,j,2.4422199999999066,0.15455530000008366,226.96279249999998,226.96280389999993,None,226.9775513999998,226.9775513999998,226.9775513999998,,,,,,,,,,,,,,00026,001,2025-11-11_05h26.46.426,MST_task,2024.2.2,60.047401418791054,2025-11-11 05h26.51.406060 +0530,
,Objects\260a.jpg,22,0,22,,,,,f,1.9671605000003183,0.15403059999971447,None,,,,,,,22,0,22,0,226.9775513999998,,,,,,,,,,,,,,,,,,,,,,,226.9628585999999,226.9775513999998,227.4771228999998,227.4610219000001,,,,,,,,,,,,,,,,,,,,,,227.47163199999977,227.4771228999998,227.4771228999998,227.4771228999998,230.4610588999999,shoe,f,1.9671605000003183,0.15403059999971447,230.46109160000015,230.46110020000015,None,230.4774997999998,230.4774997999998,230.4774997999998,,,,,,,,,,,,,,00026,001,2025-11-11_05h26.46.426,MST_task,2024.2.2,60.047401418791054,2025-11-11 05h26.51.406060 +0530,
,Objects\085a.jpg,23,0,23,,,,,j,1.1725971999999274,0.17218550000006871,None,,,,,,,23,0,23,0,230.4774997999998,,,,,,,,,,,,,,,,,,,,,,,230.4611501999998,230.4774997999998,230.97704350000004,230.9609249,,,,,,,,,,,,,,,,,,,,,,230.97174640000003,230.97704350000004,230.97704350000004,230.97704350000004,233.9610518999998,shoe,j,1.1725971999999274,0.17218550000006871,233.9610861000001,233.9610957,None,233.977394,233.977394,233.977394,,,,,,,,,,,,,,00026,001,2025-11-11_05h26.46.426,MST_task,2024.2.2,60.047401418791054,2025-11-11 05h26.51.406060 +0530,
,Objects\284a.jpg,24,0,24,,,,,f,2.837542300000223,None,None,,,,,,,24,0,24,0,233.977394,,,,,,,,,,,,,,,,,,,,,,,233.96117400000003,233.977394,234.47696059999998,234.46093569999994,,,,,,,,,,,,,,,,,,,,,,234.47153059999982,234.47696059999998,234.47696059999998,234.47696059999998,237.46094279999988,shoe,f,2.837542300000223,None,237.46097689999988,237.46098600000005,None,237.47730309999997,237.47730309999997,237.47730309999997,,,,,,,,,,,,,,00026,001,2025-11-11_05h26.46.426,MST_task,2024.2.2,60.047401418791054,2025-11-11 05h26.51.406060 +0530,
,Objects\235a.jpg,25,0,25,,,,,f,1.793851199999608,0.1721733000003951,None,,,,,,,25,0,25,0,237.47730309999997,,,,,,,,,,,,,,,,,,,,,,,237.4610349999998,237.47730309999997,237.97688949999974,237.9608161000001,,,,,,,,,,,,,,,,,,,,,,237.97158979999995,237.97688949999974,237.97688949999974,237.97688949999974,240.96076099999982,shoe,f,1.793851199999608,0.1721733000003951,240.9607947999998,240.9608033999998,None,240.97722449999992,240.97722449999992,240.97722449999992,,,,,,,,,,,,,,00026,001,2025-11-11_05h26.46.426,MST_task,2024.2.2,60.047401418791054,2025-11-11 05h26.51.406060 +0530,
,Objects\376a.jpg,26,0,26,,,,,j,1.375618999999915,0.1931764999999359,None,,,,,,,26,0,26,0,240.97722449999992,,,,,,,,,,,,,,,,,,,,,,,240.96085570000014,240.97722449999992,241.47712509999974,241.4607802999999,,,,,,,,,,,,,,,,,,,,,,241.47158420000005,241.47712509999974,241.47712509999974,241.47712509999974,244.4608561,shoe,j,1.375618999999915,0.1931764999999359,244.46089059999986,244.46089979999988,None,244.4771095000001,244.4771095000001,244.4771095000001,,,,,,,,,,,,,,00026,001,2025-11-11_05h26.46.426,MST_task,2024.2.2,60.047401418791054,2025-11-11 05h26.51.406060 +0530,
,Objects\263a.jpg,27,0,27,,,,,j,1.3794871000000057,0.20166680000011183,None,,,,,,,27,0,27,0,244.4771095000001,,,,,,,,,,,,,,,,,,,,,,,244.46095839999998,244.4771095000001,244.97710580000012,244.96068520000017,,,,,,,,,,,,,,,,,,,,,,244.97175470000002,244.97710580000012,244.97710580000012,244.97710580000012,247.96075519999977,shoe,j,1.3794871000000057,0.20166680000011183,247.96079210000016,247.96080100000017,None,247.9770327000001,247.9770327000001,247.9770327000001,,,,,,,,,,,,,,00026,001,2025-11-11_05h26.46.426,MST_task,2024.2.2,60.047401418791054,2025-11-11 05h26.51.406060 +0530,
,Objects\133a.jpg,28,0,28,,,,,j,2.311043199999858,0.13752860000022338,None,,,,,,,28,0,28,0,247.9770327000001,,,,,,,,,,,,,,,,,,,,,,,247.9608889000001,247.9770327000001,248.49369739999975,248.46053299999994,,,,,,,,,,,,,,,,,,,,,,248.47431759999972,248.49369739999975,248.49369739999975,248.49369739999975,251.47702029999982,indoor,j,2.311043199999858,0.13752860000022338,251.4782467,251.47825969999985,None,,,,,,,,,,,,,,,,,00026,001,2025-11-11_05h26.46.426,MST_task,2024.2.2,60.047401418791054,2025-11-11 05h26.51.406060 +0530,
,Objects\205a.jpg,29,0,29,,,,,f,1.9783046000002287,0.14968779999981052,None,,,,,,,29,0,29,0,251.49366079999982,,,,,,,,,,,,,,,,,,,,,,,251.47832019999987,251.49366079999982,252.0102668999998,251.97717809999995,,,,,,,,,,,,,,,,,,,,,,251.98833019999984,252.0102668999998,252.0102668999998,252.0102668999998,254.99370020000015,indoor,f,1.9783046000002287,0.14968779999981052,254.99373990000004,254.99374949999992,None,,,,,,,,,,,,,,,,,00026,001,2025-11-11_05h26.46.426,MST_task,2024.2.2,60.047401418791054,2025-11-11 05h26.51.406060 +0530,
,Objects\192a.jpg,30,0,30,,,,,j,2.533926199999769,0.19431210000038845,None,,,,,,,30,0,30,0,255.01025019999997,,,,,,,,,,,,,,,,,,,,,,,254.99380759999985,255.01025019999997,255.50981999999976,255.49382830000013,,,,,,,,,,,,,,,,,,,,,,255.50442870000006,255.50981999999976,255.50981999999976,255.50981999999976,258.49367029999985,indoor,j,2.533926199999769,0.19431210000038845,258.4937036000001,258.4937126,None,258.51015270000016,258.51015270000016,258.51015270000016,,,,,,,,,,,,,,00026,001,2025-11-11_05h26.46.426,MST_task,2024.2.2,60.047401418791054,2025-11-11 05h26.51.406060 +0530,
,Objects\115a.jpg,31,0,31,,,,,j,2.835750199999893,None,None,,,,,,,31,0,31,0,258.51015270000016,,,,,,,,,,,,,,,,,,,,,,,258.4937639,258.51015270000016,259.01011759999983,258.9937230999999,,,,,,,,,,,,,,,,,,,,,,259.0013487000001,259.01011759999983,259.01011759999983,259.01011759999983,261.99374439999974,indoor,j,2.835750199999893,None,261.9937804000001,261.99379009999984,None,262.01008820000015,262.01008820000015,262.01008820000015,,,,,,,,,,,,,,00026,001,2025-11-11_05h26.46.426,MST_task,2024.2.2,60.047401418791054,2025-11-11 05h26.51.406060 +0530,
,Objects\045a.jpg,32,0,32,,,,,f,2.4858156999998755,0.17815950000021985,None,,,,,,,32,0,32,0,262.01008820000015,,,,,,,,,,,,,,,,,,,,,,,261.9938441999998,262.01008820000015,262.51003379999975,262.49366629999986,,,,,,,,,,,,,,,,,,,,,,262.5012762000001,262.51003379999975,262.51003379999975,262.51003379999975,265.49354559999983,indoor,f,2.4858156999998755,0.17815950000021985,265.49357729999974,265.49358540000003,None,265.50997329999973,265.50997329999973,265.50997329999973,,,,,,,,,,,,,,00026,001,2025-11-11_05h26.46.426,MST_task,2024.2.2,60.047401418791054,2025-11-11 05h26.51.406060 +0530,
,Objects\164a.jpg,33,0,33,,,,,None,,,j,0.5069386000000122,None,,,,,33,0,33,0,265.50997329999973,,,,,,,,,,,,,,,,,,,,,,,265.49363829999993,265.50997329999973,266.00995920000014,265.99349949999987,,,,,,,,,,,,,,,,,,,,,,266.0012800999998,266.00995920000014,266.00995920000014,266.00995920000014,268.9934939,indoor,None,,,268.99352439999984,269.5268332999999,j,269.0099249,269.0099249,269.0099249,269.0099249,269.0099249,0.5069386000000122,None,,,,,,,,,,00026,001,2025-11-11_05h26.46.426,MST_task,2024.2.2,60.047401418791054,2025-11-11 05h26.51.406060 +0530,
,Objects\004a.jpg,34,0,34,,,,,j,2.219127899999876,0.14130530000011277,None,,,,,,,34,0,34,0,269.5432455,,,,,,,,,,,,,,,,,,,,,,,269.52691319999985,269.5432455,270.04324570000017,270.02681989999974,,,,,,,,,,,,,,,,,,,,,,270.03416930000003,270.04324570000017,270.04324570000017,270.04324570000017,273.0268185,indoor,j,2.219127899999876,0.14130530000011277,273.0268612,273.0268710999999,None,273.0431567999999,273.0431567999999,273.0431567999999,,,,,,,,,,,,,,00026,001,2025-11-11_05h26.46.426,MST_task,2024.2.2,60.047401418791054,2025-11-11 05h26.51.406060 +0530,
,Objects\220a.jpg,35,0,35,,,,,j,2.314046799999687,0.19875360000014552,None,,,,,,,35,0,35,0,273.0431567999999,,,,,,,,,,,,,,,,,,,,,,,273.0269250000001,273.0431567999999,273.5598203999998,273.5266266999997,,,,,,,,,,,,,,,,,,,,,,273.53901499999984,273.5598203999998,273.5598203999998,273.5598203999998,276.5431282999998,shoe,j,2.314046799999687,0.19875360000014552,276.5448161999998,276.54482929999995,None,,,,,,,,,,,,,,,,,00026,001,2025-11-11_05h26.46.426,MST_task,2024.2.2,60.047401418791054,2025-11-11 05h26.51.406060 +0530,
,Objects\258a.jpg,36,0,36,,,,,j,1.6285962000001746,0.1619405999999799,None,,,,,,,36,0,36,0,276.5597444,,,,,,,,,,,,,,,,,,,,,,,276.54488119999996,276.5597444,277.0593122999999,277.0433164000001,,,,,,,,,,,,,,,,,,,,,,277.0534867000001,277.0593122999999,277.0593122999999,277.0593122999999,280.04321960000016,shoe,j,1.6285962000001746,0.1619405999999799,280.04325530000006,280.0432639999999,None,280.0596922999998,280.0596922999998,280.0596922999998,,,,,,,,,,,,,,00026,001,2025-11-11_05h26.46.426,MST_task,2024.2.2,60.047401418791054,2025-11-11 05h26.51.406060 +0530,
,Objects\093a.jpg,37,0,37,,,,,j,1.9206785000001219,0.19795079999994414,None,,,,,,,37,0,37,0,280.0596922999998,,,,,,,,,,,,,,,,,,,,,,,280.04331390000016,280.0596922999998,280.5592378000001,280.54311959999995,,,,,,,,,,,,,,,,,,,,,,280.55393289999984,280.5592378000001,280.5592378000001,280.5592378000001,283.5432842,shoe,j,1.9206785000001219,0.19795079999994414,283.5433247000001,283.54333369999995,None,283.55959110000003,283.55959110000003,283.55959110000003,,,,,,,,,,,,,,00026,001,2025-11-11_05h26.46.426,MST_task,2024.2.2,60.047401418791054,2025-11-11 05h26.51.406060 +0530,
,Objects\037a.jpg,38,0,38,,,,,f,1.5743422000000464,0.14383840000027703,None,,,,,,,38,0,38,0,283.55959110000003,,,,,,,,,,,,,,,,,,,,,,,283.5433883999999,283.55959110000003,284.0595469,284.0430685000001,,,,,,,,,,,,,,,,,,,,,,284.05111869999973,284.0595469,284.0595469,284.0595469,287.0430471999998,shoe,f,1.5743422000000464,0.14383840000027703,287.0430848000001,287.04309379999995,None,287.0594993999998,287.0594993999998,287.0594993999998,,,,,,,,,,,,,,00026,001,2025-11-11_05h26.46.426,MST_task,2024.2.2,60.047401418791054,2025-11-11 05h26.51.406060 +0530,
,Objects\102a.jpg,39,0,39,,,,,f,1.5104549000002407,0.18736459999990984,None,,,,,,,39,0,39,0,287.0594993999998,,,,,,,,,,,,,,,,,,,,,,,287.0431883000001,287.0594993999998,287.55946649999987,287.5431402999998,,,,,,,,,,,,,,,,,,,,,,287.5510777999998,287.55946649999987,287.55946649999987,287.55946649999987,290.5431060000001,shoe,f,1.5104549000002407,0.18736459999990984,290.54314429999977,290.54315499999984,None,290.55942319999986,290.55942319999986,290.55942319999986,,,,,,,,,,,,,,00026,001,2025-11-11_05h26.46.426,MST_task,2024.2.2,60.047401418791054,2025-11-11 05h26.51.406060 +0530,
,Objects\002a.jpg,40,0,40,,,,,f,1.0672316999998657,0.17782660000011674,None,,,,,,,40,0,40,0,290.55942319999986,,,,,,,,,,,,,,,,,,,,,,,290.54321359999994,290.55942319999986,291.05939119999994,291.0429515999999,,,,,,,,,,,,,,,,,,,,,,291.05050819999997,291.05939119999994,291.05939119999994,291.05939119999994,294.0429623,shoe,f,1.0672316999998657,0.17782660000011674,294.04300049999983,294.04300939999985,None,294.05934849999994,294.05934849999994,294.05934849999994,,,,,,,,,,,,,,00026,001,2025-11-11_05h26.46.426,MST_task,2024.2.2,60.047401418791054,2025-11-11 05h26.51.406060 +0530,
,Objects\241a.jpg,41,0,41,,,,,None,,,j,0.06533659999968222,None,,,,,41,0,41,0,294.05934849999994,,,,,,,,,,,,,,,,,,,,,,,294.04309299999977,294.05934849999994,294.5593017000001,294.54279289999977,,,,,,,,,,,,,,,,,,,,,,294.5505395,294.5593017000001,294.5593017000001,294.5593017000001,297.5429328,shoe,None,,,297.5429663,297.6262932999998,j,297.55929430000015,297.55929430000015,297.55929430000015,297.55929430000015,297.55929430000015,0.06533659999968222,None,,,,,,,,,,00026,001,2025-11-11_05h26.46.426,MST_task,2024.2.2,60.047401418791054,2025-11-11 05h26.51.406060 +0530,
,Objects\355a.jpg,42,0,42,,,,,j,1.898744699999952,0.12606110000024273,None,,,,,,,42,0,42,0,297.6425976999999,,,,,,,,,,,,,,,,,,,,,,,297.62636669999983,297.6425976999999,298.1592175999999,298.1260606999999,,,,,,,,,,,,,,,,,,,,,,298.1379462,298.1592175999999,298.1592175999999,298.1592175999999,301.14265239999986,indoor,j,1.898744699999952,0.12606110000024273,301.1438251999998,301.14383799999996,None,,,,,,,,,,,,,,,,,00026,001,2025-11-11_05h26.46.426,MST_task,2024.2.2,60.047401418791054,2025-11-11 05h26.51.406060 +0530,
,Objects\021a.jpg,43,0,43,,,,,f,2.0721183999999084,0.19289279999975406,None,,,,,,,43,0,43,0,301.15914310000016,,,,,,,,,,,,,,,,,,,,,,,301.1438911,301.15914310000016,301.6590179,301.6426581999999,,,,,,,,,,,,,,,,,,,,,,301.65367530000003,301.6590179,301.6590179,301.6590179,304.64281870000013,indoor,f,2.0721183999999084,0.19289279999975406,304.6428562000001,304.6428649999998,None,304.6590637999998,304.6590637999998,304.6590637999998,,,,,,,,,,,,,,00026,001,2025-11-11_05h26.46.426,MST_task,2024.2.2,60.047401418791054,2025-11-11 05h26.51.406060 +0530,
,Objects\310a.jpg,44,0,44,,,,,j,2.063834399999905,0.18560230000002775,None,,,,,,,44,0,44,0,304.6590637999998,,,,,,,,,,,,,,,,,,,,,,,304.6429162999998,304.6590637999998,305.15906099999984,305.14256179999984,,,,,,,,,,,,,,,,,,,,,,305.15299939999977,305.15906099999984,305.15906099999984,305.15906099999984,308.1425924,indoor,j,2.063834399999905,0.18560230000002775,308.1426286000001,308.14263819999996,None,308.1590142,308.1590142,308.1590142,,,,,,,,,,,,,,00026,001,2025-11-11_05h26.46.426,MST_task,2024.2.2,60.047401418791054,2025-11-11 05h26.51.406060 +0530,
,Objects\119a.jpg,45,0,45,,,,,f,2.0665076000000226,0.15656699999999546,None,,,,,,,45,0,45,0,308.1590142,,,,,,,,,,,,,,,,,,,,,,,308.1426901,308.1590142,308.67563429999973,308.64251269999977,,,,,,,,,,,,,,,,,,,,,,308.65475909999986,308.67563429999973,308.67563429999973,308.67563429999973,311.6588376999998,indoor,f,2.0665076000000226,0.15656699999999546,311.65888559999985,311.6588969999998,None,,,,,,,,,,,,,,,,,00026,001,2025-11-11_05h26.46.426,MST_task,2024.2.2,60.047401418791054,2025-11-11 05h26.51.406060 +0530,
,Objects\040a.jpg,46,0,46,,,,,f,1.408161100000143,0.18620849999979328,None,,,,,,,46,0,46,0,311.6755711999999,,,,,,,,,,,,,,,,,,,,,,,311.6589571999998,311.6755711999999,,312.1589647999999,,,,,,,,,,,,,,,,,,,,,,312.1661967,312.17558329999974,312.17558329999974,312.17558329999974,315.1590624999999,indoor,f,1.408161100000143,0.18620849999979328,315.1590987999998,315.1591097999999,None,,,,,,,,,,,,,,,,,00026,001,2025-11-11_05h26.46.426,MST_task,2024.2.2,60.047401418791054,2025-11-11 05h26.51.406060 +0530,
,Objects\064a.jpg,47,0,47,,,,,j,2.0623248000001695,0.19028479999997217,None,,,,,,,47,0,47,0,315.17552969999997,,,,,,,,,,,,,,,,,,,,,,,315.15916590000006,315.17552969999997,315.67551809999986,315.65899039999977,,,,,,,,,,,,,,,,,,,,,,315.6665288999998,315.67551809999986,315.67551809999986,315.67551809999986,318.65907860000016,indoor,j,2.0623248000001695,0.19028479999997217,318.6591134,318.65912230000004,None,318.67544499999985,318.67544499999985,318.67544499999985,,,,,,,,,,,,,,00026,001,2025-11-11_05h26.46.426,MST_task,2024.2.2,60.047401418791054,2025-11-11 05h26.51.406060 +0530,
,Objects\059a.jpg,48,0,48,,,,,j,2.8116793999997753,None,None,,,,,,,48,0,48,0,318.67544499999985,,,,,,,,,,,,,,,,,,,,,,,318.6591733,318.67544499999985,319.1754154,319.15894590000016,,,,,,,,,,,,,,,,,,,,,,319.1664973000002,319.1754154,319.1754154,319.1754154,322.15906760000007,indoor,j,2.8116793999997753,None,322.15910239999994,322.1591115000001,None,322.17535959999987,322.17535959999987,322.17535959999987,,,,,,,,,,,,,,00026,001,2025-11-11_05h26.46.426,MST_task,2024.2.2,60.047401418791054,2025-11-11 05h26.51.406060 +0530,
,Objects\126a.jpg,49,0,49,,,,,j,1.6313531999999213,0.1859890999999152,None,,,,,,,49,0,49,0,322.17535959999987,,,,,,,,,,,,,,,,,,,,,,,322.15916289999996,322.17535959999987,322.6752004,322.658813,,,,,,,,,,,,,,,,,,,,,,322.6679054000001,322.6752004,322.6752004,322.6752004,325.65903660000004,shoe,j,1.6313531999999213,0.1859890999999152,325.6605562999998,325.6605675999999,None,325.67528089999996,325.67528089999996,325.67528089999996,,,,,,,,,,,,,,00026,001,2025-11-11_05h26.46.426,MST_task,2024.2.2,60.047401418791054,2025-11-11 05h26.51.406060 +0530,
,Objects\062a.jpg,50,0,50,,,,,f,1.1673593999998957,0.20577910000019983,None,,,,,,,50,0,50,0,325.67528089999996,,,,,,,,,,,,,,,,,,,,,,,325.66061880000007,325.67528089999996,326.1752311,326.15872179999997,,,,,,,,,,,,,,,,,,,,,,326.1666531000001,326.1752311,326.1752311,326.1752311,329.1587341999998,shoe,f,1.1673593999998957,0.20577910000019983,329.15877180000007,329.1587811999998,None,329.1753143000001,329.1753143000001,329.1753143000001,,,,,,,,,,,,,,00026,001,2025-11-11_05h26.46.426,MST_task,2024.2.2,60.047401418791054,2025-11-11 05h26.51.406060 +0530,
,Objects\112a.jpg,51,0,51,,,,,j,1.257532699999956,0.1696103000003859,None,,,,,,,51,0,51,0,329.1753143000001,,,,,,,,,,,,,,,,,,,,,,,329.1588357999999,329.1753143000001,329.675154,329.6586635999997,,,,,,,,,,,,,,,,,,,,,,329.6665530999999,329.675154,329.675154,329.675154,332.65870110000014,shoe,j,1.257532699999956,0.1696103000003859,332.6587393,332.65874870000016,None,332.6751128000001,332.6751128000001,332.6751128000001,,,,,,,,,,,,,,00026,001,2025-11-11_05h26.46.426,MST_task,2024.2.2,60.047401418791054,2025-11-11 05h26.51.406060 +0530,
,Objects\190a.jpg,52,0,52,,,,,f,1.7072936999998092,0.1479656999999861,None,,,,,,,52,0,52,0,332.6751128000001,,,,,,,,,,,,,,,,,,,,,,,332.65880259999994,332.6751128000001,333.175072,333.15854020000006,,,,,,,,,,,,,,,,,,,,,,333.16641919999984,333.175072,333.175072,333.175072,336.1586127999999,shoe,f,1.7072936999998092,0.1479656999999861,336.15864939999983,336.1586592999997,None,336.1750373,336.1750373,336.1750373,,,,,,,,,,,,,,00026,001,2025-11-11_05h26.46.426,MST_task,2024.2.2,60.047401418791054,2025-11-11 05h26.51.406060 +0530,
,Objects\050a.jpg,53,0,53,,,,,f,1.466698499999893,0.14700059999995574,None,,,,,,,53,0,53,0,336.1750373,,,,,,,,,,,,,,,,,,,,,,,336.15871460000017,336.1750373,336.6749970000001,336.6586478999998,,,,,,,,,,,,,,,,,,,,,,336.66643250000016,336.6749970000001,336.6749970000001,336.6749970000001,339.65858739999976,shoe,f,1.466698499999893,0.14700059999995574,339.65862890000017,339.6586388999999,None,339.6749595000001,339.6749595000001,339.6749595000001,,,,,,,,,,,,,,00026,001,2025-11-11_05h26.46.426,MST_task,2024.2.2,60.047401418791054,2025-11-11 05h26.51.406060 +0530,
,Objects\216a.jpg,54,0,54,,,,,f,1.2937321999997948,0.15393670000003112,None,,,,,,,54,0,54,0,339.6749595000001,,,,,,,,,,,,,,,,,,,,,,,339.65870189999987,339.6749595000001,340.1749126999998,340.15841999999975,,,,,,,,,,,,,,,,,,,,,,340.16635610000003,340.1749126999998,340.1749126999998,340.1749126999998,343.15853579999975,shoe,f,1.2937321999997948,0.15393670000003112,343.15856829999984,343.1585768,None,343.17488319999984,343.17488319999984,343.17488319999984,,,,,,,,,,,,,,00026,001,2025-11-11_05h26.46.426,MST_task,2024.2.2,60.047401418791054,2025-11-11 05h26.51.406060 +0530,
,Objects\285a.jpg,55,0,55,,,,,f,1.7968972999997277,0.1582271000002038,None,,,,,,,55,0,55,0,343.17488319999984,,,,,,,,,,,,,,,,,,,,,,,343.1586272999998,343.17488319999984,343.67483230000016,343.6583485000001,,,,,,,,,,,,,,,,,,,,,,343.66650200000004,343.67483230000016,343.67483230000016,343.67483230000016,346.6584505999999,shoe,f,1.7968972999997277,0.1582271000002038,346.65849449999996,346.658504,None,346.67480590000014,346.67480590000014,346.67480590000014,,,,,,,,,,,,,,00026,001,2025-11-11_05h26.46.426,MST_task,2024.2.2,60.047401418791054,2025-11-11 05h26.51.406060 +0530,
,Objects\325a.jpg,56,0,56,,,,,f,2.559559199999967,0.2132405000002109,None,,,,,,,56,0,56,0,346.67480590000014,,,,,,,,,,,,,,,,,,,,,,,346.65856269999995,346.67480590000014,347.1914538000001,347.1582758999998,,,,,,,,,,,,,,,,,,,,,,347.1699008999999,347.1914538000001,347.1914538000001,347.1914538000001,350.17472689999977,indoor,f,2.559559199999967,0.2132405000002109,350.17591330000005,350.17592479999985,None,,,,,,,,,,,,,,,,,00026,001,2025-11-11_05h26.46.426,MST_task,2024.2.2,60.047401418791054,2025-11-11 05h26.51.406060 +0530,
,Objects\175a.jpg,57,0,57,,,,,f,1.6336139000000003,0.14509160000034171,None,,,,,,,57,0,57,0,350.1913890000001,,,,,,,,,,,,,,,,,,,,,,,350.1759753000001,350.1913890000001,350.69122179999977,350.6748708,,,,,,,,,,,,,,,,,,,,,,350.6860812,350.69122179999977,350.69122179999977,350.69122179999977,353.6749810000001,indoor,f,1.6336139000000003,0.14509160000034171,353.67501409999977,353.6750225999999,None,353.6913058,353.6913058,353.6913058,,,,,,,,,,,,,,00026,001,2025-11-11_05h26.46.426,MST_task,2024.2.2,60.047401418791054,2025-11-11 05h26.51.406060 +0530,
,Objects\233a.jpg,58,0,58,,,,,None,,,f,2.211402900000394,None,,,,,58,0,58,0,353.6913058,,,,,,,,,,,,,,,,,,,,,,,353.6750751999998,353.6913058,354.19128599999976,354.17483679999987,,,,,,,,,,,,,,,,,,,,,,354.1852079999999,354.19128599999976,354.19128599999976,354.19128599999976,357.17481829999997,indoor,None,,,357.17485339999985,359.40820729999996,f,357.19122749999997,357.19122749999997,357.19122749999997,357.19122749999997,357.19122749999997,2.211402900000394,None,,,,,,,,,,00026,001,2025-11-11_05h26.46.426,MST_task,2024.2.2,60.047401418791054,2025-11-11 05h26.51.406060 +0530,
,Objects\210a.jpg,59,0,59,,,,,f,2.188361200000145,0.15302890000020852,None,,,,,,,59,0,59,0,359.4245062,,,,,,,,,,,,,,,,,,,,,,,359.40827739999986,359.4245062,359.92445739999994,359.9080964,,,,,,,,,,,,,,,,,,,,,,359.9181026000001,359.92445739999994,359.92445739999994,359.92445739999994,362.90802459999986,indoor,f,2.188361200000145,0.15302890000020852,362.9080577,362.9080662000001,None,362.9244146000001,362.9244146000001,362.9244146000001,,,,,,,,,,,,,,00026,001,2025-11-11_05h26.46.426,MST_task,2024.2.2,60.047401418791054,2025-11-11 05h26.51.406060 +0530,
,Objects\275a.jpg,60,0,60,,,,,j,1.8363816999999472,0.1934676999999283,None,,,,,,,60,0,60,0,362.9244146000001,,,,,,,,,,,,,,,,,,,,,,,362.9081191,362.9244146000001,363.42437759999984,363.4078841999999,,,,,,,,,,,,,,,,,,,,,,363.4183488999997,363.42437759999984,363.42437759999984,363.42437759999984,366.4079167,indoor,j,1.8363816999999472,0.1934676999999283,366.4079492999999,366.40795750000007,None,366.42433919999985,366.42433919999985,366.42433919999985,,,,,,,,,,,,,,00026,001,2025-11-11_05h26.46.426,MST_task,2024.2.2,60.047401418791054,2025-11-11 05h26.51.406060 +0530,
,Objects\129a.jpg,61,0,61,,,,,j,1.9595995999998195,0.17837470000040412,None,,,,,,,61,0,61,0,366.42433919999985,,,,,,,,,,,,,,,,,,,,,,,366.4080097000001,366.42433919999985,366.94100530000014,366.9079093999999,,,,,,,,,,,,,,,,,,,,,,366.9198937000001,366.94100530000014,366.94100530000014,366.94100530000014,369.92432499999995,indoor,j,1.9595995999998195,0.17837470000040412,369.9243630000001,369.9243726999998,None,,,,,,,,,,,,,,,,,00026,001,2025-11-11_05h26.46.426,MST_task,2024.2.2,60.047401418791054,2025-11-11 05h26.51.406060 +0530,
,Objects\252a.jpg,62,0,62,,,,,f,2.4888778000004095,0.16213440000001356,None,,,,,,,62,0,62,0,369.9409353000001,,,,,,,,,,,,,,,,,,,,,,,369.92443449999973,369.9409353000001,370.4409233000001,370.4244011999999,,,,,,,,,,,,,,,,,,,,,,370.43208349999986,370.4409233000001,370.4409233000001,370.4409233000001,373.42441310000004,indoor,f,2.4888778000004095,0.16213440000001356,373.424446,373.4244546,None,373.4408202999998,373.4408202999998,373.4408202999998,,,,,,,,,,,,,,00026,001,2025-11-11_05h26.46.426,MST_task,2024.2.2,60.047401418791054,2025-11-11 05h26.51.406060 +0530,
,Objects\097a.jpg,63,0,63,,,,,j,2.715868799999953,0.13921410000011747,None,,,,,,,63,0,63,0,373.4408202999998,,,,,,,,,,,,,,,,,,,,,,,373.4245040999999,373.4408202999998,373.94079729999976,373.92434379999986,,,,,,,,,,,,,,,,,,,,,,373.93363069999987,373.94079729999976,373.94079729999976,373.94079729999976,376.9244162,shoe,j,2.715868799999953,0.13921410000011747,376.92592049999985,376.9259339,None,376.94077019999986,376.94077019999986,376.94077019999986,,,,,,,,,,,,,,00026,001,2025-11-11_05h26.46.426,MST_task,2024.2.2,60.047401418791054,2025-11-11 05h26.51.406060 +0530,
,Objects\063a.jpg,64,0,64,,,,,f,1.0834568000000218,0.16245299999991403,None,,,,,,,64,0,64,0,376.94077019999986,,,,,,,,,,,,,,,,,,,,,,,376.9259873000001,376.94077019999986,377.44071859999985,377.4243295000001,,,,,,,,,,,,,,,,,,,,,,377.43209909999996,377.44071859999985,377.44071859999985,377.44071859999985,380.42428070000005,shoe,f,1.0834568000000218,0.16245299999991403,380.42432069999995,380.4243298000001,None,380.4406992999998,380.4406992999998,380.4406992999998,,,,,,,,,,,,,,00026,001,2025-11-11_05h26.46.426,MST_task,2024.2.2,60.047401418791054,2025-11-11 05h26.51.406060 +0530,
,Objects\352a.jpg,65,0,65,,,,,f,1.1335770000000593,0.19381479999992735,None,,,,,,,65,0,65,0,380.4406992999998,,,,,,,,,,,,,,,,,,,,,,,380.42441310000004,380.4406992999998,380.94064500000013,380.92416030000004,,,,,,,,,,,,,,,,,,,,,,380.9346289,380.94064500000013,380.94064500000013,380.94064500000013,383.92420200000015,shoe,f,1.1335770000000593,0.19381479999992735,383.9242344999998,383.92424329999994,None,383.94060880000006,383.94060880000006,383.94060880000006,,,,,,,,,,,,,,00026,001,2025-11-11_05h26.46.426,MST_task,2024.2.2,60.047401418791054,2025-11-11 05h26.51.406060 +0530,
,Objects\173a.jpg,66,0,66,,,,,f,1.6501020999999128,0.1983834000002389,None,,,,,,,66,0,66,0,383.94060880000006,,,,,,,,,,,,,,,,,,,,,,,383.9242982999999,383.94060880000006,384.44045700000015,384.42409020000014,,,,,,,,,,,,,,,,,,,,,,384.43498180000006,384.44045700000015,384.44045700000015,384.44045700000015,387.4242509999999,shoe,f,1.6501020999999128,0.1983834000002389,387.4242893999999,387.4242991000001,None,387.44052759999977,387.44052759999977,387.44052759999977,,,,,,,,,,,,,,00026,001,2025-11-11_05h26.46.426,MST_task,2024.2.2,60.047401418791054,2025-11-11 05h26.51.406060 +0530,
,Objects\167a.jpg,67,0,67,,,,,f,2.1153480000002673,0.17005339999968783,None,,,,,,,67,0,67,0,387.44052759999977,,,,,,,,,,,,,,,,,,,,,,,387.42438589999983,387.44052759999977,387.9404776000001,387.9241259999999,,,,,,,,,,,,,,,,,,,,,,387.93197789999977,387.9404776000001,387.9404776000001,387.9404776000001,390.92404869999973,shoe,f,2.1153480000002673,0.17005339999968783,390.92408380000006,390.9240924999999,None,390.9404217000001,390.9404217000001,390.9404217000001,,,,,,,,,,,,,,00026,001,2025-11-11_05h26.46.426,MST_task,2024.2.2,60.047401418791054,2025-11-11 05h26.51.406060 +0530,
,Objects\203a.jpg,68,0,68,,,,,f,2.6608281999997416,0.1664176000003863,None,,,,,,,68,0,68,0,390.9404217000001,,,,,,,,,,,,,,,,,,,,,,,390.9241440999999,390.9404217000001,391.457132,391.4239627000002,,,,,,,,,,,,,,,,,,,,,,391.43648840000014,391.457132,391.457132,391.457132,394.4403978,shoe,f,2.6608281999997416,0.1664176000003863,394.4404338999998,394.4404433999998,None,,,,,,,,,,,,,,,,,00026,001,2025-11-11_05h26.46.426,MST_task,2024.2.2,60.047401418791054,2025-11-11 05h26.51.406060 +0530,
,Objects\128a.jpg,69,0,69,,,,,f,2.5130890999998883,0.17410870000003342,None,,,,,,,69,0,69,0,394.45703300000014,,,,,,,,,,,,,,,,,,,,,,,394.4404976999999,394.45703300000014,394.95703430000003,394.94067129999985,,,,,,,,,,,,,,,,,,,,,,394.95151540000006,394.95703430000003,394.95703430000003,394.95703430000003,397.9405010999999,shoe,f,2.5130890999998883,0.17410870000003342,397.9405375000001,397.9405471,None,397.9569569999999,397.9569569999999,397.9569569999999,,,,,,,,,,,,,,00026,001,2025-11-11_05h26.46.426,MST_task,2024.2.2,60.047401418791054,2025-11-11 05h26.51.406060 +0530,
,Objects\359a.jpg,70,0,70,,,,,f,2.105087100000219,0.16941240000005564,None,,,,,,,70,0,70,0,397.9569569999999,,,,,,,,,,,,,,,,,,,,,,,397.9406012999998,397.9569569999999,398.4736118999999,398.4405109999998,,,,,,,,,,,,,,,,,,,,,,398.4530914000002,398.4736118999999,398.4736118999999,398.4736118999999,401.45690030000014,indoor,f,2.105087100000219,0.16941240000005564,401.4580526999998,401.4580651000001,None,,,,,,,,,,,,,,,,,00026,001,2025-11-11_05h26.46.426,MST_task,2024.2.2,60.047401418791054,2025-11-11 05h26.51.406060 +0530,
,Objects\261a.jpg,71,0,71,,,,,f,1.7511293000002297,0.16966229999979987,None,,,,,,,71,0,71,0,401.4735470999999,,,,,,,,,,,,,,,,,,,,,,,401.45811909999975,401.4735470999999,401.9734973999998,401.95702070000016,,,,,,,,,,,,,,,,,,,,,,401.9672614000001,401.9734973999998,401.9734973999998,401.9734973999998,404.95706729999984,indoor,f,1.7511293000002297,0.16966229999979987,404.9571012000001,404.9571102,None,404.97346560000005,404.97346560000005,404.97346560000005,,,,,,,,,,,,,,00026,001,2025-11-11_05h26.46.426,MST_task,2024.2.2,60.047401418791054,2025-11-11 05h26.51.406060 +0530,
,Objects\182a.jpg,72,0,72,,,,,j,2.294718500000272,0.1981362999999874,None,,,,,,,72,0,72,0,404.97346560000005,,,,,,,,,,,,,,,,,,,,,,,404.9571612,404.97346560000005,405.4732957000001,405.4570126999997,,,,,,,,,,,,,,,,,,,,,,405.46791600000006,405.4732957000001,405.4732957000001,405.4732957000001,408.45690479999985,indoor,j,2.294718500000272,0.1981362999999874,408.45693589999973,408.45694430000003,None,408.4733796999999,408.4733796999999,408.4733796999999,,,,,,,,,,,,,,00026,001,2025-11-11_05h26.46.426,MST_task,2024.2.2,60.047401418791054,2025-11-11 05h26.51.406060 +0530,
,Objects\344a.jpg,73,0,73,,,,,f,2.6510057999998935,0.14136420000022554,None,,,,,,,73,0,73,0,408.4733796999999,,,,,,,,,,,,,,,,,,,,,,,408.45699620000005,408.4733796999999,408.97337400000015,408.95677109999997,,,,,,,,,,,,,,,,,,,,,,408.9671957999999,408.97337400000015,408.97337400000015,408.97337400000015,411.95696480000015,indoor,f,2.6510057999998935,0.14136420000022554,411.95700339999985,411.9570125,None,411.9733222,411.9733222,411.9733222,,,,,,,,,,,,,,00026,001,2025-11-11_05h26.46.426,MST_task,2024.2.2,60.047401418791054,2025-11-11 05h26.51.406060 +0530,
,Objects\144a.jpg,74,0,74,,,,,j,2.1842561000003116,0.17671699999982593,None,,,,,,,74,0,74,0,411.9733222,,,,,,,,,,,,,,,,,,,,,,,411.9570663999998,411.9733222,412.47286840000015,412.45685790000016,,,,,,,,,,,,,,,,,,,,,,412.4681261999999,412.47286840000015,412.47286840000015,412.47286840000015,415.4569467000001,indoor,j,2.1842561000003116,0.17671699999982593,415.4569778,415.45698600000014,None,415.47321740000007,415.47321740000007,415.47321740000007,,,,,,,,,,,,,,00026,001,2025-11-11_05h26.46.426,MST_task,2024.2.2,60.047401418791054,2025-11-11 05h26.51.406060 +0530,
,Objects\109a.jpg,75,0,75,,,,,j,2.5323045999998612,0.15112170000020342,None,,,,,,,75,0,75,0,415.47321740000007,,,,,,,,,,,,,,,,,,,,,,,415.45703779999985,415.47321740000007,415.97322889999987,415.95670100000007,,,,,,,,,,,,,,,,,,,,,,415.96412439999995,415.97322889999987,415.97322889999987,415.97322889999987,418.9566866,indoor,j,2.5323045999998612,0.15112170000020342,418.95671790000006,418.95672650000006,None,418.97313799999984,418.97313799999984,418.97313799999984,,,,,,,,,,,,,,00026,001,2025-11-11_05h26.46.426,MST_task,2024.2.2,60.047401418791054,2025-11-11 05h26.51.406060 +0530,
,Objects\057a.jpg,76,0,76,,,,,f,1.8133201999999073,0.18189489999986108,None,,,,,,,76,0,76,0,418.97313799999984,,,,,,,,,,,,,,,,,,,,,,,418.9567757,418.97313799999984,419.473121,419.45661310000014,,,,,,,,,,,,,,,,,,,,,,419.4642245,419.473121,419.473121,419.473121,422.45658449999974,indoor,f,1.8133201999999073,0.18189489999986108,422.4566178,422.4566261,None,422.47305719999986,422.47305719999986,422.47305719999986,,,,,,,,,,,,,,00026,001,2025-11-11_05h26.46.426,MST_task,2024.2.2,60.047401418791054,2025-11-11 05h26.51.406060 +0530,
,Objects\169a.jpg,77,0,77,,,,,None,,,j,0.4931917000003523,None,,,,,77,0,77,0,422.47305719999986,,,,,,,,,,,,,,,,,,,,,,,422.4566823,422.47305719999986,422.97307309999997,422.9566070000001,,,,,,,,,,,,,,,,,,,,,,422.9657363000001,422.97307309999997,422.97307309999997,422.97307309999997,425.9566568,shoe,None,,,425.9582851,426.47333789999993,j,425.9729557999999,425.9729557999999,425.9729557999999,425.9729557999999,425.9729557999999,0.4931917000003523,None,,,,,,,,,,00026,001,2025-11-11_05h26.46.426,MST_task,2024.2.2,60.047401418791054,2025-11-11 05h26.51.406060 +0530,
,Objects\289a.jpg,78,0,78,,,,,f,2.6700882000000092,0.1541293999998743,None,,,,,,,78,0,78,0,426.48963060000005,,,,,,,,,,,,,,,,,,,,,,,426.4733980000001,426.48963060000005,427.0062797999999,426.97325850000016,,,,,,,,,,,,,,,,,,,,,,426.9854869999999,427.0062797999999,427.0062797999999,427.0062797999999,429.98971159999974,shoe,f,2.6700882000000092,0.1541293999998743,429.9897532,429.9897651000001,None,,,,,,,,,,,,,,,,,00026,001,2025-11-11_05h26.46.426,MST_task,2024.2.2,60.047401418791054,2025-11-11 05h26.51.406060 +0530,
,Objects\100a.jpg,79,0,79,,,,,f,2.096800499999972,0.1606365999996342,None,,,,,,,79,0,79,0,430.00621649999994,,,,,,,,,,,,,,,,,,,,,,,429.989822,430.00621649999994,430.50619210000013,430.4897483999998,,,,,,,,,,,,,,,,,,,,,,430.50046399999974,430.50619210000013,430.50619210000013,430.50619210000013,433.48971470000015,shoe,f,2.096800499999972,0.1606365999996342,433.48974959999987,433.48975870000004,None,433.5061440999998,433.5061440999998,433.5061440999998,,,,,,,,,,,,,,00026,001,2025-11-11_05h26.46.426,MST_task,2024.2.2,60.047401418791054,2025-11-11 05h26.51.406060 +0530,
,Objects\324a.jpg,80,0,80,,,,,f,2.0167867000000115,0.16955060000009325,None,,,,,,,80,0,80,0,433.5061440999998,,,,,,,,,,,,,,,,,,,,,,,433.48981030000004,433.5061440999998,434.00570789999983,433.9895993,,,,,,,,,,,,,,,,,,,,,,434.0007608000001,434.00570789999983,434.00570789999983,434.00570789999983,436.98964739999974,shoe,f,2.0167867000000115,0.16955060000009325,436.98968319999994,436.98969209999996,None,437.00604669999984,437.00604669999984,437.00604669999984,,,,,,,,,,,,,,00026,001,2025-11-11_05h26.46.426,MST_task,2024.2.2,60.047401418791054,2025-11-11 05h26.51.406060 +0530,
,Objects\096a.jpg,81,0,81,,,,,f,2.168813599999794,0.20117620000019087,None,,,,,,,81,0,81,0,437.00604669999984,,,,,,,,,,,,,,,,,,,,,,,436.98977079999986,437.00604669999984,437.5056276,437.4896260999999,,,,,,,,,,,,,,,,,,,,,,437.50052849999975,437.5056276,437.5056276,437.5056276,440.4895026999998,shoe,f,2.168813599999794,0.20117620000019087,440.4895370999998,440.4895459999998,None,440.50596929999983,440.50596929999983,440.50596929999983,,,,,,,,,,,,,,00026,001,2025-11-11_05h26.46.426,MST_task,2024.2.2,60.047401418791054,2025-11-11 05h26.51.406060 +0530,
,Objects\303a.jpg,82,0,82,,,,,j,2.4996178999999756,0.18118409999988216,None,,,,,,,82,0,82,0,440.50596929999983,,,,,,,,,,,,,,,,,,,,,,,440.4895972999998,440.50596929999983,441.02279150000004,440.9895391,,,,,,,,,,,,,,,,,,,,,,441.0034007999998,441.02279150000004,441.02279150000004,441.02279150000004,444.00589450000007,shoe,j,2.4996178999999756,0.18118409999988216,444.00592989999996,444.0059391,None,,,,,,,,,,,,,,,,,00026,001,2025-11-11_05h26.46.426,MST_task,2024.2.2,60.047401418791054,2025-11-11 05h26.51.406060 +0530,
,Objects\209a.jpg,83,0,83,,,,,f,1.591765900000155,0.19409519999999247,None,,,,,,,83,0,83,0,444.02254059999996,,,,,,,,,,,,,,,,,,,,,,,444.00599220000004,444.02254059999996,444.5227617999999,444.5060155000001,,,,,,,,,,,,,,,,,,,,,,444.51685180000004,444.5227617999999,444.5227617999999,444.5227617999999,447.5062176000001,shoe,f,1.591765900000155,0.19409519999999247,447.50625409999975,447.50626299999976,None,447.5224683000001,447.5224683000001,447.5224683000001,,,,,,,,,,,,,,00026,001,2025-11-11_05h26.46.426,MST_task,2024.2.2,60.047401418791054,2025-11-11 05h26.51.406060 +0530,
,Objects\313a.jpg,84,0,84,,,,,f,2.8746518999996624,None,None,,,,,,,84,0,84,0,447.5224683000001,,,,,,,,,,,,,,,,,,,,,,,447.5063148999998,447.5224683000001,448.03941559999976,448.00612679999995,,,,,,,,,,,,,,,,,,,,,,448.01816169999984,448.03941559999976,448.03941559999976,448.03941559999976,451.022469,indoor,f,2.8746518999996624,None,451.02365180000015,451.0236636999998,None,,,,,,,,,,,,,,,,,00026,001,2025-11-11_05h26.46.426,MST_task,2024.2.2,60.047401418791054,2025-11-11 05h26.51.406060 +0530,
,Objects\357a.jpg,85,0,85,,,,,f,2.633328100000199,0.1619431999997687,None,,,,,,,85,0,85,0,451.0390511999999,,,,,,,,,,,,,,,,,,,,,,,451.0237142000001,451.0390511999999,451.5390161999999,451.52269239999987,,,,,,,,,,,,,,,,,,,,,,451.53013180000016,451.5390161999999,451.5390161999999,451.5390161999999,454.52270210000006,indoor,f,2.633328100000199,0.1619431999997687,454.5227397999997,454.52274850000003,None,454.5389498999998,454.5389498999998,454.5389498999998,,,,,,,,,,,,,,00026,001,2025-11-11_05h26.46.426,MST_task,2024.2.2,60.047401418791054,2025-11-11 05h26.51.406060 +0530,
,Objects\007a.jpg,86,0,86,,,,,f,1.6176768999998785,0.17286280000007537,None,,,,,,,86,0,86,0,454.5389498999998,,,,,,,,,,,,,,,,,,,,,,,454.5228050999999,454.5389498999998,455.038998,455.02256810000017,,,,,,,,,,,,,,,,,,,,,,455.03018900000006,455.038998,455.038998,455.038998,458.02244699999983,indoor,f,1.6176768999998785,0.17286280000007537,458.0224798999998,458.0224889000001,None,458.03886699999975,458.03886699999975,458.03886699999975,,,,,,,,,,,,,,00026,001,2025-11-11_05h26.46.426,MST_task,2024.2.2,60.047401418791054,2025-11-11 05h26.51.406060 +0530,
,Objects\105a.jpg,87,0,87,,,,,f,1.067224299999907,0.15914470000006986,None,,,,,,,87,0,87,0,458.03886699999975,,,,,,,,,,,,,,,,,,,,,,,458.02254170000015,458.03886699999975,458.5388831999999,458.5224284000001,,,,,,,,,,,,,,,,,,,,,,458.52994309999985,458.5388831999999,458.5388831999999,458.5388831999999,461.52242909999995,indoor,f,1.067224299999907,0.15914470000006986,461.5224647,461.5224740999997,None,461.5388303999998,461.5388303999998,461.5388303999998,,,,,,,,,,,,,,00026,001,2025-11-11_05h26.46.426,MST_task,2024.2.2,60.047401418791054,2025-11-11 05h26.51.406060 +0530,
,Objects\248a.jpg,88,0,88,,,,,None,,,f,1.971292700000049,None,,,,,88,0,88,0,461.5388303999998,,,,,,,,,,,,,,,,,,,,,,,461.52252739999994,461.5388303999998,462.0556805000001,462.02236289999973,,,,,,,,,,,,,,,,,,,,,,462.03495539999994,462.0556805000001,462.0556805000001,462.0556805000001,465.03883659999974,indoor,None,,,465.03887350000014,467.03905140000006,f,,,,465.05541189999985,465.05541189999985,1.971292700000049,None,,,,,,,,,,00026,001,2025-11-11_05h26.46.426,MST_task,2024.2.2,60.047401418791054,2025-11-11 05h26.51.406060 +0530,
,Objects\195a.jpg,89,0,89,,,,,j,2.6090467000003628,0.1577821999999287,None,,,,,,,89,0,89,0,467.05536589999974,,,,,,,,,,,,,,,,,,,,,,,467.03912809999974,467.05536589999974,467.55493739999974,467.53895490000014,,,,,,,,,,,,,,,,,,,,,,467.54960600000004,467.55493739999974,467.55493739999974,467.55493739999974,470.53895239999974,indoor,j,2.6090467000003628,0.1577821999999287,470.5389930000001,470.53900280000016,None,470.5553157999998,470.5553157999998,470.5553157999998,,,,,,,,,,,,,,00026,001,2025-11-11_05h26.46.426,MST_task,2024.2.2,60.047401418791054,2025-11-11 05h26.51.406060 +0530,
,Objects\189a.jpg,90,0,90,,,,,j,2.2821696999999403,0.15806119999979273,None,,,,,,,90,0,90,0,470.5553157999998,,,,,,,,,,,,,,,,,,,,,,,470.5390585,470.5553157999998,471.0719749,471.03881390000015,,,,,,,,,,,,,,,,,,,,,,471.0500907999999,471.0719749,471.0719749,471.0719749,474.05537509999976,indoor,j,2.2821696999999403,0.15806119999979273,474.05541619999985,474.0554262999999,None,,,,,,,,,,,,,,,,,00026,001,2025-11-11_05h26.46.426,MST_task,2024.2.2,60.047401418791054,2025-11-11 05h26.51.406060 +0530,
,Objects\186a.jpg,91,0,91,,,,,f,2.2618148000001383,0.15786690000004455,None,,,,,,,91,0,91,0,474.07187209999984,,,,,,,,,,,,,,,,,,,,,,,474.0554864999999,474.07187209999984,474.57187049999993,474.5554318999998,,,,,,,,,,,,,,,,,,,,,,474.56458299999986,474.57187049999993,474.57187049999993,474.57187049999993,477.5555346000001,shoe,f,2.2618148000001383,0.15786690000004455,477.55698699999994,477.5569986999999,None,477.57178569999996,477.57178569999996,477.57178569999996,,,,,,,,,,,,,,00026,001,2025-11-11_05h26.46.426,MST_task,2024.2.2,60.047401418791054,2025-11-11 05h26.51.406060 +0530,
,Objects\005a.jpg,92,0,92,,,,,f,0.9797351000001981,0.18302619999985836,None,,,,,,,92,0,92,0,477.57178569999996,,,,,,,,,,,,,,,,,,,,,,,477.55704939999987,477.57178569999996,478.0717724000001,478.05539439999984,,,,,,,,,,,,,,,,,,,,,,478.0631297,478.0717724000001,478.0717724000001,478.0717724000001,481.0552901000001,shoe,f,0.9797351000001981,0.18302619999985836,481.0553252999998,481.0553344,None,481.07170700000006,481.07170700000006,481.07170700000006,,,,,,,,,,,,,,00026,001,2025-11-11_05h26.46.426,MST_task,2024.2.2,60.047401418791054,2025-11-11 05h26.51.406060 +0530,
,Objects\333a.jpg,93,0,93,,,,,f,2.254563099999814,0.16222319999997126,None,,,,,,,93,0,93,0,481.07170700000006,,,,,,,,,,,,,,,,,,,,,,,481.0554305999999,481.07170700000006,481.5716997999998,481.5552054,,,,,,,,,,,,,,,,,,,,,,481.5627126999998,481.5716997999998,481.5716997999998,481.5716997999998,484.55528809999987,shoe,f,2.254563099999814,0.16222319999997126,484.55532459999995,484.55533419999983,None,484.57163290000017,484.57163290000017,484.57163290000017,,,,,,,,,,,,,,00026,001,2025-11-11_05h26.46.426,MST_task,2024.2.2,60.047401418791054,2025-11-11 05h26.51.406060 +0530,
,Objects\363a.jpg,94,0,94,,,,,f,1.9691373999999087,0.15705530000013823,None,,,,,,,94,0,94,0,484.57163290000017,,,,,,,,,,,,,,,,,,,,,,,484.5553924000001,484.57163290000017,485.07161140000017,485.0552170000001,,,,,,,,,,,,,,,,,,,,,,485.0629677000002,485.07161140000017,485.07161140000017,485.07161140000017,488.05508869999994,shoe,f,1.9691373999999087,0.15705530000013823,488.0551252999999,488.05513429999974,None,488.0715485999999,488.0715485999999,488.0715485999999,,,,,,,,,,,,,,00026,001,2025-11-11_05h26.46.426,MST_task,2024.2.2,60.047401418791054,2025-11-11 05h26.51.406060 +0530,
,Objects\366a.jpg,95,0,95,,,,,f,2.6063799999997173,0.149681899999905,None,,,,,,,95,0,95,0,488.0715485999999,,,,,,,,,,,,,,,,,,,,,,,488.0551888,488.0715485999999,488.57151139999996,488.55501379999987,,,,,,,,,,,,,,,,,,,,,,488.5639427000001,488.57151139999996,488.57151139999996,488.57151139999996,491.55498579999994,shoe,f,2.6063799999997173,0.149681899999905,491.5550192999999,491.5550275999999,None,491.5714902999998,491.5714902999998,491.5714902999998,,,,,,,,,,,,,,00026,001,2025-11-11_05h26.46.426,MST_task,2024.2.2,60.047401418791054,2025-11-11 05h26.51.406060 +0530,
,Objects\373a.jpg,96,0,96,,,,,j,1.0467661000002408,0.20156989999986763,None,,,,,,,96,0,96,0,491.5714902999998,,,,,,,,,,,,,,,,,,,,,,,491.55507929999976,491.5714902999998,492.0713486999998,492.05501559999993,,,,,,,,,,,,,,,,,,,,,,492.06545419999975,492.0713486999998,492.0713486999998,492.0713486999998,495.0551108999998,shoe,j,1.0467661000002408,0.20156989999986763,495.05514730000004,495.0551562999999,None,495.0713654000001,495.0713654000001,495.0713654000001,,,,,,,,,,,,,,00026,001,2025-11-11_05h26.46.426,MST_task,2024.2.2,60.047401418791054,2025-11-11 05h26.51.406060 +0530,
,Objects\368a.jpg,97,0,97,,,,,f,2.2130456999998387,0.14184110000041983,None,,,,,,,97,0,97,0,495.0713654000001,,,,,,,,,,,,,,,,,,,,,,,495.05524160000004,495.0713654000001,495.57134080000014,495.5548638,,,,,,,,,,,,,,,,,,,,,,495.5652734999999,495.57134080000014,495.57134080000014,495.57134080000014,498.5549596999999,shoe,f,2.2130456999998387,0.14184110000041983,498.5549940000001,498.5550030999998,None,498.5712650999999,498.5712650999999,498.5712650999999,,,,,,,,,,,,,,00026,001,2025-11-11_05h26.46.426,MST_task,2024.2.2,60.047401418791054,2025-11-11 05h26.51.406060 +0530,
,Objects\166a.jpg,98,0,98,,,,,f,1.6358538999998018,0.14365140000018073,None,,,,,,,98,0,98,0,498.5712650999999,,,,,,,,,,,,,,,,,,,,,,,498.5550561,498.5712650999999,499.08792300000005,499.05483849999973,,,,,,,,,,,,,,,,,,,,,,499.0666274,499.08792300000005,499.08792300000005,499.08792300000005,502.07126500000004,indoor,f,1.6358538999998018,0.14365140000018073,502.07242769999993,502.07243960000005,None,,,,,,,,,,,,,,,,,00026,001,2025-11-11_05h26.46.426,MST_task,2024.2.2,60.047401418791054,2025-11-11 05h26.51.406060 +0530,
,Objects\065a.jpg,99,0,99,,,,,f,1.5884813000002396,0.14185299999962808,None,,,,,,,99,0,99,0,502.08789049999996,,,,,,,,,,,,,,,,,,,,,,,502.0724937,502.08789049999996,502.5878631999999,502.57131819999995,,,,,,,,,,,,,,,,,,,,,,502.5788914999998,502.5878631999999,502.5878631999999,502.5878631999999,505.57138529999975,indoor,f,1.5884813000002396,0.14185299999962808,505.5714207000001,505.5714297999998,None,505.58777770000006,505.58777770000006,505.58777770000006,,,,,,,,,,,,,,00026,001,2025-11-11_05h26.46.426,MST_task,2024.2.2,60.047401418791054,2025-11-11 05h26.51.406060 +0530,
,Objects\266a.jpg,100,0,100,,,,,f,2.3135207000000264,0.1438100000000304,None,,,,,,,100,0,100,0,505.58777770000006,,,,,,,,,,,,,,,,,,,,,,,505.57148670000015,505.58777770000006,506.08783029999995,506.07132150000007,,,,,,,,,,,,,,,,,,,,,,506.08223689999977,506.08783029999995,506.08783029999995,506.08783029999995,509.07128409999996,indoor,f,2.3135207000000264,0.1438100000000304,509.0713161999997,509.0713246,None,509.0877313000001,509.0877313000001,509.0877313000001,,,,,,,,,,,,,,00026,001,2025-11-11_05h26.46.426,MST_task,2024.2.2,60.047401418791054,2025-11-11 05h26.51.406060 +0530,
,Objects\350a.jpg,101,0,101,,,,,j,2.5177433999997447,0.12579709999999977,None,,,,,,,101,0,101,0,509.0877313000001,,,,,,,,,,,,,,,,,,,,,,,509.0713759999999,509.0877313000001,509.6043568,509.57125050000013,,,,,,,,,,,,,,,,,,,,,,509.58272669999997,509.6043568,509.6043568,509.6043568,512.5876745,indoor,j,2.5177433999997447,0.12579709999999977,512.5877154999998,512.5877255999999,None,,,,,,,,,,,,,,,,,00026,001,2025-11-11_05h26.46.426,MST_task,2024.2.2,60.047401418791054,2025-11-11 05h26.51.406060 +0530,
,Objects\048a.jpg,102,0,102,,,,,j,1.3081565000002229,0.173624000000018,None,,,,,,,102,0,102,0,512.6043231999997,,,,,,,,,,,,,,,,,,,,,,,512.5877839999998,512.6043231999997,513.1042696999998,513.0877526999998,,,,,,,,,,,,,,,,,,,,,,513.0984693999999,513.1042696999998,513.1042696999998,513.1042696999998,516.0878693,indoor,j,1.3081565000002229,0.173624000000018,516.0879049999999,516.0879147999999,None,516.1042011999998,516.1042011999998,516.1042011999998,,,,,,,,,,,,,,00026,001,2025-11-11_05h26.46.426,MST_task,2024.2.2,60.047401418791054,2025-11-11 05h26.51.406060 +0530,
,Objects\319a.jpg,103,0,103,,,,,f,1.1877735000002758,0.20161349999989397,None,,,,,,,103,0,103,0,516.1042011999998,,,,,,,,,,,,,,,,,,,,,,,516.0879722,516.1042011999998,516.6041887000001,516.5877237,,,,,,,,,,,,,,,,,,,,,,516.5981873999999,516.6041887000001,516.6041887000001,516.6041887000001,519.5875971,indoor,f,1.1877735000002758,0.20161349999989397,519.5876306999999,519.5876394000002,None,519.6041209999999,519.6041209999999,519.6041209999999,,,,,,,,,,,,,,00026,001,2025-11-11_05h26.46.426,MST_task,2024.2.2,60.047401418791054,2025-11-11 05h26.51.406060 +0530,
,Objects\234a.jpg,104,0,104,,,,,f,2.070381600000019,0.1563642000000982,None,,,,,,,104,0,104,0,519.6041209999999,,,,,,,,,,,,,,,,,,,,,,,519.5876899999998,519.6041209999999,,520.0884596000001,,,,,,,,,,,,,,,,,,,,,,520.1003888999999,520.1207777999998,520.1207777999998,520.1207777999998,523.1041154,indoor,f,2.070381600000019,0.1563642000000982,523.1041519999999,523.1041624999998,None,,,,,,,,,,,,,,,,,00026,001,2025-11-11_05h26.46.426,MST_task,2024.2.2,60.047401418791054,2025-11-11 05h26.51.406060 +0530,
,Objects\051a.jpg,105,0,105,,,,,f,2.73994249999987,0.13747590000002674,None,,,,,,,105,0,105,0,523.1207565,,,,,,,,,,,,,,,,,,,,,,,523.1042309999998,523.1207565,,523.6042029,,,,,,,,,,,,,,,,,,,,,,523.6137454,523.6203212999999,523.6203212999999,523.6203212999999,526.6044490999998,shoe,f,2.73994249999987,0.13747590000002674,526.6060062000001,526.6060183999998,None,526.6206244999998,526.6206244999998,526.6206244999998,,,,,,,,,,,,,,00026,001,2025-11-11_05h26.46.426,MST_task,2024.2.2,60.047401418791054,2025-11-11 05h26.51.406060 +0530,
,Objects\042a.jpg,106,0,106,,,,,j,2.6096787000001314,0.21369559999993726,None,,,,,,,106,0,106,0,526.6206244999998,,,,,,,,,,,,,,,,,,,,,,,526.6060699,526.6206244999998,527.1206382,527.1040969999999,,,,,,,,,,,,,,,,,,,,,,527.1121705999999,527.1206382,527.1206382,527.1206382,530.104163,shoe,j,2.6096787000001314,0.21369559999993726,530.1041958000001,530.1042044999999,None,530.1205472000001,530.1205472000001,530.1205472000001,,,,,,,,,,,,,,00026,001,2025-11-11_05h26.46.426,MST_task,2024.2.2,60.047401418791054,2025-11-11 05h26.51.406060 +0530,
,Objects\237a.jpg,107,0,107,,,,,f,1.9344660000001568,0.1779884999996284,None,,,,,,,107,0,107,0,530.1205472000001,,,,,,,,,,,,,,,,,,,,,,,530.1042536,530.1205472000001,530.6371979999999,530.604163,,,,,,,,,,,,,,,,,,,,,,530.6161137999998,530.6371979999999,530.6371979999999,530.6371979999999,533.6205295999998,shoe,f,1.9344660000001568,0.1779884999996284,533.6205663000001,533.6205759,None,,,,,,,,,,,,,,,,,00026,001,2025-11-11_05h26.46.426,MST_task,2024.2.2,60.047401418791054,2025-11-11 05h26.51.406060 +0530,
,Objects\083a.jpg,108,0,108,,,,,f,2.2751446000002034,0.1572559999999612,None,,,,,,,108,0,108,0,533.6371663,,,,,,,,,,,,,,,,,,,,,,,533.6206311999999,533.6371663,534.1369943999998,534.1206078,,,,,,,,,,,,,,,,,,,,,,534.1317156999999,534.1369943999998,534.1369943999998,534.1369943999998,537.1207150999999,shoe,f,2.2751446000002034,0.1572559999999612,537.1207473999998,537.1207561000001,None,537.1370542,537.1370542,537.1370542,,,,,,,,,,,,,,00026,001,2025-11-11_05h26.46.426,MST_task,2024.2.2,60.047401418791054,2025-11-11 05h26.51.406060 +0530,
,Objects\152a.jpg,109,0,109,,,,,f,1.0071312000000034,0.1516470000001391,None,,,,,,,109,0,109,0,537.1370542,,,,,,,,,,,,,,,,,,,,,,,537.1208071000001,537.1370542,537.6370379,537.6205292,,,,,,,,,,,,,,,,,,,,,,537.6283917999999,537.6370379,537.6370379,537.6370379,540.6206716000002,shoe,f,1.0071312000000034,0.1516470000001391,540.6207098,540.6207192000002,None,540.6369701999997,540.6369701999997,540.6369701999997,,,,,,,,,,,,,,00026,001,2025-11-11_05h26.46.426,MST_task,2024.2.2,60.047401418791054,2025-11-11 05h26.51.406060 +0530,
,Objects\075a.jpg,110,0,110,,,,,f,1.0125044000001253,0.16277320000017426,None,,,,,,,110,0,110,0,540.6369701999997,,,,,,,,,,,,,,,,,,,,,,,540.6208099,540.6369701999997,541.1369808999998,541.1205424999998,,,,,,,,,,,,,,,,,,,,,,541.1281241000002,541.1369808999998,541.1369808999998,541.1369808999998,544.1206867000001,shoe,f,1.0125044000001253,0.16277320000017426,544.1207214000001,544.1207303000001,None,544.1368923999999,544.1368923999999,544.1368923999999,,,,,,,,,,,,,,00026,001,2025-11-11_05h26.46.426,MST_task,2024.2.2,60.047401418791054,2025-11-11 05h26.51.406060 +0530,
,Objects\362a.jpg,111,0,111,,,,,f,2.0072767999999996,0.16979770000034478,None,,,,,,,111,0,111,0,544.1368923999999,,,,,,,,,,,,,,,,,,,,,,,544.1208148999999,544.1368923999999,544.6367813000002,544.6204078999999,,,,,,,,,,,,,,,,,,,,,,544.6308614,544.6367813000002,544.6367813000002,544.6367813000002,547.6204549999998,shoe,f,2.0072767999999996,0.16979770000034478,547.6204948999998,547.6205039000001,None,547.6368449000001,547.6368449000001,547.6368449000001,,,,,,,,,,,,,,00026,001,2025-11-11_05h26.46.426,MST_task,2024.2.2,60.047401418791054,2025-11-11 05h26.51.406060 +0530,
,Objects\106a.jpg,112,0,112,,,,,f,2.184839099999863,0.1745743000001312,None,,,,,,,112,0,112,0,547.6368449000001,,,,,,,,,,,,,,,,,,,,,,,547.6205577999999,547.6368449000001,548.1534741999999,548.1203175999999,,,,,,,,,,,,,,,,,,,,,,548.1336225,548.1534741999999,548.1534741999999,548.1534741999999,551.1368146,indoor,f,2.184839099999863,0.1745743000001312,551.1379456,551.1379579,None,,,,,,,,,,,,,,,,,00026,001,2025-11-11_05h26.46.426,MST_task,2024.2.2,60.047401418791054,2025-11-11 05h26.51.406060 +0530,
,Objects\151a.jpg,113,0,113,,,,,f,1.3970115000001897,0.185457900000074,None,,,,,,,113,0,113,0,551.1534040000001,,,,,,,,,,,,,,,,,,,,,,,551.1380122,551.1534040000001,551.6534566,551.6370456,,,,,,,,,,,,,,,,,,,,,,551.6454239999998,551.6534566,551.6534566,551.6534566,554.6370686,indoor,f,1.3970115000001897,0.185457900000074,554.6371055,554.6371147999998,None,554.6533313999998,554.6533313999998,554.6533313999998,,,,,,,,,,,,,,00026,001,2025-11-11_05h26.46.426,MST_task,2024.2.2,60.047401418791054,2025-11-11 05h26.51.406060 +0530,
,Objects\347a.jpg,114,0,114,,,,,None,,,f,0.41245759999992515,None,,,,,114,0,114,0,554.6533313999998,,,,,,,,,,,,,,,,,,,,,,,554.6371694999998,554.6533313999998,555.1533261,555.136821,,,,,,,,,,,,,,,,,,,,,,555.1442582999998,555.1533261,555.1533261,555.1533261,558.1368548999999,indoor,None,,,558.1368834999998,558.5704830999998,f,558.1532760999999,558.1532760999999,558.1532760999999,558.1532760999999,558.1532760999999,0.41245759999992515,None,,,,,,,,,,00026,001,2025-11-11_05h26.46.426,MST_task,2024.2.2,60.047401418791054,2025-11-11 05h26.51.406060 +0530,
,Objects\302a.jpg,115,0,115,,,,,None,,,j,1.055192199999965,None,,,,,115,0,115,0,558.5865598,,,,,,,,,,,,,,,,,,,,,,,558.5705515,558.5865598,559.0865436999998,559.0701328,,,,,,,,,,,,,,,,,,,,,,559.0809773999999,559.0865436999998,559.0865436999998,559.0865436999998,562.0701255999998,indoor,None,,,562.0701545000002,563.1536049000001,j,562.0865178999998,562.0865178999998,562.0865178999998,562.0865178999998,562.0865178999998,1.055192199999965,None,,,,,,,,,,00026,001,2025-11-11_05h26.46.426,MST_task,2024.2.2,60.047401418791054,2025-11-11 05h26.51.406060 +0530,
,Objects\060a.jpg,116,0,116,,,,,None,,,j,0.6730273999996825,None,,,,,116,0,116,0,563.1698020999997,,,,,,,,,,,,,,,,,,,,,,,563.1536802999999,563.1698020999997,563.6697289999997,563.6534728000001,,,,,,,,,,,,,,,,,,,,,,563.6641663,563.6697289999997,563.6697289999997,563.6697289999997,566.6533002000001,indoor,None,,,566.6533297999999,567.3535074000001,j,566.6698007,566.6698007,566.6698007,566.6698007,566.6698007,0.6730273999996825,None,,,,,,,,,,00026,001,2025-11-11_05h26.46.426,MST_task,2024.2.2,60.047401418791054,2025-11-11 05h26.51.406060 +0530,
,Objects\309a.jpg,117,0,117,,,,,f,1.8122234000002209,0.17427819999966232,None,,,,,,,117,0,117,0,567.3697311999999,,,,,,,,,,,,,,,,,,,,,,,567.3535726,567.3697311999999,567.8696187999999,567.8533066,,,,,,,,,,,,,,,,,,,,,,567.8633218,567.8696187999999,567.8696187999999,567.8696187999999,570.8533730999998,indoor,f,1.8122234000002209,0.17427819999966232,570.8534064999999,570.8534150999999,None,570.8695194000002,570.8695194000002,570.8695194000002,,,,,,,,,,,,,,00026,001,2025-11-11_05h26.46.426,MST_task,2024.2.2,60.047401418791054,2025-11-11 05h26.51.406060 +0530,
,Objects\296a.jpg,118,0,118,,,,,f,1.9507309999999052,0.1853123000000778,None,,,,,,,118,0,118,0,570.8695194000002,,,,,,,,,,,,,,,,,,,,,,,570.8534660999999,570.8695194000002,571.3694735999998,571.3532169999999,,,,,,,,,,,,,,,,,,,,,,571.3634551,571.3694735999998,571.3694735999998,571.3694735999998,574.3531758999998,indoor,f,1.9507309999999052,0.1853123000000778,574.3532077999998,574.3532153000001,None,574.3695622999999,574.3695622999999,574.3695622999999,,,,,,,,,,,,,,00026,001,2025-11-11_05h26.46.426,MST_task,2024.2.2,60.047401418791054,2025-11-11 05h26.51.406060 +0530,
,Objects\140a.jpg,119,0,119,,,,,f,2.6373302000001786,0.20300910000014483,None,,,,,,,119,0,119,0,574.3695622999999,,,,,,,,,,,,,,,,,,,,,,,574.3532644000002,574.3695622999999,574.8861882000001,574.8530384999999,,,,,,,,,,,,,,,,,,,,,,574.8653503999999,574.8861882000001,574.8861882000001,574.8861882000001,577.8695495000002,shoe,f,2.6373302000001786,0.20300910000014483,577.8711460999998,577.8711583999998,None,,,,,,,,,,,,,,,,,00026,001,2025-11-11_05h26.46.426,MST_task,2024.2.2,60.047401418791054,2025-11-11 05h26.51.406060 +0530,
,Objects\251a.jpg,120,0,120,,,,,f,1.2248702000001686,0.20244419999971797,None,,,,,,,120,0,120,0,577.8861539,,,,,,,,,,,,,,,,,,,,,,,577.8712117,577.8861539,578.3861044,578.3696227,,,,,,,,,,,,,,,,,,,,,,578.3794432,578.3861044,578.3861044,578.3861044,581.3696559999998,shoe,f,1.2248702000001686,0.20244419999971797,581.3696931999998,581.3697019000001,None,581.3860642999998,581.3860642999998,581.3860642999998,,,,,,,,,,,,,,00026,001,2025-11-11_05h26.46.426,MST_task,2024.2.2,60.047401418791054,2025-11-11 05h26.51.406060 +0530,
,Objects\052a.jpg,121,0,121,,,,,f,0.8117231999999603,0.16106660000014017,None,,,,,,,121,0,121,0,581.3860642999998,,,,,,,,,,,,,,,,,,,,,,,581.3697560999999,581.3860642999998,581.9027467000001,581.8695229,,,,,,,,,,,,,,,,,,,,,,581.8964786000001,581.9027467000001,581.9027467000001,581.9027467000001,584.8860439999999,shoe,f,0.8117231999999603,0.16106660000014017,584.8860801999999,584.8860897,None,,,,,,,,,,,,,,,,,00026,001,2025-11-11_05h26.46.426,MST_task,2024.2.2,60.047401418791054,2025-11-11 05h26.51.406060 +0530,
,Objects\342a.jpg,122,0,122,,,,,None,,,f,1.2957915000001776,None,,,,,122,0,122,0,584.9026189000001,,,,,,,,,,,,,,,,,,,,,,,584.8861470000002,584.9026189000001,585.4026316,585.3861255000002,,,,,,,,,,,,,,,,,,,,,,585.3936512999999,585.4026316,585.4026316,585.4026316,588.3861284999998,shoe,None,,,588.3861591999998,589.7027999000002,f,588.4025412999999,588.4025412999999,588.4025412999999,588.4025412999999,588.4025412999999,1.2957915000001776,None,,,,,,,,,,00026,001,2025-11-11_05h26.46.426,MST_task,2024.2.2,60.047401418791054,2025-11-11 05h26.51.406060 +0530,
,Objects\198a.jpg,123,0,123,,,,,f,1.0070786000001135,0.16940870000007635,None,,,,,,,123,0,123,0,589.7191732000001,,,,,,,,,,,,,,,,,,,,,,,589.7028694,589.7191732000001,590.2191653,590.2026559000001,,,,,,,,,,,,,,,,,,,,,,590.2102915999999,590.2191653,590.2191653,590.2191653,593.2027947000001,shoe,f,1.0070786000001135,0.16940870000007635,593.2028292999998,593.2028381,None,593.2190981999997,593.2190981999997,593.2190981999997,,,,,,,,,,,,,,00026,001,2025-11-11_05h26.46.426,MST_task,2024.2.2,60.047401418791054,2025-11-11 05h26.51.406060 +0530,
,Objects\124a.jpg,124,0,124,,,,,j,2.1453271000000314,0.18190469999990455,None,,,,,,,124,0,124,0,593.2190981999997,,,,,,,,,,,,,,,,,,,,,,,593.2028899000002,593.2190981999997,593.7191189999999,593.7027122999998,,,,,,,,,,,,,,,,,,,,,,593.7103431,593.7191189999999,593.7191189999999,593.7191189999999,596.7025943999997,shoe,j,2.1453271000000314,0.18190469999990455,596.7026314,596.7026409,None,596.7190144000001,596.7190144000001,596.7190144000001,,,,,,,,,,,,,,00026,001,2025-11-11_05h26.46.426,MST_task,2024.2.2,60.047401418791054,2025-11-11 05h26.51.406060 +0530,
,Objects\104a.jpg,125,0,125,,,,,f,0.8926040999999714,0.20251229999985298,None,,,,,,,125,0,125,0,596.7190144000001,,,,,,,,,,,,,,,,,,,,,,,596.7027269,596.7190144000001,597.2190280999998,597.2025386999999,,,,,,,,,,,,,,,,,,,,,,597.2105311,597.2190280999998,597.2190280999998,597.2190280999998,600.2025656000001,shoe,f,0.8926040999999714,0.20251229999985298,600.2026015000001,600.2026104000001,None,600.2189745000001,600.2189745000001,600.2189745000001,,,,,,,,,,,,,,00026,001,2025-11-11_05h26.46.426,MST_task,2024.2.2,60.047401418791054,2025-11-11 05h26.51.406060 +0530,
,Objects\011a.jpg,126,0,126,,,,,f,2.7379507999999078,0.17443420000017795,None,,,,,,,126,0,126,0,600.2189745000001,,,,,,,,,,,,,,,,,,,,,,,600.2026943999999,600.2189745000001,600.7189484,600.7024372000001,,,,,,,,,,,,,,,,,,,,,,600.7112843,600.7189484,600.7189484,600.7189484,603.7024596000001,indoor,f,2.7379507999999078,0.17443420000017795,603.7035931999999,603.7036050000002,None,603.7188962,603.7188962,603.7188962,,,,,,,,,,,,,,00026,001,2025-11-11_05h26.46.426,MST_task,2024.2.2,60.047401418791054,2025-11-11 05h26.51.406060 +0530,
,Objects\214a.jpg,127,0,127,,,,,j,2.874645700000201,None,None,,,,,,,127,0,127,0,603.7188962,,,,,,,,,,,,,,,,,,,,,,,603.7036589999998,603.7188962,604.2189045999999,604.2023620999998,,,,,,,,,,,,,,,,,,,,,,604.2100262999998,604.2189045999999,604.2189045999999,604.2189045999999,607.2024719000001,indoor,j,2.874645700000201,None,607.2025045999999,607.2025137999999,None,607.2188059999999,607.2188059999999,607.2188059999999,,,,,,,,,,,,,,00026,001,2025-11-11_05h26.46.426,MST_task,2024.2.2,60.047401418791054,2025-11-11 05h26.51.406060 +0530,
,Objects\231a.jpg,128,0,128,,,,,j,2.5091851000001952,0.13349190000008093,None,,,,,,,128,0,128,0,607.2188059999999,,,,,,,,,,,,,,,,,,,,,,,607.2025629,607.2188059999999,607.7187712999998,607.7022898,,,,,,,,,,,,,,,,,,,,,,607.7121106,607.7187712999998,607.7187712999998,607.7187712999998,610.7023291,indoor,j,2.5091851000001952,0.13349190000008093,610.7023669,610.7023755999999,None,610.7187487000001,610.7187487000001,610.7187487000001,,,,,,,,,,,,,,00026,001,2025-11-11_05h26.46.426,MST_task,2024.2.2,60.047401418791054,2025-11-11 05h26.51.406060 +0530,
,Objects\142a.jpg,129,0,129,,,,,None,,,f,2.120236400000067,None,,,,,129,0,129,0,610.7187487000001,,,,,,,,,,,,,,,,,,,,,,,610.7024302,610.7187487000001,611.2353674000001,611.2023217999999,,,,,,,,,,,,,,,,,,,,,,611.2150195999998,611.2353674000001,611.2353674000001,611.2353674000001,614.2187091000001,indoor,None,,,614.2187460999999,616.3688751,f,,,,614.2353265000002,614.2353265000002,2.120236400000067,None,,,,,,,,,,00026,001,2025-11-11_05h26.46.426,MST_task,2024.2.2,60.047401418791054,2025-11-11 05h26.51.406060 +0530,
,Objects\056a.jpg,130,0,130,,,,,f,2.55460979999998,0.14626090000001568,None,,,,,,,130,0,130,0,616.3852658999999,,,,,,,,,,,,,,,,,,,,,,,616.3689484000001,616.3852658999999,616.8852278999998,616.8688621000001,,,,,,,,,,,,,,,,,,,,,,616.8776705999999,616.8852278999998,616.8852278999998,616.8852278999998,619.8687151999998,indoor,f,2.55460979999998,0.14626090000001568,619.8687528,619.8687626000001,None,619.8851862000001,619.8851862000001,619.8851862000001,,,,,,,,,,,,,,00026,001,2025-11-11_05h26.46.426,MST_task,2024.2.2,60.047401418791054,2025-11-11 05h26.51.406060 +0530,
,Objects\291a.jpg,131,0,131,,,,,f,1.9734160000002703,0.13114749999976993,None,,,,,,,131,0,131,0,619.8851862000001,,,,,,,,,,,,,,,,,,,,,,,619.8688167,619.8851862000001,620.3847581,620.3687713999998,,,,,,,,,,,,,,,,,,,,,,620.3788894999998,620.3847581,620.3847581,620.3847581,623.3687896000001,indoor,f,1.9734160000002703,0.13114749999976993,623.3688244,623.3688383999997,None,623.3851119000001,623.3851119000001,623.3851119000001,,,,,,,,,,,,,,00026,001,2025-11-11_05h26.46.426,MST_task,2024.2.2,60.047401418791054,2025-11-11 05h26.51.406060 +0530,
,Objects\153a.jpg,132,0,132,,,,,f,1.7281787000001714,0.17746179999994638,None,,,,,,,132,0,132,0,623.3851119000001,,,,,,,,,,,,,,,,,,,,,,,623.3688935999999,623.3851119000001,623.9017294999999,623.8685519,,,,,,,,,,,,,,,,,,,,,,623.8958819999998,623.9017294999999,623.9017294999999,623.9017294999999,626.8851691999998,indoor,f,1.7281787000001714,0.17746179999994638,626.8852062000001,626.8852160000001,None,,,,,,,,,,,,,,,,,00026,001,2025-11-11_05h26.46.426,MST_task,2024.2.2,60.047401418791054,2025-11-11 05h26.51.406060 +0530,
,Objects\246a.jpg,133,0,133,,,,,f,1.9226967999998124,0.18941350000022794,None,,,,,,,133,0,133,0,626.9016971000001,,,,,,,,,,,,,,,,,,,,,,,626.8852824999999,626.9016971000001,627.4012690999998,627.3851896000001,,,,,,,,,,,,,,,,,,,,,,627.3944483999999,627.4012690999998,627.4012690999998,627.4012690999998,630.3853712,shoe,f,1.9226967999998124,0.18941350000022794,630.3868277000001,630.3868392999998,None,630.4016157000001,630.4016157000001,630.4016157000001,,,,,,,,,,,,,,00026,001,2025-11-11_05h26.46.426,MST_task,2024.2.2,60.047401418791054,2025-11-11 05h26.51.406060 +0530,
,Objects\043a.jpg,134,0,134,,,,,f,2.738383299999896,0.14834760000030656,None,,,,,,,134,0,134,0,630.4016157000001,,,,,,,,,,,,,,,,,,,,,,,630.3868899999998,630.4016157000001,630.9015796999997,630.8850787000001,,,,,,,,,,,,,,,,,,,,,,630.8929007000002,630.9015796999997,630.9015796999997,630.9015796999997,633.8850978,shoe,f,2.738383299999896,0.14834760000030656,633.8851316999999,633.8851409999997,None,633.9015275000002,633.9015275000002,633.9015275000002,,,,,,,,,,,,,,00026,001,2025-11-11_05h26.46.426,MST_task,2024.2.2,60.047401418791054,2025-11-11 05h26.51.406060 +0530,
,Objects\161a.jpg,135,0,135,,,,,f,1.5582093000002715,0.1723944999998821,None,,,,,,,135,0,135,0,633.9015275000002,,,,,,,,,,,,,,,,,,,,,,,633.8851945000001,633.9015275000002,634.4014910000001,634.3849620000001,,,,,,,,,,,,,,,,,,,,,,634.3927776999999,634.4014910000001,634.4014910000001,634.4014910000001,637.3849890000001,shoe,f,1.5582093000002715,0.1723944999998821,637.3850219000001,637.3850305000001,None,637.4014708999998,637.4014708999998,637.4014708999998,,,,,,,,,,,,,,00026,001,2025-11-11_05h26.46.426,MST_task,2024.2.2,60.047401418791054,2025-11-11 05h26.51.406060 +0530,
,Objects\278a.jpg,136,0,136,,,,,j,2.0726614000000154,0.14170340000009674,None,,,,,,,136,0,136,0,637.4014708999998,,,,,,,,,,,,,,,,,,,,,,,637.3850806999999,637.4014708999998,637.9010291999998,637.8848944000001,,,,,,,,,,,,,,,,,,,,,,637.8965767,637.9010291999998,637.9010291999998,637.9010291999998,640.8850957999998,shoe,j,2.0726614000000154,0.14170340000009674,640.8851340000001,640.8851439,None,640.9013331000001,640.9013331000001,640.9013331000001,,,,,,,,,,,,,,00026,001,2025-11-11_05h26.46.426,MST_task,2024.2.2,60.047401418791054,2025-11-11 05h26.51.406060 +0530,
,Objects\025a.jpg,137,0,137,,,,,j,1.1869489000000613,0.1898246000000654,None,,,,,,,137,0,137,0,640.9013331000001,,,,,,,,,,,,,,,,,,,,,,,640.8852013000001,640.9013331000001,641.4346615,641.3848145000002,,,,,,,,,,,,,,,,,,,,,,641.4163064999998,641.4346615,641.4346615,641.4346615,644.3853254,shoe,j,1.1869489000000613,0.1898246000000654,644.3853614999998,644.3853749,None,,,,,,,,,,,,,,,,,00026,001,2025-11-11_05h26.46.426,MST_task,2024.2.2,60.047401418791054,2025-11-11 05h26.51.406060 +0530,
,Objects\156a.jpg,138,0,138,,,,,j,2.2380809000001136,0.16207919999988007,None,,,,,,,138,0,138,0,644.401249,,,,,,,,,,,,,,,,,,,,,,,644.3854590000001,644.401249,644.9012449000002,644.8847716999999,,,,,,,,,,,,,,,,,,,,,,644.8923134000001,644.9012449000002,644.9012449000002,644.9012449000002,647.8847783000001,shoe,j,2.2380809000001136,0.16207919999988007,647.8848121000001,647.8848211999998,None,647.9011698999998,647.9011698999998,647.9011698999998,,,,,,,,,,,,,,00026,001,2025-11-11_05h26.46.426,MST_task,2024.2.2,60.047401418791054,2025-11-11 05h26.51.406060 +0530,
,Objects\168a.jpg,139,0,139,,,,,f,2.7701944000000367,0.16219760000012684,None,,,,,,,139,0,139,0,647.9011698999998,,,,,,,,,,,,,,,,,,,,,,,647.8848741000002,647.9011698999998,648.4012183,648.3846831999999,,,,,,,,,,,,,,,,,,,,,,648.3923931999998,648.4012183,648.4012183,648.4012183,651.3847672000002,shoe,f,2.7701944000000367,0.16219760000012684,651.3848030999998,651.3848116999998,None,651.4011466000002,651.4011466000002,651.4011466000002,,,,,,,,,,,,,,00026,001,2025-11-11_05h26.46.426,MST_task,2024.2.2,60.047401418791054,2025-11-11 05h26.51.406060 +0530,
,Objects\287a.jpg,140,0,140,,,,,None,,,j,0.4552568000003703,None,,,,,140,0,140,0,651.4011466000002,,,,,,,,,,,,,,,,,,,,,,,651.3848956000002,651.4011466000002,651.9009568000001,651.8845984,,,,,,,,,,,,,,,,,,,,,,651.8959159000001,651.9009568000001,651.9009568000001,651.9009568000001,654.8847396000001,indoor,None,,,654.8858540000001,655.3681169000001,j,654.9011731,654.9011731,654.9011731,654.9011731,654.9011731,0.4552568000003703,None,,,,,,,,,,00026,001,2025-11-11_05h26.46.426,MST_task,2024.2.2,60.047401418791054,2025-11-11 05h26.51.406060 +0530,
,Objects\207a.jpg,141,0,141,,,,,j,2.460038799999893,0.12639589999980672,None,,,,,,,141,0,141,0,655.3844902999999,,,,,,,,,,,,,,,,,,,,,,,655.3681975,655.3844902999999,655.8843665999998,655.8680144999998,,,,,,,,,,,,,,,,,,,,,,655.8789891000001,655.8843665999998,655.8843665999998,655.8843665999998,658.8680519,indoor,j,2.460038799999893,0.12639589999980672,658.8680869,658.8680960000002,None,658.8843769999999,658.8843769999999,658.8843769999999,,,,,,,,,,,,,,00026,001,2025-11-11_05h26.46.426,MST_task,2024.2.2,60.047401418791054,2025-11-11 05h26.51.406060 +0530,
,Objects\228a.jpg,142,0,142,,,,,f,2.5145152000000053,0.14159280000012586,None,,,,,,,142,0,142,0,658.8843769999999,,,,,,,,,,,,,,,,,,,,,,,658.8681468,658.8843769999999,659.3842894,659.3678666000001,,,,,,,,,,,,,,,,,,,,,,659.3785222000001,659.3842894,659.3842894,659.3842894,662.3678949999999,indoor,f,2.5145152000000053,0.14159280000012586,662.3679311999999,662.3679407999998,None,662.3843582999998,662.3843582999998,662.3843582999998,,,,,,,,,,,,,,00026,001,2025-11-11_05h26.46.426,MST_task,2024.2.2,60.047401418791054,2025-11-11 05h26.51.406060 +0530,
,Objects\364a.jpg,143,0,143,,,,,j,1.2955409999999574,0.14840460000004896,None,,,,,,,143,0,143,0,662.3843582999998,,,,,,,,,,,,,,,,,,,,,,,662.367996,662.3843582999998,662.8842549999999,662.8678504999998,,,,,,,,,,,,,,,,,,,,,,662.8776798999997,662.8842549999999,662.8842549999999,662.8842549999999,665.8678203999998,indoor,j,1.2955409999999574,0.14840460000004896,665.8678522,665.8678605999999,None,665.8843403999999,665.8843403999999,665.8843403999999,,,,,,,,,,,,,,00026,001,2025-11-11_05h26.46.426,MST_task,2024.2.2,60.047401418791054,2025-11-11 05h26.51.406060 +0530,
,Objects\264a.jpg,144,0,144,,,,,j,2.0276936999998725,0.14194769999994605,None,,,,,,,144,0,144,0,665.8843403999999,,,,,,,,,,,,,,,,,,,,,,,665.8679118999999,665.8843403999999,666.3842017000002,666.3676667,,,,,,,,,,,,,,,,,,,,,,666.3772684999999,666.3842017000002,666.3842017000002,666.3842017000002,669.3676818999998,indoor,j,2.0276936999998725,0.14194769999994605,669.3677153999997,669.3677272,None,669.3841761999997,669.3841761999997,669.3841761999997,,,,,,,,,,,,,,00026,001,2025-11-11_05h26.46.426,MST_task,2024.2.2,60.047401418791054,2025-11-11 05h26.51.406060 +0530,
,Objects\185a.jpg,145,0,145,,,,,j,2.37387310000031,0.14235929999995278,None,,,,,,,145,0,145,0,669.3841761999997,,,,,,,,,,,,,,,,,,,,,,,669.3677801999997,669.3841761999997,669.8841179000001,669.8676150000001,,,,,,,,,,,,,,,,,,,,,,669.8780409999999,669.8841179000001,669.8841179000001,669.8841179000001,672.8676965999998,indoor,j,2.37387310000031,0.14235929999995278,672.8677309,672.8677392999998,None,672.8840804000001,672.8840804000001,672.8840804000001,,,,,,,,,,,,,,00026,001,2025-11-11_05h26.46.426,MST_task,2024.2.2,60.047401418791054,2025-11-11 05h26.51.406060 +0530,
,Objects\346a.jpg,146,0,146,,,,,None,,,f,0.6211681999998291,None,,,,,146,0,146,0,672.8840804000001,,,,,,,,,,,,,,,,,,,,,,,672.8677959000001,672.8840804000001,673.4008141999998,673.3676291000002,,,,,,,,,,,,,,,,,,,,,,673.3793747999998,673.4008141999998,673.4008141999998,673.4008141999998,676.3840271999998,indoor,None,,,676.3840621999998,677.0341580999998,f,,,,676.4006389000001,676.4006389000001,0.6211681999998291,None,,,,,,,,,,00026,001,2025-11-11_05h26.46.426,MST_task,2024.2.2,60.047401418791054,2025-11-11 05h26.51.406060 +0530,
,Objects\162a.jpg,147,0,147,,,,,f,1.550810800000363,0.1625067999998464,None,,,,,,,147,0,147,0,677.0505972000001,,,,,,,,,,,,,,,,,,,,,,,677.0342219999998,677.0505972000001,677.5672577999999,677.5340808999999,,,,,,,,,,,,,,,,,,,,,,677.546437,677.5672577999999,677.5672577999999,677.5672577999999,680.5505889000001,shoe,f,1.550810800000363,0.1625067999998464,680.5523017999999,680.5523149,None,,,,,,,,,,,,,,,,,00026,001,2025-11-11_05h26.46.426,MST_task,2024.2.2,60.047401418791054,2025-11-11 05h26.51.406060 +0530,
,Objects\270a.jpg,148,0,148,,,,,j,1.0289850000003753,0.16151239999999234,None,,,,,,,148,0,148,0,680.5671763,,,,,,,,,,,,,,,,,,,,,,,680.5523669999998,680.5671763,681.0671330999999,681.0506768,,,,,,,,,,,,,,,,,,,,,,681.0602988999999,681.0671330999999,681.0671330999999,681.0671330999999,684.0506916999998,shoe,j,1.0289850000003753,0.16151239999999234,684.0507242999997,684.0507327,None,684.0671035,684.0671035,684.0671035,,,,,,,,,,,,,,00026,001,2025-11-11_05h26.46.426,MST_task,2024.2.2,60.047401418791054,2025-11-11 05h26.51.406060 +0530,
,Objects\329a.jpg,149,0,149,,,,,None,,,f,0.4510552000001553,None,,,,,149,0,149,0,684.0671035,,,,,,,,,,,,,,,,,,,,,,,684.0507908,684.0671035,684.5670861999997,684.5506157,,,,,,,,,,,,,,,,,,,,,,684.5607586000001,684.5670861999997,684.5670861999997,684.5670861999997,687.5506550999999,shoe,None,,,687.5506842,688.0339355000001,f,687.5670304999999,687.5670304999999,687.5670304999999,687.5670304999999,687.5670304999999,0.4510552000001553,None,,,,,,,,,,00026,001,2025-11-11_05h26.46.426,MST_task,2024.2.2,60.047401418791054,2025-11-11 05h26.51.406060 +0530,
,Objects\306a.jpg,150,0,150,,,,,f,1.1286334000001261,0.16865009999992253,None,,,,,,,150,0,150,0,688.0504050999998,,,,,,,,,,,,,,,,,,,,,,,688.0340289999999,688.0504050999998,688.5503220999999,688.5338840999998,,,,,,,,,,,,,,,,,,,,,,688.5442760999999,688.5503220999999,688.5503220999999,688.5503220999999,691.5338935999998,shoe,f,1.1286334000001261,0.16865009999992253,691.5339270999998,691.5339365999998,None,691.5503238000001,691.5503238000001,691.5503238000001,,,,,,,,,,,,,,00026,001,2025-11-11_05h26.46.426,MST_task,2024.2.2,60.047401418791054,2025-11-11 05h26.51.406060 +0530,
,Objects\331a.jpg,151,0,151,,,,,None,,,f,0.9178099999999176,None,,,,,151,0,151,0,691.5503238000001,,,,,,,,,,,,,,,,,,,,,,,691.5340191999999,691.5503238000001,692.0502514,692.0337915999999,,,,,,,,,,,,,,,,,,,,,,692.0439345999998,692.0502514,692.0502514,692.0502514,695.0337424999998,shoe,None,,,695.0337699000002,695.9837435,f,695.0502459999998,695.0502459999998,695.0502459999998,695.0502459999998,695.0502459999998,0.9178099999999176,None,,,,,,,,,,00026,001,2025-11-11_05h26.46.426,MST_task,2024.2.2,60.047401418791054,2025-11-11 05h26.51.406060 +0530,
,Objects\211a.jpg,152,0,152,,,,,f,2.2676885999999286,0.1664095000000998,None,,,,,,,152,0,152,0,696.0002614999999,,,,,,,,,,,,,,,,,,,,,,,695.9838088000001,696.0002614999999,696.5001579999998,696.4836227000001,,,,,,,,,,,,,,,,,,,,,,696.4935442000001,696.5001579999998,696.5001579999998,696.5001579999998,699.4836589000001,shoe,f,2.2676885999999286,0.1664095000000998,699.4836907999997,699.4836998000001,None,699.5001342999999,699.5001342999999,699.5001342999999,,,,,,,,,,,,,,00026,001,2025-11-11_05h26.46.426,MST_task,2024.2.2,60.047401418791054,2025-11-11 05h26.51.406060 +0530,
,Objects\226a.jpg,153,0,153,,,,,None,,,f,2.8182533000003787,None,,,,,153,0,153,0,699.5001342999999,,,,,,,,,,,,,,,,,,,,,,,699.4837481999998,699.5001342999999,700.0001373999999,699.9835533,,,,,,,,,,,,,,,,,,,,,,699.9934047000002,700.0001373999999,700.0001373999999,700.0001373999999,702.9835874999999,shoe,None,,,702.9836165000002,705.8336921999999,f,703.0000246999998,703.0000246999998,703.0000246999998,703.0000246999998,703.0000246999998,2.8182533000003787,None,,,,,,,,,,00026,001,2025-11-11_05h26.46.426,MST_task,2024.2.2,60.047401418791054,2025-11-11 05h26.51.406060 +0530,
,Objects\103a.jpg,154,0,154,,,,,f,2.1898039000002427,0.1948406999999861,None,,,,,,,154,0,154,0,705.8499600999999,,,,,,,,,,,,,,,,,,,,,,,705.8337695,705.8499600999999,706.3495266999998,706.3334473999998,,,,,,,,,,,,,,,,,,,,,,706.3453169,706.3495266999998,706.3495266999998,706.3495266999998,709.3334915,indoor,f,2.1898039000002427,0.1948406999999861,709.3346047,709.3346164999998,None,709.3498847999999,709.3498847999999,709.3498847999999,,,,,,,,,,,,,,00026,001,2025-11-11_05h26.46.426,MST_task,2024.2.2,60.047401418791054,2025-11-11 05h26.51.406060 +0530,
,Objects\206a.jpg,155,0,155,,,,,f,2.2378795999998147,0.15429200000016863,None,,,,,,,155,0,155,0,709.3498847999999,,,,,,,,,,,,,,,,,,,,,,,709.3346686,709.3498847999999,709.8498657,709.8335029999998,,,,,,,,,,,,,,,,,,,,,,709.8432296000001,709.8498657,709.8498657,709.8498657,712.8334642999998,indoor,f,2.2378795999998147,0.15429200000016863,712.8335004999999,712.8335137999998,None,712.8496799999998,712.8496799999998,712.8496799999998,,,,,,,,,,,,,,00026,001,2025-11-11_05h26.46.426,MST_task,2024.2.2,60.047401418791054,2025-11-11 05h26.51.406060 +0530,
,Objects\301a.jpg,156,0,156,,,,,None,,,j,1.2810913000002984,None,,,,,156,0,156,0,712.8496799999998,,,,,,,,,,,,,,,,,,,,,,,712.8335686999999,712.8496799999998,713.3492858999998,713.3331969999999,,,,,,,,,,,,,,,,,,,,,,713.3437399,713.3492858999998,713.3492858999998,713.3492858999998,716.3332043,indoor,None,,,716.3332344999999,717.6332288999997,j,716.349596,716.349596,716.349596,716.349596,716.349596,1.2810913000002984,None,,,,,,,,,,00026,001,2025-11-11_05h26.46.426,MST_task,2024.2.2,60.047401418791054,2025-11-11 05h26.51.406060 +0530,
,Objects\003a.jpg,157,0,157,,,,,j,2.241818200000125,0.16287979999970048,None,,,,,,,157,0,157,0,717.6495706000001,,,,,,,,,,,,,,,,,,,,,,,717.6333018999999,717.6495706000001,718.1496115999998,718.1331891,,,,,,,,,,,,,,,,,,,,,,718.1407804,718.1496115999998,718.1496115999998,718.1496115999998,721.1331857999999,indoor,j,2.241818200000125,0.16287979999970048,721.1332251999997,721.1332358999998,None,721.1495329999998,721.1495329999998,721.1495329999998,,,,,,,,,,,,,,00026,001,2025-11-11_05h26.46.426,MST_task,2024.2.2,60.047401418791054,2025-11-11 05h26.51.406060 +0530,
,Objects\295a.jpg,158,0,158,,,,,None,,,f,1.1099976000000424,None,,,,,158,0,158,0,721.1495329999998,,,,,,,,,,,,,,,,,,,,,,,721.1332923,721.1495329999998,721.6490978000002,721.6330125999998,,,,,,,,,,,,,,,,,,,,,,721.6438227999997,721.6490978000002,721.6490978000002,721.6490978000002,724.6330653999999,indoor,None,,,724.6330972999999,725.7664928999998,f,724.6494472999998,724.6494472999998,724.6494472999998,724.6494472999998,724.6494472999998,1.1099976000000424,None,,,,,,,,,,00026,001,2025-11-11_05h26.46.426,MST_task,2024.2.2,60.047401418791054,2025-11-11 05h26.51.406060 +0530,
,Objects\379a.jpg,159,0,159,,,,,None,,,j,0.15794770000002245,None,,,,,159,0,159,0,725.7827527,,,,,,,,,,,,,,,,,,,,,,,725.7665674,725.7827527,726.2827345000001,726.2663395999998,,,,,,,,,,,,,,,,,,,,,,726.2772369999998,726.2827345000001,726.2827345000001,726.2827345000001,729.2663696,indoor,None,,,729.2664037,729.4497004,j,729.2826713,729.2826713,729.2826713,729.2826713,729.2826713,0.15794770000002245,None,,,,,,,,,,00026,001,2025-11-11_05h26.46.426,MST_task,2024.2.2,60.047401418791054,2025-11-11 05h26.51.406060 +0530,
,Objects\219a.jpg,160,0,160,,,,,j,2.5318435999997746,0.17432749999989028,None,,,,,,,160,0,160,0,729.4660319,,,,,,,,,,,,,,,,,,,,,,,729.4497627000001,729.4660319,729.9659597,729.9495413999998,,,,,,,,,,,,,,,,,,,,,,729.9576167999999,729.9659597,729.9659597,729.9659597,732.9494875,indoor,j,2.5318435999997746,0.17432749999989028,732.9495198999998,732.9495287,None,732.9659326000001,732.9659326000001,732.9659326000001,,,,,,,,,,,,,,00026,001,2025-11-11_05h26.46.426,MST_task,2024.2.2,60.047401418791054,2025-11-11 05h26.51.406060 +0530,
,Objects\380a.jpg,161,0,161,,,,,None,,,j,1.255528200000299,None,,,,,161,0,161,0,732.9659326000001,,,,,,,,,,,,,,,,,,,,,,,732.9495802000001,732.9659326000001,733.4654955000001,733.4495198999998,,,,,,,,,,,,,,,,,,,,,,733.4601428999999,733.4654955000001,733.4654955000001,733.4654955000001,736.4496131999999,shoe,None,,,736.4511225000001,737.7327442000001,j,736.4658283999997,736.4658283999997,736.4658283999997,736.4658283999997,736.4658283999997,1.255528200000299,None,,,,,,,,,,00026,001,2025-11-11_05h26.46.426,MST_task,2024.2.2,60.047401418791054,2025-11-11 05h26.51.406060 +0530,
,Objects\232a.jpg,162,0,162,,,,,f,0.8868870000001152,0.15800510000008217,None,,,,,,,162,0,162,0,737.7491050999997,,,,,,,,,,,,,,,,,,,,,,,737.7328090000001,737.7491050999997,738.2657719999997,738.2325870999998,,,,,,,,,,,,,,,,,,,,,,738.2447358,738.2657719999997,738.2657719999997,738.2657719999997,741.2491088000002,shoe,f,0.8868870000001152,0.15800510000008217,741.2491494000001,741.2491602999999,None,,,,,,,,,,,,,,,,,00026,001,2025-11-11_05h26.46.426,MST_task,2024.2.2,60.047401418791054,2025-11-11 05h26.51.406060 +0530,
,Objects\290a.jpg,163,0,163,,,,,j,2.099775799999861,0.1420178000003034,None,,,,,,,163,0,163,0,741.2657340999999,,,,,,,,,,,,,,,,,,,,,,,741.2492203000002,741.2657340999999,741.7656662999998,741.7491989999999,,,,,,,,,,,,,,,,,,,,,,741.7597817999999,741.7656662999998,741.7656662999998,741.7656662999998,744.7493264,shoe,j,2.099775799999861,0.1420178000003034,744.7493583999999,744.7493667999997,None,744.7657168999999,744.7657168999999,744.7657168999999,,,,,,,,,,,,,,00026,001,2025-11-11_05h26.46.426,MST_task,2024.2.2,60.047401418791054,2025-11-11 05h26.51.406060 +0530,
