Sl_no,image_path,thisN,thisTrialN,thisRepN,key_resp_5.keys,key_resp_5.rt,key_resp_5.duration,key_resp_7.keys,key_resp_9.keys,key_resp_9.rt,key_resp_9.duration,key_resp_8.keys,key_resp_8.rt,key_resp_8.duration,practice.thisRepN,practice.thisTrialN,practice.thisN,practice.thisIndex,trials.thisRepN,trials.thisTrialN,trials.thisN,trials.thisIndex,thisRow.t,notes,welcome_page.started,text.started,key_resp.started,welcome_page.stopped,key_resp.keys,key_resp.rt,key_resp.duration,instructions.started,ins.started,key_resp_2.started,instructions.stopped,key_resp_2.keys,key_resp_2.rt,key_resp_2.duration,objects_only_instruction.started,text_3.started,key_resp_3.started,objects_only_instruction.stopped,key_resp_3.keys,key_resp_3.rt,key_resp_3.duration,ISI.started,text_4.started,text_4.stopped,ISI.stopped,practice_block.started,image.started,key_resp_5.started,text_5.started,image.stopped,key_resp_5.stopped,text_5.stopped,practice_block.stopped,practice.key_resp_5.keys,practice.key_resp_5.rt,practice.key_resp_5.duration,indoor_outdoor.started,indoor_outdoor.stopped,practice.key_resp_7.keys,practice_to_main.started,text_2.started,key_resp_4.started,practice_to_main.stopped,key_resp_4.keys,key_resp_4.rt,key_resp_4.duration,objects.started,image_2.started,text_9.started,key_resp_9.started,image_2.stopped,text_9.stopped,key_resp_9.stopped,objects.stopped,category,trials.key_resp_9.keys,trials.key_resp_9.rt,trials.key_resp_9.duration,encoding_task.started,encoding_task.stopped,trials.key_resp_8.keys,text_8.started,key_resp_8.started,trials.key_resp_8.rt,trials.key_resp_8.duration,end_experiment.started,text_6.started,key_resp_6.started,end_experiment.stopped,key_resp_6.keys,key_resp_6.rt,key_resp_6.duration,list_of_stimuli,encoding_task_accuracy,participant,session,date,expName,psychopyVersion,frameRate,expStart,
,,,,,,,,,,,,,,,,,,,,,,,,,0.012214300000778167,0.028868800000054762,0.028868800000054762,7.380300600001647,space,7.346227199999703,None,,,,,,,,,,,,,,,,,,,,,,,,,,,,,,,,,,,,,,,,,,,,,,,,,,,,,,,,,,,,,,,,,,,,00020,001,2025-11-08_18h04.13.718,MST_task,2024.2.2,60.01669664550638,2025-11-08 18h04.20.410595 +0530,
,,,,,,,,,,,,,,,,,,,,,,,,,,,,,,,,7.380326300000888,7.395383700000821,7.395383700000821,27.761955000001763,space,20.358362099999795,None,,,,,,,,,,,,,,,,,,,,,,,,,,,,,,,,,,,,,,,,,,,,,,,,,,,,,,,,,,,,,00020,001,2025-11-08_18h04.13.718,MST_task,2024.2.2,60.01669664550638,2025-11-08 18h04.20.410595 +0530,
,,,,,,,,,,,,,,,,,,,,,,,,,,,,,,,,,,,,,,,27.761988300000667,27.77826880000066,27.77826880000066,32.52861160000248,space,4.750012399999832,None,,,,,,,,,,,,,,,,,,,,,,,,,,,,,,,,,,,,,,,,,,,,,,,,,,,,,,00020,001,2025-11-08_18h04.13.718,MST_task,2024.2.2,60.01669664550638,2025-11-08 18h04.20.410595 +0530,
1,practice_images/013a.jpg,0,0,0,j,0.9463209999994433,0.1512709000016912,None,,,,,,,0,0,0,0,,,,,32.544956300000194,,,,,,,,,,,,,,,,,,,,,,,32.53202820000297,32.544956300000194,33.04482010000356,33.02855510000154,33.03536200000235,33.04482010000356,33.04482010000356,33.04482010000356,36.044811100000516,36.044811100000516,36.044811100000516,36.028282000002946,j,0.9463209999994433,0.1512709000016912,36.02943470000173,36.02944820000266,None,,,,,,,,,,,,,,,,,,,,,,,,,,,,,,,,,,,,00020,001,2025-11-08_18h04.13.718,MST_task,2024.2.2,60.01669664550638,2025-11-08 18h04.20.410595 +0530,
8,practice_images/178a.jpg,1,1,0,f,1.6571063999981561,0.1580290000019886,None,,,,,,,0,1,1,7,,,,,36.044811100000516,,,,,,,,,,,,,,,,,,,,,,,36.029500200002076,36.044811100000516,36.54481370000212,36.52831060000244,36.52958570000192,36.54481370000212,36.54481370000212,36.54481370000212,39.54461120000269,39.54461120000269,39.54461120000269,39.52812050000284,f,1.6571063999981561,0.1580290000019886,39.528152400002,39.52816190000158,None,,,,,,,,,,,,,,,,,,,,,,,,,,,,,,,,,,,,00020,001,2025-11-08_18h04.13.718,MST_task,2024.2.2,60.01669664550638,2025-11-08 18h04.20.410595 +0530,
3,practice_images/037a.jpg,2,2,0,f,1.668761099997937,0.13794440000128816,None,,,,,,,0,2,2,2,,,,,39.54461120000269,,,,,,,,,,,,,,,,,,,,,,,39.52821480000057,39.54461120000269,40.044646200003626,40.02824490000057,40.029562100000476,40.044646200003626,40.044646200003626,40.044646200003626,43.04453090000243,43.04453090000243,43.04453090000243,43.028178400003526,f,1.668761099997937,0.13794440000128816,43.02821050000057,43.028219500003615,None,,,,,,,,,,,,,,,,,,,,,,,,,,,,,,,,,,,,00020,001,2025-11-08_18h04.13.718,MST_task,2024.2.2,60.01669664550638,2025-11-08 18h04.20.410595 +0530,
2,practice_images/031a.jpg,3,3,0,f,1.0197637000019313,0.14131110000016633,None,,,,,,,0,3,3,1,,,,,43.04453090000243,,,,,,,,,,,,,,,,,,,,,,,43.02827250000337,43.04453090000243,43.54449330000352,43.52808020000157,43.5292225000012,43.54449330000352,43.54449330000352,43.54449330000352,46.54445990000022,46.54445990000022,46.54445990000022,46.52804760000072,f,1.0197637000019313,0.14131110000016633,46.52808090000326,46.52809140000318,None,,,,,,,,,,,,,,,,,,,,,,,,,,,,,,,,,,,,00020,001,2025-11-08_18h04.13.718,MST_task,2024.2.2,60.01669664550638,2025-11-08 18h04.20.410595 +0530,
4,practice_images/002b.jpg,4,4,0,f,2.189437500001077,0.17351069999858737,None,,,,,,,0,4,4,3,,,,,46.54445990000022,,,,,,,,,,,,,,,,,,,,,,,46.52814980000039,46.54445990000022,47.04445630000191,47.027964700002485,47.0292666000023,47.04445630000191,47.04445630000191,47.04445630000191,50.04442010000275,50.04442010000275,50.04442010000275,50.02788920000239,f,2.189437500001077,0.17351069999858737,50.027920300002734,50.02792960000079,None,,,,,,,,,,,,,,,,,,,,,,,,,,,,,,,,,,,,00020,001,2025-11-08_18h04.13.718,MST_task,2024.2.2,60.01669664550638,2025-11-08 18h04.20.410595 +0530,
6,practice_images/158a.jpg,5,5,0,j,0.9848395000008168,0.17072279999774764,None,,,,,,,0,5,5,5,,,,,50.04442010000275,,,,,,,,,,,,,,,,,,,,,,,50.02797990000181,50.04442010000275,50.54437170000165,50.527915000002395,50.5311208000021,50.54437170000165,50.54437170000165,50.54437170000165,53.54427360000045,53.54427360000045,53.54427360000045,53.527889900000446,j,0.9848395000008168,0.17072279999774764,53.529423400003,53.52944120000029,None,,,,,,,,,,,,,,,,,,,,,,,,,,,,,,,,,,,,00020,001,2025-11-08_18h04.13.718,MST_task,2024.2.2,60.01669664550638,2025-11-08 18h04.20.410595 +0530,
7,practice_images/166a.jpg,6,6,0,f,0.821874300003401,0.13924669999687467,None,,,,,,,0,6,6,6,,,,,53.54427360000045,,,,,,,,,,,,,,,,,,,,,,,53.52950320000309,53.54427360000045,54.04427260000011,54.02787690000332,54.02918970000246,54.04427260000011,54.04427260000011,54.04427260000011,57.044193700003234,57.044193700003234,57.044193700003234,57.027856200002134,f,0.821874300003401,0.13924669999687467,57.02789020000273,57.027900000000955,None,,,,,,,,,,,,,,,,,,,,,,,,,,,,,,,,,,,,00020,001,2025-11-08_18h04.13.718,MST_task,2024.2.2,60.01669664550638,2025-11-08 18h04.20.410595 +0530,
5,practice_images/139a.jpg,7,7,0,j,0.7511059999997087,0.15372059999936027,None,,,,,,,0,7,7,4,,,,,57.044193700003234,,,,,,,,,,,,,,,,,,,,,,,57.02796030000172,57.044193700003234,57.5442174000018,57.52772460000051,57.52894780000133,57.5442174000018,57.5442174000018,57.5442174000018,60.54411690000052,60.54411690000052,60.54411690000052,60.52769960000296,j,0.7511059999997087,0.15372059999936027,60.52773680000246,60.52774760000102,None,,,,,,,,,,,,,,,,,,,,,,,,,,,,,,,,,,,,00020,001,2025-11-08_18h04.13.718,MST_task,2024.2.2,60.01669664550638,2025-11-08 18h04.20.410595 +0530,
9,practice_images/180a.jpg,8,8,0,j,2.6654693000018597,0.1479985999976634,None,,,,,,,0,8,8,8,,,,,60.54411690000052,,,,,,,,,,,,,,,,,,,,,,,60.52780680000069,60.54411690000052,61.04415940000035,61.027745200000936,61.02895920000083,61.04415940000035,61.04415940000035,61.04415940000035,64.04403500000262,64.04403500000262,64.04403500000262,64.02755740000066,j,2.6654693000018597,0.1479985999976634,64.0275896000021,64.02759880000303,None,,,,,,,,,,,,,,,,,,,,,,,,,,,,,,,,,,,,00020,001,2025-11-08_18h04.13.718,MST_task,2024.2.2,60.01669664550638,2025-11-08 18h04.20.410595 +0530,
10,practice_images/182a.jpg,9,9,0,f,2.207593299997825,0.154295500000444,None,,,,,,,0,9,9,9,,,,,64.04403500000262,,,,,,,,,,,,,,,,,,,,,,,64.02765420000287,64.04403500000262,64.54406070000186,64.5276154000021,64.52889090000099,64.54406070000186,64.54406070000186,64.54406070000186,67.54396540000016,67.54396540000016,67.54396540000016,67.52754920000007,f,2.207593299997825,0.154295500000444,67.52758740000354,67.52759810000134,None,,,,,,,,,,,,,,,,,,,,,,,,,,,,,,,,,,,,00020,001,2025-11-08_18h04.13.718,MST_task,2024.2.2,60.01669664550638,2025-11-08 18h04.20.410595 +0530,
,,,,,,,,,,,,,,,,,,,,,,,,,,,,,,,,,,,,,,,,,,,,,,,,,,,,,,,,,,,,,,,,67.52763870000126,67.54396540000016,67.54396540000016,74.69423400000233,space,7.147868299998663,None,,,,,,,,,,,,,,,,,,,,,,,,,,,,,00020,001,2025-11-08_18h04.13.718,MST_task,2024.2.2,60.01669664550638,2025-11-08 18h04.20.410595 +0530,
,Objects\182a.jpg,0,0,0,,,,,f,1.640649900000426,0.14241820000097505,None,,,,,,,0,0,0,0,74.71051240000088,,,,,,,,,,,,,,,,,,,,,,,74.69493070000317,74.71051240000088,75.2107296000031,75.1939764000017,,,,,,,,,,,,,,,,,,,,,,75.20119700000214,75.2107296000031,75.2107296000031,75.2107296000031,78.21043310000096,78.21043310000096,78.21043310000096,78.19398530000035,indoor,f,1.640649900000426,0.14241820000097505,78.19514690000142,78.19515980000142,None,,,,,,,,,,,,,,00020,001,2025-11-08_18h04.13.718,MST_task,2024.2.2,60.01669664550638,2025-11-08 18h04.20.410595 +0530,
,Objects\315a.jpg,1,0,1,,,,,f,1.8384976999986975,0.17009260000122595,None,,,,,,,1,0,1,0,78.21043310000096,,,,,,,,,,,,,,,,,,,,,,,78.19521330000134,78.21043310000096,78.72735220000322,78.69403140000213,,,,,,,,,,,,,,,,,,,,,,78.7135866000026,78.72735220000322,78.72735220000322,78.72735220000322,,,,81.7103930000012,indoor,f,1.8384976999986975,0.17009260000122595,81.71042690000104,81.71043600000121,None,,,,,,,,,,,,,,00020,001,2025-11-08_18h04.13.718,MST_task,2024.2.2,60.01669664550638,2025-11-08 18h04.20.410595 +0530,
,Objects\239a.jpg,2,0,2,,,,,f,2.480944899998576,0.09743370000069262,None,,,,,,,2,0,2,0,81.72708530000091,,,,,,,,,,,,,,,,,,,,,,,81.71048930000325,81.72708530000091,82.22697690000132,82.21052770000097,,,,,,,,,,,,,,,,,,,,,,82.21552320000046,82.22697690000132,82.22697690000132,82.22697690000132,85.22694300000148,85.22694300000148,85.22694300000148,85.2105197000019,indoor,f,2.480944899998576,0.09743370000069262,85.2105541000019,85.21056330000283,None,,,,,,,,,,,,,,00020,001,2025-11-08_18h04.13.718,MST_task,2024.2.2,60.01669664550638,2025-11-08 18h04.20.410595 +0530,
,Objects\046a.jpg,3,0,3,,,,,f,1.9575397000007797,0.16238370000064606,None,,,,,,,3,0,3,0,85.22694300000148,,,,,,,,,,,,,,,,,,,,,,,85.21061410000038,85.22694300000148,85.74356610000177,85.71048740000333,,,,,,,,,,,,,,,,,,,,,,85.73389190000307,85.74356610000177,85.74356610000177,85.74356610000177,,,,88.72691860000123,indoor,f,1.9575397000007797,0.16238370000064606,88.72695610000301,88.7269696000003,None,,,,,,,,,,,,,,00020,001,2025-11-08_18h04.13.718,MST_task,2024.2.2,60.01669664550638,2025-11-08 18h04.20.410595 +0530,
,Objects\374a.jpg,4,0,4,,,,,f,1.1917587999996613,0.1495766999978514,None,,,,,,,4,0,4,0,88.74354790000143,,,,,,,,,,,,,,,,,,,,,,,88.72702830000344,88.74354790000143,89.26019530000121,89.22705770000175,,,,,,,,,,,,,,,,,,,,,,89.24070270000084,89.26019530000121,89.26019530000121,89.26019530000121,,,,92.24349610000354,indoor,f,1.1917587999996613,0.1495766999978514,92.24354480000329,92.24355470000228,None,,,,,,,,,,,,,,00020,001,2025-11-08_18h04.13.718,MST_task,2024.2.2,60.01669664550638,2025-11-08 18h04.20.410595 +0530,
,Objects\311a.jpg,5,0,5,,,,,j,1.2677847999984806,0.1454741000015929,None,,,,,,,5,0,5,0,92.26011350000044,,,,,,,,,,,,,,,,,,,,,,,92.2436103,92.26011350000044,92.76007930000196,92.7436415000011,,,,,,,,,,,,,,,,,,,,,,92.74888230000215,92.76007930000196,92.76007930000196,92.76007930000196,95.76004560000001,95.76004560000001,95.76004560000001,95.7436071000011,indoor,j,1.2677847999984806,0.1454741000015929,95.74364500000229,95.74365490000127,None,,,,,,,,,,,,,,00020,001,2025-11-08_18h04.13.718,MST_task,2024.2.2,60.01669664550638,2025-11-08 18h04.20.410595 +0530,
,Objects\380a.jpg,6,0,6,,,,,f,2.339822500001901,0.138979899998958,None,,,,,,,6,0,6,0,95.76004560000001,,,,,,,,,,,,,,,,,,,,,,,95.74370900000213,95.76004560000001,96.26001630000246,96.2435985000011,,,,,,,,,,,,,,,,,,,,,,96.24539410000216,96.26001630000246,96.26001630000246,96.26001630000246,99.2599672000033,99.2599672000033,99.2599672000033,99.24362950000068,indoor,f,2.339822500001901,0.138979899998958,99.2436662,99.24367700000221,None,,,,,,,,,,,,,,00020,001,2025-11-08_18h04.13.718,MST_task,2024.2.2,60.01669664550638,2025-11-08 18h04.20.410595 +0530,
,Objects\019a.jpg,7,0,7,,,,,f,1.2672290000009525,0.1560981999973592,None,,,,,,,7,0,7,0,99.2599672000033,,,,,,,,,,,,,,,,,,,,,,,99.24373220000052,99.2599672000033,99.7599209,99.74357090000194,,,,,,,,,,,,,,,,,,,,,,99.74832190000234,99.7599209,99.7599209,99.7599209,102.75986180000109,102.75986180000109,102.75986180000109,102.74371350000001,shoe,f,1.2672290000009525,0.1560981999973592,102.74523590000172,102.7452480000029,None,,,,,,,,,,,,,,00020,001,2025-11-08_18h04.13.718,MST_task,2024.2.2,60.01669664550638,2025-11-08 18h04.20.410595 +0530,
,Objects\205a.jpg,8,0,8,,,,,j,2.6731579000006604,0.158262899996771,None,,,,,,,8,0,8,0,102.75986180000109,,,,,,,,,,,,,,,,,,,,,,,102.74530170000071,102.75986180000109,103.25984550000067,103.24342050000269,,,,,,,,,,,,,,,,,,,,,,103.2486742000001,103.25984550000067,103.25984550000067,103.25984550000067,106.25981030000185,106.25981030000185,106.25981030000185,106.24355200000355,shoe,j,2.6731579000006604,0.158262899996771,106.24359090000144,106.24360080000042,None,,,,,,,,,,,,,,00020,001,2025-11-08_18h04.13.718,MST_task,2024.2.2,60.01669664550638,2025-11-08 18h04.20.410595 +0530,
,Objects\254a.jpg,9,0,9,,,,,j,2.6576071999988926,0.17154220000156783,None,,,,,,,9,0,9,0,106.25981030000185,,,,,,,,,,,,,,,,,,,,,,,106.24365370000305,106.25981030000185,106.75976680000167,106.74338310000167,,,,,,,,,,,,,,,,,,,,,,106.74875240000256,106.75976680000167,106.75976680000167,106.75976680000167,109.75973430000158,109.75973430000158,109.75973430000158,109.74330760000157,shoe,j,2.6576071999988926,0.17154220000156783,109.74334480000107,109.74335970000175,None,,,,,,,,,,,,,,00020,001,2025-11-08_18h04.13.718,MST_task,2024.2.2,60.01669664550638,2025-11-08 18h04.20.410595 +0530,
,Objects\116a.jpg,10,0,10,,,,,f,1.030713399999513,0.1511473999998998,None,,,,,,,10,0,10,0,109.75973430000158,,,,,,,,,,,,,,,,,,,,,,,109.74344150000252,109.75973430000158,110.2597007000004,110.24322730000131,,,,,,,,,,,,,,,,,,,,,,110.24853780000194,110.2597007000004,110.2597007000004,110.2597007000004,113.25965510000242,113.25965510000242,113.25965510000242,113.24327330000233,shoe,f,1.030713399999513,0.1511473999998998,113.2433114000014,113.24332080000022,None,,,,,,,,,,,,,,00020,001,2025-11-08_18h04.13.718,MST_task,2024.2.2,60.01669664550638,2025-11-08 18h04.20.410595 +0530,
,Objects\052a.jpg,11,0,11,,,,,f,1.8874694000005547,0.1626825999992434,None,,,,,,,11,0,11,0,113.25965510000242,,,,,,,,,,,,,,,,,,,,,,,113.24340550000124,113.25965510000242,113.75961010000174,113.74319440000181,,,,,,,,,,,,,,,,,,,,,,113.74524670000028,113.75961010000174,113.75961010000174,113.75961010000174,116.75958250000258,116.75958250000258,116.75958250000258,116.74314190000223,shoe,f,1.8874694000005547,0.1626825999992434,116.74317660000088,116.74318560000029,None,,,,,,,,,,,,,,00020,001,2025-11-08_18h04.13.718,MST_task,2024.2.2,60.01669664550638,2025-11-08 18h04.20.410595 +0530,
,Objects\106a.jpg,12,0,12,,,,,f,0.985586400001921,0.18582019999666954,None,,,,,,,12,0,12,0,116.75958250000258,,,,,,,,,,,,,,,,,,,,,,,116.74324110000089,116.75958250000258,117.25954050000291,117.24323340000046,,,,,,,,,,,,,,,,,,,,,,117.24522800000341,117.25954050000291,117.25954050000291,117.25954050000291,120.2595031000019,120.2595031000019,120.2595031000019,120.24318210000274,shoe,f,0.985586400001921,0.18582019999666954,120.24322090000351,120.24323060000097,None,,,,,,,,,,,,,,00020,001,2025-11-08_18h04.13.718,MST_task,2024.2.2,60.01669664550638,2025-11-08 18h04.20.410595 +0530,
,Objects\214a.jpg,13,0,13,,,,,f,1.141781499998615,0.1522280999997747,None,,,,,,,13,0,13,0,120.2595031000019,,,,,,,,,,,,,,,,,,,,,,,120.24331670000174,120.2595031000019,120.75949330000003,120.74300930000027,,,,,,,,,,,,,,,,,,,,,,120.74514660000204,120.75949330000003,120.75949330000003,120.75949330000003,123.7593904000023,123.7593904000023,123.7593904000023,123.74301430000196,shoe,f,1.141781499998615,0.1522280999997747,123.74305320000349,123.7430744000012,None,,,,,,,,,,,,,,00020,001,2025-11-08_18h04.13.718,MST_task,2024.2.2,60.01669664550638,2025-11-08 18h04.20.410595 +0530,
,Objects\051a.jpg,14,0,14,,,,,j,2.010243900000205,0.18534360000194283,None,,,,,,,14,0,14,0,123.7593904000023,,,,,,,,,,,,,,,,,,,,,,,123.74313840000104,123.7593904000023,124.2594201000029,124.2429151000033,,,,,,,,,,,,,,,,,,,,,,124.24582850000297,124.2594201000029,124.2594201000029,124.2594201000029,127.25934960000086,127.25934960000086,127.25934960000086,127.24296320000212,indoor,j,2.010243900000205,0.18534360000194283,127.24409790000209,127.2441112000015,None,,,,,,,,,,,,,,00020,001,2025-11-08_18h04.13.718,MST_task,2024.2.2,60.01669664550638,2025-11-08 18h04.20.410595 +0530,
,Objects\289a.jpg,15,0,15,,,,,j,0.9239397999990615,0.17402579999907175,None,,,,,,,15,0,15,0,127.25934960000086,,,,,,,,,,,,,,,,,,,,,,,127.2441635000032,127.25934960000086,127.77600740000344,127.7428903,,,,,,,,,,,,,,,,,,,,,,127.76409680000143,127.77600740000344,127.77600740000344,127.77600740000344,,,,130.75936430000002,indoor,j,0.9239397999990615,0.17402579999907175,130.7594001000034,130.75940950000222,None,,,,,,,,,,,,,,00020,001,2025-11-08_18h04.13.718,MST_task,2024.2.2,60.01669664550638,2025-11-08 18h04.20.410595 +0530,
,Objects\097a.jpg,16,0,16,,,,,j,2.05327269999907,0.14993289999983972,None,,,,,,,16,0,16,0,130.77605630000107,,,,,,,,,,,,,,,,,,,,,,,130.75946750000003,130.77605630000107,131.27605280000353,131.25948720000088,,,,,,,,,,,,,,,,,,,,,,131.26423180000347,131.27605280000353,131.27605280000353,131.27605280000353,134.27592500000173,134.27592500000173,134.27592500000173,134.2595960000035,indoor,j,2.05327269999907,0.14993289999983972,134.25963660000343,134.2596463000009,None,,,,,,,,,,,,,,00020,001,2025-11-08_18h04.13.718,MST_task,2024.2.2,60.01669664550638,2025-11-08 18h04.20.410595 +0530,
,Objects\379a.jpg,17,0,17,,,,,f,2.625313599997753,0.17069550000087474,None,,,,,,,17,0,17,0,134.27592500000173,,,,,,,,,,,,,,,,,,,,,,,134.25970120000056,134.27592500000173,134.77607320000243,134.75941270000112,,,,,,,,,,,,,,,,,,,,,,134.76152640000146,134.77607320000243,134.77607320000243,134.77607320000243,137.77584390000266,137.77584390000266,137.77584390000266,137.75945910000155,indoor,f,2.625313599997753,0.17069550000087474,137.75949360000232,137.75950300000113,None,,,,,,,,,,,,,,00020,001,2025-11-08_18h04.13.718,MST_task,2024.2.2,60.01669664550638,2025-11-08 18h04.20.410595 +0530,
,Objects\128a.jpg,18,0,18,,,,,f,1.40725029999885,0.15164029999868944,None,,,,,,,18,0,18,0,137.77584390000266,,,,,,,,,,,,,,,,,,,,,,,137.75955550000072,137.77584390000266,138.27591850000317,138.2594104000018,,,,,,,,,,,,,,,,,,,,,,138.26133520000076,138.27591850000317,138.27591850000317,138.27591850000317,141.27577020000172,141.27577020000172,141.27577020000172,141.25950580000062,indoor,f,1.40725029999885,0.15164029999868944,141.25953950000257,141.2595489000014,None,,,,,,,,,,,,,,00020,001,2025-11-08_18h04.13.718,MST_task,2024.2.2,60.01669664550638,2025-11-08 18h04.20.410595 +0530,
,Objects\220a.jpg,19,0,19,,,,,j,1.057357100002264,0.17393479999736883,None,,,,,,,19,0,19,0,141.27577020000172,,,,,,,,,,,,,,,,,,,,,,,141.25960260000284,141.27577020000172,141.77578390000053,141.75930560000052,,,,,,,,,,,,,,,,,,,,,,141.76475630000277,141.77578390000053,141.77578390000053,141.77578390000053,144.77569230000154,144.77569230000154,144.77569230000154,144.7593106000022,indoor,j,1.057357100002264,0.17393479999736883,144.75934340000094,144.75935240000035,None,,,,,,,,,,,,,,00020,001,2025-11-08_18h04.13.718,MST_task,2024.2.2,60.01669664550638,2025-11-08 18h04.20.410595 +0530,
,Objects\170a.jpg,20,0,20,,,,,j,0.8152870000012626,0.20151369999803137,None,,,,,,,20,0,20,0,144.77569230000154,,,,,,,,,,,,,,,,,,,,,,,144.75940670000273,144.77569230000154,145.29226200000267,145.25930790000348,,,,,,,,,,,,,,,,,,,,,,145.2867225000009,145.29226200000267,145.29226200000267,145.29226200000267,,,,148.2756812000007,indoor,j,0.8152870000012626,0.20151369999803137,148.27571650000027,148.2757260000035,None,,,,,,,,,,,,,,00020,001,2025-11-08_18h04.13.718,MST_task,2024.2.2,60.01669664550638,2025-11-08 18h04.20.410595 +0530,
,Objects\001a.jpg,21,0,21,,,,,f,2.336645600000338,0.13824579999709385,None,,,,,,,21,0,21,0,148.29227710000123,,,,,,,,,,,,,,,,,,,,,,,148.2757883000013,148.29227710000123,148.80899670000144,148.77586730000257,,,,,,,,,,,,,,,,,,,,,,148.79400170000008,148.80899670000144,148.80899670000144,148.80899670000144,,,,151.79222190000291,shoe,f,2.336645600000338,0.13824579999709385,151.79388910000125,151.7939013000032,None,,,,,,,,,,,,,,00020,001,2025-11-08_18h04.13.718,MST_task,2024.2.2,60.01669664550638,2025-11-08 18h04.20.410595 +0530,
,Objects\210a.jpg,22,0,22,,,,,f,0.9766971000026388,0.1297177999986161,None,,,,,,,22,0,22,0,151.80892440000025,,,,,,,,,,,,,,,,,,,,,,,151.79395910000312,151.80892440000025,152.30892030000177,152.2923045000025,,,,,,,,,,,,,,,,,,,,,,152.29673620000176,152.30892030000177,152.30892030000177,152.30892030000177,155.30879520000235,155.30879520000235,155.30879520000235,155.29257100000177,shoe,f,0.9766971000026388,0.1297177999986161,155.29261560000305,155.29262570000355,None,,,,,,,,,,,,,,00020,001,2025-11-08_18h04.13.718,MST_task,2024.2.2,60.01669664550638,2025-11-08 18h04.20.410595 +0530,
,Objects\229a.jpg,23,0,23,,,,,f,1.0812264000014693,0.16164189999835799,None,,,,,,,23,0,23,0,155.30879520000235,,,,,,,,,,,,,,,,,,,,,,,155.29268490000322,155.30879520000235,155.8087974000009,155.79225410000072,,,,,,,,,,,,,,,,,,,,,,155.79781490000096,155.8087974000009,155.8087974000009,155.8087974000009,158.80871670000124,158.80871670000124,158.80871670000124,158.79245800000353,shoe,f,1.0812264000014693,0.16164189999835799,158.79249690000142,158.792506400001,None,,,,,,,,,,,,,,00020,001,2025-11-08_18h04.13.718,MST_task,2024.2.2,60.01669664550638,2025-11-08 18h04.20.410595 +0530,
,Objects\018a.jpg,24,0,24,,,,,j,1.8728243999976257,0.13766880000184756,None,,,,,,,24,0,24,0,158.80871670000124,,,,,,,,,,,,,,,,,,,,,,,158.79256850000093,158.80871670000124,159.30876400000125,159.292288800003,,,,,,,,,,,,,,,,,,,,,,159.2979352000002,159.30876400000125,159.30876400000125,159.30876400000125,162.30863150000005,162.30863150000005,162.30863150000005,162.29229410000335,shoe,j,1.8728243999976257,0.13766880000184756,162.2923307000019,162.292340400003,None,,,,,,,,,,,,,,00020,001,2025-11-08_18h04.13.718,MST_task,2024.2.2,60.01669664550638,2025-11-08 18h04.20.410595 +0530,
,Objects\213a.jpg,25,0,25,,,,,f,1.0624805000006745,0.18985369999791146,None,,,,,,,25,0,25,0,162.30863150000005,,,,,,,,,,,,,,,,,,,,,,,162.29242360000353,162.30863150000005,162.82536340000297,162.792250100003,,,,,,,,,,,,,,,,,,,,,,162.81226580000293,162.82536340000297,162.82536340000297,162.82536340000297,,,,165.80865750000157,shoe,f,1.0624805000006745,0.18985369999791146,165.80870690000302,165.80871660000048,None,,,,,,,,,,,,,,00020,001,2025-11-08_18h04.13.718,MST_task,2024.2.2,60.01669664550638,2025-11-08 18h04.20.410595 +0530,
,Objects\125a.jpg,26,0,26,,,,,j,1.000111299999844,0.15238049999970826,None,,,,,,,26,0,26,0,165.8252472000022,,,,,,,,,,,,,,,,,,,,,,,165.80878200000006,165.8252472000022,166.3418993000014,166.30868300000293,,,,,,,,,,,,,,,,,,,,,,166.3234177000013,166.3418993000014,166.3418993000014,166.3418993000014,,,,169.32532530000026,shoe,j,1.000111299999844,0.15238049999970826,169.32536240000263,169.32537560000128,None,,,,,,,,,,,,,,00020,001,2025-11-08_18h04.13.718,MST_task,2024.2.2,60.01669664550638,2025-11-08 18h04.20.410595 +0530,
,Objects\371a.jpg,27,0,27,,,,,j,0.8177785000007134,0.1701601999993727,None,,,,,,,27,0,27,0,169.34188200000062,,,,,,,,,,,,,,,,,,,,,,,169.32547300000078,169.34188200000062,169.84186970000155,169.82542300000205,,,,,,,,,,,,,,,,,,,,,,169.83018360000278,169.84186970000155,169.84186970000155,169.84186970000155,172.84181160000298,172.84181160000298,172.84181160000298,172.82552630000282,shoe,j,0.8177785000007134,0.1701601999993727,172.82556260000274,172.82557220000308,None,,,,,,,,,,,,,,00020,001,2025-11-08_18h04.13.718,MST_task,2024.2.2,60.01669664550638,2025-11-08 18h04.20.410595 +0530,
,Objects\345a.jpg,28,0,28,,,,,f,2.0297890000001644,0.18210000000181026,None,,,,,,,28,0,28,0,172.84181160000298,,,,,,,,,,,,,,,,,,,,,,,172.8256547000019,172.84181160000298,173.34178820000307,173.32523120000042,,,,,,,,,,,,,,,,,,,,,,173.33144340000217,173.34178820000307,173.34178820000307,173.34178820000307,176.34165890000077,176.34165890000077,176.34165890000077,176.325492400003,indoor,f,2.0297890000001644,0.18210000000181026,176.3266661000016,176.32667780000338,None,,,,,,,,,,,,,,00020,001,2025-11-08_18h04.13.718,MST_task,2024.2.2,60.01669664550638,2025-11-08 18h04.20.410595 +0530,
,Objects\282a.jpg,29,0,29,,,,,f,1.2895543000013276,0.19052969999756897,None,,,,,,,29,0,29,0,176.34165890000077,,,,,,,,,,,,,,,,,,,,,,,176.32673090000026,176.34165890000077,176.84171250000145,176.82514510000328,,,,,,,,,,,,,,,,,,,,,,176.82754350000323,176.84171250000145,176.84171250000145,176.84171250000145,179.84158700000262,179.84158700000262,179.84158700000262,179.82517370000278,indoor,f,1.2895543000013276,0.19052969999756897,179.82520880000084,179.82521810000253,None,,,,,,,,,,,,,,00020,001,2025-11-08_18h04.13.718,MST_task,2024.2.2,60.01669664550638,2025-11-08 18h04.20.410595 +0530,
,Objects\292a.jpg,30,0,30,,,,,f,1.6934321000007913,0.14608059999955003,None,,,,,,,30,0,30,0,179.84158700000262,,,,,,,,,,,,,,,,,,,,,,,179.8252749000021,179.84158700000262,180.34167870000238,180.32510390000243,,,,,,,,,,,,,,,,,,,,,,180.32929590000276,180.34167870000238,180.34167870000238,180.34167870000238,183.34150590000354,183.34150590000354,183.34150590000354,183.32513440000184,indoor,f,1.6934321000007913,0.14608059999955003,183.3251717000021,183.3251807000015,None,,,,,,,,,,,,,,00020,001,2025-11-08_18h04.13.718,MST_task,2024.2.2,60.01669664550638,2025-11-08 18h04.20.410595 +0530,
,Objects\006a.jpg,31,0,31,,,,,f,1.941293299998506,0.17843599999832804,None,,,,,,,31,0,31,0,183.34150590000354,,,,,,,,,,,,,,,,,,,,,,,183.32523460000084,183.34150590000354,183.8582355000035,183.82512570000108,,,,,,,,,,,,,,,,,,,,,,183.8441246000002,183.8582355000035,183.8582355000035,183.8582355000035,,,,186.84152470000117,indoor,f,1.941293299998506,0.17843599999832804,186.84156020000228,186.84157010000126,None,,,,,,,,,,,,,,00020,001,2025-11-08_18h04.13.718,MST_task,2024.2.2,60.01669664550638,2025-11-08 18h04.20.410595 +0530,
,Objects\173a.jpg,32,0,32,,,,,f,1.0955658000020776,0.16615409999940312,None,,,,,,,32,0,32,0,186.85810400000264,,,,,,,,,,,,,,,,,,,,,,,186.8416313000016,186.85810400000264,187.35830480000004,187.34155230000033,,,,,,,,,,,,,,,,,,,,,,187.34378570000263,187.35830480000004,187.35830480000004,187.35830480000004,190.35792920000313,190.35792920000313,190.35792920000313,190.34162500000093,indoor,f,1.0955658000020776,0.16615409999940312,190.34165870000288,190.34166780000305,None,,,,,,,,,,,,,,00020,001,2025-11-08_18h04.13.718,MST_task,2024.2.2,60.01669664550638,2025-11-08 18h04.20.410595 +0530,
,Objects\218a.jpg,33,0,33,,,,,j,0.8672384999990754,0.15710179999950924,None,,,,,,,33,0,33,0,190.35792920000313,,,,,,,,,,,,,,,,,,,,,,,190.34172220000255,190.35792920000313,190.87462830000004,190.8414408000026,,,,,,,,,,,,,,,,,,,,,,190.86094180000146,190.87462830000004,190.87462830000004,190.87462830000004,,,,193.85791580000296,indoor,j,0.8672384999990754,0.15710179999950924,193.85795170000347,193.85796160000245,None,,,,,,,,,,,,,,00020,001,2025-11-08_18h04.13.718,MST_task,2024.2.2,60.01669664550638,2025-11-08 18h04.20.410595 +0530,
,Objects\366a.jpg,34,0,34,,,,,j,2.1177859000017634,0.1500432999964687,None,,,,,,,34,0,34,0,193.8745590000035,,,,,,,,,,,,,,,,,,,,,,,193.85801680000077,193.8745590000035,194.39118080000117,194.3579995,,,,,,,,,,,,,,,,,,,,,,194.374839600001,194.39118080000117,194.39118080000117,194.39118080000117,,,,197.37449330000163,indoor,j,2.1177859000017634,0.1500432999964687,197.37453110000206,197.37454090000028,None,,,,,,,,,,,,,,00020,001,2025-11-08_18h04.13.718,MST_task,2024.2.2,60.01669664550638,2025-11-08 18h04.20.410595 +0530,
,Objects\257a.jpg,35,0,35,,,,,f,1.4474392000010994,0.1347012000005634,None,,,,,,,35,0,35,0,197.39114980000159,,,,,,,,,,,,,,,,,,,,,,,197.37459910000325,197.39114980000159,197.89113530000031,197.87462030000097,,,,,,,,,,,,,,,,,,,,,,197.88067920000321,197.89113530000031,197.89113530000031,197.89113530000031,200.89106900000115,200.89106900000115,200.89106900000115,200.87463760000173,shoe,f,1.4474392000010994,0.1347012000005634,200.87640300000203,200.87641940000321,None,,,,,,,,,,,,,,00020,001,2025-11-08_18h04.13.718,MST_task,2024.2.2,60.01669664550638,2025-11-08 18h04.20.410595 +0530,
,Objects\064a.jpg,36,0,36,,,,,f,1.1843322999993688,0.1575377999979537,None,,,,,,,36,0,36,0,200.89106900000115,,,,,,,,,,,,,,,,,,,,,,,200.87647320000178,200.89106900000115,201.39105990000098,201.3745041000002,,,,,,,,,,,,,,,,,,,,,,201.3797357000003,201.39105990000098,201.39105990000098,201.39105990000098,204.39098580000064,204.39098580000064,204.39098580000064,204.37457630000063,shoe,f,1.1843322999993688,0.1575377999979537,204.37461150000308,204.3746213000013,None,,,,,,,,,,,,,,00020,001,2025-11-08_18h04.13.718,MST_task,2024.2.2,60.01669664550638,2025-11-08 18h04.20.410595 +0530,
,Objects\256a.jpg,37,0,37,,,,,j,1.7221501999993052,0.12832239999988815,None,,,,,,,37,0,37,0,204.39098580000064,,,,,,,,,,,,,,,,,,,,,,,204.3747003000026,204.39098580000064,204.89101720000326,204.87444550000146,,,,,,,,,,,,,,,,,,,,,,204.87969220000014,204.89101720000326,204.89101720000326,204.89101720000326,207.89094040000055,207.89094040000055,207.89094040000055,207.87451220000003,shoe,j,1.7221501999993052,0.12832239999988815,207.87454960000105,207.87455850000333,None,,,,,,,,,,,,,,00020,001,2025-11-08_18h04.13.718,MST_task,2024.2.2,60.01669664550638,2025-11-08 18h04.20.410595 +0530,
,Objects\219a.jpg,38,0,38,,,,,f,1.4708804000001692,0.15323590000116383,None,,,,,,,38,0,38,0,207.89094040000055,,,,,,,,,,,,,,,,,,,,,,,207.87461180000173,207.89094040000055,208.39090080000096,208.37438180000026,,,,,,,,,,,,,,,,,,,,,,208.38008860000264,208.39090080000096,208.39090080000096,208.39090080000096,211.39080470000044,211.39080470000044,211.39080470000044,211.37443560000247,shoe,f,1.4708804000001692,0.15323590000116383,211.37447330000214,211.37448290000248,None,,,,,,,,,,,,,,00020,001,2025-11-08_18h04.13.718,MST_task,2024.2.2,60.01669664550638,2025-11-08 18h04.20.410595 +0530,
,Objects\255a.jpg,39,0,39,,,,,f,0.9866595999992569,0.19409960000120918,None,,,,,,,39,0,39,0,211.39080470000044,,,,,,,,,,,,,,,,,,,,,,,211.3745353000013,211.39080470000044,211.8908130000018,211.8743091000033,,,,,,,,,,,,,,,,,,,,,,211.8792788000028,211.8908130000018,211.8908130000018,211.8908130000018,214.8907238000029,214.8907238000029,214.8907238000029,214.87446400000044,shoe,f,0.9866595999992569,0.19409960000120918,214.87450380000155,214.8745127000002,None,,,,,,,,,,,,,,00020,001,2025-11-08_18h04.13.718,MST_task,2024.2.2,60.01669664550638,2025-11-08 18h04.20.410595 +0530,
,Objects\340a.jpg,40,0,40,,,,,f,1.0947219000008772,0.1479001999978209,None,,,,,,,40,0,40,0,214.8907238000029,,,,,,,,,,,,,,,,,,,,,,,214.8745693000019,214.8907238000029,215.39074390000314,215.37423540000236,,,,,,,,,,,,,,,,,,,,,,215.37888620000012,215.39074390000314,215.39074390000314,215.39074390000314,218.39065010000195,218.39065010000195,218.39065010000195,218.37438340000153,shoe,f,1.0947219000008772,0.1479001999978209,218.37441810000018,218.3744269000017,None,,,,,,,,,,,,,,00020,001,2025-11-08_18h04.13.718,MST_task,2024.2.2,60.01669664550638,2025-11-08 18h04.20.410595 +0530,
,Objects\068a.jpg,41,0,41,,,,,j,1.1531633000013244,0.14966479999930016,None,,,,,,,41,0,41,0,218.39065010000195,,,,,,,,,,,,,,,,,,,,,,,218.37447930000053,218.39065010000195,218.89065390000178,218.87445090000256,,,,,,,,,,,,,,,,,,,,,,218.87959400000182,218.89065390000178,218.89065390000178,218.89065390000178,221.89060200000313,221.89060200000313,221.89060200000313,221.87428850000288,shoe,j,1.1531633000013244,0.14966479999930016,221.87432590000026,221.87433520000195,None,,,,,,,,,,,,,,00020,001,2025-11-08_18h04.13.718,MST_task,2024.2.2,60.01669664550638,2025-11-08 18h04.20.410595 +0530,
,Objects\120a.jpg,42,0,42,,,,,f,1.6507951000021421,0.17602160000024014,None,,,,,,,42,0,42,0,221.89060200000313,,,,,,,,,,,,,,,,,,,,,,,221.87438850000035,221.89060200000313,222.39056130000245,222.3740764000031,,,,,,,,,,,,,,,,,,,,,,222.3771181000011,222.39056130000245,222.39056130000245,222.39056130000245,225.3905498000022,225.3905498000022,225.3905498000022,225.37410170000294,indoor,f,1.6507951000021421,0.17602160000024014,225.37528840000232,225.37530080000215,None,,,,,,,,,,,,,,00020,001,2025-11-08_18h04.13.718,MST_task,2024.2.2,60.01669664550638,2025-11-08 18h04.20.410595 +0530,
,Objects\384a.jpg,43,0,43,,,,,f,2.4227588000030664,0.18572179999682703,None,,,,,,,43,0,43,0,225.3905498000022,,,,,,,,,,,,,,,,,,,,,,,225.37535500000013,225.3905498000022,225.90715100000307,225.87400850000267,,,,,,,,,,,,,,,,,,,,,,225.89555030000338,225.90715100000307,225.90715100000307,225.90715100000307,,,,228.89050020000286,indoor,f,2.4227588000030664,0.18572179999682703,228.89053750000312,228.8905530000011,None,,,,,,,,,,,,,,00020,001,2025-11-08_18h04.13.718,MST_task,2024.2.2,60.01669664550638,2025-11-08 18h04.20.410595 +0530,
,Objects\290a.jpg,44,0,44,,,,,j,0.8085534999991069,0.1859256000025198,None,,,,,,,44,0,44,0,228.90707290000137,,,,,,,,,,,,,,,,,,,,,,,228.8906085000017,228.90707290000137,229.40707270000348,229.39066280000043,,,,,,,,,,,,,,,,,,,,,,229.39573140000357,229.40707270000348,229.40707270000348,229.40707270000348,232.40704090000145,232.40704090000145,232.40704090000145,232.39065480000136,indoor,j,0.8085534999991069,0.1859256000025198,232.39068940000288,232.39069870000094,None,,,,,,,,,,,,,,00020,001,2025-11-08_18h04.13.718,MST_task,2024.2.2,60.01669664550638,2025-11-08 18h04.20.410595 +0530,
,Objects\336a.jpg,45,0,45,,,,,None,,,j,2.4022107000018877,None,,,,,45,0,45,0,232.40704090000145,,,,,,,,,,,,,,,,,,,,,,,232.3907571000018,232.40704090000145,232.9069954000006,232.8905209000004,,,,,,,,,,,,,,,,,,,,,,232.89607720000276,232.9069954000006,232.9069954000006,232.9069954000006,235.90698670000347,235.90698670000347,235.90698670000347,235.89052710000033,indoor,None,,,235.89055510000253,238.3239035000006,j,235.90698670000347,235.90698670000347,2.4022107000018877,None,,,,,,,,,,00020,001,2025-11-08_18h04.13.718,MST_task,2024.2.2,60.01669664550638,2025-11-08 18h04.20.410595 +0530,
,Objects\015a.jpg,46,0,46,,,,,f,2.570791999998619,0.19484119999833638,None,,,,,,,46,0,46,0,238.3402406000023,,,,,,,,,,,,,,,,,,,,,,,238.32398530000137,238.3402406000023,238.8402460000034,238.82367800000065,,,,,,,,,,,,,,,,,,,,,,238.82915030000004,238.8402460000034,238.8402460000034,238.8402460000034,241.8401354000016,241.8401354000016,241.8401354000016,241.8237513000022,indoor,f,2.570791999998619,0.19484119999833638,241.82378980000067,241.82379910000236,None,,,,,,,,,,,,,,00020,001,2025-11-08_18h04.13.718,MST_task,2024.2.2,60.01669664550638,2025-11-08 18h04.20.410595 +0530,
,Objects\026a.jpg,47,0,47,,,,,j,2.8717326000005414,None,None,,,,,,,47,0,47,0,241.8401354000016,,,,,,,,,,,,,,,,,,,,,,,241.82385180000347,241.8401354000016,242.34015250000084,242.32366540000294,,,,,,,,,,,,,,,,,,,,,,242.3258300000016,242.34015250000084,242.34015250000084,242.34015250000084,245.34005160000015,245.34005160000015,245.34005160000015,245.32374670000354,indoor,j,2.8717326000005414,None,245.3237893000005,245.323799400001,None,,,,,,,,,,,,,,00020,001,2025-11-08_18h04.13.718,MST_task,2024.2.2,60.01669664550638,2025-11-08 18h04.20.410595 +0530,
,Objects\200a.jpg,48,0,48,,,,,f,1.5112165999998979,0.1665197000002081,None,,,,,,,48,0,48,0,245.34005160000015,,,,,,,,,,,,,,,,,,,,,,,245.32385690000228,245.34005160000015,245.84007550000024,245.82359160000124,,,,,,,,,,,,,,,,,,,,,,245.82756270000027,245.84007550000024,245.84007550000024,245.84007550000024,248.8399790000003,248.8399790000003,248.8399790000003,248.82358900000327,indoor,f,1.5112165999998979,0.1665197000002081,248.82362270000158,248.8236315000031,None,,,,,,,,,,,,,,00020,001,2025-11-08_18h04.13.718,MST_task,2024.2.2,60.01669664550638,2025-11-08 18h04.20.410595 +0530,
,Objects\140a.jpg,49,0,49,,,,,j,2.621709600000031,0.17841309999857913,None,,,,,,,49,0,49,0,248.8399790000003,,,,,,,,,,,,,,,,,,,,,,,248.82368390000192,248.8399790000003,249.33996410000327,249.32356000000073,,,,,,,,,,,,,,,,,,,,,,249.33033720000094,249.33996410000327,249.33996410000327,249.33996410000327,252.3399339000025,252.3399339000025,252.3399339000025,252.32365370000116,shoe,j,2.621709600000031,0.17841309999857913,252.32537670000238,252.32538920000297,None,,,,,,,,,,,,,,00020,001,2025-11-08_18h04.13.718,MST_task,2024.2.2,60.01669664550638,2025-11-08 18h04.20.410595 +0530,
,Objects\166a.jpg,50,0,50,,,,,f,1.9241425000000163,0.18131720000019413,None,,,,,,,50,0,50,0,252.3399339000025,,,,,,,,,,,,,,,,,,,,,,,252.32544410000264,252.3399339000025,252.839998200001,252.8234706000003,,,,,,,,,,,,,,,,,,,,,,252.8257149000019,252.839998200001,252.839998200001,252.839998200001,255.8398561000031,255.8398561000031,255.8398561000031,255.823414100003,shoe,f,1.9241425000000163,0.18131720000019413,255.8234524000036,255.82346130000224,None,,,,,,,,,,,,,,00020,001,2025-11-08_18h04.13.718,MST_task,2024.2.2,60.01669664550638,2025-11-08 18h04.20.410595 +0530,
,Objects\338a.jpg,51,0,51,,,,,j,1.8952482999993663,0.15741010000056121,None,,,,,,,51,0,51,0,255.8398561000031,,,,,,,,,,,,,,,,,,,,,,,255.82354880000275,255.8398561000031,256.35647540000355,256.32351070000004,,,,,,,,,,,,,,,,,,,,,,256.3504130000001,256.35647540000355,256.35647540000355,256.35647540000355,,,,259.33982990000004,shoe,j,1.8952482999993663,0.15741010000056121,259.33987960000013,259.3398889000018,None,,,,,,,,,,,,,,00020,001,2025-11-08_18h04.13.718,MST_task,2024.2.2,60.01669664550638,2025-11-08 18h04.20.410595 +0530,
,Objects\143a.jpg,52,0,52,,,,,j,2.729210999998031,0.1738495999998122,None,,,,,,,52,0,52,0,259.35640610000337,,,,,,,,,,,,,,,,,,,,,,,259.339946600001,259.35640610000337,259.8564124000004,259.8399344000027,,,,,,,,,,,,,,,,,,,,,,259.8455402000036,259.8564124000004,259.8564124000004,259.8564124000004,262.8563643000016,262.8563643000016,262.8563643000016,262.8399250000002,shoe,j,2.729210999998031,0.1738495999998122,262.8399610000015,262.8399705000011,None,,,,,,,,,,,,,,00020,001,2025-11-08_18h04.13.718,MST_task,2024.2.2,60.01669664550638,2025-11-08 18h04.20.410595 +0530,
,Objects\057a.jpg,53,0,53,,,,,f,1.3886615000010352,0.1704487999995763,None,,,,,,,53,0,53,0,262.8563643000016,,,,,,,,,,,,,,,,,,,,,,,262.84002410000176,262.8563643000016,263.3563564000033,263.3398309000004,,,,,,,,,,,,,,,,,,,,,,263.3419309000019,263.3563564000033,263.3563564000033,263.3563564000033,266.3562929000036,266.3562929000036,266.3562929000036,266.33992870000293,shoe,f,1.3886615000010352,0.1704487999995763,266.33996460000344,266.3399746000032,None,,,,,,,,,,,,,,00020,001,2025-11-08_18h04.13.718,MST_task,2024.2.2,60.01669664550638,2025-11-08 18h04.20.410595 +0530,
,Objects\096a.jpg,54,0,54,,,,,j,1.2702009999993606,0.2167730000001029,None,,,,,,,54,0,54,0,266.3562929000036,,,,,,,,,,,,,,,,,,,,,,,266.34003040000243,266.3562929000036,266.8562464000024,266.83988760000284,,,,,,,,,,,,,,,,,,,,,,266.8422036000011,266.8562464000024,266.8562464000024,266.8562464000024,269.85621280000123,269.85621280000123,269.85621280000123,269.83978840000054,shoe,j,1.2702009999993606,0.2167730000001029,269.8398232000036,269.8398320000015,None,,,,,,,,,,,,,,00020,001,2025-11-08_18h04.13.718,MST_task,2024.2.2,60.01669664550638,2025-11-08 18h04.20.410595 +0530,
,Objects\063a.jpg,55,0,55,,,,,f,0.8856119999982184,0.13219840000238037,None,,,,,,,55,0,55,0,269.85621280000123,,,,,,,,,,,,,,,,,,,,,,,269.8398878000007,269.85621280000123,270.35617510000156,270.3396837,,,,,,,,,,,,,,,,,,,,,,270.34171400000196,270.35617510000156,270.35617510000156,270.35617510000156,273.3561381000036,273.3561381000036,273.3561381000036,273.3397612000008,shoe,f,0.8856119999982184,0.13219840000238037,273.3397952000014,273.3398044000023,None,,,,,,,,,,,,,,00020,001,2025-11-08_18h04.13.718,MST_task,2024.2.2,60.01669664550638,2025-11-08 18h04.20.410595 +0530,
,Objects\263a.jpg,56,0,56,,,,,j,1.1771355000018957,0.1977638999996998,None,,,,,,,56,0,56,0,273.3561381000036,,,,,,,,,,,,,,,,,,,,,,,273.33988280000267,273.3561381000036,273.8560957000009,273.83967920000214,,,,,,,,,,,,,,,,,,,,,,273.8461098000007,273.8560957000009,273.8560957000009,273.8560957000009,276.8560346000013,276.8560346000013,276.8560346000013,276.8396662000014,indoor,j,1.1771355000018957,0.1977638999996998,276.8408468000016,276.840858800002,None,,,,,,,,,,,,,,00020,001,2025-11-08_18h04.13.718,MST_task,2024.2.2,60.01669664550638,2025-11-08 18h04.20.410595 +0530,
,Objects\065a.jpg,57,0,57,,,,,f,1.303113599999051,0.21815440000136732,None,,,,,,,57,0,57,0,276.8560346000013,,,,,,,,,,,,,,,,,,,,,,,276.84091230000195,276.8560346000013,277.35600570000315,277.3395257000011,,,,,,,,,,,,,,,,,,,,,,277.34466990000146,277.35600570000315,277.35600570000315,277.35600570000315,280.3559841000024,280.3559841000024,280.3559841000024,280.3396993000024,indoor,f,1.303113599999051,0.21815440000136732,280.33973750000223,280.3397470000018,None,,,,,,,,,,,,,,00020,001,2025-11-08_18h04.13.718,MST_task,2024.2.2,60.01669664550638,2025-11-08 18h04.20.410595 +0530,
,Objects\203a.jpg,58,0,58,,,,,f,1.178053000003274,0.165545399999246,None,,,,,,,58,0,58,0,280.3559841000024,,,,,,,,,,,,,,,,,,,,,,,280.33980740000334,280.3559841000024,280.85593080000035,280.8394979000004,,,,,,,,,,,,,,,,,,,,,,280.846386600002,280.85593080000035,280.85593080000035,280.85593080000035,283.8559078000035,283.8559078000035,283.8559078000035,283.839476000001,indoor,f,1.178053000003274,0.165545399999246,283.83951270000034,283.8395218000005,None,,,,,,,,,,,,,,00020,001,2025-11-08_18h04.13.718,MST_task,2024.2.2,60.01669664550638,2025-11-08 18h04.20.410595 +0530,
,Objects\325a.jpg,59,0,59,,,,,f,1.2993922000023304,0.1901698999972723,None,,,,,,,59,0,59,0,283.8559078000035,,,,,,,,,,,,,,,,,,,,,,,283.83957910000026,283.8559078000035,284.3558766000024,284.33938890000354,,,,,,,,,,,,,,,,,,,,,,284.3440268000013,284.3558766000024,284.3558766000024,284.3558766000024,287.3558309,287.3558309,287.3558309,287.33942180000304,indoor,f,1.2993922000023304,0.1901698999972723,287.3394564000009,287.3394653000032,None,,,,,,,,,,,,,,00020,001,2025-11-08_18h04.13.718,MST_task,2024.2.2,60.01669664550638,2025-11-08 18h04.20.410595 +0530,
,Objects\327a.jpg,60,0,60,,,,,f,1.0112311000011687,0.19390349999957834,None,,,,,,,60,0,60,0,287.3558309,,,,,,,,,,,,,,,,,,,,,,,287.3395163000023,287.3558309,287.87245050000274,287.8393214000025,,,,,,,,,,,,,,,,,,,,,,287.8590927000005,287.87245050000274,287.87245050000274,287.87245050000274,,,,290.85583130000305,indoor,f,1.0112311000011687,0.19390349999957834,290.8558662000032,290.8558765000016,None,,,,,,,,,,,,,,00020,001,2025-11-08_18h04.13.718,MST_task,2024.2.2,60.01669664550638,2025-11-08 18h04.20.410595 +0530,
,Objects\007a.jpg,61,0,61,,,,,f,1.1068937000018195,0.12187169999742764,None,,,,,,,61,0,61,0,290.8724128000031,,,,,,,,,,,,,,,,,,,,,,,290.8559331000033,290.8724128000031,291.372388900003,291.3558894000016,,,,,,,,,,,,,,,,,,,,,,291.36104460000206,291.372388900003,291.372388900003,291.372388900003,294.37233990000095,294.37233990000095,294.37233990000095,294.35591390000263,indoor,f,1.1068937000018195,0.12187169999742764,294.3559484000034,294.3559621000022,None,,,,,,,,,,,,,,00020,001,2025-11-08_18h04.13.718,MST_task,2024.2.2,60.01669664550638,2025-11-08 18h04.20.410595 +0530,
,Objects\054a.jpg,62,0,62,,,,,f,2.245317500000965,0.1416927999998734,None,,,,,,,62,0,62,0,294.37233990000095,,,,,,,,,,,,,,,,,,,,,,,294.3560155000014,294.37233990000095,294.8723460000001,294.85582670000076,,,,,,,,,,,,,,,,,,,,,,294.8580677000027,294.8723460000001,294.8723460000001,294.8723460000001,297.8722590000034,297.8722590000034,297.8722590000034,297.855821000001,indoor,f,2.245317500000965,0.1416927999998734,297.8558538000034,297.8558626000013,None,,,,,,,,,,,,,,00020,001,2025-11-08_18h04.13.718,MST_task,2024.2.2,60.01669664550638,2025-11-08 18h04.20.410595 +0530,
,Objects\297a.jpg,63,0,63,,,,,f,2.489442499998404,0.21506430000226828,None,,,,,,,63,0,63,0,297.8722590000034,,,,,,,,,,,,,,,,,,,,,,,297.8559142000013,297.8722590000034,298.3722325000017,298.35577820000253,,,,,,,,,,,,,,,,,,,,,,298.3642436000009,298.3722325000017,298.3722325000017,298.3722325000017,301.3721847000015,301.3721847000015,301.3721847000015,301.3557518000016,shoe,f,2.489442499998404,0.21506430000226828,301.3573649000027,301.3573765000001,None,,,,,,,,,,,,,,00020,001,2025-11-08_18h04.13.718,MST_task,2024.2.2,60.01669664550638,2025-11-08 18h04.20.410595 +0530,
,Objects\334a.jpg,64,0,64,,,,,None,,,j,0.6697187999998278,None,,,,,64,0,64,0,301.3721847000015,,,,,,,,,,,,,,,,,,,,,,,301.3574331000018,301.3721847000015,301.8721551000017,301.8556497000027,,,,,,,,,,,,,,,,,,,,,,301.8607118000036,301.8721551000017,301.8721551000017,301.8721551000017,304.8721097000016,304.8721097000016,304.8721097000016,304.85571710000295,shoe,None,,,304.8557483000004,305.55569150000156,j,304.8721097000016,304.8721097000016,0.6697187999998278,None,,,,,,,,,,00020,001,2025-11-08_18h04.13.718,MST_task,2024.2.2,60.01669664550638,2025-11-08 18h04.20.410595 +0530,
,Objects\115a.jpg,65,0,65,,,,,f,2.6211975000005623,0.0654590999984066,None,,,,,,,65,0,65,0,305.57209050000165,,,,,,,,,,,,,,,,,,,,,,,305.5557605000031,305.57209050000165,306.07204490000004,306.05557730000146,,,,,,,,,,,,,,,,,,,,,,306.0576467000028,306.07204490000004,306.07204490000004,306.07204490000004,309.0720158000004,309.0720158000004,309.0720158000004,309.0555920000006,shoe,f,2.6211975000005623,0.0654590999984066,309.0556260000012,309.0556353000029,None,,,,,,,,,,,,,,00020,001,2025-11-08_18h04.13.718,MST_task,2024.2.2,60.01669664550638,2025-11-08 18h04.20.410595 +0530,
,Objects\154a.jpg,66,0,66,,,,,j,1.2579265000022133,0.11623959999997169,None,,,,,,,66,0,66,0,309.0720158000004,,,,,,,,,,,,,,,,,,,,,,,309.055712100002,309.0720158000004,309.5719995000036,309.55562310000096,,,,,,,,,,,,,,,,,,,,,,309.55771670000104,309.5719995000036,309.5719995000036,309.5719995000036,312.5719437000007,312.5719437000007,312.5719437000007,312.5554684000017,shoe,j,1.2579265000022133,0.11623959999997169,312.5555054000033,312.55551540000306,None,,,,,,,,,,,,,,00020,001,2025-11-08_18h04.13.718,MST_task,2024.2.2,60.01669664550638,2025-11-08 18h04.20.410595 +0530,
,Objects\277a.jpg,67,0,67,,,,,f,2.933054400000401,None,None,,,,,,,67,0,67,0,312.5719437000007,,,,,,,,,,,,,,,,,,,,,,,312.5556077000001,312.5719437000007,313.08856880000167,313.0554288000021,,,,,,,,,,,,,,,,,,,,,,313.07402730000103,313.08856880000167,313.08856880000167,313.08856880000167,,,,316.0719213000011,shoe,f,2.933054400000401,None,316.0719842000035,316.07199420000325,None,,,,,,,,,,,,,,00020,001,2025-11-08_18h04.13.718,MST_task,2024.2.2,60.01669664550638,2025-11-08 18h04.20.410595 +0530,
,Objects\358a.jpg,68,0,68,,,,,j,1.1270575000016834,0.15102309999929275,None,,,,,,,68,0,68,0,316.088532400001,,,,,,,,,,,,,,,,,,,,,,,316.0720473000001,316.088532400001,316.5884862000021,316.5720102000014,,,,,,,,,,,,,,,,,,,,,,316.5773119000005,316.5884862000021,316.5884862000021,316.5884862000021,319.58845460000157,319.58845460000157,319.58845460000157,319.5720130000009,shoe,j,1.1270575000016834,0.15102309999929275,319.5720465000013,319.5720554000036,None,,,,,,,,,,,,,,00020,001,2025-11-08_18h04.13.718,MST_task,2024.2.2,60.01669664550638,2025-11-08 18h04.20.410595 +0530,
,Objects\365a.jpg,69,0,69,,,,,f,1.2697173000015027,0.15841189999991911,None,,,,,,,69,0,69,0,319.58845460000157,,,,,,,,,,,,,,,,,,,,,,,319.5721076000009,319.58845460000157,320.10507690000304,320.07204660000207,,,,,,,,,,,,,,,,,,,,,,320.0908380000001,320.10507690000304,320.10507690000304,320.10507690000304,,,,323.08844170000157,shoe,f,1.2697173000015027,0.15841189999991911,323.0884804000016,323.0884928000014,None,,,,,,,,,,,,,,00020,001,2025-11-08_18h04.13.718,MST_task,2024.2.2,60.01669664550638,2025-11-08 18h04.20.410595 +0530,
,Objects\020a.jpg,70,0,70,,,,,f,2.239478200001031,0.13021200000002864,None,,,,,,,70,0,70,0,323.1050886000012,,,,,,,,,,,,,,,,,,,,,,,323.0885718000027,323.1050886000012,323.6216634000011,323.58849450000343,,,,,,,,,,,,,,,,,,,,,,323.61181970000325,323.6216634000011,323.6216634000011,323.6216634000011,,,,326.60506760000135,indoor,f,2.239478200001031,0.13021200000002864,326.6062457000007,326.60625900000014,None,,,,,,,,,,,,,,00020,001,2025-11-08_18h04.13.718,MST_task,2024.2.2,60.01669664550638,2025-11-08 18h04.20.410595 +0530,
,Objects\212a.jpg,71,0,71,,,,,j,1.53947110000081,0.1364291999998386,None,,,,,,,71,0,71,0,326.6216267000018,,,,,,,,,,,,,,,,,,,,,,,326.6063153000032,326.6216267000018,327.12158940000154,327.10512980000203,,,,,,,,,,,,,,,,,,,,,,327.11097970000264,327.12158940000154,327.12158940000154,327.12158940000154,330.1215495000033,330.1215495000033,330.1215495000033,330.1051901000028,indoor,j,1.53947110000081,0.1364291999998386,330.1052254000024,330.10523450000255,None,,,,,,,,,,,,,,00020,001,2025-11-08_18h04.13.718,MST_task,2024.2.2,60.01669664550638,2025-11-08 18h04.20.410595 +0530,
,Objects\377a.jpg,72,0,72,,,,,j,1.8080001000016637,0.14540889999989304,None,,,,,,,72,0,72,0,330.1215495000033,,,,,,,,,,,,,,,,,,,,,,,330.10529020000104,330.1215495000033,330.62158230000205,330.6052628000034,,,,,,,,,,,,,,,,,,,,,,330.60930670000016,330.62158230000205,330.62158230000205,330.62158230000205,333.62147860000186,333.62147860000186,333.62147860000186,333.6050753000018,indoor,j,1.8080001000016637,0.14540889999989304,333.60511530000076,333.6051245000017,None,,,,,,,,,,,,,,00020,001,2025-11-08_18h04.13.718,MST_task,2024.2.2,60.01669664550638,2025-11-08 18h04.20.410595 +0530,
,Objects\274a.jpg,73,0,73,,,,,j,1.528565399999934,0.17380560000310652,None,,,,,,,73,0,73,0,333.62147860000186,,,,,,,,,,,,,,,,,,,,,,,333.6051787000033,333.62147860000186,334.12107690000266,334.1049550000025,,,,,,,,,,,,,,,,,,,,,,334.11621130000276,334.12107690000266,334.12107690000266,334.12107690000266,337.12140080000245,337.12140080000245,337.12140080000245,337.10499560000244,indoor,j,1.528565399999934,0.17380560000310652,337.10502910000287,337.1050378,None,,,,,,,,,,,,,,00020,001,2025-11-08_18h04.13.718,MST_task,2024.2.2,60.01669664550638,2025-11-08 18h04.20.410595 +0530,
,Objects\348a.jpg,74,0,74,,,,,j,1.3163782999981777,0.17392649999965215,None,,,,,,,74,0,74,0,337.12140080000245,,,,,,,,,,,,,,,,,,,,,,,337.1050879000031,337.12140080000245,337.62135750000016,337.6048785000021,,,,,,,,,,,,,,,,,,,,,,337.60945560000255,337.62135750000016,337.62135750000016,337.62135750000016,340.62133170000016,340.62133170000016,340.62133170000016,340.6049329000016,indoor,j,1.3163782999981777,0.17392649999965215,340.6049665000028,340.6049754000014,None,,,,,,,,,,,,,,00020,001,2025-11-08_18h04.13.718,MST_task,2024.2.2,60.01669664550638,2025-11-08 18h04.20.410595 +0530,
,Objects\029a.jpg,75,0,75,,,,,f,1.011248599999817,0.13866679999773623,None,,,,,,,75,0,75,0,340.62133170000016,,,,,,,,,,,,,,,,,,,,,,,340.6050282000033,340.62133170000016,341.1380678000023,341.1049598000027,,,,,,,,,,,,,,,,,,,,,,341.12699280000015,341.1380678000023,341.1380678000023,341.1380678000023,,,,344.1212947000022,indoor,f,1.011248599999817,0.13866679999773623,344.12133070000345,344.1213409000011,None,,,,,,,,,,,,,,00020,001,2025-11-08_18h04.13.718,MST_task,2024.2.2,60.01669664550638,2025-11-08 18h04.20.410595 +0530,
,Objects\079a.jpg,76,0,76,,,,,f,1.1288351000002876,0.1702354999979434,None,,,,,,,76,0,76,0,344.1379141000034,,,,,,,,,,,,,,,,,,,,,,,344.1213983000016,344.1379141000034,344.65457900000183,344.6214669000001,,,,,,,,,,,,,,,,,,,,,,344.64411440000185,344.65457900000183,344.65457900000183,344.65457900000183,,,,347.63790340000196,indoor,f,1.1288351000002876,0.1702354999979434,347.6379393000025,347.6379495000001,None,,,,,,,,,,,,,,00020,001,2025-11-08_18h04.13.718,MST_task,2024.2.2,60.01669664550638,2025-11-08 18h04.20.410595 +0530,
,Objects\178a.jpg,77,0,77,,,,,f,1.5769923000007111,0.13524279999910505,None,,,,,,,77,0,77,0,347.6545260000021,,,,,,,,,,,,,,,,,,,,,,,347.6380065000012,347.6545260000021,348.1711875000001,348.13806880000266,,,,,,,,,,,,,,,,,,,,,,348.15531770000234,348.1711875000001,348.1711875000001,348.1711875000001,,,,351.15449120000267,shoe,f,1.5769923000007111,0.13524279999910505,351.1561943000015,351.15620630000194,None,,,,,,,,,,,,,,00020,001,2025-11-08_18h04.13.718,MST_task,2024.2.2,60.01669664550638,2025-11-08 18h04.20.410595 +0530,
,Objects\291a.jpg,78,0,78,,,,,None,,,j,0.22989109999980428,None,,,,,78,0,78,0,351.1710567000009,,,,,,,,,,,,,,,,,,,,,,,351.1562606000007,351.1710567000009,351.68781300000046,351.65458430000217,,,,,,,,,,,,,,,,,,,,,,351.6801148000013,351.68781300000046,351.68781300000046,351.68781300000046,,,,354.6711002000011,shoe,None,,,354.671139500002,354.9214118000018,j,354.6878035000009,354.6878035000009,0.22989109999980428,None,,,,,,,,,,00020,001,2025-11-08_18h04.13.718,MST_task,2024.2.2,60.01669664550638,2025-11-08 18h04.20.410595 +0530,
,Objects\149a.jpg,79,0,79,,,,,j,1.6800502000005508,0.1533421999993152,None,,,,,,,79,0,79,0,354.93773320000037,,,,,,,,,,,,,,,,,,,,,,,354.92147650000334,354.93773320000037,355.4377837000029,355.42128330000196,,,,,,,,,,,,,,,,,,,,,,355.42673600000126,355.4377837000029,355.4377837000029,355.4377837000029,358.43773130000045,358.43773130000045,358.43773130000045,358.4212597000005,shoe,j,1.6800502000005508,0.1533421999993152,358.4212976000017,358.42130680000264,None,,,,,,,,,,,,,,00020,001,2025-11-08_18h04.13.718,MST_task,2024.2.2,60.01669664550638,2025-11-08 18h04.20.410595 +0530,
,Objects\364a.jpg,80,0,80,,,,,f,1.3197149999978137,0.1838768000015989,None,,,,,,,80,0,80,0,358.43773130000045,,,,,,,,,,,,,,,,,,,,,,,358.42139490000045,358.43773130000045,358.9376968000033,358.92112140000245,,,,,,,,,,,,,,,,,,,,,,358.92538680000143,358.9376968000033,358.9376968000033,358.9376968000033,361.9376419,361.9376419,361.9376419,361.9211464,shoe,f,1.3197149999978137,0.1838768000015989,361.9211832000001,361.92119300000195,None,,,,,,,,,,,,,,00020,001,2025-11-08_18h04.13.718,MST_task,2024.2.2,60.01669664550638,2025-11-08 18h04.20.410595 +0530,
,Objects\281a.jpg,81,0,81,,,,,f,1.0544697999976052,0.18673560000024736,None,,,,,,,81,0,81,0,361.9376419,,,,,,,,,,,,,,,,,,,,,,,361.92127360000086,361.9376419,362.4376305000005,362.42103730000235,,,,,,,,,,,,,,,,,,,,,,362.4260968000017,362.4376305000005,362.4376305000005,362.4376305000005,365.43750040000305,365.43750040000305,365.43750040000305,365.4210983000012,shoe,f,1.0544697999976052,0.18673560000024736,365.42113190000237,365.4211411000033,None,,,,,,,,,,,,,,00020,001,2025-11-08_18h04.13.718,MST_task,2024.2.2,60.01669664550638,2025-11-08 18h04.20.410595 +0530,
,Objects\110a.jpg,82,0,82,,,,,j,2.7979421999989427,0.12855750000016997,None,,,,,,,82,0,82,0,365.43750040000305,,,,,,,,,,,,,,,,,,,,,,,365.4211978000021,365.43750040000305,365.93749180000304,365.9210348000015,,,,,,,,,,,,,,,,,,,,,,365.92609020000236,365.93749180000304,365.93749180000304,365.93749180000304,368.93742340000244,368.93742340000244,368.93742340000244,368.92111320000186,shoe,j,2.7979421999989427,0.12855750000016997,368.9211454000033,368.92115980000017,None,,,,,,,,,,,,,,00020,001,2025-11-08_18h04.13.718,MST_task,2024.2.2,60.01669664550638,2025-11-08 18h04.20.410595 +0530,
,Objects\150a.jpg,83,0,83,,,,,j,1.5570470999991812,0.20206620000317344,None,,,,,,,83,0,83,0,368.93742340000244,,,,,,,,,,,,,,,,,,,,,,,368.9212103000027,368.93742340000244,369.4540878000007,369.4209684000016,,,,,,,,,,,,,,,,,,,,,,369.44375130000117,369.4540878000007,369.4540878000007,369.4540878000007,,,,372.4373102000027,shoe,j,1.5570470999991812,0.20206620000317344,372.4373506000011,372.43736050000007,None,,,,,,,,,,,,,,00020,001,2025-11-08_18h04.13.718,MST_task,2024.2.2,60.01669664550638,2025-11-08 18h04.20.410595 +0530,
,Objects\343a.jpg,84,0,84,,,,,None,,,j,0.003253000002587214,None,,,,,84,0,84,0,372.4539605000027,,,,,,,,,,,,,,,,,,,,,,,372.4374164000001,372.4539605000027,372.97058930000276,372.9375774,,,,,,,,,,,,,,,,,,,,,,372.95725230000244,372.97058930000276,372.97058930000276,372.97058930000276,,,,375.95395100000314,indoor,None,,,375.95512730000337,375.9875908000031,j,375.9705537000009,375.9705537000009,0.003253000002587214,None,,,,,,,,,,00020,001,2025-11-08_18h04.13.718,MST_task,2024.2.2,60.01669664550638,2025-11-08 18h04.20.410595 +0530,
,Objects\082a.jpg,85,0,85,,,,,f,2.8112781000018003,None,None,,,,,,,85,0,85,0,376.0038809000034,,,,,,,,,,,,,,,,,,,,,,,375.987668400001,376.0038809000034,376.5205001000031,376.48737710000205,,,,,,,,,,,,,,,,,,,,,,376.4925722000007,376.5205001000031,376.5205001000031,376.5205001000031,,,,379.50385780000215,indoor,f,2.8112781000018003,None,379.5038953000003,379.50390680000055,None,,,,,,,,,,,,,,00020,001,2025-11-08_18h04.13.718,MST_task,2024.2.2,60.01669664550638,2025-11-08 18h04.20.410595 +0530,
,Objects\341a.jpg,86,0,86,,,,,f,1.7779281000002811,0.22202130000005127,None,,,,,,,86,0,86,0,379.520499000002,,,,,,,,,,,,,,,,,,,,,,,379.5039652000014,379.520499000002,380.0371393000023,380.0039469000003,,,,,,,,,,,,,,,,,,,,,,380.01680770000166,380.0371393000023,380.0371393000023,380.0371393000023,,,,383.02040900000065,indoor,f,1.7779281000002811,0.22202130000005127,383.02044370000294,383.02045380000345,None,,,,,,,,,,,,,,00020,001,2025-11-08_18h04.13.718,MST_task,2024.2.2,60.01669664550638,2025-11-08 18h04.20.410595 +0530,
,Objects\224a.jpg,87,0,87,,,,,f,1.813078699997277,0.19321820000186563,None,,,,,,,87,0,87,0,383.03705320000154,,,,,,,,,,,,,,,,,,,,,,,383.02051070000016,383.03705320000154,383.5370212000016,383.52054080000016,,,,,,,,,,,,,,,,,,,,,,383.5246231000019,383.5370212000016,383.5370212000016,383.5370212000016,386.53700180000305,386.53700180000305,386.53700180000305,386.5205354000027,indoor,f,1.813078699997277,0.19321820000186563,386.5205753000009,386.52058500000203,None,,,,,,,,,,,,,,00020,001,2025-11-08_18h04.13.718,MST_task,2024.2.2,60.01669664550638,2025-11-08 18h04.20.410595 +0530,
,Objects\022a.jpg,88,0,88,,,,,f,1.335408599999937,0.1989901999986614,None,,,,,,,88,0,88,0,386.53700180000305,,,,,,,,,,,,,,,,,,,,,,,386.520642200001,386.53700180000305,387.0536045000008,387.0204410000006,,,,,,,,,,,,,,,,,,,,,,387.04576980000274,387.0536045000008,387.0536045000008,387.0536045000008,,,,390.0369568000024,indoor,f,1.335408599999937,0.1989901999986614,390.0370057,390.03701530000035,None,,,,,,,,,,,,,,00020,001,2025-11-08_18h04.13.718,MST_task,2024.2.2,60.01669664550638,2025-11-08 18h04.20.410595 +0530,
,Objects\175a.jpg,89,0,89,,,,,f,1.079724499999429,0.17832910000288393,None,,,,,,,89,0,89,0,390.0535678000015,,,,,,,,,,,,,,,,,,,,,,,390.03707270000086,390.0535678000015,390.55356660000325,390.53707340000255,,,,,,,,,,,,,,,,,,,,,,390.5391382000016,390.55356660000325,390.55356660000325,390.55356660000325,393.5534933000017,393.5534933000017,393.5534933000017,393.53715560000273,indoor,f,1.079724499999429,0.17832910000288393,393.5371933000024,393.53720250000333,None,,,,,,,,,,,,,,00020,001,2025-11-08_18h04.13.718,MST_task,2024.2.2,60.01669664550638,2025-11-08 18h04.20.410595 +0530,
,Objects\111a.jpg,90,0,90,,,,,f,1.8530123999989883,0.13379270000223187,None,,,,,,,90,0,90,0,393.5534933000017,,,,,,,,,,,,,,,,,,,,,,,393.537258700002,393.5534933000017,394.0701552000028,394.0369903000028,,,,,,,,,,,,,,,,,,,,,,394.0520753000019,394.0701552000028,394.0701552000028,394.0701552000028,,,,397.0534730000036,indoor,f,1.8530123999989883,0.13379270000223187,397.0535101000023,397.05352050000147,None,,,,,,,,,,,,,,00020,001,2025-11-08_18h04.13.718,MST_task,2024.2.2,60.01669664550638,2025-11-08 18h04.20.410595 +0530,
,Objects\372a.jpg,91,0,91,,,,,None,,,j,0.5343752000007953,None,,,,,91,0,91,0,397.07004970000344,,,,,,,,,,,,,,,,,,,,,,,397.05357930000173,397.07004970000344,397.5700699000008,397.55358200000046,,,,,,,,,,,,,,,,,,,,,,397.5606473000007,397.5700699000008,397.5700699000008,397.5700699000008,400.570004600002,400.570004600002,400.570004600002,400.55375640000057,shoe,None,,,400.5553108000022,401.12025370000265,j,400.570004600002,400.570004600002,0.5343752000007953,None,,,,,,,,,,00020,001,2025-11-08_18h04.13.718,MST_task,2024.2.2,60.01669664550638,2025-11-08 18h04.20.410595 +0530,
,Objects\350a.jpg,92,0,92,,,,,j,2.2760405000008177,0.12179630000173347,None,,,,,,,92,0,92,0,401.13666190000004,,,,,,,,,,,,,,,,,,,,,,,401.1203258000023,401.13666190000004,401.6532756000015,401.62012230000255,,,,,,,,,,,,,,,,,,,,,,401.6430567000025,401.6532756000015,401.6532756000015,401.6532756000015,,,,404.63664300000164,shoe,j,2.2760405000008177,0.12179630000173347,404.6366807000013,404.6366915000035,None,,,,,,,,,,,,,,00020,001,2025-11-08_18h04.13.718,MST_task,2024.2.2,60.01669664550638,2025-11-08 18h04.20.410595 +0530,
,Objects\092a.jpg,93,0,93,,,,,None,,,f,0.1877420999990136,None,,,,,93,0,93,0,404.65326800000184,,,,,,,,,,,,,,,,,,,,,,,404.63675520000106,404.65326800000184,405.16986850000103,405.13674230000106,,,,,,,,,,,,,,,,,,,,,,405.16011810000055,405.16986850000103,405.16986850000103,405.16986850000103,,,,408.15321700000277,shoe,None,,,408.1532487000004,408.37024790000214,f,408.16984480000247,408.16984480000247,0.1877420999990136,None,,,,,,,,,,00020,001,2025-11-08_18h04.13.718,MST_task,2024.2.2,60.01669664550638,2025-11-08 18h04.20.410595 +0530,
,Objects\101a.jpg,94,0,94,,,,,j,1.9531103000008443,0.1696005999983754,None,,,,,,,94,0,94,0,408.38649760000044,,,,,,,,,,,,,,,,,,,,,,,408.37035030000334,408.38649760000044,408.88647520000086,408.86999920000017,,,,,,,,,,,,,,,,,,,,,,408.87919480000346,408.88647520000086,408.88647520000086,408.88647520000086,411.8864463000027,411.8864463000027,411.8864463000027,411.8700344000026,shoe,j,1.9531103000008443,0.1696005999983754,411.87006920000204,411.87007900000026,None,,,,,,,,,,,,,,00020,001,2025-11-08_18h04.13.718,MST_task,2024.2.2,60.01669664550638,2025-11-08 18h04.20.410595 +0530,
,Objects\298a.jpg,95,0,95,,,,,j,2.455123800002184,0.14169729999775882,None,,,,,,,95,0,95,0,411.8864463000027,,,,,,,,,,,,,,,,,,,,,,,411.870132,411.8864463000027,412.3864078000006,412.3700159,,,,,,,,,,,,,,,,,,,,,,412.372428900002,412.3864078000006,412.3864078000006,412.3864078000006,415.386372500001,415.386372500001,415.386372500001,415.3699349000017,shoe,j,2.455123800002184,0.14169729999775882,415.36997220000194,415.3699809000027,None,,,,,,,,,,,,,,00020,001,2025-11-08_18h04.13.718,MST_task,2024.2.2,60.01669664550638,2025-11-08 18h04.20.410595 +0530,
,Objects\196a.jpg,96,0,96,,,,,f,1.5168043000012403,0.14408189999812748,None,,,,,,,96,0,96,0,415.386372500001,,,,,,,,,,,,,,,,,,,,,,,415.37003470000127,415.386372500001,415.88630120000016,415.86983730000065,,,,,,,,,,,,,,,,,,,,,,415.8729346,415.88630120000016,415.88630120000016,415.88630120000016,418.8862659000006,418.8862659000006,418.8862659000006,418.86987240000235,shoe,f,1.5168043000012403,0.14408189999812748,418.8699112000031,418.8699207000027,None,,,,,,,,,,,,,,00020,001,2025-11-08_18h04.13.718,MST_task,2024.2.2,60.01669664550638,2025-11-08 18h04.20.410595 +0530,
,Objects\163a.jpg,97,0,97,,,,,j,1.5611886999977287,0.13893650000318303,None,,,,,,,97,0,97,0,418.8862659000006,,,,,,,,,,,,,,,,,,,,,,,418.8699807000012,418.8862659000006,419.3862188000021,419.3698817000004,,,,,,,,,,,,,,,,,,,,,,419.37209890000304,419.3862188000021,419.3862188000021,419.3862188000021,422.38618580000184,422.38618580000184,422.38618580000184,422.36977860000115,shoe,j,1.5611886999977287,0.13893650000318303,422.36981220000234,422.3698217000019,None,,,,,,,,,,,,,,00020,001,2025-11-08_18h04.13.718,MST_task,2024.2.2,60.01669664550638,2025-11-08 18h04.20.410595 +0530,
,Objects\235a.jpg,98,0,98,,,,,None,,,f,0.9330774000009114,None,,,,,98,0,98,0,422.38618580000184,,,,,,,,,,,,,,,,,,,,,,,422.36987710000176,422.38618580000184,422.8861818000005,422.86968250000064,,,,,,,,,,,,,,,,,,,,,,422.8758940000007,422.8861818000005,422.8861818000005,422.8861818000005,425.88611850000234,425.88611850000234,425.88611850000234,425.8697299000014,indoor,None,,,425.8709213000002,426.8198448000003,f,425.88611850000234,425.88611850000234,0.9330774000009114,None,,,,,,,,,,00020,001,2025-11-08_18h04.13.718,MST_task,2024.2.2,60.01669664550638,2025-11-08 18h04.20.410595 +0530,
,Objects\038a.jpg,99,0,99,,,,,f,2.289352700001473,0.1548198999989836,None,,,,,,,99,0,99,0,426.8361020000011,,,,,,,,,,,,,,,,,,,,,,,426.8199197000031,426.8361020000011,427.3360431000001,427.31954340000084,,,,,,,,,,,,,,,,,,,,,,427.32465520000187,427.3360431000001,427.3360431000001,427.3360431000001,430.3359950000013,430.3359950000013,430.3359950000013,430.3196228000015,indoor,f,2.289352700001473,0.1548198999989836,430.3196569000029,430.3196674000028,None,,,,,,,,,,,,,,00020,001,2025-11-08_18h04.13.718,MST_task,2024.2.2,60.01669664550638,2025-11-08 18h04.20.410595 +0530,
,Objects\176a.jpg,100,0,100,,,,,j,1.0415250000005472,0.18127079999976559,None,,,,,,,100,0,100,0,430.3359950000013,,,,,,,,,,,,,,,,,,,,,,,430.31972510000196,430.3359950000013,430.8526694000029,430.8195295000005,,,,,,,,,,,,,,,,,,,,,,430.8371582000036,430.8526694000029,430.8526694000029,430.8526694000029,,,,433.8359717000021,indoor,j,1.0415250000005472,0.18127079999976559,433.8360120000034,433.8360231000006,None,,,,,,,,,,,,,,00020,001,2025-11-08_18h04.13.718,MST_task,2024.2.2,60.01669664550638,2025-11-08 18h04.20.410595 +0530,
,Objects\158a.jpg,101,0,101,,,,,f,2.008504899997206,0.15051149999999325,None,,,,,,,101,0,101,0,433.85260440000275,,,,,,,,,,,,,,,,,,,,,,,433.8360793000029,433.85260440000275,,434.33606110000255,,,,,,,,,,,,,,,,,,,,,,434.3382221000029,434.35259900000165,434.35259900000165,434.35259900000165,437.35249420000036,437.35249420000036,437.35249420000036,437.3361181,indoor,f,2.008504899997206,0.15051149999999325,437.3361501000036,437.3361599000018,None,,,,,,,,,,,,,,00020,001,2025-11-08_18h04.13.718,MST_task,2024.2.2,60.01669664550638,2025-11-08 18h04.20.410595 +0530,
,Objects\153a.jpg,102,0,102,,,,,f,1.6146884999980102,0.14948440000080154,None,,,,,,,102,0,102,0,437.35249420000036,,,,,,,,,,,,,,,,,,,,,,,437.33621330000096,437.35249420000036,437.869182800001,437.8360105000029,,,,,,,,,,,,,,,,,,,,,,437.85651580000194,437.869182800001,437.869182800001,437.869182800001,,,,440.8524642000011,indoor,f,1.6146884999980102,0.14948440000080154,440.85250050000104,440.85251020000214,None,,,,,,,,,,,,,,00020,001,2025-11-08_18h04.13.718,MST_task,2024.2.2,60.01669664550638,2025-11-08 18h04.20.410595 +0530,
,Objects\172a.jpg,103,0,103,,,,,j,0.9468949000001885,0.13745460000063758,None,,,,,,,103,0,103,0,440.8691123000026,,,,,,,,,,,,,,,,,,,,,,,440.85256890000164,440.8691123000026,,441.3525473000009,,,,,,,,,,,,,,,,,,,,,,441.35465620000105,441.3691086000035,441.3691086000035,441.3691086000035,444.369045200001,444.369045200001,444.369045200001,444.3526909000029,indoor,j,0.9468949000001885,0.13745460000063758,444.3527236000009,444.35273360000065,None,,,,,,,,,,,,,,00020,001,2025-11-08_18h04.13.718,MST_task,2024.2.2,60.01669664550638,2025-11-08 18h04.20.410595 +0530,
,Objects\145a.jpg,104,0,104,,,,,f,2.7369493000005605,0.18118069999763975,None,,,,,,,104,0,104,0,444.369045200001,,,,,,,,,,,,,,,,,,,,,,,444.35278980000294,444.369045200001,444.86903090000123,444.85246800000095,,,,,,,,,,,,,,,,,,,,,,444.85446610000145,444.86903090000123,444.86903090000123,444.86903090000123,447.868930800003,447.868930800003,447.868930800003,447.8525602000009,indoor,f,2.7369493000005605,0.18118069999763975,447.8525937000013,447.8526023000013,None,,,,,,,,,,,,,,00020,001,2025-11-08_18h04.13.718,MST_task,2024.2.2,60.01669664550638,2025-11-08 18h04.20.410595 +0530,
,Objects\226a.jpg,105,0,105,,,,,j,1.7014759999983653,0.19443190000311006,None,,,,,,,105,0,105,0,447.868930800003,,,,,,,,,,,,,,,,,,,,,,,447.8526533000004,447.868930800003,448.3855908000005,448.35251620000054,,,,,,,,,,,,,,,,,,,,,,448.37141800000245,448.3855908000005,448.3855908000005,448.3855908000005,,,,451.3689078000025,shoe,j,1.7014759999983653,0.19443190000311006,451.3705781000026,451.3705908000011,None,,,,,,,,,,,,,,00020,001,2025-11-08_18h04.13.718,MST_task,2024.2.2,60.01669664550638,2025-11-08 18h04.20.410595 +0530,
,Objects\023a.jpg,106,0,106,,,,,f,0.9320189999998547,0.18568189999859896,None,,,,,,,106,0,106,0,451.38552670000354,,,,,,,,,,,,,,,,,,,,,,,451.370647300002,451.38552670000354,451.8855438000028,451.86899840000115,,,,,,,,,,,,,,,,,,,,,,451.8744598000012,451.8855438000028,451.8855438000028,451.8855438000028,454.88547510000353,454.88547510000353,454.88547510000353,454.8690577000016,shoe,f,0.9320189999998547,0.18568189999859896,454.8690921000016,454.869101100001,None,,,,,,,,,,,,,,00020,001,2025-11-08_18h04.13.718,MST_task,2024.2.2,60.01669664550638,2025-11-08 18h04.20.410595 +0530,
,Objects\049a.jpg,107,0,107,,,,,j,2.1978434000011475,0.19834049999917625,None,,,,,,,107,0,107,0,454.88547510000353,,,,,,,,,,,,,,,,,,,,,,,454.8691553000026,454.88547510000353,455.3854691000015,455.36891520000063,,,,,,,,,,,,,,,,,,,,,,455.37130770000294,455.3854691000015,455.3854691000015,455.3854691000015,458.3853622000024,458.3853622000024,458.3853622000024,458.3689856000019,shoe,j,2.1978434000011475,0.19834049999917625,458.369022400002,458.3690316000029,None,,,,,,,,,,,,,,00020,001,2025-11-08_18h04.13.718,MST_task,2024.2.2,60.01669664550638,2025-11-08 18h04.20.410595 +0530,
,Objects\381a.jpg,108,0,108,,,,,None,,,j,0.08037530000001425,None,,,,,108,0,108,0,458.3853622000024,,,,,,,,,,,,,,,,,,,,,,,458.3690861000032,458.3853622000024,458.8853528000036,458.8689813000019,,,,,,,,,,,,,,,,,,,,,,458.873967800002,458.8853528000036,458.8853528000036,458.8853528000036,461.8852865000008,461.8852865000008,461.8852865000008,461.8689548000002,shoe,None,,,461.86898570000267,461.96905920000063,j,461.8852865000008,461.8852865000008,0.08037530000001425,None,,,,,,,,,,00020,001,2025-11-08_18h04.13.718,MST_task,2024.2.2,60.01669664550638,2025-11-08 18h04.20.410595 +0530,
,Objects\304a.jpg,109,0,109,,,,,f,1.3606862000015099,0.17036599999846658,None,,,,,,,109,0,109,0,461.9852884000029,,,,,,,,,,,,,,,,,,,,,,,461.96916930000225,461.9852884000029,462.501942400002,462.4687900000026,,,,,,,,,,,,,,,,,,,,,,462.49340810000285,462.501942400002,462.501942400002,462.501942400002,,,,465.4852699000003,shoe,f,1.3606862000015099,0.17036599999846658,465.4853065000025,465.48531710000316,None,,,,,,,,,,,,,,00020,001,2025-11-08_18h04.13.718,MST_task,2024.2.2,60.01669664550638,2025-11-08 18h04.20.410595 +0530,
,Objects\076a.jpg,110,0,110,,,,,f,1.133884400001989,0.16121099999872968,None,,,,,,,110,0,110,0,465.5019800000009,,,,,,,,,,,,,,,,,,,,,,,465.48542050000106,465.5019800000009,466.0018880000025,465.9853712000004,,,,,,,,,,,,,,,,,,,,,,465.9904888000019,466.0018880000025,466.0018880000025,466.0018880000025,469.00179390000267,469.00179390000267,469.00179390000267,468.9854249000018,shoe,f,1.133884400001989,0.16121099999872968,468.98545760000343,468.9854665000021,None,,,,,,,,,,,,,,00020,001,2025-11-08_18h04.13.718,MST_task,2024.2.2,60.01669664550638,2025-11-08 18h04.20.410595 +0530,
,Objects\039a.jpg,111,0,111,,,,,j,0.9354051999980584,0.17714750000232016,None,,,,,,,111,0,111,0,469.00179390000267,,,,,,,,,,,,,,,,,,,,,,,468.98554520000107,469.00179390000267,469.51849610000136,469.4852709000006,,,,,,,,,,,,,,,,,,,,,,469.5076297000014,469.51849610000136,469.51849610000136,469.51849610000136,,,,472.50178470000174,shoe,j,0.9354051999980584,0.17714750000232016,472.5018194000004,472.5018304000005,None,,,,,,,,,,,,,,00020,001,2025-11-08_18h04.13.718,MST_task,2024.2.2,60.01669664550638,2025-11-08 18h04.20.410595 +0530,
,Objects\021a.jpg,112,0,112,,,,,f,1.611775999997917,0.1852424000026076,None,,,,,,,112,0,112,0,472.51842110000143,,,,,,,,,,,,,,,,,,,,,,,472.5019175000016,472.51842110000143,473.01800340000045,473.00185580000107,,,,,,,,,,,,,,,,,,,,,,473.01226430000315,473.01800340000045,473.01800340000045,473.01800340000045,476.01848520000203,476.01848520000203,476.01848520000203,476.00189500000124,indoor,f,1.611775999997917,0.1852424000026076,476.0030754000036,476.00308970000333,None,,,,,,,,,,,,,,00020,001,2025-11-08_18h04.13.718,MST_task,2024.2.2,60.01669664550638,2025-11-08 18h04.20.410595 +0530,
,Objects\183a.jpg,113,0,113,,,,,f,1.0123148999991827,0.1548159999983909,None,,,,,,,113,0,113,0,476.01848520000203,,,,,,,,,,,,,,,,,,,,,,,476.00314770000114,476.01848520000203,476.5183382000032,476.5018927000019,,,,,,,,,,,,,,,,,,,,,,476.50402340000073,476.5183382000032,476.5183382000032,476.5183382000032,479.5182707000022,479.5182707000022,479.5182707000022,479.50186400000166,indoor,f,1.0123148999991827,0.1548159999983909,479.5018971000027,479.5019061000021,None,,,,,,,,,,,,,,00020,001,2025-11-08_18h04.13.718,MST_task,2024.2.2,60.01669664550638,2025-11-08 18h04.20.410595 +0530,
,Objects\027a.jpg,114,0,114,,,,,f,2.0674428999991505,0.10340530000030412,None,,,,,,,114,0,114,0,479.5182707000022,,,,,,,,,,,,,,,,,,,,,,,479.50195820000226,479.5182707000022,480.01825960000133,480.00172530000054,,,,,,,,,,,,,,,,,,,,,,480.00394040000174,480.01825960000133,480.01825960000133,480.01825960000133,483.01815070000157,483.01815070000157,483.01815070000157,483.00178620000224,indoor,f,2.0674428999991505,0.10340530000030412,483.00182080000013,483.0018301000018,None,,,,,,,,,,,,,,00020,001,2025-11-08_18h04.13.718,MST_task,2024.2.2,60.01669664550638,2025-11-08 18h04.20.410595 +0530,
,Objects\264a.jpg,115,0,115,,,,,j,1.4844412999991619,0.13834069999938947,None,,,,,,,115,0,115,0,483.01815070000157,,,,,,,,,,,,,,,,,,,,,,,483.00188270000217,483.01815070000157,483.53481190000093,483.50165330000164,,,,,,,,,,,,,,,,,,,,,,483.5195663000013,483.53481190000093,483.53481190000093,483.53481190000093,,,,486.51826070000243,indoor,j,1.4844412999991619,0.13834069999938947,486.51830100000006,486.5183106000004,None,,,,,,,,,,,,,,00020,001,2025-11-08_18h04.13.718,MST_task,2024.2.2,60.01669664550638,2025-11-08 18h04.20.410595 +0530,
,Objects\067a.jpg,116,0,116,,,,,f,2.2147624000026553,0.19370269999853917,None,,,,,,,116,0,116,0,486.53478220000034,,,,,,,,,,,,,,,,,,,,,,,486.5183695000014,486.53478220000034,487.0347391000032,487.01823850000073,,,,,,,,,,,,,,,,,,,,,,487.0232752000011,487.0347391000032,487.0347391000032,487.0347391000032,490.03466760000083,490.03466760000083,490.03466760000083,490.01828450000176,indoor,f,2.2147624000026553,0.19370269999853917,490.01831780000066,490.01832670000294,None,,,,,,,,,,,,,,00020,001,2025-11-08_18h04.13.718,MST_task,2024.2.2,60.01669664550638,2025-11-08 18h04.20.410595 +0530,
,Objects\287a.jpg,117,0,117,,,,,None,,,f,0.1919808999991801,None,,,,,117,0,117,0,490.03466760000083,,,,,,,,,,,,,,,,,,,,,,,490.0183788000031,490.03466760000083,490.55135900000096,490.5182393000032,,,,,,,,,,,,,,,,,,,,,,490.5408439000021,490.55135900000096,490.55135900000096,490.55135900000096,,,,493.53473060000033,indoor,None,,,493.53476800000135,493.75154840000323,f,493.55128570000306,493.55128570000306,0.1919808999991801,None,,,,,,,,,,00020,001,2025-11-08_18h04.13.718,MST_task,2024.2.2,60.01669664550638,2025-11-08 18h04.20.410595 +0530,
,Objects\094a.jpg,118,0,118,,,,,f,1.1096385999990162,0.15805810000165366,None,,,,,,,118,0,118,0,493.76795210000273,,,,,,,,,,,,,,,,,,,,,,,493.7516104000024,493.76795210000273,494.26791650000087,494.2514424000001,,,,,,,,,,,,,,,,,,,,,,494.2564179000001,494.26791650000087,494.26791650000087,494.26791650000087,497.2678838000029,497.2678838000029,497.2678838000029,497.25154790000306,indoor,f,1.1096385999990162,0.15805810000165366,497.2515873000011,497.2515967000036,None,,,,,,,,,,,,,,00020,001,2025-11-08_18h04.13.718,MST_task,2024.2.2,60.01669664550638,2025-11-08 18h04.20.410595 +0530,
,Objects\164a.jpg,119,0,119,,,,,f,2.5832562999967195,0.19450830000278074,None,,,,,,,119,0,119,0,497.2678838000029,,,,,,,,,,,,,,,,,,,,,,,497.2516561000011,497.2678838000029,497.7678311000018,497.7513414000023,,,,,,,,,,,,,,,,,,,,,,497.75528450000274,497.7678311000018,497.7678311000018,497.7678311000018,500.7677666000018,500.7677666000018,500.7677666000018,500.75147520000246,shoe,f,2.5832562999967195,0.19450830000278074,500.7530269000017,500.7530420000003,None,,,,,,,,,,,,,,00020,001,2025-11-08_18h04.13.718,MST_task,2024.2.2,60.01669664550638,2025-11-08 18h04.20.410595 +0530,
,Objects\003a.jpg,120,0,120,,,,,j,1.463989700001548,0.13037999999869498,None,,,,,,,120,0,120,0,500.7677666000018,,,,,,,,,,,,,,,,,,,,,,,500.7531355000028,500.7677666000018,501.2677584000012,501.2512953000005,,,,,,,,,,,,,,,,,,,,,,501.2537231000024,501.2677584000012,501.2677584000012,501.2677584000012,504.2677257000032,504.2677257000032,504.2677257000032,504.2512751000031,shoe,j,1.463989700001548,0.13037999999869498,504.25131290000354,504.25132190000295,None,,,,,,,,,,,,,,00020,001,2025-11-08_18h04.13.718,MST_task,2024.2.2,60.01669664550638,2025-11-08 18h04.20.410595 +0530,
,Objects\269a.jpg,121,0,121,,,,,j,1.9322782000017469,0.11389000000053784,None,,,,,,,121,0,121,0,504.2677257000032,,,,,,,,,,,,,,,,,,,,,,,504.25137560000076,504.2677257000032,504.7678278000021,504.7511779000015,,,,,,,,,,,,,,,,,,,,,,504.7566015000011,504.7678278000021,504.7678278000021,504.7678278000021,507.76768650000304,507.76768650000304,507.76768650000304,507.7513665000006,shoe,j,1.9322782000017469,0.11389000000053784,507.7514013,507.75141030000304,None,,,,,,,,,,,,,,00020,001,2025-11-08_18h04.13.718,MST_task,2024.2.2,60.01669664550638,2025-11-08 18h04.20.410595 +0530,
,Objects\243a.jpg,122,0,122,,,,,f,2.189604600000166,0.17803859999912675,None,,,,,,,122,0,122,0,507.76768650000304,,,,,,,,,,,,,,,,,,,,,,,507.75146340000356,507.76768650000304,508.26763500000015,508.2510816000031,,,,,,,,,,,,,,,,,,,,,,508.2560594000024,508.26763500000015,508.26763500000015,508.26763500000015,511.2675424000008,511.2675424000008,511.2675424000008,511.251286900002,shoe,f,2.189604600000166,0.17803859999912675,511.25132080000185,511.25133050000295,None,,,,,,,,,,,,,,00020,001,2025-11-08_18h04.13.718,MST_task,2024.2.2,60.01669664550638,2025-11-08 18h04.20.410595 +0530,
,Objects\069a.jpg,123,0,123,,,,,j,1.0222538999987592,0.1672446000011405,None,,,,,,,123,0,123,0,511.2675424000008,,,,,,,,,,,,,,,,,,,,,,,511.2513847000009,511.2675424000008,511.76756880000175,511.75100980000207,,,,,,,,,,,,,,,,,,,,,,511.756341100001,511.76756880000175,511.76756880000175,511.76756880000175,514.7674563,514.7674563,514.7674563,514.751094700001,shoe,j,1.0222538999987592,0.1672446000011405,514.7511317000026,514.751140700002,None,,,,,,,,,,,,,,00020,001,2025-11-08_18h04.13.718,MST_task,2024.2.2,60.01669664550638,2025-11-08 18h04.20.410595 +0530,
,Objects\030a.jpg,124,0,124,,,,,f,0.9276477999992494,0.17032409999956144,None,,,,,,,124,0,124,0,514.7674563,,,,,,,,,,,,,,,,,,,,,,,514.7512241000004,514.7674563,515.2674837000013,515.2510868000027,,,,,,,,,,,,,,,,,,,,,,515.253308000003,515.2674837000013,515.2674837000013,515.2674837000013,518.2673749000023,518.2673749000023,518.2673749000023,518.2510157000033,shoe,f,0.9276477999992494,0.17032409999956144,518.2510580000016,518.2510687000031,None,,,,,,,,,,,,,,00020,001,2025-11-08_18h04.13.718,MST_task,2024.2.2,60.01669664550638,2025-11-08 18h04.20.410595 +0530,
,Objects\085a.jpg,125,0,125,,,,,j,1.588386100000207,0.13722439999764902,None,,,,,,,125,0,125,0,518.2673749000023,,,,,,,,,,,,,,,,,,,,,,,518.2511648000036,518.2673749000023,518.7674057000004,518.7509371000015,,,,,,,,,,,,,,,,,,,,,,518.7533611000035,518.7674057000004,518.7674057000004,518.7674057000004,521.7673401000029,521.7673401000029,521.7673401000029,521.7509160000009,shoe,j,1.588386100000207,0.13722439999764902,521.750952800001,521.7509629000015,None,,,,,,,,,,,,,,00020,001,2025-11-08_18h04.13.718,MST_task,2024.2.2,60.01669664550638,2025-11-08 18h04.20.410595 +0530,
,Objects\050a.jpg,126,0,126,,,,,j,1.7621295999997528,0.16422880000027362,None,,,,,,,126,0,126,0,521.7673401000029,,,,,,,,,,,,,,,,,,,,,,,521.7510505000027,521.7673401000029,522.2672920000005,522.2507925000027,,,,,,,,,,,,,,,,,,,,,,522.2541587000014,522.2672920000005,522.2672920000005,522.2672920000005,525.2672592000017,525.2672592000017,525.2672592000017,525.2509389000006,indoor,j,1.7621295999997528,0.16422880000027362,525.2521221000025,525.252134600003,None,,,,,,,,,,,,,,00020,001,2025-11-08_18h04.13.718,MST_task,2024.2.2,60.01669664550638,2025-11-08 18h04.20.410595 +0530,
,Objects\129a.jpg,127,0,127,,,,,f,1.3075822000027983,0.20192580000002636,None,,,,,,,127,0,127,0,525.2672592000017,,,,,,,,,,,,,,,,,,,,,,,525.2521933000025,525.2672592000017,525.7839276000013,525.7508540000017,,,,,,,,,,,,,,,,,,,,,,525.771187600003,525.7839276000013,525.7839276000013,525.7839276000013,,,,528.7672183000032,indoor,f,1.3075822000027983,0.20192580000002636,528.7672541000029,528.7672652000001,None,,,,,,,,,,,,,,00020,001,2025-11-08_18h04.13.718,MST_task,2024.2.2,60.01669664550638,2025-11-08 18h04.20.410595 +0530,
,Objects\238a.jpg,128,0,128,,,,,f,0.795818299997336,0.15299980000054347,None,,,,,,,128,0,128,0,528.7838128000003,,,,,,,,,,,,,,,,,,,,,,,528.7673242000019,528.7838128000003,529.3004745000035,529.2673136000012,,,,,,,,,,,,,,,,,,,,,,529.2910437000028,529.3004745000035,529.3004745000035,529.3004745000035,,,,532.2838171000003,indoor,f,0.795818299997336,0.15299980000054347,532.2838752000025,532.2838846000013,None,,,,,,,,,,,,,,00020,001,2025-11-08_18h04.13.718,MST_task,2024.2.2,60.01669664550638,2025-11-08 18h04.20.410595 +0530,
,Objects\335a.jpg,129,0,129,,,,,j,1.038872099998116,0.1561269000012544,None,,,,,,,129,0,129,0,532.3004205000034,,,,,,,,,,,,,,,,,,,,,,,532.2839428000007,532.3004205000034,532.8004166000028,532.7838564000012,,,,,,,,,,,,,,,,,,,,,,532.7882814000004,532.8004166000028,532.8004166000028,532.8004166000028,535.8003626000027,535.8003626000027,535.8003626000027,535.7839237000007,indoor,j,1.038872099998116,0.1561269000012544,535.7839585000002,535.7839677000011,None,,,,,,,,,,,,,,00020,001,2025-11-08_18h04.13.718,MST_task,2024.2.2,60.01669664550638,2025-11-08 18h04.20.410595 +0530,
,Objects\127a.jpg,130,0,130,,,,,f,1.4288911000003282,0.1941770000012184,None,,,,,,,130,0,130,0,535.8003626000027,,,,,,,,,,,,,,,,,,,,,,,535.7840228000023,535.8003626000027,536.3004187000006,536.2839345000029,,,,,,,,,,,,,,,,,,,,,,536.289044600002,536.3004187000006,536.3004187000006,536.3004187000006,539.3002680000027,539.3002680000027,539.3002680000027,539.2840153000034,indoor,f,1.4288911000003282,0.1941770000012184,539.2840566000013,539.2840667000019,None,,,,,,,,,,,,,,00020,001,2025-11-08_18h04.13.718,MST_task,2024.2.2,60.01669664550638,2025-11-08 18h04.20.410595 +0530,
,Objects\035a.jpg,131,0,131,,,,,f,1.4892992999994021,0.16981490000034682,None,,,,,,,131,0,131,0,539.3002680000027,,,,,,,,,,,,,,,,,,,,,,,539.2841275000028,539.3002680000027,539.8002665000022,539.7837945000028,,,,,,,,,,,,,,,,,,,,,,539.7858520000009,539.8002665000022,539.8002665000022,539.8002665000022,542.8002029000018,542.8002029000018,542.8002029000018,542.7838018000002,indoor,f,1.4892992999994021,0.16981490000034682,542.7838370000027,542.7838458000006,None,,,,,,,,,,,,,,00020,001,2025-11-08_18h04.13.718,MST_task,2024.2.2,60.01669664550638,2025-11-08 18h04.20.410595 +0530,
,Objects\118a.jpg,132,0,132,,,,,j,1.1612329999989015,0.16581479999877047,None,,,,,,,132,0,132,0,542.8002029000018,,,,,,,,,,,,,,,,,,,,,,,542.7838980000015,542.8002029000018,543.3002019000014,543.2836664000024,,,,,,,,,,,,,,,,,,,,,,543.2858317000027,543.3002019000014,543.3002019000014,543.3002019000014,546.3001273000009,546.3001273000009,546.3001273000009,546.2836876000001,indoor,j,1.1612329999989015,0.16581479999877047,546.283728800001,546.283740400002,None,,,,,,,,,,,,,,00020,001,2025-11-08_18h04.13.718,MST_task,2024.2.2,60.01669664550638,2025-11-08 18h04.20.410595 +0530,
,Objects\135a.jpg,133,0,133,,,,,f,1.1746922000020277,0.18105909999940195,None,,,,,,,133,0,133,0,546.3001273000009,,,,,,,,,,,,,,,,,,,,,,,546.2837972000016,546.3001273000009,546.8001537000018,546.7835934000032,,,,,,,,,,,,,,,,,,,,,,546.787444900001,546.8001537000018,546.8001537000018,546.8001537000018,549.8000446000005,549.8000446000005,549.8000446000005,549.7837510000027,shoe,f,1.1746922000020277,0.18105909999940195,549.7853077000036,549.7853214000024,None,,,,,,,,,,,,,,00020,001,2025-11-08_18h04.13.718,MST_task,2024.2.2,60.01669664550638,2025-11-08 18h04.20.410595 +0530,
,Objects\245a.jpg,134,0,134,,,,,f,1.9678378999997221,0.13115399999878719,None,,,,,,,134,0,134,0,549.8000446000005,,,,,,,,,,,,,,,,,,,,,,,549.7854138000002,549.8000446000005,550.3000128000022,550.2836381000016,,,,,,,,,,,,,,,,,,,,,,550.2857799000012,550.3000128000022,550.3000128000022,550.3000128000022,553.2999747000031,553.2999747000031,553.2999747000031,553.283642800001,shoe,f,1.9678378999997221,0.13115399999878719,553.2836850000022,553.2836945000017,None,,,,,,,,,,,,,,00020,001,2025-11-08_18h04.13.718,MST_task,2024.2.2,60.01669664550638,2025-11-08 18h04.20.410595 +0530,
,Objects\250a.jpg,135,0,135,,,,,f,1.6437323999998625,0.1821051000006264,None,,,,,,,135,0,135,0,553.2999747000031,,,,,,,,,,,,,,,,,,,,,,,553.2837527000011,553.2999747000031,553.799929300003,553.7834519000025,,,,,,,,,,,,,,,,,,,,,,553.7881419000005,553.799929300003,553.799929300003,553.799929300003,556.7999053000021,556.7999053000021,556.7999053000021,556.7834619000023,shoe,f,1.6437323999998625,0.1821051000006264,556.7834967000017,556.7835057000011,None,,,,,,,,,,,,,,00020,001,2025-11-08_18h04.13.718,MST_task,2024.2.2,60.01669664550638,2025-11-08 18h04.20.410595 +0530,
,Objects\356a.jpg,136,0,136,,,,,f,2.0897957000015595,0.1779181999991124,None,,,,,,,136,0,136,0,556.7999053000021,,,,,,,,,,,,,,,,,,,,,,,556.7835597000012,556.7999053000021,557.2998485000026,557.2834840000032,,,,,,,,,,,,,,,,,,,,,,557.2881639000007,557.2998485000026,557.2998485000026,557.2998485000026,560.299859900002,560.299859900002,560.299859900002,560.283436200003,shoe,f,2.0897957000015595,0.1779181999991124,560.2834691000025,560.2834778000033,None,,,,,,,,,,,,,,00020,001,2025-11-08_18h04.13.718,MST_task,2024.2.2,60.01669664550638,2025-11-08 18h04.20.410595 +0530,
,Objects\208a.jpg,137,0,137,,,,,f,2.059244399999443,0.2474118999998609,None,,,,,,,137,0,137,0,560.299859900002,,,,,,,,,,,,,,,,,,,,,,,560.2835344000014,560.299859900002,560.7997784000036,560.7832987000002,,,,,,,,,,,,,,,,,,,,,,560.7869625000021,560.7997784000036,560.7997784000036,560.7997784000036,563.7997719000014,563.7997719000014,563.7997719000014,563.7833337000011,shoe,f,2.059244399999443,0.2474118999998609,563.7833679000032,563.7833770000034,None,,,,,,,,,,,,,,00020,001,2025-11-08_18h04.13.718,MST_task,2024.2.2,60.01669664550638,2025-11-08 18h04.20.410595 +0530,
,Objects\131a.jpg,138,0,138,,,,,j,1.6897008000014466,0.168405199998233,None,,,,,,,138,0,138,0,563.7997719000014,,,,,,,,,,,,,,,,,,,,,,,563.7834326000011,563.7997719000014,564.2997042000025,564.283226800002,,,,,,,,,,,,,,,,,,,,,,564.2888554000019,564.2997042000025,564.2997042000025,564.2997042000025,567.2996968000007,567.2996968000007,567.2996968000007,567.2832529000007,shoe,j,1.6897008000014466,0.168405199998233,567.2832893000013,567.2832985000023,None,,,,,,,,,,,,,,00020,001,2025-11-08_18h04.13.718,MST_task,2024.2.2,60.01669664550638,2025-11-08 18h04.20.410595 +0530,
,Objects\314a.jpg,139,0,139,,,,,f,1.8477455000029295,0.186090699997294,None,,,,,,,139,0,139,0,567.2996968000007,,,,,,,,,,,,,,,,,,,,,,,567.2833517000035,567.2996968000007,567.7996296000019,567.7831491000034,,,,,,,,,,,,,,,,,,,,,,567.7883388000009,567.7996296000019,567.7996296000019,567.7996296000019,570.7995875000015,570.7995875000015,570.7995875000015,570.7832567000005,shoe,f,1.8477455000029295,0.186090699997294,570.7832927000018,570.7833020000035,None,,,,,,,,,,,,,,00020,001,2025-11-08_18h04.13.718,MST_task,2024.2.2,60.01669664550638,2025-11-08 18h04.20.410595 +0530,
,Objects\317a.jpg,140,0,140,,,,,j,2.6822710999986157,0.1811861999995017,None,,,,,,,140,0,140,0,570.7995875000015,,,,,,,,,,,,,,,,,,,,,,,570.7833550000032,570.7995875000015,571.2995551000022,571.2831581000028,,,,,,,,,,,,,,,,,,,,,,571.2894447000035,571.2995551000022,571.2995551000022,571.2995551000022,574.2994827000002,574.2994827000002,574.2994827000002,574.2832473000017,indoor,j,2.6822710999986157,0.1811861999995017,574.2844455000013,574.284457400001,None,,,,,,,,,,,,,,00020,001,2025-11-08_18h04.13.718,MST_task,2024.2.2,60.01669664550638,2025-11-08 18h04.20.410595 +0530,
,Objects\209a.jpg,141,0,141,,,,,f,0.821889499999088,0.18561639999825275,None,,,,,,,141,0,141,0,574.2994827000002,,,,,,,,,,,,,,,,,,,,,,,574.2845085000008,574.2994827000002,574.7995006000019,574.7831523000023,,,,,,,,,,,,,,,,,,,,,,574.7880571000023,574.7995006000019,574.7995006000019,574.7995006000019,577.7994340000005,577.7994340000005,577.7994340000005,577.7830012000013,indoor,f,0.821889499999088,0.18561639999825275,577.7830407000001,577.783050500002,None,,,,,,,,,,,,,,00020,001,2025-11-08_18h04.13.718,MST_task,2024.2.2,60.01669664550638,2025-11-08 18h04.20.410595 +0530,
,Objects\278a.jpg,142,0,142,,,,,f,2.672868200002995,0.15815749999819673,None,,,,,,,142,0,142,0,577.7994340000005,,,,,,,,,,,,,,,,,,,,,,,577.7831083000019,577.7994340000005,578.3328209000028,578.283024700002,,,,,,,,,,,,,,,,,,,,,,578.3197147000028,578.3328209000028,578.3328209000028,578.3328209000028,,,,581.2994555000005,indoor,f,2.672868200002995,0.15815749999819673,581.2994891000017,581.2994984000034,None,,,,,,,,,,,,,,00020,001,2025-11-08_18h04.13.718,MST_task,2024.2.2,60.01669664550638,2025-11-08 18h04.20.410595 +0530,
,Objects\033a.jpg,143,0,143,,,,,f,1.087894199998118,0.15553940000245348,None,,,,,,,143,0,143,0,581.3161431000008,,,,,,,,,,,,,,,,,,,,,,,581.299554600002,581.3161431000008,581.8160398,581.7995642000024,,,,,,,,,,,,,,,,,,,,,,581.8044910000026,581.8160398,581.8160398,581.8160398,584.8160665000032,584.8160665000032,584.8160665000032,584.7995899000016,indoor,f,1.087894199998118,0.15553940000245348,584.7996300000013,584.799640600002,None,,,,,,,,,,,,,,00020,001,2025-11-08_18h04.13.718,MST_task,2024.2.2,60.01669664550638,2025-11-08 18h04.20.410595 +0530,
,Objects\286a.jpg,144,0,144,,,,,j,1.485797299999831,0.1297420000009879,None,,,,,,,144,0,144,0,584.8160665000032,,,,,,,,,,,,,,,,,,,,,,,584.799695200003,584.8160665000032,585.3160060000009,585.2994088000014,,,,,,,,,,,,,,,,,,,,,,585.3033531000001,585.3160060000009,585.3160060000009,585.3160060000009,588.315958500003,588.315958500003,588.315958500003,588.2995243000005,indoor,j,1.485797299999831,0.1297420000009879,588.2995567000034,588.2995659000007,None,,,,,,,,,,,,,,00020,001,2025-11-08_18h04.13.718,MST_task,2024.2.2,60.01669664550638,2025-11-08 18h04.20.410595 +0530,
,Objects\201a.jpg,145,0,145,,,,,f,1.9616332999976294,0.153603300001123,None,,,,,,,145,0,145,0,588.315958500003,,,,,,,,,,,,,,,,,,,,,,,588.2996184000003,588.315958500003,588.8159371000002,588.7994491000027,,,,,,,,,,,,,,,,,,,,,,588.8037862000019,588.8159371000002,588.8159371000002,588.8159371000002,591.8158341000017,591.8158341000017,591.8158341000017,591.7996400000011,indoor,f,1.9616332999976294,0.153603300001123,591.7996782000009,591.7996887000008,None,,,,,,,,,,,,,,00020,001,2025-11-08_18h04.13.718,MST_task,2024.2.2,60.01669664550638,2025-11-08 18h04.20.410595 +0530,
,Objects\188a.jpg,146,0,146,,,,,f,1.953840800000762,0.14241889999902924,None,,,,,,,146,0,146,0,591.8158341000017,,,,,,,,,,,,,,,,,,,,,,,591.799749400001,591.8158341000017,592.3158975000006,592.2993549000021,,,,,,,,,,,,,,,,,,,,,,592.304512900002,592.3158975000006,592.3158975000006,592.3158975000006,595.3158576000023,595.3158576000023,595.3158576000023,595.2993920000008,indoor,f,1.953840800000762,0.14241889999902924,595.2994242000022,595.2994360000012,None,,,,,,,,,,,,,,00020,001,2025-11-08_18h04.13.718,MST_task,2024.2.2,60.01669664550638,2025-11-08 18h04.20.410595 +0530,
,Objects\105a.jpg,147,0,147,,,,,f,2.2398474000001443,0.18542329999763751,None,,,,,,,147,0,147,0,595.3158576000023,,,,,,,,,,,,,,,,,,,,,,,595.2994869000031,595.3158576000023,595.8158249000007,595.7992359000018,,,,,,,,,,,,,,,,,,,,,,595.8029406000023,595.8158249000007,595.8158249000007,595.8158249000007,598.8157039000034,598.8157039000034,598.8157039000034,598.7994829000017,shoe,f,2.2398474000001443,0.18542329999763751,598.801003200002,598.8010153000032,None,,,,,,,,,,,,,,00020,001,2025-11-08_18h04.13.718,MST_task,2024.2.2,60.01669664550638,2025-11-08 18h04.20.410595 +0530,
,Objects\091a.jpg,148,0,148,,,,,None,,,j,0.04609040000286768,None,,,,,148,0,148,0,598.8157039000034,,,,,,,,,,,,,,,,,,,,,,,598.8010674000034,598.8157039000034,599.3157553000019,599.2992200000008,,,,,,,,,,,,,,,,,,,,,,599.3015021000028,599.3157553000019,599.3157553000019,599.3157553000019,602.3156524000005,602.3156524000005,602.3156524000005,602.2991794000009,shoe,None,,,602.2992154000021,602.3660901000003,j,602.3156524000005,602.3156524000005,0.04609040000286768,None,,,,,,,,,,00020,001,2025-11-08_18h04.13.718,MST_task,2024.2.2,60.01669664550638,2025-11-08 18h04.20.410595 +0530,
,Objects\107a.jpg,149,0,149,,,,,j,1.5364092999989225,0.18437700000140467,None,,,,,,,149,0,149,0,602.3823112000027,,,,,,,,,,,,,,,,,,,,,,,602.3661851000033,602.3823112000027,602.8990077000017,602.8658393000005,,,,,,,,,,,,,,,,,,,,,,602.8848748000019,602.8990077000017,602.8990077000017,602.8990077000017,,,,605.8822745000034,shoe,j,1.5364092999989225,0.18437700000140467,605.8823120000015,605.8823222000028,None,,,,,,,,,,,,,,00020,001,2025-11-08_18h04.13.718,MST_task,2024.2.2,60.01669664550638,2025-11-08 18h04.20.410595 +0530,
,Objects\177a.jpg,150,0,150,,,,,j,1.4803973000016413,0.15669999999954598,None,,,,,,,150,0,150,0,605.8989086000001,,,,,,,,,,,,,,,,,,,,,,,605.882408700003,605.8989086000001,606.3988674000029,606.3824579000029,,,,,,,,,,,,,,,,,,,,,,606.3844528000009,606.3988674000029,606.3988674000029,606.3988674000029,609.3987467000006,609.3987467000006,609.3987467000006,609.3823242000035,shoe,j,1.4803973000016413,0.15669999999954598,609.3823561000027,609.3823655000015,None,,,,,,,,,,,,,,00020,001,2025-11-08_18h04.13.718,MST_task,2024.2.2,60.01669664550638,2025-11-08 18h04.20.410595 +0530,
,Objects\066a.jpg,151,0,151,,,,,j,1.476996400000644,0.17759269999805838,None,,,,,,,151,0,151,0,609.3987467000006,,,,,,,,,,,,,,,,,,,,,,,609.3824471000007,609.3987467000006,609.8987670000024,609.8822142000026,,,,,,,,,,,,,,,,,,,,,,609.8847736000025,609.8987670000024,609.8987670000024,609.8987670000024,612.8986748000025,612.8986748000025,612.8986748000025,612.8822631000003,shoe,j,1.476996400000644,0.17759269999805838,612.8822978000026,612.8823078000023,None,,,,,,,,,,,,,,00020,001,2025-11-08_18h04.13.718,MST_task,2024.2.2,60.01669664550638,2025-11-08 18h04.20.410595 +0530,
,Objects\010a.jpg,152,0,152,,,,,f,1.9937175000013667,0.17456529999981285,None,,,,,,,152,0,152,0,612.8986748000025,,,,,,,,,,,,,,,,,,,,,,,612.8823624000033,612.8986748000025,613.4153212000019,613.3821374000036,,,,,,,,,,,,,,,,,,,,,,613.4028444000032,613.4153212000019,613.4153212000019,613.4153212000019,,,,616.398649900002,shoe,f,1.9937175000013667,0.17456529999981285,616.3986967000019,616.3987063000022,None,,,,,,,,,,,,,,00020,001,2025-11-08_18h04.13.718,MST_task,2024.2.2,60.01669664550638,2025-11-08 18h04.20.410595 +0530,
,Objects\331a.jpg,153,0,153,,,,,None,,,j,0.41609430000244174,None,,,,,153,0,153,0,616.4152574000036,,,,,,,,,,,,,,,,,,,,,,,616.3987667000001,616.4152574000036,616.931875600003,616.8987288000026,,,,,,,,,,,,,,,,,,,,,,616.9230263000027,616.931875600003,616.931875600003,616.931875600003,,,,619.9152306000033,shoe,None,,,619.9152932000034,620.3488504000015,j,619.9318136000002,619.9318136000002,0.41609430000244174,None,,,,,,,,,,00020,001,2025-11-08_18h04.13.718,MST_task,2024.2.2,60.01669664550638,2025-11-08 18h04.20.410595 +0530,
,Objects\272a.jpg,154,0,154,,,,,f,2.2273143000020355,0.15720439999859082,None,,,,,,,154,0,154,0,620.3651702000025,,,,,,,,,,,,,,,,,,,,,,,620.3489248000005,620.3651702000025,620.8651546000001,620.8486539000005,,,,,,,,,,,,,,,,,,,,,,620.853899400001,620.8651546000001,620.8651546000001,620.8651546000001,623.8650922000015,623.8650922000015,623.8650922000015,623.848701400002,indoor,f,2.2273143000020355,0.15720439999859082,623.849864900003,623.8498770000006,None,,,,,,,,,,,,,,00020,001,2025-11-08_18h04.13.718,MST_task,2024.2.2,60.01669664550638,2025-11-08 18h04.20.410595 +0530,
,Objects\009a.jpg,155,0,155,,,,,None,,,f,0.8737268000004406,None,,,,,155,0,155,0,623.8650922000015,,,,,,,,,,,,,,,,,,,,,,,623.8499296000009,623.8650922000015,624.3817106000024,624.3485751000007,,,,,,,,,,,,,,,,,,,,,,624.3665253000036,624.3817106000024,624.3817106000024,624.3817106000024,,,,627.3651678000024,indoor,None,,,627.3651992000014,628.2652587000011,f,627.3817217000033,627.3817217000033,0.8737268000004406,None,,,,,,,,,,00020,001,2025-11-08_18h04.13.718,MST_task,2024.2.2,60.01669664550638,2025-11-08 18h04.20.410595 +0530,
,Objects\119a.jpg,156,0,156,,,,,j,2.6210709999977553,0.175380500000756,None,,,,,,,156,0,156,0,628.2816615000011,,,,,,,,,,,,,,,,,,,,,,,628.2653282000028,628.2816615000011,628.7983294000005,628.7651543000029,,,,,,,,,,,,,,,,,,,,,,628.7790664000022,628.7983294000005,628.7983294000005,628.7983294000005,,,,631.7816624000006,indoor,j,2.6210709999977553,0.175380500000756,631.781705100002,631.7817149000002,None,,,,,,,,,,,,,,00020,001,2025-11-08_18h04.13.718,MST_task,2024.2.2,60.01669664550638,2025-11-08 18h04.20.410595 +0530,
,Objects\346a.jpg,157,0,157,,,,,f,1.4317072000012558,0.19719459999760147,None,,,,,,,157,0,157,0,631.7982830000001,,,,,,,,,,,,,,,,,,,,,,,631.7817717000034,631.7982830000001,632.2982073000021,632.2818503000017,,,,,,,,,,,,,,,,,,,,,,632.2869777000014,632.2982073000021,632.2982073000021,632.2982073000021,635.2981964000028,635.2981964000028,635.2981964000028,635.2817125000001,indoor,f,1.4317072000012558,0.19719459999760147,635.2817435000034,635.2817522000005,None,,,,,,,,,,,,,,00020,001,2025-11-08_18h04.13.718,MST_task,2024.2.2,60.01669664550638,2025-11-08 18h04.20.410595 +0530,
,Objects\242a.jpg,158,0,158,,,,,f,1.744470800000272,0.17494710000028135,None,,,,,,,158,0,158,0,635.2981964000028,,,,,,,,,,,,,,,,,,,,,,,635.2818048000008,635.2981964000028,635.8148019,635.7817448000023,,,,,,,,,,,,,,,,,,,,,,635.8030777000022,635.8148019,635.8148019,635.8148019,,,,638.7981449000035,indoor,f,1.744470800000272,0.17494710000028135,638.7981991000015,638.7982089000034,None,,,,,,,,,,,,,,00020,001,2025-11-08_18h04.13.718,MST_task,2024.2.2,60.01669664550638,2025-11-08 18h04.20.410595 +0530,
,Objects\322a.jpg,159,0,159,,,,,f,2.2544655999990937,0.16688019999855896,None,,,,,,,159,0,159,0,638.8147654000022,,,,,,,,,,,,,,,,,,,,,,,638.7982684000017,638.8147654000022,639.3147140000001,639.2983235000029,,,,,,,,,,,,,,,,,,,,,,639.3036247000018,639.3147140000001,639.3147140000001,639.3147140000001,642.3146817000015,642.3146817000015,642.3146817000015,642.2984041000018,indoor,f,2.2544655999990937,0.16688019999855896,642.2984423000016,642.298451900002,None,,,,,,,,,,,,,,00020,001,2025-11-08_18h04.13.718,MST_task,2024.2.2,60.01669664550638,2025-11-08 18h04.20.410595 +0530,
,Objects\099a.jpg,160,0,160,,,,,None,,,j,0.07650450000073761,None,,,,,160,0,160,0,642.3146817000015,,,,,,,,,,,,,,,,,,,,,,,642.298512100002,642.3146817000015,642.8146339000014,642.7982289000029,,,,,,,,,,,,,,,,,,,,,,642.8033798000033,642.8146339000014,642.8146339000014,642.8146339000014,645.8146065000001,645.8146065000001,645.8146065000001,645.7982007000028,indoor,None,,,645.7982334000008,645.8982925000018,j,645.8146065000001,645.8146065000001,0.07650450000073761,None,,,,,,,,,,00020,001,2025-11-08_18h04.13.718,MST_task,2024.2.2,60.01669664550638,2025-11-08 18h04.20.410595 +0530,
,Objects\123a.jpg,161,0,161,,,,,None,,,j,0.11685609999767621,None,,,,,161,0,161,0,645.9146015000006,,,,,,,,,,,,,,,,,,,,,,,645.8983583000008,645.9146015000006,646.4312279000005,646.3981350000031,,,,,,,,,,,,,,,,,,,,,,646.4214826000025,646.4312279000005,646.4312279000005,646.4312279000005,,,,649.4145903000026,shoe,None,,,649.4163290000033,649.5647613000001,j,649.4311726000014,649.4311726000014,0.11685609999767621,None,,,,,,,,,,00020,001,2025-11-08_18h04.13.718,MST_task,2024.2.2,60.01669664550638,2025-11-08 18h04.20.410595 +0530,
