thisN,thisTrialN,thisRepN,key_resp_3.keys,key_resp_3.rt,key_resp_3.duration,trials.thisRepN,trials.thisTrialN,trials.thisN,trials.thisIndex,thisRow.t,notes,intro_page.started,text.started,key_resp.started,intro_page.stopped,key_resp.keys,key_resp.rt,key_resp.duration,instructions.started,text_2.started,key_resp_2.started,instructions.stopped,key_resp_2.keys,key_resp_2.rt,key_resp_2.duration,demo1.started,image_1.started,image_2.started,text_7.started,key_resp_6.started,text_9.started,demo1.stopped,key_resp_6.keys,key_resp_6.rt,key_resp_6.duration,demo3.started,image_5.started,image_6.started,text_11.started,text_12.started,key_resp_8.started,demo3.stopped,key_resp_8.keys,key_resp_8.rt,key_resp_8.duration,demo_conclusion.started,text_13.started,key_resp_9.started,demo_conclusion.stopped,key_resp_9.keys,key_resp_9.rt,key_resp_9.duration,start_test.started,text_6.started,key_resp_5.started,start_test.stopped,key_resp_5.keys,key_resp_5.rt,key_resp_5.duration,ISI.started,text_4.started,text_4.stopped,ISI.stopped,routine_1.started,image.started,text_3.started,key_resp_3.started,routine_1.stopped,image_path,position_of_stimuli,trials.key_resp_3.keys,trials.key_resp_3.rt,trials.key_resp_3.duration,End_page.started,text_5.started,key_resp_4.started,End_page.stopped,key_resp_4.keys,key_resp_4.rt,key_resp_4.duration,participant,session,date,expName,psychopyVersion,frameRate,expStart,
,,,,,,,,,,,,0.014099899999564514,0.03045909999491414,0.03045909999491414,3.282084799997392,space,3.2411756999936188,None,,,,,,,,,,,,,,,,,,,,,,,,,,,,,,,,,,,,,,,,,,,,,,,,,,,,,,,,,,,,,,,00021,001,2025-11-08_21h59.32.852,MST_test,2024.2.2,60.00297614844986,2025-11-08 21h59.37.045994 +0530,
,,,,,,,,,,,,,,,,,,,3.2821146999995108,3.297141399998509,3.297141399998509,15.380517799996596,space,12.079960399998527,None,,,,,,,,,,,,,,,,,,,,,,,,,,,,,,,,,,,,,,,,,,,,,,,,,,,,,,,,00021,001,2025-11-08_21h59.32.852,MST_test,2024.2.2,60.00297614844986,2025-11-08 21h59.37.045994 +0530,
,,,,,,,,,,,,,,,,,,,,,,,,,,15.380542899998545,15.396802799994475,15.396802799994475,15.396802799994475,15.396802799994475,15.396802799994475,21.89706739999383,space,6.488465800000995,None,,,,,,,,,,,,,,,,,,,,,,,,,,,,,,,,,,,,,,,,,,,,,,00021,001,2025-11-08_21h59.32.852,MST_test,2024.2.2,60.00297614844986,2025-11-08 21h59.37.045994 +0530,
,,,,,,,,,,,,,,,,,,,,,,,,,,,,,,,,,,,,21.897096999993664,21.913344399996276,21.913344399996276,21.913344399996276,21.913344399996276,21.913344399996276,23.71360559999448,space,1.796350500000699,None,,,,,,,,,,,,,,,,,,,,,,,,,,,,,,,,,,,,00021,001,2025-11-08_21h59.32.852,MST_test,2024.2.2,60.00297614844986,2025-11-08 21h59.37.045994 +0530,
,,,,,,,,,,,,,,,,,,,,,,,,,,,,,,,,,,,,,,,,,,,,,,23.713626299999305,23.729989199993724,23.729989199993724,33.380186700000195,space,9.642745500001183,None,,,,,,,,,,,,,,,,,,,,,,,,,,,,,00021,001,2025-11-08_21h59.32.852,MST_test,2024.2.2,60.00297614844986,2025-11-08 21h59.37.045994 +0530,
,,,,,,,,,,,,,,,,,,,,,,,,,,,,,,,,,,,,,,,,,,,,,,,,,,,,,33.38022259999707,33.39641379999375,33.39641379999375,42.89646889999858,space,9.488198499995633,None,,,,,,,,,,,,,,,,,,,,,,00021,001,2025-11-08_21h59.32.852,MST_test,2024.2.2,60.00297614844986,2025-11-08 21h59.37.045994 +0530,
0,0,0,s,8.648257300003024,None,0,0,0,0,42.91297229999327,,,,,,,,,,,,,,,,,,,,,,,,,,,,,,,,,,,,,,,,,,,,,,,,,,42.89896609999414,42.91297229999327,43.429561099997954,43.39650139999867,43.420213099998364,43.429561099997954,43.429561099997954,43.429561099997954,52.079680899994855,Objects\257b.jpg,mid,s,8.648257300003024,None,,,,,,,,00021,001,2025-11-08_21h59.32.852,MST_test,2024.2.2,60.00297614844986,2025-11-08 21h59.37.045994 +0530,
1,0,1,o,7.00887029999285,None,1,0,1,0,52.0960386999941,,,,,,,,,,,,,,,,,,,,,,,,,,,,,,,,,,,,,,,,,,,,,,,,,,52.07977549999487,52.0960386999941,52.61288419999619,52.579530699993484,52.59790459999931,52.61288419999619,52.61288419999619,52.61288419999619,59.629633899996406,Objects\071b.jpg,mid,o,7.00887029999285,None,,,,,,,,00021,001,2025-11-08_21h59.32.852,MST_test,2024.2.2,60.00297614844986,2025-11-08 21h59.37.045994 +0530,
2,0,2,o,1.5251901000010548,None,2,0,2,0,59.64590539999335,,,,,,,,,,,,,,,,,,,,,,,,,,,,,,,,,,,,,,,,,,,,,,,,,,59.62973249999777,59.64590539999335,60.145822899998166,60.12944779999816,60.131773399996746,60.145822899998166,60.145822899998166,60.145822899998166,61.67944489999354,Objects\077a.jpg,mid,o,1.5251901000010548,None,,,,,,,,00021,001,2025-11-08_21h59.32.852,MST_test,2024.2.2,60.00297614844986,2025-11-08 21h59.37.045994 +0530,
3,0,3,n,1.6733101999998325,None,3,0,3,0,61.695825899994816,,,,,,,,,,,,,,,,,,,,,,,,,,,,,,,,,,,,,,,,,,,,,,,,,,61.67952199999854,61.695825899994816,62.195779899993795,62.17940449999878,62.18160839999473,62.195779899993795,62.195779899993795,62.195779899993795,63.87944179999613,Foils\058a.jpg,none,n,1.6733101999998325,None,,,,,,,,00021,001,2025-11-08_21h59.32.852,MST_test,2024.2.2,60.00297614844986,2025-11-08 21h59.37.045994 +0530,
4,0,4,o,1.4419838999965577,None,4,0,4,0,63.89574939999875,,,,,,,,,,,,,,,,,,,,,,,,,,,,,,,,,,,,,,,,,,,,,,,,,,63.879525899996224,63.89574939999875,64.39590639999369,64.37926940000034,64.38390239999717,64.39590639999369,64.39590639999369,64.39590639999369,65.84608379999554,Objects\315a.jpg,post,o,1.4419838999965577,None,,,,,,,,00021,001,2025-11-08_21h59.32.852,MST_test,2024.2.2,60.00297614844986,2025-11-08 21h59.37.045994 +0530,
5,0,5,n,2.47984870000073,None,5,0,5,0,65.86244369999622,,,,,,,,,,,,,,,,,,,,,,,,,,,,,,,,,,,,,,,,,,,,,,,,,,65.84617649999564,65.86244369999622,66.3623937999946,66.34587389999797,66.3509630999979,66.3623937999946,66.3623937999946,66.3623937999946,68.84601899999689,Foils\074a.jpg,none,n,2.47984870000073,None,,,,,,,,00021,001,2025-11-08_21h59.32.852,MST_test,2024.2.2,60.00297614844986,2025-11-08 21h59.37.045994 +0530,
6,0,6,s,2.419159500001115,None,6,0,6,0,68.86233769999671,,,,,,,,,,,,,,,,,,,,,,,,,,,,,,,,,,,,,,,,,,,,,,,,,,68.84610629999952,68.86233769999671,69.362295299994,69.34579599999415,69.34773909999785,69.362295299994,69.362295299994,69.362295299994,71.79593359999853,Objects\376a.jpg,post,s,2.419159500001115,None,,,,,,,,00021,001,2025-11-08_21h59.32.852,MST_test,2024.2.2,60.00297614844986,2025-11-08 21h59.37.045994 +0530,
7,0,7,s,1.4388238999963505,None,7,0,7,0,71.81227659999422,,,,,,,,,,,,,,,,,,,,,,,,,,,,,,,,,,,,,,,,,,,,,,,,,,71.79601469999761,71.81227659999422,72.36232039999595,72.29585959999531,72.35216070000024,72.36232039999595,72.36232039999595,72.36232039999595,73.81253139999899,Objects\231b.jpg,post,s,1.4388238999963505,None,,,,,,,,00021,001,2025-11-08_21h59.32.852,MST_test,2024.2.2,60.00297614844986,2025-11-08 21h59.37.045994 +0530,
8,0,8,n,3.844856499999878,None,8,0,8,0,73.82889219999925,,,,,,,,,,,,,,,,,,,,,,,,,,,,,,,,,,,,,,,,,,,,,,,,,,73.81261759999325,73.82889219999925,74.32884539999941,74.31246539999847,74.31767859999673,74.32884539999941,74.32884539999941,74.32884539999941,78.17919129999791,Objects\295a.jpg,post,n,3.844856499999878,None,,,,,,,,00021,001,2025-11-08_21h59.32.852,MST_test,2024.2.2,60.00297614844986,2025-11-08 21h59.37.045994 +0530,
9,0,9,s,2.5133782000048086,None,9,0,9,0,78.19548809999833,,,,,,,,,,,,,,,,,,,,,,,,,,,,,,,,,,,,,,,,,,,,,,,,,,78.17926710000029,78.19548809999833,78.71211829999811,78.67907909999485,78.69607679999899,78.71211829999811,78.71211829999811,78.71211829999811,81.22910219999903,Objects\056b.jpg,mid,s,2.5133782000048086,None,,,,,,,,00021,001,2025-11-08_21h59.32.852,MST_test,2024.2.2,60.00297614844986,2025-11-08 21h59.37.045994 +0530,
10,0,10,n,3.482384099996125,None,10,0,10,0,81.24538869999378,,,,,,,,,,,,,,,,,,,,,,,,,,,,,,,,,,,,,,,,,,,,,,,,,,81.22918349999964,81.24538869999378,81.74538789999497,81.72885680000036,81.73079949999374,81.74538789999497,81.74538789999497,81.74538789999497,85.228944399998,Foils\066a.jpg,none,n,3.482384099996125,None,,,,,,,,00021,001,2025-11-08_21h59.32.852,MST_test,2024.2.2,60.00297614844986,2025-11-08 21h59.37.045994 +0530,
11,0,11,s,1.7884096000052523,None,11,0,11,0,85.24530379999487,,,,,,,,,,,,,,,,,,,,,,,,,,,,,,,,,,,,,,,,,,,,,,,,,,85.22902329999488,85.24530379999487,85.74529729999631,85.72887599999376,85.73100829999748,85.74529729999631,85.74529729999631,85.74529729999631,87.54568499999732,Foils\086a.jpg,none,s,1.7884096000052523,None,,,,,,,,00021,001,2025-11-08_21h59.32.852,MST_test,2024.2.2,60.00297614844986,2025-11-08 21h59.37.045994 +0530,
12,0,12,s,1.246547200003988,None,12,0,12,0,87.56188719999773,,,,,,,,,,,,,,,,,,,,,,,,,,,,,,,,,,,,,,,,,,,,,,,,,,87.54577099999733,87.56188719999773,88.07854579999548,88.04547959999763,88.05944109999837,88.07854579999548,88.07854579999548,88.07854579999548,89.32898379999824,Objects\346b.jpg,post,s,1.246547200003988,None,,,,,,,,00021,001,2025-11-08_21h59.32.852,MST_test,2024.2.2,60.00297614844986,2025-11-08 21h59.37.045994 +0530,
13,0,13,o,2.5276355000023614,None,13,0,13,0,89.34521989999485,,,,,,,,,,,,,,,,,,,,,,,,,,,,,,,,,,,,,,,,,,,,,,,,,,89.3290640999985,89.34521989999485,89.8618423999942,89.82874420000007,89.8506938999999,89.8618423999942,89.8618423999942,89.8618423999942,92.39545309999812,Objects\329b.jpg,mid,o,2.5276355000023614,None,,,,,,,,00021,001,2025-11-08_21h59.32.852,MST_test,2024.2.2,60.00297614844986,2025-11-08 21h59.37.045994 +0530,
14,0,14,o,1.675766599997587,None,14,0,14,0,92.4117827999944,,,,,,,,,,,,,,,,,,,,,,,,,,,,,,,,,,,,,,,,,,,,,,,,,,92.39553339999838,92.4117827999944,92.91184959999373,92.89531519999582,92.90220849999605,92.91184959999373,92.91184959999373,92.91184959999373,94.59534969999368,Objects\214b.jpg,post,o,1.675766599997587,None,,,,,,,,00021,001,2025-11-08_21h59.32.852,MST_test,2024.2.2,60.00297614844986,2025-11-08 21h59.37.045994 +0530,
15,0,15,n,2.891885800003365,None,15,0,15,0,94.61173679999774,,,,,,,,,,,,,,,,,,,,,,,,,,,,,,,,,,,,,,,,,,,,,,,,,,94.59542939999665,94.61173679999774,95.11172439999791,95.09523349999654,95.10078699999576,95.11172439999791,95.11172439999791,95.11172439999791,98.01203030000033,Objects\347a.jpg,pre,n,2.891885800003365,None,,,,,,,,00021,001,2025-11-08_21h59.32.852,MST_test,2024.2.2,60.00297614844986,2025-11-08 21h59.37.045994 +0530,
16,0,16,o,1.7394551999968826,None,16,0,16,0,98.0283660999994,,,,,,,,,,,,,,,,,,,,,,,,,,,,,,,,,,,,,,,,,,,,,,,,,,98.01211179999518,98.0283660999994,98.52831729999889,98.51179909999337,98.51378509999631,98.52831729999889,98.52831729999889,98.52831729999889,100.27867519999563,Objects\157a.jpg,pre,o,1.7394551999968826,None,,,,,,,,00021,001,2025-11-08_21h59.32.852,MST_test,2024.2.2,60.00297614844986,2025-11-08 21h59.37.045994 +0530,
17,0,17,n,2.3468067000067094,None,17,0,17,0,100.29494100000011,,,,,,,,,,,,,,,,,,,,,,,,,,,,,,,,,,,,,,,,,,,,,,,,,,100.27875829999539,100.29494100000011,100.7949673999974,100.77858809999452,100.78059479999501,100.7949673999974,100.7949673999974,100.7949673999974,103.14535859999887,Objects\166b.jpg,post,n,2.3468067000067094,None,,,,,,,,00021,001,2025-11-08_21h59.32.852,MST_test,2024.2.2,60.00297614844986,2025-11-08 21h59.37.045994 +0530,
18,0,18,n,1.1860985000021174,None,18,0,18,0,103.16158399999404,,,,,,,,,,,,,,,,,,,,,,,,,,,,,,,,,,,,,,,,,,,,,,,,,,103.14543209999829,103.16158399999404,103.66153519999352,103.64503879999393,103.64724049999495,103.66153519999352,103.66153519999352,103.66153519999352,104.86182790000021,Foils\098a.jpg,none,n,1.1860985000021174,None,,,,,,,,00021,001,2025-11-08_21h59.32.852,MST_test,2024.2.2,60.00297614844986,2025-11-08 21h59.37.045994 +0530,
19,0,19,s,3.7131336000020383,None,19,0,19,0,104.87807789999351,,,,,,,,,,,,,,,,,,,,,,,,,,,,,,,,,,,,,,,,,,,,,,,,,,104.8619081999932,104.87807789999351,105.37832809999964,105.36186159999488,105.36372049999773,105.37832809999964,105.37832809999964,105.37832809999964,109.09508449999703,Foils\113a.jpg,none,s,3.7131336000020383,None,,,,,,,,00021,001,2025-11-08_21h59.32.852,MST_test,2024.2.2,60.00297614844986,2025-11-08 21h59.37.045994 +0530,
20,0,20,n,1.2137208999993163,None,20,0,20,0,109.11144579999382,,,,,,,,,,,,,,,,,,,,,,,,,,,,,,,,,,,,,,,,,,,,,,,,,,109.09516809999332,109.11144579999382,109.61144689999492,109.5949593999976,109.59726599999703,109.61144689999492,109.61144689999492,109.61144689999492,110.82847369999945,Foils\090a.jpg,none,n,1.2137208999993163,None,,,,,,,,00021,001,2025-11-08_21h59.32.852,MST_test,2024.2.2,60.00297614844986,2025-11-08 21h59.37.045994 +0530,
21,0,21,s,1.2031349999961094,None,21,0,21,0,110.84474439999758,,,,,,,,,,,,,,,,,,,,,,,,,,,,,,,,,,,,,,,,,,,,,,,,,,110.82855029999337,110.84474439999758,111.34471599999961,111.32833789999859,111.33031119999941,111.34471599999961,111.34471599999961,111.34471599999961,112.56180769999628,Objects\047a.jpg,mid,s,1.2031349999961094,None,,,,,,,,00021,001,2025-11-08_21h59.32.852,MST_test,2024.2.2,60.00297614844986,2025-11-08 21h59.37.045994 +0530,
22,0,22,s,2.9492085999954725,None,22,0,22,0,112.57804459999898,,,,,,,,,,,,,,,,,,,,,,,,,,,,,,,,,,,,,,,,,,,,,,,,,,112.56189189999714,112.57804459999898,113.07799449999584,113.06158959999448,113.06552789999841,113.07799449999584,113.07799449999584,113.07799449999584,116.02828210000007,Objects\208a.jpg,pre,s,2.9492085999954725,None,,,,,,,,00021,001,2025-11-08_21h59.32.852,MST_test,2024.2.2,60.00297614844986,2025-11-08 21h59.37.045994 +0530,
23,0,23,n,4.833273899996129,None,23,0,23,0,116.0446637999994,,,,,,,,,,,,,,,,,,,,,,,,,,,,,,,,,,,,,,,,,,,,,,,,,,116.02837539999746,116.0446637999994,116.54458799999702,116.52825589999702,116.53295989999606,116.54458799999702,116.54458799999702,116.54458799999702,121.37832329999947,Objects\249a.jpg,mid,n,4.833273899996129,None,,,,,,,,00021,001,2025-11-08_21h59.32.852,MST_test,2024.2.2,60.00297614844986,2025-11-08 21h59.37.045994 +0530,
24,0,24,n,1.119273999996949,None,24,0,24,0,121.39451529999496,,,,,,,,,,,,,,,,,,,,,,,,,,,,,,,,,,,,,,,,,,,,,,,,,,121.37839919999533,121.39451529999496,121.89446899999894,121.8780856999947,121.88342849999754,121.89446899999894,121.89446899999894,121.89446899999894,123.0281673999998,Foils\017a.jpg,none,n,1.119273999996949,None,,,,,,,,00021,001,2025-11-08_21h59.32.852,MST_test,2024.2.2,60.00297614844986,2025-11-08 21h59.37.045994 +0530,
25,0,25,s,1.4041072000036365,None,25,0,25,0,123.04451589999371,,,,,,,,,,,,,,,,,,,,,,,,,,,,,,,,,,,,,,,,,,,,,,,,,,123.02825259999372,123.04451589999371,123.56110209999315,123.52794409999478,123.54614539999602,123.56110209999315,123.56110209999315,123.56110209999315,124.97810489999392,Objects\356b.jpg,pre,s,1.4041072000036365,None,,,,,,,,00021,001,2025-11-08_21h59.32.852,MST_test,2024.2.2,60.00297614844986,2025-11-08 21h59.37.045994 +0530,
26,0,26,o,1.7592334000000847,None,26,0,26,0,124.99444089999452,,,,,,,,,,,,,,,,,,,,,,,,,,,,,,,,,,,,,,,,,,,,,,,,,,124.97818199999892,124.99444089999452,125.49438699999882,125.47793470000033,125.48290289999568,125.49438699999882,125.49438699999882,125.49438699999882,127.26146279999375,Objects\043a.jpg,mid,o,1.7592334000000847,None,,,,,,,,00021,001,2025-11-08_21h59.32.852,MST_test,2024.2.2,60.00297614844986,2025-11-08 21h59.37.045994 +0530,
27,0,27,o,3.958155499996792,None,27,0,27,0,127.27771379999467,,,,,,,,,,,,,,,,,,,,,,,,,,,,,,,,,,,,,,,,,,,,,,,,,,127.26154619999579,127.27771379999467,127.77767839999433,127.7613069999934,127.76595299999462,127.77767839999433,127.77767839999433,127.77767839999433,131.74462389999826,Objects\332b.jpg,post,o,3.958155499996792,None,,,,,,,,00021,001,2025-11-08_21h59.32.852,MST_test,2024.2.2,60.00297614844986,2025-11-08 21h59.37.045994 +0530,
28,0,28,o,2.438062000001082,None,28,0,28,0,131.76095069999428,,,,,,,,,,,,,,,,,,,,,,,,,,,,,,,,,,,,,,,,,,,,,,,,,,131.74469979999412,131.76095069999428,132.26092219999555,132.24445279999782,132.25211560000025,132.26092219999555,132.26092219999555,132.26092219999555,134.71125929999835,Objects\227a.jpg,pre,o,2.438062000001082,None,,,,,,,,00021,001,2025-11-08_21h59.32.852,MST_test,2024.2.2,60.00297614844986,2025-11-08 21h59.37.045994 +0530,
29,0,29,n,1.2678568999981508,None,29,0,29,0,134.7275573999941,,,,,,,,,,,,,,,,,,,,,,,,,,,,,,,,,,,,,,,,,,,,,,,,,,134.71134359999996,134.7275573999941,135.22751539999445,135.21112009999342,135.21335889999318,135.22751539999445,135.22751539999445,135.22751539999445,136.5111551999944,Foils\101b.jpg,none,n,1.2678568999981508,None,,,,,,,,00021,001,2025-11-08_21h59.32.852,MST_test,2024.2.2,60.00297614844986,2025-11-08 21h59.37.045994 +0530,
30,0,30,n,0.825215400000161,None,30,0,30,0,136.52752099999634,,,,,,,,,,,,,,,,,,,,,,,,,,,,,,,,,,,,,,,,,,,,,,,,,,136.5112297999949,136.52752099999634,137.04418619999342,137.01108099999692,137.0261862999978,137.04418619999342,137.04418619999342,137.04418619999342,137.87784639999882,Objects\178b.jpg,pre,n,0.825215400000161,None,,,,,,,,00021,001,2025-11-08_21h59.32.852,MST_test,2024.2.2,60.00297614844986,2025-11-08 21h59.37.045994 +0530,
31,0,31,o,1.261348399995768,None,31,0,31,0,137.8941579999955,,,,,,,,,,,,,,,,,,,,,,,,,,,,,,,,,,,,,,,,,,,,,,,,,,137.87792239999544,137.8941579999955,138.39410709999356,138.37771249999787,138.37970269999641,138.39410709999356,138.39410709999356,138.39410709999356,139.6611830999973,Objects\173b.jpg,post,o,1.261348399995768,None,,,,,,,,00021,001,2025-11-08_21h59.32.852,MST_test,2024.2.2,60.00297614844986,2025-11-08 21h59.37.045994 +0530,
32,0,32,s,1.0383333999998285,None,32,0,32,0,139.67745069999364,,,,,,,,,,,,,,,,,,,,,,,,,,,,,,,,,,,,,,,,,,,,,,,,,,139.66126509999594,139.67745069999364,140.17744709999533,140.16098929999862,140.16353039999376,140.17744709999533,140.17744709999533,140.17744709999533,141.22782419999567,Objects\275b.jpg,mid,s,1.0383333999998285,None,,,,,,,,00021,001,2025-11-08_21h59.32.852,MST_test,2024.2.2,60.00297614844986,2025-11-08 21h59.37.045994 +0530,
33,0,33,s,4.6675831000029575,None,33,0,33,0,141.24407979999523,,,,,,,,,,,,,,,,,,,,,,,,,,,,,,,,,,,,,,,,,,,,,,,,,,141.2279012999934,141.24407979999523,141.74412379999558,141.72766569999658,141.73113519999606,141.74412379999558,141.74412379999558,141.74412379999558,146.42765359999612,Objects\326a.jpg,post,s,4.6675831000029575,None,,,,,,,,00021,001,2025-11-08_21h59.32.852,MST_test,2024.2.2,60.00297614844986,2025-11-08 21h59.37.045994 +0530,
34,0,34,o,1.5336248000021442,None,34,0,34,0,146.4439715999979,,,,,,,,,,,,,,,,,,,,,,,,,,,,,,,,,,,,,,,,,,,,,,,,,,146.4277277999936,146.4439715999979,146.94391519999772,146.92745149999973,146.9327312999958,146.94391519999772,146.94391519999772,146.94391519999772,148.49427229999856,Objects\265a.jpg,pre,o,1.5336248000021442,None,,,,,,,,00021,001,2025-11-08_21h59.32.852,MST_test,2024.2.2,60.00297614844986,2025-11-08 21h59.37.045994 +0530,
35,0,35,s,1.3864490000050864,None,35,0,35,0,148.5105900999988,,,,,,,,,,,,,,,,,,,,,,,,,,,,,,,,,,,,,,,,,,,,,,,,,,148.49434729999484,148.5105900999988,149.01056309999694,148.99422269999923,148.99943809999968,149.01056309999694,149.01056309999694,149.01056309999694,150.41100359999837,Foils\065a.jpg,none,s,1.3864490000050864,None,,,,,,,,00021,001,2025-11-08_21h59.32.852,MST_test,2024.2.2,60.00297614844986,2025-11-08 21h59.37.045994 +0530,
36,0,36,s,1.3800331000020378,None,36,0,36,0,150.4272146000003,,,,,,,,,,,,,,,,,,,,,,,,,,,,,,,,,,,,,,,,,,,,,,,,,,150.41107699999702,150.4272146000003,150.92716509999445,150.91076210000028,150.91955009999947,150.92716509999445,150.92716509999445,150.92716509999445,152.3109217999954,Objects\267b.jpg,post,s,1.3800331000020378,None,,,,,,,,00021,001,2025-11-08_21h59.32.852,MST_test,2024.2.2,60.00297614844986,2025-11-08 21h59.37.045994 +0530,
37,0,37,s,2.4363778999977512,None,37,0,37,0,152.32721999999922,,,,,,,,,,,,,,,,,,,,,,,,,,,,,,,,,,,,,,,,,,,,,,,,,,152.3110069999966,152.32721999999922,152.82715629999439,152.81080319999455,152.81518749999668,152.82715629999439,152.82715629999439,152.82715629999439,155.2775202999983,Objects\230a.jpg,pre,s,2.4363778999977512,None,,,,,,,,00021,001,2025-11-08_21h59.32.852,MST_test,2024.2.2,60.00297614844986,2025-11-08 21h59.37.045994 +0530,
38,0,38,n,1.190839800001413,None,38,0,38,0,155.29377159999422,,,,,,,,,,,,,,,,,,,,,,,,,,,,,,,,,,,,,,,,,,,,,,,,,,155.27760439999838,155.29377159999422,155.79377179999574,155.77721689999453,155.78097479999997,155.79377179999574,155.79377179999574,155.79377179999574,156.99400979999336,Foils\f5.jpg,none,n,1.190839800001413,None,,,,,,,,00021,001,2025-11-08_21h59.32.852,MST_test,2024.2.2,60.00297614844986,2025-11-08 21h59.37.045994 +0530,
39,0,39,s,1.3551908000008552,None,39,0,39,0,157.01040759999887,,,,,,,,,,,,,,,,,,,,,,,,,,,,,,,,,,,,,,,,,,,,,,,,,,156.9940912999955,157.01040759999887,157.51035599999886,157.4939735999942,157.49887549999403,157.51035599999886,157.51035599999886,157.51035599999886,158.87738119999995,Objects\331b.jpg,post,s,1.3551908000008552,None,,,,,,,,00021,001,2025-11-08_21h59.32.852,MST_test,2024.2.2,60.00297614844986,2025-11-08 21h59.37.045994 +0530,
40,0,40,o,1.4785594999993918,None,40,0,40,0,158.89369520000037,,,,,,,,,,,,,,,,,,,,,,,,,,,,,,,,,,,,,,,,,,,,,,,,,,158.8774642999997,158.89369520000037,159.39368799999647,159.37716689999797,159.37931969999772,159.39368799999647,159.39368799999647,159.39368799999647,160.87720689999696,Objects\091a.jpg,post,o,1.4785594999993918,None,,,,,,,,00021,001,2025-11-08_21h59.32.852,MST_test,2024.2.2,60.00297614844986,2025-11-08 21h59.37.045994 +0530,
41,0,41,o,1.2582292000006419,None,41,0,41,0,160.89364360000036,,,,,,,,,,,,,,,,,,,,,,,,,,,,,,,,,,,,,,,,,,,,,,,,,,160.87728719999723,160.89364360000036,161.39364759999444,161.37707249999949,161.38092699999834,161.39364759999444,161.39364759999444,161.39364759999444,162.66061009999976,Objects\292a.jpg,pre,o,1.2582292000006419,None,,,,,,,,00021,001,2025-11-08_21h59.32.852,MST_test,2024.2.2,60.00297614844986,2025-11-08 21h59.37.045994 +0530,
42,0,42,o,1.2962885000015376,None,42,0,42,0,162.67699249999714,,,,,,,,,,,,,,,,,,,,,,,,,,,,,,,,,,,,,,,,,,,,,,,,,,162.66069229999994,162.67699249999714,163.17689830000018,163.16049659999408,163.16547489999357,163.17689830000018,163.17689830000018,163.17689830000018,164.47733369999332,Objects\186a.jpg,pre,o,1.2962885000015376,None,,,,,,,,00021,001,2025-11-08_21h59.32.852,MST_test,2024.2.2,60.00297614844986,2025-11-08 21h59.37.045994 +0530,
43,0,43,s,2.7494335000010324,None,43,0,43,0,164.49354669999593,,,,,,,,,,,,,,,,,,,,,,,,,,,,,,,,,,,,,,,,,,,,,,,,,,164.47741969999333,164.49354669999593,164.9935572999966,164.97719629999483,164.9793056999988,164.9935572999966,164.9935572999966,164.9935572999966,167.74377219999587,Objects\317b.jpg,pre,s,2.7494335000010324,None,,,,,,,,00021,001,2025-11-08_21h59.32.852,MST_test,2024.2.2,60.00297614844986,2025-11-08 21h59.37.045994 +0530,
44,0,44,s,0.9571005999969202,None,44,0,44,0,167.7601649999997,,,,,,,,,,,,,,,,,,,,,,,,,,,,,,,,,,,,,,,,,,,,,,,,,,167.7438519999996,167.7601649999997,168.27681709999888,168.24373719999858,168.26034199999413,168.27681709999888,168.27681709999888,168.27681709999888,169.24382409999816,Objects\279b.jpg,pre,s,0.9571005999969202,None,,,,,,,,00021,001,2025-11-08_21h59.32.852,MST_test,2024.2.2,60.00297614844986,2025-11-08 21h59.37.045994 +0530,
45,0,45,o,2.489505999998073,None,45,0,45,0,169.2601039999936,,,,,,,,,,,,,,,,,,,,,,,,,,,,,,,,,,,,,,,,,,,,,,,,,,169.2439058999953,169.2601039999936,169.76009239999985,169.74366919999738,169.74792189999425,169.76009239999985,169.76009239999985,169.76009239999985,172.26037429999997,Objects\284b.jpg,pre,o,2.489505999998073,None,,,,,,,,00021,001,2025-11-08_21h59.32.852,MST_test,2024.2.2,60.00297614844986,2025-11-08 21h59.37.045994 +0530,
46,0,46,s,1.246387200000754,None,46,0,46,0,172.2767326999965,,,,,,,,,,,,,,,,,,,,,,,,,,,,,,,,,,,,,,,,,,,,,,,,,,172.26045479999448,172.2767326999965,172.77668929999345,172.7603059999965,172.76578759999393,172.77668929999345,172.77668929999345,172.77668929999345,174.0271156999952,Objects\370a.jpg,mid,s,1.246387200000754,None,,,,,,,,00021,001,2025-11-08_21h59.32.852,MST_test,2024.2.2,60.00297614844986,2025-11-08 21h59.37.045994 +0530,
47,0,47,o,1.5741724999970756,None,47,0,47,0,174.04336769999645,,,,,,,,,,,,,,,,,,,,,,,,,,,,,,,,,,,,,,,,,,,,,,,,,,174.02718999999342,174.04336769999645,174.54332099999738,174.52695899999526,174.52910469999915,174.54332099999738,174.54332099999738,174.54332099999738,176.12706509999407,Objects\112a.jpg,post,o,1.5741724999970756,None,,,,,,,,00021,001,2025-11-08_21h59.32.852,MST_test,2024.2.2,60.00297614844986,2025-11-08 21h59.37.045994 +0530,
48,0,48,n,1.2981918000004953,None,48,0,48,0,176.14332349999313,,,,,,,,,,,,,,,,,,,,,,,,,,,,,,,,,,,,,,,,,,,,,,,,,,176.12715039999603,176.14332349999313,176.64329679999355,176.62679459999345,176.62900429999718,176.64329679999355,176.64329679999355,176.64329679999355,177.94368689999828,Foils\082a.jpg,none,n,1.2981918000004953,None,,,,,,,,00021,001,2025-11-08_21h59.32.852,MST_test,2024.2.2,60.00297614844986,2025-11-08 21h59.37.045994 +0530,
49,0,49,s,1.379000699998869,None,49,0,49,0,177.95995019999827,,,,,,,,,,,,,,,,,,,,,,,,,,,,,,,,,,,,,,,,,,,,,,,,,,177.943769599995,177.95995019999827,178.4598904999948,178.44343109999318,178.44554139999673,178.4598904999948,178.4598904999948,178.4598904999948,179.8436389999988,Objects\048b.jpg,pre,s,1.379000699998869,None,,,,,,,,00021,001,2025-11-08_21h59.32.852,MST_test,2024.2.2,60.00297614844986,2025-11-08 21h59.37.045994 +0530,
50,0,50,o,2.131510300001537,None,50,0,50,0,179.85990049999964,,,,,,,,,,,,,,,,,,,,,,,,,,,,,,,,,,,,,,,,,,,,,,,,,,179.84372019999864,179.85990049999964,180.35985859999346,180.3434719999932,180.34551289999945,180.35985859999346,180.35985859999346,180.35985859999346,182.4935669999977,Objects\029a.jpg,mid,o,2.131510300001537,None,,,,,,,,00021,001,2025-11-08_21h59.32.852,MST_test,2024.2.2,60.00297614844986,2025-11-08 21h59.37.045994 +0530,
51,0,51,n,1.0967567000043346,None,51,0,51,0,182.5098538999955,,,,,,,,,,,,,,,,,,,,,,,,,,,,,,,,,,,,,,,,,,,,,,,,,,182.4936466999934,182.5098538999955,183.00987129999703,182.99337179999566,182.9953039999964,183.00987129999703,183.00987129999703,183.00987129999703,184.110199499999,Foils\121a.jpg,none,n,1.0967567000043346,None,,,,,,,,00021,001,2025-11-08_21h59.32.852,MST_test,2024.2.2,60.00297614844986,2025-11-08 21h59.37.045994 +0530,
52,0,52,o,1.214906000001065,None,52,0,52,0,184.12644129999535,,,,,,,,,,,,,,,,,,,,,,,,,,,,,,,,,,,,,,,,,,,,,,,,,,184.11028259999875,184.12644129999535,184.62643129999924,184.60999259999517,184.61202419999609,184.62643129999924,184.62643129999924,184.62643129999924,185.8435440999965,Objects\160a.jpg,post,o,1.214906000001065,None,,,,,,,,00021,001,2025-11-08_21h59.32.852,MST_test,2024.2.2,60.00297614844986,2025-11-08 21h59.37.045994 +0530,
53,0,53,o,1.067798899995978,None,53,0,53,0,185.85977309999726,,,,,,,,,,,,,,,,,,,,,,,,,,,,,,,,,,,,,,,,,,,,,,,,,,185.84362969999347,185.85977309999726,186.35972059999767,186.3433401999937,186.34552229999827,186.35972059999767,186.35972059999767,186.35972059999767,187.44345389999944,Objects\023b.jpg,pre,o,1.067798899995978,None,,,,,,,,00021,001,2025-11-08_21h59.32.852,MST_test,2024.2.2,60.00297614844986,2025-11-08 21h59.37.045994 +0530,
54,0,54,o,2.49066650000168,None,54,0,54,0,187.45973939999385,,,,,,,,,,,,,,,,,,,,,,,,,,,,,,,,,,,,,,,,,,,,,,,,,,187.4435372999942,187.45973939999385,187.97635420000006,187.94332429999486,187.96740709999722,187.97635420000006,187.97635420000006,187.97635420000006,190.4767101999969,Objects\310b.jpg,post,o,2.49066650000168,None,,,,,,,,00021,001,2025-11-08_21h59.32.852,MST_test,2024.2.2,60.00297614844986,2025-11-08 21h59.37.045994 +0530,
55,0,55,n,1.2450262999991537,None,55,0,55,0,190.4929966999989,,,,,,,,,,,,,,,,,,,,,,,,,,,,,,,,,,,,,,,,,,,,,,,,,,190.4767955999996,190.4929966999989,190.99295199999324,190.97658019999653,190.98174099999596,190.99295199999324,190.99295199999324,190.99295199999324,192.24338179999904,Foils\073a.jpg,none,n,1.2450262999991537,None,,,,,,,,00021,001,2025-11-08_21h59.32.852,MST_test,2024.2.2,60.00297614844986,2025-11-08 21h59.37.045994 +0530,
56,0,56,o,1.2075133999969694,None,56,0,56,0,192.25963149999734,,,,,,,,,,,,,,,,,,,,,,,,,,,,,,,,,,,,,,,,,,,,,,,,,,192.24346639999567,192.25963149999734,192.75964819999353,192.7431390999991,192.7449919999999,192.75964819999353,192.75964819999353,192.75964819999353,193.97665459999553,Objects\334a.jpg,post,o,1.2075133999969694,None,,,,,,,,00021,001,2025-11-08_21h59.32.852,MST_test,2024.2.2,60.00297614844986,2025-11-08 21h59.37.045994 +0530,
57,0,57,s,1.0627829000004567,None,57,0,57,0,193.99292019999848,,,,,,,,,,,,,,,,,,,,,,,,,,,,,,,,,,,,,,,,,,,,,,,,,,193.97673389999545,193.99292019999848,194.49287859999458,194.47639759999583,194.47827659999894,194.49287859999458,194.49287859999458,194.49287859999458,195.55985599999985,Foils\042a.jpg,none,s,1.0627829000004567,None,,,,,,,,00021,001,2025-11-08_21h59.32.852,MST_test,2024.2.2,60.00297614844986,2025-11-08 21h59.37.045994 +0530,
58,0,58,s,1.1737071000025026,None,58,0,58,0,195.57622109999647,,,,,,,,,,,,,,,,,,,,,,,,,,,,,,,,,,,,,,,,,,,,,,,,,,195.55993599999783,195.57622109999647,196.07618059999368,196.0597557000001,196.06149439999717,196.07618059999368,196.07618059999368,196.07618059999368,197.25989739999932,Objects\206b.jpg,mid,s,1.1737071000025026,None,,,,,,,,00021,001,2025-11-08_21h59.32.852,MST_test,2024.2.2,60.00297614844986,2025-11-08 21h59.37.045994 +0530,
59,0,59,s,1.1190537000002223,None,59,0,59,0,197.27618729999813,,,,,,,,,,,,,,,,,,,,,,,,,,,,,,,,,,,,,,,,,,,,,,,,,,197.25998499999696,197.27618729999813,197.79280609999842,197.7597483999998,197.77675579999777,197.79280609999842,197.79280609999842,197.79280609999842,198.92641699999513,Objects\286b.jpg,pre,s,1.1190537000002223,None,,,,,,,,00021,001,2025-11-08_21h59.32.852,MST_test,2024.2.2,60.00297614844986,2025-11-08 21h59.37.045994 +0530,
60,0,60,s,1.1487037999977474,None,60,0,60,0,198.94277819999843,,,,,,,,,,,,,,,,,,,,,,,,,,,,,,,,,,,,,,,,,,,,,,,,,,198.9264927999975,198.94277819999843,199.4428037999969,199.42635339999833,199.43155649999972,199.4428037999969,199.4428037999969,199.4428037999969,200.59321209999325,Foils\050a.jpg,none,s,1.1487037999977474,None,,,,,,,,00021,001,2025-11-08_21h59.32.852,MST_test,2024.2.2,60.00297614844986,2025-11-08 21h59.37.045994 +0530,
61,0,61,n,2.1741738000055193,None,61,0,61,0,200.6094477999941,,,,,,,,,,,,,,,,,,,,,,,,,,,,,,,,,,,,,,,,,,,,,,,,,,200.59329389999766,200.6094477999941,201.10941559999628,201.09300090000033,201.09512469999754,201.10941559999628,201.10941559999628,201.10941559999628,203.2930819999965,Foils\026a.jpg,none,n,2.1741738000055193,None,,,,,,,,00021,001,2025-11-08_21h59.32.852,MST_test,2024.2.2,60.00297614844986,2025-11-08 21h59.37.045994 +0530,
62,0,62,s,1.6171610999954282,None,62,0,62,0,203.30937869999616,,,,,,,,,,,,,,,,,,,,,,,,,,,,,,,,,,,,,,,,,,,,,,,,,,203.29317089999677,203.30937869999616,203.82603430000017,203.792918799998,203.8057090000002,203.82603430000017,203.82603430000017,203.82603430000017,205.45963449999545,Objects\181b.jpg,post,s,1.6171610999954282,None,,,,,,,,00021,001,2025-11-08_21h59.32.852,MST_test,2024.2.2,60.00297614844986,2025-11-08 21h59.37.045994 +0530,
63,0,63,s,1.223089600003732,None,63,0,63,0,205.47600099999545,,,,,,,,,,,,,,,,,,,,,,,,,,,,,,,,,,,,,,,,,,,,,,,,,,205.45970809999562,205.47600099999545,205.9926359999954,205.95946679999906,205.9789019999953,205.9926359999954,205.9926359999954,205.9926359999954,207.22629959999904,Objects\290b.jpg,post,s,1.223089600003732,None,,,,,,,,00021,001,2025-11-08_21h59.32.852,MST_test,2024.2.2,60.00297614844986,2025-11-08 21h59.37.045994 +0530,
64,0,64,o,2.3005271000001812,None,64,0,64,0,207.24263269999938,,,,,,,,,,,,,,,,,,,,,,,,,,,,,,,,,,,,,,,,,,,,,,,,,,207.22637539999414,207.24263269999938,207.74258649999683,207.72615669999504,207.73159679999662,207.74258649999683,207.74258649999683,207.74258649999683,210.05958729999838,Objects\187a.jpg,mid,o,2.3005271000001812,None,,,,,,,,00021,001,2025-11-08_21h59.32.852,MST_test,2024.2.2,60.00297614844986,2025-11-08 21h59.37.045994 +0530,
65,0,65,s,1.4114004000002751,None,65,0,65,0,210.0759140999944,,,,,,,,,,,,,,,,,,,,,,,,,,,,,,,,,,,,,,,,,,,,,,,,,,210.05966739999712,210.0759140999944,210.5925730999952,210.55947480000032,210.5819579999952,210.5925730999952,210.5925730999952,210.5925730999952,212.0095061999964,Objects\309b.jpg,mid,s,1.4114004000002751,None,,,,,,,,00021,001,2025-11-08_21h59.32.852,MST_test,2024.2.2,60.00297614844986,2025-11-08 21h59.37.045994 +0530,
66,0,66,s,1.4686010000004899,None,66,0,66,0,212.0258676999947,,,,,,,,,,,,,,,,,,,,,,,,,,,,,,,,,,,,,,,,,,,,,,,,,,212.00958009999886,212.0258676999947,212.55921419999504,212.50940529999934,212.5141869999934,212.55921419999504,212.55921419999504,212.55921419999504,214.04286579999462,Objects\086a.jpg,mid,s,1.4686010000004899,None,,,,,,,,00021,001,2025-11-08_21h59.32.852,MST_test,2024.2.2,60.00297614844986,2025-11-08 21h59.37.045994 +0530,
67,0,67,n,2.474271300001419,None,67,0,67,0,214.05914559999655,,,,,,,,,,,,,,,,,,,,,,,,,,,,,,,,,,,,,,,,,,,,,,,,,,214.04295719999936,214.05914559999655,214.55913599999622,214.54269699999713,214.54512459999387,214.55913599999622,214.55913599999622,214.55913599999622,217.0427647999968,Foils\002a.jpg,none,n,2.474271300001419,None,,,,,,,,00021,001,2025-11-08_21h59.32.852,MST_test,2024.2.2,60.00297614844986,2025-11-08 21h59.37.045994 +0530,
68,0,68,s,1.4441571999996086,None,68,0,68,0,217.05908049999562,,,,,,,,,,,,,,,,,,,,,,,,,,,,,,,,,,,,,,,,,,,,,,,,,,217.04285289999825,217.05908049999562,217.5590763999935,217.54267579999578,217.54462229999626,217.5590763999935,217.5590763999935,217.5590763999935,219.00940309999714,Objects\049a.jpg,post,s,1.4441571999996086,None,,,,,,,,00021,001,2025-11-08_21h59.32.852,MST_test,2024.2.2,60.00297614844986,2025-11-08 21h59.37.045994 +0530,
69,0,69,s,1.6129816000029678,None,69,0,69,0,219.02571029999672,,,,,,,,,,,,,,,,,,,,,,,,,,,,,,,,,,,,,,,,,,,,,,,,,,219.00947789999918,219.02571029999672,219.5423676999999,219.5092422999951,219.531410399999,219.5423676999999,219.5423676999999,219.5423676999999,221.1593697999997,Objects\382b.jpg,mid,s,1.6129816000029678,None,,,,,,,,00021,001,2025-11-08_21h59.32.852,MST_test,2024.2.2,60.00297614844986,2025-11-08 21h59.37.045994 +0530,
70,0,70,s,1.9320630000001984,None,70,0,70,0,221.17562819999876,,,,,,,,,,,,,,,,,,,,,,,,,,,,,,,,,,,,,,,,,,,,,,,,,,221.15945599999395,221.17562819999876,221.67562149999867,221.6592466000002,221.6661129999993,221.67562149999867,221.67562149999867,221.67562149999867,223.60936849999416,Objects\297a.jpg,pre,s,1.9320630000001984,None,,,,,,,,00021,001,2025-11-08_21h59.32.852,MST_test,2024.2.2,60.00297614844986,2025-11-08 21h59.37.045994 +0530,
71,0,71,n,4.17610440000135,None,71,0,71,0,223.6256052999961,,,,,,,,,,,,,,,,,,,,,,,,,,,,,,,,,,,,,,,,,,,,,,,,,,223.6094524999935,223.6256052999961,224.12556389999372,224.1091654999982,224.11219499999424,224.12556389999372,224.12556389999372,224.12556389999372,228.3092519999991,Foils\f7.jpg,none,n,4.17610440000135,None,,,,,,,,00021,001,2025-11-08_21h59.32.852,MST_test,2024.2.2,60.00297614844986,2025-11-08 21h59.37.045994 +0530,
72,0,72,n,0.8283305000004475,None,72,0,72,0,228.3255194999947,,,,,,,,,,,,,,,,,,,,,,,,,,,,,,,,,,,,,,,,,,,,,,,,,,228.30934219999472,228.3255194999947,228.82546569999977,228.80900959999417,228.81428379999852,228.82546569999977,228.82546569999977,228.82546569999977,229.65921239999443,Foils\081a.jpg,none,n,0.8283305000004475,None,,,,,,,,00021,001,2025-11-08_21h59.32.852,MST_test,2024.2.2,60.00297614844986,2025-11-08 21h59.37.045994 +0530,
73,0,73,s,4.585773799997696,None,73,0,73,0,229.67547909999848,,,,,,,,,,,,,,,,,,,,,,,,,,,,,,,,,,,,,,,,,,,,,,,,,,229.65929469999537,229.67547909999848,230.19213019999734,230.15904449999653,230.1720079999941,230.19213019999734,230.19213019999734,230.19213019999734,234.7924927999993,Objects\073b.jpg,pre,s,4.585773799997696,None,,,,,,,,00021,001,2025-11-08_21h59.32.852,MST_test,2024.2.2,60.00297614844986,2025-11-08 21h59.37.045994 +0530,
74,0,74,o,0.9625700000033248,None,74,0,74,0,234.80867739999667,,,,,,,,,,,,,,,,,,,,,,,,,,,,,,,,,,,,,,,,,,,,,,,,,,234.7925796999989,234.80867739999667,235.30868709999777,235.29216879999876,235.29455020000023,235.30868709999777,235.30868709999777,235.30868709999777,236.27569939999375,Objects\341a.jpg,post,o,0.9625700000033248,None,,,,,,,,00021,001,2025-11-08_21h59.32.852,MST_test,2024.2.2,60.00297614844986,2025-11-08 21h59.37.045994 +0530,
75,0,75,s,1.3791702000016812,None,75,0,75,0,236.29199779999908,,,,,,,,,,,,,,,,,,,,,,,,,,,,,,,,,,,,,,,,,,,,,,,,,,236.27578209999774,236.29199779999908,236.79199769999832,236.775533299995,236.77761639999517,236.79199769999832,236.79199769999832,236.79199769999832,238.1756774999958,Objects\033b.jpg,post,s,1.3791702000016812,None,,,,,,,,00021,001,2025-11-08_21h59.32.852,MST_test,2024.2.2,60.00297614844986,2025-11-08 21h59.37.045994 +0530,
76,0,76,s,1.7115323999969405,None,76,0,76,0,238.19195419999596,,,,,,,,,,,,,,,,,,,,,,,,,,,,,,,,,,,,,,,,,,,,,,,,,,238.17575439999928,238.19195419999596,238.69191419999697,238.6754946000001,238.6773808999933,238.69191419999697,238.69191419999697,238.69191419999697,240.4088319999937,Objects\041b.jpg,pre,s,1.7115323999969405,None,,,,,,,,00021,001,2025-11-08_21h59.32.852,MST_test,2024.2.2,60.00297614844986,2025-11-08 21h59.37.045994 +0530,
77,0,77,s,0.9367490000004182,None,77,0,77,0,240.42524259999482,,,,,,,,,,,,,,,,,,,,,,,,,,,,,,,,,,,,,,,,,,,,,,,,,,240.40891479999846,240.42524259999482,240.92481669999688,240.9087392999936,240.91825049999898,240.92481669999688,240.92481669999688,240.92481669999688,241.87554739999905,Objects\126b.jpg,mid,s,0.9367490000004182,None,,,,,,,,00021,001,2025-11-08_21h59.32.852,MST_test,2024.2.2,60.00297614844986,2025-11-08 21h59.37.045994 +0530,
78,0,78,s,1.1874390999946627,None,78,0,78,0,241.8918640999982,,,,,,,,,,,,,,,,,,,,,,,,,,,,,,,,,,,,,,,,,,,,,,,,,,241.8756293999977,241.8918640999982,242.39182699999947,242.37539669999387,242.37759439999354,242.39182699999947,242.39182699999947,242.39182699999947,243.59223089999432,Objects\282b.jpg,pre,s,1.1874390999946627,None,,,,,,,,00021,001,2025-11-08_21h59.32.852,MST_test,2024.2.2,60.00297614844986,2025-11-08 21h59.37.045994 +0530,
79,0,79,n,1.2545077999966452,None,79,0,79,0,243.60848429999896,,,,,,,,,,,,,,,,,,,,,,,,,,,,,,,,,,,,,,,,,,,,,,,,,,243.5923049999983,243.60848429999896,244.12516809999943,244.0919827999969,244.11176129999512,244.12516809999943,244.12516809999943,244.12516809999943,245.3921551999956,Foils\009a.jpg,none,n,1.2545077999966452,None,,,,,,,,00021,001,2025-11-08_21h59.32.852,MST_test,2024.2.2,60.00297614844986,2025-11-08 21h59.37.045994 +0530,
80,0,80,n,1.7334814999994705,None,80,0,80,0,245.40849329999764,,,,,,,,,,,,,,,,,,,,,,,,,,,,,,,,,,,,,,,,,,,,,,,,,,245.39223719999427,245.40849329999764,245.90846379999857,245.89199629999348,245.89412959999754,245.90846379999857,245.90846379999857,245.90846379999857,247.64227729999402,Objects\128b.jpg,post,n,1.7334814999994705,None,,,,,,,,00021,001,2025-11-08_21h59.32.852,MST_test,2024.2.2,60.00297614844986,2025-11-08 21h59.37.045994 +0530,
81,0,81,n,1.0410279000061564,None,81,0,81,0,247.65837859999738,,,,,,,,,,,,,,,,,,,,,,,,,,,,,,,,,,,,,,,,,,,,,,,,,,247.64235499999631,247.65837859999738,248.17504269999336,248.14197619999322,248.16348639999342,248.17504269999336,248.17504269999336,248.17504269999336,249.22542009999597,Objects\162b.jpg,mid,n,1.0410279000061564,None,,,,,,,,00021,001,2025-11-08_21h59.32.852,MST_test,2024.2.2,60.00297614844986,2025-11-08 21h59.37.045994 +0530,
82,0,82,n,1.4935536999983015,None,82,0,82,0,249.24170949999825,,,,,,,,,,,,,,,,,,,,,,,,,,,,,,,,,,,,,,,,,,,,,,,,,,249.2255054999987,249.24170949999825,249.7417040999935,249.72545659999741,249.7273900999935,249.7417040999935,249.7417040999935,249.7417040999935,251.24193519999972,Objects\016a.jpg,pre,n,1.4935536999983015,None,,,,,,,,00021,001,2025-11-08_21h59.32.852,MST_test,2024.2.2,60.00297614844986,2025-11-08 21h59.37.045994 +0530,
83,0,83,n,1.5233981999990647,None,83,0,83,0,251.25833639999473,,,,,,,,,,,,,,,,,,,,,,,,,,,,,,,,,,,,,,,,,,,,,,,,,,251.24201319999702,251.25833639999473,251.75829249999515,251.741872599996,251.74516569999832,251.75829249999515,251.75829249999515,251.75829249999515,253.2920121999996,Foils\f6.jpg,none,n,1.5233981999990647,None,,,,,,,,00021,001,2025-11-08_21h59.32.852,MST_test,2024.2.2,60.00297614844986,2025-11-08 21h59.37.045994 +0530,
84,0,84,o,1.2228041999987909,None,84,0,84,0,253.30829439999798,,,,,,,,,,,,,,,,,,,,,,,,,,,,,,,,,,,,,,,,,,,,,,,,,,253.29209699999774,253.30829439999798,253.80824179999763,253.79184779999923,253.79686930000025,253.80824179999763,253.80824179999763,253.80824179999763,255.0419269999984,Objects\057a.jpg,pre,o,1.2228041999987909,None,,,,,,,,00021,001,2025-11-08_21h59.32.852,MST_test,2024.2.2,60.00297614844986,2025-11-08 21h59.37.045994 +0530,
85,0,85,o,2.2332183999969857,None,85,0,85,0,255.05825170000026,,,,,,,,,,,,,,,,,,,,,,,,,,,,,,,,,,,,,,,,,,,,,,,,,,255.04201029999967,255.05825170000026,255.55820319999475,255.54182869999931,255.54395079999813,255.55820319999475,255.55820319999475,255.55820319999475,257.7919858999958,Objects\050b.jpg,pre,o,2.2332183999969857,None,,,,,,,,00021,001,2025-11-08_21h59.32.852,MST_test,2024.2.2,60.00297614844986,2025-11-08 21h59.37.045994 +0530,
86,0,86,o,4.323249900000519,None,86,0,86,0,257.8081899999961,,,,,,,,,,,,,,,,,,,,,,,,,,,,,,,,,,,,,,,,,,,,,,,,,,257.7920701999974,257.8081899999961,258.3081477999949,258.2918170999983,258.2940718999962,258.3081477999949,258.3081477999949,258.3081477999949,262.6417201000004,Objects\066b.jpg,pre,o,4.323249900000519,None,,,,,,,,00021,001,2025-11-08_21h59.32.852,MST_test,2024.2.2,60.00297614844986,2025-11-08 21h59.37.045994 +0530,
87,0,87,s,1.133462400001008,None,87,0,87,0,262.65810090000014,,,,,,,,,,,,,,,,,,,,,,,,,,,,,,,,,,,,,,,,,,,,,,,,,,262.64180539999506,262.65810090000014,263.1580866999939,263.14152099999774,263.1469389999984,263.1580866999939,263.1580866999939,263.1580866999939,264.29187249999814,Objects\256a.jpg,mid,s,1.133462400001008,None,,,,,,,,00021,001,2025-11-08_21h59.32.852,MST_test,2024.2.2,60.00297614844986,2025-11-08 21h59.37.045994 +0530,
88,0,88,s,1.9716327000060119,None,88,0,88,0,264.30805909999617,,,,,,,,,,,,,,,,,,,,,,,,,,,,,,,,,,,,,,,,,,,,,,,,,,264.29195009999967,264.30805909999617,264.80802949999634,264.79156439999497,264.79691900000034,264.80802949999634,264.80802949999634,264.80802949999634,266.791704999996,Objects\052a.jpg,pre,s,1.9716327000060119,None,,,,,,,,00021,001,2025-11-08_21h59.32.852,MST_test,2024.2.2,60.00297614844986,2025-11-08 21h59.37.045994 +0530,
89,0,89,s,2.1954043000005186,None,89,0,89,0,266.80800619999354,,,,,,,,,,,,,,,,,,,,,,,,,,,,,,,,,,,,,,,,,,,,,,,,,,266.7917873999977,266.80800619999354,267.3079521999971,267.2914829000001,267.2935065999991,267.3079521999971,267.3079521999971,267.3079521999971,269.508273499996,Objects\191a.jpg,post,s,2.1954043000005186,None,,,,,,,,00021,001,2025-11-08_21h59.32.852,MST_test,2024.2.2,60.00297614844986,2025-11-08 21h59.37.045994 +0530,
90,0,90,s,1.118211599998176,None,90,0,90,0,269.524611599998,,,,,,,,,,,,,,,,,,,,,,,,,,,,,,,,,,,,,,,,,,,,,,,,,,269.5083586999972,269.524611599998,270.0412575999944,270.0081680000003,270.0304853999987,270.0412575999944,270.0412575999944,270.0412575999944,271.174900799997,Objects\003b.jpg,post,s,1.118211599998176,None,,,,,,,,00021,001,2025-11-08_21h59.32.852,MST_test,2024.2.2,60.00297614844986,2025-11-08 21h59.37.045994 +0530,
91,0,91,n,2.0681795999989845,None,91,0,91,0,271.1912310999978,,,,,,,,,,,,,,,,,,,,,,,,,,,,,,,,,,,,,,,,,,,,,,,,,,271.1749729000003,271.1912310999978,271.69118999999773,271.6748047999936,271.6768426999988,271.69118999999773,271.69118999999773,271.69118999999773,273.77488049999374,Foils\093b.jpg,none,n,2.0681795999989845,None,,,,,,,,00021,001,2025-11-08_21h59.32.852,MST_test,2024.2.2,60.00297614844986,2025-11-08 21h59.37.045994 +0530,
92,0,92,o,1.1323537999996915,None,92,0,92,0,273.79118009999365,,,,,,,,,,,,,,,,,,,,,,,,,,,,,,,,,,,,,,,,,,,,,,,,,,273.77495319999434,273.79118009999365,274.2911335999961,274.274734599996,274.27991610000026,274.2911335999961,274.2911335999961,274.2911335999961,275.4248654999974,Objects\306a.jpg,post,o,1.1323537999996915,None,,,,,,,,00021,001,2025-11-08_21h59.32.852,MST_test,2024.2.2,60.00297614844986,2025-11-08 21h59.37.045994 +0530,
93,0,93,o,1.2918847999972058,None,93,0,93,0,275.4411375999989,,,,,,,,,,,,,,,,,,,,,,,,,,,,,,,,,,,,,,,,,,,,,,,,,,275.4249522999962,275.4411375999989,275.9577963999982,275.92471349999687,275.9440426999936,275.9577963999982,275.9577963999982,275.9577963999982,277.25817099999404,Objects\375b.jpg,mid,o,1.2918847999972058,None,,,,,,,,00021,001,2025-11-08_21h59.32.852,MST_test,2024.2.2,60.00297614844986,2025-11-08 21h59.37.045994 +0530,
94,0,94,s,2.106091900001047,None,94,0,94,0,277.27439779999986,,,,,,,,,,,,,,,,,,,,,,,,,,,,,,,,,,,,,,,,,,,,,,,,,,277.2582534999965,277.27439779999986,277.79105459999846,277.7579321999947,277.7812497999985,277.79105459999846,277.79105459999846,277.79105459999846,279.90806619999785,Objects\296b.jpg,pre,s,2.106091900001047,None,,,,,,,,00021,001,2025-11-08_21h59.32.852,MST_test,2024.2.2,60.00297614844986,2025-11-08 21h59.37.045994 +0530,
95,0,95,n,1.254091699993296,None,95,0,95,0,279.9243442999941,,,,,,,,,,,,,,,,,,,,,,,,,,,,,,,,,,,,,,,,,,,,,,,,,,279.9081384999954,279.9243442999941,280.44098629999644,280.40791029999673,280.4352346999949,280.44098629999644,280.44098629999644,280.44098629999644,281.7080333999984,Objects\228b.jpg,pre,n,1.254091699993296,None,,,,,,,,00021,001,2025-11-08_21h59.32.852,MST_test,2024.2.2,60.00297614844986,2025-11-08 21h59.37.045994 +0530,
96,0,96,o,1.543675400003849,None,96,0,96,0,281.7243036,,,,,,,,,,,,,,,,,,,,,,,,,,,,,,,,,,,,,,,,,,,,,,,,,,281.708114699999,281.7243036,282.22431289999804,282.2078576999993,282.2123422999939,282.22431289999804,282.22431289999804,282.22431289999804,283.7746917999975,Objects\224b.jpg,pre,o,1.543675400003849,None,,,,,,,,00021,001,2025-11-08_21h59.32.852,MST_test,2024.2.2,60.00297614844986,2025-11-08 21h59.37.045994 +0530,
97,0,97,s,1.4124557000031928,None,97,0,97,0,283.7909632999945,,,,,,,,,,,,,,,,,,,,,,,,,,,,,,,,,,,,,,,,,,,,,,,,,,283.77477449999424,283.7909632999945,284.30758519999654,284.2745808999971,284.2909351999988,284.30758519999654,284.30758519999654,284.30758519999654,285.724635999999,Objects\333b.jpg,post,s,1.4124557000031928,None,,,,,,,,00021,001,2025-11-08_21h59.32.852,MST_test,2024.2.2,60.00297614844986,2025-11-08 21h59.37.045994 +0530,
98,0,98,o,1.2761991000006674,None,98,0,98,0,285.74091589999443,,,,,,,,,,,,,,,,,,,,,,,,,,,,,,,,,,,,,,,,,,,,,,,,,,285.7247148999959,285.74091589999443,286.24086279999756,286.2244688999999,286.2292398999998,286.24086279999756,286.24086279999756,286.24086279999756,287.5246876999954,Objects\201a.jpg,post,o,1.2761991000006674,None,,,,,,,,00021,001,2025-11-08_21h59.32.852,MST_test,2024.2.2,60.00297614844986,2025-11-08 21h59.37.045994 +0530,
99,0,99,s,1.7957863999981782,None,99,0,99,0,287.54088639999827,,,,,,,,,,,,,,,,,,,,,,,,,,,,,,,,,,,,,,,,,,,,,,,,,,287.52476549999847,287.54088639999827,288.04083349999564,288.0245036999986,288.02964669999346,288.04083349999564,288.04083349999564,288.04083349999564,289.8411804999996,Foils\049a.jpg,none,s,1.7957863999981782,None,,,,,,,,00021,001,2025-11-08_21h59.32.852,MST_test,2024.2.2,60.00297614844986,2025-11-08 21h59.37.045994 +0530,
100,0,100,s,1.2072641999984626,None,100,0,100,0,289.8574909999952,,,,,,,,,,,,,,,,,,,,,,,,,,,,,,,,,,,,,,,,,,,,,,,,,,289.84126339999784,289.8574909999952,290.37415879999753,290.34108249999554,290.3648782999953,290.37415879999753,290.37415879999753,290.37415879999753,291.59111629999825,Objects\278b.jpg,mid,s,1.2072641999984626,None,,,,,,,,00021,001,2025-11-08_21h59.32.852,MST_test,2024.2.2,60.00297614844986,2025-11-08 21h59.37.045994 +0530,
101,0,101,s,1.2961513999980525,None,101,0,101,0,291.6075383999996,,,,,,,,,,,,,,,,,,,,,,,,,,,,,,,,,,,,,,,,,,,,,,,,,,291.59119539999665,291.6075383999996,292.10756109999784,292.0909522000002,292.09546599999885,292.10756109999784,292.10756109999784,292.10756109999784,293.4079230999996,Objects\338a.jpg,post,s,1.2961513999980525,None,,,,,,,,00021,001,2025-11-08_21h59.32.852,MST_test,2024.2.2,60.00297614844986,2025-11-08 21h59.37.045994 +0530,
102,0,102,o,2.5933481999963988,None,102,0,102,0,293.4241638999956,,,,,,,,,,,,,,,,,,,,,,,,,,,,,,,,,,,,,,,,,,,,,,,,,,293.4080116999976,293.4241638999956,293.92413939999824,293.9076509999941,293.9133201999939,293.92413939999824,293.92413939999824,293.92413939999824,296.5244758999979,Objects\063a.jpg,pre,o,2.5933481999963988,None,,,,,,,,00021,001,2025-11-08_21h59.32.852,MST_test,2024.2.2,60.00297614844986,2025-11-08 21h59.37.045994 +0530,
103,0,103,s,4.138453599996865,None,103,0,103,0,296.5407370999965,,,,,,,,,,,,,,,,,,,,,,,,,,,,,,,,,,,,,,,,,,,,,,,,,,296.52455349999946,296.5407370999965,297.0573912999971,297.02426659999765,297.0473253999953,297.0573912999971,297.0573912999971,297.0573912999971,301.20761279999715,Objects\225b.jpg,pre,s,4.138453599996865,None,,,,,,,,00021,001,2025-11-08_21h59.32.852,MST_test,2024.2.2,60.00297614844986,2025-11-08 21h59.37.045994 +0530,
104,0,104,s,1.1489170999993803,None,104,0,104,0,301.22402209999564,,,,,,,,,,,,,,,,,,,,,,,,,,,,,,,,,,,,,,,,,,,,,,,,,,301.2076898999949,301.22402209999564,301.7239780999953,301.7074119999961,301.7129769999956,301.7239780999953,301.7239780999953,301.7239780999953,302.874332899999,Objects\152a.jpg,pre,s,1.1489170999993803,None,,,,,,,,00021,001,2025-11-08_21h59.32.852,MST_test,2024.2.2,60.00297614844986,2025-11-08 21h59.37.045994 +0530,
105,0,105,o,1.5075630000064848,None,105,0,105,0,302.8906633999941,,,,,,,,,,,,,,,,,,,,,,,,,,,,,,,,,,,,,,,,,,,,,,,,,,302.8744093999994,302.8906633999941,303.39059689999704,303.374189999995,303.37702100000024,303.39059689999704,303.39059689999704,303.39059689999704,304.9074963999956,Objects\298a.jpg,pre,o,1.5075630000064848,None,,,,,,,,00021,001,2025-11-08_21h59.32.852,MST_test,2024.2.2,60.00297614844986,2025-11-08 21h59.37.045994 +0530,
106,0,106,n,1.1087318999998388,None,106,0,106,0,304.92391489999864,,,,,,,,,,,,,,,,,,,,,,,,,,,,,,,,,,,,,,,,,,,,,,,,,,304.90757719999965,304.92391489999864,305.4405501000001,305.407366499996,305.42367199999717,305.4405501000001,305.4405501000001,305.4405501000001,306.55763759999536,Objects\107b.jpg,post,n,1.1087318999998388,None,,,,,,,,00021,001,2025-11-08_21h59.32.852,MST_test,2024.2.2,60.00297614844986,2025-11-08 21h59.37.045994 +0530,
107,0,107,n,1.3991010000027018,None,107,0,107,0,306.57391139999527,,,,,,,,,,,,,,,,,,,,,,,,,,,,,,,,,,,,,,,,,,,,,,,,,,306.5577126999997,306.57391139999527,307.0738638999974,307.05735479999566,307.0598200999957,307.0738638999974,307.0738638999974,307.0738638999974,308.47430679999525,Foils\106a.jpg,none,n,1.3991010000027018,None,,,,,,,,00021,001,2025-11-08_21h59.32.852,MST_test,2024.2.2,60.00297614844986,2025-11-08 21h59.37.045994 +0530,
108,0,108,s,2.225633599999128,None,108,0,108,0,308.4905029999936,,,,,,,,,,,,,,,,,,,,,,,,,,,,,,,,,,,,,,,,,,,,,,,,,,308.47438809999585,308.4905029999936,308.9904585999975,308.97408749999886,308.976877299996,308.9904585999975,308.9904585999975,308.9904585999975,311.22401319999335,Objects\179a.jpg,post,s,2.225633599999128,None,,,,,,,,00021,001,2025-11-08_21h59.32.852,MST_test,2024.2.2,60.00297614844986,2025-11-08 21h59.37.045994 +0530,
109,0,109,o,1.1231802000038442,None,109,0,109,0,311.24044319999666,,,,,,,,,,,,,,,,,,,,,,,,,,,,,,,,,,,,,,,,,,,,,,,,,,311.22408949999954,311.24044319999666,311.7404589999933,311.72387249999883,311.72632619999786,311.7404589999933,311.7404589999933,311.7404589999933,312.8742481999943,Objects\035a.jpg,post,o,1.1231802000038442,None,,,,,,,,00021,001,2025-11-08_21h59.32.852,MST_test,2024.2.2,60.00297614844986,2025-11-08 21h59.37.045994 +0530,
110,0,110,n,2.174863499996718,None,110,0,110,0,312.89044259999355,,,,,,,,,,,,,,,,,,,,,,,,,,,,,,,,,,,,,,,,,,,,,,,,,,312.8743194999988,312.89044259999355,313.3903577999954,313.3739390999981,313.37655039999663,313.3903577999954,313.3903577999954,313.3903577999954,315.57405079999444,Foils\034a.jpg,none,n,2.174863499996718,None,,,,,,,,00021,001,2025-11-08_21h59.32.852,MST_test,2024.2.2,60.00297614844986,2025-11-08 21h59.37.045994 +0530,
111,0,111,o,1.4713798999946448,None,111,0,111,0,315.5903512999939,,,,,,,,,,,,,,,,,,,,,,,,,,,,,,,,,,,,,,,,,,,,,,,,,,315.5741326999996,315.5903512999939,316.0903036999953,316.07381239999813,316.0762027999954,316.0903036999953,316.0903036999953,316.0903036999953,317.5739797999995,Objects\301a.jpg,post,o,1.4713798999946448,None,,,,,,,,00021,001,2025-11-08_21h59.32.852,MST_test,2024.2.2,60.00297614844986,2025-11-08 21h59.37.045994 +0530,
112,0,112,s,1.1334018999987165,None,112,0,112,0,317.5903008999958,,,,,,,,,,,,,,,,,,,,,,,,,,,,,,,,,,,,,,,,,,,,,,,,,,317.5740607999978,317.5903008999958,318.0902621999994,318.0738496999984,318.0836888999984,318.0902621999994,318.0902621999994,318.0902621999994,319.2240857999932,Objects\104b.jpg,mid,s,1.1334018999987165,None,,,,,,,,00021,001,2025-11-08_21h59.32.852,MST_test,2024.2.2,60.00297614844986,2025-11-08 21h59.37.045994 +0530,
113,0,113,s,1.0532789999997476,None,113,0,113,0,319.2402423999956,,,,,,,,,,,,,,,,,,,,,,,,,,,,,,,,,,,,,,,,,,,,,,,,,,319.22417219999625,319.2402423999956,319.7404303999938,319.7236864999941,319.7260918999964,319.7404303999938,319.7404303999938,319.7404303999938,320.8072683999999,Objects\106a.jpg,mid,s,1.0532789999997476,None,,,,,,,,00021,001,2025-11-08_21h59.32.852,MST_test,2024.2.2,60.00297614844986,2025-11-08 21h59.37.045994 +0530,
114,0,114,o,1.1826173000008566,None,114,0,114,0,320.8236007999949,,,,,,,,,,,,,,,,,,,,,,,,,,,,,,,,,,,,,,,,,,,,,,,,,,320.807347199996,320.8236007999949,321.32346269999834,321.3071720999942,321.3100662999932,321.32346269999834,321.32346269999834,321.32346269999834,322.5070478999987,Objects\242a.jpg,mid,o,1.1826173000008566,None,,,,,,,,00021,001,2025-11-08_21h59.32.852,MST_test,2024.2.2,60.00297614844986,2025-11-08 21h59.37.045994 +0530,
115,0,115,n,2.6178912999966997,None,115,0,115,0,322.52343799999653,,,,,,,,,,,,,,,,,,,,,,,,,,,,,,,,,,,,,,,,,,,,,,,,,,322.5071317999973,322.52343799999653,323.0233844999966,323.0069302999982,323.0122840999975,323.0233844999966,323.0233844999966,323.0233844999966,325.6570068999936,Objects\266a.jpg,post,n,2.6178912999966997,None,,,,,,,,00021,001,2025-11-08_21h59.32.852,MST_test,2024.2.2,60.00297614844986,2025-11-08 21h59.37.045994 +0530,
116,0,116,o,1.514154199998302,None,116,0,116,0,325.6733699999968,,,,,,,,,,,,,,,,,,,,,,,,,,,,,,,,,,,,,,,,,,,,,,,,,,325.6570825999952,325.6733699999968,326.1733252999984,326.15687989999424,326.16190300000017,326.1733252999984,326.1733252999984,326.1733252999984,327.69048509999993,Objects\307a.jpg,pre,o,1.514154199998302,None,,,,,,,,00021,001,2025-11-08_21h59.32.852,MST_test,2024.2.2,60.00297614844986,2025-11-08 21h59.37.045994 +0530,
117,0,117,n,1.049515099999553,None,117,0,117,0,327.70667069999763,,,,,,,,,,,,,,,,,,,,,,,,,,,,,,,,,,,,,,,,,,,,,,,,,,327.69058949999453,327.70667069999763,328.2235800999988,328.1901371999993,328.20303549999517,328.2235800999988,328.2235800999988,328.2235800999988,329.2736109999969,Objects\303b.jpg,mid,n,1.049515099999553,None,,,,,,,,00021,001,2025-11-08_21h59.32.852,MST_test,2024.2.2,60.00297614844986,2025-11-08 21h59.37.045994 +0530,
118,0,118,o,1.1996669999934966,None,118,0,118,0,329.28995589999977,,,,,,,,,,,,,,,,,,,,,,,,,,,,,,,,,,,,,,,,,,,,,,,,,,329.27369049999834,329.28995589999977,329.78990829999384,329.7734178999963,329.7787016999937,329.78990829999384,329.78990829999384,329.78990829999384,330.99041909999505,Objects\097a.jpg,mid,o,1.1996669999934966,None,,,,,,,,00021,001,2025-11-08_21h59.32.852,MST_test,2024.2.2,60.00297614844986,2025-11-08 21h59.37.045994 +0530,
119,0,119,s,1.3823293000023114,None,119,0,119,0,331.006593099999,,,,,,,,,,,,,,,,,,,,,,,,,,,,,,,,,,,,,,,,,,,,,,,,,,330.9904993999953,331.006593099999,331.5232407999938,331.49008019999746,331.50536389999615,331.5232407999938,331.5232407999938,331.5232407999938,332.90695649999543,Objects\308b.jpg,mid,s,1.3823293000023114,None,,,,,,,,00021,001,2025-11-08_21h59.32.852,MST_test,2024.2.2,60.00297614844986,2025-11-08 21h59.37.045994 +0530,
120,0,120,n,2.0002770999999484,None,120,0,120,0,332.9232106999989,,,,,,,,,,,,,,,,,,,,,,,,,,,,,,,,,,,,,,,,,,,,,,,,,,332.9070414999951,332.9232106999989,333.42316279999795,333.40670609999506,333.40906159999577,333.42316279999795,333.42316279999795,333.42316279999795,335.4401014999967,Foils\105a.jpg,none,n,2.0002770999999484,None,,,,,,,,00021,001,2025-11-08_21h59.32.852,MST_test,2024.2.2,60.00297614844986,2025-11-08 21h59.37.045994 +0530,
121,0,121,s,0.9286408000043593,None,121,0,121,0,335.4564523999943,,,,,,,,,,,,,,,,,,,,,,,,,,,,,,,,,,,,,,,,,,,,,,,,,,335.4401927999934,335.4564523999943,335.956660799995,335.93995449999784,335.9458572000003,335.956660799995,335.956660799995,335.956660799995,336.8900618999978,Objects\364b.jpg,pre,s,0.9286408000043593,None,,,,,,,,00021,001,2025-11-08_21h59.32.852,MST_test,2024.2.2,60.00297614844986,2025-11-08 21h59.37.045994 +0530,
122,0,122,s,0.8384592000002158,None,122,0,122,0,336.9064309999958,,,,,,,,,,,,,,,,,,,,,,,,,,,,,,,,,,,,,,,,,,,,,,,,,,336.8901407999947,336.9064309999958,337.4231241999951,337.3899600999939,337.4135648999945,337.4231241999951,337.4231241999951,337.4231241999951,338.27337019999686,Objects\289b.jpg,pre,s,0.8384592000002158,None,,,,,,,,00021,001,2025-11-08_21h59.32.852,MST_test,2024.2.2,60.00297614844986,2025-11-08 21h59.37.045994 +0530,
123,0,123,s,0.8829960000002757,None,123,0,123,0,338.2897546999957,,,,,,,,,,,,,,,,,,,,,,,,,,,,,,,,,,,,,,,,,,,,,,,,,,338.27345069999865,338.2897546999957,338.8063833999986,338.77333609999914,338.80080139999336,338.8063833999986,338.8063833999986,338.8063833999986,339.6900677999947,Objects\237b.jpg,mid,s,0.8829960000002757,None,,,,,,,,00021,001,2025-11-08_21h59.32.852,MST_test,2024.2.2,60.00297614844986,2025-11-08 21h59.37.045994 +0530,
124,0,124,o,1.0269887999966159,None,124,0,124,0,339.7064062999998,,,,,,,,,,,,,,,,,,,,,,,,,,,,,,,,,,,,,,,,,,,,,,,,,,339.69014599999355,339.7064062999998,340.2063540999952,340.1898516999936,340.1919568999947,340.2063540999952,340.2063540999952,340.2063540999952,341.24019049999333,Objects\127a.jpg,mid,o,1.0269887999966159,None,,,,,,,,00021,001,2025-11-08_21h59.32.852,MST_test,2024.2.2,60.00297614844986,2025-11-08 21h59.37.045994 +0530,
125,0,125,o,1.0710398000010173,None,125,0,125,0,341.25639349999983,,,,,,,,,,,,,,,,,,,,,,,,,,,,,,,,,,,,,,,,,,,,,,,,,,341.24027869999554,341.25639349999983,341.75634709999576,341.73983909999515,341.74230979999993,341.75634709999576,341.75634709999576,341.75634709999576,342.8400735999967,Objects\144a.jpg,mid,o,1.0710398000010173,None,,,,,,,,00021,001,2025-11-08_21h59.32.852,MST_test,2024.2.2,60.00297614844986,2025-11-08 21h59.37.045994 +0530,
126,0,126,o,0.7983752000000095,None,126,0,126,0,342.8563301999966,,,,,,,,,,,,,,,,,,,,,,,,,,,,,,,,,,,,,,,,,,,,,,,,,,342.84015910000016,342.8563301999966,343.35631759999524,343.34008399999584,343.3419708999936,343.35631759999524,343.35631759999524,343.35631759999524,344.1566704999932,Objects\223a.jpg,pre,o,0.7983752000000095,None,,,,,,,,00021,001,2025-11-08_21h59.32.852,MST_test,2024.2.2,60.00297614844986,2025-11-08 21h59.37.045994 +0530,
127,0,127,o,3.318077000003541,None,127,0,127,0,344.17294919999404,,,,,,,,,,,,,,,,,,,,,,,,,,,,,,,,,,,,,,,,,,,,,,,,,,344.1567477999997,344.17294919999404,344.68968089999544,344.6565755999982,344.6708010999937,344.68968089999544,344.68968089999544,344.68968089999544,348.02329619999364,Objects\171b.jpg,mid,o,3.318077000003541,None,,,,,,,,00021,001,2025-11-08_21h59.32.852,MST_test,2024.2.2,60.00297614844986,2025-11-08 21h59.37.045994 +0530,
128,0,128,n,0.8194321999981184,None,128,0,128,0,348.0395770999967,,,,,,,,,,,,,,,,,,,,,,,,,,,,,,,,,,,,,,,,,,,,,,,,,,348.02337819999957,348.0395770999967,348.5395678999994,348.52320649999456,348.52536269999837,348.5395678999994,348.5395678999994,348.5395678999994,349.373313899996,Foils\020b.jpg,none,n,0.8194321999981184,None,,,,,,,,00021,001,2025-11-08_21h59.32.852,MST_test,2024.2.2,60.00297614844986,2025-11-08 21h59.37.045994 +0530,
129,0,129,s,0.877860900000087,None,129,0,129,0,349.38947840000037,,,,,,,,,,,,,,,,,,,,,,,,,,,,,,,,,,,,,,,,,,,,,,,,,,349.37338669999735,349.38947840000037,349.8895191999982,349.87314630000037,349.8752547999975,349.8895191999982,349.8895191999982,349.8895191999982,350.773202999997,Objects\192b.jpg,mid,s,0.877860900000087,None,,,,,,,,00021,001,2025-11-08_21h59.32.852,MST_test,2024.2.2,60.00297614844986,2025-11-08 21h59.37.045994 +0530,
130,0,130,s,1.1247958999956609,None,130,0,130,0,350.789449099997,,,,,,,,,,,,,,,,,,,,,,,,,,,,,,,,,,,,,,,,,,,,,,,,,,350.7732745999965,350.789449099997,351.3227917999975,351.27292839999427,351.3038013999976,351.3227917999975,351.3227917999975,351.3227917999975,352.45649919999414,Objects\366b.jpg,post,s,1.1247958999956609,None,,,,,,,,00021,001,2025-11-08_21h59.32.852,MST_test,2024.2.2,60.00297614844986,2025-11-08 21h59.37.045994 +0530,
131,0,131,s,0.8043372000029194,None,131,0,131,0,352.47277929999836,,,,,,,,,,,,,,,,,,,,,,,,,,,,,,,,,,,,,,,,,,,,,,,,,,352.4565857999987,352.47277929999836,352.97273349999887,352.9563269999999,352.9618147999936,352.97273349999887,352.97273349999887,352.97273349999887,353.78965349999635,Objects\067a.jpg,post,s,0.8043372000029194,None,,,,,,,,00021,001,2025-11-08_21h59.32.852,MST_test,2024.2.2,60.00297614844986,2025-11-08 21h59.37.045994 +0530,
132,0,132,s,1.108530299999984,None,132,0,132,0,353.8061088999966,,,,,,,,,,,,,,,,,,,,,,,,,,,,,,,,,,,,,,,,,,,,,,,,,,353.7897247000001,353.8061088999966,354.3227759000001,354.28957239999727,354.3086467999965,354.3227759000001,354.3227759000001,354.3227759000001,355.4396925999972,Objects\368b.jpg,mid,s,1.108530299999984,None,,,,,,,,00021,001,2025-11-08_21h59.32.852,MST_test,2024.2.2,60.00297614844986,2025-11-08 21h59.37.045994 +0530,
133,0,133,s,1.0551415000009001,None,133,0,133,0,355.45604489999823,,,,,,,,,,,,,,,,,,,,,,,,,,,,,,,,,,,,,,,,,,,,,,,,,,355.4397822999963,355.45604489999823,355.9726737999954,355.9395794999946,355.9615984999982,355.9726737999954,355.9726737999954,355.9726737999954,357.03976789999433,Objects\384b.jpg,mid,s,1.0551415000009001,None,,,,,,,,00021,001,2025-11-08_21h59.32.852,MST_test,2024.2.2,60.00297614844986,2025-11-08 21h59.37.045994 +0530,
134,0,134,s,2.4016136999998707,None,134,0,134,0,357.05601529999694,,,,,,,,,,,,,,,,,,,,,,,,,,,,,,,,,,,,,,,,,,,,,,,,,,357.0398556,357.05601529999694,357.55599829999846,357.5396810999955,357.545186299998,357.55599829999846,357.55599829999846,357.55599829999846,359.97289119999914,Objects\002b.jpg,post,s,2.4016136999998707,None,,,,,,,,00021,001,2025-11-08_21h59.32.852,MST_test,2024.2.2,60.00297614844986,2025-11-08 21h59.37.045994 +0530,
135,0,135,n,0.9358372999995481,None,135,0,135,0,359.9893039999952,,,,,,,,,,,,,,,,,,,,,,,,,,,,,,,,,,,,,,,,,,,,,,,,,,359.9729751999985,359.9893039999952,360.48927600000025,360.47276769999735,360.47486070000014,360.48927600000025,360.48927600000025,360.48927600000025,361.43960309999966,Foils\033a.jpg,none,n,0.9358372999995481,None,,,,,,,,00021,001,2025-11-08_21h59.32.852,MST_test,2024.2.2,60.00297614844986,2025-11-08 21h59.37.045994 +0530,
136,0,136,n,1.4791433999998844,None,136,0,136,0,361.4559264999989,,,,,,,,,,,,,,,,,,,,,,,,,,,,,,,,,,,,,,,,,,,,,,,,,,361.4396798999951,361.4559264999989,361.97257459999673,361.93939719999616,361.9560751999961,361.97257459999673,361.97257459999673,361.97257459999673,363.456165399999,Objects\184b.jpg,post,n,1.4791433999998844,None,,,,,,,,00021,001,2025-11-08_21h59.32.852,MST_test,2024.2.2,60.00297614844986,2025-11-08 21h59.37.045994 +0530,
137,0,137,s,1.1847295000043232,None,137,0,137,0,363.4725416000001,,,,,,,,,,,,,,,,,,,,,,,,,,,,,,,,,,,,,,,,,,,,,,,,,,363.45624439999665,363.4725416000001,363.9733158999952,363.95608349999384,363.95828159999655,363.9733158999952,363.9733158999952,363.9733158999952,365.17298599999776,Objects\147a.jpg,mid,s,1.1847295000043232,None,,,,,,,,00021,001,2025-11-08_21h59.32.852,MST_test,2024.2.2,60.00297614844986,2025-11-08 21h59.37.045994 +0530,
138,0,138,n,1.4043845999985933,None,138,0,138,0,365.1890721999953,,,,,,,,,,,,,,,,,,,,,,,,,,,,,,,,,,,,,,,,,,,,,,,,,,365.17308429999684,365.1890721999953,365.68924759999936,365.6727400999953,365.67482509999536,365.68924759999936,365.68924759999936,365.68924759999936,367.1061799999952,Foils\018a.jpg,none,n,1.4043845999985933,None,,,,,,,,00021,001,2025-11-08_21h59.32.852,MST_test,2024.2.2,60.00297614844986,2025-11-08 21h59.37.045994 +0530,
139,0,139,o,1.026748399999633,None,139,0,139,0,367.1224541999982,,,,,,,,,,,,,,,,,,,,,,,,,,,,,,,,,,,,,,,,,,,,,,,,,,367.1062731999991,367.1224541999982,367.62245319999784,367.6059580000001,367.6112995999938,367.62245319999784,367.62245319999784,367.62245319999784,368.6561789999978,Objects\217a.jpg,mid,o,1.026748399999633,None,,,,,,,,00021,001,2025-11-08_21h59.32.852,MST_test,2024.2.2,60.00297614844986,2025-11-08 21h59.37.045994 +0530,
140,0,140,o,1.3894768000027398,None,140,0,140,0,368.67242959999567,,,,,,,,,,,,,,,,,,,,,,,,,,,,,,,,,,,,,,,,,,,,,,,,,,368.65626239999983,368.67242959999567,369.1890409999978,369.1560401999959,369.18167019999964,369.1890409999978,369.1890409999978,369.1890409999978,370.5893825999956,Objects\046b.jpg,post,o,1.3894768000027398,None,,,,,,,,00021,001,2025-11-08_21h59.32.852,MST_test,2024.2.2,60.00297614844986,2025-11-08 21h59.37.045994 +0530,
141,0,141,s,2.3201724999962607,None,141,0,141,0,370.60572149999643,,,,,,,,,,,,,,,,,,,,,,,,,,,,,,,,,,,,,,,,,,,,,,,,,,370.58945949999907,370.60572149999643,371.10574389999965,371.08930589999363,371.09129169999505,371.10574389999965,371.10574389999965,371.10574389999965,373.4393898999988,Objects\276a.jpg,pre,s,2.3201724999962607,None,,,,,,,,00021,001,2025-11-08_21h59.32.852,MST_test,2024.2.2,60.00297614844986,2025-11-08 21h59.37.045994 +0530,
142,0,142,s,2.0437989000056405,None,142,0,142,0,373.45569659999455,,,,,,,,,,,,,,,,,,,,,,,,,,,,,,,,,,,,,,,,,,,,,,,,,,373.43946969999524,373.45569659999455,373.95561999999336,373.93913020000036,373.94424369999615,373.95561999999336,373.95561999999336,373.95561999999336,376.0060127999968,Objects\322a.jpg,mid,s,2.0437989000056405,None,,,,,,,,00021,001,2025-11-08_21h59.32.852,MST_test,2024.2.2,60.00297614844986,2025-11-08 21h59.37.045994 +0530,
143,0,143,o,1.0034459000016795,None,143,0,143,0,376.0222345999937,,,,,,,,,,,,,,,,,,,,,,,,,,,,,,,,,,,,,,,,,,,,,,,,,,376.0061022999944,376.0222345999937,376.5223288999987,376.5057971999995,376.5105470999988,376.5223288999987,376.5223288999987,376.5223288999987,377.53931329999614,Objects\348a.jpg,pre,o,1.0034459000016795,None,,,,,,,,00021,001,2025-11-08_21h59.32.852,MST_test,2024.2.2,60.00297614844986,2025-11-08 21h59.37.045994 +0530,
144,0,144,s,1.345798399997875,None,144,0,144,0,377.55556760000036,,,,,,,,,,,,,,,,,,,,,,,,,,,,,,,,,,,,,,,,,,,,,,,,,,377.53939629999513,377.55556760000036,378.0555411999958,378.0390800999958,378.0438700999948,378.0555411999958,378.0555411999958,378.0555411999958,379.40590859999793,Objects\025a.jpg,mid,s,1.345798399997875,None,,,,,,,,00021,001,2025-11-08_21h59.32.852,MST_test,2024.2.2,60.00297614844986,2025-11-08 21h59.37.045994 +0530,
145,0,145,o,1.2468783000003896,None,145,0,145,0,379.4221574999974,,,,,,,,,,,,,,,,,,,,,,,,,,,,,,,,,,,,,,,,,,,,,,,,,,379.405995299996,379.4221574999974,379.92218409999623,379.9056644999946,379.9077021999983,379.92218409999623,379.92218409999623,379.92218409999623,381.1724652999983,Objects\098a.jpg,pre,o,1.2468783000003896,None,,,,,,,,00021,001,2025-11-08_21h59.32.852,MST_test,2024.2.2,60.00297614844986,2025-11-08 21h59.37.045994 +0530,
146,0,146,o,4.172733499995957,None,146,0,146,0,381.1887932999962,,,,,,,,,,,,,,,,,,,,,,,,,,,,,,,,,,,,,,,,,,,,,,,,,,381.1725440999944,381.1887932999962,381.6887748999943,381.67247510000016,381.6772475999969,381.6887748999943,381.6887748999943,381.6887748999943,385.87235129999317,Objects\383a.jpg,mid,o,4.172733499995957,None,,,,,,,,00021,001,2025-11-08_21h59.32.852,MST_test,2024.2.2,60.00297614844986,2025-11-08 21h59.37.045994 +0530,
147,0,147,o,1.060345599995344,None,147,0,147,0,385.8887146999987,,,,,,,,,,,,,,,,,,,,,,,,,,,,,,,,,,,,,,,,,,,,,,,,,,385.8724388999981,385.8887146999987,386.38874499999656,386.372217199998,386.37750419999793,386.38874499999656,386.38874499999656,386.38874499999656,387.4559408999994,Objects\019a.jpg,post,o,1.060345599995344,None,,,,,,,,00021,001,2025-11-08_21h59.32.852,MST_test,2024.2.2,60.00297614844986,2025-11-08 21h59.37.045994 +0530,
148,0,148,s,1.5316268999958993,None,148,0,148,0,387.47201899999345,,,,,,,,,,,,,,,,,,,,,,,,,,,,,,,,,,,,,,,,,,,,,,,,,,387.4560199999978,387.47201899999345,387.971967999998,387.9556503999993,387.9608731999979,387.971967999998,387.971967999998,387.971967999998,389.5063517999952,Objects\197b.jpg,pre,s,1.5316268999958993,None,,,,,,,,00021,001,2025-11-08_21h59.32.852,MST_test,2024.2.2,60.00297614844986,2025-11-08 21h59.37.045994 +0530,
149,0,149,s,2.9215592999971705,None,149,0,149,0,389.5219724999988,,,,,,,,,,,,,,,,,,,,,,,,,,,,,,,,,,,,,,,,,,,,,,,,,,389.5064401999989,389.5219724999988,390.0219278999939,390.0054633999971,390.0106122999932,390.0219278999939,390.0219278999939,390.0219278999939,392.9556048999948,Objects\085a.jpg,mid,s,2.9215592999971705,None,,,,,,,,00021,001,2025-11-08_21h59.32.852,MST_test,2024.2.2,60.00297614844986,2025-11-08 21h59.37.045994 +0530,
,,,,,,,,,,,,,,,,,,,,,,,,,,,,,,,,,,,,,,,,,,,,,,,,,,,,,,,,,,,,,,,,,,,,,,,,,,392.9556706000003,392.97187689999555,392.97187689999555,395.33882829999493,space,2.3571900999959325,None,00021,001,2025-11-08_21h59.32.852,MST_test,2024.2.2,60.00297614844986,2025-11-08 21h59.37.045994 +0530,
