thisN,thisTrialN,thisRepN,key_resp_3.keys,key_resp_3.rt,key_resp_3.duration,trials.thisRepN,trials.thisTrialN,trials.thisN,trials.thisIndex,thisRow.t,notes,intro_page.started,text.started,key_resp.started,intro_page.stopped,key_resp.keys,key_resp.rt,key_resp.duration,instructions.started,text_2.started,key_resp_2.started,instructions.stopped,key_resp_2.keys,key_resp_2.rt,key_resp_2.duration,demo1.started,image_1.started,image_2.started,text_7.started,key_resp_6.started,text_9.started,demo1.stopped,key_resp_6.keys,key_resp_6.rt,key_resp_6.duration,demo3.started,image_5.started,image_6.started,text_11.started,text_12.started,key_resp_8.started,demo3.stopped,key_resp_8.keys,key_resp_8.rt,key_resp_8.duration,demo_conclusion.started,text_13.started,key_resp_9.started,demo_conclusion.stopped,key_resp_9.keys,key_resp_9.rt,key_resp_9.duration,start_test.started,text_6.started,key_resp_5.started,start_test.stopped,key_resp_5.keys,key_resp_5.rt,key_resp_5.duration,ISI.started,text_4.started,text_4.stopped,ISI.stopped,routine_1.started,image.started,text_3.started,key_resp_3.started,routine_1.stopped,image_path,position_of_stimuli,trials.key_resp_3.keys,trials.key_resp_3.rt,trials.key_resp_3.duration,End_page.started,text_5.started,key_resp_4.started,End_page.stopped,key_resp_4.keys,key_resp_4.rt,key_resp_4.duration,participant,session,date,expName,psychopyVersion,frameRate,expStart,
,,,,,,,,,,,,0.004389699999592267,0.020700299999589333,0.020700299999589333,1.9391013999993447,space,1.91058410000187,None,,,,,,,,,,,,,,,,,,,,,,,,,,,,,,,,,,,,,,,,,,,,,,,,,,,,,,,,,,,,,,,00020,001,2025-11-08_18h29.24.405,MST_test,2024.2.2,59.99534436031268,2025-11-08 18h29.30.427047 +0530,
,,,,,,,,,,,,,,,,,,,1.9391324000025634,1.9539508000016212,1.9539508000016212,10.637482900001487,space,8.67268459999832,None,,,,,,,,,,,,,,,,,,,,,,,,,,,,,,,,,,,,,,,,,,,,,,,,,,,,,,,,00020,001,2025-11-08_18h29.24.405,MST_test,2024.2.2,59.99534436031268,2025-11-08 18h29.30.427047 +0530,
,,,,,,,,,,,,,,,,,,,,,,,,,,10.63750440000149,10.653790200001822,10.653790200001822,10.653790200001822,10.653790200001822,10.653790200001822,18.45398430000205,space,7.796442499999102,None,,,,,,,,,,,,,,,,,,,,,,,,,,,,,,,,,,,,,,,,,,,,,,00020,001,2025-11-08_18h29.24.405,MST_test,2024.2.2,59.99534436031268,2025-11-08 18h29.30.427047 +0530,
,,,,,,,,,,,,,,,,,,,,,,,,,,,,,,,,,,,,18.454009299999598,18.47029409999959,18.47029409999959,18.47029409999959,18.47029409999959,18.47029409999959,21.353967900002317,space,2.881960999999137,None,,,,,,,,,,,,,,,,,,,,,,,,,,,,,,,,,,,,00020,001,2025-11-08_18h29.24.405,MST_test,2024.2.2,59.99534436031268,2025-11-08 18h29.30.427047 +0530,
,,,,,,,,,,,,,,,,,,,,,,,,,,,,,,,,,,,,,,,,,,,,,,21.353990900002827,21.37022600000273,21.37022600000273,30.570298900001944,space,9.189282499999536,None,,,,,,,,,,,,,,,,,,,,,,,,,,,,,00020,001,2025-11-08_18h29.24.405,MST_test,2024.2.2,59.99534436031268,2025-11-08 18h29.30.427047 +0530,
,,,,,,,,,,,,,,,,,,,,,,,,,,,,,,,,,,,,,,,,,,,,,,,,,,,,,30.57032800000161,30.586698200000683,30.586698200000683,40.95340270000088,space,10.353838300001371,None,,,,,,,,,,,,,,,,,,,,,,00020,001,2025-11-08_18h29.24.405,MST_test,2024.2.2,59.99534436031268,2025-11-08 18h29.30.427047 +0530,
0,0,0,o,4.114969599999313,None,0,0,0,0,40.96982740000021,,,,,,,,,,,,,,,,,,,,,,,,,,,,,,,,,,,,,,,,,,,,,,,,,,40.95610880000095,40.96982740000021,41.46998860000167,41.45331140000053,41.46205069999996,41.46998860000167,41.46998860000167,41.46998860000167,45.586759800000436,Objects\152a.jpg,pre,o,4.114969599999313,None,,,,,,,,00020,001,2025-11-08_18h29.24.405,MST_test,2024.2.2,59.99534436031268,2025-11-08 18h29.30.427047 +0530,
1,0,1,s,15.151846100001421,None,1,0,1,0,45.60303140000178,,,,,,,,,,,,,,,,,,,,,,,,,,,,,,,,,,,,,,,,,,,,,,,,,,45.58684809999977,45.60303140000178,46.10302700000102,46.08662069999991,46.08924240000124,46.10302700000102,46.10302700000102,46.10302700000102,61.26967480000167,Foils\002a.jpg,none,s,15.151846100001421,None,,,,,,,,00020,001,2025-11-08_18h29.24.405,MST_test,2024.2.2,59.99534436031268,2025-11-08 18h29.30.427047 +0530,
2,0,2,o,2.4341998000018066,None,2,0,2,0,61.286024400000315,,,,,,,,,,,,,,,,,,,,,,,,,,,,,,,,,,,,,,,,,,,,,,,,,,61.26977520000219,61.286024400000315,61.7861840000005,61.76961550000124,61.77513370000088,61.7861840000005,61.7861840000005,61.7861840000005,64.23620819999996,Objects\314a.jpg,pre,o,2.4341998000018066,None,,,,,,,,00020,001,2025-11-08_18h29.24.405,MST_test,2024.2.2,59.99534436031268,2025-11-08 18h29.30.427047 +0530,
3,0,3,o,4.667637600003218,None,3,0,3,0,64.25261570000293,,,,,,,,,,,,,,,,,,,,,,,,,,,,,,,,,,,,,,,,,,,,,,,,,,64.23629380000057,64.25261570000293,64.75263140000243,64.73609820000274,64.74086850000094,64.75263140000243,64.75263140000243,64.75263140000243,69.43614259999958,Objects\356a.jpg,mid,o,4.667637600003218,None,,,,,,,,00020,001,2025-11-08_18h29.24.405,MST_test,2024.2.2,59.99534436031268,2025-11-08 18h29.30.427047 +0530,
4,0,4,s,2.6519611999974586,None,4,0,4,0,69.45253109999976,,,,,,,,,,,,,,,,,,,,,,,,,,,,,,,,,,,,,,,,,,,,,,,,,,69.4362254000007,69.45253109999976,69.9525160000012,69.93599510000058,69.94147000000157,69.9525160000012,69.9525160000012,69.9525160000012,72.61939100000018,Objects\240a.jpg,pre,s,2.6519611999974586,None,,,,,,,,00020,001,2025-11-08_18h29.24.405,MST_test,2024.2.2,59.99534436031268,2025-11-08 18h29.30.427047 +0530,
5,0,5,s,3.6803073000010045,None,5,0,5,0,72.6357379000001,,,,,,,,,,,,,,,,,,,,,,,,,,,,,,,,,,,,,,,,,,,,,,,,,,72.61948040000061,72.6357379000001,73.1523930000003,73.11933150000186,73.13282050000271,73.1523930000003,73.1523930000003,73.1523930000003,76.83596910000051,Objects\379b.jpg,mid,s,3.6803073000010045,None,,,,,,,,00020,001,2025-11-08_18h29.24.405,MST_test,2024.2.2,59.99534436031268,2025-11-08 18h29.30.427047 +0530,
6,0,6,s,2.8377929999987828,None,6,0,6,0,76.85234560000026,,,,,,,,,,,,,,,,,,,,,,,,,,,,,,,,,,,,,,,,,,,,,,,,,,76.83604580000247,76.85234560000026,77.36896270000216,77.33596740000212,77.35607270000037,77.36896270000216,77.36896270000216,77.36896270000216,80.21926929999972,Objects\192b.jpg,pre,s,2.8377929999987828,None,,,,,,,,00020,001,2025-11-08_18h29.24.405,MST_test,2024.2.2,59.99534436031268,2025-11-08 18h29.30.427047 +0530,
7,0,7,o,1.5572880999970948,None,7,0,7,0,80.2355619000009,,,,,,,,,,,,,,,,,,,,,,,,,,,,,,,,,,,,,,,,,,,,,,,,,,80.219352600001,80.2355619000009,80.73544510000283,80.71916500000225,80.72116470000037,80.73544510000283,80.73544510000283,80.73544510000283,82.30259640000077,Objects\177a.jpg,mid,o,1.5572880999970948,None,,,,,,,,00020,001,2025-11-08_18h29.24.405,MST_test,2024.2.2,59.99534436031268,2025-11-08 18h29.30.427047 +0530,
8,0,8,o,2.6293664000004355,None,8,0,8,0,82.31889340000271,,,,,,,,,,,,,,,,,,,,,,,,,,,,,,,,,,,,,,,,,,,,,,,,,,82.30267100000128,82.31889340000271,82.81887149999966,82.8023686000015,82.80412980000256,82.81887149999966,82.81887149999966,82.81887149999966,85.45242430000144,Objects\051a.jpg,post,o,2.6293664000004355,None,,,,,,,,00020,001,2025-11-08_18h29.24.405,MST_test,2024.2.2,59.99534436031268,2025-11-08 18h29.30.427047 +0530,
9,0,9,n,2.1552403999994567,None,9,0,9,0,85.46881829999984,,,,,,,,,,,,,,,,,,,,,,,,,,,,,,,,,,,,,,,,,,,,,,,,,,85.45250880000094,85.46881829999984,85.98549579999963,85.95235180000236,85.96981980000055,85.98549579999963,85.98549579999963,85.98549579999963,88.15247910000107,Foils\f7.jpg,none,n,2.1552403999994567,None,,,,,,,,00020,001,2025-11-08_18h29.24.405,MST_test,2024.2.2,59.99534436031268,2025-11-08 18h29.30.427047 +0530,
10,0,10,s,2.2193547999995644,None,10,0,10,0,88.16882350000014,,,,,,,,,,,,,,,,,,,,,,,,,,,,,,,,,,,,,,,,,,,,,,,,,,88.15256620000218,88.16882350000014,88.68538629999966,88.65226130000156,88.67171080000116,88.68538629999966,88.68538629999966,88.68538629999966,90.91909010000018,Objects\179b.jpg,pre,s,2.2193547999995644,None,,,,,,,,00020,001,2025-11-08_18h29.24.405,MST_test,2024.2.2,59.99534436031268,2025-11-08 18h29.30.427047 +0530,
11,0,11,o,1.2698279000032926,None,11,0,11,0,90.93536500000118,,,,,,,,,,,,,,,,,,,,,,,,,,,,,,,,,,,,,,,,,,,,,,,,,,90.91916770000171,90.93536500000118,91.43533390000084,91.41881400000057,91.42217890000029,91.43533390000084,91.43533390000084,91.43533390000084,92.71903490000113,Foils\f6.jpg,none,o,1.2698279000032926,None,,,,,,,,00020,001,2025-11-08_18h29.24.405,MST_test,2024.2.2,59.99534436031268,2025-11-08 18h29.30.427047 +0530,
12,0,12,o,1.399238800000603,None,12,0,12,0,92.73533090000274,,,,,,,,,,,,,,,,,,,,,,,,,,,,,,,,,,,,,,,,,,,,,,,,,,92.71911140000157,92.73533090000274,93.23528889999943,93.21888240000044,93.22398860000249,93.23528889999943,93.23528889999943,93.23528889999943,94.63556170000084,Objects\372a.jpg,post,o,1.399238800000603,None,,,,,,,,00020,001,2025-11-08_18h29.24.405,MST_test,2024.2.2,59.99534436031268,2025-11-08 18h29.30.427047 +0530,
13,0,13,o,1.2268120000007912,None,13,0,13,0,94.65194569999949,,,,,,,,,,,,,,,,,,,,,,,,,,,,,,,,,,,,,,,,,,,,,,,,,,94.63564540000152,94.65194569999949,95.15190880000227,95.13553440000032,95.13928520000263,95.15190880000227,95.15190880000227,95.15190880000227,96.38572260000001,Objects\200a.jpg,pre,o,1.2268120000007912,None,,,,,,,,00020,001,2025-11-08_18h29.24.405,MST_test,2024.2.2,59.99534436031268,2025-11-08 18h29.30.427047 +0530,
14,0,14,o,4.1227429999999,None,14,0,14,0,96.40191520000008,,,,,,,,,,,,,,,,,,,,,,,,,,,,,,,,,,,,,,,,,,,,,,,,,,96.38580870000078,96.40191520000008,96.90188880000278,96.88537519999954,96.8905006999994,96.90188880000278,96.90188880000278,96.90188880000278,101.03540290000092,Objects\120a.jpg,post,o,4.1227429999999,None,,,,,,,,00020,001,2025-11-08_18h29.24.405,MST_test,2024.2.2,59.99534436031268,2025-11-08 18h29.30.427047 +0530,
15,0,15,n,3.0354904999985592,None,15,0,15,0,101.05182290000084,,,,,,,,,,,,,,,,,,,,,,,,,,,,,,,,,,,,,,,,,,,,,,,,,,101.03548280000177,101.05182290000084,101.55176240000219,101.53537359999973,101.53957749999972,101.55176240000219,101.55176240000219,101.55176240000219,104.6020423000009,Objects\364a.jpg,mid,n,3.0354904999985592,None,,,,,,,,00020,001,2025-11-08_18h29.24.405,MST_test,2024.2.2,59.99534436031268,2025-11-08 18h29.30.427047 +0530,
16,0,16,o,1.7922020999976667,None,16,0,16,0,104.6184045000009,,,,,,,,,,,,,,,,,,,,,,,,,,,,,,,,,,,,,,,,,,,,,,,,,,104.60212410000167,104.6184045000009,105.11835620000056,105.10193369999979,105.10709110000244,105.11835620000056,105.11835620000056,105.11835620000056,106.91863600000215,Objects\135a.jpg,post,o,1.7922020999976667,None,,,,,,,,00020,001,2025-11-08_18h29.24.405,MST_test,2024.2.2,59.99534436031268,2025-11-08 18h29.30.427047 +0530,
17,0,17,s,1.678313700002036,None,17,0,17,0,106.93499080000038,,,,,,,,,,,,,,,,,,,,,,,,,,,,,,,,,,,,,,,,,,,,,,,,,,106.91871250000258,106.93499080000038,107.43498650000038,107.41851150000002,107.42075240000122,107.43498650000038,107.43498650000038,107.43498650000038,109.11862140000085,Objects\079a.jpg,pre,s,1.678313700002036,None,,,,,,,,00020,001,2025-11-08_18h29.24.405,MST_test,2024.2.2,59.99534436031268,2025-11-08 18h29.30.427047 +0530,
18,0,18,o,1.189429400001245,None,18,0,18,0,109.13496220000161,,,,,,,,,,,,,,,,,,,,,,,,,,,,,,,,,,,,,,,,,,,,,,,,,,109.11870579999959,109.13496220000161,109.63491849999991,109.61843349999981,109.62285139999949,109.63491849999991,109.63491849999991,109.63491849999991,110.83519090000118,Objects\371a.jpg,pre,o,1.189429400001245,None,,,,,,,,00020,001,2025-11-08_18h29.24.405,MST_test,2024.2.2,59.99534436031268,2025-11-08 18h29.30.427047 +0530,
19,0,19,s,1.560145100000227,None,19,0,19,0,110.85159349999958,,,,,,,,,,,,,,,,,,,,,,,,,,,,,,,,,,,,,,,,,,,,,,,,,,110.83526569999958,110.85159349999958,111.36821989999953,111.33503130000099,111.36068169999999,111.36821989999953,111.36821989999953,111.36821989999953,112.93520630000057,Objects\182b.jpg,post,s,1.560145100000227,None,,,,,,,,00020,001,2025-11-08_18h29.24.405,MST_test,2024.2.2,59.99534436031268,2025-11-08 18h29.30.427047 +0530,
20,0,20,n,3.166511999999784,None,20,0,20,0,112.95155270000032,,,,,,,,,,,,,,,,,,,,,,,,,,,,,,,,,,,,,,,,,,,,,,,,,,112.93529190000118,112.95155270000032,113.46820460000163,113.43502010000157,113.45252450000044,113.46820460000163,113.46820460000163,113.46820460000163,116.63538370000242,Objects\331b.jpg,pre,n,3.166511999999784,None,,,,,,,,00020,001,2025-11-08_18h29.24.405,MST_test,2024.2.2,59.99534436031268,2025-11-08 18h29.30.427047 +0530,
21,0,21,o,1.1474756999996316,None,21,0,21,0,116.65152330000274,,,,,,,,,,,,,,,,,,,,,,,,,,,,,,,,,,,,,,,,,,,,,,,,,,116.63546920000226,116.65152330000274,117.15146490000188,117.13498590000017,117.13716040000145,117.15146490000188,117.15146490000188,117.15146490000188,118.30166910000116,Objects\104a.jpg,mid,o,1.1474756999996316,None,,,,,,,,00020,001,2025-11-08_18h29.24.405,MST_test,2024.2.2,59.99534436031268,2025-11-08 18h29.30.427047 +0530,
22,0,22,o,1.1081574999989243,None,22,0,22,0,118.31810110000151,,,,,,,,,,,,,,,,,,,,,,,,,,,,,,,,,,,,,,,,,,,,,,,,,,118.30174790000092,118.31810110000151,118.8181110000005,118.80164610000065,118.80398609999975,118.8181110000005,118.8181110000005,118.8181110000005,119.93506830000115,Objects\099a.jpg,pre,o,1.1081574999989243,None,,,,,,,,00020,001,2025-11-08_18h29.24.405,MST_test,2024.2.2,59.99534436031268,2025-11-08 18h29.30.427047 +0530,
23,0,23,o,2.157619600002363,None,23,0,23,0,119.95139490000292,,,,,,,,,,,,,,,,,,,,,,,,,,,,,,,,,,,,,,,,,,,,,,,,,,119.93515240000124,119.95139490000292,120.46803750000254,120.43487830000231,120.46031100000255,120.46803750000254,120.46803750000254,120.46803750000254,122.6349818000017,Objects\272b.jpg,post,o,2.157619600002363,None,,,,,,,,00020,001,2025-11-08_18h29.24.405,MST_test,2024.2.2,59.99534436031268,2025-11-08 18h29.30.427047 +0530,
24,0,24,s,1.5343843000009656,None,24,0,24,0,122.65136200000052,,,,,,,,,,,,,,,,,,,,,,,,,,,,,,,,,,,,,,,,,,,,,,,,,,122.63506580000103,122.65136200000052,123.18462720000025,123.13486019999982,123.17077659999995,123.18462720000025,123.18462720000025,123.18462720000025,124.73504120000143,Objects\357b.jpg,mid,s,1.5343843000009656,None,,,,,,,,00020,001,2025-11-08_18h29.24.405,MST_test,2024.2.2,59.99534436031268,2025-11-08 18h29.30.427047 +0530,
25,0,25,n,2.8435792999989644,None,25,0,25,0,124.75132070000109,,,,,,,,,,,,,,,,,,,,,,,,,,,,,,,,,,,,,,,,,,,,,,,,,,124.73512130000017,124.75132070000109,125.25125000000116,125.2348802000015,125.2401482000023,125.25125000000116,125.25125000000116,125.25125000000116,128.10159360000034,Foils\090a.jpg,none,n,2.8435792999989644,None,,,,,,,,00020,001,2025-11-08_18h29.24.405,MST_test,2024.2.2,59.99534436031268,2025-11-08 18h29.30.427047 +0530,
26,0,26,s,24.402052500001446,None,26,0,26,0,128.11785800000143,,,,,,,,,,,,,,,,,,,,,,,,,,,,,,,,,,,,,,,,,,,,,,,,,,128.1016767000001,128.11785800000143,128.6345351000018,128.60136400000192,128.62190510000073,128.6345351000018,128.6345351000018,128.6345351000018,153.0510228000021,Objects\325b.jpg,mid,s,24.402052500001446,None,,,,,,,,00020,001,2025-11-08_18h29.24.405,MST_test,2024.2.2,59.99534436031268,2025-11-08 18h29.30.427047 +0530,
27,0,27,o,2.7507392999978038,None,27,0,27,0,153.06737050000083,,,,,,,,,,,,,,,,,,,,,,,,,,,,,,,,,,,,,,,,,,,,,,,,,,153.05110400000194,153.06737050000083,153.58401199999935,153.55077490000258,153.57312720000118,153.58401199999935,153.58401199999935,153.58401199999935,156.35089830000288,Objects\042b.jpg,pre,o,2.7507392999978038,None,,,,,,,,00020,001,2025-11-08_18h29.24.405,MST_test,2024.2.2,59.99534436031268,2025-11-08 18h29.30.427047 +0530,
28,0,28,o,1.3656941999979608,None,28,0,28,0,156.3672323000028,,,,,,,,,,,,,,,,,,,,,,,,,,,,,,,,,,,,,,,,,,,,,,,,,,156.35097750000205,156.3672323000028,156.86725239999942,156.85076110000227,156.85279300000184,156.86725239999942,156.86725239999942,156.86725239999942,158.23430899999948,Objects\158a.jpg,mid,o,1.3656941999979608,None,,,,,,,,00020,001,2025-11-08_18h29.24.405,MST_test,2024.2.2,59.99534436031268,2025-11-08 18h29.30.427047 +0530,
29,0,29,o,5.156126099998801,None,29,0,29,0,158.25059110000075,,,,,,,,,,,,,,,,,,,,,,,,,,,,,,,,,,,,,,,,,,,,,,,,,,158.23439850000068,158.25059110000075,158.75054880000243,158.73413699999946,158.73605250000037,158.75054880000243,158.75054880000243,158.75054880000243,163.9173566999998,Objects\046a.jpg,mid,o,5.156126099998801,None,,,,,,,,00020,001,2025-11-08_18h29.24.405,MST_test,2024.2.2,59.99534436031268,2025-11-08 18h29.30.427047 +0530,
30,0,30,o,2.2932845999966958,None,30,0,30,0,163.9337661999998,,,,,,,,,,,,,,,,,,,,,,,,,,,,,,,,,,,,,,,,,,,,,,,,,,163.9174430000021,163.9337661999998,164.45058360000257,164.41740960000243,164.43974230000094,164.45058360000257,164.45058360000257,164.45058360000257,166.7506699000005,Objects\274b.jpg,mid,o,2.2932845999966958,None,,,,,,,,00020,001,2025-11-08_18h29.24.405,MST_test,2024.2.2,59.99534436031268,2025-11-08 18h29.30.427047 +0530,
31,0,31,n,1.867748600001505,None,31,0,31,0,166.76703460000135,,,,,,,,,,,,,,,,,,,,,,,,,,,,,,,,,,,,,,,,,,,,,,,,,,166.7507484000016,166.76703460000135,167.26704450000034,167.2505807000016,167.25290909999967,167.26704450000034,167.26704450000034,167.26704450000034,169.15061020000212,Foils\081a.jpg,none,n,1.867748600001505,None,,,,,,,,00020,001,2025-11-08_18h29.24.405,MST_test,2024.2.2,59.99534436031268,2025-11-08 18h29.30.427047 +0530,
32,0,32,o,1.2573482000007061,None,32,0,32,0,169.16700520000086,,,,,,,,,,,,,,,,,,,,,,,,,,,,,,,,,,,,,,,,,,,,,,,,,,169.15068610000162,169.16700520000086,169.66694049999933,169.65056929999992,169.6523954000004,169.66694049999933,169.66694049999933,169.66694049999933,170.93389580000076,Objects\216a.jpg,post,o,1.2573482000007061,None,,,,,,,,00020,001,2025-11-08_18h29.24.405,MST_test,2024.2.2,59.99534436031268,2025-11-08 18h29.30.427047 +0530,
33,0,33,n,4.151387200003228,None,33,0,33,0,170.9503033000001,,,,,,,,,,,,,,,,,,,,,,,,,,,,,,,,,,,,,,,,,,,,,,,,,,170.9339734999994,170.9503033000001,171.46692720000283,171.43383259999973,171.44721930000014,171.46692720000283,171.46692720000283,171.46692720000283,175.6338332000014,Objects\217b.jpg,post,n,4.151387200003228,None,,,,,,,,00020,001,2025-11-08_18h29.24.405,MST_test,2024.2.2,59.99534436031268,2025-11-08 18h29.30.427047 +0530,
34,0,34,s,1.9196407000017643,None,34,0,34,0,175.65017440000156,,,,,,,,,,,,,,,,,,,,,,,,,,,,,,,,,,,,,,,,,,,,,,,,,,175.6339224000003,175.65017440000156,176.16679560000193,176.13377050000054,176.15703610000128,176.16679560000193,176.16679560000193,176.16679560000193,178.10043439999936,Objects\145b.jpg,pre,s,1.9196407000017643,None,,,,,,,,00020,001,2025-11-08_18h29.24.405,MST_test,2024.2.2,59.99534436031268,2025-11-08 18h29.30.427047 +0530,
35,0,35,s,5.081796799997392,None,35,0,35,0,178.11677749999944,,,,,,,,,,,,,,,,,,,,,,,,,,,,,,,,,,,,,,,,,,,,,,,,,,178.10050989999945,178.11677749999944,178.61674210000274,178.6003507000023,178.6025886000025,178.61674210000274,178.61674210000274,178.61674210000274,183.7003291000001,Foils\065a.jpg,none,s,5.081796799997392,None,,,,,,,,00020,001,2025-11-08_18h29.24.405,MST_test,2024.2.2,59.99534436031268,2025-11-08 18h29.30.427047 +0530,
36,0,36,o,1.0540379000012763,None,36,0,36,0,183.7166610000022,,,,,,,,,,,,,,,,,,,,,,,,,,,,,,,,,,,,,,,,,,,,,,,,,,183.70040639999934,183.7166610000022,184.21664520000195,184.20031469999958,184.20519720000084,184.21664520000195,184.21664520000195,184.21664520000195,185.2835765000018,Objects\310a.jpg,mid,o,1.0540379000012763,None,,,,,,,,00020,001,2025-11-08_18h29.24.405,MST_test,2024.2.2,59.99534436031268,2025-11-08 18h29.30.427047 +0530,
37,0,37,o,1.014414500001294,None,37,0,37,0,185.29992350000248,,,,,,,,,,,,,,,,,,,,,,,,,,,,,,,,,,,,,,,,,,,,,,,,,,185.28365010000198,185.29992350000248,185.79993789999935,185.7834638000022,185.78923860000214,185.79993789999935,185.79993789999935,185.79993789999935,186.8169600000001,Objects\263b.jpg,post,o,1.014414500001294,None,,,,,,,,00020,001,2025-11-08_18h29.24.405,MST_test,2024.2.2,59.99534436031268,2025-11-08 18h29.30.427047 +0530,
38,0,38,o,1.2330112000017834,None,38,0,38,0,186.83327049999934,,,,,,,,,,,,,,,,,,,,,,,,,,,,,,,,,,,,,,,,,,,,,,,,,,186.81703220000054,186.83327049999934,187.3332173000017,187.31673990000127,187.3209695000005,187.3332173000017,187.3332173000017,187.3332173000017,188.56685330000255,Objects\336b.jpg,mid,o,1.2330112000017834,None,,,,,,,,00020,001,2025-11-08_18h29.24.405,MST_test,2024.2.2,59.99534436031268,2025-11-08 18h29.30.427047 +0530,
39,0,39,n,1.359436700000515,None,39,0,39,0,188.5832408999995,,,,,,,,,,,,,,,,,,,,,,,,,,,,,,,,,,,,,,,,,,,,,,,,,,188.56694079999943,188.5832408999995,189.08317680000255,189.06673960000262,189.0721525000008,189.08317680000255,189.08317680000255,189.08317680000255,190.45025610000084,Foils\101b.jpg,none,n,1.359436700000515,None,,,,,,,,00020,001,2025-11-08_18h29.24.405,MST_test,2024.2.2,59.99534436031268,2025-11-08 18h29.30.427047 +0530,
40,0,40,n,3.0163766000005126,None,40,0,40,0,190.4665825000011,,,,,,,,,,,,,,,,,,,,,,,,,,,,,,,,,,,,,,,,,,,,,,,,,,190.45034060000035,190.4665825000011,190.96646350000083,190.95000500000242,190.95812920000026,190.96646350000083,190.96646350000083,190.96646350000083,193.9833877000019,Objects\143b.jpg,mid,n,3.0163766000005126,None,,,,,,,,00020,001,2025-11-08_18h29.24.405,MST_test,2024.2.2,59.99534436031268,2025-11-08 18h29.30.427047 +0530,
41,0,41,s,1.6726285000004282,None,41,0,41,0,193.99977280000167,,,,,,,,,,,,,,,,,,,,,,,,,,,,,,,,,,,,,,,,,,,,,,,,,,193.98347099999955,193.99977280000167,194.51649480000196,194.48324689999936,194.50651540000035,194.51649480000196,194.51649480000196,194.51649480000196,196.20022790000075,Objects\006b.jpg,mid,s,1.6726285000004282,None,,,,,,,,00020,001,2025-11-08_18h29.24.405,MST_test,2024.2.2,59.99534436031268,2025-11-08 18h29.30.427047 +0530,
42,0,42,s,1.9453423999984807,None,42,0,42,0,196.21634970000014,,,,,,,,,,,,,,,,,,,,,,,,,,,,,,,,,,,,,,,,,,,,,,,,,,196.20031329999983,196.21634970000014,196.7330370000018,196.6999969999997,196.72220130000278,196.7330370000018,196.7330370000018,196.7330370000018,198.68329540000195,Objects\039b.jpg,pre,s,1.9453423999984807,None,,,,,,,,00020,001,2025-11-08_18h29.24.405,MST_test,2024.2.2,59.99534436031268,2025-11-08 18h29.30.427047 +0530,
43,0,43,o,2.4431551999987278,None,43,0,43,0,198.69963869999992,,,,,,,,,,,,,,,,,,,,,,,,,,,,,,,,,,,,,,,,,,,,,,,,,,198.68337760000213,198.69963869999992,199.19966399999976,199.18319580000025,199.18546910000077,199.19966399999976,199.19966399999976,199.19966399999976,201.6499272000001,Objects\154b.jpg,mid,o,2.4431551999987278,None,,,,,,,,00020,001,2025-11-08_18h29.24.405,MST_test,2024.2.2,59.99534436031268,2025-11-08 18h29.30.427047 +0530,
44,0,44,o,1.504091900002095,None,44,0,44,0,201.66626240000187,,,,,,,,,,,,,,,,,,,,,,,,,,,,,,,,,,,,,,,,,,,,,,,,,,201.65000900000086,201.66626240000187,202.16623270000127,202.1497347000004,202.15191460000278,202.16623270000127,202.16623270000127,202.16623270000127,203.68314180000016,Objects\345a.jpg,post,o,1.504091900002095,None,,,,,,,,00020,001,2025-11-08_18h29.24.405,MST_test,2024.2.2,59.99534436031268,2025-11-08 18h29.30.427047 +0530,
45,0,45,o,0.975014799998462,None,45,0,45,0,203.6995554999994,,,,,,,,,,,,,,,,,,,,,,,,,,,,,,,,,,,,,,,,,,,,,,,,,,203.683217400001,203.6995554999994,204.19950420000168,204.18302530000074,204.18979740000213,204.19950420000168,204.19950420000168,204.19950420000168,205.18324460000076,Objects\259a.jpg,mid,o,0.975014799998462,None,,,,,,,,00020,001,2025-11-08_18h29.24.405,MST_test,2024.2.2,59.99534436031268,2025-11-08 18h29.30.427047 +0530,
46,0,46,n,1.7661135000016657,None,46,0,46,0,205.19951460000084,,,,,,,,,,,,,,,,,,,,,,,,,,,,,,,,,,,,,,,,,,,,,,,,,,205.1833246999995,205.19951460000084,205.71618310000122,205.683026900002,205.6983687000029,205.71618310000122,205.71618310000122,205.71618310000122,207.48314220000248,Foils\093b.jpg,none,n,1.7661135000016657,None,,,,,,,,00020,001,2025-11-08_18h29.24.405,MST_test,2024.2.2,59.99534436031268,2025-11-08 18h29.30.427047 +0530,
47,0,47,o,1.2136185000017576,None,47,0,47,0,207.49944460000188,,,,,,,,,,,,,,,,,,,,,,,,,,,,,,,,,,,,,,,,,,,,,,,,,,207.48322480000206,207.49944460000188,207.99943189999976,207.98303790000136,207.98515410000255,207.99943189999976,207.99943189999976,207.99943189999976,209.21640150000167,Objects\193a.jpg,mid,o,1.2136185000017576,None,,,,,,,,00020,001,2025-11-08_18h29.24.405,MST_test,2024.2.2,59.99534436031268,2025-11-08 18h29.30.427047 +0530,
48,0,48,o,2.6015224999973725,None,48,0,48,0,209.23276230000192,,,,,,,,,,,,,,,,,,,,,,,,,,,,,,,,,,,,,,,,,,,,,,,,,,209.21648420000201,209.23276230000192,209.73273809999955,209.716264900002,209.72084860000177,209.73273809999955,209.73273809999955,209.73273809999955,212.34970740000063,Objects\258a.jpg,post,o,2.6015224999973725,None,,,,,,,,00020,001,2025-11-08_18h29.24.405,MST_test,2024.2.2,59.99534436031268,2025-11-08 18h29.30.427047 +0530,
49,0,49,o,1.6807879000007233,None,49,0,49,0,212.36603050000122,,,,,,,,,,,,,,,,,,,,,,,,,,,,,,,,,,,,,,,,,,,,,,,,,,212.3497954000013,212.36603050000122,212.86602640000274,212.84954330000255,212.8546877000008,212.86602640000274,212.86602640000274,212.86602640000274,214.5497032000021,Objects\094b.jpg,pre,o,1.6807879000007233,None,,,,,,,,00020,001,2025-11-08_18h29.24.405,MST_test,2024.2.2,59.99534436031268,2025-11-08 18h29.30.427047 +0530,
50,0,50,s,1.5306923999996798,None,50,0,50,0,214.56598529999974,,,,,,,,,,,,,,,,,,,,,,,,,,,,,,,,,,,,,,,,,,,,,,,,,,214.54979240000102,214.56598529999974,215.06597870000041,215.04949810000107,215.0539927000027,215.06597870000041,215.06597870000041,215.06597870000041,216.59958910000205,Objects\226a.jpg,post,s,1.5306923999996798,None,,,,,,,,00020,001,2025-11-08_18h29.24.405,MST_test,2024.2.2,59.99534436031268,2025-11-08 18h29.30.427047 +0530,
51,0,51,o,1.3395521999991615,None,51,0,51,0,216.61593240000002,,,,,,,,,,,,,,,,,,,,,,,,,,,,,,,,,,,,,,,,,,,,,,,,,,216.59967400000096,216.61593240000002,217.11589300000196,217.09943449999992,217.1047847000009,217.11589300000196,217.11589300000196,217.11589300000196,218.46614930000214,Objects\054a.jpg,pre,o,1.3395521999991615,None,,,,,,,,00020,001,2025-11-08_18h29.24.405,MST_test,2024.2.2,59.99534436031268,2025-11-08 18h29.30.427047 +0530,
52,0,52,n,9.914670999998634,None,52,0,52,0,218.48255210000207,,,,,,,,,,,,,,,,,,,,,,,,,,,,,,,,,,,,,,,,,,,,,,,,,,218.4662296000024,218.48255210000207,218.98251560000062,218.96617210000113,218.9680733999994,218.98251560000062,218.98251560000062,218.98251560000062,228.89942870000232,Foils\042a.jpg,none,n,9.914670999998634,None,,,,,,,,00020,001,2025-11-08_18h29.24.405,MST_test,2024.2.2,59.99534436031268,2025-11-08 18h29.30.427047 +0530,
53,0,53,s,2.082103600001574,None,53,0,53,0,228.91566570000214,,,,,,,,,,,,,,,,,,,,,,,,,,,,,,,,,,,,,,,,,,,,,,,,,,228.89954299999954,228.91566570000214,229.43229060000158,229.39921440000035,229.42127280000204,229.43229060000158,229.43229060000158,229.43229060000158,231.5160270000015,Objects\138b.jpg,pre,s,2.082103600001574,None,,,,,,,,00020,001,2025-11-08_18h29.24.405,MST_test,2024.2.2,59.99534436031268,2025-11-08 18h29.30.427047 +0530,
54,0,54,n,1.4429499999969266,None,54,0,54,0,231.53228920000038,,,,,,,,,,,,,,,,,,,,,,,,,,,,,,,,,,,,,,,,,,,,,,,,,,231.5161087000015,231.53228920000038,232.03228149999995,232.01575450000018,232.01834900000176,232.03228149999995,232.03228149999995,232.03228149999995,233.48255690000224,Foils\105a.jpg,none,n,1.4429499999969266,None,,,,,,,,00020,001,2025-11-08_18h29.24.405,MST_test,2024.2.2,59.99534436031268,2025-11-08 18h29.30.427047 +0530,
55,0,55,o,1.1429294999979902,None,55,0,55,0,233.49890420000156,,,,,,,,,,,,,,,,,,,,,,,,,,,,,,,,,,,,,,,,,,,,,,,,,,233.48264200000267,233.49890420000156,234.01552710000033,233.98239789999934,233.999696400002,234.01552710000033,234.01552710000033,234.01552710000033,235.16581829999996,Objects\197b.jpg,post,o,1.1429294999979902,None,,,,,,,,00020,001,2025-11-08_18h29.24.405,MST_test,2024.2.2,59.99534436031268,2025-11-08 18h29.30.427047 +0530,
56,0,56,o,1.2656007000005047,None,56,0,56,0,235.1821557000003,,,,,,,,,,,,,,,,,,,,,,,,,,,,,,,,,,,,,,,,,,,,,,,,,,235.16589400000157,235.1821557000003,235.69882150000194,235.6657475000029,235.6899540000013,235.69882150000194,235.69882150000194,235.69882150000194,236.96584150000126,Objects\170b.jpg,pre,o,1.2656007000005047,None,,,,,,,,00020,001,2025-11-08_18h29.24.405,MST_test,2024.2.2,59.99534436031268,2025-11-08 18h29.30.427047 +0530,
57,0,57,o,1.1563260000002629,None,57,0,57,0,236.9821207999994,,,,,,,,,,,,,,,,,,,,,,,,,,,,,,,,,,,,,,,,,,,,,,,,,,236.9659255000006,236.9821207999994,237.4821144000016,237.46576320000167,237.46788170000218,237.4821144000016,237.4821144000016,237.4821144000016,238.64905170000202,Objects\116a.jpg,mid,o,1.1563260000002629,None,,,,,,,,00020,001,2025-11-08_18h29.24.405,MST_test,2024.2.2,59.99534436031268,2025-11-08 18h29.30.427047 +0530,
58,0,58,o,1.3821836999995867,None,58,0,58,0,238.66545730000144,,,,,,,,,,,,,,,,,,,,,,,,,,,,,,,,,,,,,,,,,,,,,,,,,,238.64913330000127,238.66545730000144,239.18207520000215,239.14894040000218,239.1667344000016,239.18207520000215,239.18207520000215,239.18207520000215,240.565843700002,Objects\202b.jpg,mid,o,1.3821836999995867,None,,,,,,,,00020,001,2025-11-08_18h29.24.405,MST_test,2024.2.2,59.99534436031268,2025-11-08 18h29.30.427047 +0530,
59,0,59,s,7.415048599999864,None,59,0,59,0,240.58207849999962,,,,,,,,,,,,,,,,,,,,,,,,,,,,,,,,,,,,,,,,,,,,,,,,,,240.565935300001,240.58207849999962,241.08202829999937,241.0655910000023,241.07093950000126,241.08202829999937,241.08202829999937,241.08202829999937,248.49895910000123,Foils\034a.jpg,none,s,7.415048599999864,None,,,,,,,,00020,001,2025-11-08_18h29.24.405,MST_test,2024.2.2,59.99534436031268,2025-11-08 18h29.30.427047 +0530,
60,0,60,n,2.311766999999236,None,60,0,60,0,248.51523830000224,,,,,,,,,,,,,,,,,,,,,,,,,,,,,,,,,,,,,,,,,,,,,,,,,,248.49903880000056,248.51523830000224,249.0152252000007,248.99866459999976,249.00053219999972,249.0152252000007,249.0152252000007,249.0152252000007,251.33226719999948,Foils\113a.jpg,none,n,2.311766999999236,None,,,,,,,,00020,001,2025-11-08_18h29.24.405,MST_test,2024.2.2,59.99534436031268,2025-11-08 18h29.30.427047 +0530,
61,0,61,o,2.9965885000019625,None,61,0,61,0,251.34851530000014,,,,,,,,,,,,,,,,,,,,,,,,,,,,,,,,,,,,,,,,,,,,,,,,,,251.3323429000011,251.34851530000014,251.848492000001,251.83199830000012,251.83637660000022,251.848492000001,251.848492000001,251.848492000001,254.84882650000145,Objects\329a.jpg,mid,o,2.9965885000019625,None,,,,,,,,00020,001,2025-11-08_18h29.24.405,MST_test,2024.2.2,59.99534436031268,2025-11-08 18h29.30.427047 +0530,
62,0,62,o,1.0403554999975313,None,62,0,62,0,254.86510790000102,,,,,,,,,,,,,,,,,,,,,,,,,,,,,,,,,,,,,,,,,,,,,,,,,,254.8489069999996,254.86510790000102,255.3817694999998,255.34858449999956,255.36941950000255,255.3817694999998,255.3817694999998,255.3817694999998,256.4319991000011,Objects\063b.jpg,pre,o,1.0403554999975313,None,,,,,,,,00020,001,2025-11-08_18h29.24.405,MST_test,2024.2.2,59.99534436031268,2025-11-08 18h29.30.427047 +0530,
63,0,63,n,1.3177352999991854,None,63,0,63,0,256.4483945000029,,,,,,,,,,,,,,,,,,,,,,,,,,,,,,,,,,,,,,,,,,,,,,,,,,256.4320719999996,256.4483945000029,256.94836940000096,256.93186980000246,256.93379370000184,256.94836940000096,256.94836940000096,256.94836940000096,258.2819984000016,Foils\098a.jpg,none,n,1.3177352999991854,None,,,,,,,,00020,001,2025-11-08_18h29.24.405,MST_test,2024.2.2,59.99534436031268,2025-11-08 18h29.30.427047 +0530,
64,0,64,o,8.215492600000289,None,64,0,64,0,258.2983531000027,,,,,,,,,,,,,,,,,,,,,,,,,,,,,,,,,,,,,,,,,,,,,,,,,,258.2820857000006,258.2983531000027,258.81497690000106,258.78183480000007,258.79706889999943,258.81497690000106,258.81497690000106,258.81497690000106,267.0319363000017,Objects\260b.jpg,mid,o,8.215492600000289,None,,,,,,,,00020,001,2025-11-08_18h29.24.405,MST_test,2024.2.2,59.99534436031268,2025-11-08 18h29.30.427047 +0530,
65,0,65,o,1.0325874000009208,None,65,0,65,0,267.048163200001,,,,,,,,,,,,,,,,,,,,,,,,,,,,,,,,,,,,,,,,,,,,,,,,,,267.0320341000006,267.048163200001,267.54815040000176,267.53173980000065,267.53717210000104,267.54815040000176,267.54815040000176,267.54815040000176,268.5817980000029,Objects\178a.jpg,post,o,1.0325874000009208,None,,,,,,,,00020,001,2025-11-08_18h29.24.405,MST_test,2024.2.2,59.99534436031268,2025-11-08 18h29.30.427047 +0530,
66,0,66,s,1.9395479000013438,None,66,0,66,0,268.5981247000018,,,,,,,,,,,,,,,,,,,,,,,,,,,,,,,,,,,,,,,,,,,,,,,,,,268.58187929999985,268.5981247000018,269.11476179999954,269.0816319000005,269.0965520999998,269.11476179999954,269.11476179999954,269.11476179999954,271.06516700000066,Objects\206b.jpg,mid,s,1.9395479000013438,None,,,,,,,,00020,001,2025-11-08_18h29.24.405,MST_test,2024.2.2,59.99534436031268,2025-11-08 18h29.30.427047 +0530,
67,0,67,s,1.4180577000006451,None,67,0,67,0,271.08140300000014,,,,,,,,,,,,,,,,,,,,,,,,,,,,,,,,,,,,,,,,,,,,,,,,,,271.06524250000075,271.08140300000014,271.58097930000076,271.56493820000105,271.5753151000026,271.58097930000076,271.58097930000076,271.58097930000076,273.01504980000027,Objects\299b.jpg,pre,s,1.4180577000006451,None,,,,,,,,00020,001,2025-11-08_18h29.24.405,MST_test,2024.2.2,59.99534436031268,2025-11-08 18h29.30.427047 +0530,
68,0,68,o,1.1374864999997953,None,68,0,68,0,273.0313601000016,,,,,,,,,,,,,,,,,,,,,,,,,,,,,,,,,,,,,,,,,,,,,,,,,,273.01513420000265,273.0313601000016,273.5313227000006,273.5149214000012,273.52002410000205,273.5313227000006,273.5313227000006,273.5313227000006,274.68175180000253,Objects\105a.jpg,post,o,1.1374864999997953,None,,,,,,,,00020,001,2025-11-08_18h29.24.405,MST_test,2024.2.2,59.99534436031268,2025-11-08 18h29.30.427047 +0530,
69,0,69,s,1.4812094999979308,None,69,0,69,0,274.6979981000004,,,,,,,,,,,,,,,,,,,,,,,,,,,,,,,,,,,,,,,,,,,,,,,,,,274.6818306000023,274.6979981000004,275.2142793000021,275.1815397999999,275.2092076000008,275.2142793000021,275.2142793000021,275.2142793000021,276.69834560000163,Objects\275b.jpg,pre,s,1.4812094999979308,None,,,,,,,,00020,001,2025-11-08_18h29.24.405,MST_test,2024.2.2,59.99534436031268,2025-11-08 18h29.30.427047 +0530,
70,0,70,o,1.0711073000020406,None,70,0,70,0,276.71461830000044,,,,,,,,,,,,,,,,,,,,,,,,,,,,,,,,,,,,,,,,,,,,,,,,,,276.69842770000105,276.71461830000044,277.2479916000011,277.198169700001,277.20000150000124,277.2479916000011,277.2479916000011,277.2479916000011,278.3315325000003,Objects\380a.jpg,pre,o,1.0711073000020406,None,,,,,,,,00020,001,2025-11-08_18h29.24.405,MST_test,2024.2.2,59.99534436031268,2025-11-08 18h29.30.427047 +0530,
71,0,71,n,4.847677099998691,None,71,0,71,0,278.34787380000125,,,,,,,,,,,,,,,,,,,,,,,,,,,,,,,,,,,,,,,,,,,,,,,,,,278.33160820000194,278.34787380000125,278.8646630000003,278.8315266999998,278.8501044000004,278.8646630000003,278.8646630000003,278.8646630000003,283.71488450000106,Objects\168b.jpg,post,n,4.847677099998691,None,,,,,,,,00020,001,2025-11-08_18h29.24.405,MST_test,2024.2.2,59.99534436031268,2025-11-08 18h29.30.427047 +0530,
72,0,72,n,0.96200300000055,None,72,0,72,0,283.7311318000029,,,,,,,,,,,,,,,,,,,,,,,,,,,,,,,,,,,,,,,,,,,,,,,,,,283.7149677000016,283.7311318000029,284.23110240000096,284.2146665,284.2189330000001,284.23110240000096,284.23110240000096,284.23110240000096,285.1980646000011,Objects\257a.jpg,post,n,0.96200300000055,None,,,,,,,,00020,001,2025-11-08_18h29.24.405,MST_test,2024.2.2,59.99534436031268,2025-11-08 18h29.30.427047 +0530,
73,0,73,o,1.0712469999998575,None,73,0,73,0,285.2144298000021,,,,,,,,,,,,,,,,,,,,,,,,,,,,,,,,,,,,,,,,,,,,,,,,,,285.19814260000203,285.2144298000021,,285.69879370000126,285.7189591000024,285.7310811000025,285.7310811000025,285.7310811000025,286.81476979999934,Objects\224b.jpg,mid,o,1.0712469999998575,None,,,,,,,,00020,001,2025-11-08_18h29.24.405,MST_test,2024.2.2,59.99534436031268,2025-11-08 18h29.30.427047 +0530,
74,0,74,o,0.9274034999980358,None,74,0,74,0,286.831063900001,,,,,,,,,,,,,,,,,,,,,,,,,,,,,,,,,,,,,,,,,,,,,,,,,,286.8148585000017,286.831063900001,287.33106469999984,287.31466920000094,287.3194884000004,287.33106469999984,287.33106469999984,287.33106469999984,288.2647410999998,Objects\068a.jpg,pre,o,0.9274034999980358,None,,,,,,,,00020,001,2025-11-08_18h29.24.405,MST_test,2024.2.2,59.99534436031268,2025-11-08 18h29.30.427047 +0530,
75,0,75,s,1.7176259000007121,None,75,0,75,0,288.28102729999955,,,,,,,,,,,,,,,,,,,,,,,,,,,,,,,,,,,,,,,,,,,,,,,,,,288.2648267000004,288.28102729999955,288.7810223000015,288.76465520000056,288.77288690000205,288.7810223000015,288.7810223000015,288.7810223000015,290.51456490000055,Objects\118b.jpg,pre,s,1.7176259000007121,None,,,,,,,,00020,001,2025-11-08_18h29.24.405,MST_test,2024.2.2,59.99534436031268,2025-11-08 18h29.30.427047 +0530,
76,0,76,o,1.073918500002037,None,76,0,76,0,290.5309794999994,,,,,,,,,,,,,,,,,,,,,,,,,,,,,,,,,,,,,,,,,,,,,,,,,,290.5146445999999,290.5309794999994,291.0309651000025,291.01459460000115,291.01654100000087,291.0309651000025,291.0309651000025,291.0309651000025,292.11454460000095,Objects\233b.jpg,post,o,1.073918500002037,None,,,,,,,,00020,001,2025-11-08_18h29.24.405,MST_test,2024.2.2,59.99534436031268,2025-11-08 18h29.30.427047 +0530,
77,0,77,o,1.4300234000002092,None,77,0,77,0,292.1309605000024,,,,,,,,,,,,,,,,,,,,,,,,,,,,,,,,,,,,,,,,,,,,,,,,,,292.1146303000023,292.1309605000024,292.6309048000003,292.61455019999994,292.6196044999997,292.6309048000003,292.6309048000003,292.6309048000003,294.0645261999998,Objects\243b.jpg,mid,o,1.4300234000002092,None,,,,,,,,00020,001,2025-11-08_18h29.24.405,MST_test,2024.2.2,59.99534436031268,2025-11-08 18h29.30.427047 +0530,
78,0,78,o,1.0291069000013522,None,78,0,78,0,294.08089800000016,,,,,,,,,,,,,,,,,,,,,,,,,,,,,,,,,,,,,,,,,,,,,,,,,,294.06460420000076,294.08089800000016,294.59756410000045,294.5643885000027,294.5858627000016,294.59756410000045,294.59756410000045,294.59756410000045,295.63127929999973,Objects\122b.jpg,mid,o,1.0291069000013522,None,,,,,,,,00020,001,2025-11-08_18h29.24.405,MST_test,2024.2.2,59.99534436031268,2025-11-08 18h29.30.427047 +0530,
79,0,79,o,1.0708924000027764,None,79,0,79,0,295.64753650000057,,,,,,,,,,,,,,,,,,,,,,,,,,,,,,,,,,,,,,,,,,,,,,,,,,295.6313564000011,295.64753650000057,296.14748880000116,296.13109050000276,296.13619050000125,296.14748880000116,296.14748880000116,296.14748880000116,297.23109430000113,Objects\355a.jpg,mid,o,1.0708924000027764,None,,,,,,,,00020,001,2025-11-08_18h29.24.405,MST_test,2024.2.2,59.99534436031268,2025-11-08 18h29.30.427047 +0530,
80,0,80,n,2.3936639000021387,None,80,0,80,0,297.2475598000019,,,,,,,,,,,,,,,,,,,,,,,,,,,,,,,,,,,,,,,,,,,,,,,,,,297.2311727000015,297.2475598000019,297.74744909999936,297.73113150000063,297.7362307000003,297.74744909999936,297.74744909999936,297.74744909999936,300.14791909999985,Foils\106a.jpg,none,n,2.3936639000021387,None,,,,,,,,00020,001,2025-11-08_18h29.24.405,MST_test,2024.2.2,59.99534436031268,2025-11-08 18h29.30.427047 +0530,
81,0,81,s,1.6697869999989052,None,81,0,81,0,300.1641266000006,,,,,,,,,,,,,,,,,,,,,,,,,,,,,,,,,,,,,,,,,,,,,,,,,,300.14800970000215,300.1641266000006,300.680720700002,300.6475857000005,300.67188720000195,300.680720700002,300.680720700002,300.680720700002,302.36439410000094,Objects\214b.jpg,pre,s,1.6697869999989052,None,,,,,,,,00020,001,2025-11-08_18h29.24.405,MST_test,2024.2.2,59.99534436031268,2025-11-08 18h29.30.427047 +0530,
82,0,82,o,2.9316159000009065,None,82,0,82,0,302.3807138000011,,,,,,,,,,,,,,,,,,,,,,,,,,,,,,,,,,,,,,,,,,,,,,,,,,302.36447650000264,302.3807138000011,302.8973521000007,302.86420160000125,302.875678700002,302.8973521000007,302.8973521000007,302.8973521000007,305.8310719000001,Objects\072b.jpg,post,o,2.9316159000009065,None,,,,,,,,00020,001,2025-11-08_18h29.24.405,MST_test,2024.2.2,59.99534436031268,2025-11-08 18h29.30.427047 +0530,
83,0,83,n,4.068685500002175,None,83,0,83,0,305.8473105000012,,,,,,,,,,,,,,,,,,,,,,,,,,,,,,,,,,,,,,,,,,,,,,,,,,305.8311534000022,305.8473105000012,306.3639406000002,306.33078340000066,306.3509460999994,306.3639406000002,306.3639406000002,306.3639406000002,310.4476284000011,Objects\211b.jpg,pre,n,4.068685500002175,None,,,,,,,,00020,001,2025-11-08_18h29.24.405,MST_test,2024.2.2,59.99534436031268,2025-11-08 18h29.30.427047 +0530,
84,0,84,o,1.1273125000006985,None,84,0,84,0,310.4638644000006,,,,,,,,,,,,,,,,,,,,,,,,,,,,,,,,,,,,,,,,,,,,,,,,,,310.44771160000164,310.4638644000006,310.96382070000254,310.9473371000022,310.9524624000005,310.96382070000254,310.96382070000254,310.96382070000254,312.0975897000026,Objects\363a.jpg,post,o,1.1273125000006985,None,,,,,,,,00020,001,2025-11-08_18h29.24.405,MST_test,2024.2.2,59.99534436031268,2025-11-08 18h29.30.427047 +0530,
85,0,85,o,2.3983126000021002,None,85,0,85,0,312.1138291000025,,,,,,,,,,,,,,,,,,,,,,,,,,,,,,,,,,,,,,,,,,,,,,,,,,312.0976690999996,312.1138291000025,312.6138105000027,312.5973742999995,312.5993149999995,312.6138105000027,312.6138105000027,312.6138105000027,315.0141801000027,Objects\080a.jpg,mid,o,2.3983126000021002,None,,,,,,,,00020,001,2025-11-08_18h29.24.405,MST_test,2024.2.2,59.99534436031268,2025-11-08 18h29.30.427047 +0530,
86,0,86,s,1.264579999999114,None,86,0,86,0,315.0304408000011,,,,,,,,,,,,,,,,,,,,,,,,,,,,,,,,,,,,,,,,,,,,,,,,,,315.0142541999994,315.0304408000011,315.53041510000185,315.51386520000233,315.5158338000001,315.53041510000185,315.53041510000185,315.53041510000185,316.7974262000025,Objects\111a.jpg,pre,s,1.264579999999114,None,,,,,,,,00020,001,2025-11-08_18h29.24.405,MST_test,2024.2.2,59.99534436031268,2025-11-08 18h29.30.427047 +0530,
87,0,87,o,1.0748036999975739,None,87,0,87,0,316.8136962000026,,,,,,,,,,,,,,,,,,,,,,,,,,,,,,,,,,,,,,,,,,,,,,,,,,316.7975105000005,316.8136962000026,317.3136878000005,317.2972262000003,317.3041351000029,317.3136878000005,317.3136878000005,317.3136878000005,318.397495600002,Objects\236a.jpg,post,o,1.0748036999975739,None,,,,,,,,00020,001,2025-11-08_18h29.24.405,MST_test,2024.2.2,59.99534436031268,2025-11-08 18h29.30.427047 +0530,
88,0,88,n,0.8532988000006299,None,88,0,88,0,318.41366800000105,,,,,,,,,,,,,,,,,,,,,,,,,,,,,,,,,,,,,,,,,,,,,,,,,,318.39758410000286,318.41366800000105,318.91365150000274,318.8971741999994,318.9025247000027,318.91365150000274,318.91365150000274,318.91365150000274,319.7807157999996,Foils\017a.jpg,none,n,0.8532988000006299,None,,,,,,,,00020,001,2025-11-08_18h29.24.405,MST_test,2024.2.2,59.99534436031268,2025-11-08 18h29.30.427047 +0530,
89,0,89,n,1.2496398000002955,None,89,0,89,0,319.7970019000022,,,,,,,,,,,,,,,,,,,,,,,,,,,,,,,,,,,,,,,,,,,,,,,,,,319.78079419999995,319.7970019000022,320.2969561000027,320.2805513000021,320.2824980000005,320.2969561000027,320.2969561000027,320.2969561000027,321.547403200002,Foils\050a.jpg,none,n,1.2496398000002955,None,,,,,,,,00020,001,2025-11-08_18h29.24.405,MST_test,2024.2.2,59.99534436031268,2025-11-08 18h29.30.427047 +0530,
90,0,90,n,0.915347500002099,None,90,0,90,0,321.56363930000225,,,,,,,,,,,,,,,,,,,,,,,,,,,,,,,,,,,,,,,,,,,,,,,,,,321.54748630000176,321.56363930000225,322.0635884000003,322.04710700000214,322.0490925000013,322.0635884000003,322.0635884000003,322.0635884000003,322.9806331,Foils\010a.jpg,none,n,0.915347500002099,None,,,,,,,,00020,001,2025-11-08_18h29.24.405,MST_test,2024.2.2,59.99534436031268,2025-11-08 18h29.30.427047 +0530,
91,0,91,o,1.9434724999991886,None,91,0,91,0,322.99693150000166,,,,,,,,,,,,,,,,,,,,,,,,,,,,,,,,,,,,,,,,,,,,,,,,,,322.9807151999994,322.99693150000166,323.51358280000204,323.4804530000001,323.49495540000134,323.51358280000204,323.51358280000204,323.51358280000204,325.4638460999995,Objects\085b.jpg,pre,o,1.9434724999991886,None,,,,,,,,00020,001,2025-11-08_18h29.24.405,MST_test,2024.2.2,59.99534436031268,2025-11-08 18h29.30.427047 +0530,
92,0,92,o,2.0241499000003387,None,92,0,92,0,325.4802124000016,,,,,,,,,,,,,,,,,,,,,,,,,,,,,,,,,,,,,,,,,,,,,,,,,,325.4639268000028,325.4802124000016,325.9801662000027,325.9637686999995,325.9657982000026,325.9801662000027,325.9801662000027,325.9801662000027,328.0138876000019,Objects\163a.jpg,pre,o,2.0241499000003387,None,,,,,,,,00020,001,2025-11-08_18h29.24.405,MST_test,2024.2.2,59.99534436031268,2025-11-08 18h29.30.427047 +0530,
93,0,93,o,1.0723808000002464,None,93,0,93,0,328.0301367000029,,,,,,,,,,,,,,,,,,,,,,,,,,,,,,,,,,,,,,,,,,,,,,,,,,328.0139710000003,328.0301367000029,328.53011440000046,328.5136808000025,328.52220320000197,328.53011440000046,328.53011440000046,328.53011440000046,329.6137288000027,Objects\050b.jpg,post,o,1.0723808000002464,None,,,,,,,,00020,001,2025-11-08_18h29.24.405,MST_test,2024.2.2,59.99534436031268,2025-11-08 18h29.30.427047 +0530,
94,0,94,s,1.9572647999993933,None,94,0,94,0,329.63016229999994,,,,,,,,,,,,,,,,,,,,,,,,,,,,,,,,,,,,,,,,,,,,,,,,,,329.6138069000008,329.63016229999994,330.13007110000035,330.1136088000021,330.1156458000005,330.13007110000035,330.13007110000035,330.13007110000035,332.09713420000116,Objects\317b.jpg,post,s,1.9572647999993933,None,,,,,,,,00020,001,2025-11-08_18h29.24.405,MST_test,2024.2.2,59.99534436031268,2025-11-08 18h29.30.427047 +0530,
95,0,95,o,1.1150551999999152,None,95,0,95,0,332.11340030000065,,,,,,,,,,,,,,,,,,,,,,,,,,,,,,,,,,,,,,,,,,,,,,,,,,332.09722540000075,332.11340030000065,332.6133630000004,332.59699150000233,332.60208799999964,332.6133630000004,332.6133630000004,332.6133630000004,333.73045339999953,Objects\346a.jpg,mid,o,1.1150551999999152,None,,,,,,,,00020,001,2025-11-08_18h29.24.405,MST_test,2024.2.2,59.99534436031268,2025-11-08 18h29.30.427047 +0530,
96,0,96,n,1.2681907000005594,None,96,0,96,0,333.74665749999986,,,,,,,,,,,,,,,,,,,,,,,,,,,,,,,,,,,,,,,,,,,,,,,,,,333.7305331000025,333.74665749999986,334.24665150000146,334.2302450999996,334.23570180000024,334.24665150000146,334.24665150000146,334.24665150000146,335.53039600000193,Objects\018a.jpg,mid,n,1.2681907000005594,None,,,,,,,,00020,001,2025-11-08_18h29.24.405,MST_test,2024.2.2,59.99534436031268,2025-11-08 18h29.30.427047 +0530,
97,0,97,o,1.00259929999811,None,97,0,97,0,335.54664179999963,,,,,,,,,,,,,,,,,,,,,,,,,,,,,,,,,,,,,,,,,,,,,,,,,,335.53047230000084,335.54664179999963,336.0466852000027,336.0301995000009,336.0321937000008,336.0466852000027,336.0466852000027,336.0466852000027,337.06365460000234,Objects\002a.jpg,pre,o,1.00259929999811,None,,,,,,,,00020,001,2025-11-08_18h29.24.405,MST_test,2024.2.2,59.99534436031268,2025-11-08 18h29.30.427047 +0530,
98,0,98,o,2.4025790999985475,None,98,0,98,0,337.0799542999994,,,,,,,,,,,,,,,,,,,,,,,,,,,,,,,,,,,,,,,,,,,,,,,,,,337.0637357000014,337.0799542999994,337.59658200000194,337.56348770000113,337.58853720000116,337.59658200000194,337.59658200000194,337.59658200000194,340.0136001999999,Objects\365b.jpg,pre,o,2.4025790999985475,None,,,,,,,,00020,001,2025-11-08_18h29.24.405,MST_test,2024.2.2,59.99534436031268,2025-11-08 18h29.30.427047 +0530,
99,0,99,o,1.217182699998375,None,99,0,99,0,340.02989030000026,,,,,,,,,,,,,,,,,,,,,,,,,,,,,,,,,,,,,,,,,,,,,,,,,,340.0136816000013,340.02989030000026,340.52984370000195,340.5133964000015,340.51889479999954,340.52984370000195,340.52984370000195,340.52984370000195,341.7635508000021,Objects\155a.jpg,post,o,1.217182699998375,None,,,,,,,,00020,001,2025-11-08_18h29.24.405,MST_test,2024.2.2,59.99534436031268,2025-11-08 18h29.30.427047 +0530,
100,0,100,n,0.9646380999984103,None,100,0,100,0,341.7798532000015,,,,,,,,,,,,,,,,,,,,,,,,,,,,,,,,,,,,,,,,,,,,,,,,,,341.76363680000213,341.7798532000015,342.2798118000028,342.26333030000023,342.2654025000011,342.2798118000028,342.2798118000028,342.2798118000028,343.24700420000227,Foils\073a.jpg,none,n,0.9646380999984103,None,,,,,,,,00020,001,2025-11-08_18h29.24.405,MST_test,2024.2.2,59.99534436031268,2025-11-08 18h29.30.427047 +0530,
101,0,101,n,0.9384131000006164,None,101,0,101,0,343.2631179000018,,,,,,,,,,,,,,,,,,,,,,,,,,,,,,,,,,,,,,,,,,,,,,,,,,343.2470878000022,343.2631179000018,343.7631392000003,343.7466512000028,343.7487564000003,343.7631392000003,343.7631392000003,343.7631392000003,344.71341100000063,Foils\121a.jpg,none,n,0.9384131000006164,None,,,,,,,,00020,001,2025-11-08_18h29.24.405,MST_test,2024.2.2,59.99534436031268,2025-11-08 18h29.30.427047 +0530,
102,0,102,s,1.2459573000014643,None,102,0,102,0,344.72977540000284,,,,,,,,,,,,,,,,,,,,,,,,,,,,,,,,,,,,,,,,,,,,,,,,,,344.7134953999994,344.72977540000284,345.2464117000018,345.2133939000014,345.2347587000004,345.2464117000018,345.2464117000018,345.2464117000018,346.4968174000023,Objects\367b.jpg,mid,s,1.2459573000014643,None,,,,,,,,00020,001,2025-11-08_18h29.24.405,MST_test,2024.2.2,59.99534436031268,2025-11-08 18h29.30.427047 +0530,
103,0,103,o,1.1178758999994898,None,103,0,103,0,346.5131534000029,,,,,,,,,,,,,,,,,,,,,,,,,,,,,,,,,,,,,,,,,,,,,,,,,,346.49689090000174,346.5131534000029,347.01305030000003,346.9966299000007,346.9996594000004,347.01305030000003,347.01305030000003,347.01305030000003,348.1467521000013,Objects\343a.jpg,post,o,1.1178758999994898,None,,,,,,,,00020,001,2025-11-08_18h29.24.405,MST_test,2024.2.2,59.99534436031268,2025-11-08 18h29.30.427047 +0530,
104,0,104,n,2.283639499997662,None,104,0,104,0,348.163013100002,,,,,,,,,,,,,,,,,,,,,,,,,,,,,,,,,,,,,,,,,,,,,,,,,,348.14682560000074,348.163013100002,348.6630404000025,348.6466212000014,348.65130130000034,348.6630404000025,348.6630404000025,348.6630404000025,350.96331700000155,Objects\262a.jpg,mid,n,2.283639499997662,None,,,,,,,,00020,001,2025-11-08_18h29.24.405,MST_test,2024.2.2,59.99534436031268,2025-11-08 18h29.30.427047 +0530,
105,0,105,o,2.839478300000337,None,105,0,105,0,350.9796423000007,,,,,,,,,,,,,,,,,,,,,,,,,,,,,,,,,,,,,,,,,,,,,,,,,,350.9633928000003,350.9796423000007,351.4796365000002,351.46314970000094,351.4685218000013,351.4796365000002,351.4796365000002,351.4796365000002,354.3299489000019,Objects\280a.jpg,mid,o,2.839478300000337,None,,,,,,,,00020,001,2025-11-08_18h29.24.405,MST_test,2024.2.2,59.99534436031268,2025-11-08 18h29.30.427047 +0530,
106,0,106,n,1.0749820999990334,None,106,0,106,0,354.34621139999945,,,,,,,,,,,,,,,,,,,,,,,,,,,,,,,,,,,,,,,,,,,,,,,,,,354.3300417999999,354.34621139999945,354.846193100002,354.82980130000215,354.83336300000155,354.846193100002,354.846193100002,354.846193100002,355.92988040000273,Foils\f5.jpg,none,n,1.0749820999990334,None,,,,,,,,00020,001,2025-11-08_18h29.24.405,MST_test,2024.2.2,59.99534436031268,2025-11-08 18h29.30.427047 +0530,
107,0,107,n,0.9844013000001723,None,107,0,107,0,355.9462020000028,,,,,,,,,,,,,,,,,,,,,,,,,,,,,,,,,,,,,,,,,,,,,,,,,,355.92996309999944,355.9462020000028,356.4461583000011,356.42974740000136,356.4351136000005,356.4461583000011,356.4461583000011,356.4461583000011,357.44646750000175,Foils\033a.jpg,none,n,0.9844013000001723,None,,,,,,,,00020,001,2025-11-08_18h29.24.405,MST_test,2024.2.2,59.99534436031268,2025-11-08 18h29.30.427047 +0530,
108,0,108,s,16.933448200001294,None,108,0,108,0,357.4628370999999,,,,,,,,,,,,,,,,,,,,,,,,,,,,,,,,,,,,,,,,,,,,,,,,,,357.44654880000235,357.4628370999999,357.97946650000085,357.946450200001,357.9590801000013,357.97946650000085,357.97946650000085,357.97946650000085,374.9295090000014,Objects\215b.jpg,pre,s,16.933448200001294,None,,,,,,,,00020,001,2025-11-08_18h29.24.405,MST_test,2024.2.2,59.99534436031268,2025-11-08 18h29.30.427047 +0530,
109,0,109,s,1.4467688000004273,None,109,0,109,0,374.94579990000057,,,,,,,,,,,,,,,,,,,,,,,,,,,,,,,,,,,,,,,,,,,,,,,,,,374.9296056000021,374.94579990000057,375.4457650000004,375.4293862000013,375.43459070000245,375.4457650000004,375.4457650000004,375.4457650000004,376.89606280000226,Objects\305a.jpg,post,s,1.4467688000004273,None,,,,,,,,00020,001,2025-11-08_18h29.24.405,MST_test,2024.2.2,59.99534436031268,2025-11-08 18h29.30.427047 +0530,
110,0,110,s,1.2887712000010652,None,110,0,110,0,376.91237209999963,,,,,,,,,,,,,,,,,,,,,,,,,,,,,,,,,,,,,,,,,,,,,,,,,,376.89616110000134,376.91237209999963,377.41239850000056,377.3960100000004,377.39775910000026,377.41239850000056,377.41239850000056,377.41239850000056,378.7127655000004,Objects\190a.jpg,post,s,1.2887712000010652,None,,,,,,,,00020,001,2025-11-08_18h29.24.405,MST_test,2024.2.2,59.99534436031268,2025-11-08 18h29.30.427047 +0530,
111,0,111,o,1.039874800000689,None,111,0,111,0,378.72903640000004,,,,,,,,,,,,,,,,,,,,,,,,,,,,,,,,,,,,,,,,,,,,,,,,,,378.71283830000175,378.72903640000004,379.22902780000004,379.2126126000003,379.21466750000036,379.22902780000004,379.22902780000004,379.22902780000004,380.2793831000017,Objects\150a.jpg,pre,o,1.039874800000689,None,,,,,,,,00020,001,2025-11-08_18h29.24.405,MST_test,2024.2.2,59.99534436031268,2025-11-08 18h29.30.427047 +0530,
112,0,112,n,0.9873995000016293,None,112,0,112,0,380.2956843000029,,,,,,,,,,,,,,,,,,,,,,,,,,,,,,,,,,,,,,,,,,,,,,,,,,380.27945850000106,380.2956843000029,380.7956602000013,380.7792752000023,380.78131249999933,380.7956602000013,380.7956602000013,380.7956602000013,381.7959120000014,Foils\082a.jpg,none,n,0.9873995000016293,None,,,,,,,,00020,001,2025-11-08_18h29.24.405,MST_test,2024.2.2,59.99534436031268,2025-11-08 18h29.30.427047 +0530,
113,0,113,n,2.995542900000146,None,113,0,113,0,381.8123200000009,,,,,,,,,,,,,,,,,,,,,,,,,,,,,,,,,,,,,,,,,,,,,,,,,,381.79598740000074,381.8123200000009,382.3289678000001,382.29591970000183,382.3110846000018,382.3289678000001,382.3289678000001,382.3289678000001,385.3293020000019,Objects\019b.jpg,post,n,2.995542900000146,None,,,,,,,,00020,001,2025-11-08_18h29.24.405,MST_test,2024.2.2,59.99534436031268,2025-11-08 18h29.30.427047 +0530,
114,0,114,s,1.4644755000008445,None,114,0,114,0,385.3455619000015,,,,,,,,,,,,,,,,,,,,,,,,,,,,,,,,,,,,,,,,,,,,,,,,,,385.32939070000066,385.3455619000015,385.84554109999954,385.82910679999986,385.83122220000223,385.84554109999954,385.84554109999954,385.84554109999954,387.31254900000204,Foils\086a.jpg,none,s,1.4644755000008445,None,,,,,,,,00020,001,2025-11-08_18h29.24.405,MST_test,2024.2.2,59.99534436031268,2025-11-08 18h29.30.427047 +0530,
115,0,115,n,0.9853919000015594,None,115,0,115,0,387.32883700000093,,,,,,,,,,,,,,,,,,,,,,,,,,,,,,,,,,,,,,,,,,,,,,,,,,387.3126289000029,387.32883700000093,387.8288868000018,387.81244720000177,387.81456530000287,387.8288868000018,387.8288868000018,387.8288868000018,388.8291902000019,Foils\097a.jpg,none,n,0.9853919000015594,None,,,,,,,,00020,001,2025-11-08_18h29.24.405,MST_test,2024.2.2,59.99534436031268,2025-11-08 18h29.30.427047 +0530,
116,0,116,s,1.3791884000020218,None,116,0,116,0,388.84548220000215,,,,,,,,,,,,,,,,,,,,,,,,,,,,,,,,,,,,,,,,,,,,,,,,,,388.82927310000014,388.84548220000215,389.34547720000046,389.32891440000094,389.3341951000002,389.34547720000046,389.34547720000046,389.34547720000046,390.7289202000029,Objects\382a.jpg,pre,s,1.3791884000020218,None,,,,,,,,00020,001,2025-11-08_18h29.24.405,MST_test,2024.2.2,59.99534436031268,2025-11-08 18h29.30.427047 +0530,
117,0,117,s,1.5834453999996185,None,117,0,117,0,390.74544460000106,,,,,,,,,,,,,,,,,,,,,,,,,,,,,,,,,,,,,,,,,,,,,,,,,,390.7290088000009,390.74544460000106,391.24543370000174,391.22879060000196,391.23352650000015,391.24543370000174,391.24543370000174,391.24543370000174,392.84571700000015,Foils\057a.jpg,none,s,1.5834453999996185,None,,,,,,,,00020,001,2025-11-08_18h29.24.405,MST_test,2024.2.2,59.99534436031268,2025-11-08 18h29.30.427047 +0530,
118,0,118,o,0.8303725000005215,None,118,0,118,0,392.86205560000235,,,,,,,,,,,,,,,,,,,,,,,,,,,,,,,,,,,,,,,,,,,,,,,,,,392.84578690000126,392.86205560000235,393.36201450000226,393.34565320000183,393.3476265999998,393.36201450000226,393.36201450000226,393.36201450000226,394.1957241000018,Objects\020a.jpg,post,o,0.8303725000005215,None,,,,,,,,00020,001,2025-11-08_18h29.24.405,MST_test,2024.2.2,59.99534436031268,2025-11-08 18h29.30.427047 +0530,
119,0,119,o,0.8724621000001207,None,119,0,119,0,394.212030900002,,,,,,,,,,,,,,,,,,,,,,,,,,,,,,,,,,,,,,,,,,,,,,,,,,394.1958040000027,394.212030900002,394.71201190000284,394.6955386000009,394.70376410000245,394.71201190000284,394.71201190000284,394.71201190000284,395.5956566999994,Objects\112b.jpg,pre,o,0.8724621000001207,None,,,,,,,,00020,001,2025-11-08_18h29.24.405,MST_test,2024.2.2,59.99534436031268,2025-11-08 18h29.30.427047 +0530,
120,0,120,n,1.6039110999990953,None,120,0,120,0,395.61200740000277,,,,,,,,,,,,,,,,,,,,,,,,,,,,,,,,,,,,,,,,,,,,,,,,,,395.5957364999995,395.61200740000277,396.12862700000187,396.0956350000015,396.1202114000007,396.12862700000187,396.12862700000187,396.12862700000187,397.7457314000021,Objects\342b.jpg,mid,n,1.6039110999990953,None,,,,,,,,00020,001,2025-11-08_18h29.24.405,MST_test,2024.2.2,59.99534436031268,2025-11-08 18h29.30.427047 +0530,
121,0,121,o,1.136404400000174,None,121,0,121,0,397.76195590000134,,,,,,,,,,,,,,,,,,,,,,,,,,,,,,,,,,,,,,,,,,,,,,,,,,397.74580920000153,397.76195590000134,398.2619517000021,398.24541560000216,398.2495908000019,398.2619517000021,398.2619517000021,398.2619517000021,399.412284500002,Objects\335a.jpg,mid,o,1.136404400000174,None,,,,,,,,00020,001,2025-11-08_18h29.24.405,MST_test,2024.2.2,59.99534436031268,2025-11-08 18h29.30.427047 +0530,
122,0,122,n,1.5718716000010318,None,122,0,122,0,399.42857690000164,,,,,,,,,,,,,,,,,,,,,,,,,,,,,,,,,,,,,,,,,,,,,,,,,,399.4123663999999,399.42857690000164,399.92853690000265,399.9121778000008,399.9175189000016,399.92853690000265,399.92853690000265,399.92853690000265,401.5122743000029,Foils\049a.jpg,none,n,1.5718716000010318,None,,,,,,,,00020,001,2025-11-08_18h29.24.405,MST_test,2024.2.2,59.99534436031268,2025-11-08 18h29.30.427047 +0530,
123,0,123,o,0.669740900000761,None,123,0,123,0,401.52853870000035,,,,,,,,,,,,,,,,,,,,,,,,,,,,,,,,,,,,,,,,,,,,,,,,,,401.51236620000054,401.52853870000035,402.02849790000255,402.0120420000021,402.0163341000007,402.02849790000255,402.02849790000255,402.02849790000255,402.71220990000074,Objects\293a.jpg,pre,o,0.669740900000761,None,,,,,,,,00020,001,2025-11-08_18h29.24.405,MST_test,2024.2.2,59.99534436031268,2025-11-08 18h29.30.427047 +0530,
124,0,124,o,2.0133152000016707,None,124,0,124,0,402.72851260000243,,,,,,,,,,,,,,,,,,,,,,,,,,,,,,,,,,,,,,,,,,,,,,,,,,402.71228580000025,402.72851260000243,403.24516080000103,403.2120386000024,403.2324652000025,403.24516080000103,403.24516080000103,403.24516080000103,405.2621371000023,Objects\123b.jpg,post,o,2.0133152000016707,None,,,,,,,,00020,001,2025-11-08_18h29.24.405,MST_test,2024.2.2,59.99534436031268,2025-11-08 18h29.30.427047 +0530,
125,0,125,n,1.7442948999996588,None,125,0,125,0,405.2784525999996,,,,,,,,,,,,,,,,,,,,,,,,,,,,,,,,,,,,,,,,,,,,,,,,,,405.26221720000103,405.2784525999996,405.7784195999993,405.7620612999999,405.7642831000012,405.7784195999993,405.7784195999993,405.7784195999993,407.5287453000019,Foils\020b.jpg,none,n,1.7442948999996588,None,,,,,,,,00020,001,2025-11-08_18h29.24.405,MST_test,2024.2.2,59.99534436031268,2025-11-08 18h29.30.427047 +0530,
126,0,126,o,3.2714080000005197,None,126,0,126,0,407.5450619000003,,,,,,,,,,,,,,,,,,,,,,,,,,,,,,,,,,,,,,,,,,,,,,,,,,407.5288194999994,407.5450619000003,408.0450892000008,408.0285326000012,408.0304615000023,408.0450892000008,408.0450892000008,408.0450892000008,411.32871689999956,Objects\188a.jpg,pre,o,3.2714080000005197,None,,,,,,,,00020,001,2025-11-08_18h29.24.405,MST_test,2024.2.2,59.99534436031268,2025-11-08 18h29.30.427047 +0530,
127,0,127,s,1.44151039999997,None,127,0,127,0,411.344986600001,,,,,,,,,,,,,,,,,,,,,,,,,,,,,,,,,,,,,,,,,,,,,,,,,,411.32880710000245,411.344986600001,411.8616432000017,411.82858690000285,411.8448956000029,411.8616432000017,411.8616432000017,411.8616432000017,413.31203670000104,Objects\021b.jpg,post,s,1.44151039999997,None,,,,,,,,00020,001,2025-11-08_18h29.24.405,MST_test,2024.2.2,59.99534436031268,2025-11-08 18h29.30.427047 +0530,
128,0,128,s,7.224155299998529,None,128,0,128,0,413.32824919999985,,,,,,,,,,,,,,,,,,,,,,,,,,,,,,,,,,,,,,,,,,,,,,,,,,413.31211819999953,413.32824919999985,413.8282319000027,413.8119141999996,413.81391820000135,413.8282319000027,413.8282319000027,413.8282319000027,421.0618288000005,Objects\041a.jpg,pre,s,7.224155299998529,None,,,,,,,,00020,001,2025-11-08_18h29.24.405,MST_test,2024.2.2,59.99534436031268,2025-11-08 18h29.30.427047 +0530,
129,0,129,o,1.2505228000009083,None,129,0,129,0,421.078075100002,,,,,,,,,,,,,,,,,,,,,,,,,,,,,,,,,,,,,,,,,,,,,,,,,,421.0619254000012,421.078075100002,421.57817980000254,421.56180310000127,421.5638403000012,421.57817980000254,421.57817980000254,421.57817980000254,422.84522760000254,Objects\235b.jpg,post,o,1.2505228000009083,None,,,,,,,,00020,001,2025-11-08_18h29.24.405,MST_test,2024.2.2,59.99534436031268,2025-11-08 18h29.30.427047 +0530,
130,0,130,s,1.4210925000006682,None,130,0,130,0,422.8614035000028,,,,,,,,,,,,,,,,,,,,,,,,,,,,,,,,,,,,,,,,,,,,,,,,,,422.84529939999993,422.8614035000028,423.36135680000007,423.3449819000016,423.35477820000233,423.36135680000007,423.36135680000007,423.36135680000007,424.79497750000155,Objects\033b.jpg,mid,s,1.4210925000006682,None,,,,,,,,00020,001,2025-11-08_18h29.24.405,MST_test,2024.2.2,59.99534436031268,2025-11-08 18h29.30.427047 +0530,
131,0,131,o,1.7087152999993123,None,131,0,131,0,424.8113525000008,,,,,,,,,,,,,,,,,,,,,,,,,,,,,,,,,,,,,,,,,,,,,,,,,,424.7950582000012,424.8113525000008,425.3279798000003,425.2948518000012,425.3152872000028,425.3279798000003,425.3279798000003,425.3279798000003,427.04501940000046,Objects\264b.jpg,mid,o,1.7087152999993123,None,,,,,,,,00020,001,2025-11-08_18h29.24.405,MST_test,2024.2.2,59.99534436031268,2025-11-08 18h29.30.427047 +0530,
132,0,132,s,1.7409712999979092,None,132,0,132,0,427.06130400000256,,,,,,,,,,,,,,,,,,,,,,,,,,,,,,,,,,,,,,,,,,,,,,,,,,427.0451008000018,427.06130400000256,427.57797890000074,427.54480220000187,427.5655375000024,427.57797890000074,427.57797890000074,427.57797890000074,429.3282423000019,Objects\062b.jpg,mid,s,1.7409712999979092,None,,,,,,,,00020,001,2025-11-08_18h29.24.405,MST_test,2024.2.2,59.99534436031268,2025-11-08 18h29.30.427047 +0530,
133,0,133,s,1.2000355999989551,None,133,0,133,0,429.34459380000044,,,,,,,,,,,,,,,,,,,,,,,,,,,,,,,,,,,,,,,,,,,,,,,,,,429.3283270000029,429.34459380000044,429.8445509000012,429.8280851000018,429.83032260000255,429.8445509000012,429.8445509000012,429.8445509000012,431.0451127000015,Objects\228a.jpg,post,s,1.2000355999989551,None,,,,,,,,00020,001,2025-11-08_18h29.24.405,MST_test,2024.2.2,59.99534436031268,2025-11-08 18h29.30.427047 +0530,
134,0,134,o,1.7826309000010951,None,134,0,134,0,431.0612538000023,,,,,,,,,,,,,,,,,,,,,,,,,,,,,,,,,,,,,,,,,,,,,,,,,,431.0451869000026,431.0612538000023,431.57785520000107,431.5448080999995,431.56770920000054,431.57785520000107,431.57785520000107,431.57785520000107,433.36155780000263,Objects\249b.jpg,post,o,1.7826309000010951,None,,,,,,,,00020,001,2025-11-08_18h29.24.405,MST_test,2024.2.2,59.99534436031268,2025-11-08 18h29.30.427047 +0530,
135,0,135,n,2.4234543000020494,None,135,0,135,0,433.3778581000006,,,,,,,,,,,,,,,,,,,,,,,,,,,,,,,,,,,,,,,,,,,,,,,,,,433.3616447000022,433.3778581000006,433.91120290000254,433.8615392000029,433.9011207000003,433.91120290000254,433.91120290000254,433.91120290000254,436.3448730000018,Objects\383b.jpg,post,n,2.4234543000020494,None,,,,,,,,00020,001,2025-11-08_18h29.24.405,MST_test,2024.2.2,59.99534436031268,2025-11-08 18h29.30.427047 +0530,
136,0,136,o,1.1073020999974688,None,136,0,136,0,436.36114720000114,,,,,,,,,,,,,,,,,,,,,,,,,,,,,,,,,,,,,,,,,,,,,,,,,,436.34495340000285,436.36114720000114,436.8610597000006,436.84458860000086,436.84665900000255,436.8610597000006,436.8610597000006,436.8610597000006,437.97802460000094,Objects\279a.jpg,pre,o,1.1073020999974688,None,,,,,,,,00020,001,2025-11-08_18h29.24.405,MST_test,2024.2.2,59.99534436031268,2025-11-08 18h29.30.427047 +0530,
137,0,137,s,1.3656216999988828,None,137,0,137,0,437.9943948,,,,,,,,,,,,,,,,,,,,,,,,,,,,,,,,,,,,,,,,,,,,,,,,,,437.9781010000006,437.9943948,438.5110631999996,438.4779129000017,438.49823110000216,438.5110631999996,438.5110631999996,438.5110631999996,439.8781154999997,Objects\297b.jpg,post,s,1.3656216999988828,None,,,,,,,,00020,001,2025-11-08_18h29.24.405,MST_test,2024.2.2,59.99534436031268,2025-11-08 18h29.30.427047 +0530,
138,0,138,s,2.2118657999999414,None,138,0,138,0,439.89439100000163,,,,,,,,,,,,,,,,,,,,,,,,,,,,,,,,,,,,,,,,,,,,,,,,,,439.8781960000015,439.89439100000163,440.39432320000196,440.3779530000029,440.3833651999994,440.39432320000196,440.39432320000196,440.39432320000196,442.61120239999946,Objects\032a.jpg,post,s,2.2118657999999414,None,,,,,,,,00020,001,2025-11-08_18h29.24.405,MST_test,2024.2.2,59.99534436031268,2025-11-08 18h29.30.427047 +0530,
139,0,139,n,4.752990099997987,None,139,0,139,0,442.6276256000019,,,,,,,,,,,,,,,,,,,,,,,,,,,,,,,,,,,,,,,,,,,,,,,,,,442.6112869999997,442.6276256000019,443.1276061999997,443.1112348000024,443.1195117000025,443.1276061999997,443.1276061999997,443.1276061999997,447.8944760000013,Objects\140b.jpg,post,n,4.752990099997987,None,,,,,,,,00020,001,2025-11-08_18h29.24.405,MST_test,2024.2.2,59.99534436031268,2025-11-08 18h29.30.427047 +0530,
140,0,140,n,0.8943506000032357,None,140,0,140,0,447.91082280000046,,,,,,,,,,,,,,,,,,,,,,,,,,,,,,,,,,,,,,,,,,,,,,,,,,447.8945555999999,447.91082280000046,448.41080449999936,448.3944666999996,448.39636299999984,448.41080449999936,448.41080449999936,448.41080449999936,449.3111592000023,Foils\074a.jpg,none,n,0.8943506000032357,None,,,,,,,,00020,001,2025-11-08_18h29.24.405,MST_test,2024.2.2,59.99534436031268,2025-11-08 18h29.30.427047 +0530,
141,0,141,s,5.1592861999997695,None,141,0,141,0,449.3274453000013,,,,,,,,,,,,,,,,,,,,,,,,,,,,,,,,,,,,,,,,,,,,,,,,,,449.3112364000008,449.3274453000013,449.8274407000026,449.8109729000025,449.81927709999945,449.8274407000026,449.8274407000026,449.8274407000026,454.99427600000126,Objects\219b.jpg,mid,s,5.1592861999997695,None,,,,,,,,00020,001,2025-11-08_18h29.24.405,MST_test,2024.2.2,59.99534436031268,2025-11-08 18h29.30.427047 +0530,
142,0,142,s,1.6209886999968148,None,142,0,142,0,455.0106882,,,,,,,,,,,,,,,,,,,,,,,,,,,,,,,,,,,,,,,,,,,,,,,,,,454.99436810000043,455.0106882,455.52735140000004,455.4941572000025,455.5148200000003,455.52735140000004,455.52735140000004,455.52735140000004,457.1609948000005,Objects\144b.jpg,pre,s,1.6209886999968148,None,,,,,,,,00020,001,2025-11-08_18h29.24.405,MST_test,2024.2.2,59.99534436031268,2025-11-08 18h29.30.427047 +0530,
143,0,143,n,2.4930050000002666,None,143,0,143,0,457.1773073000004,,,,,,,,,,,,,,,,,,,,,,,,,,,,,,,,,,,,,,,,,,,,,,,,,,457.16107730000294,457.1773073000004,457.6772802000014,457.66079920000266,457.66306110000005,457.6772802000014,457.6772802000014,457.6772802000014,460.17762420000145,Foils\058a.jpg,none,n,2.4930050000002666,None,,,,,,,,00020,001,2025-11-08_18h29.24.405,MST_test,2024.2.2,59.99534436031268,2025-11-08 18h29.30.427047 +0530,
144,0,144,s,2.719781399999192,None,144,0,144,0,460.1939130000028,,,,,,,,,,,,,,,,,,,,,,,,,,,,,,,,,,,,,,,,,,,,,,,,,,460.1777038,460.1939130000028,460.71053870000105,460.67752720000135,460.6913467000013,460.71053870000105,460.71053870000105,460.71053870000105,463.4441962000019,Objects\001b.jpg,post,s,2.719781399999192,None,,,,,,,,00020,001,2025-11-08_18h29.24.405,MST_test,2024.2.2,59.99534436031268,2025-11-08 18h29.30.427047 +0530,
145,0,145,o,2.6888937000003352,None,145,0,145,0,463.4605018000002,,,,,,,,,,,,,,,,,,,,,,,,,,,,,,,,,,,,,,,,,,,,,,,,,,463.444281600001,463.4605018000002,463.96049480000147,463.9439240000029,463.94589690000066,463.96049480000147,463.96049480000147,463.96049480000147,466.6606955000025,Objects\101a.jpg,mid,o,2.6888937000003352,None,,,,,,,,00020,001,2025-11-08_18h29.24.405,MST_test,2024.2.2,59.99534436031268,2025-11-08 18h29.30.427047 +0530,
146,0,146,o,1.2793263999992632,None,146,0,146,0,466.67710200000147,,,,,,,,,,,,,,,,,,,,,,,,,,,,,,,,,,,,,,,,,,,,,,,,,,466.6607839999997,466.67710200000147,467.1770920000017,467.16067939999994,467.1630006000014,467.1770920000017,467.1770920000017,467.1770920000017,468.46082600000227,Objects\366a.jpg,pre,o,1.2793263999992632,None,,,,,,,,00020,001,2025-11-08_18h29.24.405,MST_test,2024.2.2,59.99534436031268,2025-11-08 18h29.30.427047 +0530,
147,0,147,s,2.445254099999147,None,147,0,147,0,468.4770634000015,,,,,,,,,,,,,,,,,,,,,,,,,,,,,,,,,,,,,,,,,,,,,,,,,,468.4609077999994,468.4770634000015,468.97705359999964,468.96060260000013,468.9624612000007,468.97705359999964,468.97705359999964,468.97705359999964,471.4274194000027,Foils\066a.jpg,none,s,2.445254099999147,None,,,,,,,,00020,001,2025-11-08_18h29.24.405,MST_test,2024.2.2,59.99534436031268,2025-11-08 18h29.30.427047 +0530,
148,0,148,o,1.5809217999994871,None,148,0,148,0,471.44365540000217,,,,,,,,,,,,,,,,,,,,,,,,,,,,,,,,,,,,,,,,,,,,,,,,,,471.4275019000015,471.44365540000217,471.94362080000064,471.92719990000114,471.93236940000133,471.94362080000064,471.94362080000064,471.94362080000064,473.52737759999945,Objects\381a.jpg,mid,o,1.5809217999994871,None,,,,,,,,00020,001,2025-11-08_18h29.24.405,MST_test,2024.2.2,59.99534436031268,2025-11-08 18h29.30.427047 +0530,
149,0,149,o,1.0340493000003335,None,149,0,149,0,473.54361810000046,,,,,,,,,,,,,,,,,,,,,,,,,,,,,,,,,,,,,,,,,,,,,,,,,,473.5274573000024,473.54361810000046,474.06027430000177,474.0270866999999,474.04505659999995,474.06027430000177,474.06027430000177,474.06027430000177,475.11055430000124,Objects\164b.jpg,post,o,1.0340493000003335,None,,,,,,,,00020,001,2025-11-08_18h29.24.405,MST_test,2024.2.2,59.99534436031268,2025-11-08 18h29.30.427047 +0530,
,,,,,,,,,,,,,,,,,,,,,,,,,,,,,,,,,,,,,,,,,,,,,,,,,,,,,,,,,,,,,,,,,,,,,,,,,,475.11061280000285,475.126896400001,475.126896400001,478.5605203000014,space,3.42589930000031,None,00020,001,2025-11-08_18h29.24.405,MST_test,2024.2.2,59.99534436031268,2025-11-08 18h29.30.427047 +0530,
