Sl_no,image_path,thisN,thisTrialN,thisRepN,key_resp_5.keys,key_resp_5.rt,key_resp_5.duration,key_resp_7.keys,key_resp_9.keys,key_resp_9.rt,key_resp_9.duration,key_resp_8.keys,key_resp_8.rt,key_resp_8.duration,practice.thisRepN,practice.thisTrialN,practice.thisN,trials.thisRepN,trials.thisTrialN,trials.thisN,thisRow.t,notes,welcome_page.started,text.started,key_resp.started,welcome_page.stopped,key_resp.keys,key_resp.rt,key_resp.duration,instructions.started,ins.started,key_resp_2.started,instructions.stopped,key_resp_2.keys,key_resp_2.rt,key_resp_2.duration,objects_only_instruction.started,text_3.started,key_resp_3.started,objects_only_instruction.stopped,key_resp_3.keys,key_resp_3.rt,key_resp_3.duration,ISI.started,text_4.started,ISI.stopped,practice_block.started,image.started,key_resp_5.started,text_5.started,practice_block.stopped,practice.key_resp_5.keys,practice.key_resp_5.rt,practice.key_resp_5.duration,indoor_outdoor.started,indoor_outdoor.stopped,practice.key_resp_7.keys,text_4.stopped,image.stopped,key_resp_5.stopped,text_5.stopped,practice_to_main.started,text_2.started,key_resp_4.started,practice_to_main.stopped,key_resp_4.keys,key_resp_4.rt,key_resp_4.duration,objects.started,image_2.started,text_9.started,key_resp_9.started,objects.stopped,category,trials.key_resp_9.keys,trials.key_resp_9.rt,trials.key_resp_9.duration,encoding_task.started,encoding_task.stopped,trials.key_resp_8.keys,image_2.stopped,text_9.stopped,key_resp_9.stopped,text_8.started,key_resp_8.started,trials.key_resp_8.rt,trials.key_resp_8.duration,end_experiment.started,text_6.started,key_resp_6.started,end_experiment.stopped,key_resp_6.keys,key_resp_6.rt,key_resp_6.duration,list_of_stimuli,encoding_task_accuracy,participant,session,date,expName,psychopyVersion,frameRate,expStart,
,,,,,,,,,,,,,,,,,,,,,,,0.0018476000004739035,0.0037650000012945384,0.0037650000012945384,28.174856200002978,space,28.11822640000173,None,,,,,,,,,,,,,,,,,,,,,,,,,,,,,,,,,,,,,,,,,,,,,,,,,,,,,,,,,,,,,,,,,,,,00029,001,2025-11-15_11h29.12.994,MST_task,2024.2.0,99.81414605885091,2025-11-15 11h29.22.823789 +0530,
,,,,,,,,,,,,,,,,,,,,,,,,,,,,,,28.174896100001206,28.185741400000552,28.185741400000552,89.43339330000163,space,61.239637999999104,None,,,,,,,,,,,,,,,,,,,,,,,,,,,,,,,,,,,,,,,,,,,,,,,,,,,,,,,,,,,,,00029,001,2025-11-15_11h29.12.994,MST_task,2024.2.0,99.81414605885091,2025-11-15 11h29.22.823789 +0530,
,,,,,,,,,,,,,,,,,,,,,,,,,,,,,,,,,,,,,89.43351460000122,89.44929640000191,89.44929640000191,97.94241710000279,space,8.488145999999688,None,,,,,,,,,,,,,,,,,,,,,,,,,,,,,,,,,,,,,,,,,,,,,,,,,,,,,,00029,001,2025-11-15_11h29.12.994,MST_task,2024.2.0,99.81414605885091,2025-11-15 11h29.22.823789 +0530,
7,practice_images/166a.jpg,0,0,1,f,2.6117424000003666,0.16010689999893657,None,,,,,,,1,0,0,,,,97.97106050000002,,,,,,,,,,,,,,,,,,,,,,,97.96846140000343,97.97106050000002,98.450817500001,98.4660670000012,98.47754740000164,98.47754740000164,98.47754740000164,101.45069020000301,f,2.6117424000003666,0.16010689999893657,101.45445850000033,101.45449000000008,None,,,,,,,,,,,,,,,,,,,,,,,,,,,,,,,,,,,,,,,,00029,001,2025-11-15_11h29.12.994,MST_task,2024.2.0,99.81414605885091,2025-11-15 11h29.22.823789 +0530,
9,practice_images/180a.jpg,1,1,1,f,1.3499303000025975,0.18400389999806066,None,,,,,,,1,1,1,,,,101.46001250000336,,,,,,,,,,,,,,,,,,,,,,,101.45459990000018,101.46001250000336,101.950925000001,101.96161570000186,101.96394800000053,101.96394800000053,101.96394800000053,104.95127030000003,f,1.3499303000025975,0.18400389999806066,104.95137290000275,104.95141409999997,None,101.96394800000053,104.95961880000323,104.95961880000323,104.95961880000323,,,,,,,,,,,,,,,,,,,,,,,,,,,,,,,,,,,,00029,001,2025-11-15_11h29.12.994,MST_task,2024.2.0,99.81414605885091,2025-11-15 11h29.22.823789 +0530,
4,practice_images/002b.jpg,2,2,1,f,1.614279900000838,0.2169136000011349,None,,,,,,,1,2,2,,,,104.95961880000323,,,,,,,,,,,,,,,,,,,,,,,104.95161270000244,104.95961880000323,105.45051400000011,105.46452750000026,105.46719720000328,105.46719720000328,105.46719720000328,108.45055590000266,f,1.614279900000838,0.2169136000011349,108.45067280000148,108.45071480000115,None,105.46719720000328,108.45931850000125,108.45931850000125,108.45931850000125,,,,,,,,,,,,,,,,,,,,,,,,,,,,,,,,,,,,00029,001,2025-11-15_11h29.12.994,MST_task,2024.2.0,99.81414605885091,2025-11-15 11h29.22.823789 +0530,
8,practice_images/178a.jpg,3,3,1,j,2.6048742000020866,0.18440909999844735,None,,,,,,,1,3,3,,,,108.45931850000125,,,,,,,,,,,,,,,,,,,,,,,108.4509014000032,108.45931850000125,108.94988290000038,108.96248600000035,108.96474500000113,108.96474500000113,108.96474500000113,111.9502655000033,j,2.6048742000020866,0.18440909999844735,111.95038090000162,111.95042450000255,None,108.96474500000113,111.95878700000321,111.95878700000321,111.95878700000321,,,,,,,,,,,,,,,,,,,,,,,,,,,,,,,,,,,,00029,001,2025-11-15_11h29.12.994,MST_task,2024.2.0,99.81414605885091,2025-11-15 11h29.22.823789 +0530,
6,practice_images/158a.jpg,4,4,1,j,1.1131558999986737,0.2007837000019208,None,,,,,,,1,4,4,,,,111.95878700000321,,,,,,,,,,,,,,,,,,,,,,,111.95062510000207,111.95878700000321,112.45012690000294,112.4620023000025,112.46414430000004,112.46414430000004,112.46414430000004,115.44990180000241,j,1.1131558999986737,0.2007837000019208,115.45011550000345,115.4501760000021,None,112.46414430000004,115.45833950000087,115.45833950000087,115.45833950000087,,,,,,,,,,,,,,,,,,,,,,,,,,,,,,,,,,,,00029,001,2025-11-15_11h29.12.994,MST_task,2024.2.0,99.81414605885091,2025-11-15 11h29.22.823789 +0530,
5,practice_images/139a.jpg,5,5,1,j,2.05749509999805,0.15168640000047162,None,,,,,,,1,5,5,,,,115.45833950000087,,,,,,,,,,,,,,,,,,,,,,,115.45046370000273,115.45833950000087,115.9492917000025,115.96565430000192,115.967987,115.967987,115.967987,118.95838290000029,j,2.05749509999805,0.15168640000047162,118.96549530000266,118.96555250000165,None,115.967987,,,,,,,,,,,,,,,,,,,,,,,,,,,,,,,,,,,,,,,00029,001,2025-11-15_11h29.12.994,MST_task,2024.2.0,99.81414605885091,2025-11-15 11h29.22.823789 +0530,
2,practice_images/031a.jpg,6,6,1,f,1.908890099999553,0.18433060000097612,None,,,,,,,1,6,6,,,,118.96782140000141,,,,,,,,,,,,,,,,,,,,,,,118.96565700000065,118.96782140000141,119.45830200000273,119.46642800000336,119.46885590000238,119.46885590000238,119.46885590000238,122.45893140000044,f,1.908890099999553,0.18433060000097612,122.45903980000003,122.45908340000096,None,119.46885590000238,122.46757480000088,122.46757480000088,122.46757480000088,,,,,,,,,,,,,,,,,,,,,,,,,,,,,,,,,,,,00029,001,2025-11-15_11h29.12.994,MST_task,2024.2.0,99.81414605885091,2025-11-15 11h29.22.823789 +0530,
1,practice_images/013a.jpg,7,7,1,j,1.2375936000025831,0.15178709999963758,None,,,,,,,1,7,7,,,,122.46757480000088,,,,,,,,,,,,,,,,,,,,,,,122.45928240000285,122.46757480000088,122.95860020000327,122.97021880000102,122.97241620000204,122.97241620000204,122.97241620000204,125.95843740000055,j,1.2375936000025831,0.15178709999963758,125.95854030000191,125.9585810000026,None,122.97241620000204,125.96710150000217,125.96710150000217,125.96710150000217,,,,,,,,,,,,,,,,,,,,,,,,,,,,,,,,,,,,00029,001,2025-11-15_11h29.12.994,MST_task,2024.2.0,99.81414605885091,2025-11-15 11h29.22.823789 +0530,
3,practice_images/037a.jpg,8,8,1,f,1.7620573999993212,0.20007270000132849,None,,,,,,,1,8,8,,,,125.96710150000217,,,,,,,,,,,,,,,,,,,,,,,125.95877070000279,125.96710150000217,126.4581453000028,126.46899570000096,126.4712107000014,126.4712107000014,126.4712107000014,129.45777420000013,f,1.7620573999993212,0.20007270000132849,129.45788119999997,129.45792070000243,None,126.4712107000014,129.46658520000346,129.46658520000346,129.46658520000346,,,,,,,,,,,,,,,,,,,,,,,,,,,,,,,,,,,,00029,001,2025-11-15_11h29.12.994,MST_task,2024.2.0,99.81414605885091,2025-11-15 11h29.22.823789 +0530,
10,practice_images/182a.jpg,9,9,1,f,0.8783141999992949,0.1922878999976092,None,,,,,,,1,9,9,,,,129.46658520000346,,,,,,,,,,,,,,,,,,,,,,,129.45810239999992,129.46658520000346,129.95771680000325,129.96913960000165,129.97138560000167,129.97138560000167,129.97138560000167,132.95779330000005,f,0.8783141999992949,0.1922878999976092,132.957917300002,132.95796470000278,None,129.97138560000167,132.97134030000234,132.97134030000234,132.97134030000234,,,,,,,,,,,,,,,,,,,,,,,,,,,,,,,,,,,,00029,001,2025-11-15_11h29.12.994,MST_task,2024.2.0,99.81414605885091,2025-11-15 11h29.22.823789 +0530,
,,,,,,,,,,,,,,,,,,,,,,,,,,,,,,,,,,,,,,,,,,,,,,,,,,,,,,,,,,,,,,132.95811820000017,132.97134030000234,132.97134030000234,141.5265971000008,space,8.55027649999829,None,,,,,,,,,,,,,,,,,,,,,,,,,,,,,00029,001,2025-11-15_11h29.12.994,MST_task,2024.2.0,99.81414605885091,2025-11-15 11h29.22.823789 +0530,
,Objects\175a.jpg,0,0,1,,,,,f,1.5157982999990054,0.17581369999970775,None,,,,,,1,0,0,141.5349774000024,,,,,,,,,,,,,,,,,,,,,,,141.52868140000282,141.5349774000024,142.02599720000217,,,,,,,,,,,,142.0539392999999,,,,,,,,,,,142.0505075000001,142.0539392999999,142.0539392999999,142.0539392999999,145.0351569000013,shoe,f,1.5157982999990054,0.17581369999970775,145.04036380000252,145.04039140000168,None,,,,,,,,,,,,,,,,,00029,001,2025-11-15_11h29.12.994,MST_task,2024.2.0,99.81414605885091,2025-11-15 11h29.22.823789 +0530,
,Objects\268a.jpg,1,0,2,,,,,f,1.5206078000010166,0.18416869999782648,None,,,,,,2,0,1,145.0445213000021,,,,,,,,,,,,,,,,,,,,,,,145.0404868000005,145.0445213000021,145.53574090000257,,,,,,,,,,,,145.5528884000014,,,,,,,,,,,145.54981570000018,145.5528884000014,145.5528884000014,145.5528884000014,148.54468910000287,shoe,f,1.5206078000010166,0.18416869999782648,148.5448288000007,148.5448783000029,None,,,,,,,,,,,,,,,,,00029,001,2025-11-15_11h29.12.994,MST_task,2024.2.0,99.81414605885091,2025-11-15 11h29.22.823789 +0530,
,Objects\210a.jpg,2,0,3,,,,,f,1.7000234000006458,0.17609349999838741,None,,,,,,3,0,2,148.55415540000104,,,,,,,,,,,,,,,,,,,,,,,148.54510550000123,148.55415540000104,149.0454966000034,,,,,,,,,,,,149.0612340000007,,,,,,,,,,,149.05845490000138,149.0612340000007,149.0612340000007,149.0612340000007,152.0455490000022,shoe,f,1.7000234000006458,0.17609349999838741,152.04569130000164,152.04573150000215,None,152.0538946000015,152.0538946000015,152.0538946000015,,,,,,,,,,,,,,00029,001,2025-11-15_11h29.12.994,MST_task,2024.2.0,99.81414605885091,2025-11-15 11h29.22.823789 +0530,
,Objects\354a.jpg,3,0,4,,,,,f,1.42534169999999,0.19996729999911622,None,,,,,,4,0,3,152.0538946000015,,,,,,,,,,,,,,,,,,,,,,,152.04591890000302,152.0538946000015,152.54468650000126,,,,,,,,,,,,152.5605757000012,,,,,,,,,,,152.5576093000018,152.5605757000012,152.5605757000012,152.5605757000012,155.54456879999998,shoe,f,1.42534169999999,0.19996729999911622,155.54467240000304,155.54470550000042,None,155.5532869000017,155.5532869000017,155.5532869000017,,,,,,,,,,,,,,00029,001,2025-11-15_11h29.12.994,MST_task,2024.2.0,99.81414605885091,2025-11-15 11h29.22.823789 +0530,
,Objects\152a.jpg,4,0,5,,,,,f,1.2449582000008377,0.2163096999975096,None,,,,,,5,0,4,155.5532869000017,,,,,,,,,,,,,,,,,,,,,,,155.54494360000172,155.5532869000017,156.04461470000024,,,,,,,,,,,,156.06065730000046,,,,,,,,,,,156.05762099999993,156.06065730000046,156.06065730000046,156.06065730000046,159.04441920000318,shoe,f,1.2449582000008377,0.2163096999975096,159.04454620000251,159.04458740000337,None,159.05286460000207,159.05286460000207,159.05286460000207,,,,,,,,,,,,,,00029,001,2025-11-15_11h29.12.994,MST_task,2024.2.0,99.81414605885091,2025-11-15 11h29.22.823789 +0530,
,Objects\035a.jpg,5,0,6,,,,,j,2.5676722999996855,0.18395040000177687,None,,,,,,6,0,5,159.05286460000207,,,,,,,,,,,,,,,,,,,,,,,159.04489300000205,159.05286460000207,159.54412330000196,,,,,,,,,,,,159.56195170000137,,,,,,,,,,,159.55932329999996,159.56195170000137,159.56195170000137,159.56195170000137,162.55316000000312,shoe,j,2.5676722999996855,0.18395040000177687,162.55331510000178,162.55336840000018,None,,,,,,,,,,,,,,,,,00029,001,2025-11-15_11h29.12.994,MST_task,2024.2.0,99.81414605885091,2025-11-15 11h29.22.823789 +0530,
,Objects\171a.jpg,6,0,7,,,,,j,1.2426381000004767,0.20820499999899766,None,,,,,,7,0,6,162.56246760000067,,,,,,,,,,,,,,,,,,,,,,,162.55363130000114,162.56246760000067,163.05326720000085,,,,,,,,,,,,163.0709035,,,,,,,,,,,163.06831130000137,163.0709035,163.0709035,163.0709035,166.0626684000017,shoe,j,1.2426381000004767,0.20820499999899766,166.0628144000002,166.06286700000055,None,,,,,,,,,,,,,,,,,00029,001,2025-11-15_11h29.12.994,MST_task,2024.2.0,99.81414605885091,2025-11-15 11h29.22.823789 +0530,
,Objects\140a.jpg,7,0,8,,,,,f,1.36223169999721,0.1922615000003134,None,,,,,,8,0,7,166.0721020000019,,,,,,,,,,,,,,,,,,,,,,,166.0632207000017,166.0721020000019,166.56314650000058,,,,,,,,,,,,166.58323360000213,,,,,,,,,,,166.58062140000038,166.58323360000213,166.58323360000213,166.58323360000213,169.57196660000045,indoor,f,1.36223169999721,0.1922615000003134,169.57507440000336,169.57510090000142,None,,,,,,,,,,,,,,,,,00029,001,2025-11-15_11h29.12.994,MST_task,2024.2.0,99.81414605885091,2025-11-15 11h29.22.823789 +0530,
,Objects\211a.jpg,8,0,9,,,,,f,1.920826000001398,0.1686861999987741,None,,,,,,9,0,8,169.58141200000318,,,,,,,,,,,,,,,,,,,,,,,169.5751990000026,169.58141200000318,170.07240610000008,,,,,,,,,,,,170.08856560000277,,,,,,,,,,,170.085685500002,170.08856560000277,170.08856560000277,170.08856560000277,173.0724674000012,indoor,f,1.920826000001398,0.1686861999987741,173.07257050000044,173.0726033000028,None,173.08107720000044,173.08107720000044,173.08107720000044,,,,,,,,,,,,,,00029,001,2025-11-15_11h29.12.994,MST_task,2024.2.0,99.81414605885091,2025-11-15 11h29.22.823789 +0530,
,Objects\233a.jpg,9,0,10,,,,,f,2.8157023999992816,None,None,,,,,,10,0,9,173.08107720000044,,,,,,,,,,,,,,,,,,,,,,,173.07277280000199,173.08107720000044,173.5718299,,,,,,,,,,,,173.58640180000293,,,,,,,,,,,173.58354990000225,173.58640180000293,173.58640180000293,173.58640180000293,176.57199470000342,indoor,f,2.8157023999992816,None,176.57209800000055,176.57213180000326,None,176.58079310000176,176.58079310000176,176.58079310000176,,,,,,,,,,,,,,00029,001,2025-11-15_11h29.12.994,MST_task,2024.2.0,99.81414605885091,2025-11-15 11h29.22.823789 +0530,
,Objects\245a.jpg,10,0,11,,,,,None,,,j,0.032412900000053924,None,,,,11,0,10,176.58079310000176,,,,,,,,,,,,,,,,,,,,,,,176.57228620000024,176.58079310000176,177.0719401000024,,,,,,,,,,,,177.08888170000137,,,,,,,,,,,177.0860832000035,177.08888170000137,177.08888170000137,177.08888170000137,180.0808328000021,indoor,None,,,180.08094530000017,180.13215800000035,j,,,,180.09033000000272,180.09033000000272,0.032412900000053924,None,,,,,,,,,,00029,001,2025-11-15_11h29.12.994,MST_task,2024.2.0,99.81414605885091,2025-11-15 11h29.22.823789 +0530,
,Objects\369a.jpg,11,0,12,,,,,f,2.5772320999967633,0.15989900000204216,None,,,,,,12,0,11,180.14037950000056,,,,,,,,,,,,,,,,,,,,,,,180.13238020000063,180.14037950000056,180.63142660000085,,,,,,,,,,,,180.64876180000283,,,,,,,,,,,180.64611650000006,180.64876180000283,180.64876180000283,180.64876180000283,183.63991270000042,indoor,f,2.5772320999967633,0.15989900000204216,183.63997390000077,183.63998900000297,None,,,,,,,,,,,,,,,,,00029,001,2025-11-15_11h29.12.994,MST_task,2024.2.0,99.81414605885091,2025-11-15 11h29.22.823789 +0530,
,Objects\112a.jpg,12,0,13,,,,,f,1.2375457000016468,0.20009029999710037,None,,,,,,13,0,12,183.64963160000116,,,,,,,,,,,,,,,,,,,,,,,183.6400616000028,183.64963160000116,184.14039330000014,,,,,,,,,,,,184.15622370000347,,,,,,,,,,,184.1535769000002,184.15622370000347,184.15622370000347,184.15622370000347,187.14028320000216,indoor,f,1.2375457000016468,0.20009029999710037,187.14045299999998,187.140516200001,None,,,,,,,,,,,,,,,,,00029,001,2025-11-15_11h29.12.994,MST_task,2024.2.0,99.81414605885091,2025-11-15 11h29.22.823789 +0530,
,Objects\222a.jpg,13,0,14,,,,,f,2.247222400001192,0.19120069999917177,None,,,,,,14,0,13,187.14949390000038,,,,,,,,,,,,,,,,,,,,,,,187.1408134000012,187.14949390000038,187.64077670000188,,,,,,,,,,,,187.65903710000202,,,,,,,,,,,187.65598670000327,187.65903710000202,187.65903710000202,187.65903710000202,190.64975350000168,indoor,f,2.247222400001192,0.19120069999917177,190.6498918000034,190.6499376000029,None,,,,,,,,,,,,,,,,,00029,001,2025-11-15_11h29.12.994,MST_task,2024.2.0,99.81414605885091,2025-11-15 11h29.22.823789 +0530,
,Objects\021a.jpg,14,0,15,,,,,j,2.4079514000004565,0.16780870000002324,None,,,,,,15,0,14,190.65909830000237,,,,,,,,,,,,,,,,,,,,,,,190.65019720000055,190.65909830000237,191.15005680000104,,,,,,,,,,,,191.17025340000328,,,,,,,,,,,191.16695299999992,191.17025340000328,191.17025340000328,191.17025340000328,194.15933110000333,shoe,j,2.4079514000004565,0.16780870000002324,194.16561660000298,194.1656460000013,None,,,,,,,,,,,,,,,,,00029,001,2025-11-15_11h29.12.994,MST_task,2024.2.0,99.81414605885091,2025-11-15 11h29.22.823789 +0530,
,Objects\217a.jpg,15,0,16,,,,,j,1.9896456000024045,0.16640149999875575,None,,,,,,16,0,15,194.1684484000034,,,,,,,,,,,,,,,,,,,,,,,194.16575330000342,194.1684484000034,194.65977620000194,,,,,,,,,,,,194.67731450000065,,,,,,,,,,,194.6742312000024,194.67731450000065,194.67731450000065,194.67731450000065,197.66893520000303,shoe,j,1.9896456000024045,0.16640149999875575,197.66908460000195,197.6691350000001,None,,,,,,,,,,,,,,,,,00029,001,2025-11-15_11h29.12.994,MST_task,2024.2.0,99.81414605885091,2025-11-15 11h29.22.823789 +0530,
,Objects\149a.jpg,16,0,17,,,,,j,1.4469159000000218,0.12004549999983283,None,,,,,,17,0,16,197.67822440000236,,,,,,,,,,,,,,,,,,,,,,,197.6693785000025,197.67822440000236,198.16928770000231,,,,,,,,,,,,198.18635930000164,,,,,,,,,,,198.1833480000023,198.18635930000164,198.18635930000164,198.18635930000164,201.17795030000343,shoe,j,1.4469159000000218,0.12004549999983283,201.17804150000302,201.17807150000226,None,,,,,,,,,,,,,,,,,00029,001,2025-11-15_11h29.12.994,MST_task,2024.2.0,99.81414605885091,2025-11-15 11h29.22.823789 +0530,
,Objects\224a.jpg,17,0,18,,,,,f,1.4018244999970193,0.1923038999993878,None,,,,,,18,0,17,201.18752660000246,,,,,,,,,,,,,,,,,,,,,,,201.1782798000022,201.18752660000246,201.67901840000195,,,,,,,,,,,,201.69601020000118,,,,,,,,,,,201.69289260000005,201.69601020000118,201.69601020000118,201.69601020000118,204.68815970000287,shoe,f,1.4018244999970193,0.1923038999993878,204.68833040000027,204.68839650000155,None,,,,,,,,,,,,,,,,,00029,001,2025-11-15_11h29.12.994,MST_task,2024.2.0,99.81414605885091,2025-11-15 11h29.22.823789 +0530,
,Objects\078a.jpg,18,0,19,,,,,j,1.1639648999989731,0.16823260000091977,None,,,,,,19,0,18,204.6973577000026,,,,,,,,,,,,,,,,,,,,,,,204.6887001000032,204.6973577000026,205.1884835000019,,,,,,,,,,,,205.20595030000186,,,,,,,,,,,205.20289570000023,205.20595030000186,205.20595030000186,205.20595030000186,208.1976057000029,shoe,j,1.1639648999989731,0.16823260000091977,208.1977532000019,208.1978044000025,None,,,,,,,,,,,,,,,,,00029,001,2025-11-15_11h29.12.994,MST_task,2024.2.0,99.81414605885091,2025-11-15 11h29.22.823789 +0530,
,Objects\329a.jpg,19,0,20,,,,,f,1.3198712000012165,0.20085219999964465,None,,,,,,20,0,19,208.2069048000012,,,,,,,,,,,,,,,,,,,,,,,208.19804690000092,208.2069048000012,208.69770260000223,,,,,,,,,,,,208.71340899999996,,,,,,,,,,,208.71053210000173,208.71340899999996,208.71340899999996,208.71340899999996,211.6982885000034,shoe,f,1.3198712000012165,0.20085219999964465,211.69845120000173,211.69850490000317,None,211.7065634999999,211.7065634999999,211.7065634999999,,,,,,,,,,,,,,00029,001,2025-11-15_11h29.12.994,MST_task,2024.2.0,99.81414605885091,2025-11-15 11h29.22.823789 +0530,
,Objects\308a.jpg,20,0,21,,,,,f,1.6332739999998012,0.2079751999990549,None,,,,,,21,0,20,211.7065634999999,,,,,,,,,,,,,,,,,,,,,,,211.6988532000032,211.7065634999999,212.19769140000062,,,,,,,,,,,,212.21593420000136,,,,,,,,,,,212.212715200003,212.21593420000136,212.21593420000136,212.21593420000136,215.2067962000001,shoe,f,1.6332739999998012,0.2079751999990549,215.2069556000024,215.20700540000325,None,,,,,,,,,,,,,,,,,00029,001,2025-11-15_11h29.12.994,MST_task,2024.2.0,99.81414605885091,2025-11-15 11h29.22.823789 +0530,
,Objects\062a.jpg,21,0,22,,,,,f,1.6918523000022105,0.20072499999878346,None,,,,,,22,0,21,215.2160502000006,,,,,,,,,,,,,,,,,,,,,,,215.20728750000126,215.2160502000006,215.70723550000184,,,,,,,,,,,,215.72551990000284,,,,,,,,,,,215.72270910000225,215.72551990000284,215.72551990000284,215.72551990000284,218.71589980000135,indoor,f,1.6918523000022105,0.20072499999878346,218.720758200001,218.7208059000004,None,,,,,,,,,,,,,,,,,00029,001,2025-11-15_11h29.12.994,MST_task,2024.2.0,99.81414605885091,2025-11-15 11h29.22.823789 +0530,
,Objects\355a.jpg,22,0,23,,,,,j,2.297291099999711,0.20911060000071302,None,,,,,,23,0,22,218.72533830000248,,,,,,,,,,,,,,,,,,,,,,,218.72097420000136,218.72533830000248,219.21602180000264,,,,,,,,,,,,219.23182250000173,,,,,,,,,,,219.2289531000024,219.23182250000173,219.23182250000173,219.23182250000173,222.21684870000172,indoor,j,2.297291099999711,0.20911060000071302,222.21698440000182,222.2170530000003,None,222.22490400000243,222.22490400000243,222.22490400000243,,,,,,,,,,,,,,00029,001,2025-11-15_11h29.12.994,MST_task,2024.2.0,99.81414605885091,2025-11-15 11h29.22.823789 +0530,
,Objects\190a.jpg,23,0,24,,,,,f,1.5552070000012463,0.1679164999986824,None,,,,,,24,0,23,222.22490400000243,,,,,,,,,,,,,,,,,,,,,,,222.21726150000177,222.22490400000243,222.71571360000235,,,,,,,,,,,,222.73467520000122,,,,,,,,,,,222.7316952000001,222.73467520000122,222.73467520000122,222.73467520000122,225.72505170000295,indoor,f,1.5552070000012463,0.1679164999986824,225.72517960000187,225.7252191000007,None,,,,,,,,,,,,,,,,,00029,001,2025-11-15_11h29.12.994,MST_task,2024.2.0,99.81414605885091,2025-11-15 11h29.22.823789 +0530,
,Objects\280a.jpg,24,0,25,,,,,f,1.0072547999989183,0.16803660000005038,None,,,,,,25,0,24,225.73456590000205,,,,,,,,,,,,,,,,,,,,,,,225.72541880000063,225.73456590000205,226.22544110000308,,,,,,,,,,,,226.24224470000263,,,,,,,,,,,226.23985730000277,226.24224470000263,226.24224470000263,226.24224470000263,229.23455600000307,indoor,f,1.0072547999989183,0.16803660000005038,229.23468210000283,229.23472270000275,None,,,,,,,,,,,,,,,,,00029,001,2025-11-15_11h29.12.994,MST_task,2024.2.0,99.81414605885091,2025-11-15 11h29.22.823789 +0530,
,Objects\065a.jpg,25,0,26,,,,,f,1.609535200001119,0.17673369999829447,None,,,,,,26,0,25,229.24404570000115,,,,,,,,,,,,,,,,,,,,,,,229.2349178000004,229.24404570000115,229.73539900000105,,,,,,,,,,,,229.751704600003,,,,,,,,,,,229.74906970000302,229.751704600003,229.751704600003,229.751704600003,232.74415990000125,indoor,f,1.609535200001119,0.17673369999829447,232.74438680000094,232.7444381000023,None,,,,,,,,,,,,,,,,,00029,001,2025-11-15_11h29.12.994,MST_task,2024.2.0,99.81414605885091,2025-11-15 11h29.22.823789 +0530,
,Objects\116a.jpg,26,0,27,,,,,f,1.8596748000018124,0.18356599999970058,None,,,,,,27,0,26,232.7536140000011,,,,,,,,,,,,,,,,,,,,,,,232.74467000000004,232.7536140000011,233.24480570000014,,,,,,,,,,,,233.26196530000016,,,,,,,,,,,233.25930660000085,233.26196530000016,233.26196530000016,233.26196530000016,236.25352400000338,indoor,f,1.8596748000018124,0.18356599999970058,236.25363960000323,236.25368040000103,None,,,,,,,,,,,,,,,,,00029,001,2025-11-15_11h29.12.994,MST_task,2024.2.0,99.81414605885091,2025-11-15 11h29.22.823789 +0530,
,Objects\306a.jpg,27,0,28,,,,,f,1.4542018000029202,0.15197039999839035,None,,,,,,28,0,27,236.26315930000055,,,,,,,,,,,,,,,,,,,,,,,236.25387580000097,236.26315930000055,236.75402480000048,,,,,,,,,,,,236.77159700000266,,,,,,,,,,,236.76863510000112,236.77159700000266,236.77159700000266,236.77159700000266,239.763151500003,indoor,f,1.4542018000029202,0.15197039999839035,239.76329550000082,239.76334420000057,None,,,,,,,,,,,,,,,,,00029,001,2025-11-15_11h29.12.994,MST_task,2024.2.0,99.81414605885091,2025-11-15 11h29.22.823789 +0530,
,Objects\041a.jpg,28,0,29,,,,,j,1.3899734999977227,0.19233620000159135,None,,,,,,29,0,28,239.77298410000003,,,,,,,,,,,,,,,,,,,,,,,239.7635524000034,239.77298410000003,240.26371840000138,,,,,,,,,,,,240.28357700000197,,,,,,,,,,,240.28050240000084,240.28357700000197,240.28357700000197,240.28357700000197,243.27307320000182,shoe,j,1.3899734999977227,0.19233620000159135,243.27962730000218,243.27964600000269,None,,,,,,,,,,,,,,,,,00029,001,2025-11-15_11h29.12.994,MST_task,2024.2.0,99.81414605885091,2025-11-15 11h29.22.823789 +0530,
,Objects\239a.jpg,29,0,30,,,,,f,1.542414399998961,0.21641149999777554,None,,,,,,30,0,29,243.28220040000087,,,,,,,,,,,,,,,,,,,,,,,243.27975850000075,243.28220040000087,243.77259380000032,,,,,,,,,,,,243.78764180000144,,,,,,,,,,,243.78470270000253,243.78764180000144,243.78764180000144,243.78764180000144,246.77337590000025,shoe,f,1.542414399998961,0.21641149999777554,246.7734924000033,246.77353050000238,None,246.78194020000228,246.78194020000228,246.78194020000228,,,,,,,,,,,,,,00029,001,2025-11-15_11h29.12.994,MST_task,2024.2.0,99.81414605885091,2025-11-15 11h29.22.823789 +0530,
,Objects\287a.jpg,30,0,31,,,,,f,1.264846000001853,0.19168920000083745,None,,,,,,31,0,30,246.78194020000228,,,,,,,,,,,,,,,,,,,,,,,246.7737210000014,246.78194020000228,247.2730233000002,,,,,,,,,,,,247.2889181999999,,,,,,,,,,,247.28597450000234,247.2889181999999,247.2889181999999,247.2889181999999,250.27299880000282,shoe,f,1.264846000001853,0.19168920000083745,250.27310829999988,250.27314380000098,None,250.28141440000036,250.28141440000036,250.28141440000036,,,,,,,,,,,,,,00029,001,2025-11-15_11h29.12.994,MST_task,2024.2.0,99.81414605885091,2025-11-15 11h29.22.823789 +0530,
,Objects\323a.jpg,31,0,32,,,,,f,1.5333262999993167,0.19135930000265944,None,,,,,,32,0,31,250.28141440000036,,,,,,,,,,,,,,,,,,,,,,,250.27331230000345,250.28141440000036,250.77235290000317,,,,,,,,,,,,250.78859600000214,,,,,,,,,,,250.78574180000214,250.78859600000214,250.78859600000214,250.78859600000214,253.77254790000006,shoe,f,1.5333262999993167,0.19135930000265944,253.7726728000016,253.7727141000032,None,253.7810292000031,253.7810292000031,253.7810292000031,,,,,,,,,,,,,,00029,001,2025-11-15_11h29.12.994,MST_task,2024.2.0,99.81414605885091,2025-11-15 11h29.22.823789 +0530,
,Objects\200a.jpg,32,0,33,,,,,j,1.4509935999994923,0.23169879999841214,None,,,,,,33,0,32,253.7810292000031,,,,,,,,,,,,,,,,,,,,,,,253.7729145000012,253.7810292000031,254.2719425000032,,,,,,,,,,,,254.28706250000323,,,,,,,,,,,254.28422840000349,254.28706250000323,254.28706250000323,254.28706250000323,257.2724130000024,shoe,j,1.4509935999994923,0.23169879999841214,257.2725575000004,257.2726032999999,None,257.28064040000027,257.28064040000027,257.28064040000027,,,,,,,,,,,,,,00029,001,2025-11-15_11h29.12.994,MST_task,2024.2.0,99.81414605885091,2025-11-15 11h29.22.823789 +0530,
,Objects\201a.jpg,33,0,34,,,,,f,1.141790099998616,0.16861879999851226,None,,,,,,34,0,33,257.28064040000027,,,,,,,,,,,,,,,,,,,,,,,257.2728083000002,257.28064040000027,257.77192670000295,,,,,,,,,,,,257.7875938000034,,,,,,,,,,,257.7846047000021,257.7875938000034,257.7875938000034,257.7875938000034,260.7720070000032,shoe,f,1.141790099998616,0.16861879999851226,260.7721408000034,260.7721825000008,None,260.78018110000266,260.78018110000266,260.78018110000266,,,,,,,,,,,,,,00029,001,2025-11-15_11h29.12.994,MST_task,2024.2.0,99.81414605885091,2025-11-15 11h29.22.823789 +0530,
,Objects\158a.jpg,34,0,35,,,,,f,1.494731500002672,0.1600373999972362,None,,,,,,35,0,34,260.78018110000266,,,,,,,,,,,,,,,,,,,,,,,260.77238360000047,260.78018110000266,261.27114560000336,,,,,,,,,,,,261.2911535000021,,,,,,,,,,,261.2880769000003,261.2911535000021,261.2911535000021,261.2911535000021,264.2802832000016,shoe,f,1.494731500002672,0.1600373999972362,264.28042670000286,264.28047570000126,None,,,,,,,,,,,,,,,,,00029,001,2025-11-15_11h29.12.994,MST_task,2024.2.0,99.81414605885091,2025-11-15 11h29.22.823789 +0530,
,Objects\305a.jpg,35,0,36,,,,,f,1.4965296000009403,0.160167599999113,None,,,,,,36,0,35,264.2897496000005,,,,,,,,,,,,,,,,,,,,,,,264.2808191000004,264.2897496000005,264.78090130000055,,,,,,,,,,,,264.80094830000235,,,,,,,,,,,264.7980768000016,264.80094830000235,264.80094830000235,264.80094830000235,267.7895880000033,indoor,f,1.4965296000009403,0.160167599999113,267.7947869000018,267.79483280000204,None,,,,,,,,,,,,,,,,,00029,001,2025-11-15_11h29.12.994,MST_task,2024.2.0,99.81414605885091,2025-11-15 11h29.22.823789 +0530,
,Objects\298a.jpg,36,0,37,,,,,j,2.942827099999704,None,None,,,,,,37,0,36,267.79911690000154,,,,,,,,,,,,,,,,,,,,,,,267.79499820000274,267.79911690000154,268.29019470000276,,,,,,,,,,,,268.3072108000015,,,,,,,,,,,268.3044723000021,268.3072108000015,268.3072108000015,268.3072108000015,271.2992133000007,indoor,j,2.942827099999704,None,271.29933789999995,271.29938250000123,None,,,,,,,,,,,,,,,,,00029,001,2025-11-15_11h29.12.994,MST_task,2024.2.0,99.81414605885091,2025-11-15 11h29.22.823789 +0530,
,Objects\382a.jpg,37,0,38,,,,,j,1.6486526999979105,0.12798789999942528,None,,,,,,38,0,37,271.3087402000019,,,,,,,,,,,,,,,,,,,,,,,271.2995891999999,271.3087402000019,271.799796700001,,,,,,,,,,,,271.81676360000347,,,,,,,,,,,271.81380870000066,271.81676360000347,271.81676360000347,271.81676360000347,274.808801500003,indoor,j,1.6486526999979105,0.12798789999942528,274.8089386000029,274.8089878000028,None,,,,,,,,,,,,,,,,,00029,001,2025-11-15_11h29.12.994,MST_task,2024.2.0,99.81414605885091,2025-11-15 11h29.22.823789 +0530,
,Objects\082a.jpg,38,0,39,,,,,j,1.5948079000008875,0.19176789999983157,None,,,,,,39,0,38,274.8183409000012,,,,,,,,,,,,,,,,,,,,,,,274.8092256000018,274.8183409000012,275.3094732000027,,,,,,,,,,,,275.32684450000306,,,,,,,,,,,275.3239328000018,275.32684450000306,275.32684450000306,275.32684450000306,278.3184190000029,indoor,j,1.5948079000008875,0.19176789999983157,278.31857350000064,278.31862110000293,None,,,,,,,,,,,,,,,,,00029,001,2025-11-15_11h29.12.994,MST_task,2024.2.0,99.81414605885091,2025-11-15 11h29.22.823789 +0530,
,Objects\077a.jpg,39,0,40,,,,,j,1.294519399998535,0.19184150000000955,None,,,,,,40,0,39,278.3278982000011,,,,,,,,,,,,,,,,,,,,,,,278.3188736000011,278.3278982000011,278.8192483000021,,,,,,,,,,,,278.83534070000314,,,,,,,,,,,278.83268640000097,278.83534070000314,278.83534070000314,278.83534070000314,281.8279118999999,indoor,j,1.294519399998535,0.19184150000000955,281.8280349000015,281.82807660000253,None,,,,,,,,,,,,,,,,,00029,001,2025-11-15_11h29.12.994,MST_task,2024.2.0,99.81414605885091,2025-11-15 11h29.22.823789 +0530,
,Objects\186a.jpg,40,0,41,,,,,f,1.7030640000011772,0.15180719999989378,None,,,,,,41,0,40,281.83738430000085,,,,,,,,,,,,,,,,,,,,,,,281.82828880000307,281.83738430000085,282.3283728000024,,,,,,,,,,,,282.34692240000004,,,,,,,,,,,282.34422670000276,282.34692240000004,282.34692240000004,282.34692240000004,285.33752000000095,indoor,f,1.7030640000011772,0.15180719999989378,285.33765550000317,285.3377440000004,None,,,,,,,,,,,,,,,,,00029,001,2025-11-15_11h29.12.994,MST_task,2024.2.0,99.81414605885091,2025-11-15 11h29.22.823789 +0530,
,Objects\348a.jpg,41,0,42,,,,,j,1.9385040999986813,0.19979590000002645,None,,,,,,42,0,41,285.3469507000009,,,,,,,,,,,,,,,,,,,,,,,285.3379842000031,285.3469507000009,285.83802520000245,,,,,,,,,,,,285.8553310000025,,,,,,,,,,,285.8525118000034,285.8553310000025,285.8553310000025,285.8553310000025,288.8472873000028,indoor,j,1.9385040999986813,0.19979590000002645,288.8474918000029,288.84755490000316,None,,,,,,,,,,,,,,,,,00029,001,2025-11-15_11h29.12.994,MST_task,2024.2.0,99.81414605885091,2025-11-15 11h29.22.823789 +0530,
,Objects\334a.jpg,42,0,43,,,,,j,2.0824233000021195,0.1749640999987605,None,,,,,,43,0,42,288.85658850000254,,,,,,,,,,,,,,,,,,,,,,,288.84782630000336,288.85658850000254,289.3476604000025,,,,,,,,,,,,289.3678200000031,,,,,,,,,,,289.36468890000106,289.3678200000031,289.3678200000031,289.3678200000031,292.356665000003,shoe,j,2.0824233000021195,0.1749640999987605,292.36398069999996,292.3640007000031,None,,,,,,,,,,,,,,,,,00029,001,2025-11-15_11h29.12.994,MST_task,2024.2.0,99.81414605885091,2025-11-15 11h29.22.823789 +0530,
,Objects\288a.jpg,43,0,44,,,,,f,1.214421600001515,0.19994429999860586,None,,,,,,44,0,43,292.36605280000003,,,,,,,,,,,,,,,,,,,,,,,292.36406870000064,292.36605280000003,292.8572357000012,,,,,,,,,,,,292.8748626000015,,,,,,,,,,,292.8719028000014,292.8748626000015,292.8748626000015,292.8748626000015,295.8662654,shoe,f,1.214421600001515,0.19994429999860586,295.8663994000017,295.8664454000027,None,,,,,,,,,,,,,,,,,00029,001,2025-11-15_11h29.12.994,MST_task,2024.2.0,99.81414605885091,2025-11-15 11h29.22.823789 +0530,
,Objects\207a.jpg,44,0,45,,,,,f,2.90629650000119,None,None,,,,,,45,0,44,295.87577990000136,,,,,,,,,,,,,,,,,,,,,,,295.8666618000025,295.87577990000136,296.3671796000017,,,,,,,,,,,,296.38377780000155,,,,,,,,,,,296.38073280000026,296.38377780000155,296.38377780000155,296.38377780000155,299.3758448000008,shoe,f,2.90629650000119,None,299.375990200002,299.37604000000283,None,,,,,,,,,,,,,,,,,00029,001,2025-11-15_11h29.12.994,MST_task,2024.2.0,99.81414605885091,2025-11-15 11h29.22.823789 +0530,
,Objects\159a.jpg,45,0,46,,,,,f,1.7879068000002007,0.1359377000007953,None,,,,,,46,0,45,299.3852272000004,,,,,,,,,,,,,,,,,,,,,,,299.376282600002,299.3852272000004,299.8762913000028,,,,,,,,,,,,299.8942014000022,,,,,,,,,,,299.89130470000237,299.8942014000022,299.8942014000022,299.8942014000022,302.88543460000074,shoe,f,1.7879068000002007,0.1359377000007953,302.88558470000135,302.8856332000032,None,,,,,,,,,,,,,,,,,00029,001,2025-11-15_11h29.12.994,MST_task,2024.2.0,99.81414605885091,2025-11-15 11h29.22.823789 +0530,
,Objects\325a.jpg,46,0,47,,,,,f,1.7537085000003572,0.1361053999971773,None,,,,,,47,0,46,302.89473160000125,,,,,,,,,,,,,,,,,,,,,,,302.8859504000029,302.89473160000125,303.385262900003,,,,,,,,,,,,303.39974390000134,,,,,,,,,,,303.3967550000016,303.39974390000134,303.39974390000134,303.39974390000134,306.3863557000004,shoe,f,1.7537085000003572,0.1361053999971773,306.38650570000027,306.3865544,None,306.39442180000333,306.39442180000333,306.39442180000333,,,,,,,,,,,,,,00029,001,2025-11-15_11h29.12.994,MST_task,2024.2.0,99.81414605885091,2025-11-15 11h29.22.823789 +0530,
,Objects\086a.jpg,47,0,48,,,,,j,1.7573520000005374,0.16736260000106995,None,,,,,,48,0,47,306.39442180000333,,,,,,,,,,,,,,,,,,,,,,,306.3867710000013,306.39442180000333,306.88530020000326,,,,,,,,,,,,306.9008627000003,,,,,,,,,,,306.8979225000003,306.9008627000003,306.9008627000003,306.9008627000003,309.8857308000006,shoe,j,1.7573520000005374,0.16736260000106995,309.88584790000095,309.88588660000096,None,309.8940399000021,309.8940399000021,309.8940399000021,,,,,,,,,,,,,,00029,001,2025-11-15_11h29.12.994,MST_task,2024.2.0,99.81414605885091,2025-11-15 11h29.22.823789 +0530,
,Objects\104a.jpg,48,0,49,,,,,f,0.8151171999998041,0.14425940000000992,None,,,,,,49,0,48,309.8940399000021,,,,,,,,,,,,,,,,,,,,,,,309.8861563999999,309.8940399000021,310.38545130000057,,,,,,,,,,,,310.40276860000085,,,,,,,,,,,310.4001036000009,310.40276860000085,310.40276860000085,310.40276860000085,313.39416760000313,shoe,f,0.8151171999998041,0.14425940000000992,313.3943302000007,313.3943827000003,None,,,,,,,,,,,,,,,,,00029,001,2025-11-15_11h29.12.994,MST_task,2024.2.0,99.81414605885091,2025-11-15 11h29.22.823789 +0530,
,Objects\142a.jpg,49,0,50,,,,,f,1.0648565000010421,0.1680324999979348,None,,,,,,50,0,49,313.4035501000035,,,,,,,,,,,,,,,,,,,,,,,313.39469010000175,313.4035501000035,313.8950328000028,,,,,,,,,,,,313.91305600000123,,,,,,,,,,,313.9102257000013,313.91305600000123,313.91305600000123,313.91305600000123,316.9039260000027,indoor,f,1.0648565000010421,0.1680324999979348,316.90972910000346,316.90977270000076,None,,,,,,,,,,,,,,,,,00029,001,2025-11-15_11h29.12.994,MST_task,2024.2.0,99.81414605885091,2025-11-15 11h29.22.823789 +0530,
,Objects\300a.jpg,50,0,51,,,,,f,2.116056300001219,0.16015729999708128,None,,,,,,51,0,50,316.91296070000317,,,,,,,,,,,,,,,,,,,,,,,316.90992650000044,316.91296070000317,317.4045115000008,,,,,,,,,,,,317.4217051000014,,,,,,,,,,,317.4186202000019,317.4217051000014,317.4217051000014,317.4217051000014,320.41327300000194,indoor,f,2.116056300001219,0.16015729999708128,320.4134002999999,320.4134449000012,None,,,,,,,,,,,,,,,,,00029,001,2025-11-15_11h29.12.994,MST_task,2024.2.0,99.81414605885091,2025-11-15 11h29.22.823789 +0530,
,Objects\374a.jpg,51,0,52,,,,,f,1.1101258999988204,0.1445315999990271,None,,,,,,52,0,51,320.4226789000022,,,,,,,,,,,,,,,,,,,,,,,320.4136584000007,320.4226789000022,320.91415300000153,,,,,,,,,,,,320.93158640000183,,,,,,,,,,,320.9284656000018,320.93158640000183,320.93158640000183,320.93158640000183,323.92282830000113,indoor,f,1.1101258999988204,0.1445315999990271,323.9229434000008,323.92298270000174,None,,,,,,,,,,,,,,,,,00029,001,2025-11-15_11h29.12.994,MST_task,2024.2.0,99.81414605885091,2025-11-15 11h29.22.823789 +0530,
,Objects\106a.jpg,52,0,53,,,,,f,0.9264366999996128,0.16802670000106446,None,,,,,,53,0,52,323.9322362000021,,,,,,,,,,,,,,,,,,,,,,,323.9232054000022,323.9322362000021,324.4231721000033,,,,,,,,,,,,324.4436710000009,,,,,,,,,,,324.44060309999986,324.4436710000009,324.4436710000009,324.4436710000009,327.43235050000294,indoor,f,0.9264366999996128,0.16802670000106446,327.4324951000017,327.4325463000023,None,,,,,,,,,,,,,,,,,00029,001,2025-11-15_11h29.12.994,MST_task,2024.2.0,99.81414605885091,2025-11-15 11h29.22.823789 +0530,
,Objects\356a.jpg,53,0,54,,,,,f,1.2974084999987099,0.15992809999806923,None,,,,,,54,0,53,327.4418022000027,,,,,,,,,,,,,,,,,,,,,,,327.43277610000223,327.4418022000027,327.9327030000022,,,,,,,,,,,,327.95201740000266,,,,,,,,,,,327.94902360000196,327.95201740000266,327.95201740000266,327.95201740000266,330.9418809000017,indoor,f,1.2974084999987099,0.15992809999806923,330.9420024000028,330.94204530000206,None,,,,,,,,,,,,,,,,,00029,001,2025-11-15_11h29.12.994,MST_task,2024.2.0,99.81414605885091,2025-11-15 11h29.22.823789 +0530,
,Objects\017a.jpg,54,0,55,,,,,f,2.0934039000021585,0.19282799999928102,None,,,,,,55,0,54,330.95138430000225,,,,,,,,,,,,,,,,,,,,,,,330.9422830000003,330.95138430000225,331.4423207,,,,,,,,,,,,331.45996090000335,,,,,,,,,,,331.4569268000014,331.45996090000335,331.45996090000335,331.45996090000335,334.45146600000226,indoor,f,2.0934039000021585,0.19282799999928102,334.4515992000015,334.4516435000005,None,,,,,,,,,,,,,,,,,00029,001,2025-11-15_11h29.12.994,MST_task,2024.2.0,99.81414605885091,2025-11-15 11h29.22.823789 +0530,
,Objects\042a.jpg,55,0,56,,,,,f,1.2906375999991724,0.15151949999926728,None,,,,,,56,0,55,334.46098300000085,,,,,,,,,,,,,,,,,,,,,,,334.45186150000154,334.46098300000085,334.9521170000007,,,,,,,,,,,,334.9674158000016,,,,,,,,,,,334.9647044000012,334.9674158000016,334.9674158000016,334.9674158000016,337.9516470000017,indoor,f,1.2906375999991724,0.15151949999926728,337.9517498000023,337.95179380000263,None,337.9603840000018,337.9603840000018,337.9603840000018,,,,,,,,,,,,,,00029,001,2025-11-15_11h29.12.994,MST_task,2024.2.0,99.81414605885091,2025-11-15 11h29.22.823789 +0530,
,Objects\358a.jpg,56,0,57,,,,,f,2.2920138999979827,0.18409070000052452,None,,,,,,57,0,56,337.9603840000018,,,,,,,,,,,,,,,,,,,,,,,337.9519641000006,337.9603840000018,338.45152710000184,,,,,,,,,,,,338.4699967000015,,,,,,,,,,,338.4667647000024,338.4699967000015,338.4699967000015,338.4699967000015,341.46055830000114,shoe,f,2.2920138999979827,0.18409070000052452,341.4654249000014,341.46545000000333,None,,,,,,,,,,,,,,,,,00029,001,2025-11-15_11h29.12.994,MST_task,2024.2.0,99.81414605885091,2025-11-15 11h29.22.823789 +0530,
,Objects\044a.jpg,57,0,58,,,,,f,2.281317399996624,0.21560910000334843,None,,,,,,58,0,57,341.46986220000326,,,,,,,,,,,,,,,,,,,,,,,341.4655359000026,341.46986220000326,341.9607547000014,,,,,,,,,,,,341.9767322000007,,,,,,,,,,,341.9738348000028,341.9767322000007,341.9767322000007,341.9767322000007,344.96125089999987,shoe,f,2.281317399996624,0.21560910000334843,344.96139040000344,344.9614330000004,None,344.96961900000315,344.96961900000315,344.96961900000315,,,,,,,,,,,,,,00029,001,2025-11-15_11h29.12.994,MST_task,2024.2.0,99.81414605885091,2025-11-15 11h29.22.823789 +0530,
,Objects\379a.jpg,58,0,59,,,,,j,0.8358933999988949,0.15111850000175764,None,,,,,,59,0,58,344.96961900000315,,,,,,,,,,,,,,,,,,,,,,,344.9616552000007,344.96961900000315,345.46046019999994,,,,,,,,,,,,345.47845770000276,,,,,,,,,,,345.4757617000032,345.47845770000276,345.47845770000276,345.47845770000276,348.46969450000324,shoe,j,0.8358933999988949,0.15111850000175764,348.4698156000013,348.46985680000216,None,,,,,,,,,,,,,,,,,00029,001,2025-11-15_11h29.12.994,MST_task,2024.2.0,99.81414605885091,2025-11-15 11h29.22.823789 +0530,
,Objects\178a.jpg,59,0,60,,,,,None,,,f,0.08516249999956926,None,,,,60,0,59,348.47917210000014,,,,,,,,,,,,,,,,,,,,,,,348.4701806000012,348.47917210000014,348.9695991000008,,,,,,,,,,,,348.98729390000153,,,,,,,,,,,348.9845095000019,348.98729390000153,348.98729390000153,348.98729390000153,351.97903120000046,shoe,None,,,351.97915150000335,352.08063230000334,f,,,,351.9885807000028,351.9885807000028,0.08516249999956926,None,,,,,,,,,,00029,001,2025-11-15_11h29.12.994,MST_task,2024.2.0,99.81414605885091,2025-11-15 11h29.22.823789 +0530,
,Objects\226a.jpg,60,0,61,,,,,j,2.8478825999991386,None,None,,,,,,61,0,60,352.08856670000023,,,,,,,,,,,,,,,,,,,,,,,352.080929300002,352.08856670000023,352.5795176000029,,,,,,,,,,,,352.59388949999993,,,,,,,,,,,352.5910518000019,352.59388949999993,352.59388949999993,352.59388949999993,355.5802936,shoe,j,2.8478825999991386,None,355.5804029000028,355.5804399000008,None,355.5881593000013,355.5881593000013,355.5881593000013,,,,,,,,,,,,,,00029,001,2025-11-15_11h29.12.994,MST_task,2024.2.0,99.81414605885091,2025-11-15 11h29.22.823789 +0530,
,Objects\367a.jpg,61,0,62,,,,,f,2.225859900001524,0.16797779999978957,None,,,,,,62,0,61,355.5881593000013,,,,,,,,,,,,,,,,,,,,,,,355.58059980000326,355.5881593000013,356.079450600002,,,,,,,,,,,,356.09605809999994,,,,,,,,,,,356.092829600002,356.09605809999994,356.09605809999994,356.09605809999994,359.0880927000035,shoe,f,2.225859900001524,0.16797779999978957,359.0882107000034,359.0882550000024,None,,,,,,,,,,,,,,,,,00029,001,2025-11-15_11h29.12.994,MST_task,2024.2.0,99.81414605885091,2025-11-15 11h29.22.823789 +0530,
,Objects\307a.jpg,62,0,63,,,,,j,0.9012402999978804,0.12003820000245469,None,,,,,,63,0,62,359.0977954000009,,,,,,,,,,,,,,,,,,,,,,,359.08846110000013,359.0977954000009,359.58869810000033,,,,,,,,,,,,359.604346600001,,,,,,,,,,,359.6012929000026,359.604346600001,359.604346600001,359.604346600001,362.5889498000033,shoe,j,0.9012402999978804,0.12003820000245469,362.5890698000003,362.58910820000165,None,362.5974374000034,362.5974374000034,362.5974374000034,,,,,,,,,,,,,,00029,001,2025-11-15_11h29.12.994,MST_task,2024.2.0,99.81414605885091,2025-11-15 11h29.22.823789 +0530,
,Objects\174a.jpg,63,0,64,,,,,f,0.9930120000026363,0.17507739999928162,None,,,,,,64,0,63,362.5974374000034,,,,,,,,,,,,,,,,,,,,,,,362.58929870000065,362.5974374000034,363.0880945000026,,,,,,,,,,,,363.10525130000315,,,,,,,,,,,363.10267139999996,363.10525130000315,363.10525130000315,363.10525130000315,366.09754990000147,indoor,f,0.9930120000026363,0.17507739999928162,366.1018212000017,366.1018505000029,None,,,,,,,,,,,,,,,,,00029,001,2025-11-15_11h29.12.994,MST_task,2024.2.0,99.81414605885091,2025-11-15 11h29.22.823789 +0530,
,Objects\022a.jpg,64,0,65,,,,,None,,,f,0.1314316999996663,None,,,,65,0,64,366.1068180000002,,,,,,,,,,,,,,,,,,,,,,,366.10196330000326,366.1068180000002,366.597400300001,,,,,,,,,,,,366.61080010000296,,,,,,,,,,,366.60784070000227,366.61080010000296,366.61080010000296,366.61080010000296,369.59768250000343,indoor,None,,,369.59777790000226,369.7476835000016,f,369.60638010000184,369.60638010000184,369.60638010000184,369.60638010000184,369.60638010000184,0.1314316999996663,None,,,,,,,,,,00029,001,2025-11-15_11h29.12.994,MST_task,2024.2.0,99.81414605885091,2025-11-15 11h29.22.823789 +0530,
,Objects\006a.jpg,65,0,66,,,,,f,2.5938311999998405,0.13606889999937266,None,,,,,,66,0,65,369.7563437000026,,,,,,,,,,,,,,,,,,,,,,,369.747988500003,369.7563437000026,370.2473073000001,,,,,,,,,,,,370.26414210000075,,,,,,,,,,,370.2614758000018,370.26414210000075,370.26414210000075,370.26414210000075,373.2563652000026,indoor,f,2.5938311999998405,0.13606889999937266,373.25652340000306,373.2565723000007,None,,,,,,,,,,,,,,,,,00029,001,2025-11-15_11h29.12.994,MST_task,2024.2.0,99.81414605885091,2025-11-15 11h29.22.823789 +0530,
,Objects\251a.jpg,66,0,67,,,,,f,1.3092165999987628,0.17589220000081696,None,,,,,,67,0,66,373.2658962000023,,,,,,,,,,,,,,,,,,,,,,,373.2568003000015,373.2658962000023,373.7567003000004,,,,,,,,,,,,373.7727608000023,,,,,,,,,,,373.7698672000006,373.7727608000023,373.7727608000023,373.7727608000023,376.75803050000104,indoor,f,1.3092165999987628,0.17589220000081696,376.75815720000173,376.75819610000326,None,376.7655375000031,376.7655375000031,376.7655375000031,,,,,,,,,,,,,,00029,001,2025-11-15_11h29.12.994,MST_task,2024.2.0,99.81414605885091,2025-11-15 11h29.22.823789 +0530,
,Objects\179a.jpg,67,0,68,,,,,f,1.7124943000017083,0.15207939999891096,None,,,,,,68,0,67,376.7655375000031,,,,,,,,,,,,,,,,,,,,,,,376.758392300002,376.7655375000031,377.25664880000113,,,,,,,,,,,,377.27274990000296,,,,,,,,,,,377.26982880000287,377.27274990000296,377.27274990000296,377.27274990000296,380.2564697000016,indoor,f,1.7124943000017083,0.15207939999891096,380.2566179000023,380.25665540000045,None,380.26492510000026,380.26492510000026,380.26492510000026,,,,,,,,,,,,,,00029,001,2025-11-15_11h29.12.994,MST_task,2024.2.0,99.81414605885091,2025-11-15 11h29.22.823789 +0530,
,Objects\265a.jpg,68,0,69,,,,,j,0.8939565000000584,0.11998179999864078,None,,,,,,69,0,68,380.26492510000026,,,,,,,,,,,,,,,,,,,,,,,380.25684550000005,380.26492510000026,380.75602680000156,,,,,,,,,,,,380.7719806000023,,,,,,,,,,,380.7690790000015,380.7719806000023,380.7719806000023,380.7719806000023,383.75613840000005,indoor,j,0.8939565000000584,0.11998179999864078,383.7562789000003,383.7563168000015,None,383.7646095000018,383.7646095000018,383.7646095000018,,,,,,,,,,,,,,00029,001,2025-11-15_11h29.12.994,MST_task,2024.2.0,99.81414605885091,2025-11-15 11h29.22.823789 +0530,
,Objects\066a.jpg,69,0,70,,,,,j,2.2182778999995207,0.17575880000003963,None,,,,,,70,0,69,383.7646095000018,,,,,,,,,,,,,,,,,,,,,,,383.7565502000034,383.7646095000018,384.25532320000275,,,,,,,,,,,,384.2718366000008,,,,,,,,,,,384.26875570000266,384.2718366000008,384.2718366000008,384.2718366000008,387.2556132000027,indoor,j,2.2182778999995207,0.17575880000003963,387.2557400000005,387.2557755000016,None,387.2641220000005,387.2641220000005,387.2641220000005,,,,,,,,,,,,,,00029,001,2025-11-15_11h29.12.994,MST_task,2024.2.0,99.81414605885091,2025-11-15 11h29.22.823789 +0530,
,Objects\195a.jpg,70,0,71,,,,,j,1.7233852000026673,0.15224060000036843,None,,,,,,71,0,70,387.2641220000005,,,,,,,,,,,,,,,,,,,,,,,387.25596060000316,387.2641220000005,387.75514020000264,,,,,,,,,,,,387.77452690000064,,,,,,,,,,,387.77134910000314,387.77452690000064,387.77452690000064,387.77452690000064,390.764109300002,shoe,j,1.7233852000026673,0.15224060000036843,390.7690211000008,390.76904600000125,None,,,,,,,,,,,,,,,,,00029,001,2025-11-15_11h29.12.994,MST_task,2024.2.0,99.81414605885091,2025-11-15 11h29.22.823789 +0530,
,Objects\304a.jpg,71,0,72,,,,,f,1.0081541999970796,0.16805610000301385,None,,,,,,72,0,71,390.7736020000011,,,,,,,,,,,,,,,,,,,,,,,390.7691361000034,390.7736020000011,391.2647167000032,,,,,,,,,,,,391.28137130000323,,,,,,,,,,,391.27834310000253,391.28137130000323,391.28137130000323,391.28137130000323,394.27387510000335,shoe,f,1.0081541999970796,0.16805610000301385,394.27402620000066,394.2740793000012,None,,,,,,,,,,,,,,,,,00029,001,2025-11-15_11h29.12.994,MST_task,2024.2.0,99.81414605885091,2025-11-15 11h29.22.823789 +0530,
,Objects\342a.jpg,72,0,73,,,,,f,1.9712273000004643,0.19294490000174847,None,,,,,,73,0,72,394.2833289000009,,,,,,,,,,,,,,,,,,,,,,,394.2744784000024,394.2833289000009,394.77445440000156,,,,,,,,,,,,394.79090810000343,,,,,,,,,,,394.788010100001,394.79090810000343,394.79090810000343,394.79090810000343,397.7835384000027,shoe,f,1.9712273000004643,0.19294490000174847,397.7836866000034,397.78373810000267,None,,,,,,,,,,,,,,,,,00029,001,2025-11-15_11h29.12.994,MST_task,2024.2.0,99.81414605885091,2025-11-15 11h29.22.823789 +0530,
,Objects\010a.jpg,73,0,74,,,,,f,1.3805218000015884,0.15219779999824823,None,,,,,,74,0,73,397.7930843000031,,,,,,,,,,,,,,,,,,,,,,,397.7839804000032,397.7930843000031,398.28430840000146,,,,,,,,,,,,398.3008547000027,,,,,,,,,,,398.2981026000016,398.3008547000027,398.3008547000027,398.3008547000027,401.29307410000183,shoe,f,1.3805218000015884,0.15219779999824823,401.29320160000134,401.29324720000295,None,,,,,,,,,,,,,,,,,00029,001,2025-11-15_11h29.12.994,MST_task,2024.2.0,99.81414605885091,2025-11-15 11h29.22.823789 +0530,
,Objects\046a.jpg,74,0,75,,,,,f,1.4385965000001306,0.17556429999967804,None,,,,,,75,0,74,401.3026076000024,,,,,,,,,,,,,,,,,,,,,,,401.29346350000196,401.3026076000024,401.79380100000344,,,,,,,,,,,,401.811199900003,,,,,,,,,,,401.80850810000265,401.811199900003,401.811199900003,401.811199900003,404.8025731000016,shoe,f,1.4385965000001306,0.17556429999967804,404.80270080000264,404.80274590000045,None,,,,,,,,,,,,,,,,,00029,001,2025-11-15_11h29.12.994,MST_task,2024.2.0,99.81414605885091,2025-11-15 11h29.22.823789 +0530,
,Objects\285a.jpg,75,0,76,,,,,f,1.2175204000013764,0.15197089999855962,None,,,,,,76,0,75,404.8121394000009,,,,,,,,,,,,,,,,,,,,,,,404.8029639000015,404.8121394000009,405.3031168000016,,,,,,,,,,,,405.3198502000014,,,,,,,,,,,405.31742120000126,405.3198502000014,405.3198502000014,405.3198502000014,408.3120603000025,shoe,f,1.2175204000013764,0.15197089999855962,408.3122117000021,408.3122668000033,None,,,,,,,,,,,,,,,,,00029,001,2025-11-15_11h29.12.994,MST_task,2024.2.0,99.81414605885091,2025-11-15 11h29.22.823789 +0530,
,Objects\130a.jpg,76,0,77,,,,,f,2.1870291999985056,0.13593200000104844,None,,,,,,77,0,76,408.3215694000028,,,,,,,,,,,,,,,,,,,,,,,408.3125265000017,408.3215694000028,408.81273240000155,,,,,,,,,,,,408.8303674000017,,,,,,,,,,,408.82756169999993,408.8303674000017,408.8303674000017,408.8303674000017,411.82175630000347,shoe,f,2.1870291999985056,0.13593200000104844,411.8218719000033,411.8219106000033,None,,,,,,,,,,,,,,,,,00029,001,2025-11-15_11h29.12.994,MST_task,2024.2.0,99.81414605885091,2025-11-15 11h29.22.823789 +0530,
,Objects\129a.jpg,77,0,78,,,,,j,1.7338152000011178,0.16799360000004526,None,,,,,,78,0,77,411.83124260000113,,,,,,,,,,,,,,,,,,,,,,,411.8221067000013,411.83124260000113,412.3225670000029,,,,,,,,,,,,412.3400973000025,,,,,,,,,,,412.33747270000094,412.3400973000025,412.3400973000025,412.3400973000025,415.33127440000317,indoor,j,1.7338152000011178,0.16799360000004526,415.33558480000283,415.33561450000343,None,,,,,,,,,,,,,,,,,00029,001,2025-11-15_11h29.12.994,MST_task,2024.2.0,99.81414605885091,2025-11-15 11h29.22.823789 +0530,
,Objects\180a.jpg,78,0,79,,,,,f,1.52923070000179,0.1599927999995998,None,,,,,,79,0,78,415.3406479000005,,,,,,,,,,,,,,,,,,,,,,,415.3357247000022,415.3406479000005,415.8319255000024,,,,,,,,,,,,415.8484148000025,,,,,,,,,,,415.8458552000011,415.8484148000025,415.8484148000025,415.8484148000025,418.8407593000011,indoor,f,1.52923070000179,0.1599927999995998,418.8409139000032,418.8409715000016,None,,,,,,,,,,,,,,,,,00029,001,2025-11-15_11h29.12.994,MST_task,2024.2.0,99.81414605885091,2025-11-15 11h29.22.823789 +0530,
,Objects\321a.jpg,79,0,80,,,,,f,1.2030410000006668,0.1673755000010715,None,,,,,,80,0,79,418.8502503000018,,,,,,,,,,,,,,,,,,,,,,,418.84124710000106,418.8502503000018,419.34161530000347,,,,,,,,,,,,419.3589697000025,,,,,,,,,,,419.3558839000034,419.3589697000025,419.3589697000025,419.3589697000025,422.35023750000255,indoor,f,1.2030410000006668,0.1673755000010715,422.3503641000025,422.35040930000105,None,,,,,,,,,,,,,,,,,00029,001,2025-11-15_11h29.12.994,MST_task,2024.2.0,99.81414605885091,2025-11-15 11h29.22.823789 +0530,
,Objects\113a.jpg,80,0,81,,,,,f,2.1406797999989067,0.20826749999832828,None,,,,,,81,0,80,422.3597630000004,,,,,,,,,,,,,,,,,,,,,,,422.3506382000014,422.3597630000004,422.8510073000034,,,,,,,,,,,,422.869010800001,,,,,,,,,,,422.86573990000034,422.869010800001,422.869010800001,422.869010800001,425.85977620000267,indoor,f,2.1406797999989067,0.20826749999832828,425.8599301000031,425.86000440000134,None,,,,,,,,,,,,,,,,,00029,001,2025-11-15_11h29.12.994,MST_task,2024.2.0,99.81414605885091,2025-11-15 11h29.22.823789 +0530,
,Objects\203a.jpg,81,0,82,,,,,f,1.7208346999977948,0.14458030000241706,None,,,,,,82,0,81,425.86927220000143,,,,,,,,,,,,,,,,,,,,,,,425.86033690000113,425.86927220000143,426.3605039000031,,,,,,,,,,,,426.376906700003,,,,,,,,,,,426.37362890000077,426.376906700003,426.376906700003,426.376906700003,429.3691386999999,indoor,f,1.7208346999977948,0.14458030000241706,429.3692267000006,429.3692574000015,None,,,,,,,,,,,,,,,,,00029,001,2025-11-15_11h29.12.994,MST_task,2024.2.0,99.81414605885091,2025-11-15 11h29.22.823789 +0530,
,Objects\240a.jpg,82,0,83,,,,,f,2.5653330000022834,0.21710230000098818,None,,,,,,83,0,82,429.37881390000257,,,,,,,,,,,,,,,,,,,,,,,429.3694119000029,429.37881390000257,429.87005860000136,,,,,,,,,,,,429.8920836000034,,,,,,,,,,,429.88849130000017,429.8920836000034,429.8920836000034,429.8920836000034,432.87903030000234,indoor,f,2.5653330000022834,0.21710230000098818,432.8793113000029,432.879636200003,None,,,,,,,,,,,,,,,,,00029,001,2025-11-15_11h29.12.994,MST_task,2024.2.0,99.81414605885091,2025-11-15 11h29.22.823789 +0530,
,Objects\260a.jpg,83,0,84,,,,,f,1.6136146999997436,0.21686729999782983,None,,,,,,84,0,83,432.88860190000196,,,,,,,,,,,,,,,,,,,,,,,432.87998690000313,432.88860190000196,433.3798646000032,,,,,,,,,,,,433.39664710000216,,,,,,,,,,,433.39364950000163,433.39664710000216,433.39664710000216,433.39664710000216,436.3885033000006,indoor,f,1.6136146999997436,0.21686729999782983,436.38874780000333,436.38879799999995,None,,,,,,,,,,,,,,,,,00029,001,2025-11-15_11h29.12.994,MST_task,2024.2.0,99.81414605885091,2025-11-15 11h29.22.823789 +0530,
,Objects\064a.jpg,84,0,85,,,,,f,1.6264788000007684,0.21534219999739435,None,,,,,,85,0,84,436.39820520000285,,,,,,,,,,,,,,,,,,,,,,,436.38899740000124,436.39820520000285,436.8894751000007,,,,,,,,,,,,436.9117092000015,,,,,,,,,,,436.9085502000016,436.9117092000015,436.9117092000015,436.9117092000015,439.89791120000154,shoe,f,1.6264788000007684,0.21534219999739435,439.903407400001,439.90343770000254,None,,,,,,,,,,,,,,,,,00029,001,2025-11-15_11h29.12.994,MST_task,2024.2.0,99.81414605885091,2025-11-15 11h29.22.823789 +0530,
,Objects\345a.jpg,85,0,86,,,,,f,1.1787292000008165,0.18402659999992466,None,,,,,,86,0,85,439.90745100000277,,,,,,,,,,,,,,,,,,,,,,,439.9036328000002,439.90745100000277,440.398948500002,,,,,,,,,,,,440.41471850000016,,,,,,,,,,,440.4121226000025,440.41471850000016,440.41471850000016,440.41471850000016,443.3984866000028,shoe,f,1.1787292000008165,0.18402659999992466,443.39858780000213,443.3986188000017,None,443.4069960000015,443.4069960000015,443.4069960000015,,,,,,,,,,,,,,00029,001,2025-11-15_11h29.12.994,MST_task,2024.2.0,99.81414605885091,2025-11-15 11h29.22.823789 +0530,
,Objects\281a.jpg,86,0,87,,,,,f,0.8729485000003478,0.17605969999931403,None,,,,,,87,0,86,443.4069960000015,,,,,,,,,,,,,,,,,,,,,,,443.3987803000018,443.4069960000015,443.89850320000187,,,,,,,,,,,,443.9130810000024,,,,,,,,,,,443.91005190000214,443.9130810000024,443.9130810000024,443.9130810000024,446.89824880000015,shoe,f,0.8729485000003478,0.17605969999931403,446.8983705000028,446.8984096000022,None,446.9066531000026,446.9066531000026,446.9066531000026,,,,,,,,,,,,,,00029,001,2025-11-15_11h29.12.994,MST_task,2024.2.0,99.81414605885091,2025-11-15 11h29.22.823789 +0530,
,Objects\333a.jpg,87,0,88,,,,,f,1.5965796999989834,0.17587210000056075,None,,,,,,88,0,87,446.9066531000026,,,,,,,,,,,,,,,,,,,,,,,446.8986556000018,446.9066531000026,447.3977232000034,,,,,,,,,,,,447.4131576,,,,,,,,,,,447.41019920000326,447.4131576,447.4131576,447.4131576,450.39721720000307,shoe,f,1.5965796999989834,0.17587210000056075,450.39729700000316,450.3973205000002,None,450.4063311000027,450.4063311000027,450.4063311000027,,,,,,,,,,,,,,00029,001,2025-11-15_11h29.12.994,MST_task,2024.2.0,99.81414605885091,2025-11-15 11h29.22.823789 +0530,
,Objects\353a.jpg,88,0,89,,,,,f,1.4272808999994595,0.17661670000234153,None,,,,,,89,0,88,450.4063311000027,,,,,,,,,,,,,,,,,,,,,,,450.3974390000003,450.4063311000027,450.8972821000025,,,,,,,,,,,,450.91807250000056,,,,,,,,,,,450.91486010000153,450.91807250000056,450.91807250000056,450.91807250000056,453.90629530000297,shoe,f,1.4272808999994595,0.17661670000234153,453.90641660000256,453.90646130000096,None,,,,,,,,,,,,,,,,,00029,001,2025-11-15_11h29.12.994,MST_task,2024.2.0,99.81414605885091,2025-11-15 11h29.22.823789 +0530,
,Objects\343a.jpg,89,0,90,,,,,f,1.2201017000006686,0.16836379999949713,None,,,,,,90,0,89,453.91586780000216,,,,,,,,,,,,,,,,,,,,,,,453.90666280000005,453.91586780000216,454.40676280000116,,,,,,,,,,,,454.4211987000017,,,,,,,,,,,454.4184204000012,454.4211987000017,454.4211987000017,454.4211987000017,457.4063875000029,shoe,f,1.2201017000006686,0.16836379999949713,457.4064661000011,457.40649180000037,None,457.4151465000032,457.4151465000032,457.4151465000032,,,,,,,,,,,,,,00029,001,2025-11-15_11h29.12.994,MST_task,2024.2.0,99.81414605885091,2025-11-15 11h29.22.823789 +0530,
,Objects\098a.jpg,90,0,91,,,,,f,1.1439721999995527,0.15184190000218223,None,,,,,,91,0,90,457.4151465000032,,,,,,,,,,,,,,,,,,,,,,,457.4066203000002,457.4151465000032,457.90614130000176,,,,,,,,,,,,457.92271090000213,,,,,,,,,,,457.9198918000002,457.92271090000213,457.92271090000213,457.92271090000213,460.90615230000185,shoe,f,1.1439721999995527,0.15184190000218223,460.9062526000016,460.9062871000024,None,460.9149402000003,460.9149402000003,460.9149402000003,,,,,,,,,,,,,,00029,001,2025-11-15_11h29.12.994,MST_task,2024.2.0,99.81414605885091,2025-11-15 11h29.22.823789 +0530,
,Objects\133a.jpg,91,0,92,,,,,j,0.9213367000011203,0.144509099998686,None,,,,,,92,0,91,460.9149402000003,,,,,,,,,,,,,,,,,,,,,,,460.9065167000008,460.9149402000003,461.405990700001,,,,,,,,,,,,461.4240395000015,,,,,,,,,,,461.42144400000325,461.4240395000015,461.4240395000015,461.4240395000015,464.41504480000003,indoor,j,0.9213367000011203,0.144509099998686,464.4192275000023,464.41926050000257,None,,,,,,,,,,,,,,,,,00029,001,2025-11-15_11h29.12.994,MST_task,2024.2.0,99.81414605885091,2025-11-15 11h29.22.823789 +0530,
,Objects\357a.jpg,92,0,93,,,,,f,2.48726280000119,0.18418409999867436,None,,,,,,93,0,92,464.42429990000164,,,,,,,,,,,,,,,,,,,,,,,464.4193715000001,464.42429990000164,464.9152832,,,,,,,,,,,,464.930205800003,,,,,,,,,,,464.92771220000213,464.930205800003,464.930205800003,464.930205800003,467.91517320000276,indoor,f,2.48726280000119,0.18418409999867436,467.91525490000276,467.9152810000014,None,467.92391710000084,467.92391710000084,467.92391710000084,,,,,,,,,,,,,,00029,001,2025-11-15_11h29.12.994,MST_task,2024.2.0,99.81414605885091,2025-11-15 11h29.22.823789 +0530,
,Objects\269a.jpg,93,0,94,,,,,f,1.934679199999664,0.16813340000226162,None,,,,,,94,0,93,467.92391710000084,,,,,,,,,,,,,,,,,,,,,,,467.91541860000143,467.92391710000084,468.4153860000006,,,,,,,,,,,,468.4346785000016,,,,,,,,,,,468.431521100003,468.4346785000016,468.4346785000016,468.4346785000016,471.4241869000034,indoor,f,1.934679199999664,0.16813340000226162,471.42430250000325,471.4243451000002,None,,,,,,,,,,,,,,,,,00029,001,2025-11-15_11h29.12.994,MST_task,2024.2.0,99.81414605885091,2025-11-15 11h29.22.823789 +0530,
,Objects\169a.jpg,94,0,95,,,,,j,1.2435676000022795,0.1514614999978221,None,,,,,,95,0,94,471.43350790000113,,,,,,,,,,,,,,,,,,,,,,,471.424553300003,471.43350790000113,471.9247084000017,,,,,,,,,,,,471.94228860000294,,,,,,,,,,,471.9394370000009,471.94228860000294,471.94228860000294,471.94228860000294,474.93353390000266,indoor,j,1.2435676000022795,0.1514614999978221,474.93379280000227,474.9338388000033,None,,,,,,,,,,,,,,,,,00029,001,2025-11-15_11h29.12.994,MST_task,2024.2.0,99.81414605885091,2025-11-15 11h29.22.823789 +0530,
,Objects\150a.jpg,95,0,96,,,,,f,1.9673195999966993,0.18426870000257622,None,,,,,,96,0,95,474.94318210000347,,,,,,,,,,,,,,,,,,,,,,,474.9341265000003,474.94318210000347,475.4343700000027,,,,,,,,,,,,475.4502930000017,,,,,,,,,,,475.4477211000012,475.4502930000017,475.4502930000017,475.4502930000017,478.43439780000335,indoor,f,1.9673195999966993,0.18426870000257622,478.4345030000004,478.4345349000032,None,478.4426041000006,478.4426041000006,478.4426041000006,,,,,,,,,,,,,,00029,001,2025-11-15_11h29.12.994,MST_task,2024.2.0,99.81414605885091,2025-11-15 11h29.22.823789 +0530,
,Objects\038a.jpg,96,0,97,,,,,f,2.531593100000464,0.17628210000111721,None,,,,,,97,0,96,478.4426041000006,,,,,,,,,,,,,,,,,,,,,,,478.43470730000263,478.4426041000006,478.93369540000276,,,,,,,,,,,,478.9502433000016,,,,,,,,,,,478.9474188000022,478.9502433000016,478.9502433000016,478.9502433000016,481.9428653000032,indoor,f,2.531593100000464,0.17628210000111721,481.9429713000027,481.94300980000116,None,,,,,,,,,,,,,,,,,00029,001,2025-11-15_11h29.12.994,MST_task,2024.2.0,99.81414605885091,2025-11-15 11h29.22.823789 +0530,
,Objects\176a.jpg,97,0,98,,,,,j,1.7737358000013046,0.18464419999872916,None,,,,,,98,0,97,481.9522014000031,,,,,,,,,,,,,,,,,,,,,,,481.9431904000012,481.9522014000031,482.44333410000036,,,,,,,,,,,,482.45999870000014,,,,,,,,,,,482.45738170000186,482.45999870000014,482.45999870000014,482.45999870000014,485.45233440000084,indoor,j,1.7737358000013046,0.18464419999872916,485.4524547000001,485.4525225000034,None,,,,,,,,,,,,,,,,,00029,001,2025-11-15_11h29.12.994,MST_task,2024.2.0,99.81414605885091,2025-11-15 11h29.22.823789 +0530,
,Objects\151a.jpg,98,0,99,,,,,f,1.190171599999303,0.22378150000076857,None,,,,,,99,0,98,485.4617158000001,,,,,,,,,,,,,,,,,,,,,,,485.4527349000018,485.4617158000001,485.95261720000053,,,,,,,,,,,,485.97161680000136,,,,,,,,,,,485.9686952000011,485.97161680000136,485.97161680000136,485.97161680000136,488.96199810000326,shoe,f,1.190171599999303,0.22378150000076857,488.9668509000003,488.96687480000037,None,,,,,,,,,,,,,,,,,00029,001,2025-11-15_11h29.12.994,MST_task,2024.2.0,99.81414605885091,2025-11-15 11h29.22.823789 +0530,
,Objects\197a.jpg,99,0,100,,,,,j,2.4948395999999775,0.20855229999870062,None,,,,,,100,0,99,488.97120760000325,,,,,,,,,,,,,,,,,,,,,,,488.9669782000019,488.97120760000325,489.4623337000012,,,,,,,,,,,,489.4832305000018,,,,,,,,,,,489.4805437000032,489.4832305000018,489.4832305000018,489.4832305000018,492.47131620000073,shoe,j,2.4948395999999775,0.20855229999870062,492.4714290000011,492.4714716000017,None,,,,,,,,,,,,,,,,,00029,001,2025-11-15_11h29.12.994,MST_task,2024.2.0,99.81414605885091,2025-11-15 11h29.22.823789 +0530,
,Objects\204a.jpg,100,0,101,,,,,f,2.308793300002435,0.2080284000003303,None,,,,,,101,0,100,492.4808256000033,,,,,,,,,,,,,,,,,,,,,,,492.4718090000024,492.4808256000033,492.971868800003,,,,,,,,,,,,492.989038300002,,,,,,,,,,,492.986477800001,492.989038300002,492.989038300002,492.989038300002,495.9809398000034,shoe,f,2.308793300002435,0.2080284000003303,495.9810621000033,495.9811079000028,None,,,,,,,,,,,,,,,,,00029,001,2025-11-15_11h29.12.994,MST_task,2024.2.0,99.81414605885091,2025-11-15 11h29.22.823789 +0530,
,Objects\162a.jpg,101,0,102,,,,,None,,,f,2.0561020000022836,None,,,,102,0,101,495.99037110000063,,,,,,,,,,,,,,,,,,,,,,,495.9813682000022,495.99037110000063,496.4817251000022,,,,,,,,,,,,496.49798750000264,,,,,,,,,,,496.4954616000032,496.49798750000264,496.49798750000264,496.49798750000264,499.4815015000022,shoe,None,,,499.48158780000085,501.55084350000106,f,499.4901512000033,499.4901512000033,499.4901512000033,499.4901512000033,499.4901512000033,2.0561020000022836,None,,,,,,,,,,00029,001,2025-11-15_11h29.12.994,MST_task,2024.2.0,99.81414605885091,2025-11-15 11h29.22.823789 +0530,
,Objects\247a.jpg,102,0,103,,,,,f,1.517738599999575,0.14427299999806564,None,,,,,,103,0,102,501.5596904000013,,,,,,,,,,,,,,,,,,,,,,,501.5510502000034,501.5596904000013,502.050675100003,,,,,,,,,,,,502.0679861000026,,,,,,,,,,,502.0647787000016,502.0679861000026,502.0679861000026,502.0679861000026,505.05979090000255,shoe,f,1.517738599999575,0.14427299999806564,505.0599235000009,505.0599918000007,None,,,,,,,,,,,,,,,,,00029,001,2025-11-15_11h29.12.994,MST_task,2024.2.0,99.81414605885091,2025-11-15 11h29.22.823789 +0530,
,Objects\099a.jpg,103,0,104,,,,,j,2.3677853000008326,0.02359190000061062,None,,,,,,104,0,103,505.0692689000025,,,,,,,,,,,,,,,,,,,,,,,505.0602085000028,505.0692689000025,505.5603175000033,,,,,,,,,,,,505.5781687000017,,,,,,,,,,,505.5751902000011,505.5781687000017,505.5781687000017,505.5781687000017,508.56951550000304,shoe,j,2.3677853000008326,0.02359190000061062,508.5696289000007,508.5696683000024,None,,,,,,,,,,,,,,,,,00029,001,2025-11-15_11h29.12.994,MST_task,2024.2.0,99.81414605885091,2025-11-15 11h29.22.823789 +0530,
,Objects\025a.jpg,104,0,105,,,,,j,1.9313536000008753,0.17699699999866425,None,,,,,,105,0,104,508.5790538000001,,,,,,,,,,,,,,,,,,,,,,,508.5698654000007,508.5790538000001,509.07004470000174,,,,,,,,,,,,509.0861203000022,,,,,,,,,,,509.0834231000008,509.0861203000022,509.0861203000022,509.0861203000022,512.0698684000017,shoe,j,1.9313536000008753,0.17699699999866425,512.0699830000012,512.0700219999999,None,512.0784039000027,512.0784039000027,512.0784039000027,,,,,,,,,,,,,,00029,001,2025-11-15_11h29.12.994,MST_task,2024.2.0,99.81414605885091,2025-11-15 11h29.22.823789 +0530,
,Objects\242a.jpg,105,0,106,,,,,f,2.583077700001013,0.19238949999999022,None,,,,,,106,0,105,512.0784039000027,,,,,,,,,,,,,,,,,,,,,,,512.0703036000014,512.0784039000027,512.5697440000004,,,,,,,,,,,,512.5862925000001,,,,,,,,,,,512.5836053000021,512.5862925000001,512.5862925000001,512.5862925000001,515.5784268000025,indoor,f,2.583077700001013,0.19238949999999022,515.5831466000018,515.5831794000005,None,,,,,,,,,,,,,,,,,00029,001,2025-11-15_11h29.12.994,MST_task,2024.2.0,99.81414605885091,2025-11-15 11h29.22.823789 +0530,
,Objects\340a.jpg,106,0,107,,,,,f,1.827754099998856,0.19919099999970058,None,,,,,,107,0,106,515.5878585000028,,,,,,,,,,,,,,,,,,,,,,,515.5832949000032,515.5878585000028,516.0789662000025,,,,,,,,,,,,516.0946867000021,,,,,,,,,,,516.0918469000026,516.0946867000021,516.0946867000021,516.0946867000021,519.0793427000026,indoor,f,1.827754099998856,0.19919099999970058,519.0794698000027,519.0795268000002,None,519.0876317000002,519.0876317000002,519.0876317000002,,,,,,,,,,,,,,00029,001,2025-11-15_11h29.12.994,MST_task,2024.2.0,99.81414605885091,2025-11-15 11h29.22.823789 +0530,
,Objects\309a.jpg,107,0,108,,,,,f,2.888225999999122,None,None,,,,,,108,0,107,519.0876317000002,,,,,,,,,,,,,,,,,,,,,,,519.0797288000031,519.0876317000002,519.5784746000027,,,,,,,,,,,,519.5933320000004,,,,,,,,,,,519.590494600001,519.5933320000004,519.5933320000004,519.5933320000004,522.578773600002,indoor,f,2.888225999999122,None,522.5788795000008,522.5789146000025,None,522.5870857000009,522.5870857000009,522.5870857000009,,,,,,,,,,,,,,00029,001,2025-11-15_11h29.12.994,MST_task,2024.2.0,99.81414605885091,2025-11-15 11h29.22.823789 +0530,
,Objects\154a.jpg,108,0,109,,,,,f,1.3471424000017578,0.18421979999766336,None,,,,,,109,0,108,522.5870857000009,,,,,,,,,,,,,,,,,,,,,,,522.579077800001,522.5870857000009,523.0781636000029,,,,,,,,,,,,523.0945750000028,,,,,,,,,,,523.091682000002,523.0945750000028,523.0945750000028,523.0945750000028,526.078465300001,indoor,f,1.3471424000017578,0.18421979999766336,526.0785949000019,526.0786374000018,None,526.0866719000005,526.0866719000005,526.0866719000005,,,,,,,,,,,,,,00029,001,2025-11-15_11h29.12.994,MST_task,2024.2.0,99.81414605885091,2025-11-15 11h29.22.823789 +0530,
,Objects\377a.jpg,109,0,110,,,,,j,0.9922249999981432,0.19206860000122106,None,,,,,,110,0,109,526.0866719000005,,,,,,,,,,,,,,,,,,,,,,,526.0788438000018,526.0866719000005,526.5777101000022,,,,,,,,,,,,526.5934144000021,,,,,,,,,,,526.5905887000008,526.5934144000021,526.5934144000021,526.5934144000021,529.5776329,indoor,j,0.9922249999981432,0.19206860000122106,529.5777307000026,529.5777578000016,None,529.586075700001,529.586075700001,529.586075700001,,,,,,,,,,,,,,00029,001,2025-11-15_11h29.12.994,MST_task,2024.2.0,99.81414605885091,2025-11-15 11h29.22.823789 +0530,
,Objects\136a.jpg,110,0,111,,,,,f,1.221044100002473,0.191852399999334,None,,,,,,111,0,110,529.586075700001,,,,,,,,,,,,,,,,,,,,,,,529.5779135000012,529.586075700001,530.0771003000009,,,,,,,,,,,,530.0930842000016,,,,,,,,,,,530.0901488000018,530.0930842000016,530.0930842000016,530.0930842000016,533.0772110000034,indoor,f,1.221044100002473,0.191852399999334,533.0773239000009,533.0773592000005,None,533.0858540000008,533.0858540000008,533.0858540000008,,,,,,,,,,,,,,00029,001,2025-11-15_11h29.12.994,MST_task,2024.2.0,99.81414605885091,2025-11-15 11h29.22.823789 +0530,
,Objects\276a.jpg,111,0,112,,,,,j,1.8185821999977634,0.16855480000231182,None,,,,,,112,0,111,533.0858540000008,,,,,,,,,,,,,,,,,,,,,,,533.0775331000004,533.0858540000008,533.576747500003,,,,,,,,,,,,533.5911335000019,,,,,,,,,,,533.5887267000035,533.5911335000019,533.5911335000019,533.5911335000019,536.5767850000011,indoor,j,1.8185821999977634,0.16855480000231182,536.5768892000015,536.5769250000012,None,536.5854424000026,536.5854424000026,536.5854424000026,,,,,,,,,,,,,,00029,001,2025-11-15_11h29.12.994,MST_task,2024.2.0,99.81414605885091,2025-11-15 11h29.22.823789 +0530,
,Objects\094a.jpg,112,0,113,,,,,f,1.4833489000011468,0.19906780000019353,None,,,,,,113,0,112,536.5854424000026,,,,,,,,,,,,,,,,,,,,,,,536.5770900000025,536.5854424000026,537.0765281000022,,,,,,,,,,,,537.0948430000026,,,,,,,,,,,537.092243500003,537.0948430000026,537.0948430000026,537.0948430000026,540.086073100003,shoe,f,1.4833489000011468,0.19906780000019353,540.0924902000006,540.0925080000015,None,,,,,,,,,,,,,,,,,00029,001,2025-11-15_11h29.12.994,MST_task,2024.2.0,99.81414605885091,2025-11-15 11h29.22.823789 +0530,
,Objects\161a.jpg,113,0,114,,,,,f,1.2812927999984822,0.16754040000159875,None,,,,,,114,0,113,540.0949282000001,,,,,,,,,,,,,,,,,,,,,,,540.0926132000022,540.0949282000001,540.5855305000005,,,,,,,,,,,,540.6008681000021,,,,,,,,,,,540.5982581000026,540.6008681000021,540.6008681000021,540.6008681000021,543.5865030000023,shoe,f,1.2812927999984822,0.16754040000159875,543.5866575,543.5867050000015,None,543.5944357000008,543.5944357000008,543.5944357000008,,,,,,,,,,,,,,00029,001,2025-11-15_11h29.12.994,MST_task,2024.2.0,99.81414605885091,2025-11-15 11h29.22.823789 +0530,
,Objects\034a.jpg,114,0,115,,,,,f,0.8345412999988184,0.1838796000010916,None,,,,,,115,0,114,543.5944357000008,,,,,,,,,,,,,,,,,,,,,,,543.5869460000031,543.5944357000008,544.0860389000009,,,,,,,,,,,,544.1029511000015,,,,,,,,,,,544.1002645000008,544.1029511000015,544.1029511000015,544.1029511000015,547.0949261000023,shoe,f,0.8345412999988184,0.1838796000010916,547.0950737000021,547.0951292000027,None,,,,,,,,,,,,,,,,,00029,001,2025-11-15_11h29.12.994,MST_task,2024.2.0,99.81414605885091,2025-11-15 11h29.22.823789 +0530,
,Objects\244a.jpg,115,0,116,,,,,f,1.1976404999986698,0.15978000000177417,None,,,,,,116,0,115,547.1042072000018,,,,,,,,,,,,,,,,,,,,,,,547.0955063000001,547.1042072000018,547.5955598,,,,,,,,,,,,547.612287400003,,,,,,,,,,,547.6093293000013,547.612287400003,547.612287400003,547.612287400003,550.6041060000025,shoe,f,1.1976404999986698,0.15978000000177417,550.6041869000001,550.6042103,None,,,,,,,,,,,,,,,,,00029,001,2025-11-15_11h29.12.994,MST_task,2024.2.0,99.81414605885091,2025-11-15 11h29.22.823789 +0530,
,Objects\372a.jpg,116,0,117,,,,,j,2.815051699999458,None,None,,,,,,117,0,116,550.6137175000003,,,,,,,,,,,,,,,,,,,,,,,550.6043358000024,550.6137175000003,551.1051143000004,,,,,,,,,,,,551.1225190000005,,,,,,,,,,,551.1197004000023,551.1225190000005,551.1225190000005,551.1225190000005,554.114145800002,shoe,j,2.815051699999458,None,554.1143061000002,554.114400100003,None,,,,,,,,,,,,,,,,,00029,001,2025-11-15_11h29.12.994,MST_task,2024.2.0,99.81414605885091,2025-11-15 11h29.22.823789 +0530,
,Objects\216a.jpg,117,0,118,,,,,f,1.1510243999982777,0.20921029999954044,None,,,,,,118,0,117,554.1233412000001,,,,,,,,,,,,,,,,,,,,,,,554.1146699000019,554.1233412000001,554.6146640000006,,,,,,,,,,,,554.6342910000021,,,,,,,,,,,554.6312849000024,554.6342910000021,554.6342910000021,554.6342910000021,557.623569000003,shoe,f,1.1510243999982777,0.20921029999954044,557.6237033000034,557.6237481000026,None,,,,,,,,,,,,,,,,,00029,001,2025-11-15_11h29.12.994,MST_task,2024.2.0,99.81414605885091,2025-11-15 11h29.22.823789 +0530,
,Objects\160a.jpg,118,0,119,,,,,None,,,f,0.0992999999980384,None,,,,119,0,118,557.6329374000015,,,,,,,,,,,,,,,,,,,,,,,557.6239749000015,557.6329374000015,558.1240962000011,,,,,,,,,,,,558.141553700003,,,,,,,,,,,558.1388287000009,558.141553700003,558.141553700003,558.141553700003,561.1331616000025,shoe,None,,,561.133300700003,561.2447470000006,f,,,,561.1424660000011,561.1424660000011,0.0992999999980384,None,,,,,,,,,,00029,001,2025-11-15_11h29.12.994,MST_task,2024.2.0,99.81414605885091,2025-11-15 11h29.22.823789 +0530,
,Objects\101a.jpg,119,0,120,,,,,f,2.936898600000859,None,None,,,,,,120,0,119,561.2524639000003,,,,,,,,,,,,,,,,,,,,,,,561.2450564999999,561.2524639000003,561.7436467000007,,,,,,,,,,,,561.7620338000015,,,,,,,,,,,561.7591390000016,561.7620338000015,561.7620338000015,561.7620338000015,564.7521621000014,indoor,f,2.936898600000859,None,564.7541745000017,564.7541939000002,None,,,,,,,,,,,,,,,,,00029,001,2025-11-15_11h29.12.994,MST_task,2024.2.0,99.81414605885091,2025-11-15 11h29.22.823789 +0530,
,Objects\011a.jpg,120,0,121,,,,,f,2.2035275000016554,0.16812379999828408,None,,,,,,121,0,120,564.7617390000014,,,,,,,,,,,,,,,,,,,,,,,564.7543036000025,564.7617390000014,565.2532427000006,,,,,,,,,,,,565.2700651000014,,,,,,,,,,,565.2674131000022,565.2700651000014,565.2700651000014,565.2700651000014,568.262279300001,indoor,f,2.2035275000016554,0.16812379999828408,568.2624319000024,568.2624855000031,None,,,,,,,,,,,,,,,,,00029,001,2025-11-15_11h29.12.994,MST_task,2024.2.0,99.81414605885091,2025-11-15 11h29.22.823789 +0530,
,Objects\032a.jpg,121,0,122,,,,,j,0.902546599998459,0.17597139999998035,None,,,,,,122,0,121,568.2716197000009,,,,,,,,,,,,,,,,,,,,,,,568.2627487000027,568.2716197000009,568.7627838000008,,,,,,,,,,,,568.7788712000001,,,,,,,,,,,568.7763086000014,568.7788712000001,568.7788712000001,568.7788712000001,571.7627723000005,indoor,j,0.902546599998459,0.17597139999998035,571.7628873000031,571.7629226000026,None,571.7711219000012,571.7711219000012,571.7711219000012,,,,,,,,,,,,,,00029,001,2025-11-15_11h29.12.994,MST_task,2024.2.0,99.81414605885091,2025-11-15 11h29.22.823789 +0530,
,Objects\095a.jpg,122,0,123,,,,,f,0.7595423999991908,0.16760720000092988,None,,,,,,123,0,122,571.7711219000012,,,,,,,,,,,,,,,,,,,,,,,571.7630991000005,571.7711219000012,572.2622941000009,,,,,,,,,,,,572.2826357000013,,,,,,,,,,,572.2797721000024,572.2826357000013,572.2826357000013,572.2826357000013,575.2710679000011,indoor,f,0.7595423999991908,0.16760720000092988,575.2711961000023,575.271240500002,None,,,,,,,,,,,,,,,,,00029,001,2025-11-15_11h29.12.994,MST_task,2024.2.0,99.81414605885091,2025-11-15 11h29.22.823789 +0530,
,Objects\121a.jpg,123,0,124,,,,,f,1.7335980999996536,0.1925072000012733,None,,,,,,124,0,123,575.2806733000034,,,,,,,,,,,,,,,,,,,,,,,575.2714434000009,575.2806733000034,575.7718723000035,,,,,,,,,,,,575.7879718000004,,,,,,,,,,,575.7853358000029,575.7879718000004,575.7879718000004,575.7879718000004,578.7717023000005,indoor,f,1.7335980999996536,0.1925072000012733,578.7718038000021,578.771837100001,None,578.7799632000024,578.7799632000024,578.7799632000024,,,,,,,,,,,,,,00029,001,2025-11-15_11h29.12.994,MST_task,2024.2.0,99.81414605885091,2025-11-15 11h29.22.823789 +0530,
,Objects\047a.jpg,124,0,125,,,,,f,0.851073699999688,0.19185709999874234,None,,,,,,125,0,124,578.7799632000024,,,,,,,,,,,,,,,,,,,,,,,578.7719976000008,578.7799632000024,579.2710537000021,,,,,,,,,,,,579.2868654000013,,,,,,,,,,,579.2844276000033,579.2868654000013,579.2868654000013,579.2868654000013,582.271180900003,indoor,f,0.851073699999688,0.19185709999874234,582.2712957000003,582.2713328000027,None,582.2795957000017,582.2795957000017,582.2795957000017,,,,,,,,,,,,,,00029,001,2025-11-15_11h29.12.994,MST_task,2024.2.0,99.81414605885091,2025-11-15 11h29.22.823789 +0530,
,Objects\316a.jpg,125,0,126,,,,,f,1.4508268999998108,0.16000369999892428,None,,,,,,126,0,125,582.2795957000017,,,,,,,,,,,,,,,,,,,,,,,582.2715155000005,582.2795957000017,582.7707096000013,,,,,,,,,,,,582.7905983000019,,,,,,,,,,,582.7872691000011,582.7905983000019,582.7905983000019,582.7905983000019,585.7796337,indoor,f,1.4508268999998108,0.16000369999892428,585.7797444000025,585.7797837000035,None,,,,,,,,,,,,,,,,,00029,001,2025-11-15_11h29.12.994,MST_task,2024.2.0,99.81414605885091,2025-11-15 11h29.22.823789 +0530,
,Objects\067a.jpg,126,0,127,,,,,None,,,j,0.42353279999952065,None,,,,127,0,126,585.7891320000017,,,,,,,,,,,,,,,,,,,,,,,585.7800171000017,585.7891320000017,586.280164900003,,,,,,,,,,,,586.2987281000023,,,,,,,,,,,586.2956671000029,586.2987281000023,586.2987281000023,586.2987281000023,589.2894451000029,shoe,None,,,589.296951700002,589.7304403000016,j,,,,589.2988237000027,589.2988237000027,0.42353279999952065,None,,,,,,,,,,00029,001,2025-11-15_11h29.12.994,MST_task,2024.2.0,99.81414605885091,2025-11-15 11h29.22.823789 +0530,
,Objects\266a.jpg,127,0,128,,,,,f,1.3494219000021985,0.19993009999961942,None,,,,,,128,0,127,589.7387430000017,,,,,,,,,,,,,,,,,,,,,,,589.7307045000016,589.7387430000017,590.2301521000009,,,,,,,,,,,,590.2519636000034,,,,,,,,,,,590.2485411000016,590.2519636000034,590.2519636000034,590.2519636000034,593.2386694000015,shoe,f,1.3494219000021985,0.19993009999961942,593.2388587000023,593.2389049000012,None,,,,,,,,,,,,,,,,,00029,001,2025-11-15_11h29.12.994,MST_task,2024.2.0,99.81414605885091,2025-11-15 11h29.22.823789 +0530,
,Objects\079a.jpg,128,0,129,,,,,j,1.3989193000015803,0.22398020000036922,None,,,,,,129,0,128,593.2483541000001,,,,,,,,,,,,,,,,,,,,,,,593.2391224000021,593.2483541000001,593.7391869000021,,,,,,,,,,,,593.7552112000012,,,,,,,,,,,593.7524242,593.7552112000012,593.7552112000012,593.7552112000012,596.7398624000016,shoe,j,1.3989193000015803,0.22398020000036922,596.7400009000012,596.7400473000016,None,596.7477407000006,596.7477407000006,596.7477407000006,,,,,,,,,,,,,,00029,001,2025-11-15_11h29.12.994,MST_task,2024.2.0,99.81414605885091,2025-11-15 11h29.22.823789 +0530,
,Objects\264a.jpg,129,0,130,,,,,f,1.0025486000013188,0.20022120000066934,None,,,,,,130,0,129,596.7477407000006,,,,,,,,,,,,,,,,,,,,,,,596.7403892000002,596.7477407000006,597.239214600002,,,,,,,,,,,,597.2550590000028,,,,,,,,,,,597.2521062000014,597.2550590000028,597.2550590000028,597.2550590000028,600.2385090000025,shoe,f,1.0025486000013188,0.20022120000066934,600.2386116000016,600.2386442000025,None,600.2472891000034,600.2472891000034,600.2472891000034,,,,,,,,,,,,,,00029,001,2025-11-15_11h29.12.994,MST_task,2024.2.0,99.81414605885091,2025-11-15 11h29.22.823789 +0530,
,Objects\381a.jpg,130,0,131,,,,,j,1.2400144999992335,0.16827879999982542,None,,,,,,131,0,130,600.2472891000034,,,,,,,,,,,,,,,,,,,,,,,600.2388059000004,600.2472891000034,600.7380607000014,,,,,,,,,,,,600.7538806000011,,,,,,,,,,,600.7510710000024,600.7538806000011,600.7538806000011,600.7538806000011,603.7383407000016,shoe,j,1.2400144999992335,0.16827879999982542,603.7384560999999,603.7384880000027,None,603.7469283000028,603.7469283000028,603.7469283000028,,,,,,,,,,,,,,00029,001,2025-11-15_11h29.12.994,MST_task,2024.2.0,99.81414605885091,2025-11-15 11h29.22.823789 +0530,
,Objects\274a.jpg,131,0,132,,,,,j,2.7397950000013225,None,None,,,,,,132,0,131,603.7469283000028,,,,,,,,,,,,,,,,,,,,,,,603.7387262000011,603.7469283000028,604.2379490000021,,,,,,,,,,,,604.2542125,,,,,,,,,,,604.251412900001,604.2542125,604.2542125,604.2542125,607.2381507000027,shoe,j,2.7397950000013225,None,607.2382644000027,607.2383026000025,None,607.2463824000006,607.2463824000006,607.2463824000006,,,,,,,,,,,,,,00029,001,2025-11-15_11h29.12.994,MST_task,2024.2.0,99.81414605885091,2025-11-15 11h29.22.823789 +0530,
,Objects\096a.jpg,132,0,133,,,,,f,2.839619499998662,None,None,,,,,,133,0,132,607.2463824000006,,,,,,,,,,,,,,,,,,,,,,,607.2384883000013,607.2463824000006,607.7376375000022,,,,,,,,,,,,607.7548028000019,,,,,,,,,,,607.7520495000026,607.7548028000019,607.7548028000019,607.7548028000019,610.7465930000035,shoe,f,2.839619499998662,None,610.7467554000032,610.7468165999999,None,,,,,,,,,,,,,,,,,00029,001,2025-11-15_11h29.12.994,MST_task,2024.2.0,99.81414605885091,2025-11-15 11h29.22.823789 +0530,
,Objects\273a.jpg,133,0,134,,,,,j,1.7211258999996062,0.16822730000058073,None,,,,,,134,0,133,610.7559774000001,,,,,,,,,,,,,,,,,,,,,,,610.7470921000022,610.7559774000001,611.2472955000012,,,,,,,,,,,,611.2648331000019,,,,,,,,,,,611.2622450000017,611.2648331000019,611.2648331000019,611.2648331000019,614.2562951,indoor,j,1.7211258999996062,0.16822730000058073,614.2606405000006,614.2606689000022,None,,,,,,,,,,,,,,,,,00029,001,2025-11-15_11h29.12.994,MST_task,2024.2.0,99.81414605885091,2025-11-15 11h29.22.823789 +0530,
,Objects\114a.jpg,134,0,135,,,,,None,,,f,1.8130923999997322,None,,,,135,0,134,614.2653855000026,,,,,,,,,,,,,,,,,,,,,,,614.260772900001,614.2653855000026,614.7567822000019,,,,,,,,,,,,614.772949000002,,,,,,,,,,,614.770404400002,614.772949000002,614.772949000002,614.772949000002,617.7568603,indoor,None,,,617.7569967000018,619.5863821000021,f,617.7653838000006,617.7653838000006,617.7653838000006,617.7653838000006,617.7653838000006,1.8130923999997322,None,,,,,,,,,,00029,001,2025-11-15_11h29.12.994,MST_task,2024.2.0,99.81414605885091,2025-11-15 11h29.22.823789 +0530,
,Objects\261a.jpg,135,0,136,,,,,f,1.2509396000023116,0.18359479999708128,None,,,,,,136,0,135,619.5949678000034,,,,,,,,,,,,,,,,,,,,,,,619.5866042000016,619.5949678000034,620.0862250999999,,,,,,,,,,,,620.102979700001,,,,,,,,,,,620.1001479000006,620.102979700001,620.102979700001,620.102979700001,623.0949946000001,indoor,f,1.2509396000023116,0.18359479999708128,623.0951139000026,623.0951571000005,None,,,,,,,,,,,,,,,,,00029,001,2025-11-15_11h29.12.994,MST_task,2024.2.0,99.81414605885091,2025-11-15 11h29.22.823789 +0530,
,Objects\311a.jpg,136,0,137,,,,,j,0.8646879000007175,0.16071150000061607,None,,,,,,137,0,136,623.1045806000002,,,,,,,,,,,,,,,,,,,,,,,623.0954109000013,623.1045806000002,623.5953745000006,,,,,,,,,,,,623.6167994000025,,,,,,,,,,,623.6132369000006,623.6167994000025,623.6167994000025,623.6167994000025,626.6046723,indoor,j,0.8646879000007175,0.16071150000061607,626.604817200001,626.6048668000003,None,,,,,,,,,,,,,,,,,00029,001,2025-11-15_11h29.12.994,MST_task,2024.2.0,99.81414605885091,2025-11-15 11h29.22.823789 +0530,
,Objects\088a.jpg,137,0,138,,,,,f,1.0956817000005685,0.18405649999840534,None,,,,,,138,0,137,626.6141426000031,,,,,,,,,,,,,,,,,,,,,,,626.6051077000011,626.6141426000031,627.1048504999999,,,,,,,,,,,,627.1221719000023,,,,,,,,,,,627.1197571000012,627.1221719000023,627.1221719000023,627.1221719000023,630.1139137999999,indoor,f,1.0956817000005685,0.18405649999840534,630.1140227000033,630.1140566000031,None,,,,,,,,,,,,,,,,,00029,001,2025-11-15_11h29.12.994,MST_task,2024.2.0,99.81414605885091,2025-11-15 11h29.22.823789 +0530,
,Objects\234a.jpg,138,0,139,,,,,None,,,f,0.8106484000018099,None,,,,139,0,138,630.1234063000011,,,,,,,,,,,,,,,,,,,,,,,630.1142249000004,630.1234063000011,630.6145206000001,,,,,,,,,,,,630.6307072000018,,,,,,,,,,,630.6281537000032,630.6307072000018,630.6307072000018,630.6307072000018,633.6149556000018,indoor,None,,,633.615078400002,634.4441179000023,f,633.623171700001,633.623171700001,633.623171700001,633.623171700001,633.623171700001,0.8106484000018099,None,,,,,,,,,,00029,001,2025-11-15_11h29.12.994,MST_task,2024.2.0,99.81414605885091,2025-11-15 11h29.22.823789 +0530,
,Objects\248a.jpg,139,0,140,,,,,f,1.3513063000027614,0.20785349999641767,None,,,,,,140,0,139,634.4529000000002,,,,,,,,,,,,,,,,,,,,,,,634.4443586000016,634.4529000000002,634.944147000002,,,,,,,,,,,,634.962638500001,,,,,,,,,,,634.9595053000012,634.962638500001,634.962638500001,634.962638500001,637.9532427000013,indoor,f,1.3513063000027614,0.20785349999641767,637.9534763000011,637.9535332000014,None,,,,,,,,,,,,,,,,,00029,001,2025-11-15_11h29.12.994,MST_task,2024.2.0,99.81414605885091,2025-11-15 11h29.22.823789 +0530,
,Objects\163a.jpg,140,0,141,,,,,f,2.6098121000031824,0.1759924999969371,None,,,,,,141,0,140,637.9627272000034,,,,,,,,,,,,,,,,,,,,,,,637.9537443000008,637.9627272000034,638.4534195000015,,,,,,,,,,,,638.4723638000032,,,,,,,,,,,638.469192200002,638.4723638000032,638.4723638000032,638.4723638000032,641.4629350000032,shoe,f,2.6098121000031824,0.1759924999969371,641.4699917000034,641.4700233000003,None,,,,,,,,,,,,,,,,,00029,001,2025-11-15_11h29.12.994,MST_task,2024.2.0,99.81414605885091,2025-11-15 11h29.22.823789 +0530,
,Objects\085a.jpg,141,0,142,,,,,j,2.3838348999997834,0.19143659999826923,None,,,,,,142,0,141,641.4719491000033,,,,,,,,,,,,,,,,,,,,,,,641.470162200003,641.4719491000033,641.9630656000008,,,,,,,,,,,,641.9780499000008,,,,,,,,,,,641.9753723000031,641.9780499000008,641.9780499000008,641.9780499000008,644.9636035000003,shoe,j,2.3838348999997834,0.19143659999826923,644.963750400002,644.9637981000014,None,644.9717718000029,644.9717718000029,644.9717718000029,,,,,,,,,,,,,,00029,001,2025-11-15_11h29.12.994,MST_task,2024.2.0,99.81414605885091,2025-11-15 11h29.22.823789 +0530,
,Objects\267a.jpg,142,0,143,,,,,j,2.2705696999983047,0.20807280000008177,None,,,,,,143,0,142,644.9717718000029,,,,,,,,,,,,,,,,,,,,,,,644.9641618000023,644.9717718000029,645.4628747000024,,,,,,,,,,,,645.4829097000002,,,,,,,,,,,645.4797503000009,645.4829097000002,645.4829097000002,645.4829097000002,648.4719837000011,shoe,j,2.2705696999983047,0.20807280000008177,648.4720913000019,648.4721282999999,None,,,,,,,,,,,,,,,,,00029,001,2025-11-15_11h29.12.994,MST_task,2024.2.0,99.81414605885091,2025-11-15 11h29.22.823789 +0530,
,Objects\192a.jpg,143,0,144,,,,,f,0.9650460000011662,0.16793590000088443,None,,,,,,144,0,143,648.4813881000009,,,,,,,,,,,,,,,,,,,,,,,648.4723954000001,648.4813881000009,648.9725878000027,,,,,,,,,,,,648.9892663000028,,,,,,,,,,,648.9863370000021,648.9892663000028,648.9892663000028,648.9892663000028,651.9813408000009,shoe,f,0.9650460000011662,0.16793590000088443,651.9814776000021,651.9815273000022,None,,,,,,,,,,,,,,,,,00029,001,2025-11-15_11h29.12.994,MST_task,2024.2.0,99.81414605885091,2025-11-15 11h29.22.823789 +0530,
,Objects\081a.jpg,144,0,145,,,,,j,2.4523254000014276,0.17601469999863184,None,,,,,,145,0,144,651.9908329000027,,,,,,,,,,,,,,,,,,,,,,,651.9818019000013,651.9908329000027,652.4819412000033,,,,,,,,,,,,652.5011078000025,,,,,,,,,,,652.4983786000012,652.5011078000025,652.5011078000025,652.5011078000025,655.4910285000005,shoe,j,2.4523254000014276,0.17601469999863184,655.4911759000024,655.4912317000017,None,,,,,,,,,,,,,,,,,00029,001,2025-11-15_11h29.12.994,MST_task,2024.2.0,99.81414605885091,2025-11-15 11h29.22.823789 +0530,
,Objects\184a.jpg,145,0,146,,,,,j,1.992724100000487,0.15942060000088532,None,,,,,,146,0,145,655.5004916000034,,,,,,,,,,,,,,,,,,,,,,,655.4914798000027,655.5004916000034,655.9914933,,,,,,,,,,,,656.0091839000015,,,,,,,,,,,656.006454600003,656.0091839000015,656.0091839000015,656.0091839000015,659.0004547000026,shoe,j,1.992724100000487,0.15942060000088532,659.0005867,659.0006306000032,None,,,,,,,,,,,,,,,,,00029,001,2025-11-15_11h29.12.994,MST_task,2024.2.0,99.81414605885091,2025-11-15 11h29.22.823789 +0530,
,Objects\084a.jpg,146,0,147,,,,,j,1.598596900003031,0.11987699999735923,None,,,,,,147,0,146,659.0099677000035,,,,,,,,,,,,,,,,,,,,,,,659.0011687000006,659.0099677000035,659.5008985000022,,,,,,,,,,,,659.5163144000035,,,,,,,,,,,659.5137159000005,659.5163144000035,659.5163144000035,659.5163144000035,662.5012617000029,shoe,j,1.598596900003031,0.11987699999735923,662.5014095000006,662.501455200003,None,662.5096526000016,662.5096526000016,662.5096526000016,,,,,,,,,,,,,,00029,001,2025-11-15_11h29.12.994,MST_task,2024.2.0,99.81414605885091,2025-11-15 11h29.22.823789 +0530,
,Objects\109a.jpg,147,0,148,,,,,f,2.312723000002734,0.19049359999917215,None,,,,,,148,0,147,662.5096526000016,,,,,,,,,,,,,,,,,,,,,,,662.5017941000006,662.5096526000016,663.0007856000011,,,,,,,,,,,,663.018247400003,,,,,,,,,,,663.0153043999999,663.018247400003,663.018247400003,663.018247400003,666.0096416000015,indoor,f,2.312723000002734,0.19049359999917215,666.0140645000029,666.0140972000008,None,,,,,,,,,,,,,,,,,00029,001,2025-11-15_11h29.12.994,MST_task,2024.2.0,99.81414605885091,2025-11-15 11h29.22.823789 +0530,
,Objects\075a.jpg,148,0,149,,,,,j,2.371373099998891,0.18331259999831673,None,,,,,,149,0,148,666.0191028000008,,,,,,,,,,,,,,,,,,,,,,,666.0142152000008,666.0191028000008,666.510299900001,,,,,,,,,,,,666.5267924,,,,,,,,,,,666.524210800002,666.5267924,666.5267924,666.5267924,669.5104692000023,indoor,j,2.371373099998891,0.18331259999831673,669.5105909000013,669.5106296000013,None,669.5188819000032,669.5188819000032,669.5188819000032,,,,,,,,,,,,,,00029,001,2025-11-15_11h29.12.994,MST_task,2024.2.0,99.81414605885091,2025-11-15 11h29.22.823789 +0530,
,Objects\208a.jpg,149,0,150,,,,,f,2.621563000000606,0.17582839999886346,None,,,,,,150,0,149,669.5188819000032,,,,,,,,,,,,,,,,,,,,,,,669.510824500001,669.5188819000032,670.0100371000008,,,,,,,,,,,,670.0281285000019,,,,,,,,,,,670.0249621000003,670.0281285000019,670.0281285000019,670.0281285000019,673.0185690000035,indoor,f,2.621563000000606,0.17582839999886346,673.0186358999999,673.0186586000018,None,,,,,,,,,,,,,,,,,00029,001,2025-11-15_11h29.12.994,MST_task,2024.2.0,99.81414605885091,2025-11-15 11h29.22.823789 +0530,
,Objects\083a.jpg,150,0,151,,,,,f,2.673054200000479,0.1915556000021752,None,,,,,,151,0,150,673.0281940000023,,,,,,,,,,,,,,,,,,,,,,,673.0187740000001,673.0281940000023,673.5195889000024,,,,,,,,,,,,673.537328800001,,,,,,,,,,,673.5343622,673.537328800001,673.537328800001,673.537328800001,676.5285266000028,indoor,f,2.673054200000479,0.1915556000021752,676.5286767000034,676.5287321000033,None,,,,,,,,,,,,,,,,,00029,001,2025-11-15_11h29.12.994,MST_task,2024.2.0,99.81414605885091,2025-11-15 11h29.22.823789 +0530,
,Objects\324a.jpg,151,0,152,,,,,f,0.8827772000004188,0.16836049999983516,None,,,,,,152,0,151,676.5379909000003,,,,,,,,,,,,,,,,,,,,,,,676.5289824000029,676.5379909000003,677.0288547000018,,,,,,,,,,,,677.0465428000025,,,,,,,,,,,677.0435292000002,677.0465428000025,677.0465428000025,677.0465428000025,680.0383034000006,indoor,f,0.8827772000004188,0.16836049999983516,680.0384354000016,680.0384823000022,None,,,,,,,,,,,,,,,,,00029,001,2025-11-15_11h29.12.994,MST_task,2024.2.0,99.81414605885091,2025-11-15 11h29.22.823789 +0530,
,Objects\177a.jpg,152,0,153,,,,,j,1.0073293999994348,0.16800209999928484,None,,,,,,153,0,152,680.0474975000034,,,,,,,,,,,,,,,,,,,,,,,680.0387340000016,680.0474975000034,680.5383108000024,,,,,,,,,,,,680.5547503000016,,,,,,,,,,,680.5516507000029,680.5547503000016,680.5547503000016,680.5547503000016,683.5387487000007,indoor,j,1.0073293999994348,0.16800209999928484,683.5388895000033,683.5389308000013,None,683.5469992000035,683.5469992000035,683.5469992000035,,,,,,,,,,,,,,00029,001,2025-11-15_11h29.12.994,MST_task,2024.2.0,99.81414605885091,2025-11-15 11h29.22.823789 +0530,
,Objects\013a.jpg,153,0,154,,,,,f,1.594635900000867,0.16004609999799868,None,,,,,,154,0,153,683.5469992000035,,,,,,,,,,,,,,,,,,,,,,,683.5391247000007,683.5469992000035,684.0384462000002,,,,,,,,,,,,684.0551212000028,,,,,,,,,,,684.0522889000022,684.0551212000028,684.0551212000028,684.0551212000028,687.0471559000034,indoor,f,1.594635900000867,0.16004609999799868,687.0472822000011,687.0473290000009,None,,,,,,,,,,,,,,,,,00029,001,2025-11-15_11h29.12.994,MST_task,2024.2.0,99.81414605885091,2025-11-15 11h29.22.823789 +0530,
,Objects\182a.jpg,154,0,155,,,,,f,2.0388165000003937,0.16803780000191182,None,,,,,,155,0,154,687.0565681000007,,,,,,,,,,,,,,,,,,,,,,,687.0475470000019,687.0565681000007,687.5473619000004,,,,,,,,,,,,687.5705129000016,,,,,,,,,,,687.567615400003,687.5705129000016,687.5705129000016,687.5705129000016,690.5567198000026,shoe,f,2.0388165000003937,0.16803780000191182,690.5625112000016,690.5625433000023,None,,,,,,,,,,,,,,,,,00029,001,2025-11-15_11h29.12.994,MST_task,2024.2.0,99.81414605885091,2025-11-15 11h29.22.823789 +0530,
,Objects\258a.jpg,155,0,156,,,,,j,1.5832665999987512,0.15200850000110222,None,,,,,,156,0,155,690.5660085000018,,,,,,,,,,,,,,,,,,,,,,,690.5626617000016,690.5660085000018,691.0571201000021,,,,,,,,,,,,691.0744795999999,,,,,,,,,,,691.0713694000005,691.0744795999999,691.0744795999999,691.0744795999999,694.0661833000013,shoe,j,1.5832665999987512,0.15200850000110222,694.0663196000023,694.0663687000015,None,,,,,,,,,,,,,,,,,00029,001,2025-11-15_11h29.12.994,MST_task,2024.2.0,99.81414605885091,2025-11-15 11h29.22.823789 +0530,
,Objects\147a.jpg,156,0,157,,,,,j,2.603087499999674,0.20005500000115717,None,,,,,,157,0,156,694.0756723000013,,,,,,,,,,,,,,,,,,,,,,,694.0665934000026,694.0756723000013,694.5666949000006,,,,,,,,,,,,694.5828397000005,,,,,,,,,,,694.5798525000027,694.5828397000005,694.5828397000005,694.5828397000005,697.5667325000031,shoe,j,2.603087499999674,0.20005500000115717,697.5668664000004,697.5669075000005,None,697.5750836000007,697.5750836000007,697.5750836000007,,,,,,,,,,,,,,00029,001,2025-11-15_11h29.12.994,MST_task,2024.2.0,99.81414605885091,2025-11-15 11h29.22.823789 +0530,
,Objects\134a.jpg,157,0,158,,,,,j,1.7817123999993782,0.1354358000025968,None,,,,,,158,0,157,697.5750836000007,,,,,,,,,,,,,,,,,,,,,,,697.567103100002,697.5750836000007,698.0662529000001,,,,,,,,,,,,698.0841429000029,,,,,,,,,,,698.0816213000035,698.0841429000029,698.0841429000029,698.0841429000029,701.0749813000002,shoe,j,1.7817123999993782,0.1354358000025968,701.0750924000022,701.0751606000013,None,,,,,,,,,,,,,,,,,00029,001,2025-11-15_11h29.12.994,MST_task,2024.2.0,99.81414605885091,2025-11-15 11h29.22.823789 +0530,
,Objects\291a.jpg,158,0,159,,,,,j,2.844784699998854,None,None,,,,,,159,0,158,701.0846018000011,,,,,,,,,,,,,,,,,,,,,,,701.0754522000025,701.0846018000011,701.5751317000031,,,,,,,,,,,,701.5885972000033,,,,,,,,,,,701.5856605000008,701.5885972000033,701.5885972000033,701.5885972000033,704.5752527000004,shoe,j,2.844784699998854,None,704.5753452000026,704.5753749000032,None,704.5842977000029,704.5842977000029,704.5842977000029,,,,,,,,,,,,,,00029,001,2025-11-15_11h29.12.994,MST_task,2024.2.0,99.81414605885091,2025-11-15 11h29.22.823789 +0530,
,Objects\199a.jpg,159,0,160,,,,,f,1.4156542000018817,0.17609209999864106,None,,,,,,160,0,159,704.5842977000029,,,,,,,,,,,,,,,,,,,,,,,704.5755245,704.5842977000029,705.0756061000029,,,,,,,,,,,,705.0905767000004,,,,,,,,,,,705.0876535000025,705.0905767000004,705.0905767000004,705.0905767000004,708.0759889000001,shoe,f,1.4156542000018817,0.17609209999864106,708.076130100002,708.0761758000008,None,708.0837942000035,708.0837942000035,708.0837942000035,,,,,,,,,,,,,,00029,001,2025-11-15_11h29.12.994,MST_task,2024.2.0,99.81414605885091,2025-11-15 11h29.22.823789 +0530,
,Objects\206a.jpg,160,0,161,,,,,j,0.9703718000018853,0.18456919999880483,None,,,,,,161,0,160,708.0837942000035,,,,,,,,,,,,,,,,,,,,,,,708.0764021000032,708.0837942000035,708.5749741,,,,,,,,,,,,708.5913940999999,,,,,,,,,,,708.5885171000009,708.5913940999999,708.5913940999999,708.5913940999999,711.5839443000004,shoe,j,0.9703718000018853,0.18456919999880483,711.5840812000024,711.5841275000021,None,,,,,,,,,,,,,,,,,00029,001,2025-11-15_11h29.12.994,MST_task,2024.2.0,99.81414605885091,2025-11-15 11h29.22.823789 +0530,
,Objects\277a.jpg,161,0,162,,,,,f,2.437227200000052,0.18457710000075167,None,,,,,,162,0,161,711.5933137000029,,,,,,,,,,,,,,,,,,,,,,,711.5843000000023,711.5933137000029,712.084050700003,,,,,,,,,,,,712.100331200003,,,,,,,,,,,712.0974535000023,712.100331200003,712.100331200003,712.100331200003,715.0845724000028,indoor,f,2.437227200000052,0.18457710000075167,715.0886078000003,715.0886344000028,None,715.0927812000009,715.0927812000009,715.0927812000009,,,,,,,,,,,,,,00029,001,2025-11-15_11h29.12.994,MST_task,2024.2.0,99.81414605885091,2025-11-15 11h29.22.823789 +0530,
,Objects\187a.jpg,162,0,163,,,,,f,1.5044205999984115,0.1765220000015688,None,,,,,,163,0,162,715.0927812000009,,,,,,,,,,,,,,,,,,,,,,,715.0887366000024,715.0927812000009,715.5836165000001,,,,,,,,,,,,715.6009166000003,,,,,,,,,,,715.5981517,715.6009166000003,715.6009166000003,715.6009166000003,718.5930398000019,indoor,f,1.5044205999984115,0.1765220000015688,718.5931905000034,718.5932429000022,None,,,,,,,,,,,,,,,,,00029,001,2025-11-15_11h29.12.994,MST_task,2024.2.0,99.81414605885091,2025-11-15 11h29.22.823789 +0530,
,Objects\059a.jpg,163,0,164,,,,,f,1.1305514999985462,0.18381070000032196,None,,,,,,164,0,163,718.602637400003,,,,,,,,,,,,,,,,,,,,,,,718.5934901,718.602637400003,719.0938055000006,,,,,,,,,,,,719.1109127000018,,,,,,,,,,,719.1081310000009,719.1109127000018,719.1109127000018,719.1109127000018,722.1028817000006,indoor,f,1.1305514999985462,0.18381070000032196,722.1030164000003,722.1030628000008,None,,,,,,,,,,,,,,,,,00029,001,2025-11-15_11h29.12.994,MST_task,2024.2.0,99.81414605885091,2025-11-15 11h29.22.823789 +0530,
,Objects\057a.jpg,164,0,165,,,,,f,1.8937756000013906,0.19224689999828115,None,,,,,,165,0,164,722.1121966999999,,,,,,,,,,,,,,,,,,,,,,,722.1032851000018,722.1121966999999,722.6029937000021,,,,,,,,,,,,722.6197328000017,,,,,,,,,,,722.6171080000022,722.6197328000017,722.6197328000017,722.6197328000017,725.6123340000013,indoor,f,1.8937756000013906,0.19224689999828115,725.6124559000018,725.6124995000027,None,,,,,,,,,,,,,,,,,00029,001,2025-11-15_11h29.12.994,MST_task,2024.2.0,99.81414605885091,2025-11-15 11h29.22.823789 +0530,
,Objects\282a.jpg,165,0,166,,,,,f,2.712902799998119,0.19968510000035167,None,,,,,,166,0,165,725.6217297000003,,,,,,,,,,,,,,,,,,,,,,,725.6126957000015,725.6217297000003,726.112809000002,,,,,,,,,,,,726.1304563000012,,,,,,,,,,,726.1276395000023,726.1304563000012,726.1304563000012,726.1304563000012,729.1216020000029,indoor,f,2.712902799998119,0.19968510000035167,729.1217214000026,729.1217645000033,None,,,,,,,,,,,,,,,,,00029,001,2025-11-15_11h29.12.994,MST_task,2024.2.0,99.81414605885091,2025-11-15 11h29.22.823789 +0530,
,Objects\218a.jpg,166,0,167,,,,,j,0.8834659000021929,0.15973070000109146,None,,,,,,167,0,166,729.1312234000034,,,,,,,,,,,,,,,,,,,,,,,729.1219735000013,729.1312234000034,729.6225838999999,,,,,,,,,,,,729.6384645000035,,,,,,,,,,,729.6354707000028,729.6384645000035,729.6384645000035,729.6384645000035,732.6220489000007,indoor,j,0.8834659000021929,0.15973070000109146,732.6221641000011,732.6222017,None,732.6306137000029,732.6306137000029,732.6306137000029,,,,,,,,,,,,,,00029,001,2025-11-15_11h29.12.994,MST_task,2024.2.0,99.81414605885091,2025-11-15 11h29.22.823789 +0530,
,Objects\111a.jpg,167,0,168,,,,,f,1.558736200000567,0.15999340000053053,None,,,,,,168,0,167,732.6306137000029,,,,,,,,,,,,,,,,,,,,,,,732.6224648000025,732.6306137000029,733.1215116000021,,,,,,,,,,,,733.1394515000029,,,,,,,,,,,733.1363452000005,733.1394515000029,733.1394515000029,733.1394515000029,736.1308325000027,indoor,f,1.558736200000567,0.15999340000053053,736.1309741000005,736.1310215000012,None,,,,,,,,,,,,,,,,,00029,001,2025-11-15_11h29.12.994,MST_task,2024.2.0,99.81414605885091,2025-11-15 11h29.22.823789 +0530,
,Objects\026a.jpg,168,0,169,,,,,f,1.921511399999872,0.18370890000005602,None,,,,,,169,0,168,736.1403387999999,,,,,,,,,,,,,,,,,,,,,,,736.1312509000018,736.1403387999999,736.6307348000009,,,,,,,,,,,,736.6482120000001,,,,,,,,,,,736.6454501000007,736.6482120000001,736.6482120000001,736.6482120000001,739.6403337000011,shoe,f,1.921511399999872,0.18370890000005602,739.646329500003,739.6463603000011,None,,,,,,,,,,,,,,,,,00029,001,2025-11-15_11h29.12.994,MST_task,2024.2.0,99.81414605885091,2025-11-15 11h29.22.823789 +0530,
