Sl_no,image_path,thisN,thisTrialN,thisRepN,key_resp_5.keys,key_resp_5.rt,key_resp_5.duration,key_resp_7.keys,key_resp_7.rt,key_resp_7.duration,key_resp_9.keys,key_resp_9.rt,key_resp_9.duration,key_resp_8.keys,key_resp_8.rt,key_resp_8.duration,practice.thisRepN,practice.thisTrialN,practice.thisN,practice.thisIndex,trials.thisRepN,trials.thisTrialN,trials.thisN,trials.thisIndex,thisRow.t,notes,welcome_page.started,text.started,key_resp.started,welcome_page.stopped,key_resp.keys,key_resp.rt,key_resp.duration,instructions.started,ins.started,key_resp_2.started,instructions.stopped,key_resp_2.keys,key_resp_2.rt,key_resp_2.duration,objects_only_instruction.started,text_3.started,key_resp_3.started,objects_only_instruction.stopped,key_resp_3.keys,key_resp_3.rt,key_resp_3.duration,ISI.started,text_4.started,text_4.stopped,ISI.stopped,practice_block.started,image.started,key_resp_5.started,text_5.started,practice_block.stopped,practice.key_resp_5.keys,practice.key_resp_5.rt,practice.key_resp_5.duration,indoor_outdoor.started,indoor_outdoor.stopped,practice.key_resp_7.keys,image.stopped,key_resp_5.stopped,text_5.stopped,text_7.started,key_resp_7.started,practice.key_resp_7.rt,practice.key_resp_7.duration,practice_to_main.started,text_2.started,key_resp_4.started,practice_to_main.stopped,key_resp_4.keys,key_resp_4.rt,key_resp_4.duration,objects.started,image_2.started,text_9.started,key_resp_9.started,objects.stopped,category,trials.key_resp_9.keys,trials.key_resp_9.rt,trials.key_resp_9.duration,encoding_task.started,encoding_task.stopped,trials.key_resp_8.keys,image_2.stopped,text_9.stopped,key_resp_9.stopped,text_8.started,key_resp_8.started,trials.key_resp_8.rt,trials.key_resp_8.duration,end_experiment.started,text_6.started,key_resp_6.started,end_experiment.stopped,key_resp_6.keys,key_resp_6.rt,key_resp_6.duration,list_of_stimuli,encoding_task_accuracy,participant,session,date,expName,psychopyVersion,frameRate,expStart,
,,,,,,,,,,,,,,,,,,,,,,,,,,,0.003922699994291179,0.020542099999147467,0.020542099999147467,13.738490799994906,space,13.702361099989503,None,,,,,,,,,,,,,,,,,,,,,,,,,,,,,,,,,,,,,,,,,,,,,,,,,,,,,,,,,,,,,,,,,,,,,,,,00023,001,2025-11-09_16h10.25.535,MST_task,2024.2.2,60.00261611477362,2025-11-09 16h10.31.902484 +0530,
,,,,,,,,,,,,,,,,,,,,,,,,,,,,,,,,,,13.738521799998125,13.753575299997465,13.753575299997465,43.22005390000413,space,29.46355760000006,None,,,,,,,,,,,,,,,,,,,,,,,,,,,,,,,,,,,,,,,,,,,,,,,,,,,,,,,,,,,,,,,,,00023,001,2025-11-09_16h10.25.535,MST_task,2024.2.2,60.00261611477362,2025-11-09 16h10.31.902484 +0530,
,,,,,,,,,,,,,,,,,,,,,,,,,,,,,,,,,,,,,,,,,43.22008420000202,43.236234299998614,43.236234299998614,51.51986489999399,space,8.282154400003492,None,,,,,,,,,,,,,,,,,,,,,,,,,,,,,,,,,,,,,,,,,,,,,,,,,,,,,,,,,,00023,001,2025-11-09_16h10.25.535,MST_task,2024.2.2,60.00261611477362,2025-11-09 16h10.31.902484 +0530,
6,practice_images/158a.jpg,0,0,0,j,2.8881345999980113,None,None,,,,,,,,,0,0,0,5,,,,,51.53606359999685,,,,,,,,,,,,,,,,,,,,,,,51.525827599994955,51.53606359999685,52.05272089999926,52.01962520000234,52.03390059999947,52.05272089999926,52.05272089999926,52.05272089999926,55.03604880000057,j,2.8881345999980113,None,55.037187499998254,55.037199400001555,None,,,,,,,,,,,,,,,,,,,,,,,,,,,,,,,,,,,,,,,,,,,00023,001,2025-11-09_16h10.25.535,MST_task,2024.2.2,60.00261611477362,2025-11-09 16h10.31.902484 +0530,
2,practice_images/031a.jpg,1,1,0,f,2.4718689000001177,0.17867839999962598,None,,,,,,,,,0,1,1,1,,,,,55.05268259999866,,,,,,,,,,,,,,,,,,,,,,,55.03725409999606,55.05268259999866,55.552632299994,55.536275799997384,55.54310369999439,55.552632299994,55.552632299994,55.552632299994,58.53620780000347,f,2.4718689000001177,0.17867839999962598,58.53624050000508,58.53624879999552,None,58.552606500001275,58.552606500001275,58.552606500001275,,,,,,,,,,,,,,,,,,,,,,,,,,,,,,,,,,,,,,,,00023,001,2025-11-09_16h10.25.535,MST_task,2024.2.2,60.00261611477362,2025-11-09 16h10.31.902484 +0530,
4,practice_images/002b.jpg,2,2,0,None,,,j,0.5707125000044471,None,,,,,,,0,2,2,3,,,,,58.552606500001275,,,,,,,,,,,,,,,,,,,,,,,58.53629760000331,58.552606500001275,59.052605199991376,59.03620859999501,59.04323349999322,59.052605199991376,59.052605199991376,59.052605199991376,62.03597230000014,None,,,62.035999300002004,62.63614719999896,j,62.05253079999238,62.05253079999238,62.05253079999238,62.05253079999238,62.05253079999238,0.5707125000044471,None,,,,,,,,,,,,,,,,,,,,,,,,,,,,,,,,,,,,00023,001,2025-11-09_16h10.25.535,MST_task,2024.2.2,60.00261611477362,2025-11-09 16h10.31.902484 +0530,
8,practice_images/178a.jpg,3,3,0,j,2.272306800005026,0.19020019999879878,None,,,,,,,,,0,3,3,7,,,,,62.65251339999668,,,,,,,,,,,,,,,,,,,,,,,62.63621909999347,62.65251339999668,63.15250369999558,63.1360435999959,63.14287709999189,63.15250369999558,63.15250369999558,63.15250369999558,66.13595080000232,j,2.272306800005026,0.19020019999879878,66.13599539999268,66.13600539999607,None,66.15243509999709,66.15243509999709,66.15243509999709,,,,,,,,,,,,,,,,,,,,,,,,,,,,,,,,,,,,,,,,00023,001,2025-11-09_16h10.25.535,MST_task,2024.2.2,60.00261611477362,2025-11-09 16h10.31.902484 +0530,
9,practice_images/180a.jpg,4,4,0,f,1.0104721000097925,0.19363189999421593,None,,,,,,,,,0,4,4,8,,,,,66.15243509999709,,,,,,,,,,,,,,,,,,,,,,,66.13606720000098,66.15243509999709,66.65242549999675,66.63603229999717,66.64274490000389,66.65242549999675,66.65242549999675,66.65242549999675,69.63589469999715,f,1.0104721000097925,0.19363189999421593,69.6359295000002,69.63593859999673,None,69.65236769999319,69.65236769999319,69.65236769999319,,,,,,,,,,,,,,,,,,,,,,,,,,,,,,,,,,,,,,,,00023,001,2025-11-09_16h10.25.535,MST_task,2024.2.2,60.00261611477362,2025-11-09 16h10.31.902484 +0530,
3,practice_images/037a.jpg,5,5,0,None,,,f,0.12998630000220146,None,,,,,,,0,5,5,2,,,,,69.65236769999319,,,,,,,,,,,,,,,,,,,,,,,69.63599460000114,69.65236769999319,70.15231190000486,70.13583410000138,70.14510860000155,70.15231190000486,70.15231190000486,70.15231190000486,73.13572469999781,None,,,73.13735109999834,73.28598649999185,f,73.15225210000062,73.15225210000062,73.15225210000062,73.15225210000062,73.15225210000062,0.12998630000220146,None,,,,,,,,,,,,,,,,,,,,,,,,,,,,,,,,,,,,00023,001,2025-11-09_16h10.25.535,MST_task,2024.2.2,60.00261611477362,2025-11-09 16h10.31.902484 +0530,
5,practice_images/139a.jpg,6,6,0,j,1.946921900002053,0.18593440001131967,None,,,,,,,,,0,6,6,4,,,,,73.3022873000009,,,,,,,,,,,,,,,,,,,,,,,73.28604399999313,73.3022873000009,73.80224279999675,73.78580949999741,73.79264929999772,73.80224279999675,73.80224279999675,73.80224279999675,76.78568559999985,j,1.946921900002053,0.18593440001131967,76.78571670000383,76.78572580000036,None,76.80220769999141,76.80220769999141,76.80220769999141,,,,,,,,,,,,,,,,,,,,,,,,,,,,,,,,,,,,,,,,00023,001,2025-11-09_16h10.25.535,MST_task,2024.2.2,60.00261611477362,2025-11-09 16h10.31.902484 +0530,
1,practice_images/013a.jpg,7,7,0,j,1.241379600003711,0.18924549999064766,None,,,,,,,,,0,7,7,0,,,,,76.80220769999141,,,,,,,,,,,,,,,,,,,,,,,76.78577960000257,76.80220769999141,77.30216419999488,77.28587769999285,77.29264990000229,77.30216419999488,77.30216419999488,77.30216419999488,80.2856288000039,j,1.241379600003711,0.18924549999064766,80.28566539999156,80.28567450000264,None,80.30214729999716,80.30214729999716,80.30214729999716,,,,,,,,,,,,,,,,,,,,,,,,,,,,,,,,,,,,,,,,00023,001,2025-11-09_16h10.25.535,MST_task,2024.2.2,60.00261611477362,2025-11-09 16h10.31.902484 +0530,
10,practice_images/182a.jpg,8,8,0,f,1.2224690000002738,0.2058509999915259,None,,,,,,,,,0,8,8,9,,,,,80.30214729999716,,,,,,,,,,,,,,,,,,,,,,,80.28572839999106,80.30214729999716,80.80208739999216,80.78564259999257,80.79249969999364,80.80208739999216,80.80208739999216,80.80208739999216,83.78562029999739,f,1.2224690000002738,0.2058509999915259,83.78565530000196,83.78566389999469,None,83.80205309999292,83.80205309999292,83.80205309999292,,,,,,,,,,,,,,,,,,,,,,,,,,,,,,,,,,,,,,,,00023,001,2025-11-09_16h10.25.535,MST_task,2024.2.2,60.00261611477362,2025-11-09 16h10.31.902484 +0530,
7,practice_images/166a.jpg,9,9,0,j,1.2586745000007795,0.19852370000444353,None,,,,,,,,,0,9,9,6,,,,,83.80205309999292,,,,,,,,,,,,,,,,,,,,,,,83.78572200000053,83.80205309999292,84.30204909999156,84.28561930000433,84.29262690000178,84.30204909999156,84.30204909999156,84.30204909999156,87.28547879999678,j,1.2586745000007795,0.19852370000444353,87.28550830000313,87.28551600000355,None,87.30194180000399,87.30194180000399,87.30194180000399,,,,,,,,,,,,,,,,,,,,,,,,,,,,,,,,,,,,,,,,00023,001,2025-11-09_16h10.25.535,MST_task,2024.2.2,60.00261611477362,2025-11-09 16h10.31.902484 +0530,
,,,,,,,,,,,,,,,,,,,,,,,,,,,,,,,,,,,,,,,,,,,,,,,,,,,,,,,,,,,,,,,,,,,,,,87.28555190000043,87.30194180000399,87.30194180000399,154.6175927000004,space,67.30233700000099,None,,,,,,,,,,,,,,,,,,,,,,,,,,,,,00023,001,2025-11-09_16h10.25.535,MST_task,2024.2.2,60.00261611477362,2025-11-09 16h10.31.902484 +0530,
,Objects\071a.jpg,0,0,0,,,,,,,j,1.9240552999981446,0.1504389000037918,None,,,,,,,0,0,0,0,154.6338257000025,,,,,,,,,,,,,,,,,,,,,,,154.61834369999997,154.6338257000025,155.15067540000018,155.11729149999155,,,,,,,,,,,,,,,,,,,,,,,,,,155.13299660000484,155.15067540000018,155.15067540000018,155.15067540000018,158.13377630000468,shoe,j,1.9240552999981446,0.1504389000037918,158.13539890000538,158.13541180000175,None,,,,,,,,,,,,,,,,,00023,001,2025-11-09_16h10.25.535,MST_task,2024.2.2,60.00261611477362,2025-11-09 16h10.31.902484 +0530,
,Objects\373a.jpg,1,0,1,,,,,,,j,1.5866378000064287,0.1660769000009168,None,,,,,,,1,0,1,0,158.1503997999971,,,,,,,,,,,,,,,,,,,,,,,158.13549050000438,158.1503997999971,158.65061009999772,158.6338964000024,,,,,,,,,,,,,,,,,,,,,,,,,,158.64435279999452,158.65061009999772,158.65061009999772,158.65061009999772,161.63401120000344,shoe,j,1.5866378000064287,0.1660769000009168,161.63404629999422,161.63405459999922,None,161.65036260000488,161.65036260000488,161.65036260000488,,,,,,,,,,,,,,00023,001,2025-11-09_16h10.25.535,MST_task,2024.2.2,60.00261611477362,2025-11-09 16h10.31.902484 +0530,
,Objects\290a.jpg,2,0,2,,,,,,,j,1.0329335000133142,0.1472823999938555,None,,,,,,,2,0,2,0,161.65036260000488,,,,,,,,,,,,,,,,,,,,,,,161.63413330000185,161.65036260000488,162.15030579999438,162.13385889999336,,,,,,,,,,,,,,,,,,,,,,,,,,162.14435319999757,162.15030579999438,162.15030579999438,162.15030579999438,165.13387389999116,shoe,j,1.0329335000133142,0.1472823999938555,165.1339089999965,165.13391740000225,None,165.15030059999845,165.15030059999845,165.15030059999845,,,,,,,,,,,,,,00023,001,2025-11-09_16h10.25.535,MST_task,2024.2.2,60.00261611477362,2025-11-09 16h10.31.902484 +0530,
,Objects\081a.jpg,3,0,3,,,,,,,None,,,j,0.2060668999911286,None,,,,,3,0,3,0,165.15030059999845,,,,,,,,,,,,,,,,,,,,,,,165.1339697999938,165.15030059999845,165.65023129999463,165.63383669999894,,,,,,,,,,,,,,,,,,,,,,,,,,165.64484100000118,165.65023129999463,165.65023129999463,165.65023129999463,168.63386570000148,shoe,None,,,168.63390190000064,168.86726230000204,j,168.6502055000019,168.6502055000019,168.6502055000019,168.6502055000019,168.6502055000019,0.2060668999911286,None,,,,,,,,,,00023,001,2025-11-09_16h10.25.535,MST_task,2024.2.2,60.00261611477362,2025-11-09 16h10.31.902484 +0530,
,Objects\108a.jpg,4,0,4,,,,,,,j,2.665164999998524,0.18635479999647941,None,,,,,,,4,0,4,0,168.8835032999923,,,,,,,,,,,,,,,,,,,,,,,168.86733219999587,168.8835032999923,169.38348770000448,169.36716599999636,,,,,,,,,,,,,,,,,,,,,,,,,,169.37507870000263,169.38348770000448,169.38348770000448,169.38348770000448,172.36713270000473,shoe,j,2.665164999998524,0.18635479999647941,172.3671677999955,172.36717679999128,None,172.3834552000044,172.3834552000044,172.3834552000044,,,,,,,,,,,,,,00023,001,2025-11-09_16h10.25.535,MST_task,2024.2.2,60.00261611477362,2025-11-09 16h10.31.902484 +0530,
,Objects\218a.jpg,5,0,5,,,,,,,j,1.0478391000069678,0.15978390000236686,None,,,,,,,5,0,5,0,172.3834552000044,,,,,,,,,,,,,,,,,,,,,,,172.3672627999913,172.3834552000044,172.88341070000024,172.86706330000015,,,,,,,,,,,,,,,,,,,,,,,,,,172.87752779999573,172.88341070000024,172.88341070000024,172.88341070000024,175.86690159999125,shoe,j,1.0478391000069678,0.15978390000236686,175.86693659999582,175.86694599999464,None,175.8833714999928,175.8833714999928,175.8833714999928,,,,,,,,,,,,,,00023,001,2025-11-09_16h10.25.535,MST_task,2024.2.2,60.00261611477362,2025-11-09 16h10.31.902484 +0530,
,Objects\129a.jpg,6,0,6,,,,,,,f,0.9671931000048062,0.21018890000414103,None,,,,,,,6,0,6,0,175.8833714999928,,,,,,,,,,,,,,,,,,,,,,,175.86702479999803,175.8833714999928,176.38335109999753,176.36687889999303,,,,,,,,,,,,,,,,,,,,,,,,,,176.37766869999177,176.38335109999753,176.38335109999753,176.38335109999753,179.36685370000487,shoe,f,0.9671931000048062,0.21018890000414103,179.3668864999927,179.36689429999387,None,179.38328850000107,179.38328850000107,179.38328850000107,,,,,,,,,,,,,,00023,001,2025-11-09_16h10.25.535,MST_task,2024.2.2,60.00261611477362,2025-11-09 16h10.31.902484 +0530,
,Objects\261a.jpg,7,0,7,,,,,,,f,0.9570591000083368,0.18664479999279138,None,,,,,,,7,0,7,0,179.38328850000107,,,,,,,,,,,,,,,,,,,,,,,179.3669710999966,179.38328850000107,179.8832512999943,179.86676589999115,,,,,,,,,,,,,,,,,,,,,,,,,,179.87908289999177,179.8832512999943,179.8832512999943,179.8832512999943,182.86689570000453,indoor,f,0.9570591000083368,0.18664479999279138,182.8680858000007,182.86809699999867,None,182.88319480000064,182.88319480000064,182.88319480000064,,,,,,,,,,,,,,00023,001,2025-11-09_16h10.25.535,MST_task,2024.2.2,60.00261611477362,2025-11-09 16h10.31.902484 +0530,
,Objects\215a.jpg,8,0,8,,,,,,,f,1.807430300003034,0.19358930000453256,None,,,,,,,8,0,8,0,182.88319480000064,,,,,,,,,,,,,,,,,,,,,,,182.86815039999783,182.88319480000064,183.38322699999844,183.3667243999953,,,,,,,,,,,,,,,,,,,,,,,,,,183.37757579999743,183.38322699999844,183.38322699999844,183.38322699999844,186.36677199999394,indoor,f,1.807430300003034,0.19358930000453256,186.36680909999995,186.36681759999192,None,186.38314360000368,186.38314360000368,186.38314360000368,,,,,,,,,,,,,,00023,001,2025-11-09_16h10.25.535,MST_task,2024.2.2,60.00261611477362,2025-11-09 16h10.31.902484 +0530,
,Objects\279a.jpg,9,0,9,,,,,,,j,2.2615518999955384,0.1856941000005463,None,,,,,,,9,0,9,0,186.38314360000368,,,,,,,,,,,,,,,,,,,,,,,186.36687009999878,186.38314360000368,186.8831058999931,186.86660549999215,,,,,,,,,,,,,,,,,,,,,,,,,,186.87401610000234,186.8831058999931,186.8831058999931,186.8831058999931,189.86678499999107,indoor,j,2.2615518999955384,0.1856941000005463,189.86681880000106,189.86682729999302,None,189.88336700000218,189.88336700000218,189.88336700000218,,,,,,,,,,,,,,00023,001,2025-11-09_16h10.25.535,MST_task,2024.2.2,60.00261611477362,2025-11-09 16h10.31.902484 +0530,
,Objects\020a.jpg,10,0,10,,,,,,,j,2.8297165999974823,None,None,,,,,,,10,0,10,0,189.88336700000218,,,,,,,,,,,,,,,,,,,,,,,189.8668789999938,189.88336700000218,190.3830297999957,190.3666138999979,,,,,,,,,,,,,,,,,,,,,,,,,,190.37418169999728,190.3830297999957,190.3830297999957,190.3830297999957,193.36657669999113,indoor,j,2.8297165999974823,None,193.36661290000484,193.36662109999452,None,193.38300049999089,193.38300049999089,193.38300049999089,,,,,,,,,,,,,,00023,001,2025-11-09_16h10.25.535,MST_task,2024.2.2,60.00261611477362,2025-11-09 16h10.31.902484 +0530,
,Objects\086a.jpg,11,0,11,,,,,,,j,2.627759499999229,0.1425703999993857,None,,,,,,,11,0,11,0,193.38300049999089,,,,,,,,,,,,,,,,,,,,,,,193.36667229999148,193.38300049999089,193.88294949999545,193.86644929999602,,,,,,,,,,,,,,,,,,,,,,,,,,193.87559229999897,193.88294949999545,193.88294949999545,193.88294949999545,196.8664817999961,indoor,j,2.627759499999229,0.1425703999993857,196.86651520000305,196.866523100005,None,196.8829221999913,196.8829221999913,196.8829221999913,,,,,,,,,,,,,,00023,001,2025-11-09_16h10.25.535,MST_task,2024.2.2,60.00261611477362,2025-11-09 16h10.31.902484 +0530,
,Objects\058a.jpg,12,0,12,,,,,,,f,1.9478946000017459,0.1782181999878958,None,,,,,,,12,0,12,0,196.8829221999913,,,,,,,,,,,,,,,,,,,,,,,196.8665783000033,196.8829221999913,197.3828771999979,197.36639120000473,,,,,,,,,,,,,,,,,,,,,,,,,,197.3752051999909,197.3828771999979,197.3828771999979,197.3828771999979,200.36642370000482,indoor,f,1.9478946000017459,0.1782181999878958,200.36645839999255,200.36646659999678,None,200.38296770000306,200.38296770000306,200.38296770000306,,,,,,,,,,,,,,00023,001,2025-11-09_16h10.25.535,MST_task,2024.2.2,60.00261611477362,2025-11-09 16h10.31.902484 +0530,
,Objects\196a.jpg,13,0,13,,,,,,,f,2.8314289999980247,None,None,,,,,,,13,0,13,0,200.38296770000306,,,,,,,,,,,,,,,,,,,,,,,200.36652159999358,200.38296770000306,200.88284950000525,200.86631100000523,,,,,,,,,,,,,,,,,,,,,,,,,,200.87457909999648,200.88284950000525,200.88284950000525,200.88284950000525,203.86651150000398,indoor,f,2.8314289999980247,None,203.86654999999155,203.86656080000103,None,203.88276649999898,203.88276649999898,203.88276649999898,,,,,,,,,,,,,,00023,001,2025-11-09_16h10.25.535,MST_task,2024.2.2,60.00261611477362,2025-11-09 16h10.31.902484 +0530,
,Objects\063a.jpg,14,0,14,,,,,,,f,2.18179250000685,0.17385269999795128,None,,,,,,,14,0,14,0,203.88276649999898,,,,,,,,,,,,,,,,,,,,,,,203.8666108000034,203.88276649999898,204.38276649999898,204.36626120000437,,,,,,,,,,,,,,,,,,,,,,,,,,204.3752589999931,204.38276649999898,204.38276649999898,204.38276649999898,207.3663482999982,shoe,f,2.18179250000685,0.17385269999795128,207.3678768999962,207.36788730000262,None,207.38267439999618,207.38267439999618,207.38267439999618,,,,,,,,,,,,,,00023,001,2025-11-09_16h10.25.535,MST_task,2024.2.2,60.00261611477362,2025-11-09 16h10.31.902484 +0530,
,Objects\016a.jpg,15,0,15,,,,,,,f,1.571915699998499,0.17479409999214113,None,,,,,,,15,0,15,0,207.38267439999618,,,,,,,,,,,,,,,,,,,,,,,207.36796750000212,207.38267439999618,207.8826645999943,207.8662711999932,,,,,,,,,,,,,,,,,,,,,,,,,,207.87398029999167,207.8826645999943,207.8826645999943,207.8826645999943,210.86627410000074,shoe,f,1.571915699998499,0.17479409999214113,210.86630850000074,210.86631679999118,None,210.8826088999922,210.8826088999922,210.8826088999922,,,,,,,,,,,,,,00023,001,2025-11-09_16h10.25.535,MST_task,2024.2.2,60.00261611477362,2025-11-09 16h10.31.902484 +0530,
,Objects\366a.jpg,16,0,16,,,,,,,f,2.864840700000059,None,None,,,,,,,16,0,16,0,210.8826088999922,,,,,,,,,,,,,,,,,,,,,,,210.86639779999678,210.8826088999922,211.3825882999954,211.36609979999776,,,,,,,,,,,,,,,,,,,,,,,,,,211.37378939999326,211.3825882999954,211.3825882999954,211.3825882999954,214.36611049999192,shoe,f,2.864840700000059,None,214.36614620000182,214.36615449999226,None,214.3825380000053,214.3825380000053,214.3825380000053,,,,,,,,,,,,,,00023,001,2025-11-09_16h10.25.535,MST_task,2024.2.2,60.00261611477362,2025-11-09 16h10.31.902484 +0530,
,Objects\174a.jpg,17,0,17,,,,,,,j,2.3384732000122312,0.16568679999909364,None,,,,,,,17,0,17,0,214.3825380000053,,,,,,,,,,,,,,,,,,,,,,,214.36620519999997,214.3825380000053,214.8824944999942,214.8660888000013,,,,,,,,,,,,,,,,,,,,,,,,,,214.8738607999985,214.8824944999942,214.8824944999942,214.8824944999942,217.86612279999827,shoe,j,2.3384732000122312,0.16568679999909364,217.8661565999937,217.86616449999565,None,217.882460599998,217.882460599998,217.882460599998,,,,,,,,,,,,,,00023,001,2025-11-09_16h10.25.535,MST_task,2024.2.2,60.00261611477362,2025-11-09 16h10.31.902484 +0530,
,Objects\112a.jpg,18,0,18,,,,,,,f,1.276325500002713,0.21377560000109952,None,,,,,,,18,0,18,0,217.882460599998,,,,,,,,,,,,,,,,,,,,,,,217.8662417000014,217.882460599998,218.382408999998,218.36600850000104,,,,,,,,,,,,,,,,,,,,,,,,,,218.37378949999402,218.382408999998,218.382408999998,218.382408999998,221.36596470000222,shoe,f,1.276325500002713,0.21377560000109952,221.36599740000383,221.36600569999428,None,221.38235770000028,221.38235770000028,221.38235770000028,,,,,,,,,,,,,,00023,001,2025-11-09_16h10.25.535,MST_task,2024.2.2,60.00261611477362,2025-11-09 16h10.31.902484 +0530,
,Objects\010a.jpg,19,0,19,,,,,,,None,,,j,1.194010299994261,None,,,,,19,0,19,0,221.38235770000028,,,,,,,,,,,,,,,,,,,,,,,221.36606040000333,221.38235770000028,221.88233870000113,221.86590119999892,,,,,,,,,,,,,,,,,,,,,,,,,,221.87392479999107,221.88233870000113,221.88233870000113,221.88233870000113,224.86590059999435,shoe,None,,,224.86593309999444,226.08259669999825,j,224.88227590000315,224.88227590000315,224.88227590000315,224.88227590000315,224.88227590000315,1.194010299994261,None,,,,,,,,,,00023,001,2025-11-09_16h10.25.535,MST_task,2024.2.2,60.00261611477362,2025-11-09 16h10.31.902484 +0530,
,Objects\268a.jpg,20,0,20,,,,,,,f,1.9857691999932285,0.19451270000718068,None,,,,,,,20,0,20,0,226.09895630000392,,,,,,,,,,,,,,,,,,,,,,,226.08266379999986,226.09895630000392,226.59892219999165,226.5824014999962,,,,,,,,,,,,,,,,,,,,,,,,,,226.592533499992,226.59892219999165,226.59892219999165,226.59892219999165,229.58253640000476,shoe,f,1.9857691999932285,0.19451270000718068,229.582570700004,229.5825834999996,None,229.59887249999156,229.59887249999156,229.59887249999156,,,,,,,,,,,,,,00023,001,2025-11-09_16h10.25.535,MST_task,2024.2.2,60.00261611477362,2025-11-09 16h10.31.902484 +0530,
,Objects\285a.jpg,21,0,21,,,,,,,f,1.2270939000009093,0.21028869999281596,None,,,,,,,21,0,21,0,229.59887249999156,,,,,,,,,,,,,,,,,,,,,,,229.58263489999808,229.59887249999156,230.115518599996,230.0823212999967,,,,,,,,,,,,,,,,,,,,,,,,,,230.09471639999538,230.115518599996,230.115518599996,230.115518599996,233.09894229999918,indoor,f,1.2270939000009093,0.21028869999281596,233.10021550000238,233.10022700000263,None,,,,,,,,,,,,,,,,,00023,001,2025-11-09_16h10.25.535,MST_task,2024.2.2,60.00261611477362,2025-11-09 16h10.31.902484 +0530,
,Objects\040a.jpg,22,0,22,,,,,,,f,1.4852854999917326,0.2063456000032602,None,,,,,,,22,0,22,0,233.11546180000005,,,,,,,,,,,,,,,,,,,,,,,233.10028289999173,233.11546180000005,233.61548150000453,233.59896099999605,,,,,,,,,,,,,,,,,,,,,,,,,,233.606629899994,233.61548150000453,233.61548150000453,233.61548150000453,236.59903749999648,indoor,f,1.4852854999917326,0.2063456000032602,236.5990746000025,236.5990829999937,None,236.61538439999276,236.61538439999276,236.61538439999276,,,,,,,,,,,,,,00023,001,2025-11-09_16h10.25.535,MST_task,2024.2.2,60.00261611477362,2025-11-09 16h10.31.902484 +0530,
,Objects\350a.jpg,23,0,23,,,,,,,j,2.4567960999993375,0.18313669999770354,None,,,,,,,23,0,23,0,236.61538439999276,,,,,,,,,,,,,,,,,,,,,,,236.59913329999836,236.61538439999276,237.13200569999753,237.09885149999172,,,,,,,,,,,,,,,,,,,,,,,,,,237.1098348999949,237.13200569999753,237.13200569999753,237.13200569999753,240.11536739999428,indoor,j,2.4567960999993375,0.18313669999770354,240.115401499992,240.1154103000008,None,,,,,,,,,,,,,,,,,00023,001,2025-11-09_16h10.25.535,MST_task,2024.2.2,60.00261611477362,2025-11-09 16h10.31.902484 +0530,
,Objects\362a.jpg,24,0,24,,,,,,,j,1.8347965000139084,0.1901097999943886,None,,,,,,,24,0,24,0,240.13197740000032,,,,,,,,,,,,,,,,,,,,,,,240.1154671999975,240.13197740000032,240.63155530000222,240.61546590000216,,,,,,,,,,,,,,,,,,,,,,,,,,240.62567429999763,240.63155530000222,240.63155530000222,240.63155530000222,243.61548049999692,indoor,j,1.8347965000139084,0.1901097999943886,243.61551489999692,243.6155235000042,None,243.6318992000015,243.6318992000015,243.6318992000015,,,,,,,,,,,,,,00023,001,2025-11-09_16h10.25.535,MST_task,2024.2.2,60.00261611477362,2025-11-09 16h10.31.902484 +0530,
,Objects\132a.jpg,25,0,25,,,,,,,j,1.456870699999854,0.21841909999784548,None,,,,,,,25,0,25,0,243.6318992000015,,,,,,,,,,,,,,,,,,,,,,,243.61557840000023,243.6318992000015,244.1314768000011,244.11548340000445,,,,,,,,,,,,,,,,,,,,,,,,,,244.12629770000058,244.1314768000011,244.1314768000011,244.1314768000011,247.11538279999513,indoor,j,1.456870699999854,0.21841909999784548,247.11541749999742,247.11542879999615,None,247.13182329999108,247.13182329999108,247.13182329999108,,,,,,,,,,,,,,00023,001,2025-11-09_16h10.25.535,MST_task,2024.2.2,60.00261611477362,2025-11-09 16h10.31.902484 +0530,
,Objects\281a.jpg,26,0,26,,,,,,,f,2.8109333000029437,None,None,,,,,,,26,0,26,0,247.13182329999108,,,,,,,,,,,,,,,,,,,,,,,247.11547970000538,247.13182329999108,247.6318384000042,247.6153048999986,,,,,,,,,,,,,,,,,,,,,,,,,,247.626505799999,247.6318384000042,247.6318384000042,247.6318384000042,250.61537179999868,indoor,f,2.8109333000029437,None,250.6154067000025,250.6154147000052,None,250.63175089999277,250.63175089999277,250.63175089999277,,,,,,,,,,,,,,00023,001,2025-11-09_16h10.25.535,MST_task,2024.2.2,60.00261611477362,2025-11-09 16h10.31.902484 +0530,
,Objects\145a.jpg,27,0,27,,,,,,,None,,,j,3.102461000002222,None,,,,,27,0,27,0,250.63175089999277,,,,,,,,,,,,,,,,,,,,,,,250.61546780000208,250.63175089999277,251.13131879999128,251.11525729999994,,,,,,,,,,,,,,,,,,,,,,,,,,251.1267155999958,251.13131879999128,251.13131879999128,251.13131879999128,254.11528179999732,indoor,None,,,254.11531330000435,257.2485441000026,j,254.13164300000062,254.13164300000062,254.13164300000062,254.13164300000062,254.13164300000062,3.102461000002222,None,,,,,,,,,,00023,001,2025-11-09_16h10.25.535,MST_task,2024.2.2,60.00261611477362,2025-11-09 16h10.31.902484 +0530,
,Objects\133a.jpg,28,0,28,,,,,,,None,,,j,1.650018899992574,None,,,,,28,0,28,0,257.26494330000423,,,,,,,,,,,,,,,,,,,,,,,257.24863339999865,257.26494330000423,257.7645135999919,257.748463099997,,,,,,,,,,,,,,,,,,,,,,,,,,257.7592147999967,257.7645135999919,257.7645135999919,257.7645135999919,260.7484312000015,shoe,None,,,260.74998019999475,262.4152829999948,j,260.7648476000031,260.7648476000031,260.7648476000031,260.7648476000031,260.7648476000031,1.650018899992574,None,,,,,,,,,,00023,001,2025-11-09_16h10.25.535,MST_task,2024.2.2,60.00261611477362,2025-11-09 16h10.31.902484 +0530,
,Objects\298a.jpg,29,0,29,,,,,,,j,2.236776399993687,0.15872449999733362,None,,,,,,,29,0,29,0,262.43146530000377,,,,,,,,,,,,,,,,,,,,,,,262.41536080000515,262.43146530000377,262.9315404999943,262.9149685000011,,,,,,,,,,,,,,,,,,,,,,,,,,262.92398599999433,262.9315404999943,262.9315404999943,262.9315404999943,265.9149582999962,shoe,j,2.236776399993687,0.15872449999733362,265.9149914000009,265.91499989999284,None,265.9314347000036,265.9314347000036,265.9314347000036,,,,,,,,,,,,,,00023,001,2025-11-09_16h10.25.535,MST_task,2024.2.2,60.00261611477362,2025-11-09 16h10.31.902484 +0530,
,Objects\059a.jpg,30,0,30,,,,,,,j,1.249338900001021,0.20637719999649562,None,,,,,,,30,0,30,0,265.9314347000036,,,,,,,,,,,,,,,,,,,,,,,265.91505369999504,265.9314347000036,266.4314144999953,266.4149391999963,,,,,,,,,,,,,,,,,,,,,,,,,,266.42270579999604,266.4314144999953,266.4314144999953,266.4314144999953,269.4148981000035,shoe,j,1.249338900001021,0.20637719999649562,269.41493230000196,269.41494069999317,None,269.4313417999947,269.4313417999947,269.4313417999947,,,,,,,,,,,,,,00023,001,2025-11-09_16h10.25.535,MST_task,2024.2.2,60.00261611477362,2025-11-09 16h10.31.902484 +0530,
,Objects\162a.jpg,31,0,31,,,,,,,f,1.8020004999998491,0.21568850000039674,None,,,,,,,31,0,31,0,269.4313417999947,,,,,,,,,,,,,,,,,,,,,,,269.4150226999918,269.4313417999947,269.9312920999946,269.914824099993,,,,,,,,,,,,,,,,,,,,,,,,,,269.92268180000247,269.9312920999946,269.9312920999946,269.9312920999946,272.91482229999383,shoe,f,1.8020004999998491,0.21568850000039674,272.9148564999923,272.9148647999973,None,272.93126610000036,272.93126610000036,272.93126610000036,,,,,,,,,,,,,,00023,001,2025-11-09_16h10.25.535,MST_task,2024.2.2,60.00261611477362,2025-11-09 16h10.31.902484 +0530,
,Objects\368a.jpg,32,0,32,,,,,,,j,1.4418861999874935,0.17730970001139212,None,,,,,,,32,0,32,0,272.93126610000036,,,,,,,,,,,,,,,,,,,,,,,272.9149163999973,272.93126610000036,273.43121809999866,273.4147910000029,,,,,,,,,,,,,,,,,,,,,,,,,,273.42541509999137,273.43121809999866,273.43121809999866,273.43121809999866,276.41472729999805,shoe,j,1.4418861999874935,0.17730970001139212,276.4147687999939,276.4147779999912,None,276.43118289999256,276.43118289999256,276.43118289999256,,,,,,,,,,,,,,00023,001,2025-11-09_16h10.25.535,MST_task,2024.2.2,60.00261611477362,2025-11-09 16h10.31.902484 +0530,
,Objects\097a.jpg,33,0,33,,,,,,,j,2.5093692999944324,0.1981272999983048,None,,,,,,,33,0,33,0,276.43118289999256,,,,,,,,,,,,,,,,,,,,,,,276.41483690000314,276.43118289999256,276.93113840000296,276.9147512999916,,,,,,,,,,,,,,,,,,,,,,,,,,276.92538590000186,276.93113840000296,276.93113840000296,276.93113840000296,279.9147174999962,shoe,j,2.5093692999944324,0.1981272999983048,279.9147557999968,279.914764000001,None,279.93111819999467,279.93111819999467,279.93111819999467,,,,,,,,,,,,,,00023,001,2025-11-09_16h10.25.535,MST_task,2024.2.2,60.00261611477362,2025-11-09 16h10.31.902484 +0530,
,Objects\120a.jpg,34,0,34,,,,,,,f,1.5757123999937903,0.18566260000807233,None,,,,,,,34,0,34,0,279.93111819999467,,,,,,,,,,,,,,,,,,,,,,,279.91481859999476,279.93111819999467,280.43106570000236,280.41464740000083,,,,,,,,,,,,,,,,,,,,,,,,,,280.4224186999927,280.43106570000236,280.43106570000236,280.43106570000236,283.4147301000048,shoe,f,1.5757123999937903,0.18566260000807233,283.41476949999924,283.4147782999935,None,283.43103269999847,283.43103269999847,283.43103269999847,,,,,,,,,,,,,,00023,001,2025-11-09_16h10.25.535,MST_task,2024.2.2,60.00261611477362,2025-11-09 16h10.31.902484 +0530,
,Objects\369a.jpg,35,0,35,,,,,,,f,2.360468099999707,0.1850989000085974,None,,,,,,,35,0,35,0,283.43103269999847,,,,,,,,,,,,,,,,,,,,,,,283.41483169999265,283.43103269999847,283.9309918999934,283.91457409999566,,,,,,,,,,,,,,,,,,,,,,,,,,283.9236855999916,283.9309918999934,283.9309918999934,283.9309918999934,286.91472919999796,indoor,f,2.360468099999707,0.1850989000085974,286.91586310000275,286.91587339999387,None,286.9309268999932,286.9309268999932,286.9309268999932,,,,,,,,,,,,,,00023,001,2025-11-09_16h10.25.535,MST_task,2024.2.2,60.00261611477362,2025-11-09 16h10.31.902484 +0530,
,Objects\243a.jpg,36,0,36,,,,,,,f,2.6543472000048496,0.20009939999727067,None,,,,,,,36,0,36,0,286.9309268999932,,,,,,,,,,,,,,,,,,,,,,,286.91592640000454,286.9309268999932,287.4309321000037,287.4145034999965,,,,,,,,,,,,,,,,,,,,,,,,,,287.4252703999955,287.4309321000037,287.4309321000037,287.4309321000037,290.41454610000073,indoor,f,2.6543472000048496,0.20009939999727067,290.41458209999837,290.4145903000026,None,290.4308749000047,290.4308749000047,290.4308749000047,,,,,,,,,,,,,,00023,001,2025-11-09_16h10.25.535,MST_task,2024.2.2,60.00261611477362,2025-11-09 16h10.31.902484 +0530,
,Objects\305a.jpg,37,0,37,,,,,,,j,2.1459381000022404,0.2054238999990048,None,,,,,,,37,0,37,0,290.4308749000047,,,,,,,,,,,,,,,,,,,,,,,290.41464540000015,290.4308749000047,290.93091009999625,290.9144266999938,,,,,,,,,,,,,,,,,,,,,,,,,,290.9254585000017,290.93091009999625,290.93091009999625,290.93091009999625,293.91448449999734,indoor,j,2.1459381000022404,0.2054238999990048,293.914520899998,293.91452910000226,None,293.930804299991,293.930804299991,293.930804299991,,,,,,,,,,,,,,00023,001,2025-11-09_16h10.25.535,MST_task,2024.2.2,60.00261611477362,2025-11-09 16h10.31.902484 +0530,
,Objects\149a.jpg,38,0,38,,,,,,,f,1.1998222999973223,0.22574920000624843,None,,,,,,,38,0,38,0,293.930804299991,,,,,,,,,,,,,,,,,,,,,,,293.91458519999287,293.930804299991,294.4308499000035,294.41441129999293,,,,,,,,,,,,,,,,,,,,,,,,,,294.42207669999334,294.4308499000035,294.4308499000035,294.4308499000035,297.4142806000018,indoor,f,1.1998222999973223,0.22574920000624843,297.41431490000105,297.4143230000045,None,297.43072530000063,297.43072530000063,297.43072530000063,,,,,,,,,,,,,,00023,001,2025-11-09_16h10.25.535,MST_task,2024.2.2,60.00261611477362,2025-11-09 16h10.31.902484 +0530,
,Objects\325a.jpg,39,0,39,,,,,,,f,2.534386999992421,0.20208190000266768,None,,,,,,,39,0,39,0,297.43072530000063,,,,,,,,,,,,,,,,,,,,,,,297.41437489999225,297.43072530000063,297.9307245999953,297.914196800004,,,,,,,,,,,,,,,,,,,,,,,,,,297.92425519999233,297.9307245999953,297.9307245999953,297.9307245999953,300.91431730000477,indoor,f,2.534386999992421,0.20208190000266768,300.9143566999992,300.91436650000105,None,300.9306799000042,300.9306799000042,300.9306799000042,,,,,,,,,,,,,,00023,001,2025-11-09_16h10.25.535,MST_task,2024.2.2,60.00261611477362,2025-11-09 16h10.31.902484 +0530,
,Objects\352a.jpg,40,0,40,,,,,,,f,2.702391400001943,0.19765040000493173,None,,,,,,,40,0,40,0,300.9306799000042,,,,,,,,,,,,,,,,,,,,,,,300.9144244000054,300.9306799000042,301.43022909999127,301.41421750000154,,,,,,,,,,,,,,,,,,,,,,,,,,301.4245668999938,301.43022909999127,301.43022909999127,301.43022909999127,304.41413449999527,indoor,f,2.702391400001943,0.19765040000493173,304.4141702999914,304.41418089999934,None,304.43057599999884,304.43057599999884,304.43057599999884,,,,,,,,,,,,,,00023,001,2025-11-09_16h10.25.535,MST_task,2024.2.2,60.00261611477362,2025-11-09 16h10.31.902484 +0530,
,Objects\264a.jpg,41,0,41,,,,,,,j,1.3970850000041537,0.1878636000037659,None,,,,,,,41,0,41,0,304.43057599999884,,,,,,,,,,,,,,,,,,,,,,,304.4142392999929,304.43057599999884,304.9301506999909,304.9140851999982,,,,,,,,,,,,,,,,,,,,,,,,,,304.92417109999224,304.9301506999909,304.9301506999909,304.9301506999909,307.9141023999982,indoor,j,1.3970850000041537,0.1878636000037659,307.9141365999967,307.91414480000094,None,307.9305364000029,307.9305364000029,307.9305364000029,,,,,,,,,,,,,,00023,001,2025-11-09_16h10.25.535,MST_task,2024.2.2,60.00261611477362,2025-11-09 16h10.31.902484 +0530,
,Objects\064a.jpg,42,0,42,,,,,,,f,1.6695899000042118,0.2147800999955507,None,,,,,,,42,0,42,0,307.9305364000029,,,,,,,,,,,,,,,,,,,,,,,307.9141937999957,307.9305364000029,308.4471402999916,308.41405870000017,,,,,,,,,,,,,,,,,,,,,,,,,,308.42667190000066,308.4471402999916,308.4471402999916,308.4471402999916,311.43057929999486,shoe,f,1.6695899000042118,0.2147800999955507,311.43220579999615,311.4322175999987,None,,,,,,,,,,,,,,,,,00023,001,2025-11-09_16h10.25.535,MST_task,2024.2.2,60.00261611477362,2025-11-09 16h10.31.902484 +0530,
,Objects\263a.jpg,43,0,43,,,,,,,j,1.840380900001037,0.19024940000963397,None,,,,,,,43,0,43,0,311.44707929999277,,,,,,,,,,,,,,,,,,,,,,,311.43237059999956,311.44707929999277,311.9466720999917,311.9305991000001,,,,,,,,,,,,,,,,,,,,,,,,,,311.9420719000045,311.9466720999917,311.9466720999917,311.9466720999917,314.930724299993,shoe,j,1.840380900001037,0.19024940000963397,314.9307620000036,314.93077029999404,None,314.9470153000002,314.9470153000002,314.9470153000002,,,,,,,,,,,,,,00023,001,2025-11-09_16h10.25.535,MST_task,2024.2.2,60.00261611477362,2025-11-09 16h10.31.902484 +0530,
,Objects\152a.jpg,44,0,44,,,,,,,f,2.645949699988705,0.25242550000257324,None,,,,,,,44,0,44,0,314.9470153000002,,,,,,,,,,,,,,,,,,,,,,,314.9308522999927,314.9470153000002,315.4465952000028,315.4305951999995,,,,,,,,,,,,,,,,,,,,,,,,,,315.44166169999517,315.4465952000028,315.4465952000028,315.4465952000028,318.4305650000024,shoe,f,2.645949699988705,0.25242550000257324,318.4306036999915,318.4306119999965,None,318.44693999999436,318.44693999999436,318.44693999999436,,,,,,,,,,,,,,00023,001,2025-11-09_16h10.25.535,MST_task,2024.2.2,60.00261611477362,2025-11-09 16h10.31.902484 +0530,
,Objects\317a.jpg,45,0,45,,,,,,,j,1.0224484999926062,0.15383710000605788,None,,,,,,,45,0,45,0,318.44693999999436,,,,,,,,,,,,,,,,,,,,,,,318.43069229999674,318.44693999999436,318.9465130000026,318.93039369999315,,,,,,,,,,,,,,,,,,,,,,,,,,318.9401981999981,318.9465130000026,318.9465130000026,318.9465130000026,321.93057650000264,shoe,j,1.0224484999926062,0.15383710000605788,321.93061500000476,321.9306229999929,None,321.9468630999909,321.9468630999909,321.9468630999909,,,,,,,,,,,,,,00023,001,2025-11-09_16h10.25.535,MST_task,2024.2.2,60.00261611477362,2025-11-09 16h10.31.902484 +0530,
,Objects\182a.jpg,46,0,46,,,,,,,f,2.011563899999601,0.2128688999946462,None,,,,,,,46,0,46,0,321.9468630999909,,,,,,,,,,,,,,,,,,,,,,,321.93070139999327,321.9468630999909,322.4467241999955,322.4303052000032,,,,,,,,,,,,,,,,,,,,,,,,,,322.4394709000044,322.4467241999955,322.4467241999955,322.4467241999955,325.4303696999996,shoe,f,2.011563899999601,0.2128688999946462,325.43040359999577,325.43041190000076,None,325.4467516000004,325.4467516000004,325.4467516000004,,,,,,,,,,,,,,00023,001,2025-11-09_16h10.25.535,MST_task,2024.2.2,60.00261611477362,2025-11-09 16h10.31.902484 +0530,
,Objects\143a.jpg,47,0,47,,,,,,,j,2.5636931999906665,0.17470280000998173,None,,,,,,,47,0,47,0,325.4467516000004,,,,,,,,,,,,,,,,,,,,,,,325.4304678000044,325.4467516000004,325.94674430000305,325.9302497000026,,,,,,,,,,,,,,,,,,,,,,,,,,325.9378013999958,325.94674430000305,325.94674430000305,325.94674430000305,328.93035310000414,shoe,j,2.5636931999906665,0.17470280000998173,328.9303893000033,328.9303973999922,None,328.9466754000023,328.9466754000023,328.9466754000023,,,,,,,,,,,,,,00023,001,2025-11-09_16h10.25.535,MST_task,2024.2.2,60.00261611477362,2025-11-09 16h10.31.902484 +0530,
,Objects\286a.jpg,48,0,48,,,,,,,j,1.4477173000050243,0.18232969999371562,None,,,,,,,48,0,48,0,328.9466754000023,,,,,,,,,,,,,,,,,,,,,,,328.9304506000044,328.9466754000023,329.4466730999993,329.4302389999939,,,,,,,,,,,,,,,,,,,,,,,,,,329.4400607999996,329.4466730999993,329.4466730999993,329.4466730999993,332.4302828999935,shoe,j,1.4477173000050243,0.18232969999371562,332.43032010000024,332.430329099996,None,332.4465974999912,332.4465974999912,332.4465974999912,,,,,,,,,,,,,,00023,001,2025-11-09_16h10.25.535,MST_task,2024.2.2,60.00261611477362,2025-11-09 16h10.31.902484 +0530,
,Objects\314a.jpg,49,0,49,,,,,,,None,,,j,1.0316670999891357,None,,,,,49,0,49,0,332.4465974999912,,,,,,,,,,,,,,,,,,,,,,,332.43038340000203,332.4465974999912,332.9632438999979,332.93011919999844,,,,,,,,,,,,,,,,,,,,,,,,,,332.9422440000053,332.9632438999979,332.9632438999979,332.9632438999979,335.9466500999988,indoor,None,,,335.94787439999345,336.996865299996,j,,,,335.96321519999765,335.96321519999765,1.0316670999891357,None,,,,,,,,,,00023,001,2025-11-09_16h10.25.535,MST_task,2024.2.2,60.00261611477362,2025-11-09 16h10.31.902484 +0530,
,Objects\217a.jpg,50,0,50,,,,,,,f,2.7453501999989385,None,None,,,,,,,50,0,50,0,337.01320159999887,,,,,,,,,,,,,,,,,,,,,,,336.996945699997,337.01320159999887,337.5130666000041,337.4966937999998,,,,,,,,,,,,,,,,,,,,,,,,,,337.50774580000143,337.5130666000041,337.5130666000041,337.5130666000041,340.49675269999716,indoor,f,2.7453501999989385,None,340.49679049999395,340.49679879999894,None,340.5131309999997,340.5131309999997,340.5131309999997,,,,,,,,,,,,,,00023,001,2025-11-09_16h10.25.535,MST_task,2024.2.2,60.00261611477362,2025-11-09 16h10.31.902484 +0530,
,Objects\209a.jpg,51,0,51,,,,,,,f,2.739888799987966,0.22580900001048576,None,,,,,,,51,0,51,0,340.5131309999997,,,,,,,,,,,,,,,,,,,,,,,340.49685429999954,340.5131309999997,341.0130971000035,340.99660420000146,,,,,,,,,,,,,,,,,,,,,,,,,,341.0075347999955,341.0130971000035,341.0130971000035,341.0130971000035,343.9967142999958,indoor,f,2.739888799987966,0.22580900001048576,343.996750899998,343.996759200003,None,344.0130524999986,344.0130524999986,344.0130524999986,,,,,,,,,,,,,,00023,001,2025-11-09_16h10.25.535,MST_task,2024.2.2,60.00261611477362,2025-11-09 16h10.31.902484 +0530,
,Objects\193a.jpg,52,0,52,,,,,,,j,2.7466714000038337,0.1572015999990981,None,,,,,,,52,0,52,0,344.0130524999986,,,,,,,,,,,,,,,,,,,,,,,343.99681680000504,344.0130524999986,344.51262729999144,344.4965097999957,,,,,,,,,,,,,,,,,,,,,,,,,,344.50769939999736,344.51262729999144,344.51262729999144,344.51262729999144,347.49670600000536,indoor,j,2.7466714000038337,0.1572015999990981,347.4967394999985,347.4967470999982,None,347.51296989999537,347.51296989999537,347.51296989999537,,,,,,,,,,,,,,00023,001,2025-11-09_16h10.25.535,MST_task,2024.2.2,60.00261611477362,2025-11-09 16h10.31.902484 +0530,
,Objects\021a.jpg,53,0,53,,,,,,,f,1.423768900000141,0.18639030000485945,None,,,,,,,53,0,53,0,347.51296989999537,,,,,,,,,,,,,,,,,,,,,,,347.4968009000004,347.51296989999537,348.0129780999996,347.99652590000187,,,,,,,,,,,,,,,,,,,,,,,,,,348.0042401999963,348.0129780999996,348.0129780999996,348.0129780999996,350.9964725000027,indoor,f,1.423768900000141,0.18639030000485945,350.99651209999865,350.9965203000029,None,351.01289610000094,351.01289610000094,351.01289610000094,,,,,,,,,,,,,,00023,001,2025-11-09_16h10.25.535,MST_task,2024.2.2,60.00261611477362,2025-11-09 16h10.31.902484 +0530,
,Objects\308a.jpg,54,0,54,,,,,,,j,1.5373729999992065,0.18280480000248645,None,,,,,,,54,0,54,0,351.01289610000094,,,,,,,,,,,,,,,,,,,,,,,350.99657560000196,351.01289610000094,351.5128900999989,351.4963967999938,,,,,,,,,,,,,,,,,,,,,,,,,,351.50433349999366,351.5128900999989,351.5128900999989,351.5128900999989,354.4964037000027,indoor,j,1.5373729999992065,0.18280480000248645,354.4964386999927,354.49644689999695,None,354.5128429000033,354.5128429000033,354.5128429000033,,,,,,,,,,,,,,00023,001,2025-11-09_16h10.25.535,MST_task,2024.2.2,60.00261611477362,2025-11-09 16h10.31.902484 +0530,
,Objects\296a.jpg,55,0,55,,,,,,,f,1.3185898000083398,0.22982709998905193,None,,,,,,,55,0,55,0,354.5128429000033,,,,,,,,,,,,,,,,,,,,,,,354.49650290000136,354.5128429000033,355.0124022999953,354.9964711999928,,,,,,,,,,,,,,,,,,,,,,,,,,355.0068186999997,355.0124022999953,355.0124022999953,355.0124022999953,357.9963282999961,indoor,f,1.3185898000083398,0.22982709998905193,357.9963643999945,357.99637229999644,None,358.01274289999856,358.01274289999856,358.01274289999856,,,,,,,,,,,,,,00023,001,2025-11-09_16h10.25.535,MST_task,2024.2.2,60.00261611477362,2025-11-09 16h10.31.902484 +0530,
,Objects\300a.jpg,56,0,56,,,,,,,None,,,f,2.479896999997436,None,,,,,56,0,56,0,358.01274289999856,,,,,,,,,,,,,,,,,,,,,,,357.99642799999856,358.01274289999856,358.51232270000037,358.4962569999916,,,,,,,,,,,,,,,,,,,,,,,,,,358.50632349999796,358.51232270000037,358.51232270000037,358.51232270000037,361.4963052999956,shoe,None,,,361.4978581000032,363.996304699991,f,361.5126302999997,361.5126302999997,361.5126302999997,361.5126302999997,361.5126302999997,2.479896999997436,None,,,,,,,,,,00023,001,2025-11-09_16h10.25.535,MST_task,2024.2.2,60.00261611477362,2025-11-09 16h10.31.902484 +0530,
,Objects\001a.jpg,57,0,57,,,,,,,f,1.3082772999914596,0.20178230000601616,None,,,,,,,57,0,57,0,364.01262219999626,,,,,,,,,,,,,,,,,,,,,,,363.9963831999921,364.01262219999626,364.5125712000008,364.4960565999936,,,,,,,,,,,,,,,,,,,,,,,,,,364.5068945999956,364.5125712000008,364.5125712000008,364.5125712000008,367.49619459999667,shoe,f,1.3082772999914596,0.20178230000601616,367.4962289999967,367.4962372000009,None,367.5125060999999,367.5125060999999,367.5125060999999,,,,,,,,,,,,,,00023,001,2025-11-09_16h10.25.535,MST_task,2024.2.2,60.00261611477362,2025-11-09 16h10.31.902484 +0530,
,Objects\158a.jpg,58,0,58,,,,,,,f,1.2798012999992352,0.18794710001384374,None,,,,,,,58,0,58,0,367.5125060999999,,,,,,,,,,,,,,,,,,,,,,,367.4962891000032,367.5125060999999,368.01251810000394,367.9959896999935,,,,,,,,,,,,,,,,,,,,,,,,,,368.00415399999474,368.01251810000394,368.01251810000394,368.01251810000394,370.9961430999974,shoe,f,1.2798012999992352,0.18794710001384374,370.99617549999675,370.99618349999946,None,371.0124536999938,371.0124536999938,371.0124536999938,,,,,,,,,,,,,,00023,001,2025-11-09_16h10.25.535,MST_task,2024.2.2,60.00261611477362,2025-11-09 16h10.31.902484 +0530,
,Objects\029a.jpg,59,0,59,,,,,,,f,0.8944878999900538,0.1782759000052465,None,,,,,,,59,0,59,0,371.0124536999938,,,,,,,,,,,,,,,,,,,,,,,370.9962627999921,371.0124536999938,371.51242020000063,371.49594900000375,,,,,,,,,,,,,,,,,,,,,,,,,,371.5035168000031,371.51242020000063,371.51242020000063,371.51242020000063,374.49598849999893,shoe,f,0.8944878999900538,0.1782759000052465,374.4960246999981,374.4960333999916,None,374.5123845999915,374.5123845999915,374.5123845999915,,,,,,,,,,,,,,00023,001,2025-11-09_16h10.25.535,MST_task,2024.2.2,60.00261611477362,2025-11-09 16h10.31.902484 +0530,
,Objects\170a.jpg,60,0,60,,,,,,,j,1.6365230000083102,0.21801569999661297,None,,,,,,,60,0,60,0,374.5123845999915,,,,,,,,,,,,,,,,,,,,,,,374.4961250000051,374.5123845999915,375.0123634000047,374.9959122,,,,,,,,,,,,,,,,,,,,,,,,,,375.00405760000285,375.0123634000047,375.0123634000047,375.0123634000047,377.9958920999925,shoe,j,1.6365230000083102,0.21801569999661297,377.995923399998,377.9959314000007,None,378.01228009999613,378.01228009999613,378.01228009999613,,,,,,,,,,,,,,00023,001,2025-11-09_16h10.25.535,MST_task,2024.2.2,60.00261611477362,2025-11-09 16h10.31.902484 +0530,
,Objects\293a.jpg,61,0,61,,,,,,,f,1.138366400002269,0.22406790000968613,None,,,,,,,61,0,61,0,378.01228009999613,,,,,,,,,,,,,,,,,,,,,,,377.9959841999953,378.01228009999613,378.51226170000155,378.4957804000005,,,,,,,,,,,,,,,,,,,,,,,,,,378.50534390000394,378.51226170000155,378.51226170000155,378.51226170000155,381.4958004999935,shoe,f,1.138366400002269,0.22406790000968613,381.49583839999104,381.4958467999968,None,381.5122368000011,381.5122368000011,381.5122368000011,,,,,,,,,,,,,,00023,001,2025-11-09_16h10.25.535,MST_task,2024.2.2,60.00261611477362,2025-11-09 16h10.31.902484 +0530,
,Objects\131a.jpg,62,0,62,,,,,,,f,1.6374336000008043,0.1780014999967534,None,,,,,,,62,0,62,0,381.5122368000011,,,,,,,,,,,,,,,,,,,,,,,381.4959041999973,381.5122368000011,382.0288637000049,381.9957706999994,,,,,,,,,,,,,,,,,,,,,,,,,,382.00818449999497,382.0288637000049,382.0288637000049,382.0288637000049,385.01231720000214,shoe,f,1.6374336000008043,0.1780014999967534,385.0123548999982,385.01236389999394,None,,,,,,,,,,,,,,,,,00023,001,2025-11-09_16h10.25.535,MST_task,2024.2.2,60.00261611477362,2025-11-09 16h10.31.902484 +0530,
,Objects\180a.jpg,63,0,63,,,,,,,f,2.13090160000138,0.20539119999739341,None,,,,,,,63,0,63,0,385.0288297999941,,,,,,,,,,,,,,,,,,,,,,,385.012424799992,385.0288297999941,385.528413299995,385.51243930000055,,,,,,,,,,,,,,,,,,,,,,,,,,385.52272890000313,385.528413299995,385.528413299995,385.528413299995,388.5125767999998,indoor,f,2.13090160000138,0.20539119999739341,388.513792999991,388.51380359999894,None,388.5287554999959,388.5287554999959,388.5287554999959,,,,,,,,,,,,,,00023,001,2025-11-09_16h10.25.535,MST_task,2024.2.2,60.00261611477362,2025-11-09 16h10.31.902484 +0530,
,Objects\210a.jpg,64,0,64,,,,,,,j,1.268237299998873,0.18548430000373628,None,,,,,,,64,0,64,0,388.5287554999959,,,,,,,,,,,,,,,,,,,,,,,388.513856199992,388.5287554999959,389.0286972000031,389.0123051999981,,,,,,,,,,,,,,,,,,,,,,,,,,389.0224343000009,389.0286972000031,389.0286972000031,389.0286972000031,392.01227009999275,indoor,j,1.268237299998873,0.18548430000373628,392.0123078000033,392.01231639999605,None,392.0286733999965,392.0286733999965,392.0286733999965,,,,,,,,,,,,,,00023,001,2025-11-09_16h10.25.535,MST_task,2024.2.2,60.00261611477362,2025-11-09 16h10.31.902484 +0530,
,Objects\195a.jpg,65,0,65,,,,,,,j,2.151701900002081,0.14996539999265224,None,,,,,,,65,0,65,0,392.0286733999965,,,,,,,,,,,,,,,,,,,,,,,392.0123733999935,392.0286733999965,392.5286272999947,392.5121996999951,,,,,,,,,,,,,,,,,,,,,,,,,,392.5228191999922,392.5286272999947,392.5286272999947,392.5286272999947,395.5121298000013,indoor,j,2.151701900002081,0.14996539999265224,395.5121669999935,395.5121756000008,None,395.5285998000036,395.5285998000036,395.5285998000036,,,,,,,,,,,,,,00023,001,2025-11-09_16h10.25.535,MST_task,2024.2.2,60.00261611477362,2025-11-09 16h10.31.902484 +0530,
,Objects\235a.jpg,66,0,66,,,,,,,f,1.9647393000050215,0.2177938999957405,None,,,,,,,66,0,66,0,395.5285998000036,,,,,,,,,,,,,,,,,,,,,,,395.5122268999985,395.5285998000036,396.0285492999974,396.0121553999925,,,,,,,,,,,,,,,,,,,,,,,,,,396.02290759999596,396.0285492999974,396.0285492999974,396.0285492999974,399.0121037999925,indoor,f,1.9647393000050215,0.2177938999957405,399.01213960000314,399.0121475000051,None,399.0285214000032,399.0285214000032,399.0285214000032,,,,,,,,,,,,,,00023,001,2025-11-09_16h10.25.535,MST_task,2024.2.2,60.00261611477362,2025-11-09 16h10.31.902484 +0530,
,Objects\037a.jpg,67,0,67,,,,,,,f,2.7462260000029346,0.1820830000069691,None,,,,,,,67,0,67,0,399.0285214000032,,,,,,,,,,,,,,,,,,,,,,,399.01219979999587,399.0285214000032,399.52810319999116,399.51211630000034,,,,,,,,,,,,,,,,,,,,,,,,,,399.52334159999737,399.52810319999116,399.52810319999116,399.52810319999116,402.51195309999457,indoor,f,2.7462260000029346,0.1820830000069691,402.51198640000075,402.511994600005,None,402.528444399999,402.528444399999,402.528444399999,,,,,,,,,,,,,,00023,001,2025-11-09_16h10.25.535,MST_task,2024.2.2,60.00261611477362,2025-11-09 16h10.31.902484 +0530,
,Objects\002a.jpg,68,0,68,,,,,,,None,,,j,0.08653149999736343,None,,,,,68,0,68,0,402.528444399999,,,,,,,,,,,,,,,,,,,,,,,402.5120443000051,402.528444399999,403.0284482999996,403.0119803999987,,,,,,,,,,,,,,,,,,,,,,,,,,403.01986259999103,403.0284482999996,403.0284482999996,403.0284482999996,406.011997900001,indoor,None,,,406.012029599995,406.1287510999973,j,406.0283739000006,406.0283739000006,406.0283739000006,406.0283739000006,406.0283739000006,0.08653149999736343,None,,,,,,,,,,00023,001,2025-11-09_16h10.25.535,MST_task,2024.2.2,60.00261611477362,2025-11-09 16h10.31.902484 +0530,
,Objects\289a.jpg,69,0,69,,,,,,,j,1.0669593999919016,0.1500949000037508,None,,,,,,,69,0,69,0,406.1450343000033,,,,,,,,,,,,,,,,,,,,,,,406.12881209999614,406.1450343000033,406.64510910000536,406.62873630000104,,,,,,,,,,,,,,,,,,,,,,,,,,406.63986179999483,406.64510910000536,406.64510910000536,406.64510910000536,409.62850560000516,indoor,j,1.0669593999919016,0.1500949000037508,409.62853819999145,409.6285468999995,None,409.6449541000038,409.6449541000038,409.6449541000038,,,,,,,,,,,,,,00023,001,2025-11-09_16h10.25.535,MST_task,2024.2.2,60.00261611477362,2025-11-09 16h10.31.902484 +0530,
,Objects\007a.jpg,70,0,70,,,,,,,f,2.227409400002216,0.21928099999786355,None,,,,,,,70,0,70,0,409.6449541000038,,,,,,,,,,,,,,,,,,,,,,,409.6286005000002,409.6449541000038,410.1615882000042,410.12853760000144,,,,,,,,,,,,,,,,,,,,,,,,,,410.1411139999982,410.1615882000042,410.1615882000042,410.1615882000042,413.1449313000048,shoe,f,2.227409400002216,0.21928099999786355,413.14646989999164,413.14648110000417,None,,,,,,,,,,,,,,,,,00023,001,2025-11-09_16h10.25.535,MST_task,2024.2.2,60.00261611477362,2025-11-09 16h10.31.902484 +0530,
,Objects\015a.jpg,71,0,71,,,,,,,None,,,f,0.3794540999952005,None,,,,,71,0,71,0,413.1615504999936,,,,,,,,,,,,,,,,,,,,,,,413.1465384000039,413.1615504999936,413.6615019000019,413.6451412000024,,,,,,,,,,,,,,,,,,,,,,,,,,413.6532090999972,413.6615019000019,413.6615019000019,413.6615019000019,416.6450756999984,shoe,None,,,416.6451078999962,417.0451702999999,f,416.66146819999267,416.66146819999267,416.66146819999267,416.66146819999267,416.66146819999267,0.3794540999952005,None,,,,,,,,,,00023,001,2025-11-09_16h10.25.535,MST_task,2024.2.2,60.00261611477362,2025-11-09 16h10.31.902484 +0530,
,Objects\033a.jpg,72,0,72,,,,,,,f,1.1874050999904284,0.17351649999909569,None,,,,,,,72,0,72,0,417.0614895000035,,,,,,,,,,,,,,,,,,,,,,,417.04526529999566,417.0614895000035,417.56141739999293,417.54506180000317,,,,,,,,,,,,,,,,,,,,,,,,,,417.55267069999536,417.56141739999293,417.56141739999293,417.56141739999293,420.5450101000024,shoe,f,1.1874050999904284,0.17351649999909569,420.5450459999993,420.5450547999935,None,420.5613905999926,420.5613905999926,420.5613905999926,,,,,,,,,,,,,,00023,001,2025-11-09_16h10.25.535,MST_task,2024.2.2,60.00261611477362,2025-11-09 16h10.31.902484 +0530,
,Objects\227a.jpg,73,0,73,,,,,,,f,1.8275594000006095,0.19765850000840146,None,,,,,,,73,0,73,0,420.5613905999926,,,,,,,,,,,,,,,,,,,,,,,420.545111799991,420.5613905999926,421.06133929999487,421.0448752999946,,,,,,,,,,,,,,,,,,,,,,,,,,421.0555652000039,421.06133929999487,421.06133929999487,421.06133929999487,424.044865399992,shoe,f,1.8275594000006095,0.19765850000840146,424.04489950000425,424.0449072999909,None,424.06129850000434,424.06129850000434,424.06129850000434,,,,,,,,,,,,,,00023,001,2025-11-09_16h10.25.535,MST_task,2024.2.2,60.00261611477362,2025-11-09 16h10.31.902484 +0530,
,Objects\257a.jpg,74,0,74,,,,,,,f,2.261871399998199,0.1974292999948375,None,,,,,,,74,0,74,0,424.06129850000434,,,,,,,,,,,,,,,,,,,,,,,424.04495779999706,424.06129850000434,424.5612611999968,424.54480570000305,,,,,,,,,,,,,,,,,,,,,,,,,,424.5550602000003,424.5612611999968,424.5612611999968,424.5612611999968,427.54484079999384,shoe,f,2.261871399998199,0.1974292999948375,427.5448799000005,427.5448888999963,None,427.56123809999553,427.56123809999553,427.56123809999553,,,,,,,,,,,,,,00023,001,2025-11-09_16h10.25.535,MST_task,2024.2.2,60.00261611477362,2025-11-09 16h10.31.902484 +0530,
,Objects\006a.jpg,75,0,75,,,,,,,f,2.313933099998394,0.20372499999939464,None,,,,,,,75,0,75,0,427.56123809999553,,,,,,,,,,,,,,,,,,,,,,,427.54494920000434,427.56123809999553,428.0611838000041,428.0447409000044,,,,,,,,,,,,,,,,,,,,,,,,,,428.0557994999981,428.0611838000041,428.0611838000041,428.0611838000041,431.04474329999357,shoe,f,2.313933099998394,0.20372499999939464,431.0447831999918,431.0447920000006,None,431.0611521999963,431.0611521999963,431.0611521999963,,,,,,,,,,,,,,00023,001,2025-11-09_16h10.25.535,MST_task,2024.2.2,60.00261611477362,2025-11-09 16h10.31.902484 +0530,
,Objects\070a.jpg,76,0,76,,,,,,,f,1.1813098000129685,0.20309009999618866,None,,,,,,,76,0,76,0,431.0611521999963,,,,,,,,,,,,,,,,,,,,,,,431.04487450000306,431.0611521999963,431.5611102999974,431.54474460000347,,,,,,,,,,,,,,,,,,,,,,,,,,431.55253990000347,431.5611102999974,431.5611102999974,431.5611102999974,434.54467259999365,shoe,f,1.1813098000129685,0.20309009999618866,434.544708100002,434.5447179000039,None,434.5610793999949,434.5610793999949,434.5610793999949,,,,,,,,,,,,,,00023,001,2025-11-09_16h10.25.535,MST_task,2024.2.2,60.00261611477362,2025-11-09 16h10.31.902484 +0530,
,Objects\346a.jpg,77,0,77,,,,,,,f,2.4126741000072798,0.182709500004421,None,,,,,,,77,0,77,0,434.5610793999949,,,,,,,,,,,,,,,,,,,,,,,434.5447748000006,434.5610793999949,435.0777536999958,435.04470869999204,,,,,,,,,,,,,,,,,,,,,,,,,,435.0566666999948,435.0777536999958,435.0777536999958,435.0777536999958,438.06114669999806,indoor,f,2.4126741000072798,0.182709500004421,438.0624605000048,438.0624724999943,None,,,,,,,,,,,,,,,,,00023,001,2025-11-09_16h10.25.535,MST_task,2024.2.2,60.00261611477362,2025-11-09 16h10.31.902484 +0530,
,Objects\343a.jpg,78,0,78,,,,,,,f,2.9035126000089804,None,None,,,,,,,78,0,78,0,438.0776496000035,,,,,,,,,,,,,,,,,,,,,,,438.0625244999974,438.0776496000035,438.5776199999964,438.5612579000008,,,,,,,,,,,,,,,,,,,,,,,,,,438.57032590000017,438.5776199999964,438.5776199999964,438.5776199999964,441.5612967000052,indoor,f,2.9035126000089804,None,441.56133519999275,441.56134349999775,None,441.57759230000374,441.57759230000374,441.57759230000374,,,,,,,,,,,,,,00023,001,2025-11-09_16h10.25.535,MST_task,2024.2.2,60.00261611477362,2025-11-09 16h10.31.902484 +0530,
,Objects\302a.jpg,79,0,79,,,,,,,f,2.2060243000014452,0.21272229999885894,None,,,,,,,79,0,79,0,441.57759230000374,,,,,,,,,,,,,,,,,,,,,,,441.56139429999166,441.57759230000374,442.0942492000031,442.06132579999394,,,,,,,,,,,,,,,,,,,,,,,,,,442.0741313000035,442.0942492000031,442.0942492000031,442.0942492000031,445.07754769999883,indoor,f,2.2060243000014452,0.21272229999885894,445.0775837999972,445.07759289999376,None,,,,,,,,,,,,,,,,,00023,001,2025-11-09_16h10.25.535,MST_task,2024.2.2,60.00261611477362,2025-11-09 16h10.31.902484 +0530,
,Objects\003a.jpg,80,0,80,,,,,,,j,1.2801460000046063,0.2754296999919461,None,,,,,,,80,0,80,0,445.09417609999946,,,,,,,,,,,,,,,,,,,,,,,445.0776524999965,445.09417609999946,445.6108052999916,445.57766229999834,,,,,,,,,,,,,,,,,,,,,,,,,,445.5899411999999,445.6108052999916,445.6108052999916,445.6108052999916,448.5941344000021,indoor,j,1.2801460000046063,0.2754296999919461,448.5941692000051,448.5941896000004,None,,,,,,,,,,,,,,,,,00023,001,2025-11-09_16h10.25.535,MST_task,2024.2.2,60.00261611477362,2025-11-09 16h10.31.902484 +0530,
,Objects\374a.jpg,81,0,81,,,,,,,j,1.2198274999973364,0.14993450000474695,None,,,,,,,81,0,81,0,448.6107794999989,,,,,,,,,,,,,,,,,,,,,,,448.5942495000054,448.6107794999989,449.1107378000015,449.0942776000011,,,,,,,,,,,,,,,,,,,,,,,,,,449.1053496999957,449.1107378000015,449.1107378000015,449.1107378000015,452.0943709999992,indoor,j,1.2198274999973364,0.14993450000474695,452.09440729999915,452.0944154000026,None,452.11074299999746,452.11074299999746,452.11074299999746,,,,,,,,,,,,,,00023,001,2025-11-09_16h10.25.535,MST_task,2024.2.2,60.00261611477362,2025-11-09 16h10.31.902484 +0530,
,Objects\230a.jpg,82,0,82,,,,,,,j,1.0044729999935953,0.16974510000727605,None,,,,,,,82,0,82,0,452.11074299999746,,,,,,,,,,,,,,,,,,,,,,,452.0944695999933,452.11074299999746,452.6106562999921,452.5944127999974,,,,,,,,,,,,,,,,,,,,,,,,,,452.60526499999105,452.6106562999921,452.6106562999921,452.6106562999921,455.5942783999926,indoor,j,1.0044729999935953,0.16974510000727605,455.5943145999918,455.5943225999945,None,455.61062479999964,455.61062479999964,455.61062479999964,,,,,,,,,,,,,,00023,001,2025-11-09_16h10.25.535,MST_task,2024.2.2,60.00261611477362,2025-11-09 16h10.31.902484 +0530,
,Objects\019a.jpg,83,0,83,,,,,,,None,,,f,0.38185170000360813,None,,,,,83,0,83,0,455.61062479999964,,,,,,,,,,,,,,,,,,,,,,,455.5943772000028,455.61062479999964,456.11049679999996,456.0942197999975,,,,,,,,,,,,,,,,,,,,,,,,,,456.1053375000047,456.11049679999996,456.11049679999996,456.11049679999996,459.09424999999464,indoor,None,,,459.094279500001,459.49420149999787,f,459.1105477999954,459.1105477999954,459.1105477999954,459.1105477999954,459.1105477999954,0.38185170000360813,None,,,,,,,,,,00023,001,2025-11-09_16h10.25.535,MST_task,2024.2.2,60.00261611477362,2025-11-09 16h10.31.902484 +0530,
,Objects\348a.jpg,84,0,84,,,,,,,None,,,f,0.18326419999357313,None,,,,,84,0,84,0,459.51054119999753,,,,,,,,,,,,,,,,,,,,,,,459.49427899999137,459.51054119999753,460.0272013999929,459.9940767999942,,,,,,,,,,,,,,,,,,,,,,,,,,460.0059703000006,460.0272013999929,460.0272013999929,460.0272013999929,463.01045760000125,shoe,None,,,463.0119654000009,463.2108373999945,f,,,,463.02712279999105,463.02712279999105,0.18326419999357313,None,,,,,,,,,,00023,001,2025-11-09_16h10.25.535,MST_task,2024.2.2,60.00261611477362,2025-11-09 16h10.31.902484 +0530,
,Objects\250a.jpg,85,0,85,,,,,,,None,,,f,4.154437500008498,None,,,,,85,0,85,0,463.2271383000043,,,,,,,,,,,,,,,,,,,,,,,463.2109055000037,463.2271383000043,463.7270841999998,463.71059639999294,,,,,,,,,,,,,,,,,,,,,,,,,,463.72061499999836,463.7270841999998,463.7270841999998,463.7270841999998,466.71061069999996,shoe,None,,,466.71064099999785,470.89403239999956,f,466.7270553999988,466.7270553999988,466.7270553999988,466.7270553999988,466.7270553999988,4.154437500008498,None,,,,,,,,,,00023,001,2025-11-09_16h10.25.535,MST_task,2024.2.2,60.00261611477362,2025-11-09 16h10.31.902484 +0530,
,Objects\273a.jpg,86,0,86,,,,,,,j,2.5105937000043923,0.14985539999906905,None,,,,,,,86,0,86,0,470.910297800001,,,,,,,,,,,,,,,,,,,,,,,470.89410489999864,470.910297800001,471.4098653999972,471.3937501000037,,,,,,,,,,,,,,,,,,,,,,,,,,471.4045938999916,471.4098653999972,471.4098653999972,471.4098653999972,474.39390229999844,shoe,j,2.5105937000043923,0.14985539999906905,474.3939357999916,474.3939439999958,None,474.4102275000041,474.4102275000041,474.4102275000041,,,,,,,,,,,,,,00023,001,2025-11-09_16h10.25.535,MST_task,2024.2.2,60.00261611477362,2025-11-09 16h10.31.902484 +0530,
,Objects\310a.jpg,87,0,87,,,,,,,f,2.307564100003219,0.1939218999905279,None,,,,,,,87,0,87,0,474.4102275000041,,,,,,,,,,,,,,,,,,,,,,,474.393994500002,474.4102275000041,474.90979039999365,474.89376219999394,,,,,,,,,,,,,,,,,,,,,,,,,,474.9043341999932,474.90979039999365,474.90979039999365,474.90979039999365,477.893823099992,shoe,f,2.307564100003219,0.1939218999905279,477.89385979999497,477.8938676999969,None,477.9102334000054,477.9102334000054,477.9102334000054,,,,,,,,,,,,,,00023,001,2025-11-09_16h10.25.535,MST_task,2024.2.2,60.00261611477362,2025-11-09 16h10.31.902484 +0530,
,Objects\327a.jpg,88,0,88,,,,,,,j,1.779397100006463,0.19797660000040196,None,,,,,,,88,0,88,0,477.9102334000054,,,,,,,,,,,,,,,,,,,,,,,477.89392339999904,477.9102334000054,478.4097594999912,478.393920100003,,,,,,,,,,,,,,,,,,,,,,,,,,478.4047489999939,478.4097594999912,478.4097594999912,478.4097594999912,481.39367140000104,shoe,j,1.779397100006463,0.19797660000040196,481.3937048999942,481.39371299999766,None,481.4101510000037,481.4101510000037,481.4101510000037,,,,,,,,,,,,,,00023,001,2025-11-09_16h10.25.535,MST_task,2024.2.2,60.00261611477362,2025-11-09 16h10.31.902484 +0530,
,Objects\192a.jpg,89,0,89,,,,,,,f,2.863218600003165,None,None,,,,,,,89,0,89,0,481.4101510000037,,,,,,,,,,,,,,,,,,,,,,,481.3937663999968,481.4101510000037,481.90968270000303,481.89375380000274,,,,,,,,,,,,,,,,,,,,,,,,,,481.90458649999346,481.90968270000303,481.90968270000303,481.90968270000303,484.89383980000275,shoe,f,2.863218600003165,None,484.8938737999997,484.8938818000024,None,484.9101057999942,484.9101057999942,484.9101057999942,,,,,,,,,,,,,,00023,001,2025-11-09_16h10.25.535,MST_task,2024.2.2,60.00261611477362,2025-11-09 16h10.31.902484 +0530,
,Objects\338a.jpg,90,0,90,,,,,,,f,1.1407988999999361,0.19337149999046233,None,,,,,,,90,0,90,0,484.9101057999942,,,,,,,,,,,,,,,,,,,,,,,484.89393160000327,484.9101057999942,485.41030659999524,485.39363589999266,,,,,,,,,,,,,,,,,,,,,,,,,,485.4040876999934,485.41030659999524,485.41030659999524,485.41030659999524,488.39352179999696,shoe,f,1.1407988999999361,0.19337149999046233,488.39355920000526,488.3935671999934,None,488.41004459999385,488.41004459999385,488.41004459999385,,,,,,,,,,,,,,00023,001,2025-11-09_16h10.25.535,MST_task,2024.2.2,60.00261611477362,2025-11-09 16h10.31.902484 +0530,
,Objects\246a.jpg,91,0,91,,,,,,,f,0.9978928000055021,0.20203000000037719,None,,,,,,,91,0,91,0,488.41004459999385,,,,,,,,,,,,,,,,,,,,,,,488.3936202000041,488.41004459999385,488.9266879999923,488.8934433999966,,,,,,,,,,,,,,,,,,,,,,,,,,488.9051044999942,488.9266879999923,488.9266879999923,488.9266879999923,491.90992940000433,indoor,f,0.9978928000055021,0.20203000000037719,491.9113381999923,491.91135049999866,None,,,,,,,,,,,,,,,,,00023,001,2025-11-09_16h10.25.535,MST_task,2024.2.2,60.00261611477362,2025-11-09 16h10.31.902484 +0530,
,Objects\106a.jpg,92,0,92,,,,,,,f,2.0779449999972712,0.20986420000554062,None,,,,,,,92,0,92,0,491.9266298000002,,,,,,,,,,,,,,,,,,,,,,,491.91140499999165,491.9266298000002,492.4266098999942,492.41007260000333,,,,,,,,,,,,,,,,,,,,,,,,,,492.41736839999794,492.4266098999942,492.4266098999942,492.4266098999942,495.4100447999954,indoor,f,2.0779449999972712,0.20986420000554062,495.4100766999909,495.41008459999284,None,495.4265333999938,495.4265333999938,495.4265333999938,,,,,,,,,,,,,,00023,001,2025-11-09_16h10.25.535,MST_task,2024.2.2,60.00261611477362,2025-11-09 16h10.31.902484 +0530,
,Objects\101a.jpg,93,0,93,,,,,,,f,2.516144399996847,0.21072660000936594,None,,,,,,,93,0,93,0,495.4265333999938,,,,,,,,,,,,,,,,,,,,,,,495.4101398999919,495.4265333999938,495.9264958999993,495.9100192000042,,,,,,,,,,,,,,,,,,,,,,,,,,495.91747430000396,495.9264958999993,495.9264958999993,495.9264958999993,498.9100325000036,indoor,f,2.516144399996847,0.21072660000936594,498.9100696999958,498.91007810000156,None,498.92643930000486,498.92643930000486,498.92643930000486,,,,,,,,,,,,,,00023,001,2025-11-09_16h10.25.535,MST_task,2024.2.2,60.00261611477362,2025-11-09 16h10.31.902484 +0530,
,Objects\341a.jpg,94,0,94,,,,,,,None,,,j,0.1374993000063114,None,,,,,94,0,94,0,498.92643930000486,,,,,,,,,,,,,,,,,,,,,,,498.9101307999954,498.92643930000486,499.4264659000037,499.41007679999166,,,,,,,,,,,,,,,,,,,,,,,,,,499.4176620999933,499.4264659000037,499.4264659000037,499.4264659000037,502.4099406000023,indoor,None,,,502.4099730000016,502.57660299999407,j,502.4263481999951,502.4263481999951,502.4263481999951,502.4263481999951,502.4263481999951,0.1374993000063114,None,,,,,,,,,,00023,001,2025-11-09_16h10.25.535,MST_task,2024.2.2,60.00261611477362,2025-11-09 16h10.31.902484 +0530,
,Objects\018a.jpg,95,0,95,,,,,,,j,1.3464658000011696,0.19731170000159182,None,,,,,,,95,0,95,0,502.59302839999145,,,,,,,,,,,,,,,,,,,,,,,502.5766705999995,502.59302839999145,503.09298259999196,503.0766881000018,,,,,,,,,,,,,,,,,,,,,,,,,,503.08577309999964,503.09298259999196,503.09298259999196,503.09298259999196,506.0766047999932,indoor,j,1.3464658000011696,0.19731170000159182,506.07664519999526,506.07665439999255,None,506.0929419000022,506.0929419000022,506.0929419000022,,,,,,,,,,,,,,00023,001,2025-11-09_16h10.25.535,MST_task,2024.2.2,60.00261611477362,2025-11-09 16h10.31.902484 +0530,
,Objects\304a.jpg,96,0,96,,,,,,,j,2.199158700008411,0.17822199998772703,None,,,,,,,96,0,96,0,506.0929419000022,,,,,,,,,,,,,,,,,,,,,,,506.0767105999985,506.0929419000022,506.6095178999967,506.5763475999993,,,,,,,,,,,,,,,,,,,,,,,,,,506.58895039999334,506.6095178999967,506.6095178999967,506.6095178999967,509.59292229999846,indoor,j,2.199158700008411,0.17822199998772703,509.59296399999585,509.5929729000054,None,,,,,,,,,,,,,,,,,00023,001,2025-11-09_16h10.25.535,MST_task,2024.2.2,60.00261611477362,2025-11-09 16h10.31.902484 +0530,
,Objects\110a.jpg,97,0,97,,,,,,,None,,,j,1.2510329999931855,None,,,,,97,0,97,0,509.60945039999206,,,,,,,,,,,,,,,,,,,,,,,509.5930301000044,509.60945039999206,510.1093306999974,510.0930365999957,,,,,,,,,,,,,,,,,,,,,,,,,,510.1042002000031,510.1093306999974,510.1093306999974,510.1093306999974,513.0929427999945,indoor,None,,,513.0929748000053,514.3764499999961,j,513.1093823999981,513.1093823999981,513.1093823999981,513.1093823999981,513.1093823999981,1.2510329999931855,None,,,,,,,,,,00023,001,2025-11-09_16h10.25.535,MST_task,2024.2.2,60.00261611477362,2025-11-09 16h10.31.902484 +0530,
,Objects\384a.jpg,98,0,98,,,,,,,f,1.5263171999977203,0.24791340000228956,None,,,,,,,98,0,98,0,514.3926821999921,,,,,,,,,,,,,,,,,,,,,,,514.3765332000039,514.3926821999921,514.892635199998,514.8761587000045,,,,,,,,,,,,,,,,,,,,,,,,,,514.8861903999932,514.892635199998,514.892635199998,514.892635199998,517.8761980999989,shoe,f,1.5263171999977203,0.24791340000228956,517.8777331000019,517.8777441999991,None,517.8925797999982,517.8925797999982,517.8925797999982,,,,,,,,,,,,,,00023,001,2025-11-09_16h10.25.535,MST_task,2024.2.2,60.00261611477362,2025-11-09 16h10.31.902484 +0530,
,Objects\361a.jpg,99,0,99,,,,,,,j,1.4587827999930596,0.17369769999640994,None,,,,,,,99,0,99,0,517.8925797999982,,,,,,,,,,,,,,,,,,,,,,,517.8777976999991,517.8925797999982,518.3925652000034,518.3760964999965,,,,,,,,,,,,,,,,,,,,,,,,,,518.3839731000044,518.3925652000034,518.3925652000034,518.3925652000034,521.3761477999942,shoe,j,1.4587827999930596,0.17369769999640994,521.376191000003,521.3762000999996,None,521.3925378999993,521.3925378999993,521.3925378999993,,,,,,,,,,,,,,00023,001,2025-11-09_16h10.25.535,MST_task,2024.2.2,60.00261611477362,2025-11-09 16h10.31.902484 +0530,
,Objects\163a.jpg,100,0,100,,,,,,,j,2.302002500000526,0.19889719999628142,None,,,,,,,100,0,100,0,521.3925378999993,,,,,,,,,,,,,,,,,,,,,,,521.3762919000001,521.3925378999993,521.8924923000013,521.8760693999939,,,,,,,,,,,,,,,,,,,,,,,,,,521.8839971999987,521.8924923000013,521.8924923000013,521.8924923000013,524.876134399994,shoe,j,2.302002500000526,0.19889719999628142,524.8761717000016,524.8761797000043,None,524.8924554999976,524.8924554999976,524.8924554999976,,,,,,,,,,,,,,00023,001,2025-11-09_16h10.25.535,MST_task,2024.2.2,60.00261611477362,2025-11-09 16h10.31.902484 +0530,
,Objects\099a.jpg,101,0,101,,,,,,,j,1.8539475000143284,0.17860789998667315,None,,,,,,,101,0,101,0,524.8924554999976,,,,,,,,,,,,,,,,,,,,,,,524.876233899995,524.8924554999976,525.3924723999953,525.3759283999971,,,,,,,,,,,,,,,,,,,,,,,,,,525.3839308000024,525.3924723999953,525.3924723999953,525.3924723999953,528.3759428000049,shoe,j,1.8539475000143284,0.17860789998667315,528.375975899995,528.3759837999969,None,528.3923810999986,528.3923810999986,528.3923810999986,,,,,,,,,,,,,,00023,001,2025-11-09_16h10.25.535,MST_task,2024.2.2,60.00261611477362,2025-11-09 16h10.31.902484 +0530,
,Objects\179a.jpg,102,0,102,,,,,,,f,1.0747170000104234,0.19842629999038763,None,,,,,,,102,0,102,0,528.3923810999986,,,,,,,,,,,,,,,,,,,,,,,528.3760351999954,528.3923810999986,528.8923978999956,528.8758576999971,,,,,,,,,,,,,,,,,,,,,,,,,,528.883316099993,528.8923978999956,528.8923978999956,528.8923978999956,531.8759390999912,shoe,f,1.0747170000104234,0.19842629999038763,531.8759745999996,531.8759828000038,None,531.8922948999971,531.8922948999971,531.8922948999971,,,,,,,,,,,,,,00023,001,2025-11-09_16h10.25.535,MST_task,2024.2.2,60.00261611477362,2025-11-09 16h10.31.902484 +0530,
,Objects\049a.jpg,103,0,103,,,,,,,f,1.0263169999961974,0.264148500005831,None,,,,,,,103,0,103,0,531.8922948999971,,,,,,,,,,,,,,,,,,,,,,,531.8760657999956,531.8922948999971,532.3922864000051,532.3758999999991,,,,,,,,,,,,,,,,,,,,,,,,,,532.3838156999991,532.3922864000051,532.3922864000051,532.3922864000051,535.3757897000032,shoe,f,1.0263169999961974,0.264148500005831,535.3758259000024,535.3758344999951,None,535.3922386999911,535.3922386999911,535.3922386999911,,,,,,,,,,,,,,00023,001,2025-11-09_16h10.25.535,MST_task,2024.2.2,60.00261611477362,2025-11-09 16h10.31.902484 +0530,
,Objects\211a.jpg,104,0,104,,,,,,,None,,,j,0.19734220000100322,None,,,,,104,0,104,0,535.3922386999911,,,,,,,,,,,,,,,,,,,,,,,535.3758869000012,535.3922386999911,535.8918774999911,535.8757225000008,,,,,,,,,,,,,,,,,,,,,,,,,,535.8861489999981,535.8918774999911,535.8918774999911,535.8918774999911,538.8758116999961,shoe,None,,,538.8758469000022,539.0926535000035,j,538.8921495999966,538.8921495999966,538.8921495999966,538.8921495999966,538.8921495999966,0.19734220000100322,None,,,,,,,,,,00023,001,2025-11-09_16h10.25.535,MST_task,2024.2.2,60.00261611477362,2025-11-09 16h10.31.902484 +0530,
,Objects\319a.jpg,105,0,105,,,,,,,f,2.132956900008139,0.24446969998825807,None,,,,,,,105,0,105,0,539.1088162999949,,,,,,,,,,,,,,,,,,,,,,,539.092724400005,539.1088162999949,539.6254601999972,539.5922961000033,,,,,,,,,,,,,,,,,,,,,,,,,,539.6041827000008,539.6254601999972,539.6254601999972,539.6254601999972,542.6087834999926,indoor,f,2.132956900008139,0.24446969998825807,542.6101266000042,542.6101387999952,None,,,,,,,,,,,,,,,,,00023,001,2025-11-09_16h10.25.535,MST_task,2024.2.2,60.00261611477362,2025-11-09 16h10.31.902484 +0530,
,Objects\194a.jpg,106,0,106,,,,,,,f,0.926091200002702,0.18564579999656416,None,,,,,,,106,0,106,0,542.6253586999956,,,,,,,,,,,,,,,,,,,,,,,542.6101917999913,542.6253586999956,543.1254131000023,543.1089455000038,,,,,,,,,,,,,,,,,,,,,,,,,,543.1188900999987,543.1254131000023,543.1254131000023,543.1254131000023,546.1089622,indoor,f,0.926091200002702,0.18564579999656416,546.1089954000054,546.1090055999957,None,546.1253266999993,546.1253266999993,546.1253266999993,,,,,,,,,,,,,,00023,001,2025-11-09_16h10.25.535,MST_task,2024.2.2,60.00261611477362,2025-11-09 16h10.31.902484 +0530,
,Objects\382a.jpg,107,0,107,,,,,,,j,2.574205900004017,0.1739912000048207,None,,,,,,,107,0,107,0,546.1253266999993,,,,,,,,,,,,,,,,,,,,,,,546.1090588999941,546.1253266999993,546.6249021999975,546.6088005999918,,,,,,,,,,,,,,,,,,,,,,,,,,546.6197507000034,546.6249021999975,546.6249021999975,546.6249021999975,549.6088663999981,indoor,j,2.574205900004017,0.1739912000048207,549.6089012000011,549.6089091000031,None,549.6253975,549.6253975,549.6253975,,,,,,,,,,,,,,00023,001,2025-11-09_16h10.25.535,MST_task,2024.2.2,60.00261611477362,2025-11-09 16h10.31.902484 +0530,
,Objects\130a.jpg,108,0,108,,,,,,,f,2.2154938000021502,0.20628660000511445,None,,,,,,,108,0,108,0,549.6253975,,,,,,,,,,,,,,,,,,,,,,,549.6089614999946,549.6253975,550.1248553000041,550.1088851999957,,,,,,,,,,,,,,,,,,,,,,,,,,550.1198119000037,550.1248553000041,550.1248553000041,550.1248553000041,553.1087718000053,indoor,f,2.2154938000021502,0.20628660000511445,553.1088107999967,553.1088197999925,None,553.125177199996,553.125177199996,553.125177199996,,,,,,,,,,,,,,00023,001,2025-11-09_16h10.25.535,MST_task,2024.2.2,60.00261611477362,2025-11-09 16h10.31.902484 +0530,
,Objects\274a.jpg,109,0,109,,,,,,,j,1.477868000001763,0.22423069999786094,None,,,,,,,109,0,109,0,553.125177199996,,,,,,,,,,,,,,,,,,,,,,,553.1088779999991,553.125177199996,553.6251502999949,553.6086953999911,,,,,,,,,,,,,,,,,,,,,,,,,,553.6167882000009,553.6251502999949,553.6251502999949,553.6251502999949,556.6086759000027,indoor,j,1.477868000001763,0.22423069999786094,556.608711199995,556.6087189999962,None,556.6250966999942,556.6250966999942,556.6250966999942,,,,,,,,,,,,,,00023,001,2025-11-09_16h10.25.535,MST_task,2024.2.2,60.00261611477362,2025-11-09 16h10.31.902484 +0530,
,Objects\354a.jpg,110,0,110,,,,,,,None,,,f,0.41768430000229273,None,,,,,110,0,110,0,556.6250966999942,,,,,,,,,,,,,,,,,,,,,,,556.6087732000015,556.6250966999942,557.1246859999956,557.1085690000036,,,,,,,,,,,,,,,,,,,,,,,,,,557.1182047000038,557.1246859999956,557.1246859999956,557.1246859999956,560.1087287999981,indoor,None,,,560.108762799995,560.5586714999954,f,560.125033999997,560.125033999997,560.125033999997,560.125033999997,560.125033999997,0.41768430000229273,None,,,,,,,,,,00023,001,2025-11-09_16h10.25.535,MST_task,2024.2.2,60.00261611477362,2025-11-09 16h10.31.902484 +0530,
,Objects\084a.jpg,111,0,111,,,,,,,f,2.176195899999584,0.213804800005164,None,,,,,,,111,0,111,0,560.5750106999913,,,,,,,,,,,,,,,,,,,,,,,560.5587432000029,560.5750106999913,561.0749704000045,561.0585333000054,,,,,,,,,,,,,,,,,,,,,,,,,,561.069559399999,561.0749704000045,561.0749704000045,561.0749704000045,564.0585229999997,indoor,f,2.176195899999584,0.213804800005164,564.0585588999966,564.0585671000008,None,564.0750067000045,564.0750067000045,564.0750067000045,,,,,,,,,,,,,,00023,001,2025-11-09_16h10.25.535,MST_task,2024.2.2,60.00261611477362,2025-11-09 16h10.31.902484 +0530,
,Objects\138a.jpg,112,0,112,,,,,,,j,2.739902700006496,0.1935735000006389,None,,,,,,,112,0,112,0,564.0750067000045,,,,,,,,,,,,,,,,,,,,,,,564.058621499993,564.0750067000045,564.5748906999943,564.5584147000045,,,,,,,,,,,,,,,,,,,,,,,,,,564.5690961999935,564.5748906999943,564.5748906999943,564.5748906999943,567.5584247999941,shoe,j,2.739902700006496,0.1935735000006389,567.5599924999988,567.5600082000019,None,567.5748324000015,567.5748324000015,567.5748324000015,,,,,,,,,,,,,,00023,001,2025-11-09_16h10.25.535,MST_task,2024.2.2,60.00261611477362,2025-11-09 16h10.31.902484 +0530,
,Objects\083a.jpg,113,0,113,,,,,,,None,,,f,None,None,,,,,113,0,113,0,567.5748324000015,,,,,,,,,,,,,,,,,,,,,,,567.5600904000021,567.5748324000015,568.074815400003,568.0583532000019,,,,,,,,,,,,,,,,,,,,,,,,,,568.0671291000035,568.074815400003,568.074815400003,568.074815400003,571.0584687999944,shoe,None,,,571.0584989000054,571.2750664999912,f,571.0747933999955,571.0747933999955,571.0747933999955,571.0747933999955,571.0747933999955,None,None,,,,,,,,,,00023,001,2025-11-09_16h10.25.535,MST_task,2024.2.2,60.00261611477362,2025-11-09 16h10.31.902484 +0530,
,Objects\248a.jpg,114,0,114,,,,,,,f,1.1968131000030553,0.2102158000052441,None,,,,,,,114,0,114,0,571.291452999998,,,,,,,,,,,,,,,,,,,,,,,571.2751395999949,571.291452999998,571.8081033999915,571.7749956000043,,,,,,,,,,,,,,,,,,,,,,,,,,571.7873868000024,571.8081033999915,571.8081033999915,571.8081033999915,574.7915053000033,shoe,f,1.1968131000030553,0.2102158000052441,574.7915682000021,574.7915824999945,None,,,,,,,,,,,,,,,,,00023,001,2025-11-09_16h10.25.535,MST_task,2024.2.2,60.00261611477362,2025-11-09 16h10.31.902484 +0530,
,Objects\331a.jpg,115,0,115,,,,,,,j,2.6887771999899996,0.19402360000822227,None,,,,,,,115,0,115,0,574.8080355999991,,,,,,,,,,,,,,,,,,,,,,,574.7916467000032,574.8080355999991,575.3079891999951,575.2917167999985,,,,,,,,,,,,,,,,,,,,,,,,,,575.3022047999984,575.3079891999951,575.3079891999951,575.3079891999951,578.291687399993,shoe,j,2.6887771999899996,0.19402360000822227,578.2917253999913,578.2917334999947,None,578.3079672000022,578.3079672000022,578.3079672000022,,,,,,,,,,,,,,00023,001,2025-11-09_16h10.25.535,MST_task,2024.2.2,60.00261611477362,2025-11-09 16h10.31.902484 +0530,
,Objects\147a.jpg,116,0,116,,,,,,,f,2.2145826000050874,0.24265169999853242,None,,,,,,,116,0,116,0,578.3079672000022,,,,,,,,,,,,,,,,,,,,,,,578.2917864000046,578.3079672000022,578.807939899998,578.791450100005,,,,,,,,,,,,,,,,,,,,,,,,,,578.8023173999973,578.807939899998,578.807939899998,578.807939899998,581.7914389999933,shoe,f,2.2145826000050874,0.24265169999853242,581.7914735999948,581.7914818999998,None,581.8078869000019,581.8078869000019,581.8078869000019,,,,,,,,,,,,,,00023,001,2025-11-09_16h10.25.535,MST_task,2024.2.2,60.00261611477362,2025-11-09 16h10.31.902484 +0530,
,Objects\065a.jpg,117,0,117,,,,,,,j,1.3445809000113513,0.17924779999884777,None,,,,,,,117,0,117,0,581.8078869000019,,,,,,,,,,,,,,,,,,,,,,,581.7915350999974,581.8078869000019,582.307836299995,582.2913638000027,,,,,,,,,,,,,,,,,,,,,,,,,,582.2992230999953,582.307836299995,582.307836299995,582.307836299995,585.2913884000009,shoe,j,1.3445809000113513,0.17924779999884777,585.2914216999925,585.291429799996,None,585.3078098999977,585.3078098999977,585.3078098999977,,,,,,,,,,,,,,00023,001,2025-11-09_16h10.25.535,MST_task,2024.2.2,60.00261611477362,2025-11-09 16h10.31.902484 +0530,
,Objects\076a.jpg,118,0,118,,,,,,,f,1.4772040999960154,0.22388229999342002,None,,,,,,,118,0,118,0,585.3078098999977,,,,,,,,,,,,,,,,,,,,,,,585.2915089000016,585.3078098999977,585.8077716999978,585.7913165999926,,,,,,,,,,,,,,,,,,,,,,,,,,585.799314399992,585.8077716999978,585.8077716999978,585.8077716999978,588.7913316000049,shoe,f,1.4772040999960154,0.22388229999342002,588.7913643999927,588.7913722999947,None,588.8077342000033,588.8077342000033,588.8077342000033,,,,,,,,,,,,,,00023,001,2025-11-09_16h10.25.535,MST_task,2024.2.2,60.00261611477362,2025-11-09 16h10.31.902484 +0530,
,Objects\159a.jpg,119,0,119,,,,,,,f,0.847091299991007,0.22422040000674315,None,,,,,,,119,0,119,0,588.8077342000033,,,,,,,,,,,,,,,,,,,,,,,588.7914558000048,588.8077342000033,589.3076899000007,589.2912343999924,,,,,,,,,,,,,,,,,,,,,,,,,,589.3000283000001,589.3076899000007,589.3076899000007,589.3076899000007,592.2913422999991,indoor,f,0.847091299991007,0.22422040000674315,592.2924989000021,592.292509699997,None,592.3076312000048,592.3076312000048,592.3076312000048,,,,,,,,,,,,,,00023,001,2025-11-09_16h10.25.535,MST_task,2024.2.2,60.00261611477362,2025-11-09 16h10.31.902484 +0530,
,Objects\299a.jpg,120,0,120,,,,,,,j,1.6848756999970647,0.2144933000090532,None,,,,,,,120,0,120,0,592.3076312000048,,,,,,,,,,,,,,,,,,,,,,,592.2925629999954,592.3076312000048,592.8076160999917,592.7911890999967,,,,,,,,,,,,,,,,,,,,,,,,,,592.8020363999967,592.8076160999917,592.8076160999917,592.8076160999917,595.7911829999939,indoor,j,1.6848756999970647,0.2144933000090532,595.7912174999947,595.7912255999981,None,595.8075831000024,595.8075831000024,595.8075831000024,,,,,,,,,,,,,,00023,001,2025-11-09_16h10.25.535,MST_task,2024.2.2,60.00261611477362,2025-11-09 16h10.31.902484 +0530,
,Objects\105a.jpg,121,0,121,,,,,,,f,2.0620462999941083,0.22142329999769572,None,,,,,,,121,0,121,0,595.8075831000024,,,,,,,,,,,,,,,,,,,,,,,595.7912795000011,595.8075831000024,596.307161299992,596.291063800003,,,,,,,,,,,,,,,,,,,,,,,,,,596.3019007999974,596.307161299992,596.307161299992,596.307161299992,599.2910952999955,indoor,f,2.0620462999941083,0.22142329999769572,599.2911272999918,599.2911348999914,None,599.3075089000049,599.3075089000049,599.3075089000049,,,,,,,,,,,,,,00023,001,2025-11-09_16h10.25.535,MST_task,2024.2.2,60.00261611477362,2025-11-09 16h10.31.902484 +0530,
,Objects\165a.jpg,122,0,122,,,,,,,f,1.4091132000030484,0.18622059999324847,None,,,,,,,122,0,122,0,599.3075089000049,,,,,,,,,,,,,,,,,,,,,,,599.2911871999968,599.3075089000049,599.8075259000034,599.7911423000041,,,,,,,,,,,,,,,,,,,,,,,,,,599.798990700001,599.8075259000034,599.8075259000034,599.8075259000034,602.7910414999933,indoor,f,1.4091132000030484,0.18622059999324847,602.7910770000017,602.7910849000036,None,602.8074297999992,602.8074297999992,602.8074297999992,,,,,,,,,,,,,,00023,001,2025-11-09_16h10.25.535,MST_task,2024.2.2,60.00261611477362,2025-11-09 16h10.31.902484 +0530,
,Objects\150a.jpg,123,0,123,,,,,,,None,,,j,0.1732934000028763,None,,,,,123,0,123,0,602.8074297999992,,,,,,,,,,,,,,,,,,,,,,,602.7911419000011,602.8074297999992,603.3074205000012,603.2909175999957,,,,,,,,,,,,,,,,,,,,,,,,,,603.2987329000025,603.3074205000012,603.3074205000012,603.3074205000012,606.2909652999952,indoor,None,,,606.2909951000038,606.4909610000032,j,606.3073599999916,606.3073599999916,606.3073599999916,606.3073599999916,606.3073599999916,0.1732934000028763,None,,,,,,,,,,00023,001,2025-11-09_16h10.25.535,MST_task,2024.2.2,60.00261611477362,2025-11-09 16h10.31.902484 +0530,
,Objects\104a.jpg,124,0,124,,,,,,,None,,,f,1.105374100006884,None,,,,,124,0,124,0,606.5073467000038,,,,,,,,,,,,,,,,,,,,,,,606.4910287999955,606.5073467000038,607.0073228999972,606.9908392999932,,,,,,,,,,,,,,,,,,,,,,,,,,606.9983099999954,607.0073228999972,607.0073228999972,607.0073228999972,609.9908778999961,indoor,None,,,609.9909139999945,611.1244177000044,f,610.0072999999975,610.0072999999975,610.0072999999975,610.0072999999975,610.0072999999975,1.105374100006884,None,,,,,,,,,,00023,001,2025-11-09_16h10.25.535,MST_task,2024.2.2,60.00261611477362,2025-11-09 16h10.31.902484 +0530,
,Objects\118a.jpg,125,0,125,,,,,,,j,2.149785300003714,0.22210689999337774,None,,,,,,,125,0,125,0,611.1405718000024,,,,,,,,,,,,,,,,,,,,,,,611.1244955000002,611.1405718000024,611.6405481999973,611.6241027999931,,,,,,,,,,,,,,,,,,,,,,,,,,611.6323205999943,611.6405481999973,611.6405481999973,611.6405481999973,614.6240664999932,indoor,j,2.149785300003714,0.22210689999337774,614.6241131999996,614.6241221999953,None,614.6405076999945,614.6405076999945,614.6405076999945,,,,,,,,,,,,,,00023,001,2025-11-09_16h10.25.535,MST_task,2024.2.2,60.00261611477362,2025-11-09 16h10.31.902484 +0530,
,Objects\096a.jpg,126,0,126,,,,,,,f,2.4681502000021283,0.18615860000136308,None,,,,,,,126,0,126,0,614.6405076999945,,,,,,,,,,,,,,,,,,,,,,,614.6241797999974,614.6405076999945,615.140490299993,615.1240047000028,,,,,,,,,,,,,,,,,,,,,,,,,,615.1333727000019,615.140490299993,615.140490299993,615.140490299993,618.1239972000039,shoe,f,2.4681502000021283,0.18615860000136308,618.1255291999987,618.1255403999967,None,618.1404522999946,618.1404522999946,618.1404522999946,,,,,,,,,,,,,,00023,001,2025-11-09_16h10.25.535,MST_task,2024.2.2,60.00261611477362,2025-11-09 16h10.31.902484 +0530,
,Objects\372a.jpg,127,0,127,,,,,,,None,,,j,1.2982029999984661,None,,,,,127,0,127,0,618.1404522999946,,,,,,,,,,,,,,,,,,,,,,,618.125597899998,618.1404522999946,618.6400307000004,618.6239666000038,,,,,,,,,,,,,,,,,,,,,,,,,,618.6351948999945,618.6400307000004,618.6400307000004,618.6400307000004,621.6239186000021,shoe,None,,,621.6239541999967,622.9406749000045,j,621.6403538000013,621.6403538000013,621.6403538000013,621.6403538000013,621.6403538000013,1.2982029999984661,None,,,,,,,,,,00023,001,2025-11-09_16h10.25.535,MST_task,2024.2.2,60.00261611477362,2025-11-09 16h10.31.902484 +0530,
,Objects\340a.jpg,128,0,128,,,,,,,f,1.8255016000039177,0.2258125999942422,None,,,,,,,128,0,128,0,622.9569923999952,,,,,,,,,,,,,,,,,,,,,,,622.9407561999978,622.9569923999952,623.4569978999934,623.4404779000033,,,,,,,,,,,,,,,,,,,,,,,,,,623.4509021999984,623.4569978999934,623.4569978999934,623.4569978999934,626.4405041999999,shoe,f,1.8255016000039177,0.2258125999942422,626.4405449000042,626.4405537999992,None,626.4569207000022,626.4569207000022,626.4569207000022,,,,,,,,,,,,,,00023,001,2025-11-09_16h10.25.535,MST_task,2024.2.2,60.00261611477362,2025-11-09 16h10.31.902484 +0530,
,Objects\156a.jpg,129,0,129,,,,,,,f,2.6065133000083733,0.1923155999975279,None,,,,,,,129,0,129,0,626.4569207000022,,,,,,,,,,,,,,,,,,,,,,,626.4406099000043,626.4569207000022,626.9735740000033,626.9404752999981,,,,,,,,,,,,,,,,,,,,,,,,,,626.9530039999954,626.9735740000033,626.9735740000033,626.9735740000033,629.9568799999979,shoe,f,2.6065133000083733,0.1923155999975279,629.9569163999986,629.9569255999959,None,,,,,,,,,,,,,,,,,00023,001,2025-11-09_16h10.25.535,MST_task,2024.2.2,60.00261611477362,2025-11-09 16h10.31.902484 +0530,
,Objects\335a.jpg,130,0,130,,,,,,,j,1.7790982000005897,0.21201089999522083,None,,,,,,,130,0,130,0,629.9735091000039,,,,,,,,,,,,,,,,,,,,,,,629.9569811999972,629.9735091000039,630.4734955000022,630.4570621000021,,,,,,,,,,,,,,,,,,,,,,,,,,630.4682253999927,630.4734955000022,630.4734955000022,630.4734955000022,633.4570097999967,shoe,j,1.7790982000005897,0.21201089999522083,633.4570426999999,633.4570507000026,None,633.473430500002,633.473430500002,633.473430500002,,,,,,,,,,,,,,00023,001,2025-11-09_16h10.25.535,MST_task,2024.2.2,60.00261611477362,2025-11-09 16h10.31.902484 +0530,
,Objects\039a.jpg,131,0,131,,,,,,,j,2.4278928999992786,0.20926129999861587,None,,,,,,,131,0,131,0,633.473430500002,,,,,,,,,,,,,,,,,,,,,,,633.4571297999937,633.473430500002,633.9732605000027,633.9570090999914,,,,,,,,,,,,,,,,,,,,,,,,,,633.9682538000052,633.9732605000027,633.9732605000027,633.9732605000027,636.9569369999954,shoe,j,2.4278928999992786,0.20926129999861587,636.9569709999923,636.9569797000004,None,636.9733634000004,636.9733634000004,636.9733634000004,,,,,,,,,,,,,,00023,001,2025-11-09_16h10.25.535,MST_task,2024.2.2,60.00261611477362,2025-11-09 16h10.31.902484 +0530,
,Objects\247a.jpg,132,0,132,,,,,,,f,1.6815408999973442,0.19002199999522418,None,,,,,,,132,0,132,0,636.9733634000004,,,,,,,,,,,,,,,,,,,,,,,636.9570602000022,636.9733634000004,637.4733525000047,637.4568884000037,,,,,,,,,,,,,,,,,,,,,,,,,,637.4677452000033,637.4733525000047,637.4733525000047,637.4733525000047,640.4568393999944,shoe,f,1.6815408999973442,0.19002199999522418,640.4568717999937,640.4568801999994,None,640.4732836000039,640.4732836000039,640.4732836000039,,,,,,,,,,,,,,00023,001,2025-11-09_16h10.25.535,MST_task,2024.2.2,60.00261611477362,2025-11-09 16h10.31.902484 +0530,
,Objects\228a.jpg,133,0,133,,,,,,,j,2.2731142999982694,0.15926119999494404,None,,,,,,,133,0,133,0,640.4732836000039,,,,,,,,,,,,,,,,,,,,,,,640.4569351999962,640.4732836000039,640.9899390999926,640.9568290000025,,,,,,,,,,,,,,,,,,,,,,,,,,640.9691199999943,640.9899390999926,640.9899390999926,640.9899390999926,643.9732383999944,indoor,j,2.2731142999982694,0.15926119999494404,643.9744686999911,643.9744801000052,None,,,,,,,,,,,,,,,,,00023,001,2025-11-09_16h10.25.535,MST_task,2024.2.2,60.00261611477362,2025-11-09 16h10.31.902484 +0530,
,Objects\026a.jpg,134,0,134,,,,,,,j,1.7910975999984657,0.22350229999574367,None,,,,,,,134,0,134,0,643.9898468000029,,,,,,,,,,,,,,,,,,,,,,,643.9745316000044,643.9898468000029,644.4898324999958,644.4734861000034,,,,,,,,,,,,,,,,,,,,,,,,,,644.4809539999987,644.4898324999958,644.4898324999958,644.4898324999958,647.4733730000007,indoor,j,1.7910975999984657,0.22350229999574367,647.473407700003,647.4734160999942,None,647.4898203000048,647.4898203000048,647.4898203000048,,,,,,,,,,,,,,00023,001,2025-11-09_16h10.25.535,MST_task,2024.2.2,60.00261611477362,2025-11-09 16h10.31.902484 +0530,
,Objects\023a.jpg,135,0,135,,,,,,,None,,,f,0.43157639999117237,None,,,,,135,0,135,0,647.4898203000048,,,,,,,,,,,,,,,,,,,,,,,647.4734701999987,647.4898203000048,647.9897496999911,647.973327899992,,,,,,,,,,,,,,,,,,,,,,,,,,647.9810253000032,647.9897496999911,647.9897496999911,647.9897496999911,650.9733087999921,indoor,None,,,650.9733460999996,651.4234632000007,f,650.9897307999927,650.9897307999927,650.9897307999927,650.9897307999927,650.9897307999927,0.43157639999117237,None,,,,,,,,,,00023,001,2025-11-09_16h10.25.535,MST_task,2024.2.2,60.00261611477362,2025-11-09 16h10.31.902484 +0530,
,Objects\225a.jpg,136,0,136,,,,,,,f,2.2935747999872547,0.20092180000210647,None,,,,,,,136,0,136,0,651.4397417,,,,,,,,,,,,,,,,,,,,,,,651.4235381000035,651.4397417,651.9396965000051,651.9232553000038,,,,,,,,,,,,,,,,,,,,,,,,,,651.9308007999934,651.9396965000051,651.9396965000051,651.9396965000051,654.9232513000024,indoor,f,2.2935747999872547,0.20092180000210647,654.9232893000008,654.9232978999935,None,654.9396379999962,654.9396379999962,654.9396379999962,,,,,,,,,,,,,,00023,001,2025-11-09_16h10.25.535,MST_task,2024.2.2,60.00261611477362,2025-11-09 16h10.31.902484 +0530,
,Objects\123a.jpg,137,0,137,,,,,,,f,1.4533114000078058,0.18186849998892285,None,,,,,,,137,0,137,0,654.9396379999962,,,,,,,,,,,,,,,,,,,,,,,654.9233511999919,654.9396379999962,655.4396314000041,655.423172499999,,,,,,,,,,,,,,,,,,,,,,,,,,655.4306551000045,655.4396314000041,655.4396314000041,655.4396314000041,658.4231970999972,indoor,f,1.4533114000078058,0.18186849998892285,658.4232355999993,658.4232444999943,None,658.4395579999982,658.4395579999982,658.4395579999982,,,,,,,,,,,,,,00023,001,2025-11-09_16h10.25.535,MST_task,2024.2.2,60.00261611477362,2025-11-09 16h10.31.902484 +0530,
,Objects\380a.jpg,138,0,138,,,,,,,j,2.3812704000010854,0.19410100000095554,None,,,,,,,138,0,138,0,658.4395579999982,,,,,,,,,,,,,,,,,,,,,,,658.4233011000033,658.4395579999982,658.9395136999956,658.923040099995,,,,,,,,,,,,,,,,,,,,,,,,,,658.930747499995,658.9395136999956,658.9395136999956,658.9395136999956,661.9230608999933,indoor,j,2.3812704000010854,0.19410100000095554,661.923100999993,661.9231101000041,None,661.939478699991,661.939478699991,661.939478699991,,,,,,,,,,,,,,00023,001,2025-11-09_16h10.25.535,MST_task,2024.2.2,60.00261611477362,2025-11-09 16h10.31.902484 +0530,
,Objects\278a.jpg,139,0,139,,,,,,,f,1.1286886000016239,0.20209050000994466,None,,,,,,,139,0,139,0,661.939478699991,,,,,,,,,,,,,,,,,,,,,,,661.9231656999909,661.939478699991,662.456105099991,662.4230558999989,,,,,,,,,,,,,,,,,,,,,,,,,,662.4345595999912,662.456105099991,662.456105099991,662.456105099991,665.4394057000027,indoor,f,1.1286886000016239,0.20209050000994466,665.4394527999975,665.4394618999941,None,,,,,,,,,,,,,,,,,00023,001,2025-11-09_16h10.25.535,MST_task,2024.2.2,60.00261611477362,2025-11-09 16h10.31.902484 +0530,
,Objects\116a.jpg,140,0,140,,,,,,,f,2.0561665999994148,0.20647800000733696,None,,,,,,,140,0,140,0,665.4560698999994,,,,,,,,,,,,,,,,,,,,,,,665.439519099993,665.4560698999994,665.9727106999926,665.9395919999952,,,,,,,,,,,,,,,,,,,,,,,,,,665.952120899994,665.9727106999926,665.9727106999926,665.9727106999926,668.9560051000008,shoe,f,2.0561665999994148,0.20647800000733696,668.9575217999954,668.9575331999949,None,,,,,,,,,,,,,,,,,00023,001,2025-11-09_16h10.25.535,MST_task,2024.2.2,60.00261611477362,2025-11-09 16h10.31.902484 +0530,
,Objects\042a.jpg,141,0,141,,,,,,,j,1.6498444000026211,0.1915512999985367,None,,,,,,,141,0,141,0,668.9726623000024,,,,,,,,,,,,,,,,,,,,,,,668.9576211999956,668.9726623000024,669.4726130999916,669.4561932999932,,,,,,,,,,,,,,,,,,,,,,,,,,669.4642133000016,669.4726130999916,669.4726130999916,669.4726130999916,672.4561344999966,shoe,j,1.6498444000026211,0.1915512999985367,672.4561691999988,672.4561776000046,None,672.4725917000032,672.4725917000032,672.4725917000032,,,,,,,,,,,,,,00023,001,2025-11-09_16h10.25.535,MST_task,2024.2.2,60.00261611477362,2025-11-09 16h10.31.902484 +0530,
,Objects\030a.jpg,142,0,142,,,,,,,None,,,f,1.3464849000010872,None,,,,,142,0,142,0,672.4725917000032,,,,,,,,,,,,,,,,,,,,,,,672.4562289000023,672.4725917000032,672.9725437000016,672.9561345999973,,,,,,,,,,,,,,,,,,,,,,,,,,672.9637406999973,672.9725437000016,672.9725437000016,672.9725437000016,675.9560462999943,shoe,None,,,675.9560749999946,677.3228614999971,f,675.9725131000014,675.9725131000014,675.9725131000014,675.9725131000014,675.9725131000014,1.3464849000010872,None,,,,,,,,,,00023,001,2025-11-09_16h10.25.535,MST_task,2024.2.2,60.00261611477362,2025-11-09 16h10.31.902484 +0530,
,Objects\053a.jpg,143,0,143,,,,,,,f,1.723898599986569,0.19786250000470318,None,,,,,,,143,0,143,0,677.3391465000022,,,,,,,,,,,,,,,,,,,,,,,677.3229617000034,677.3391465000022,677.8391024000011,677.8226532999979,,,,,,,,,,,,,,,,,,,,,,,,,,677.830616399995,677.8391024000011,677.8391024000011,677.8391024000011,680.8226198000048,shoe,f,1.723898599986569,0.19786250000470318,680.822654100004,680.8226628999982,None,680.8390658999997,680.8390658999997,680.8390658999997,,,,,,,,,,,,,,00023,001,2025-11-09_16h10.25.535,MST_task,2024.2.2,60.00261611477362,2025-11-09 16h10.31.902484 +0530,
,Objects\103a.jpg,144,0,144,,,,,,,j,1.4515722000069218,0.16250949999084696,None,,,,,,,144,0,144,0,680.8390658999997,,,,,,,,,,,,,,,,,,,,,,,680.8227493000013,680.8390658999997,681.3390799000044,681.3225521999993,,,,,,,,,,,,,,,,,,,,,,,,,,681.3307419000048,681.3390799000044,681.3390799000044,681.3390799000044,684.3225266999943,shoe,j,1.4515722000069218,0.16250949999084696,684.3225590999937,684.3225665999926,None,684.338998399995,684.338998399995,684.338998399995,,,,,,,,,,,,,,00023,001,2025-11-09_16h10.25.535,MST_task,2024.2.2,60.00261611477362,2025-11-09 16h10.31.902484 +0530,
,Objects\292a.jpg,145,0,145,,,,,,,f,1.8068437999900198,0.18541670001286548,None,,,,,,,145,0,145,0,684.338998399995,,,,,,,,,,,,,,,,,,,,,,,684.3226439999999,684.338998399995,684.8385744999978,684.8225904999999,,,,,,,,,,,,,,,,,,,,,,,,,,684.8327007000044,684.8385744999978,684.8385744999978,684.8385744999978,687.8225878999947,shoe,f,1.8068437999900198,0.18541670001286548,687.8226242999954,687.8226323999988,None,687.8389296999958,687.8389296999958,687.8389296999958,,,,,,,,,,,,,,00023,001,2025-11-09_16h10.25.535,MST_task,2024.2.2,60.00261611477362,2025-11-09 16h10.31.902484 +0530,
,Objects\284a.jpg,146,0,146,,,,,,,f,1.8511720999958925,0.16568910000205506,None,,,,,,,146,0,146,0,687.8389296999958,,,,,,,,,,,,,,,,,,,,,,,687.8226858999988,687.8389296999958,688.3556402999966,688.3224271999934,,,,,,,,,,,,,,,,,,,,,,,,,,688.3348427000019,688.3556402999966,688.3556402999966,688.3556402999966,691.3388355999923,shoe,f,1.8511720999958925,0.16568910000205506,691.3388716000045,691.3388808000018,None,,,,,,,,,,,,,,,,,00023,001,2025-11-09_16h10.25.535,MST_task,2024.2.2,60.00261611477362,2025-11-09 16h10.31.902484 +0530,
,Objects\089a.jpg,147,0,147,,,,,,,f,1.74315559999377,0.20157980000658426,None,,,,,,,147,0,147,0,691.3555168000021,,,,,,,,,,,,,,,,,,,,,,,691.3389362000016,691.3555168000021,691.8721749999968,691.8390737000009,,,,,,,,,,,,,,,,,,,,,,,,,,691.8526542000036,691.8721749999968,691.8721749999968,691.8721749999968,694.8554618000053,indoor,f,1.74315559999377,0.20157980000658426,694.8568196999986,694.8568311999989,None,,,,,,,,,,,,,,,,,00023,001,2025-11-09_16h10.25.535,MST_task,2024.2.2,60.00261611477362,2025-11-09 16h10.31.902484 +0530,
,Objects\207a.jpg,148,0,148,,,,,,,f,1.5352576000004774,0.24609349999809638,None,,,,,,,148,0,148,0,694.8720685000008,,,,,,,,,,,,,,,,,,,,,,,694.8568842999957,694.8720685000008,695.3721021999954,695.3555938999925,,,,,,,,,,,,,,,,,,,,,,,,,,695.3661826000025,695.3721021999954,695.3721021999954,695.3721021999954,698.3556865999999,indoor,f,1.5352576000004774,0.24609349999809638,698.355722399996,698.3557303999987,None,698.3720239999966,698.3720239999966,698.3720239999966,,,,,,,,,,,,,,00023,001,2025-11-09_16h10.25.535,MST_task,2024.2.2,60.00261611477362,2025-11-09 16h10.31.902484 +0530,
,Objects\199a.jpg,149,0,149,,,,,,,j,1.4629771999898367,0.23955510000814684,None,,,,,,,149,0,149,0,698.3720239999966,,,,,,,,,,,,,,,,,,,,,,,698.3557833999948,698.3720239999966,698.8720294999948,698.8555538999935,,,,,,,,,,,,,,,,,,,,,,,,,,698.8657706999948,698.8720294999948,698.8720294999948,698.8720294999948,701.8555512000021,indoor,j,1.4629771999898367,0.23955510000814684,701.8556046000012,701.8556134999963,None,701.8719493999961,701.8719493999961,701.8719493999961,,,,,,,,,,,,,,00023,001,2025-11-09_16h10.25.535,MST_task,2024.2.2,60.00261611477362,2025-11-09 16h10.31.902484 +0530,
,Objects\360a.jpg,150,0,150,,,,,,,f,1.3128430000069784,0.22606969998741988,None,,,,,,,150,0,150,0,701.8719493999961,,,,,,,,,,,,,,,,,,,,,,,701.8556693999999,701.8719493999961,702.3715308999963,702.3554885000049,,,,,,,,,,,,,,,,,,,,,,,,,,702.366368300005,702.3715308999963,702.3715308999963,702.3715308999963,705.3554440000007,indoor,f,1.3128430000069784,0.22606969998741988,705.3554805000022,705.3554889999941,None,705.3718760000047,705.3718760000047,705.3718760000047,,,,,,,,,,,,,,00023,001,2025-11-09_16h10.25.535,MST_task,2024.2.2,60.00261611477362,2025-11-09 16h10.31.902484 +0530,
,Objects\075a.jpg,151,0,151,,,,,,,f,2.4858854000049178,0.10386119999748189,None,,,,,,,151,0,151,0,705.3718760000047,,,,,,,,,,,,,,,,,,,,,,,705.3555422999925,705.3718760000047,705.8714499000052,705.855421500004,,,,,,,,,,,,,,,,,,,,,,,,,,705.8660874000052,705.8714499000052,705.8714499000052,705.8714499000052,708.8554495999997,indoor,f,2.4858854000049178,0.10386119999748189,708.8554835999967,708.8554917000001,None,708.8717978999921,708.8717978999921,708.8717978999921,,,,,,,,,,,,,,00023,001,2025-11-09_16h10.25.535,MST_task,2024.2.2,60.00261611477362,2025-11-09 16h10.31.902484 +0530,
,Objects\216a.jpg,152,0,152,,,,,,,None,,,f,5.247115000005579,None,,,,,152,0,152,0,708.8717978999921,,,,,,,,,,,,,,,,,,,,,,,708.8555486999976,708.8717978999921,709.3717641999974,709.3553794000036,,,,,,,,,,,,,,,,,,,,,,,,,,709.3626974999934,709.3717641999974,709.3717641999974,709.3717641999974,712.3553793000028,indoor,None,,,712.3554117000022,717.6220336999977,f,712.371719799994,712.371719799994,712.371719799994,712.371719799994,712.371719799994,5.247115000005579,None,,,,,,,,,,00023,001,2025-11-09_16h10.25.535,MST_task,2024.2.2,60.00261611477362,2025-11-09 16h10.31.902484 +0530,
,Objects\326a.jpg,153,0,153,,,,,,,f,0.8710098999872571,0.20209560000512283,None,,,,,,,153,0,153,0,717.6382780999993,,,,,,,,,,,,,,,,,,,,,,,717.622128499992,717.6382780999993,718.139016400004,718.1218117999961,,,,,,,,,,,,,,,,,,,,,,,,,,718.1307618999999,718.139016400004,718.139016400004,718.139016400004,721.1217287000036,indoor,f,0.8710098999872571,0.20209560000512283,721.1217630000028,721.121771399994,None,721.138197799999,721.138197799999,721.138197799999,,,,,,,,,,,,,,00023,001,2025-11-09_16h10.25.535,MST_task,2024.2.2,60.00261611477362,2025-11-09 16h10.31.902484 +0530,
,Objects\251a.jpg,154,0,154,,,,,,,f,1.6424669999978505,0.22251979999418836,None,,,,,,,154,0,154,0,721.138197799999,,,,,,,,,,,,,,,,,,,,,,,721.1218232999963,721.138197799999,721.6381535999972,721.6217963999952,,,,,,,,,,,,,,,,,,,,,,,,,,721.633281699993,721.6381535999972,721.6381535999972,721.6381535999972,724.621684400001,shoe,f,1.6424669999978505,0.22251979999418836,724.6232141999935,724.623225000003,None,724.6381269999983,724.6381269999983,724.6381269999983,,,,,,,,,,,,,,00023,001,2025-11-09_16h10.25.535,MST_task,2024.2.2,60.00261611477362,2025-11-09 16h10.31.902484 +0530,
,Objects\114a.jpg,155,0,155,,,,,,,f,1.4846890999906464,0.1941594000090845,None,,,,,,,155,0,155,0,724.6381269999983,,,,,,,,,,,,,,,,,,,,,,,724.6232789999922,724.6381269999983,725.1380751999968,725.1216833999933,,,,,,,,,,,,,,,,,,,,,,,,,,725.1328189000051,725.1380751999968,725.1380751999968,725.1380751999968,728.1217258999968,shoe,f,1.4846890999906464,0.1941594000090845,728.1217622999975,728.1217731999932,None,728.1380916999915,728.1380916999915,728.1380916999915,,,,,,,,,,,,,,00023,001,2025-11-09_16h10.25.535,MST_task,2024.2.2,60.00261611477362,2025-11-09 16h10.31.902484 +0530,
,Objects\172a.jpg,156,0,156,,,,,,,j,0.9273564000031911,0.2211788999993587,None,,,,,,,156,0,156,0,728.1380916999915,,,,,,,,,,,,,,,,,,,,,,,728.1218267999939,728.1380916999915,728.6380032000015,728.6215938999958,,,,,,,,,,,,,,,,,,,,,,,,,,728.629300200002,728.6380032000015,728.6380032000015,728.6380032000015,731.6215879999945,shoe,j,0.9273564000031911,0.2211788999993587,731.6216283999966,731.6216374999931,None,731.6379740999982,731.6379740999982,731.6379740999982,,,,,,,,,,,,,,00023,001,2025-11-09_16h10.25.535,MST_task,2024.2.2,60.00261611477362,2025-11-09 16h10.31.902484 +0530,
,Objects\259a.jpg,157,0,157,,,,,,,f,2.14977760000329,0.19832450000103563,None,,,,,,,157,0,157,0,731.6379740999982,,,,,,,,,,,,,,,,,,,,,,,731.6217500999919,731.6379740999982,732.1546301000053,732.1214904999943,,,,,,,,,,,,,,,,,,,,,,,,,,732.1342891999957,732.1546301000053,732.1546301000053,732.1546301000053,735.1380707999924,shoe,f,2.14977760000329,0.19832450000103563,735.1381062,735.138119700001,None,,,,,,,,,,,,,,,,,00023,001,2025-11-09_16h10.25.535,MST_task,2024.2.2,60.00261611477362,2025-11-09 16h10.31.902484 +0530,
