Sl_no,image_path,thisN,thisTrialN,thisRepN,key_resp_5.keys,key_resp_7.keys,key_resp_7.rt,key_resp_7.duration,key_resp_5.rt,key_resp_5.duration,key_resp_9.keys,key_resp_8.keys,key_resp_8.rt,key_resp_8.duration,key_resp_9.rt,key_resp_9.duration,practice.thisRepN,practice.thisTrialN,practice.thisN,practice.thisIndex,trials.thisRepN,trials.thisTrialN,trials.thisN,trials.thisIndex,thisRow.t,notes,welcome_page.started,text.started,key_resp.started,welcome_page.stopped,key_resp.keys,key_resp.rt,key_resp.duration,instructions.started,ins.started,key_resp_2.started,instructions.stopped,key_resp_2.keys,key_resp_2.rt,key_resp_2.duration,objects_only_instruction.started,text_3.started,key_resp_3.started,objects_only_instruction.stopped,key_resp_3.keys,key_resp_3.rt,key_resp_3.duration,ISI.started,text_4.started,text_4.stopped,ISI.stopped,practice_block.started,image.started,key_resp_5.started,text_5.started,image.stopped,key_resp_5.stopped,text_5.stopped,practice_block.stopped,practice.key_resp_5.keys,indoor_outdoor.started,text_7.started,key_resp_7.started,indoor_outdoor.stopped,practice.key_resp_7.keys,practice.key_resp_7.rt,practice.key_resp_7.duration,practice.key_resp_5.rt,practice.key_resp_5.duration,practice_to_main.started,text_2.started,key_resp_4.started,practice_to_main.stopped,key_resp_4.keys,key_resp_4.rt,key_resp_4.duration,objects.started,image_2.started,text_9.started,key_resp_9.started,image_2.stopped,text_9.stopped,key_resp_9.stopped,objects.stopped,category,trials.key_resp_9.keys,encoding_task.started,text_8.started,key_resp_8.started,encoding_task.stopped,trials.key_resp_8.keys,trials.key_resp_8.rt,trials.key_resp_8.duration,trials.key_resp_9.rt,trials.key_resp_9.duration,end_experiment.started,text_6.started,key_resp_6.started,end_experiment.stopped,key_resp_6.keys,key_resp_6.rt,key_resp_6.duration,list_of_stimuli,encoding_task_accuracy,participant,session,date,expName,psychopyVersion,frameRate,expStart,
,,,,,,,,,,,,,,,,,,,,,,,,,,,0.009237199999915902,0.025824899996223394,0.025824899996223394,13.91051989999687,space,13.873855600002571,None,,,,,,,,,,,,,,,,,,,,,,,,,,,,,,,,,,,,,,,,,,,,,,,,,,,,,,,,,,,,,,,,,,,,,,,,00021,001,2025-11-08_21h31.55.785,MST_task,2024.2.2,59.98929790807444,2025-11-08 21h32.02.137489 +0530,
,,,,,,,,,,,,,,,,,,,,,,,,,,,,,,,,,,13.910554599999159,13.925621099995624,13.925621099995624,31.059080099999846,space,17.117541099993105,None,,,,,,,,,,,,,,,,,,,,,,,,,,,,,,,,,,,,,,,,,,,,,,,,,,,,,,,,,,,,,,,,,00021,001,2025-11-08_21h31.55.785,MST_task,2024.2.2,59.98929790807444,2025-11-08 21h32.02.137489 +0530,
,,,,,,,,,,,,,,,,,,,,,,,,,,,,,,,,,,,,,,,,,31.059109100002388,31.075200300001597,31.075200300001597,39.5920632999987,space,8.504429000000528,None,,,,,,,,,,,,,,,,,,,,,,,,,,,,,,,,,,,,,,,,,,,,,,,,,,,,,,,,,,00021,001,2025-11-08_21h31.55.785,MST_task,2024.2.2,59.98929790807444,2025-11-08 21h32.02.137489 +0530,
8,practice_images/178a.jpg,0,0,0,None,f,2.4877049999995506,None,,,,,,,,,0,0,0,7,,,,,39.60843120000209,,,,,,,,,,,,,,,,,,,,,,,39.59531939999579,39.60843120000209,40.10843870000099,40.09187469999597,40.09841880000022,40.10843870000099,40.10843870000099,40.10843870000099,43.10836410000047,43.10836410000047,43.10836410000047,43.09184049999749,None,43.09300120000262,43.10836410000047,43.10836410000047,45.60860179999872,f,2.4877049999995506,None,,,,,,,,,,,,,,,,,,,,,,,,,,,,,,,,,,,,,,00021,001,2025-11-08_21h31.55.785,MST_task,2024.2.2,59.98929790807444,2025-11-08 21h32.02.137489 +0530,
6,practice_images/158a.jpg,1,1,0,j,None,,,2.30748820000008,0.12127980000514071,,,,,,,0,1,1,5,,,,,45.62498429999687,,,,,,,,,,,,,,,,,,,,,,,45.60867699999653,45.62498429999687,46.124972999998135,46.10846909999964,46.10988019999786,46.124972999998135,46.124972999998135,46.124972999998135,49.12494239999796,49.12494239999796,49.12494239999796,49.108380699995905,j,49.10841459999938,,,49.10842489999777,None,,,2.30748820000008,0.12127980000514071,,,,,,,,,,,,,,,,,,,,,,,,,,,,,,,,,,,,00021,001,2025-11-08_21h31.55.785,MST_task,2024.2.2,59.98929790807444,2025-11-08 21h32.02.137489 +0530,
2,practice_images/031a.jpg,2,2,0,f,None,,,1.4631746000013663,0.14813080000021728,,,,,,,0,2,2,1,,,,,49.12494239999796,,,,,,,,,,,,,,,,,,,,,,,49.10847610000201,49.12494239999796,49.62487490000058,49.60839940000005,49.60980169999675,49.62487490000058,49.62487490000058,49.62487490000058,52.62484419999964,52.62484419999964,52.62484419999964,52.6082888000019,f,52.6083249000003,,,52.6083346000014,None,,,1.4631746000013663,0.14813080000021728,,,,,,,,,,,,,,,,,,,,,,,,,,,,,,,,,,,,00021,001,2025-11-08_21h31.55.785,MST_task,2024.2.2,59.98929790807444,2025-11-08 21h32.02.137489 +0530,
10,practice_images/182a.jpg,3,3,0,f,None,,,2.0927124000008916,0.1578229000006104,,,,,,,0,3,3,9,,,,,52.62484419999964,,,,,,,,,,,,,,,,,,,,,,,52.60838810000132,52.62484419999964,53.12480309999955,53.10829080000258,53.109491099996376,53.12480309999955,53.12480309999955,53.12480309999955,56.124683599999116,56.124683599999116,56.124683599999116,56.10831550000148,f,56.10835209999641,,,56.108362499995565,None,,,2.0927124000008916,0.1578229000006104,,,,,,,,,,,,,,,,,,,,,,,,,,,,,,,,,,,,00021,001,2025-11-08_21h31.55.785,MST_task,2024.2.2,59.98929790807444,2025-11-08 21h32.02.137489 +0530,
3,practice_images/037a.jpg,4,4,0,None,f,0.12265910000132862,None,,,,,,,,,0,4,4,2,,,,,56.124683599999116,,,,,,,,,,,,,,,,,,,,,,,56.108422600002086,56.124683599999116,56.62464319999708,56.608254300001136,56.6094729999968,56.62464319999708,56.62464319999708,56.62464319999708,59.624567599996226,59.624567599996226,59.624567599996226,59.60810990000027,None,59.60813639999833,59.624567599996226,59.624567599996226,59.758212799999455,f,0.12265910000132862,None,,,,,,,,,,,,,,,,,,,,,,,,,,,,,,,,,,,,,,00021,001,2025-11-08_21h31.55.785,MST_task,2024.2.2,59.98929790807444,2025-11-08 21h32.02.137489 +0530,
5,practice_images/139a.jpg,5,5,0,None,j,0.15125160000025062,None,,,,,,,,,0,5,5,4,,,,,59.77460179999616,,,,,,,,,,,,,,,,,,,,,,,59.75828200000251,59.77460179999616,60.27456019999954,60.25806949999969,60.261507999995956,60.27456019999954,60.27456019999954,60.27456019999954,63.27449229999911,63.27449229999911,63.27449229999911,63.25803799999994,None,63.259621899997,63.27449229999911,63.27449229999911,63.441461499998695,j,0.15125160000025062,None,,,,,,,,,,,,,,,,,,,,,,,,,,,,,,,,,,,,,,00021,001,2025-11-08_21h31.55.785,MST_task,2024.2.2,59.98929790807444,2025-11-08 21h32.02.137489 +0530,
9,practice_images/180a.jpg,6,6,0,j,None,,,1.9217739000014262,0.15615229999821167,,,,,,,0,6,6,8,,,,,63.45786190000217,,,,,,,,,,,,,,,,,,,,,,,63.441523299996334,63.45786190000217,63.957833599997684,63.94133850000071,63.942572899999504,63.957833599997684,63.957833599997684,63.957833599997684,66.95784429999912,66.95784429999912,66.95784429999912,66.9413429999986,j,66.94138029999885,,,66.94139139999606,None,,,1.9217739000014262,0.15615229999821167,,,,,,,,,,,,,,,,,,,,,,,,,,,,,,,,,,,,00021,001,2025-11-08_21h31.55.785,MST_task,2024.2.2,59.98929790807444,2025-11-08 21h32.02.137489 +0530,
1,practice_images/013a.jpg,7,7,0,j,None,,,2.7296841999996104,0.15413460000127088,,,,,,,0,7,7,0,,,,,66.95784429999912,,,,,,,,,,,,,,,,,,,,,,,66.94144499999675,66.95784429999912,67.45774009999877,67.44136779999826,67.44270310000138,67.45774009999877,67.45774009999877,67.45774009999877,70.45770790000097,70.45770790000097,70.45770790000097,70.44116180000128,j,70.44119279999722,,,70.44120349999866,None,,,2.7296841999996104,0.15413460000127088,,,,,,,,,,,,,,,,,,,,,,,,,,,,,,,,,,,,00021,001,2025-11-08_21h31.55.785,MST_task,2024.2.2,59.98929790807444,2025-11-08 21h32.02.137489 +0530,
4,practice_images/002b.jpg,8,8,0,j,None,,,2.6494740000052843,0.11860769999475451,,,,,,,0,8,8,3,,,,,70.45770790000097,,,,,,,,,,,,,,,,,,,,,,,70.44125579999672,70.45770790000097,70.95766139999614,70.94119169999612,70.94259339999553,70.95766139999614,70.95766139999614,70.95766139999614,73.95765749999555,73.95765749999555,73.95765749999555,73.94108559999586,j,73.94111800000246,,,73.94112789999781,None,,,2.6494740000052843,0.11860769999475451,,,,,,,,,,,,,,,,,,,,,,,,,,,,,,,,,,,,00021,001,2025-11-08_21h31.55.785,MST_task,2024.2.2,59.98929790807444,2025-11-08 21h32.02.137489 +0530,
7,practice_images/166a.jpg,9,9,0,f,None,,,2.4884333000009065,0.17057449999992969,,,,,,,0,9,9,6,,,,,73.95765749999555,,,,,,,,,,,,,,,,,,,,,,,73.94118259999959,73.95765749999555,74.45762139999715,74.44108109999797,74.44237109999813,74.45762139999715,74.45762139999715,74.45762139999715,77.45763240000088,77.45763240000088,77.45763240000088,77.44103259999974,f,77.44106569999713,,,77.44107609999628,None,,,2.4884333000009065,0.17057449999992969,,,,,,,,,,,,,,,,,,,,,,,,,,,,,,,,,,,,00021,001,2025-11-08_21h31.55.785,MST_task,2024.2.2,59.98929790807444,2025-11-08 21h32.02.137489 +0530,
,,,,,,,,,,,,,,,,,,,,,,,,,,,,,,,,,,,,,,,,,,,,,,,,,,,,,,,,,,,,,,,,,,,,,,77.44111939999857,77.45763240000088,77.45763240000088,103.12423719999788,space,25.652153800001543,None,,,,,,,,,,,,,,,,,,,,,,,,,,,,,00021,001,2025-11-08_21h31.55.785,MST_task,2024.2.2,59.98929790807444,2025-11-08 21h32.02.137489 +0530,
,Objects\267a.jpg,0,0,0,,,,,,,None,j,0.20291890000225976,None,,,,,,,0,0,0,0,103.14047559999744,,,,,,,,,,,,,,,,,,,,,,,103.12494139999762,103.14047559999744,103.64032510000106,103.62403859999904,,,,,,,,,,,,,,,,,,,,,,,,,,103.63209099999949,103.64032510000106,103.64032510000106,103.64032510000106,106.64033149999887,106.64033149999887,106.64033149999887,106.62405159999616,shoe,None,106.62564269999712,106.64033149999887,106.64033149999887,106.85722979999991,j,0.20291890000225976,None,,,,,,,,,,,,00021,001,2025-11-08_21h31.55.785,MST_task,2024.2.2,59.98929790807444,2025-11-08 21h32.02.137489 +0530,
,Objects\255a.jpg,1,0,1,,,,,,,f,None,,,2.76225460000569,0.16613369999686256,,,,,1,0,1,0,106.87360020000051,,,,,,,,,,,,,,,,,,,,,,,106.85734049999883,106.87360020000051,107.37356100000034,107.35724269999628,,,,,,,,,,,,,,,,,,,,,,,,,,107.36179779999657,107.37356100000034,107.37356100000034,107.37356100000034,110.37354249999771,110.37354249999771,110.37354249999771,110.35715930000151,shoe,f,110.35720159999619,,,110.35721239999839,None,,,2.76225460000569,0.16613369999686256,,,,,,,,,,00021,001,2025-11-08_21h31.55.785,MST_task,2024.2.2,59.98929790807444,2025-11-08 21h32.02.137489 +0530,
,Objects\118a.jpg,2,0,2,,,,,,,f,None,,,1.9057858000014676,0.17411839999840595,,,,,2,0,2,0,110.37354249999771,,,,,,,,,,,,,,,,,,,,,,,110.35727110000153,110.37354249999771,110.87387370000215,110.85731859999942,,,,,,,,,,,,,,,,,,,,,,,,,,110.86327429999801,110.87387370000215,110.87387370000215,110.87387370000215,113.87345970000024,113.87345970000024,113.87345970000024,113.857050599996,shoe,f,113.8570905000015,,,113.85710039999685,None,,,1.9057858000014676,0.17411839999840595,,,,,,,,,,00021,001,2025-11-08_21h31.55.785,MST_task,2024.2.2,59.98929790807444,2025-11-08 21h32.02.137489 +0530,
,Objects\278a.jpg,3,0,3,,,,,,,j,None,,,2.844477700004063,None,,,,,3,0,3,0,113.87345970000024,,,,,,,,,,,,,,,,,,,,,,,113.8571598999988,113.87345970000024,114.37342440000066,114.35698669999692,,,,,,,,,,,,,,,,,,,,,,,,,,114.3633994999982,114.37342440000066,114.37342440000066,114.37342440000066,117.37343259999761,117.37343259999761,117.37343259999761,117.3569720000014,shoe,j,117.35701100000006,,,117.35702070000116,None,,,2.844477700004063,None,,,,,,,,,,00021,001,2025-11-08_21h31.55.785,MST_task,2024.2.2,59.98929790807444,2025-11-08 21h32.02.137489 +0530,
,Objects\031a.jpg,4,0,4,,,,,,,j,None,,,1.9838626999990083,0.13406750000285683,,,,,4,0,4,0,117.37343259999761,,,,,,,,,,,,,,,,,,,,,,,117.35707459999685,117.37343259999761,117.8733527000004,117.85689029999776,,,,,,,,,,,,,,,,,,,,,,,,,,117.86255729999539,117.8733527000004,117.8733527000004,117.8733527000004,120.87330980000115,120.87330980000115,120.87330980000115,120.85689419999835,shoe,j,120.85693280000123,,,120.8569434999954,None,,,1.9838626999990083,0.13406750000285683,,,,,,,,,,00021,001,2025-11-08_21h31.55.785,MST_task,2024.2.2,59.98929790807444,2025-11-08 21h32.02.137489 +0530,
,Objects\204a.jpg,5,0,5,,,,,,,f,None,,,2.0199282999965362,None,,,,,5,0,5,0,120.87330980000115,,,,,,,,,,,,,,,,,,,,,,,120.85703020000074,120.87330980000115,122.22330739999597,121.35685080000258,,,,,,,,,,,,,,,,,,,,,,,,,,122.2086261000004,122.22330739999597,122.22330739999597,122.22330739999597,,,,124.37335840000014,shoe,f,124.37339549999888,,,124.37340679999761,None,,,2.0199282999965362,None,,,,,,,,,,00021,001,2025-11-08_21h31.55.785,MST_task,2024.2.2,59.98929790807444,2025-11-08 21h32.02.137489 +0530,
,Objects\052a.jpg,6,0,6,,,,,,,f,None,,,1.3117571999973734,0.1778102000025683,,,,,6,0,6,0,124.39002430000255,,,,,,,,,,,,,,,,,,,,,,,124.37346070000058,124.39002430000255,124.88995219999924,124.87342709999939,,,,,,,,,,,,,,,,,,,,,,,,,,124.87564810000185,124.88995219999924,124.88995219999924,124.88995219999924,127.88994309999543,127.88994309999543,127.88994309999543,127.87349079999694,shoe,f,127.87352799999644,,,127.87354300000152,None,,,1.3117571999973734,0.1778102000025683,,,,,,,,,,00021,001,2025-11-08_21h31.55.785,MST_task,2024.2.2,59.98929790807444,2025-11-08 21h32.02.137489 +0530,
,Objects\331a.jpg,7,0,7,,,,,,,f,None,,,2.569835599999351,0.18609730000025593,,,,,7,0,7,0,127.88994309999543,,,,,,,,,,,,,,,,,,,,,,,127.87359529999958,127.88994309999543,128.39019369999733,128.37343690000125,,,,,,,,,,,,,,,,,,,,,,,,,,128.37971149999794,128.39019369999733,128.39019369999733,128.39019369999733,131.3898188999956,131.3898188999956,131.3898188999956,131.37345659999846,indoor,f,131.37457089999953,,,131.37458129999868,None,,,2.569835599999351,0.18609730000025593,,,,,,,,,,00021,001,2025-11-08_21h31.55.785,MST_task,2024.2.2,59.98929790807444,2025-11-08 21h32.02.137489 +0530,
,Objects\094a.jpg,8,0,8,,,,,,,None,f,3.075527700006205,None,,,,,,,8,0,8,0,131.3898188999956,,,,,,,,,,,,,,,,,,,,,,,131.37463240000216,131.3898188999956,131.8898044000016,131.87336109999887,,,,,,,,,,,,,,,,,,,,,,,,,,131.87846379999974,131.8898044000016,131.8898044000016,131.8898044000016,134.88980569999694,134.88980569999694,134.88980569999694,134.8733609999981,indoor,None,134.87339980000252,134.88980569999694,134.88980569999694,137.97331290000147,f,3.075527700006205,None,,,,,,,,,,,,00021,001,2025-11-08_21h31.55.785,MST_task,2024.2.2,59.98929790807444,2025-11-08 21h32.02.137489 +0530,
,Objects\372a.jpg,9,0,9,,,,,,,None,j,0.6882866000014474,None,,,,,,,9,0,9,0,137.98970700000064,,,,,,,,,,,,,,,,,,,,,,,137.97339149999607,137.98970700000064,138.4896688000008,138.47323979999783,,,,,,,,,,,,,,,,,,,,,,,,,,138.47813679999672,138.4896688000008,138.4896688000008,138.4896688000008,141.48963129999902,141.48963129999902,141.48963129999902,141.4732245999985,indoor,None,141.47326199999952,141.48963129999902,141.48963129999902,142.1901332999987,j,0.6882866000014474,None,,,,,,,,,,,,00021,001,2025-11-08_21h31.55.785,MST_task,2024.2.2,59.98929790807444,2025-11-08 21h32.02.137489 +0530,
,Objects\056a.jpg,10,0,10,,,,,,,f,None,,,2.3374535999973887,0.15286720000585774,,,,,10,0,10,0,142.20640999999887,,,,,,,,,,,,,,,,,,,,,,,142.19021120000252,142.20640999999887,142.72290709999652,142.68973630000255,,,,,,,,,,,,,,,,,,,,,,,,,,142.7100255999976,142.72290709999652,142.72290709999652,142.72290709999652,,,,145.70624610000232,indoor,f,145.7062900000019,,,145.70630040000106,None,,,2.3374535999973887,0.15286720000585774,,,,,,,,,,00021,001,2025-11-08_21h31.55.785,MST_task,2024.2.2,59.98929790807444,2025-11-08 21h32.02.137489 +0530,
,Objects\124a.jpg,11,0,11,,,,,,,None,j,0.2005180000051041,None,,,,,,,11,0,11,0,145.72286950000125,,,,,,,,,,,,,,,,,,,,,,,145.70635809999658,145.72286950000125,146.22284090000176,146.20633459999954,,,,,,,,,,,,,,,,,,,,,,,,,,146.20853099999658,146.22284090000176,146.22284090000176,146.22284090000176,149.2227997000009,149.2227997000009,149.2227997000009,149.20635239999683,indoor,None,149.2063832999993,149.2227997000009,149.2227997000009,149.4398000000001,j,0.2005180000051041,None,,,,,,,,,,,,00021,001,2025-11-08_21h31.55.785,MST_task,2024.2.2,59.98929790807444,2025-11-08 21h32.02.137489 +0530,
,Objects\221a.jpg,12,0,12,,,,,,,j,None,,,2.8346984000017983,None,,,,,12,0,12,0,149.45610219999799,,,,,,,,,,,,,,,,,,,,,,,149.4398669000002,149.45610219999799,149.95609449999756,149.93962259999535,,,,,,,,,,,,,,,,,,,,,,,,,,149.94520719999855,149.95609449999756,149.95609449999756,149.95609449999756,152.9560930000007,152.9560930000007,152.9560930000007,152.93964260000212,indoor,j,152.93968139999924,,,152.93969110000035,None,,,2.8346984000017983,None,,,,,,,,,,00021,001,2025-11-08_21h31.55.785,MST_task,2024.2.2,59.98929790807444,2025-11-08 21h32.02.137489 +0530,
,Objects\048a.jpg,13,0,13,,,,,,,j,None,,,2.730847499995434,0.13240180000138935,,,,,13,0,13,0,152.9560930000007,,,,,,,,,,,,,,,,,,,,,,,152.93974190000154,152.9560930000007,153.45601619999798,153.4396041,,,,,,,,,,,,,,,,,,,,,,,,,,153.44515549999778,153.45601619999798,153.45601619999798,153.45601619999798,156.45598159999645,156.45598159999645,156.45598159999645,156.43958069999644,indoor,j,156.43961789999594,,,156.43962739999552,None,,,2.730847499995434,0.13240180000138935,,,,,,,,,,00021,001,2025-11-08_21h31.55.785,MST_task,2024.2.2,59.98929790807444,2025-11-08 21h32.02.137489 +0530,
,Objects\346a.jpg,14,0,14,,,,,,,j,None,,,2.8638425999961328,None,,,,,14,0,14,0,156.45598159999645,,,,,,,,,,,,,,,,,,,,,,,156.43968460000178,156.45598159999645,156.95595319999848,156.93945849999727,,,,,,,,,,,,,,,,,,,,,,,,,,156.94652060000226,156.95595319999848,156.95595319999848,156.95595319999848,159.95588300000236,159.95588300000236,159.95588300000236,159.9394792000021,shoe,j,159.94100199999957,,,159.9410138000021,None,,,2.8638425999961328,None,,,,,,,,,,00021,001,2025-11-08_21h31.55.785,MST_task,2024.2.2,59.98929790807444,2025-11-08 21h32.02.137489 +0530,
,Objects\365a.jpg,15,0,15,,,,,,,f,None,,,1.9677880000017467,0.18170780000218656,,,,,15,0,15,0,159.95588300000236,,,,,,,,,,,,,,,,,,,,,,,159.94109449999814,159.95588300000236,160.45587109999906,160.43941719999566,,,,,,,,,,,,,,,,,,,,,,,,,,160.4435811000003,160.45587109999906,160.45587109999906,160.45587109999906,163.45586660000117,163.45586660000117,163.45586660000117,163.43937120000191,shoe,f,163.43940550000116,,,163.4394142999954,None,,,1.9677880000017467,0.18170780000218656,,,,,,,,,,00021,001,2025-11-08_21h31.55.785,MST_task,2024.2.2,59.98929790807444,2025-11-08 21h32.02.137489 +0530,
,Objects\352a.jpg,16,0,16,,,,,,,f,None,,,2.7515160999973887,0.18659330000082264,,,,,16,0,16,0,163.45586660000117,,,,,,,,,,,,,,,,,,,,,,,163.43946689999575,163.45586660000117,163.95580709999922,163.93936419999955,,,,,,,,,,,,,,,,,,,,,,,,,,163.9436429999987,163.95580709999922,163.95580709999922,163.95580709999922,166.95575919999828,166.95575919999828,166.95575919999828,166.9393140999964,shoe,f,166.93935659999988,,,166.93936749999557,None,,,2.7515160999973887,0.18659330000082264,,,,,,,,,,00021,001,2025-11-08_21h31.55.785,MST_task,2024.2.2,59.98929790807444,2025-11-08 21h32.02.137489 +0530,
,Objects\303a.jpg,17,0,17,,,,,,,j,None,,,2.680753200002073,0.15352119999442948,,,,,17,0,17,0,166.95575919999828,,,,,,,,,,,,,,,,,,,,,,,166.93942409999727,166.95575919999828,167.48929469999712,167.43928159999632,,,,,,,,,,,,,,,,,,,,,,,,,,167.46751190000214,167.48929469999712,167.48929469999712,167.48929469999712,,,,170.45570569999836,shoe,j,170.4557425000021,,,170.4557524999982,None,,,2.680753200002073,0.15352119999442948,,,,,,,,,,00021,001,2025-11-08_21h31.55.785,MST_task,2024.2.2,59.98929790807444,2025-11-08 21h32.02.137489 +0530,
,Objects\053a.jpg,18,0,18,,,,,,,f,None,,,1.9075964000003296,0.15838539999822387,,,,,18,0,18,0,170.47238559999823,,,,,,,,,,,,,,,,,,,,,,,170.45580820000032,170.47238559999823,170.97230870000203,170.9558629000021,,,,,,,,,,,,,,,,,,,,,,,,,,170.9611986000018,170.97230870000203,170.97230870000203,170.97230870000203,173.97235830000136,173.97235830000136,173.97235830000136,173.95585539999593,shoe,f,173.95589259999542,,,173.95590210000228,None,,,1.9075964000003296,0.15838539999822387,,,,,,,,,,00021,001,2025-11-08_21h31.55.785,MST_task,2024.2.2,59.98929790807444,2025-11-08 21h32.02.137489 +0530,
,Objects\018a.jpg,19,0,19,,,,,,,f,None,,,2.719805599997926,0.17788850000215461,,,,,19,0,19,0,173.97235830000136,,,,,,,,,,,,,,,,,,,,,,,173.95598620000237,173.97235830000136,174.47223459999805,174.45593779999763,,,,,,,,,,,,,,,,,,,,,,,,,,174.45829799999774,174.47223459999805,174.47223459999805,174.47223459999805,177.47211470000184,177.47211470000184,177.47211470000184,177.45569879999675,shoe,f,177.45573449999938,,,177.45574379999744,None,,,2.719805599997926,0.17788850000215461,,,,,,,,,,00021,001,2025-11-08_21h31.55.785,MST_task,2024.2.2,59.98929790807444,2025-11-08 21h32.02.137489 +0530,
,Objects\276a.jpg,20,0,20,,,,,,,None,j,0.8612515999993775,None,,,,,,,20,0,20,0,177.47211470000184,,,,,,,,,,,,,,,,,,,,,,,177.4557960999955,177.47211470000184,177.97210739999718,177.9555651999981,,,,,,,,,,,,,,,,,,,,,,,,,,177.95775049999793,177.97210739999718,177.97210739999718,177.97210739999718,180.97203169999557,180.97203169999557,180.97203169999557,180.95559530000173,shoe,None,180.9556281999976,180.97203169999557,180.97203169999557,181.83903629999986,j,0.8612515999993775,None,,,,,,,,,,,,00021,001,2025-11-08_21h31.55.785,MST_task,2024.2.2,59.98929790807444,2025-11-08 21h32.02.137489 +0530,
,Objects\326a.jpg,21,0,21,,,,,,,f,None,,,2.0445697999966796,0.16161519999877783,,,,,21,0,21,0,181.85535620000155,,,,,,,,,,,,,,,,,,,,,,,181.83910959999776,181.85535620000155,182.3553172999964,182.33885100000043,,,,,,,,,,,,,,,,,,,,,,,,,,182.34317799999553,182.3553172999964,182.3553172999964,182.3553172999964,185.35527680000087,185.35527680000087,185.35527680000087,185.33886450000136,indoor,f,185.34004090000235,,,185.34005500000058,None,,,2.0445697999966796,0.16161519999877783,,,,,,,,,,00021,001,2025-11-08_21h31.55.785,MST_task,2024.2.2,59.98929790807444,2025-11-08 21h32.02.137489 +0530,
,Objects\044a.jpg,22,0,22,,,,,,,f,None,,,2.773098300000129,0.1531226000006427,,,,,22,0,22,0,185.35527680000087,,,,,,,,,,,,,,,,,,,,,,,185.34011230000033,185.35527680000087,185.8552533999973,185.83889449999697,,,,,,,,,,,,,,,,,,,,,,,,,,185.84086489999754,185.8552533999973,185.8552533999973,185.8552533999973,188.85520800000086,188.85520800000086,188.85520800000086,188.83877999999822,indoor,f,188.83881490000203,,,188.83882350000204,None,,,2.773098300000129,0.1531226000006427,,,,,,,,,,00021,001,2025-11-08_21h31.55.785,MST_task,2024.2.2,59.98929790807444,2025-11-08 21h32.02.137489 +0530,
,Objects\108a.jpg,23,0,23,,,,,,,j,None,,,1.183837800002948,0.15815950000251178,,,,,23,0,23,0,188.85520800000086,,,,,,,,,,,,,,,,,,,,,,,188.83887400000094,188.85520800000086,189.37182929999835,189.33875550000084,,,,,,,,,,,,,,,,,,,,,,,,,,189.3621656999967,189.37182929999835,189.37182929999835,189.37182929999835,,,,192.35518800000136,indoor,j,192.35522559999663,,,192.35523599999578,None,,,1.183837800002948,0.15815950000251178,,,,,,,,,,00021,001,2025-11-08_21h31.55.785,MST_task,2024.2.2,59.98929790807444,2025-11-08 21h32.02.137489 +0530,
,Objects\275a.jpg,24,0,24,,,,,,,j,None,,,2.0873237999985577,0.13015669999731472,,,,,24,0,24,0,192.37179509999987,,,,,,,,,,,,,,,,,,,,,,,192.3552920000002,192.37179509999987,192.8719390999977,192.85527849999926,,,,,,,,,,,,,,,,,,,,,,,,,,192.8604295999976,192.8719390999977,192.8719390999977,192.8719390999977,195.87172389999614,195.87172389999614,195.87172389999614,195.85529329999554,indoor,j,195.85533079999732,,,195.85533949999808,None,,,2.0873237999985577,0.13015669999731472,,,,,,,,,,00021,001,2025-11-08_21h31.55.785,MST_task,2024.2.2,59.98929790807444,2025-11-08 21h32.02.137489 +0530,
,Objects\008a.jpg,25,0,25,,,,,,,f,None,,,1.6715598000009777,0.16676870000083,,,,,25,0,25,0,195.87172389999614,,,,,,,,,,,,,,,,,,,,,,,195.85539399999834,195.87172389999614,196.37169110000104,196.35528160000104,,,,,,,,,,,,,,,,,,,,,,,,,,196.36034220000147,196.37169110000104,196.37169110000104,196.37169110000104,199.37173569999868,199.37173569999868,199.37173569999868,199.3552137000006,indoor,f,199.35525010000129,,,199.3552589999963,None,,,1.6715598000009777,0.16676870000083,,,,,,,,,,00021,001,2025-11-08_21h31.55.785,MST_task,2024.2.2,59.98929790807444,2025-11-08 21h32.02.137489 +0530,
,Objects\238a.jpg,26,0,26,,,,,,,f,None,,,2.0135934999998426,0.16280920000281185,,,,,26,0,26,0,199.37173569999868,,,,,,,,,,,,,,,,,,,,,,,199.35531289999926,199.37173569999868,199.87161390000256,199.8551468000005,,,,,,,,,,,,,,,,,,,,,,,,,,199.86039090000122,199.87161390000256,199.87161390000256,199.87161390000256,202.87158110000018,202.87158110000018,202.87158110000018,202.85514359999797,indoor,f,202.85518439999578,,,202.85519470000145,None,,,2.0135934999998426,0.16280920000281185,,,,,,,,,,00021,001,2025-11-08_21h31.55.785,MST_task,2024.2.2,59.98929790807444,2025-11-08 21h32.02.137489 +0530,
,Objects\223a.jpg,27,0,27,,,,,,,j,None,,,2.364317299994582,0.14626310000312515,,,,,27,0,27,0,202.87158110000018,,,,,,,,,,,,,,,,,,,,,,,202.8552514999974,202.87158110000018,203.37156929999765,203.3551423999961,,,,,,,,,,,,,,,,,,,,,,,,,,203.3603490999958,203.37156929999765,203.37156929999765,203.37156929999765,206.3714977999989,206.3714977999989,206.3714977999989,206.35507069999585,indoor,j,206.35510749999958,,,206.3551168999984,None,,,2.364317299994582,0.14626310000312515,,,,,,,,,,00021,001,2025-11-08_21h31.55.785,MST_task,2024.2.2,59.98929790807444,2025-11-08 21h32.02.137489 +0530,
,Objects\201a.jpg,28,0,28,,,,,,,f,None,,,1.8838199999954668,0.18294360000436427,,,,,28,0,28,0,206.3714977999989,,,,,,,,,,,,,,,,,,,,,,,206.3551690000022,206.3714977999989,206.87149069999577,206.85498019999795,,,,,,,,,,,,,,,,,,,,,,,,,,206.8611316999959,206.87149069999577,206.87149069999577,206.87149069999577,209.87139490000118,209.87139490000118,209.87139490000118,209.85527379999985,shoe,f,209.85681209999893,,,209.85682339999767,None,,,1.8838199999954668,0.18294360000436427,,,,,,,,,,00021,001,2025-11-08_21h31.55.785,MST_task,2024.2.2,59.98929790807444,2025-11-08 21h32.02.137489 +0530,
,Objects\174a.jpg,29,0,29,,,,,,,None,f,0.2706088000049931,None,,,,,,,29,0,29,0,209.87139490000118,,,,,,,,,,,,,,,,,,,,,,,209.85688059999666,209.87139490000118,210.37140989999898,210.35488520000217,,,,,,,,,,,,,,,,,,,,,,,,,,210.35975699999835,210.37140989999898,210.37140989999898,210.37140989999898,213.37135029999627,213.37135029999627,213.37135029999627,213.3549342999977,shoe,None,213.3549683999954,213.37135029999627,213.37135029999627,213.65507799999614,f,0.2706088000049931,None,,,,,,,,,,,,00021,001,2025-11-08_21h31.55.785,MST_task,2024.2.2,59.98929790807444,2025-11-08 21h32.02.137489 +0530,
,Objects\014a.jpg,30,0,30,,,,,,,f,None,,,1.6477579999991576,0.17093120000208728,,,,,30,0,30,0,213.6713447000002,,,,,,,,,,,,,,,,,,,,,,,213.6551973999958,213.6713447000002,214.1713230000023,214.154813000001,,,,,,,,,,,,,,,,,,,,,,,,,,214.1568746999983,214.1713230000023,214.1713230000023,214.1713230000023,217.1712419999967,217.1712419999967,217.1712419999967,217.1550092999969,shoe,f,217.1550481000013,,,217.1550572999986,None,,,1.6477579999991576,0.17093120000208728,,,,,,,,,,00021,001,2025-11-08_21h31.55.785,MST_task,2024.2.2,59.98929790807444,2025-11-08 21h32.02.137489 +0530,
,Objects\171a.jpg,31,0,31,,,,,,,j,None,,,1.4879232000021148,0.159883100001025,,,,,31,0,31,0,217.1712419999967,,,,,,,,,,,,,,,,,,,,,,,217.15513490000012,217.1712419999967,217.67125639999722,217.65475300000253,,,,,,,,,,,,,,,,,,,,,,,,,,217.65682469999592,217.67125639999722,217.67125639999722,217.67125639999722,220.67116009999881,220.67116009999881,220.67116009999881,220.65478009999788,shoe,j,220.65481829999771,,,220.65482840000186,None,,,1.4879232000021148,0.159883100001025,,,,,,,,,,00021,001,2025-11-08_21h31.55.785,MST_task,2024.2.2,59.98929790807444,2025-11-08 21h32.02.137489 +0530,
,Objects\378a.jpg,32,0,32,,,,,,,None,j,0.7229364000013447,None,,,,,,,32,0,32,0,220.67116009999881,,,,,,,,,,,,,,,,,,,,,,,220.65491689999908,220.67116009999881,221.17115299999568,221.15472739999677,,,,,,,,,,,,,,,,,,,,,,,,,,221.15733010000258,221.17115299999568,221.17115299999568,221.17115299999568,224.1710929999972,224.1710929999972,224.1710929999972,224.15469450000091,shoe,None,224.15472439999576,224.1710929999972,224.1710929999972,224.90482399999746,j,0.7229364000013447,None,,,,,,,,,,,,00021,001,2025-11-08_21h31.55.785,MST_task,2024.2.2,59.98929790807444,2025-11-08 21h32.02.137489 +0530,
,Objects\116a.jpg,33,0,33,,,,,,,f,None,,,1.4800917000029585,0.18594779999693856,,,,,33,0,33,0,224.9211073999977,,,,,,,,,,,,,,,,,,,,,,,224.9049023999978,224.9211073999977,225.42106790000253,225.40471470000193,,,,,,,,,,,,,,,,,,,,,,,,,,225.40696729999763,225.42106790000253,225.42106790000253,225.42106790000253,228.42106519999652,228.42106519999652,228.42106519999652,228.40467889999854,shoe,f,228.40474220000033,,,228.40475300000253,None,,,1.4800917000029585,0.18594779999693856,,,,,,,,,,00021,001,2025-11-08_21h31.55.785,MST_task,2024.2.2,59.98929790807444,2025-11-08 21h32.02.137489 +0530,
,Objects\224a.jpg,34,0,34,,,,,,,f,None,,,1.554430999996839,0.17065549999824725,,,,,34,0,34,0,228.42106519999652,,,,,,,,,,,,,,,,,,,,,,,228.40483030000178,228.42106519999652,228.92100399999617,228.90463389999786,,,,,,,,,,,,,,,,,,,,,,,,,,228.90901109999686,228.92100399999617,228.92100399999617,228.92100399999617,231.92102799999702,231.92102799999702,231.92102799999702,231.90456350000022,shoe,f,231.90459980000014,,,231.90460860000167,None,,,1.554430999996839,0.17065549999824725,,,,,,,,,,00021,001,2025-11-08_21h31.55.785,MST_task,2024.2.2,59.98929790807444,2025-11-08 21h32.02.137489 +0530,
,Objects\046a.jpg,35,0,35,,,,,,,None,f,1.350607599997602,None,,,,,,,35,0,35,0,231.92102799999702,,,,,,,,,,,,,,,,,,,,,,,231.9046610000005,231.92102799999702,232.4209441999992,232.404472299997,,,,,,,,,,,,,,,,,,,,,,,,,,232.41046300000016,232.4209441999992,232.4209441999992,232.4209441999992,235.4208626999971,235.4208626999971,235.4208626999971,235.4044625999959,indoor,None,235.40566160000162,235.4208626999971,235.4208626999971,236.7878961000024,f,1.350607599997602,None,,,,,,,,,,,,00021,001,2025-11-08_21h31.55.785,MST_task,2024.2.2,59.98929790807444,2025-11-08 21h32.02.137489 +0530,
,Objects\252a.jpg,36,0,36,,,,,,,f,None,,,2.913428899999417,None,,,,,36,0,36,0,236.80446980000124,,,,,,,,,,,,,,,,,,,,,,,236.78796899999725,236.80446980000124,237.3043003999992,237.2877451000022,,,,,,,,,,,,,,,,,,,,,,,,,,237.2898478999996,237.3043003999992,237.3043003999992,237.3043003999992,240.3041755000013,240.3041755000013,240.3041755000013,240.28785190000053,indoor,f,240.28789410000172,,,240.28790519999893,None,,,2.913428899999417,None,,,,,,,,,,00021,001,2025-11-08_21h31.55.785,MST_task,2024.2.2,59.98929790807444,2025-11-08 21h32.02.137489 +0530,
,Objects\079a.jpg,37,0,37,,,,,,,f,None,,,2.160095500003081,0.16767479999543866,,,,,37,0,37,0,240.3041755000013,,,,,,,,,,,,,,,,,,,,,,,240.2879608000003,240.3041755000013,240.8041699000023,240.78775589999714,,,,,,,,,,,,,,,,,,,,,,,,,,240.78976580000017,240.8041699000023,240.8041699000023,240.8041699000023,243.80411530000129,243.80411530000129,243.80411530000129,243.7877118999968,indoor,f,243.78774829999747,,,243.7877576999963,None,,,2.160095500003081,0.16767479999543866,,,,,,,,,,00021,001,2025-11-08_21h31.55.785,MST_task,2024.2.2,59.98929790807444,2025-11-08 21h32.02.137489 +0530,
,Objects\104a.jpg,38,0,38,,,,,,,None,j,1.000997200004349,None,,,,,,,38,0,38,0,243.80411530000129,,,,,,,,,,,,,,,,,,,,,,,243.78781419999723,243.80411530000129,244.30410159999883,244.2875819999972,,,,,,,,,,,,,,,,,,,,,,,,,,244.28977450000093,244.30410159999883,244.30410159999883,244.30410159999883,247.3041744000002,247.3041744000002,247.3041744000002,247.28772749999916,indoor,None,247.28776520000247,247.3041744000002,247.3041744000002,248.32105829999637,j,1.000997200004349,None,,,,,,,,,,,,00021,001,2025-11-08_21h31.55.785,MST_task,2024.2.2,59.98929790807444,2025-11-08 21h32.02.137489 +0530,
,Objects\202a.jpg,39,0,39,,,,,,,j,None,,,1.442508000000089,0.16965399999753572,,,,,39,0,39,0,248.33740679999755,,,,,,,,,,,,,,,,,,,,,,,248.32113709999976,248.33740679999755,248.83738689999882,248.8207839999959,,,,,,,,,,,,,,,,,,,,,,,,,,248.82502810000005,248.83738689999882,248.83738689999882,248.83738689999882,251.8373195000022,251.8373195000022,251.8373195000022,251.8208317000026,indoor,j,251.82087049999973,,,251.8208803000016,None,,,1.442508000000089,0.16965399999753572,,,,,,,,,,00021,001,2025-11-08_21h31.55.785,MST_task,2024.2.2,59.98929790807444,2025-11-08 21h32.02.137489 +0530,
,Objects\190a.jpg,40,0,40,,,,,,,f,None,,,2.334346000003279,0.1697781999973813,,,,,40,0,40,0,251.8373195000022,,,,,,,,,,,,,,,,,,,,,,,251.82093309999618,251.8373195000022,252.3372756999961,252.3207317999986,,,,,,,,,,,,,,,,,,,,,,,,,,252.3254964000007,252.3372756999961,252.3372756999961,252.3372756999961,255.33721279999736,255.33721279999736,255.33721279999736,255.32089919999999,indoor,f,255.32093850000092,,,255.32094849999703,None,,,2.334346000003279,0.1697781999973813,,,,,,,,,,00021,001,2025-11-08_21h31.55.785,MST_task,2024.2.2,59.98929790807444,2025-11-08 21h32.02.137489 +0530,
,Objects\073a.jpg,41,0,41,,,,,,,f,None,,,1.591352299998107,0.1823971999983769,,,,,41,0,41,0,255.33721279999736,,,,,,,,,,,,,,,,,,,,,,,255.3210048999972,255.33721279999736,255.837200199996,255.82064510000055,,,,,,,,,,,,,,,,,,,,,,,,,,255.8226530999964,255.837200199996,255.837200199996,255.837200199996,258.8371360999954,258.8371360999954,258.8371360999954,258.8209035999971,indoor,f,258.82094060000236,,,258.82094959999813,None,,,1.591352299998107,0.1823971999983769,,,,,,,,,,00021,001,2025-11-08_21h31.55.785,MST_task,2024.2.2,59.98929790807444,2025-11-08 21h32.02.137489 +0530,
,Objects\376a.jpg,42,0,42,,,,,,,j,None,,,2.7162721999993664,0.12847490000422113,,,,,42,0,42,0,258.8371360999954,,,,,,,,,,,,,,,,,,,,,,,258.8210070999994,258.8371360999954,259.33709819999785,259.3207618000015,,,,,,,,,,,,,,,,,,,,,,,,,,259.3246588999973,259.33709819999785,259.33709819999785,259.33709819999785,262.33704410000064,262.33704410000064,262.33704410000064,262.3209094999984,shoe,j,262.3224293999956,,,262.32244340000034,None,,,2.7162721999993664,0.12847490000422113,,,,,,,,,,00021,001,2025-11-08_21h31.55.785,MST_task,2024.2.2,59.98929790807444,2025-11-08 21h32.02.137489 +0530,
,Objects\165a.jpg,43,0,43,,,,,,,f,None,,,1.3666549999979907,0.1509239000006346,,,,,43,0,43,0,262.33704410000064,,,,,,,,,,,,,,,,,,,,,,,262.3224984999979,262.33704410000064,262.8370560999974,262.8205601000009,,,,,,,,,,,,,,,,,,,,,,,,,,262.8227226000017,262.8370560999974,262.8370560999974,262.8370560999974,265.8369754000014,265.8369754000014,265.8369754000014,265.82051939999656,shoe,f,265.8205547999969,,,265.820564499998,None,,,1.3666549999979907,0.1509239000006346,,,,,,,,,,00021,001,2025-11-08_21h31.55.785,MST_task,2024.2.2,59.98929790807444,2025-11-08 21h32.02.137489 +0530,
,Objects\272a.jpg,44,0,44,,,,,,,f,None,,,1.9131211999992956,0.155533999997715,,,,,44,0,44,0,265.8369754000014,,,,,,,,,,,,,,,,,,,,,,,265.8206476999985,265.8369754000014,266.3368902000002,266.32039119999536,,,,,,,,,,,,,,,,,,,,,,,,,,266.32481389999884,266.3368902000002,266.3368902000002,266.3368902000002,269.33682869999757,269.33682869999757,269.33682869999757,269.32040199999756,shoe,f,269.3204373999979,,,269.3204463000002,None,,,1.9131211999992956,0.155533999997715,,,,,,,,,,00021,001,2025-11-08_21h31.55.785,MST_task,2024.2.2,59.98929790807444,2025-11-08 21h32.02.137489 +0530,
,Objects\383a.jpg,45,0,45,,,,,,,j,None,,,2.2010588999983156,0.13885190000291914,,,,,45,0,45,0,269.33682869999757,,,,,,,,,,,,,,,,,,,,,,,269.3205222999968,269.33682869999757,269.83678679999866,269.82041480000044,,,,,,,,,,,,,,,,,,,,,,,,,,269.8255513999975,269.83678679999866,269.83678679999866,269.83678679999866,272.83675489999587,272.83675489999587,272.83675489999587,272.82043999999587,shoe,j,272.820475499997,,,272.82048770000256,None,,,2.2010588999983156,0.13885190000291914,,,,,,,,,,00021,001,2025-11-08_21h31.55.785,MST_task,2024.2.2,59.98929790807444,2025-11-08 21h32.02.137489 +0530,
,Objects\089a.jpg,46,0,46,,,,,,,j,None,,,1.993067899995367,0.12930259999848204,,,,,46,0,46,0,272.83675489999587,,,,,,,,,,,,,,,,,,,,,,,272.8205420000013,272.83675489999587,273.3367084999991,273.3203599999979,,,,,,,,,,,,,,,,,,,,,,,,,,273.3255874000024,273.3367084999991,273.3367084999991,273.3367084999991,276.33670269999857,276.33670269999857,276.33670269999857,276.3203652000011,shoe,j,276.3204044000013,,,276.32041339999705,None,,,1.993067899995367,0.12930259999848204,,,,,,,,,,00021,001,2025-11-08_21h31.55.785,MST_task,2024.2.2,59.98929790807444,2025-11-08 21h32.02.137489 +0530,
,Objects\109a.jpg,47,0,47,,,,,,,j,None,,,1.4438331999990623,0.16052939999644877,,,,,47,0,47,0,276.33670269999857,,,,,,,,,,,,,,,,,,,,,,,276.320490099999,276.33670269999857,276.83672990000196,276.82014609999896,,,,,,,,,,,,,,,,,,,,,,,,,,276.82226889999583,276.83672990000196,276.83672990000196,276.83672990000196,279.83660090000194,279.83660090000194,279.83660090000194,279.82019439999567,shoe,j,279.82023160000244,,,279.8202409000005,None,,,1.4438331999990623,0.16052939999644877,,,,,,,,,,00021,001,2025-11-08_21h31.55.785,MST_task,2024.2.2,59.98929790807444,2025-11-08 21h32.02.137489 +0530,
,Objects\364a.jpg,48,0,48,,,,,,,f,None,,,1.4786623000036343,0.15881709999666782,,,,,48,0,48,0,279.83660090000194,,,,,,,,,,,,,,,,,,,,,,,279.82032239999535,279.83660090000194,280.3365687999976,280.32010530000116,,,,,,,,,,,,,,,,,,,,,,,,,,280.3241898999986,280.3365687999976,280.3365687999976,280.3365687999976,283.33654509999906,283.33654509999906,283.33654509999906,283.3202170000004,shoe,f,283.3202530999988,,,283.3202620000011,None,,,1.4786623000036343,0.15881709999666782,,,,,,,,,,00021,001,2025-11-08_21h31.55.785,MST_task,2024.2.2,59.98929790807444,2025-11-08 21h32.02.137489 +0530,
,Objects\266a.jpg,49,0,49,,,,,,,j,None,,,1.852422399999341,0.14433370000188006,,,,,49,0,49,0,283.33654509999906,,,,,,,,,,,,,,,,,,,,,,,283.3203422000006,283.33654509999906,283.86990220000007,283.8201076999976,,,,,,,,,,,,,,,,,,,,,,,,,,283.84858710000117,283.86990220000007,283.86990220000007,283.86990220000007,,,,286.8365957999995,indoor,j,286.8378664999982,,,286.8378827999986,None,,,1.852422399999341,0.14433370000188006,,,,,,,,,,00021,001,2025-11-08_21h31.55.785,MST_task,2024.2.2,59.98929790807444,2025-11-08 21h32.02.137489 +0530,
,Objects\323a.jpg,50,0,50,,,,,,,None,j,0.09309639999992214,None,,,,,,,50,0,50,0,286.85312339999655,,,,,,,,,,,,,,,,,,,,,,,286.8379520000017,286.85312339999655,287.35307589999866,287.336598599999,,,,,,,,,,,,,,,,,,,,,,,,,,287.3411051000003,287.35307589999866,287.35307589999866,287.35307589999866,290.35304259999975,290.35304259999975,290.35304259999975,290.3367741999973,indoor,None,290.33680509999976,290.35304259999975,290.35304259999975,290.453451399997,j,0.09309639999992214,None,,,,,,,,,,,,00021,001,2025-11-08_21h31.55.785,MST_task,2024.2.2,59.98929790807444,2025-11-08 21h32.02.137489 +0530,
,Objects\247a.jpg,51,0,51,,,,,,,j,None,,,1.9375548000025447,0.12290490000304999,,,,,51,0,51,0,290.4697343000007,,,,,,,,,,,,,,,,,,,,,,,290.4535182999971,290.4697343000007,290.9696709999989,290.9532937999975,,,,,,,,,,,,,,,,,,,,,,,,,,290.9585489999954,290.9696709999989,290.9696709999989,290.9696709999989,293.9696292000008,293.9696292000008,293.9696292000008,293.95329859999765,indoor,j,293.95333499999833,,,293.9533445999987,None,,,1.9375548000025447,0.12290490000304999,,,,,,,,,,00021,001,2025-11-08_21h31.55.785,MST_task,2024.2.2,59.98929790807444,2025-11-08 21h32.02.137489 +0530,
,Objects\322a.jpg,52,0,52,,,,,,,j,None,,,2.0050663000001805,0.1291678999987198,,,,,52,0,52,0,293.9696292000008,,,,,,,,,,,,,,,,,,,,,,,293.9534014999954,293.9696292000008,294.4696016000016,294.4531033999956,,,,,,,,,,,,,,,,,,,,,,,,,,294.45827740000095,294.4696016000016,294.4696016000016,294.4696016000016,297.4695587000024,297.4695587000024,297.4695587000024,297.45311899999797,indoor,j,297.45315459999983,,,297.4531674999962,None,,,2.0050663000001805,0.1291678999987198,,,,,,,,,,00021,001,2025-11-08_21h31.55.785,MST_task,2024.2.2,59.98929790807444,2025-11-08 21h32.02.137489 +0530,
,Objects\169a.jpg,53,0,53,,,,,,,None,f,0.6612695000003441,None,,,,,,,53,0,53,0,297.4695587000024,,,,,,,,,,,,,,,,,,,,,,,297.4532263000001,297.4695587000024,297.98619289999624,297.95313460000034,,,,,,,,,,,,,,,,,,,,,,,,,,297.9713010999985,297.98619289999624,297.98619289999624,297.98619289999624,,,,300.9694820000004,indoor,None,300.9695320999963,300.98616429999674,300.98616429999674,301.65320609999617,f,0.6612695000003441,None,,,,,,,,,,,,00021,001,2025-11-08_21h31.55.785,MST_task,2024.2.2,59.98929790807444,2025-11-08 21h32.02.137489 +0530,
,Objects\377a.jpg,54,0,54,,,,,,,j,None,,,1.8284438000046066,0.14928499999950873,,,,,54,0,54,0,301.669467300002,,,,,,,,,,,,,,,,,,,,,,,301.65328969999973,301.669467300002,302.16943059999903,302.1529250999956,,,,,,,,,,,,,,,,,,,,,,,,,,302.1571882999997,302.16943059999903,302.16943059999903,302.16943059999903,305.16940420000174,305.16940420000174,305.16940420000174,305.1529999999984,indoor,j,305.1530367000014,,,305.1530457999979,None,,,1.8284438000046066,0.14928499999950873,,,,,,,,,,00021,001,2025-11-08_21h31.55.785,MST_task,2024.2.2,59.98929790807444,2025-11-08 21h32.02.137489 +0530,
,Objects\050a.jpg,55,0,55,,,,,,,f,None,,,1.6318713999935426,0.09036380000179633,,,,,55,0,55,0,305.16940420000174,,,,,,,,,,,,,,,,,,,,,,,305.15309819999675,305.16940420000174,305.6693554000012,305.6528610999958,,,,,,,,,,,,,,,,,,,,,,,,,,305.6579139999958,305.6693554000012,305.6693554000012,305.6693554000012,308.6693520999979,308.6693520999979,308.6693520999979,308.6530178999965,indoor,f,308.6530600999977,,,308.65307010000106,None,,,1.6318713999935426,0.09036380000179633,,,,,,,,,,00021,001,2025-11-08_21h31.55.785,MST_task,2024.2.2,59.98929790807444,2025-11-08 21h32.02.137489 +0530,
,Objects\166a.jpg,56,0,56,,,,,,,f,None,,,2.469733300000371,0.14812710000114748,,,,,56,0,56,0,308.6693520999979,,,,,,,,,,,,,,,,,,,,,,,308.65312789999734,308.6693520999979,309.1692724999957,309.1529073999991,,,,,,,,,,,,,,,,,,,,,,,,,,309.1566759999987,309.1692724999957,309.1692724999957,309.1692724999957,312.16921680000087,312.16921680000087,312.16921680000087,312.1531504000013,shoe,f,312.15467199999694,,,312.1546828999999,None,,,2.469733300000371,0.14812710000114748,,,,,,,,,,00021,001,2025-11-08_21h31.55.785,MST_task,2024.2.2,59.98929790807444,2025-11-08 21h32.02.137489 +0530,
,Objects\369a.jpg,57,0,57,,,,,,,f,None,,,1.8556815999982064,0.1606672999987495,,,,,57,0,57,0,312.16921680000087,,,,,,,,,,,,,,,,,,,,,,,312.15477159999864,312.16921680000087,312.6692444,312.65283890000137,,,,,,,,,,,,,,,,,,,,,,,,,,312.65509709999606,312.6692444,312.6692444,312.6692444,315.6691658999989,315.6691658999989,315.6691658999989,315.652751499998,shoe,f,315.6527874000021,,,315.65279649999866,None,,,1.8556815999982064,0.1606672999987495,,,,,,,,,,00021,001,2025-11-08_21h31.55.785,MST_task,2024.2.2,59.98929790807444,2025-11-08 21h32.02.137489 +0530,
,Objects\337a.jpg,58,0,58,,,,,,,j,None,,,2.2227320999954827,0.1293258000005153,,,,,58,0,58,0,315.6691658999989,,,,,,,,,,,,,,,,,,,,,,,315.65288110000256,315.6691658999989,316.1691378999967,316.1528659999967,,,,,,,,,,,,,,,,,,,,,,,,,,316.15846549999696,316.1691378999967,316.1691378999967,316.1691378999967,319.16912729999603,319.16912729999603,319.16912729999603,319.1528180999958,shoe,j,319.1528565999979,,,319.1528665000005,None,,,2.2227320999954827,0.1293258000005153,,,,,,,,,,00021,001,2025-11-08_21h31.55.785,MST_task,2024.2.2,59.98929790807444,2025-11-08 21h32.02.137489 +0530,
,Objects\192a.jpg,59,0,59,,,,,,,f,None,,,1.1584235999980592,0.1754277000000002,,,,,59,0,59,0,319.16912729999603,,,,,,,,,,,,,,,,,,,,,,,319.15292559999943,319.16912729999603,319.6690641999958,319.65256399999635,,,,,,,,,,,,,,,,,,,,,,,,,,319.65762099999847,319.6690641999958,319.6690641999958,319.6690641999958,322.6690200000012,322.6690200000012,322.6690200000012,322.6526221999957,shoe,f,322.65266110000084,,,322.65267299999687,None,,,1.1584235999980592,0.1754277000000002,,,,,,,,,,00021,001,2025-11-08_21h31.55.785,MST_task,2024.2.2,59.98929790807444,2025-11-08 21h32.02.137489 +0530,
,Objects\374a.jpg,60,0,60,,,,,,,f,None,,,0.9389845999976387,0.1776986000040779,,,,,60,0,60,0,322.6690200000012,,,,,,,,,,,,,,,,,,,,,,,322.6527274999971,322.6690200000012,323.16898729999957,323.15250019999803,,,,,,,,,,,,,,,,,,,,,,,,,,323.1577086999969,323.16898729999957,323.16898729999957,323.16898729999957,326.1689547999995,326.1689547999995,326.1689547999995,326.1526079999967,shoe,f,326.1526449000012,,,326.1526539999977,None,,,0.9389845999976387,0.1776986000040779,,,,,,,,,,00021,001,2025-11-08_21h31.55.785,MST_task,2024.2.2,59.98929790807444,2025-11-08 21h32.02.137489 +0530,
,Objects\319a.jpg,61,0,61,,,,,,,f,None,,,1.837008299997251,0.14518089999910444,,,,,61,0,61,0,326.1689547999995,,,,,,,,,,,,,,,,,,,,,,,326.1527333999984,326.1689547999995,326.66891359999863,326.6524170999983,,,,,,,,,,,,,,,,,,,,,,,,,,326.657441299998,326.66891359999863,326.66891359999863,326.66891359999863,329.6688783999998,329.6688783999998,329.6688783999998,329.65250679999735,shoe,f,329.6525451999987,,,329.6525550000006,None,,,1.837008299997251,0.14518089999910444,,,,,,,,,,00021,001,2025-11-08_21h31.55.785,MST_task,2024.2.2,59.98929790807444,2025-11-08 21h32.02.137489 +0530,
,Objects\282a.jpg,62,0,62,,,,,,,j,None,,,2.122746399996686,0.13838760000362527,,,,,62,0,62,0,329.6688783999998,,,,,,,,,,,,,,,,,,,,,,,329.6526425999982,329.6688783999998,330.1688762999984,330.1524547000008,,,,,,,,,,,,,,,,,,,,,,,,,,330.15853210000205,330.1688762999984,330.1688762999984,330.1688762999984,333.16878339999676,333.16878339999676,333.16878339999676,333.15277649999916,shoe,j,333.15282260000095,,,333.1528332000016,None,,,2.122746399996686,0.13838760000362527,,,,,,,,,,00021,001,2025-11-08_21h31.55.785,MST_task,2024.2.2,59.98929790807444,2025-11-08 21h32.02.137489 +0530,
,Objects\033a.jpg,63,0,63,,,,,,,None,j,0.9305938000034075,None,,,,,,,63,0,63,0,333.16878339999676,,,,,,,,,,,,,,,,,,,,,,,333.15289759999723,333.16878339999676,333.6688023000024,333.6522676999957,,,,,,,,,,,,,,,,,,,,,,,,,,333.6555174000023,333.6688023000024,333.6688023000024,333.6688023000024,336.6686958999999,336.6686958999999,336.6686958999999,336.6523954000004,indoor,None,336.65361100000155,336.6686958999999,336.6686958999999,337.6024916999959,j,0.9305938000034075,None,,,,,,,,,,,,00021,001,2025-11-08_21h31.55.785,MST_task,2024.2.2,59.98929790807444,2025-11-08 21h32.02.137489 +0530,
,Objects\212a.jpg,64,0,64,,,,,,,j,None,,,1.8071401999986847,0.13443659999757074,,,,,64,0,64,0,337.61873999999807,,,,,,,,,,,,,,,,,,,,,,,337.60256529999606,337.61873999999807,338.1186690999966,338.10227949999535,,,,,,,,,,,,,,,,,,,,,,,,,,338.1083002000014,338.1186690999966,338.1186690999966,338.1186690999966,341.11872149999544,341.11872149999544,341.11872149999544,341.1021963000021,indoor,j,341.1022329999978,,,341.1022421000016,None,,,1.8071401999986847,0.13443659999757074,,,,,,,,,,00021,001,2025-11-08_21h31.55.785,MST_task,2024.2.2,59.98929790807444,2025-11-08 21h32.02.137489 +0530,
,Objects\316a.jpg,65,0,65,,,,,,,None,j,0.8051045000029262,None,,,,,,,65,0,65,0,341.11872149999544,,,,,,,,,,,,,,,,,,,,,,,341.1022948999962,341.11872149999544,341.6185853999996,341.60212850000244,,,,,,,,,,,,,,,,,,,,,,,,,,341.6067436000012,341.6185853999996,341.6185853999996,341.6185853999996,344.6185590000023,344.6185590000023,344.6185590000023,344.6022315000009,indoor,None,344.60226780000085,344.6185590000023,344.6185590000023,345.4355641000002,j,0.8051045000029262,None,,,,,,,,,,,,00021,001,2025-11-08_21h31.55.785,MST_task,2024.2.2,59.98929790807444,2025-11-08 21h32.02.137489 +0530,
,Objects\147a.jpg,66,0,66,,,,,,,f,None,,,1.537428199997521,0.15417600000364473,,,,,66,0,66,0,345.45188000000053,,,,,,,,,,,,,,,,,,,,,,,345.43564270000206,345.45188000000053,345.9518279999975,345.93548429999646,,,,,,,,,,,,,,,,,,,,,,,,,,345.94114160000026,345.9518279999975,345.9518279999975,345.9518279999975,348.9517981999961,348.9517981999961,348.9517981999961,348.9353398000021,indoor,f,348.93537639999704,,,348.93538579999586,None,,,1.537428199997521,0.15417600000364473,,,,,,,,,,00021,001,2025-11-08_21h31.55.785,MST_task,2024.2.2,59.98929790807444,2025-11-08 21h32.02.137489 +0530,
,Objects\117a.jpg,67,0,67,,,,,,,None,j,1.4785229999979492,None,,,,,,,67,0,67,0,348.9517981999961,,,,,,,,,,,,,,,,,,,,,,,348.93543879999925,348.9517981999961,349.45176029999857,349.4352942999976,,,,,,,,,,,,,,,,,,,,,,,,,,349.43754310000077,349.45176029999857,349.45176029999857,349.45176029999857,352.451747799998,352.451747799998,352.451747799998,352.43540019999637,indoor,None,352.43543829999544,352.451747799998,352.451747799998,353.93551070000103,j,1.4785229999979492,None,,,,,,,,,,,,00021,001,2025-11-08_21h31.55.785,MST_task,2024.2.2,59.98929790807444,2025-11-08 21h32.02.137489 +0530,
,Objects\194a.jpg,68,0,68,,,,,,,None,j,0.26975929999753134,None,,,,,,,68,0,68,0,353.9516858999996,,,,,,,,,,,,,,,,,,,,,,,353.9355990999975,353.9516858999996,354.45164929999737,354.43532140000025,,,,,,,,,,,,,,,,,,,,,,,,,,354.4398008999997,354.45164929999737,354.45164929999737,354.45164929999737,357.4516175999961,357.4516175999961,357.4516175999961,357.4351683999994,indoor,None,357.4351974000019,357.4516175999961,357.4516175999961,357.7352083000005,j,0.26975929999753134,None,,,,,,,,,,,,00021,001,2025-11-08_21h31.55.785,MST_task,2024.2.2,59.98929790807444,2025-11-08 21h32.02.137489 +0530,
,Objects\279a.jpg,69,0,69,,,,,,,j,None,,,1.920401999996102,0.10598710000340361,,,,,69,0,69,0,357.7516037000023,,,,,,,,,,,,,,,,,,,,,,,357.7352755999964,357.7516037000023,358.2515678999989,358.2351826000013,,,,,,,,,,,,,,,,,,,,,,,,,,358.2404660999964,358.2515678999989,358.2515678999989,358.2515678999989,361.25153670000145,361.25153670000145,361.25153670000145,361.2350948999956,indoor,j,361.2351321000024,,,361.2351415000012,None,,,1.920401999996102,0.10598710000340361,,,,,,,,,,00021,001,2025-11-08_21h31.55.785,MST_task,2024.2.2,59.98929790807444,2025-11-08 21h32.02.137489 +0530,
,Objects\179a.jpg,70,0,70,,,,,,,f,None,,,2.621679200005019,0.12649119999696268,,,,,70,0,70,0,361.25153670000145,,,,,,,,,,,,,,,,,,,,,,,361.2352307999972,361.25153670000145,361.75149599999713,361.7350385999962,,,,,,,,,,,,,,,,,,,,,,,,,,361.7387763000006,361.75149599999713,361.75149599999713,361.75149599999713,364.7514469000016,364.7514469000016,364.7514469000016,364.7351396000013,shoe,f,364.7366314999963,,,364.73664299999655,None,,,2.621679200005019,0.12649119999696268,,,,,,,,,,00021,001,2025-11-08_21h31.55.785,MST_task,2024.2.2,59.98929790807444,2025-11-08 21h32.02.137489 +0530,
,Objects\379a.jpg,71,0,71,,,,,,,j,None,,,2.6799958999981754,0.1305214000021806,,,,,71,0,71,0,364.7514469000016,,,,,,,,,,,,,,,,,,,,,,,364.7367250000025,364.7514469000016,365.2514136999962,365.2349232999986,,,,,,,,,,,,,,,,,,,,,,,,,,365.2371903000021,365.2514136999962,365.2514136999962,365.2514136999962,368.2513829000018,368.2513829000018,368.2513829000018,368.23496989999694,shoe,j,368.2350110999978,,,368.2350210000004,None,,,2.6799958999981754,0.1305214000021806,,,,,,,,,,00021,001,2025-11-08_21h31.55.785,MST_task,2024.2.2,59.98929790807444,2025-11-08 21h32.02.137489 +0530,
,Objects\039a.jpg,72,0,72,,,,,,,j,None,,,1.6642294999983278,0.1196847000028356,,,,,72,0,72,0,368.2513829000018,,,,,,,,,,,,,,,,,,,,,,,368.2351097999999,368.2513829000018,368.7513414999994,368.73484140000073,,,,,,,,,,,,,,,,,,,,,,,,,,368.7370951999983,368.7513414999994,368.7513414999994,368.7513414999994,371.7512743999978,371.7512743999978,371.7512743999978,371.73488129999896,shoe,j,371.73491600000125,,,371.73492599999736,None,,,1.6642294999983278,0.1196847000028356,,,,,,,,,,00021,001,2025-11-08_21h31.55.785,MST_task,2024.2.2,59.98929790807444,2025-11-08 21h32.02.137489 +0530,
,Objects\071a.jpg,73,0,73,,,,,,,j,None,,,2.1338434999997844,0.11213340000540484,,,,,73,0,73,0,371.7512743999978,,,,,,,,,,,,,,,,,,,,,,,371.73500539999804,371.7512743999978,372.2512721999956,372.2347557999965,,,,,,,,,,,,,,,,,,,,,,,,,,372.2370613999956,372.2512721999956,372.2512721999956,372.2512721999956,375.25123809999786,375.25123809999786,375.25123809999786,375.2348192999998,shoe,j,375.23485470000014,,,375.23486389999744,None,,,2.1338434999997844,0.11213340000540484,,,,,,,,,,00021,001,2025-11-08_21h31.55.785,MST_task,2024.2.2,59.98929790807444,2025-11-08 21h32.02.137489 +0530,
,Objects\196a.jpg,74,0,74,,,,,,,f,None,,,1.382558599994809,0.15387770000234013,,,,,74,0,74,0,375.25123809999786,,,,,,,,,,,,,,,,,,,,,,,375.2349460999976,375.25123809999786,375.75119599999744,375.734701399997,,,,,,,,,,,,,,,,,,,,,,,,,,375.7377376000004,375.75119599999744,375.75119599999744,375.75119599999744,378.7511239000014,378.7511239000014,378.7511239000014,378.734778500002,shoe,f,378.7348123999982,,,378.73482449999574,None,,,1.382558599994809,0.15387770000234013,,,,,,,,,,00021,001,2025-11-08_21h31.55.785,MST_task,2024.2.2,59.98929790807444,2025-11-08 21h32.02.137489 +0530,
,Objects\199a.jpg,75,0,75,,,,,,,f,None,,,1.916243100000429,0.13432160000229487,,,,,75,0,75,0,378.7511239000014,,,,,,,,,,,,,,,,,,,,,,,378.73487909999676,378.7511239000014,379.2511178999994,379.2347410000002,,,,,,,,,,,,,,,,,,,,,,,,,,379.2394931000017,379.2511178999994,379.2511178999994,379.2511178999994,382.2511156999972,382.2511156999972,382.2511156999972,382.23474339999666,shoe,f,382.23478500000056,,,382.2347951999982,None,,,1.916243100000429,0.13432160000229487,,,,,,,,,,00021,001,2025-11-08_21h31.55.785,MST_task,2024.2.2,59.98929790807444,2025-11-08 21h32.02.137489 +0530,
,Objects\230a.jpg,76,0,76,,,,,,,j,None,,,1.0904515000001993,0.1362500999966869,,,,,76,0,76,0,382.2511156999972,,,,,,,,,,,,,,,,,,,,,,,382.2348555999997,382.2511156999972,382.7510772999958,382.7345653000011,,,,,,,,,,,,,,,,,,,,,,,,,,382.739127599998,382.7510772999958,382.7510772999958,382.7510772999958,385.7510103999957,385.7510103999957,385.7510103999957,385.7345920000007,shoe,j,385.7346338999996,,,385.73464380000223,None,,,1.0904515000001993,0.1362500999966869,,,,,,,,,,00021,001,2025-11-08_21h31.55.785,MST_task,2024.2.2,59.98929790807444,2025-11-08 21h32.02.137489 +0530,
,Objects\067a.jpg,77,0,77,,,,,,,j,None,,,2.609806699998444,0.09519799999543466,,,,,77,0,77,0,385.7510103999957,,,,,,,,,,,,,,,,,,,,,,,385.7347346999959,385.7510103999957,386.25096869999834,386.2345693000025,,,,,,,,,,,,,,,,,,,,,,,,,,386.2407009000017,386.25096869999834,386.25096869999834,386.25096869999834,389.2509385000012,389.2509385000012,389.2509385000012,389.23450389999925,indoor,j,389.23565640000015,,,389.23566749999736,None,,,2.609806699998444,0.09519799999543466,,,,,,,,,,00021,001,2025-11-08_21h31.55.785,MST_task,2024.2.2,59.98929790807444,2025-11-08 21h32.02.137489 +0530,
,Objects\130a.jpg,78,0,78,,,,,,,f,None,,,2.127329800001462,0.14442339999368414,,,,,78,0,78,0,389.2509385000012,,,,,,,,,,,,,,,,,,,,,,,389.23572019999847,389.2509385000012,389.7675833999965,389.73438680000254,,,,,,,,,,,,,,,,,,,,,,,,,,389.75724710000213,389.7675833999965,389.7675833999965,389.7675833999965,,,,392.75088700000197,indoor,f,392.750947200002,,,392.7509577999954,None,,,2.127329800001462,0.14442339999368414,,,,,,,,,,00021,001,2025-11-08_21h31.55.785,MST_task,2024.2.2,59.98929790807444,2025-11-08 21h32.02.137489 +0530,
,Objects\065a.jpg,79,0,79,,,,,,,f,None,,,2.8498254000005545,None,,,,,79,0,79,0,392.767520399997,,,,,,,,,,,,,,,,,,,,,,,392.751016299997,392.767520399997,393.2674810999961,393.25107240000216,,,,,,,,,,,,,,,,,,,,,,,,,,393.2530620999969,393.2674810999961,393.2674810999961,393.2674810999961,396.2674523999958,396.2674523999958,396.2674523999958,396.25106080000114,indoor,f,396.2510962000015,,,396.2511050999965,None,,,2.8498254000005545,None,,,,,,,,,,00021,001,2025-11-08_21h31.55.785,MST_task,2024.2.2,59.98929790807444,2025-11-08 21h32.02.137489 +0530,
,Objects\206a.jpg,80,0,80,,,,,,,f,None,,,2.436526199999207,0.12941150000551715,,,,,80,0,80,0,396.2674523999958,,,,,,,,,,,,,,,,,,,,,,,396.25115519999963,396.2674523999958,396.7674466000026,396.75091170000087,,,,,,,,,,,,,,,,,,,,,,,,,,396.75542349999887,396.7674466000026,396.7674466000026,396.7674466000026,399.7673997999955,399.7673997999955,399.7673997999955,399.75091599999723,indoor,f,399.7509519000014,,,399.7509656999973,None,,,2.436526199999207,0.12941150000551715,,,,,,,,,,00021,001,2025-11-08_21h31.55.785,MST_task,2024.2.2,59.98929790807444,2025-11-08 21h32.02.137489 +0530,
,Objects\270a.jpg,81,0,81,,,,,,,j,None,,,2.2057731000022613,0.15248959999735234,,,,,81,0,81,0,399.7673997999955,,,,,,,,,,,,,,,,,,,,,,,399.7510188000015,399.7673997999955,400.26736649999657,400.2508261999974,,,,,,,,,,,,,,,,,,,,,,,,,,400.25471639999887,400.26736649999657,400.26736649999657,400.26736649999657,403.2672689999963,403.2672689999963,403.2672689999963,403.2508699999962,indoor,j,403.250904499997,,,403.2509138000023,None,,,2.2057731000022613,0.15248959999735234,,,,,,,,,,00021,001,2025-11-08_21h31.55.785,MST_task,2024.2.2,59.98929790807444,2025-11-08 21h32.02.137489 +0530,
,Objects\015a.jpg,82,0,82,,,,,,,j,None,,,2.241050999997242,0.13479300000471994,,,,,82,0,82,0,403.2672689999963,,,,,,,,,,,,,,,,,,,,,,,403.2509654999958,403.2672689999963,403.7672534000012,403.7508278999958,,,,,,,,,,,,,,,,,,,,,,,,,,403.75653050000255,403.7672534000012,403.7672534000012,403.7672534000012,406.7672268000024,406.7672268000024,406.7672268000024,406.75084179999976,indoor,j,406.7508769999986,,,406.7508854999978,None,,,2.241050999997242,0.13479300000471994,,,,,,,,,,00021,001,2025-11-08_21h31.55.785,MST_task,2024.2.2,59.98929790807444,2025-11-08 21h32.02.137489 +0530,
,Objects\152a.jpg,83,0,83,,,,,,,f,None,,,1.367027299995243,0.16226129999995464,,,,,83,0,83,0,406.7672268000024,,,,,,,,,,,,,,,,,,,,,,,406.7509385000012,406.7672268000024,407.26719810000213,407.2507259999984,,,,,,,,,,,,,,,,,,,,,,,,,,407.25282689999585,407.26719810000213,407.26719810000213,407.26719810000213,410.26711899999646,410.26711899999646,410.26711899999646,410.2508308999968,indoor,f,410.2508680999963,,,410.25087730000087,None,,,1.367027299995243,0.16226129999995464,,,,,,,,,,00021,001,2025-11-08_21h31.55.785,MST_task,2024.2.2,59.98929790807444,2025-11-08 21h32.02.137489 +0530,
,Objects\338a.jpg,84,0,84,,,,,,,j,None,,,2.699484199998551,0.1009775000056834,,,,,84,0,84,0,410.26711899999646,,,,,,,,,,,,,,,,,,,,,,,410.2509336000003,410.26711899999646,410.76711069999874,410.7508076000013,,,,,,,,,,,,,,,,,,,,,,,,,,410.7574416999996,410.76711069999874,410.76711069999874,410.76711069999874,413.7670967000013,413.7670967000013,413.7670967000013,413.7507200999971,shoe,j,413.7522497999962,,,413.75226549999934,None,,,2.699484199998551,0.1009775000056834,,,,,,,,,,00021,001,2025-11-08_21h31.55.785,MST_task,2024.2.2,59.98929790807444,2025-11-08 21h32.02.137489 +0530,
,Objects\182a.jpg,85,0,85,,,,,,,None,f,0.1530274999968242,None,,,,,,,85,0,85,0,413.7670967000013,,,,,,,,,,,,,,,,,,,,,,,413.75231989999884,413.7670967000013,414.26703819999966,414.25070749999577,,,,,,,,,,,,,,,,,,,,,,,,,,414.2560708000019,414.26703819999966,414.26703819999966,414.26703819999966,417.2670156999957,417.2670156999957,417.2670156999957,417.2505630000014,shoe,None,417.2505971999999,417.2670156999957,417.2670156999957,417.4339749999999,f,0.1530274999968242,None,,,,,,,,,,,,00021,001,2025-11-08_21h31.55.785,MST_task,2024.2.2,59.98929790807444,2025-11-08 21h32.02.137489 +0530,
,Objects\281a.jpg,86,0,86,,,,,,,f,None,,,1.5809456999995746,0.14686280000023544,,,,,86,0,86,0,417.4503371999963,,,,,,,,,,,,,,,,,,,,,,,417.4340351999999,417.4503371999963,417.9502919000006,417.9338917999994,,,,,,,,,,,,,,,,,,,,,,,,,,417.93914360000053,417.9502919000006,417.9502919000006,417.9502919000006,420.95025950000127,420.95025950000127,420.95025950000127,420.933875900002,shoe,f,420.93391079999856,,,420.9339201999974,None,,,1.5809456999995746,0.14686280000023544,,,,,,,,,,00021,001,2025-11-08_21h31.55.785,MST_task,2024.2.2,59.98929790807444,2025-11-08 21h32.02.137489 +0530,
,Objects\144a.jpg,87,0,87,,,,,,,j,None,,,1.6410295000023325,0.14221620000171242,,,,,87,0,87,0,420.95025950000127,,,,,,,,,,,,,,,,,,,,,,,420.9339725999962,420.95025950000127,421.45021039999847,421.4337202000024,,,,,,,,,,,,,,,,,,,,,,,,,,421.43951240000024,421.45021039999847,421.45021039999847,421.45021039999847,424.45018320000236,424.45018320000236,424.45018320000236,424.43370539999887,shoe,j,424.4337416999988,,,424.43375179999566,None,,,1.6410295000023325,0.14221620000171242,,,,,,,,,,00021,001,2025-11-08_21h31.55.785,MST_task,2024.2.2,59.98929790807444,2025-11-08 21h32.02.137489 +0530,
,Objects\232a.jpg,88,0,88,,,,,,,f,None,,,2.339760299997579,0.16556800000398653,,,,,88,0,88,0,424.45018320000236,,,,,,,,,,,,,,,,,,,,,,,424.43383370000083,424.45018320000236,424.9501445999995,424.93385889999627,,,,,,,,,,,,,,,,,,,,,,,,,,424.9388906999957,424.9501445999995,424.9501445999995,424.9501445999995,427.95011669999803,427.95011669999803,427.95011669999803,427.9337852000026,shoe,f,427.93382120000024,,,427.9338308000006,None,,,2.339760299997579,0.16556800000398653,,,,,,,,,,00021,001,2025-11-08_21h31.55.785,MST_task,2024.2.2,59.98929790807444,2025-11-08 21h32.02.137489 +0530,
,Objects\205a.jpg,89,0,89,,,,,,,None,f,0.594076600005792,None,,,,,,,89,0,89,0,427.95011669999803,,,,,,,,,,,,,,,,,,,,,,,427.933884099999,427.95011669999803,428.4500681999998,428.4336137999999,,,,,,,,,,,,,,,,,,,,,,,,,,428.4386236999999,428.4500681999998,428.4500681999998,428.4500681999998,431.4500346999994,431.4500346999994,431.4500346999994,431.4337632999959,shoe,None,431.43380120000074,431.4500346999994,431.4500346999994,432.0504346000016,f,0.594076600005792,None,,,,,,,,,,,,00021,001,2025-11-08_21h31.55.785,MST_task,2024.2.2,59.98929790807444,2025-11-08 21h32.02.137489 +0530,
,Objects\208a.jpg,90,0,90,,,,,,,None,j,5.401341299999331,None,,,,,,,90,0,90,0,432.066688400002,,,,,,,,,,,,,,,,,,,,,,,432.05050079999637,432.066688400002,432.56667469999957,432.5502317999999,,,,,,,,,,,,,,,,,,,,,,,,,,432.5539761999971,432.56667469999957,432.56667469999957,432.56667469999957,435.56662669999787,435.56662669999787,435.56662669999787,435.55025549999846,shoe,None,435.5502869999982,435.56662669999787,435.56662669999787,440.98347710000235,j,5.401341299999331,None,,,,,,,,,,,,00021,001,2025-11-08_21h31.55.785,MST_task,2024.2.2,59.98929790807444,2025-11-08 21h32.02.137489 +0530,
,Objects\181a.jpg,91,0,91,,,,,,,j,None,,,2.035945100004028,0.08379229999991367,,,,,91,0,91,0,440.99986270000227,,,,,,,,,,,,,,,,,,,,,,,440.983550500001,440.99986270000227,441.4997820999997,441.4833123999997,,,,,,,,,,,,,,,,,,,,,,,,,,441.48944469999697,441.4997820999997,441.4997820999997,441.4997820999997,444.4997180999999,444.4997180999999,444.4997180999999,444.48329119999835,indoor,j,444.48446839999815,,,444.48447949999536,None,,,2.035945100004028,0.08379229999991367,,,,,,,,,,00021,001,2025-11-08_21h31.55.785,MST_task,2024.2.2,59.98929790807444,2025-11-08 21h32.02.137489 +0530,
,Objects\209a.jpg,92,0,92,,,,,,,None,f,None,None,,,,,,,92,0,92,0,444.4997180999999,,,,,,,,,,,,,,,,,,,,,,,444.48453439999867,444.4997180999999,444.9997077000007,444.983281599998,,,,,,,,,,,,,,,,,,,,,,,,,,444.9882096000001,444.9997077000007,444.9997077000007,444.9997077000007,447.999651099999,447.999651099999,447.999651099999,447.9832835999987,indoor,None,447.98331529999996,447.999651099999,447.999651099999,448.15006300000096,f,None,None,,,,,,,,,,,,00021,001,2025-11-08_21h31.55.785,MST_task,2024.2.2,59.98929790807444,2025-11-08 21h32.02.137489 +0530,
,Objects\259a.jpg,93,0,93,,,,,,,f,None,,,2.669608200005314,0.14378469999792287,,,,,93,0,93,0,448.16633819999697,,,,,,,,,,,,,,,,,,,,,,,448.15012679999927,448.16633819999697,448.66635329999554,448.6499024000004,,,,,,,,,,,,,,,,,,,,,,,,,,448.6566154999964,448.66635329999554,448.66635329999554,448.66635329999554,451.6662928000005,451.6662928000005,451.6662928000005,451.64980769999966,indoor,f,451.64984489999915,,,451.64985439999873,None,,,2.669608200005314,0.14378469999792287,,,,,,,,,,00021,001,2025-11-08_21h31.55.785,MST_task,2024.2.2,59.98929790807444,2025-11-08 21h32.02.137489 +0530,
,Objects\249a.jpg,94,0,94,,,,,,,j,None,,,2.7532976000002236,0.14606610000191722,,,,,94,0,94,0,451.6662928000005,,,,,,,,,,,,,,,,,,,,,,,451.6499068999983,451.6662928000005,452.1662368999969,452.1497387999989,,,,,,,,,,,,,,,,,,,,,,,,,,452.1548118999999,452.1662368999969,452.1662368999969,452.1662368999969,455.1662820999991,455.1662820999991,455.1662820999991,455.14981909999915,indoor,j,455.14985969999543,,,455.14986879999924,None,,,2.7532976000002236,0.14606610000191722,,,,,,,,,,00021,001,2025-11-08_21h31.55.785,MST_task,2024.2.2,59.98929790807444,2025-11-08 21h32.02.137489 +0530,
,Objects\164a.jpg,95,0,95,,,,,,,j,None,,,1.9999303000004147,0.14160809999884805,,,,,95,0,95,0,455.1662820999991,,,,,,,,,,,,,,,,,,,,,,,455.14992789999815,455.1662820999991,455.66627080000035,455.6497782000006,,,,,,,,,,,,,,,,,,,,,,,,,,455.65532659999735,455.66627080000035,455.66627080000035,455.66627080000035,458.6661143999954,458.6661143999954,458.6661143999954,458.6496521000008,indoor,j,458.64968789999693,,,458.64969779999956,None,,,1.9999303000004147,0.14160809999884805,,,,,,,,,,00021,001,2025-11-08_21h31.55.785,MST_task,2024.2.2,59.98929790807444,2025-11-08 21h32.02.137489 +0530,
,Objects\274a.jpg,96,0,96,,,,,,,None,f,5.405004800006282,None,,,,,,,96,0,96,0,458.6661143999954,,,,,,,,,,,,,,,,,,,,,,,458.6497507000022,458.6661143999954,459.1661349999995,459.1496183999989,,,,,,,,,,,,,,,,,,,,,,,,,,459.1514105000024,459.1661349999995,459.1661349999995,459.1661349999995,462.16603629999736,462.16603629999736,462.16603629999736,462.14973720000125,indoor,None,462.1497707000017,462.16603629999736,462.16603629999736,467.58298939999804,f,5.405004800006282,None,,,,,,,,,,,,00021,001,2025-11-08_21h31.55.785,MST_task,2024.2.2,59.98929790807444,2025-11-08 21h32.02.137489 +0530,
,Objects\197a.jpg,97,0,97,,,,,,,j,None,,,2.4908771999980672,0.09000799999921583,,,,,97,0,97,0,467.59924769999634,,,,,,,,,,,,,,,,,,,,,,,467.58306040000025,467.59924769999634,468.09921159999794,468.0827360999974,,,,,,,,,,,,,,,,,,,,,,,,,,468.084763699997,468.09921159999794,468.09921159999794,468.09921159999794,471.09918109999853,471.09918109999853,471.09918109999853,471.082776999996,indoor,j,471.0828352999961,,,471.0828454000002,None,,,2.4908771999980672,0.09000799999921583,,,,,,,,,,00021,001,2025-11-08_21h31.55.785,MST_task,2024.2.2,59.98929790807444,2025-11-08 21h32.02.137489 +0530,
,Objects\128a.jpg,98,0,98,,,,,,,f,None,,,2.9239035999999032,None,,,,,98,0,98,0,471.09918109999853,,,,,,,,,,,,,,,,,,,,,,,471.08290339999803,471.09918109999853,471.59914579999895,471.58278430000064,,,,,,,,,,,,,,,,,,,,,,,,,,471.58633890000056,471.59914579999895,471.59914579999895,471.59914579999895,474.59909419999894,474.59909419999894,474.59909419999894,474.582779700002,shoe,f,474.5843162999954,,,474.58433060000243,None,,,2.9239035999999032,None,,,,,,,,,,00021,001,2025-11-08_21h31.55.785,MST_task,2024.2.2,59.98929790807444,2025-11-08 21h32.02.137489 +0530,
,Objects\007a.jpg,99,0,99,,,,,,,j,None,,,2.1838309000013396,0.10440830000152346,,,,,99,0,99,0,474.59909419999894,,,,,,,,,,,,,,,,,,,,,,,474.5843956000026,474.59909419999894,475.0990681999974,475.08260580000206,,,,,,,,,,,,,,,,,,,,,,,,,,475.0849429000009,475.0990681999974,475.0990681999974,475.0990681999974,478.09902650000004,478.09902650000004,478.09902650000004,478.082656999999,shoe,j,478.0826931999982,,,478.0827019999997,None,,,2.1838309000013396,0.10440830000152346,,,,,,,,,,00021,001,2025-11-08_21h31.55.785,MST_task,2024.2.2,59.98929790807444,2025-11-08 21h32.02.137489 +0530,
,Objects\251a.jpg,100,0,100,,,,,,,f,None,,,1.1944272999971872,0.16610270000091987,,,,,100,0,100,0,478.09902650000004,,,,,,,,,,,,,,,,,,,,,,,478.08275460000004,478.09902650000004,478.5990180000008,478.58255610000197,,,,,,,,,,,,,,,,,,,,,,,,,,478.5864896999992,478.5990180000008,478.5990180000008,478.5990180000008,481.5989577,481.5989577,481.5989577,481.5824749999956,shoe,f,481.58250899999985,,,481.5825180999964,None,,,1.1944272999971872,0.16610270000091987,,,,,,,,,,00021,001,2025-11-08_21h31.55.785,MST_task,2024.2.2,59.98929790807444,2025-11-08 21h32.02.137489 +0530,
,Objects\370a.jpg,101,0,101,,,,,,,f,None,,,1.0891959000000497,0.16387199999735458,,,,,101,0,101,0,481.5989577,,,,,,,,,,,,,,,,,,,,,,,481.58257089999825,481.5989577,482.0989241999996,482.08247680000204,,,,,,,,,,,,,,,,,,,,,,,,,,482.0879425000021,482.0989241999996,482.0989241999996,482.0989241999996,485.09884769999917,485.09884769999917,485.09884769999917,485.08246900000086,shoe,f,485.0825029999978,,,485.08251149999705,None,,,1.0891959000000497,0.16387199999735458,,,,,,,,,,00021,001,2025-11-08_21h31.55.785,MST_task,2024.2.2,59.98929790807444,2025-11-08 21h32.02.137489 +0530,
,Objects\342a.jpg,102,0,102,,,,,,,f,None,,,1.3127349999995204,0.14451720000215573,,,,,102,0,102,0,485.09884769999917,,,,,,,,,,,,,,,,,,,,,,,485.08256419999816,485.09884769999917,485.59887960000196,485.5825055000023,,,,,,,,,,,,,,,,,,,,,,,,,,485.58457069999713,485.59887960000196,485.59887960000196,485.59887960000196,488.59877889999916,488.59877889999916,488.59877889999916,488.582373199999,shoe,f,488.5824109999958,,,488.58242040000187,None,,,1.3127349999995204,0.14451720000215573,,,,,,,,,,00021,001,2025-11-08_21h31.55.785,MST_task,2024.2.2,59.98929790807444,2025-11-08 21h32.02.137489 +0530,
,Objects\072a.jpg,103,0,103,,,,,,,f,None,,,1.7510506000035093,0.1617086999976891,,,,,103,0,103,0,488.59877889999916,,,,,,,,,,,,,,,,,,,,,,,488.58247349999874,488.59877889999916,489.0988037999996,489.08223510000244,,,,,,,,,,,,,,,,,,,,,,,,,,489.0845302000016,489.0988037999996,489.0988037999996,489.0988037999996,492.0987008000011,492.0987008000011,492.0987008000011,492.0823124000017,shoe,f,492.0823487000016,,,492.0823575999966,None,,,1.7510506000035093,0.1617086999976891,,,,,,,,,,00021,001,2025-11-08_21h31.55.785,MST_task,2024.2.2,59.98929790807444,2025-11-08 21h32.02.137489 +0530,
,Objects\347a.jpg,104,0,104,,,,,,,None,f,5.072695900002145,None,,,,,,,104,0,104,0,492.0987008000011,,,,,,,,,,,,,,,,,,,,,,,492.0824102999977,492.0987008000011,492.59872760000144,492.5822063000014,,,,,,,,,,,,,,,,,,,,,,,,,,492.5842380999966,492.59872760000144,492.59872760000144,492.59872760000144,495.5986206000016,495.5986206000016,495.5986206000016,495.5821938000008,shoe,None,495.58222450000176,495.5986206000016,495.5986206000016,500.6822264000002,f,5.072695900002145,None,,,,,,,,,,,,00021,001,2025-11-08_21h31.55.785,MST_task,2024.2.2,59.98929790807444,2025-11-08 21h32.02.137489 +0530,
,Objects\184a.jpg,105,0,105,,,,,,,j,None,,,2.2036679000011645,0.14119059999939054,,,,,105,0,105,0,500.6985499000002,,,,,,,,,,,,,,,,,,,,,,,500.682310199998,500.6985499000002,501.1985280000008,501.1820732999986,,,,,,,,,,,,,,,,,,,,,,,,,,501.18531470000016,501.1985280000008,501.1985280000008,501.1985280000008,504.1984733999998,504.1984733999998,504.1984733999998,504.18211249999877,indoor,j,504.1832495999988,,,504.1832615000021,None,,,2.2036679000011645,0.14119059999939054,,,,,,,,,,00021,001,2025-11-08_21h31.55.785,MST_task,2024.2.2,59.98929790807444,2025-11-08 21h32.02.137489 +0530,
,Objects\354a.jpg,106,0,106,,,,,,,None,f,1.1568497999978717,None,,,,,,,106,0,106,0,504.1984733999998,,,,,,,,,,,,,,,,,,,,,,,504.18331410000246,504.1984733999998,504.71509649999643,504.68199040000036,,,,,,,,,,,,,,,,,,,,,,,,,,504.7048864000026,504.71509649999643,504.71509649999643,504.71509649999643,,,,507.6985523999974,indoor,None,507.69858779999777,507.715071300001,507.715071300001,508.88210280000203,f,1.1568497999978717,None,,,,,,,,,,,,00021,001,2025-11-08_21h31.55.785,MST_task,2024.2.2,59.98929790807444,2025-11-08 21h32.02.137489 +0530,
,Objects\183a.jpg,107,0,107,,,,,,,f,None,,,1.3030723000047146,0.20290389999718172,,,,,107,0,107,0,508.89837380000245,,,,,,,,,,,,,,,,,,,,,,,508.8821831999958,508.89837380000245,509.3983262999973,509.38184550000005,,,,,,,,,,,,,,,,,,,,,,,,,,509.3868441000013,509.3983262999973,509.3983262999973,509.3983262999973,512.3982923000003,512.3982923000003,512.3982923000003,512.3818551000004,indoor,f,512.3818925000014,,,512.381901599998,None,,,1.3030723000047146,0.20290389999718172,,,,,,,,,,00021,001,2025-11-08_21h31.55.785,MST_task,2024.2.2,59.98929790807444,2025-11-08 21h32.02.137489 +0530,
,Objects\106a.jpg,108,0,108,,,,,,,f,None,,,1.775224500001059,0.15820009999879403,,,,,108,0,108,0,512.3982923000003,,,,,,,,,,,,,,,,,,,,,,,512.3819570999985,512.3982923000003,512.8982551000008,512.8818697000024,,,,,,,,,,,,,,,,,,,,,,,,,,512.8838093000013,512.8982551000008,512.8982551000008,512.8982551000008,515.8982725999958,515.8982725999958,515.8982725999958,515.8817595,indoor,f,515.8817949000004,,,515.8818035000004,None,,,1.775224500001059,0.15820009999879403,,,,,,,,,,00021,001,2025-11-08_21h31.55.785,MST_task,2024.2.2,59.98929790807444,2025-11-08 21h32.02.137489 +0530,
,Objects\133a.jpg,109,0,109,,,,,,,None,j,0.5192337000044063,None,,,,,,,109,0,109,0,515.8982725999958,,,,,,,,,,,,,,,,,,,,,,,515.8818608000001,515.8982725999958,516.4148506999991,516.3817799999961,,,,,,,,,,,,,,,,,,,,,,,,,,516.4010507999992,516.4148506999991,516.4148506999991,516.4148506999991,,,,519.3981512999962,indoor,None,519.3981829999975,519.414812199997,519.414812199997,519.9485064999972,j,0.5192337000044063,None,,,,,,,,,,,,00021,001,2025-11-08_21h31.55.785,MST_task,2024.2.2,59.98929790807444,2025-11-08 21h32.02.137489 +0530,
,Objects\328a.jpg,110,0,110,,,,,,,j,None,,,1.6338200000027427,0.13659740000002785,,,,,110,0,110,0,519.9648089999973,,,,,,,,,,,,,,,,,,,,,,,519.9485805000004,519.9648089999973,520.4647962000017,520.448324099998,,,,,,,,,,,,,,,,,,,,,,,,,,520.4503761000014,520.4647962000017,520.4647962000017,520.4647962000017,523.4647341000018,523.4647341000018,523.4647341000018,523.4483479999981,indoor,j,523.4483848000018,,,523.448395499996,None,,,1.6338200000027427,0.13659740000002785,,,,,,,,,,00021,001,2025-11-08_21h31.55.785,MST_task,2024.2.2,59.98929790807444,2025-11-08 21h32.02.137489 +0530,
,Objects\289a.jpg,111,0,111,,,,,,,j,None,,,1.376657199994952,0.13475270000344608,,,,,111,0,111,0,523.4647341000018,,,,,,,,,,,,,,,,,,,,,,,523.448449800002,523.4647341000018,523.964701500001,523.9482573999994,,,,,,,,,,,,,,,,,,,,,,,,,,523.9535619000017,523.964701500001,523.964701500001,523.964701500001,526.9646198999981,526.9646198999981,526.9646198999981,526.9483207000012,indoor,j,526.9483562999958,,,526.9483665000007,None,,,1.376657199994952,0.13475270000344608,,,,,,,,,,00021,001,2025-11-08_21h31.55.785,MST_task,2024.2.2,59.98929790807444,2025-11-08 21h32.02.137489 +0530,
,Objects\214a.jpg,112,0,112,,,,,,,f,None,,,1.9050984999994398,0.1516431000054581,,,,,112,0,112,0,526.9646198999981,,,,,,,,,,,,,,,,,,,,,,,526.9484212000025,526.9646198999981,527.4646094999989,527.4482308000006,,,,,,,,,,,,,,,,,,,,,,,,,,527.455034999999,527.4646094999989,527.4646094999989,527.4646094999989,530.4645459000021,530.4645459000021,530.4645459000021,530.4482489000002,shoe,f,530.4497248999978,,,530.4497362999973,None,,,1.9050984999994398,0.1516431000054581,,,,,,,,,,00021,001,2025-11-08_21h31.55.785,MST_task,2024.2.2,59.98929790807444,2025-11-08 21h32.02.137489 +0530,
,Objects\291a.jpg,113,0,113,,,,,,,f,None,,,2.7667983999999706,0.13414479999482865,,,,,113,0,113,0,530.4645459000021,,,,,,,,,,,,,,,,,,,,,,,530.4497932000013,530.4645459000021,530.9645382000017,530.9480504999956,,,,,,,,,,,,,,,,,,,,,,,,,,530.952649699997,530.9645382000017,530.9645382000017,530.9645382000017,533.9644766999991,533.9644766999991,533.9644766999991,533.948198799997,shoe,f,533.9482414000013,,,533.9482516999997,None,,,2.7667983999999706,0.13414479999482865,,,,,,,,,,00021,001,2025-11-08_21h31.55.785,MST_task,2024.2.2,59.98929790807444,2025-11-08 21h32.02.137489 +0530,
,Objects\070a.jpg,114,0,114,,,,,,,f,None,,,1.726963600005547,0.13374759999715025,,,,,114,0,114,0,533.9644766999991,,,,,,,,,,,,,,,,,,,,,,,533.9483076999968,533.9644766999991,534.4645356999972,534.4480530000001,,,,,,,,,,,,,,,,,,,,,,,,,,534.4538858000014,534.4645356999972,534.4645356999972,534.4645356999972,537.4644281000001,537.4644281000001,537.4644281000001,537.4479982999983,shoe,f,537.4480499999991,,,537.4480600000024,None,,,1.726963600005547,0.13374759999715025,,,,,,,,,,00021,001,2025-11-08_21h31.55.785,MST_task,2024.2.2,59.98929790807444,2025-11-08 21h32.02.137489 +0530,
,Objects\126a.jpg,115,0,115,,,,,,,j,None,,,2.2630165000009583,0.1384766999981366,,,,,115,0,115,0,537.4644281000001,,,,,,,,,,,,,,,,,,,,,,,537.4481228000004,537.4644281000001,537.9643802999999,537.947931900002,,,,,,,,,,,,,,,,,,,,,,,,,,537.9503906999962,537.9643802999999,537.9643802999999,537.9643802999999,540.9642469999962,540.9642469999962,540.9642469999962,540.9478873999979,shoe,j,540.9479219999994,,,540.9479312999974,None,,,2.2630165000009583,0.1384766999981366,,,,,,,,,,00021,001,2025-11-08_21h31.55.785,MST_task,2024.2.2,59.98929790807444,2025-11-08 21h32.02.137489 +0530,
,Objects\345a.jpg,116,0,116,,,,,,,f,None,,,1.213091900004656,0.12973259999853326,,,,,116,0,116,0,540.9642469999962,,,,,,,,,,,,,,,,,,,,,,,540.9479818999971,540.9642469999962,541.4643448999996,541.4478287999955,,,,,,,,,,,,,,,,,,,,,,,,,,541.4498773000014,541.4643448999996,541.4643448999996,541.4643448999996,544.4642725000012,544.4642725000012,544.4642725000012,544.4478500999976,shoe,f,544.4478908999954,,,544.4479011000003,None,,,1.213091900004656,0.12973259999853326,,,,,,,,,,00021,001,2025-11-08_21h31.55.785,MST_task,2024.2.2,59.98929790807444,2025-11-08 21h32.02.137489 +0530,
,Objects\030a.jpg,117,0,117,,,,,,,f,None,,,1.89181280000048,0.13197200000286102,,,,,117,0,117,0,544.4642725000012,,,,,,,,,,,,,,,,,,,,,,,544.4479608999973,544.4642725000012,544.9642296999955,544.9477943999955,,,,,,,,,,,,,,,,,,,,,,,,,,544.9500838999957,544.9642296999955,544.9642296999955,544.9642296999955,547.9641916999972,547.9641916999972,547.9641916999972,547.9477256999962,shoe,f,547.9477630999972,,,547.9477719999995,None,,,1.89181280000048,0.13197200000286102,,,,,,,,,,00021,001,2025-11-08_21h31.55.785,MST_task,2024.2.2,59.98929790807444,2025-11-08 21h32.02.137489 +0530,
,Objects\057a.jpg,118,0,118,,,,,,,f,None,,,1.5747107999995933,0.18423799999436596,,,,,118,0,118,0,547.9641916999972,,,,,,,,,,,,,,,,,,,,,,,547.9478581000003,547.9641916999972,548.4641611999978,548.4477762000024,,,,,,,,,,,,,,,,,,,,,,,,,,548.4500829999961,548.4641611999978,548.4641611999978,548.4641611999978,551.4641120000015,551.4641120000015,551.4641120000015,551.4476925999988,shoe,f,551.4477348,,,551.4477444000004,None,,,1.5747107999995933,0.18423799999436596,,,,,,,,,,00021,001,2025-11-08_21h31.55.785,MST_task,2024.2.2,59.98929790807444,2025-11-08 21h32.02.137489 +0530,
,Objects\334a.jpg,119,0,119,,,,,,,None,f,0.15191480000066804,None,,,,,,,119,0,119,0,551.4641120000015,,,,,,,,,,,,,,,,,,,,,,,551.4478018000009,551.4641120000015,551.9640848999989,551.947671199996,,,,,,,,,,,,,,,,,,,,,,,,,,551.9509113999957,551.9640848999989,551.9640848999989,551.9640848999989,554.9640163000004,554.9640163000004,554.9640163000004,554.9475766999967,indoor,None,554.9487241000024,554.9640163000004,554.9640163000004,555.1310546000022,f,0.15191480000066804,None,,,,,,,,,,,,00021,001,2025-11-08_21h31.55.785,MST_task,2024.2.2,59.98929790807444,2025-11-08 21h32.02.137489 +0530,
,Objects\101a.jpg,120,0,120,,,,,,,j,None,,,1.9707755999988876,0.11394409999775235,,,,,120,0,120,0,555.1473807000002,,,,,,,,,,,,,,,,,,,,,,,555.1311142999984,555.1473807000002,555.6473533999961,555.6309294999955,,,,,,,,,,,,,,,,,,,,,,,,,,555.6331327000007,555.6473533999961,555.6473533999961,555.6473533999961,558.6472991999981,558.6472991999981,558.6472991999981,558.6309010999976,indoor,j,558.6309368000002,,,558.6309457000025,None,,,1.9707755999988876,0.11394409999775235,,,,,,,,,,00021,001,2025-11-08_21h31.55.785,MST_task,2024.2.2,59.98929790807444,2025-11-08 21h32.02.137489 +0530,
,Objects\241a.jpg,121,0,121,,,,,,,f,None,,,1.5316625999985263,0.1402765000020736,,,,,121,0,121,0,558.6472991999981,,,,,,,,,,,,,,,,,,,,,,,558.6309984999971,558.6472991999981,559.1472685999979,559.1308243999956,,,,,,,,,,,,,,,,,,,,,,,,,,559.1327440999958,559.1472685999979,559.1472685999979,559.1472685999979,562.1472293999977,562.1472293999977,562.1472293999977,562.130800699997,indoor,f,562.1308386000019,,,562.1308480000007,None,,,1.5316625999985263,0.1402765000020736,,,,,,,,,,00021,001,2025-11-08_21h31.55.785,MST_task,2024.2.2,59.98929790807444,2025-11-08 21h32.02.137489 +0530,
,Objects\309a.jpg,122,0,122,,,,,,,f,None,,,2.8682119000004604,None,,,,,122,0,122,0,562.1472293999977,,,,,,,,,,,,,,,,,,,,,,,562.1309027000025,562.1472293999977,562.6471893999988,562.6308518000005,,,,,,,,,,,,,,,,,,,,,,,,,,562.635203400001,562.6471893999988,562.6471893999988,562.6471893999988,565.6471556999968,565.6471556999968,565.6471556999968,565.6307434999981,indoor,f,565.630780200001,,,565.6307891999968,None,,,2.8682119000004604,None,,,,,,,,,,00021,001,2025-11-08_21h31.55.785,MST_task,2024.2.2,59.98929790807444,2025-11-08 21h32.02.137489 +0530,
,Objects\120a.jpg,123,0,123,,,,,,,f,None,,,1.8217491000032169,0.14035629999852972,,,,,123,0,123,0,565.6471556999968,,,,,,,,,,,,,,,,,,,,,,,565.6308397999965,565.6471556999968,566.1471177999993,566.1307426999992,,,,,,,,,,,,,,,,,,,,,,,,,,566.1357953999977,566.1471177999993,566.1471177999993,566.1471177999993,569.1470850999976,569.1470850999976,569.1470850999976,569.1306944000025,indoor,f,569.130731199999,,,569.1307407999993,None,,,1.8217491000032169,0.14035629999852972,,,,,,,,,,00021,001,2025-11-08_21h31.55.785,MST_task,2024.2.2,59.98929790807444,2025-11-08 21h32.02.137489 +0530,
,Objects\207a.jpg,124,0,124,,,,,,,f,None,,,1.3191179999994347,0.12326110000140034,,,,,124,0,124,0,569.1470850999976,,,,,,,,,,,,,,,,,,,,,,,569.1307933999997,569.1470850999976,569.647091699997,569.6308667999983,,,,,,,,,,,,,,,,,,,,,,,,,,569.6361139,569.647091699997,569.647091699997,569.647091699997,572.6469991999984,572.6469991999984,572.6469991999984,572.630703099996,indoor,f,572.6307400000005,,,572.6307510999977,None,,,1.3191179999994347,0.12326110000140034,,,,,,,,,,00021,001,2025-11-08_21h31.55.785,MST_task,2024.2.2,59.98929790807444,2025-11-08 21h32.02.137489 +0530,
,Objects\041a.jpg,125,0,125,,,,,,,j,None,,,1.231541200002539,0.1266888999962248,,,,,125,0,125,0,572.6469991999984,,,,,,,,,,,,,,,,,,,,,,,572.6308034999965,572.6469991999984,573.1469867999986,573.1305223000018,,,,,,,,,,,,,,,,,,,,,,,,,,573.1357458999992,573.1469867999986,573.1469867999986,573.1469867999986,576.1469280000019,576.1469280000019,576.1469280000019,576.1304659000016,indoor,j,576.1305061999956,,,576.1305167999963,None,,,1.231541200002539,0.1266888999962248,,,,,,,,,,00021,001,2025-11-08_21h31.55.785,MST_task,2024.2.2,59.98929790807444,2025-11-08 21h32.02.137489 +0530,
,Objects\107a.jpg,126,0,126,,,,,,,j,None,,,1.4128211999995983,0.12641179999627639,,,,,126,0,126,0,576.1469280000019,,,,,,,,,,,,,,,,,,,,,,,576.1305792999992,576.1469280000019,576.6469247999994,576.6304445999995,,,,,,,,,,,,,,,,,,,,,,,,,,576.6342678000001,576.6469247999994,576.6469247999994,576.6469247999994,579.6468209000013,579.6468209000013,579.6468209000013,579.6306776999991,shoe,j,579.6322442999954,,,579.6322569999975,None,,,1.4128211999995983,0.12641179999627639,,,,,,,,,,00021,001,2025-11-08_21h31.55.785,MST_task,2024.2.2,59.98929790807444,2025-11-08 21h32.02.137489 +0530,
,Objects\021a.jpg,127,0,127,,,,,,,None,f,0.470784500001173,None,,,,,,,127,0,127,0,579.6468209000013,,,,,,,,,,,,,,,,,,,,,,,579.6323428999967,579.6468209000013,580.1468458000018,580.1303012999997,,,,,,,,,,,,,,,,,,,,,,,,,,580.1325508000009,580.1468458000018,580.1468458000018,580.1468458000018,583.1467397000015,583.1467397000015,583.1467397000015,583.1304692999984,shoe,None,583.1305064999979,583.1467397000015,583.1467397000015,583.6305035999976,f,0.470784500001173,None,,,,,,,,,,,,00021,001,2025-11-08_21h31.55.785,MST_task,2024.2.2,59.98929790807444,2025-11-08 21h32.02.137489 +0530,
,Objects\172a.jpg,128,0,128,,,,,,,j,None,,,1.466751200001454,0.1362961000049836,,,,,128,0,128,0,583.6467615000001,,,,,,,,,,,,,,,,,,,,,,,583.6305768999955,583.6467615000001,584.146779900002,584.1303073000017,,,,,,,,,,,,,,,,,,,,,,,,,,584.1322987000021,584.146779900002,584.146779900002,584.146779900002,587.1466600999993,587.1466600999993,587.1466600999993,587.130244,shoe,j,587.1302852000008,,,587.1302950999961,None,,,1.466751200001454,0.1362961000049836,,,,,,,,,,00021,001,2025-11-08_21h31.55.785,MST_task,2024.2.2,59.98929790807444,2025-11-08 21h32.02.137489 +0530,
,Objects\217a.jpg,129,0,129,,,,,,,f,None,,,2.5088206000000355,0.13574070000322536,,,,,129,0,129,0,587.1466600999993,,,,,,,,,,,,,,,,,,,,,,,587.1303850999975,587.1466600999993,587.6466532999984,587.6302538000018,,,,,,,,,,,,,,,,,,,,,,,,,,587.6361768999996,587.6466532999984,587.6466532999984,587.6466532999984,590.6466214999964,590.6466214999964,590.6466214999964,590.630159399996,shoe,f,590.6301994000023,,,590.6302085999996,None,,,2.5088206000000355,0.13574070000322536,,,,,,,,,,00021,001,2025-11-08_21h31.55.785,MST_task,2024.2.2,59.98929790807444,2025-11-08 21h32.02.137489 +0530,
,Objects\189a.jpg,130,0,130,,,,,,,j,None,,,1.2870151000024634,0.11611450000054901,,,,,130,0,130,0,590.6466214999964,,,,,,,,,,,,,,,,,,,,,,,590.6302613000007,590.6466214999964,591.146576799998,591.1302083999981,,,,,,,,,,,,,,,,,,,,,,,,,,591.1359451999961,591.146576799998,591.146576799998,591.146576799998,594.1465490999981,594.1465490999981,594.1465490999981,594.1301042999985,shoe,j,594.1301461999974,,,594.1301553000012,None,,,1.2870151000024634,0.11611450000054901,,,,,,,,,,00021,001,2025-11-08_21h31.55.785,MST_task,2024.2.2,59.98929790807444,2025-11-08 21h32.02.137489 +0530,
,Objects\138a.jpg,131,0,131,,,,,,,j,None,,,1.3228323000003002,0.12604999999894062,,,,,131,0,131,0,594.1465490999981,,,,,,,,,,,,,,,,,,,,,,,594.1302413000012,594.1465490999981,594.6463832000009,594.6301029000024,,,,,,,,,,,,,,,,,,,,,,,,,,594.6322758000024,594.6463832000009,594.6463832000009,594.6463832000009,597.6464675000025,597.6464675000025,597.6464675000025,597.6300560000018,shoe,j,597.6300940000001,,,597.6301034999997,None,,,1.3228323000003002,0.12604999999894062,,,,,,,,,,00021,001,2025-11-08_21h31.55.785,MST_task,2024.2.2,59.98929790807444,2025-11-08 21h32.02.137489 +0530,
,Objects\317a.jpg,132,0,132,,,,,,,j,None,,,1.0393732000011369,0.13601400000334252,,,,,132,0,132,0,597.6464675000025,,,,,,,,,,,,,,,,,,,,,,,597.6301841000022,597.6464675000025,598.1464244000017,598.1300322000025,,,,,,,,,,,,,,,,,,,,,,,,,,598.1320892000003,598.1464244000017,598.1464244000017,598.1464244000017,601.1463844999962,601.1463844999962,601.1463844999962,601.1300606000004,shoe,j,601.1300965999981,,,601.1301061999984,None,,,1.0393732000011369,0.13601400000334252,,,,,,,,,,00021,001,2025-11-08_21h31.55.785,MST_task,2024.2.2,59.98929790807444,2025-11-08 21h32.02.137489 +0530,
,Objects\035a.jpg,133,0,133,,,,,,,None,f,0.3914029000006849,None,,,,,,,133,0,133,0,601.1463844999962,,,,,,,,,,,,,,,,,,,,,,,601.1301850000018,601.1463844999962,601.6463484999986,601.6299405999962,,,,,,,,,,,,,,,,,,,,,,,,,,601.6333049999957,601.6463484999986,601.6463484999986,601.6463484999986,604.6462825999988,604.6462825999988,604.6462825999988,604.6299834999954,indoor,None,604.6312022999991,604.6462825999988,604.6462825999988,605.0466890000025,f,0.3914029000006849,None,,,,,,,,,,,,00021,001,2025-11-08_21h31.55.785,MST_task,2024.2.2,59.98929790807444,2025-11-08 21h32.02.137489 +0530,
,Objects\034a.jpg,134,0,134,,,,,,,f,None,,,2.014265300000261,0.17486769999959506,,,,,134,0,134,0,605.0629752999957,,,,,,,,,,,,,,,,,,,,,,,605.0467548000015,605.0629752999957,605.5629684000014,605.5464884999965,,,,,,,,,,,,,,,,,,,,,,,,,,605.5487329000025,605.5629684000014,605.5629684000014,605.5629684000014,608.5628929000013,608.5628929000013,608.5628929000013,608.5465619000024,indoor,f,608.5466005999988,,,608.5466110999987,None,,,2.014265300000261,0.17486769999959506,,,,,,,,,,00021,001,2025-11-08_21h31.55.785,MST_task,2024.2.2,59.98929790807444,2025-11-08 21h32.02.137489 +0530,
,Objects\059a.jpg,135,0,135,,,,,,,f,None,,,2.2491205999976955,0.15448820000165142,,,,,135,0,135,0,608.5628929000013,,,,,,,,,,,,,,,,,,,,,,,608.546666299997,608.5628929000013,609.0628548000022,609.0463891999971,,,,,,,,,,,,,,,,,,,,,,,,,,609.048715500001,609.0628548000022,609.0628548000022,609.0628548000022,612.0628203000015,612.0628203000015,612.0628203000015,612.0463562000004,indoor,f,612.0464023000022,,,612.0464122999983,None,,,2.2491205999976955,0.15448820000165142,,,,,,,,,,00021,001,2025-11-08_21h31.55.785,MST_task,2024.2.2,59.98929790807444,2025-11-08 21h32.02.137489 +0530,
,Objects\382a.jpg,136,0,136,,,,,,,j,None,,,2.0809851000012713,0.12181840000266675,,,,,136,0,136,0,612.0628203000015,,,,,,,,,,,,,,,,,,,,,,,612.0464704999977,612.0628203000015,612.5627773000015,612.5464473999964,,,,,,,,,,,,,,,,,,,,,,,,,,612.5518205999979,612.5627773000015,612.5627773000015,612.5627773000015,615.5627707000021,615.5627707000021,615.5627707000021,615.546277399997,indoor,j,615.5463130999997,,,615.5463221999962,None,,,2.0809851000012713,0.12181840000266675,,,,,,,,,,00021,001,2025-11-08_21h31.55.785,MST_task,2024.2.2,59.98929790807444,2025-11-08 21h32.02.137489 +0530,
,Objects\145a.jpg,137,0,137,,,,,,,f,None,,,1.744477400003234,0.16254710000066552,,,,,137,0,137,0,615.5627707000021,,,,,,,,,,,,,,,,,,,,,,,615.5463760999992,615.5627707000021,616.062702999996,616.0463168999995,,,,,,,,,,,,,,,,,,,,,,,,,,616.0514901999995,616.062702999996,616.062702999996,616.062702999996,619.0626637000023,619.0626637000023,619.0626637000023,619.0463463999986,indoor,f,619.046382200002,,,619.0463909999962,None,,,1.744477400003234,0.16254710000066552,,,,,,,,,,00021,001,2025-11-08_21h31.55.785,MST_task,2024.2.2,59.98929790807444,2025-11-08 21h32.02.137489 +0530,
,Objects\336a.jpg,138,0,138,,,,,,,f,None,,,1.4387292999963393,0.13418149999779416,,,,,138,0,138,0,619.0626637000023,,,,,,,,,,,,,,,,,,,,,,,619.0464443999954,619.0626637000023,619.5626302999954,619.5462928999987,,,,,,,,,,,,,,,,,,,,,,,,,,619.5516178999969,619.5626302999954,619.5626302999954,619.5626302999954,622.5626271000001,622.5626271000001,622.5626271000001,622.546134199998,indoor,f,622.5461689000003,,,622.5461807999964,None,,,1.4387292999963393,0.13418149999779416,,,,,,,,,,00021,001,2025-11-08_21h31.55.785,MST_task,2024.2.2,59.98929790807444,2025-11-08 21h32.02.137489 +0530,
,Objects\348a.jpg,139,0,139,,,,,,,None,f,0.6119289000052959,None,,,,,,,139,0,139,0,622.5626271000001,,,,,,,,,,,,,,,,,,,,,,,622.5462539,622.5626271000001,623.0625770999977,623.0460437000002,,,,,,,,,,,,,,,,,,,,,,,,,,623.0504440000004,623.0625770999977,623.0625770999977,623.0625770999977,626.0625239000001,626.0625239000001,626.0625239000001,626.0461214000024,indoor,None,626.0461520999961,626.0625239000001,626.0625239000001,626.679581999997,f,0.6119289000052959,None,,,,,,,,,,,,00021,001,2025-11-08_21h31.55.785,MST_task,2024.2.2,59.98929790807444,2025-11-08 21h32.02.137489 +0530,
,Objects\310a.jpg,140,0,140,,,,,,,f,None,,,2.115893000001961,0.14563389999966603,,,,,140,0,140,0,626.6958355000024,,,,,,,,,,,,,,,,,,,,,,,626.6796501999997,626.6958355000024,627.1957977999991,627.1793182999972,,,,,,,,,,,,,,,,,,,,,,,,,,627.1858371999988,627.1957977999991,627.1957977999991,627.1957977999991,630.1957513000016,630.1957513000016,630.1957513000016,630.1794415999975,shoe,f,630.1809313999984,,,630.1809429999994,None,,,2.115893000001961,0.14563389999966603,,,,,,,,,,00021,001,2025-11-08_21h31.55.785,MST_task,2024.2.2,59.98929790807444,2025-11-08 21h32.02.137489 +0530,
,Objects\215a.jpg,141,0,141,,,,,,,f,None,,,1.2606003999972017,0.17678390000219224,,,,,141,0,141,0,630.1957513000016,,,,,,,,,,,,,,,,,,,,,,,630.1809967000008,630.1957513000016,630.6957353999969,630.6792270000005,,,,,,,,,,,,,,,,,,,,,,,,,,630.6846260999955,630.6957353999969,630.6957353999969,630.6957353999969,633.6956921999954,633.6956921999954,633.6956921999954,633.6793856000004,shoe,f,633.6794210000007,,,633.679435099999,None,,,1.2606003999972017,0.17678390000219224,,,,,,,,,,00021,001,2025-11-08_21h31.55.785,MST_task,2024.2.2,59.98929790807444,2025-11-08 21h32.02.137489 +0530,
,Objects\353a.jpg,142,0,142,,,,,,,f,None,,,1.5875207999997656,0.1421245000019553,,,,,142,0,142,0,633.6956921999954,,,,,,,,,,,,,,,,,,,,,,,633.6794921999972,633.6956921999954,634.1956471000012,634.1791568999979,,,,,,,,,,,,,,,,,,,,,,,,,,634.1833783999973,634.1956471000012,634.1956471000012,634.1956471000012,637.1956081999961,637.1956081999961,637.1956081999961,637.1792828999969,shoe,f,637.1793220999971,,,637.1793319999997,None,,,1.5875207999997656,0.1421245000019553,,,,,,,,,,00021,001,2025-11-08_21h31.55.785,MST_task,2024.2.2,59.98929790807444,2025-11-08 21h32.02.137489 +0530,
,Objects\097a.jpg,143,0,143,,,,,,,None,j,1.0758129000023473,None,,,,,,,143,0,143,0,637.1956081999961,,,,,,,,,,,,,,,,,,,,,,,637.179390199999,637.1956081999961,637.6956147000019,637.6792091000025,,,,,,,,,,,,,,,,,,,,,,,,,,637.6844494999968,637.6956147000019,637.6956147000019,637.6956147000019,640.6955369999996,640.6955369999996,640.6955369999996,640.679158400002,shoe,None,640.6791912999979,640.6955369999996,640.6955369999996,641.7791385000019,j,1.0758129000023473,None,,,,,,,,,,,,00021,001,2025-11-08_21h31.55.785,MST_task,2024.2.2,59.98929790807444,2025-11-08 21h32.02.137489 +0530,
,Objects\299a.jpg,144,0,144,,,,,,,j,None,,,2.8929066999990027,None,,,,,144,0,144,0,641.7955177999975,,,,,,,,,,,,,,,,,,,,,,,641.7792100000006,641.7955177999975,642.2954838000005,642.2790552000006,,,,,,,,,,,,,,,,,,,,,,,,,,642.2844947999984,642.2954838000005,642.2954838000005,642.2954838000005,645.2954363999961,645.2954363999961,645.2954363999961,645.2790660999963,shoe,j,645.2791039000003,,,645.279114099998,None,,,2.8929066999990027,None,,,,,,,,,,00021,001,2025-11-08_21h31.55.785,MST_task,2024.2.2,59.98929790807444,2025-11-08 21h32.02.137489 +0530,
,Objects\226a.jpg,145,0,145,,,,,,,None,f,0.1507863000006182,None,,,,,,,145,0,145,0,645.2954363999961,,,,,,,,,,,,,,,,,,,,,,,645.2791708000004,645.2954363999961,645.795394599998,645.7789493000018,,,,,,,,,,,,,,,,,,,,,,,,,,645.783637499997,645.795394599998,645.795394599998,645.795394599998,648.7953662,648.7953662,648.7953662,648.778945799997,shoe,None,648.778977599999,648.7953662,648.7953662,648.962378199998,f,0.1507863000006182,None,,,,,,,,,,,,00021,001,2025-11-08_21h31.55.785,MST_task,2024.2.2,59.98929790807444,2025-11-08 21h32.02.137489 +0530,
,Objects\292a.jpg,146,0,146,,,,,,,f,None,,,2.0931349999955273,0.18981690000509843,,,,,146,0,146,0,648.9787013999958,,,,,,,,,,,,,,,,,,,,,,,648.962449300001,648.9787013999958,649.4786611000018,649.4621456999957,,,,,,,,,,,,,,,,,,,,,,,,,,649.4662144999966,649.4786611000018,649.4786611000018,649.4786611000018,652.4786217000001,652.4786217000001,652.4786217000001,652.4623227999982,shoe,f,652.4623667999986,,,652.4623779999965,None,,,2.0931349999955273,0.18981690000509843,,,,,,,,,,00021,001,2025-11-08_21h31.55.785,MST_task,2024.2.2,59.98929790807444,2025-11-08 21h32.02.137489 +0530,
,Objects\366a.jpg,147,0,147,,,,,,,j,None,,,2.467229400004726,0.15761159999965457,,,,,147,0,147,0,652.4786217000001,,,,,,,,,,,,,,,,,,,,,,,652.4624380999958,652.4786217000001,652.9785790000024,652.9620911999955,,,,,,,,,,,,,,,,,,,,,,,,,,652.9689280999955,652.9785790000024,652.9785790000024,652.9785790000024,655.9785491000002,655.9785491000002,655.9785491000002,655.9620560999974,indoor,j,655.9632483000023,,,655.9632598000026,None,,,2.467229400004726,0.15761159999965457,,,,,,,,,,00021,001,2025-11-08_21h31.55.785,MST_task,2024.2.2,59.98929790807444,2025-11-08 21h32.02.137489 +0530,
,Objects\262a.jpg,148,0,148,,,,,,,j,None,,,2.386931699998968,0.15059639999526553,,,,,148,0,148,0,655.9785491000002,,,,,,,,,,,,,,,,,,,,,,,655.9633128999994,655.9785491000002,656.4785298999996,656.4621324999971,,,,,,,,,,,,,,,,,,,,,,,,,,656.4665431999965,656.4785298999996,656.4785298999996,656.4785298999996,659.4784796000022,659.4784796000022,659.4784796000022,659.4620357999956,indoor,j,659.4620720999956,,,659.4620814000009,None,,,2.386931699998968,0.15059639999526553,,,,,,,,,,00021,001,2025-11-08_21h31.55.785,MST_task,2024.2.2,59.98929790807444,2025-11-08 21h32.02.137489 +0530,
,Objects\110a.jpg,149,0,149,,,,,,,None,f,0.39952460000495194,None,,,,,,,149,0,149,0,659.4784796000022,,,,,,,,,,,,,,,,,,,,,,,659.4621362999969,659.4784796000022,659.9784566000017,659.961916399996,,,,,,,,,,,,,,,,,,,,,,,,,,659.9671909999961,659.9784566000017,659.9784566000017,659.9784566000017,662.9783577999988,662.9783577999988,662.9783577999988,662.9619383999961,indoor,None,662.9619684999998,662.9783577999988,662.9783577999988,663.3786742000011,f,0.39952460000495194,None,,,,,,,,,,,,00021,001,2025-11-08_21h31.55.785,MST_task,2024.2.2,59.98929790807444,2025-11-08 21h32.02.137489 +0530,
,Objects\242a.jpg,150,0,150,,,,,,,j,None,,,2.0412691999954404,0.1575490000032005,,,,,150,0,150,0,663.3950604999991,,,,,,,,,,,,,,,,,,,,,,,663.3787489999959,663.3950604999991,663.8950141000023,663.8786607000002,,,,,,,,,,,,,,,,,,,,,,,,,,663.8811979999955,663.8950141000023,663.8950141000023,663.8950141000023,666.8949743999983,666.8949743999983,666.8949743999983,666.8785034999964,indoor,j,666.8785427999974,,,666.8785530000023,None,,,2.0412691999954404,0.1575490000032005,,,,,,,,,,00021,001,2025-11-08_21h31.55.785,MST_task,2024.2.2,59.98929790807444,2025-11-08 21h32.02.137489 +0530,
,Objects\136a.jpg,151,0,151,,,,,,,f,None,,,1.6011572999996133,0.14117950000218116,,,,,151,0,151,0,666.8949743999983,,,,,,,,,,,,,,,,,,,,,,,666.8786117999989,666.8949743999983,667.3949644999957,667.3784958999968,,,,,,,,,,,,,,,,,,,,,,,,,,667.3804533000002,667.3949644999957,667.3949644999957,667.3949644999957,670.3949013999954,670.3949013999954,670.3949013999954,670.3785276999988,indoor,f,670.3785645000025,,,670.3785742999971,None,,,1.6011572999996133,0.14117950000218116,,,,,,,,,,00021,001,2025-11-08_21h31.55.785,MST_task,2024.2.2,59.98929790807444,2025-11-08 21h32.02.137489 +0530,
,Objects\321a.jpg,152,0,152,,,,,,,j,None,,,1.6431116000021575,0.14567589999933261,,,,,152,0,152,0,670.3949013999954,,,,,,,,,,,,,,,,,,,,,,,670.3786286999966,670.3949013999954,670.8948848,670.8786228999961,,,,,,,,,,,,,,,,,,,,,,,,,,670.8832196000003,670.8948848,670.8948848,670.8948848,673.8948055000001,673.8948055000001,673.8948055000001,673.8784257000007,indoor,j,673.8784688000014,,,673.8784794000021,None,,,1.6431116000021575,0.14567589999933261,,,,,,,,,,00021,001,2025-11-08_21h31.55.785,MST_task,2024.2.2,59.98929790807444,2025-11-08 21h32.02.137489 +0530,
,Objects\356a.jpg,153,0,153,,,,,,,f,None,,,2.3724129000038374,0.16439549999631708,,,,,153,0,153,0,673.8948055000001,,,,,,,,,,,,,,,,,,,,,,,673.8785346000004,673.8948055000001,674.3948107999968,674.3783048999976,,,,,,,,,,,,,,,,,,,,,,,,,,674.3827851000024,674.3948107999968,674.3948107999968,674.3948107999968,677.3947126999992,677.3947126999992,677.3947126999992,677.3783552999957,indoor,f,677.3783943000017,,,677.3784037000005,None,,,2.3724129000038374,0.16439549999631708,,,,,,,,,,00021,001,2025-11-08_21h31.55.785,MST_task,2024.2.2,59.98929790807444,2025-11-08 21h32.02.137489 +0530,
,Objects\091a.jpg,154,0,154,,,,,,,j,None,,,2.33274910000182,0.177773099996557,,,,,154,0,154,0,677.3947126999992,,,,,,,,,,,,,,,,,,,,,,,677.3784588999988,677.3947126999992,677.8947129000007,677.8784601000007,,,,,,,,,,,,,,,,,,,,,,,,,,677.885050500001,677.8947129000007,677.8947129000007,677.8947129000007,680.8946724999987,680.8946724999987,680.8946724999987,680.8783258999974,shoe,j,680.8798725000015,,,680.8798855999994,None,,,2.33274910000182,0.177773099996557,,,,,,,,,,00021,001,2025-11-08_21h31.55.785,MST_task,2024.2.2,59.98929790807444,2025-11-08 21h32.02.137489 +0530,
,Objects\361a.jpg,155,0,155,,,,,,,j,None,,,1.942497000003641,0.14943909999419702,,,,,155,0,155,0,680.8946724999987,,,,,,,,,,,,,,,,,,,,,,,680.8799792999998,680.8946724999987,681.3946635999964,681.3781940999979,,,,,,,,,,,,,,,,,,,,,,,,,,681.3806191999975,681.3946635999964,681.3946635999964,681.3946635999964,684.3946023999961,684.3946023999961,684.3946023999961,684.378267,shoe,j,684.3783026000019,,,684.3783113999962,None,,,1.942497000003641,0.14943909999419702,,,,,,,,,,00021,001,2025-11-08_21h31.55.785,MST_task,2024.2.2,59.98929790807444,2025-11-08 21h32.02.137489 +0530,
