thisN,thisTrialN,thisRepN,key_resp_3.keys,key_resp_3.rt,key_resp_3.duration,trials.thisRepN,trials.thisTrialN,trials.thisN,trials.thisIndex,thisRow.t,notes,intro_page.started,text.started,key_resp.started,intro_page.stopped,key_resp.keys,key_resp.rt,key_resp.duration,instructions.started,text_2.started,key_resp_2.started,instructions.stopped,key_resp_2.keys,key_resp_2.rt,key_resp_2.duration,demo1.started,image_1.started,image_2.started,text_7.started,key_resp_6.started,text_9.started,demo1.stopped,key_resp_6.keys,key_resp_6.rt,key_resp_6.duration,demo3.started,image_5.started,image_6.started,text_11.started,text_12.started,key_resp_8.started,demo3.stopped,key_resp_8.keys,key_resp_8.rt,key_resp_8.duration,demo_conclusion.started,text_13.started,key_resp_9.started,demo_conclusion.stopped,key_resp_9.keys,key_resp_9.rt,key_resp_9.duration,start_test.started,text_6.started,key_resp_5.started,start_test.stopped,key_resp_5.keys,key_resp_5.rt,key_resp_5.duration,ISI.started,text_4.started,text_4.stopped,ISI.stopped,routine_1.started,image.started,text_3.started,key_resp_3.started,routine_1.stopped,image_path,position_of_stimuli,trials.key_resp_3.keys,trials.key_resp_3.rt,trials.key_resp_3.duration,End_page.started,text_5.started,key_resp_4.started,End_page.stopped,key_resp_4.keys,key_resp_4.rt,key_resp_4.duration,participant,session,date,expName,psychopyVersion,frameRate,expStart,
,,,,,,,,,,,,0.007312400000046182,0.02370489999975689,0.02370489999975689,2.9917348999997557,space,2.957020100000591,None,,,,,,,,,,,,,,,,,,,,,,,,,,,,,,,,,,,,,,,,,,,,,,,,,,,,,,,,,,,,,,,00027,001,2025-11-14_17h03.55.071,MST_test,2024.2.2,59.97566187644062,2025-11-14 17h04.01.333542 +0530,
,,,,,,,,,,,,,,,,,,,2.9917622000002666,3.006930600000487,3.006930600000487,13.823707200000172,space,10.801412700000583,None,,,,,,,,,,,,,,,,,,,,,,,,,,,,,,,,,,,,,,,,,,,,,,,,,,,,,,,,00027,001,2025-11-14_17h03.55.071,MST_test,2024.2.2,59.97566187644062,2025-11-14 17h04.01.333542 +0530,
,,,,,,,,,,,,,,,,,,,,,,,,,,13.823732800000471,13.840058200000385,13.840058200000385,13.840058200000385,13.840058200000385,13.840058200000385,16.823725100000047,space,2.97949779999999,None,,,,,,,,,,,,,,,,,,,,,,,,,,,,,,,,,,,,,,,,,,,,,,00027,001,2025-11-14_17h03.55.071,MST_test,2024.2.2,59.97566187644062,2025-11-14 17h04.01.333542 +0530,
,,,,,,,,,,,,,,,,,,,,,,,,,,,,,,,,,,,,16.823748900000282,16.84001189999981,16.84001189999981,16.84001189999981,16.84001189999981,16.84001189999981,20.02359130000059,space,3.1680962999998883,None,,,,,,,,,,,,,,,,,,,,,,,,,,,,,,,,,,,,00027,001,2025-11-14_17h03.55.071,MST_test,2024.2.2,59.97566187644062,2025-11-14 17h04.01.333542 +0530,
,,,,,,,,,,,,,,,,,,,,,,,,,,,,,,,,,,,,,,,,,,,,,,20.023615000000063,20.039969200000087,20.039969200000087,69.00600579999991,space,48.949997099999564,None,,,,,,,,,,,,,,,,,,,,,,,,,,,,,00027,001,2025-11-14_17h03.55.071,MST_test,2024.2.2,59.97566187644062,2025-11-14 17h04.01.333542 +0530,
,,,,,,,,,,,,,,,,,,,,,,,,,,,,,,,,,,,,,,,,,,,,,,,,,,,,,69.00604900000053,69.02218869999979,69.02218869999979,81.72224970000025,space,12.698864599999979,None,,,,,,,,,,,,,,,,,,,,,,00027,001,2025-11-14_17h03.55.071,MST_test,2024.2.2,59.97566187644062,2025-11-14 17h04.01.333542 +0530,
0,0,0,n,8.745712199999616,None,0,0,0,0,81.73859230000016,,,,,,,,,,,,,,,,,,,,,,,,,,,,,,,,,,,,,,,,,,,,,,,,,,81.7250369000003,81.73859230000016,82.68866309999976,82.22208870000031,82.67585280000003,82.68866309999976,82.68866309999976,82.68866309999976,91.43886340000063,Foils\f5.jpg,none,n,8.745712199999616,None,,,,,,,,00027,001,2025-11-14_17h03.55.071,MST_test,2024.2.2,59.97566187644062,2025-11-14 17h04.01.333542 +0530,
1,0,1,s,19.4398398000003,None,1,0,1,0,91.45522770000025,,,,,,,,,,,,,,,,,,,,,,,,,,,,,,,,,,,,,,,,,,,,,,,,,,91.4389570000003,91.45522770000025,91.97195160000047,91.93858340000043,91.96380950000002,91.97195160000047,91.97195160000047,91.97195160000047,111.42163359999995,Objects\378b.jpg,pre,s,19.4398398000003,None,,,,,,,,00027,001,2025-11-14_17h03.55.071,MST_test,2024.2.2,59.97566187644062,2025-11-14 17h04.01.333542 +0530,
2,0,2,o,3.611912200000006,None,2,0,2,0,111.4379514000002,,,,,,,,,,,,,,,,,,,,,,,,,,,,,,,,,,,,,,,,,,,,,,,,,,111.42172430000028,111.4379514000002,111.93821190000017,111.92148400000042,111.92732179999985,111.93821190000017,111.93821190000017,111.93821190000017,115.55492380000032,Objects\282a.jpg,mid,o,3.611912200000006,None,,,,,,,,00027,001,2025-11-14_17h03.55.071,MST_test,2024.2.2,59.97566187644062,2025-11-14 17h04.01.333542 +0530,
3,0,3,o,1.7825376999999207,None,3,0,3,0,115.57123589999992,,,,,,,,,,,,,,,,,,,,,,,,,,,,,,,,,,,,,,,,,,,,,,,,,,115.5550162999998,115.57123589999992,116.07119289999991,116.05488090000017,116.05770519999987,116.07119289999991,116.07119289999991,116.07119289999991,117.85489779999989,Objects\118a.jpg,post,o,1.7825376999999207,None,,,,,,,,00027,001,2025-11-14_17h03.55.071,MST_test,2024.2.2,59.97566187644062,2025-11-14 17h04.01.333542 +0530,
4,0,4,n,3.6522162000001117,None,4,0,4,0,117.87118050000026,,,,,,,,,,,,,,,,,,,,,,,,,,,,,,,,,,,,,,,,,,,,,,,,,,117.85499010000058,117.87118050000026,127.3545525999998,118.3546995000006,127.34342410000045,127.3545525999998,127.3545525999998,127.3545525999998,131.02127810000002,Foils\090a.jpg,none,n,3.6522162000001117,None,,,,,,,,00027,001,2025-11-14_17h03.55.071,MST_test,2024.2.2,59.97566187644062,2025-11-14 17h04.01.333542 +0530,
5,0,5,n,6.3060785000006945,None,5,0,5,0,131.0375640000002,,,,,,,,,,,,,,,,,,,,,,,,,,,,,,,,,,,,,,,,,,,,,,,,,,131.02137200000016,131.0375640000002,131.53752070000064,131.52114820000043,131.52999679999994,131.53752070000064,131.53752070000064,131.53752070000064,137.8544326000001,Foils\050a.jpg,none,n,6.3060785000006945,None,,,,,,,,00027,001,2025-11-14_17h03.55.071,MST_test,2024.2.2,59.97566187644062,2025-11-14 17h04.01.333542 +0530,
6,0,6,s,3.728991400000268,None,6,0,6,0,137.87076810000053,,,,,,,,,,,,,,,,,,,,,,,,,,,,,,,,,,,,,,,,,,,,,,,,,,137.8545180000001,137.87076810000053,138.62071259999993,138.3542991000004,138.60705899999994,138.62071259999993,138.62071259999993,138.62071259999993,142.35429459999978,Objects\003b.jpg,pre,s,3.728991400000268,None,,,,,,,,00027,001,2025-11-14_17h03.55.071,MST_test,2024.2.2,59.97566187644062,2025-11-14 17h04.01.333542 +0530,
7,0,7,s,8.11497589999999,None,7,0,7,0,142.37065090000033,,,,,,,,,,,,,,,,,,,,,,,,,,,,,,,,,,,,,,,,,,,,,,,,,,142.3543748000002,142.37065090000033,142.8875482000003,142.85414589999982,142.88061470000048,142.8875482000003,142.8875482000003,142.8875482000003,151.00420649999978,Objects\290b.jpg,post,s,8.11497589999999,None,,,,,,,,00027,001,2025-11-14_17h03.55.071,MST_test,2024.2.2,59.97566187644062,2025-11-14 17h04.01.333542 +0530,
8,0,8,o,1.688063300000067,None,8,0,8,0,151.02048259999992,,,,,,,,,,,,,,,,,,,,,,,,,,,,,,,,,,,,,,,,,,,,,,,,,,151.00429260000055,151.02048259999992,151.5704366,151.50399749999997,151.56050719999985,151.5704366,151.5704366,151.5704366,153.2707129999999,Objects\052b.jpg,mid,o,1.688063300000067,None,,,,,,,,00027,001,2025-11-14_17h03.55.071,MST_test,2024.2.2,59.97566187644062,2025-11-14 17h04.01.333542 +0530,
9,0,9,s,2.1849279999996725,None,9,0,9,0,153.28708540000025,,,,,,,,,,,,,,,,,,,,,,,,,,,,,,,,,,,,,,,,,,,,,,,,,,153.27079760000015,153.28708540000025,154.03668879999987,153.7705415999999,154.0318398999998,154.03668879999987,154.03668879999987,154.03668879999987,156.23740629999975,Objects\097b.jpg,mid,s,2.1849279999996725,None,,,,,,,,00027,001,2025-11-14_17h03.55.071,MST_test,2024.2.2,59.97566187644062,2025-11-14 17h04.01.333542 +0530,
10,0,10,o,1.7483634999998685,None,10,0,10,0,156.25370740000017,,,,,,,,,,,,,,,,,,,,,,,,,,,,,,,,,,,,,,,,,,,,,,,,,,156.23749430000044,156.25370740000017,156.75367110000025,156.73723950000021,156.74202630000036,156.75367110000025,156.75367110000025,156.75367110000025,158.5040237000003,Objects\195a.jpg,post,o,1.7483634999998685,None,,,,,,,,00027,001,2025-11-14_17h03.55.071,MST_test,2024.2.2,59.97566187644062,2025-11-14 17h04.01.333542 +0530,
11,0,11,o,1.5199335999996038,None,11,0,11,0,158.52031530000022,,,,,,,,,,,,,,,,,,,,,,,,,,,,,,,,,,,,,,,,,,,,,,,,,,158.5041173999998,158.52031530000022,159.22031549999974,159.00377459999982,159.20659250000062,159.22031549999974,159.22031549999974,159.22031549999974,160.75388500000008,Objects\016b.jpg,pre,o,1.5199335999996038,None,,,,,,,,00027,001,2025-11-14_17h03.55.071,MST_test,2024.2.2,59.97566187644062,2025-11-14 17h04.01.333542 +0530,
12,0,12,s,1.715728900000613,None,12,0,12,0,160.77029010000024,,,,,,,,,,,,,,,,,,,,,,,,,,,,,,,,,,,,,,,,,,,,,,,,,,160.75396199999977,160.77029010000024,161.2869939000002,161.25377639999988,161.27278360000037,161.2869939000002,161.2869939000002,161.2869939000002,163.00388100000055,Objects\091b.jpg,pre,s,1.715728900000613,None,,,,,,,,00027,001,2025-11-14_17h03.55.071,MST_test,2024.2.2,59.97566187644062,2025-11-14 17h04.01.333542 +0530,
13,0,13,o,2.61273650000021,None,13,0,13,0,163.02018750000025,,,,,,,,,,,,,,,,,,,,,,,,,,,,,,,,,,,,,,,,,,,,,,,,,,163.0039654000002,163.02018750000025,163.6535412000003,163.50372040000002,163.63283649999994,163.6535412000003,163.6535412000003,163.6535412000003,166.2704872000004,Objects\113b.jpg,post,o,2.61273650000021,None,,,,,,,,00027,001,2025-11-14_17h03.55.071,MST_test,2024.2.2,59.97566187644062,2025-11-14 17h04.01.333542 +0530,
14,0,14,o,2.8010112000001754,None,14,0,14,0,166.28682490000028,,,,,,,,,,,,,,,,,,,,,,,,,,,,,,,,,,,,,,,,,,,,,,,,,,166.27057160000004,166.28682490000028,166.78686590000052,166.77035799999976,166.77432560000034,166.78686590000052,166.78686590000052,166.78686590000052,169.60373700000036,Objects\251a.jpg,pre,o,2.8010112000001754,None,,,,,,,,00027,001,2025-11-14_17h03.55.071,MST_test,2024.2.2,59.97566187644062,2025-11-14 17h04.01.333542 +0530,
15,0,15,o,2.574743400000443,None,15,0,15,0,169.62008070000047,,,,,,,,,,,,,,,,,,,,,,,,,,,,,,,,,,,,,,,,,,,,,,,,,,169.6038226999999,169.62008070000047,170.15338450000036,170.10356560000037,170.13521320000018,170.15338450000036,170.15338450000036,170.15338450000036,172.73691130000043,Objects\339b.jpg,mid,o,2.574743400000443,None,,,,,,,,00027,001,2025-11-14_17h03.55.071,MST_test,2024.2.2,59.97566187644062,2025-11-14 17h04.01.333542 +0530,
16,0,16,o,1.209339799999725,None,16,0,16,0,172.75334350000048,,,,,,,,,,,,,,,,,,,,,,,,,,,,,,,,,,,,,,,,,,,,,,,,,,172.73698590000004,172.75334350000048,173.2533411000004,173.23678000000018,173.2425041000006,173.2533411000004,173.2533411000004,173.2533411000004,174.4703595000001,Objects\042a.jpg,pre,o,1.209339799999725,None,,,,,,,,00027,001,2025-11-14_17h03.55.071,MST_test,2024.2.2,59.97566187644062,2025-11-14 17h04.01.333542 +0530,
17,0,17,n,7.473848199999338,None,17,0,17,0,174.48664310000004,,,,,,,,,,,,,,,,,,,,,,,,,,,,,,,,,,,,,,,,,,,,,,,,,,174.4704412000001,174.48664310000004,174.98660010000003,174.9701156000001,174.97761460000038,174.98660010000003,174.98660010000003,174.98660010000003,182.47027890000027,Foils\042a.jpg,none,n,7.473848199999338,None,,,,,,,,00027,001,2025-11-14_17h03.55.071,MST_test,2024.2.2,59.97566187644062,2025-11-14 17h04.01.333542 +0530,
18,0,18,o,1.5935643000002528,None,18,0,18,0,182.48647510000046,,,,,,,,,,,,,,,,,,,,,,,,,,,,,,,,,,,,,,,,,,,,,,,,,,182.47036339999977,182.48647510000046,182.9864277000006,182.9701745000002,182.9721509000001,182.9864277000006,182.9864277000006,182.9864277000006,184.58670560000064,Objects\102a.jpg,pre,o,1.5935643000002528,None,,,,,,,,00027,001,2025-11-14_17h03.55.071,MST_test,2024.2.2,59.97566187644062,2025-11-14 17h04.01.333542 +0530,
19,0,19,o,0.9934070999997857,None,19,0,19,0,184.6030934999999,,,,,,,,,,,,,,,,,,,,,,,,,,,,,,,,,,,,,,,,,,,,,,,,,,184.58679630000006,184.6030934999999,185.10304670000005,185.08669999999984,185.09118430000035,185.10304670000005,185.10304670000005,185.10304670000005,186.10332579999977,Objects\368a.jpg,pre,o,0.9934070999997857,None,,,,,,,,00027,001,2025-11-14_17h03.55.071,MST_test,2024.2.2,59.97566187644062,2025-11-14 17h04.01.333542 +0530,
20,0,20,s,2.3319085000002815,None,20,0,20,0,186.11972400000013,,,,,,,,,,,,,,,,,,,,,,,,,,,,,,,,,,,,,,,,,,,,,,,,,,186.10341609999978,186.11972400000013,186.6196888000004,186.60322290000022,186.60826090000046,186.6196888000004,186.6196888000004,186.6196888000004,188.9533196000002,Objects\132a.jpg,post,s,2.3319085000002815,None,,,,,,,,00027,001,2025-11-14_17h03.55.071,MST_test,2024.2.2,59.97566187644062,2025-11-14 17h04.01.333542 +0530,
21,0,21,s,1.6217753000000812,None,21,0,21,0,188.96964079999998,,,,,,,,,,,,,,,,,,,,,,,,,,,,,,,,,,,,,,,,,,,,,,,,,,188.95339980000062,188.96964079999998,189.86965450000025,189.45318730000054,189.85918829999991,189.86965450000025,189.86965450000025,189.86965450000025,191.5032873,Objects\221b.jpg,post,s,1.6217753000000812,None,,,,,,,,00027,001,2025-11-14_17h03.55.071,MST_test,2024.2.2,59.97566187644062,2025-11-14 17h04.01.333542 +0530,
22,0,22,n,2.319069099999979,None,22,0,22,0,191.51973700000053,,,,,,,,,,,,,,,,,,,,,,,,,,,,,,,,,,,,,,,,,,,,,,,,,,191.50336510000034,191.51973700000053,192.50294099999974,192.0032882000005,192.49294180000015,192.50294099999974,192.50294099999974,192.50294099999974,194.83646520000002,Foils\f7.jpg,none,n,2.319069099999979,None,,,,,,,,00027,001,2025-11-14_17h03.55.071,MST_test,2024.2.2,59.97566187644062,2025-11-14 17h04.01.333542 +0530,
23,0,23,n,2.1789400000006935,None,23,0,23,0,194.85301570000047,,,,,,,,,,,,,,,,,,,,,,,,,,,,,,,,,,,,,,,,,,,,,,,,,,194.83654410000054,194.85301570000047,195.3528651000006,195.33641270000044,195.34740370000054,195.3528651000006,195.3528651000006,195.3528651000006,197.53664370000024,Foils\017a.jpg,none,n,2.1789400000006935,None,,,,,,,,00027,001,2025-11-14_17h03.55.071,MST_test,2024.2.2,59.97566187644062,2025-11-14 17h04.01.333542 +0530,
24,0,24,s,1.695284299999912,None,24,0,24,0,197.55283409999993,,,,,,,,,,,,,,,,,,,,,,,,,,,,,,,,,,,,,,,,,,,,,,,,,,197.53672540000025,197.55283409999993,198.41911859999982,198.0363642000002,198.41365150000001,198.41911859999982,198.41911859999982,198.41911859999982,200.11995670000033,Objects\279b.jpg,pre,s,1.695284299999912,None,,,,,,,,00027,001,2025-11-14_17h03.55.071,MST_test,2024.2.2,59.97566187644062,2025-11-14 17h04.01.333542 +0530,
25,0,25,s,1.9417081999999937,None,25,0,25,0,200.13621930000045,,,,,,,,,,,,,,,,,,,,,,,,,,,,,,,,,,,,,,,,,,,,,,,,,,200.12004539999998,200.13621930000045,200.63614460000008,200.61965920000057,200.6238497000004,200.63614460000008,200.63614460000008,200.63614460000008,202.5863543000005,Objects\202a.jpg,post,s,1.9417081999999937,None,,,,,,,,00027,001,2025-11-14_17h03.55.071,MST_test,2024.2.2,59.97566187644062,2025-11-14 17h04.01.333542 +0530,
26,0,26,s,1.4876005000005534,None,26,0,26,0,202.60274670000035,,,,,,,,,,,,,,,,,,,,,,,,,,,,,,,,,,,,,,,,,,,,,,,,,,202.58643310000025,202.60274670000035,203.18601800000033,203.08625720000055,203.16526340000019,203.18601800000033,203.18601800000033,203.18601800000033,204.6863854000003,Objects\325b.jpg,pre,s,1.4876005000005534,None,,,,,,,,00027,001,2025-11-14_17h03.55.071,MST_test,2024.2.2,59.97566187644062,2025-11-14 17h04.01.333542 +0530,
27,0,27,s,1.9025944000004529,None,27,0,27,0,204.7027050000006,,,,,,,,,,,,,,,,,,,,,,,,,,,,,,,,,,,,,,,,,,,,,,,,,,204.6864714000003,204.7027050000006,205.2693387999998,205.18627860000015,205.25190870000006,205.2693387999998,205.2693387999998,205.2693387999998,207.1863985,Objects\331b.jpg,post,s,1.9025944000004529,None,,,,,,,,00027,001,2025-11-14_17h03.55.071,MST_test,2024.2.2,59.97566187644062,2025-11-14 17h04.01.333542 +0530,
28,0,28,n,2.3566042999991623,None,28,0,28,0,207.20267520000016,,,,,,,,,,,,,,,,,,,,,,,,,,,,,,,,,,,,,,,,,,,,,,,,,,207.18647860000056,207.20267520000016,207.9359371999999,207.6863739999999,207.9135495999999,207.9359371999999,207.9359371999999,207.9359371999999,210.3029078999998,Foils\f6.jpg,none,n,2.3566042999991623,None,,,,,,,,00027,001,2025-11-14_17h03.55.071,MST_test,2024.2.2,59.97566187644062,2025-11-14 17h04.01.333542 +0530,
29,0,29,o,1.4044350999993185,None,29,0,29,0,210.31922730000042,,,,,,,,,,,,,,,,,,,,,,,,,,,,,,,,,,,,,,,,,,,,,,,,,,210.30299680000007,210.31922730000042,210.81928229999994,210.80277920000026,210.8079544000002,210.81928229999994,210.81928229999994,210.81928229999994,212.23613560000013,Objects\164a.jpg,pre,o,1.4044350999993185,None,,,,,,,,00027,001,2025-11-14_17h03.55.071,MST_test,2024.2.2,59.97566187644062,2025-11-14 17h04.01.333542 +0530,
30,0,30,n,2.0031513000003542,None,30,0,30,0,212.25252360000013,,,,,,,,,,,,,,,,,,,,,,,,,,,,,,,,,,,,,,,,,,,,,,,,,,212.23622549999982,212.25252360000013,212.75255030000062,212.7362081000001,212.74394240000038,212.75255030000062,212.75255030000062,212.75255030000062,214.76958509999986,Foils\033a.jpg,none,n,2.0031513000003542,None,,,,,,,,00027,001,2025-11-14_17h03.55.071,MST_test,2024.2.2,59.97566187644062,2025-11-14 17h04.01.333542 +0530,
31,0,31,n,2.3963025000002744,None,31,0,31,0,214.78587010000047,,,,,,,,,,,,,,,,,,,,,,,,,,,,,,,,,,,,,,,,,,,,,,,,,,214.76966100000027,214.78587010000047,215.28601320000053,215.26942300000064,215.27705220000007,215.28601320000053,215.28601320000053,215.28601320000053,217.68621520000033,Foils\082a.jpg,none,n,2.3963025000002744,None,,,,,,,,00027,001,2025-11-14_17h03.55.071,MST_test,2024.2.2,59.97566187644062,2025-11-14 17h04.01.333542 +0530,
32,0,32,n,1.5429135000003953,None,32,0,32,0,217.70235599999978,,,,,,,,,,,,,,,,,,,,,,,,,,,,,,,,,,,,,,,,,,,,,,,,,,217.68629650000003,217.70235599999978,218.20245460000024,218.1860016999999,218.19351050000023,218.20245460000024,218.20245460000024,218.20245460000024,219.75271040000007,Foils\073a.jpg,none,n,1.5429135000003953,None,,,,,,,,00027,001,2025-11-14_17h03.55.071,MST_test,2024.2.2,59.97566187644062,2025-11-14 17h04.01.333542 +0530,
33,0,33,s,1.5149409000005107,None,33,0,33,0,219.76909250000062,,,,,,,,,,,,,,,,,,,,,,,,,,,,,,,,,,,,,,,,,,,,,,,,,,219.752794,219.76909250000062,220.2689674000003,220.2524954999999,220.25449990000016,220.2689674000003,220.2689674000003,220.2689674000003,221.78601760000038,Objects\050a.jpg,mid,s,1.5149409000005107,None,,,,,,,,00027,001,2025-11-14_17h03.55.071,MST_test,2024.2.2,59.97566187644062,2025-11-14 17h04.01.333542 +0530,
34,0,34,s,1.3901374999995824,None,34,0,34,0,221.80229640000016,,,,,,,,,,,,,,,,,,,,,,,,,,,,,,,,,,,,,,,,,,,,,,,,,,221.7861044000001,221.80229640000016,222.38569420000022,222.28577889999997,222.36437560000013,222.38569420000022,222.38569420000022,222.38569420000022,223.7859011999999,Objects\098b.jpg,mid,s,1.3901374999995824,None,,,,,,,,00027,001,2025-11-14_17h03.55.071,MST_test,2024.2.2,59.97566187644062,2025-11-14 17h04.01.333542 +0530,
35,0,35,o,1.6438309000004665,None,35,0,35,0,223.80225549999977,,,,,,,,,,,,,,,,,,,,,,,,,,,,,,,,,,,,,,,,,,,,,,,,,,223.78598460000012,223.80225549999977,224.30224520000047,224.28578460000062,224.28787079999984,224.30224520000047,224.30224520000047,224.30224520000047,225.95261630000005,Objects\252a.jpg,pre,o,1.6438309000004665,None,,,,,,,,00027,001,2025-11-14_17h03.55.071,MST_test,2024.2.2,59.97566187644062,2025-11-14 17h04.01.333542 +0530,
36,0,36,s,5.488061600000037,None,36,0,36,0,225.9688784,,,,,,,,,,,,,,,,,,,,,,,,,,,,,,,,,,,,,,,,,,,,,,,,,,225.9527011,225.9688784,226.46884099999988,226.45237600000019,226.4544480000004,226.46884099999988,226.46884099999988,226.46884099999988,231.96908930000063,Objects\060a.jpg,pre,s,5.488061600000037,None,,,,,,,,00027,001,2025-11-14_17h03.55.071,MST_test,2024.2.2,59.97566187644062,2025-11-14 17h04.01.333542 +0530,
37,0,37,o,1.2509772999992492,None,37,0,37,0,231.98541690000002,,,,,,,,,,,,,,,,,,,,,,,,,,,,,,,,,,,,,,,,,,,,,,,,,,231.96916580000016,231.98541690000002,232.48538019999978,232.46893460000047,232.4731412000001,232.48538019999978,232.48538019999978,232.48538019999978,233.75233480000043,Objects\367a.jpg,pre,o,1.2509772999992492,None,,,,,,,,00027,001,2025-11-14_17h03.55.071,MST_test,2024.2.2,59.97566187644062,2025-11-14 17h04.01.333542 +0530,
38,0,38,o,2.0955282000004445,None,38,0,38,0,233.7687560000004,,,,,,,,,,,,,,,,,,,,,,,,,,,,,,,,,,,,,,,,,,,,,,,,,,233.75241800000003,233.7687560000004,234.26868999999988,234.25218980000045,234.25728359999994,234.26868999999988,234.26868999999988,234.26868999999988,236.36897500000032,Objects\130a.jpg,post,o,2.0955282000004445,None,,,,,,,,00027,001,2025-11-14_17h03.55.071,MST_test,2024.2.2,59.97566187644062,2025-11-14 17h04.01.333542 +0530,
39,0,39,o,2.940404899999521,None,39,0,39,0,236.38532269999996,,,,,,,,,,,,,,,,,,,,,,,,,,,,,,,,,,,,,,,,,,,,,,,,,,236.36905370000022,236.38532269999996,236.88528330000008,236.8687985000006,236.87081750000016,236.88528330000008,236.88528330000008,236.88528330000008,239.8354801000005,Objects\032a.jpg,pre,o,2.940404899999521,None,,,,,,,,00027,001,2025-11-14_17h03.55.071,MST_test,2024.2.2,59.97566187644062,2025-11-14 17h04.01.333542 +0530,
40,0,40,s,1.4060171000000992,None,40,0,40,0,239.8519107000002,,,,,,,,,,,,,,,,,,,,,,,,,,,,,,,,,,,,,,,,,,,,,,,,,,239.83555830000023,239.8519107000002,240.61815710000064,240.33538190000036,240.61151130000053,240.61815710000064,240.61815710000064,240.61815710000064,242.0354627000006,Objects\198b.jpg,mid,s,1.4060171000000992,None,,,,,,,,00027,001,2025-11-14_17h03.55.071,MST_test,2024.2.2,59.97566187644062,2025-11-14 17h04.01.333542 +0530,
41,0,41,o,1.5604779999994207,None,41,0,41,0,242.0518535000001,,,,,,,,,,,,,,,,,,,,,,,,,,,,,,,,,,,,,,,,,,,,,,,,,,242.03554540000005,242.0518535000001,242.58516839999993,242.53542460000062,242.5786023999999,242.58516839999993,242.58516839999993,242.58516839999993,244.15224279999984,Objects\167b.jpg,pre,o,1.5604779999994207,None,,,,,,,,00027,001,2025-11-14_17h03.55.071,MST_test,2024.2.2,59.97566187644062,2025-11-14 17h04.01.333542 +0530,
42,0,42,s,4.853670200000124,None,42,0,42,0,244.16849530000036,,,,,,,,,,,,,,,,,,,,,,,,,,,,,,,,,,,,,,,,,,,,,,,,,,244.1523216000005,244.16849530000036,244.81847579999976,244.651973,244.79973130000053,244.81847579999976,244.81847579999976,244.81847579999976,249.68529769999986,Objects\222b.jpg,mid,s,4.853670200000124,None,,,,,,,,00027,001,2025-11-14_17h03.55.071,MST_test,2024.2.2,59.97566187644062,2025-11-14 17h04.01.333542 +0530,
43,0,43,o,0.966699300000073,None,43,0,43,0,249.70170400000006,,,,,,,,,,,,,,,,,,,,,,,,,,,,,,,,,,,,,,,,,,,,,,,,,,249.6853744,249.70170400000006,250.20166419999987,250.18520270000045,250.19026550000035,250.20166419999987,250.20166419999987,250.20166419999987,251.1687421000006,Objects\077a.jpg,pre,o,0.966699300000073,None,,,,,,,,00027,001,2025-11-14_17h03.55.071,MST_test,2024.2.2,59.97566187644062,2025-11-14 17h04.01.333542 +0530,
44,0,44,s,1.6166231999995944,None,44,0,44,0,251.18499789999987,,,,,,,,,,,,,,,,,,,,,,,,,,,,,,,,,,,,,,,,,,,,,,,,,,251.16882710000027,251.18499789999987,252.23499739999988,251.66862039999978,252.22454970000035,252.23499739999988,252.23499739999988,252.23499739999988,253.8521209999999,Objects\054b.jpg,pre,s,1.6166231999995944,None,,,,,,,,00027,001,2025-11-14_17h03.55.071,MST_test,2024.2.2,59.97566187644062,2025-11-14 17h04.01.333542 +0530,
45,0,45,s,2.209914399999434,None,45,0,45,0,253.86824930000057,,,,,,,,,,,,,,,,,,,,,,,,,,,,,,,,,,,,,,,,,,,,,,,,,,253.8522094,253.86824930000057,254.3682770000005,254.3518238000006,254.35721980000017,254.3682770000005,254.3682770000005,254.3682770000005,256.58553570000004,Objects\355a.jpg,mid,s,2.209914399999434,None,,,,,,,,00027,001,2025-11-14_17h03.55.071,MST_test,2024.2.2,59.97566187644062,2025-11-14 17h04.01.333542 +0530,
46,0,46,s,1.5094373000001724,None,46,0,46,0,256.60156540000025,,,,,,,,,,,,,,,,,,,,,,,,,,,,,,,,,,,,,,,,,,,,,,,,,,256.5856276000004,256.60156540000025,257.6848765000004,257.0850495000004,257.6705615000001,257.6848765000004,257.6848765000004,257.6848765000004,259.2019164000003,Objects\219b.jpg,post,s,1.5094373000001724,None,,,,,,,,00027,001,2025-11-14_17h03.55.071,MST_test,2024.2.2,59.97566187644062,2025-11-14 17h04.01.333542 +0530,
47,0,47,s,1.6991054999998596,None,47,0,47,0,259.2181773000002,,,,,,,,,,,,,,,,,,,,,,,,,,,,,,,,,,,,,,,,,,,,,,,,,,259.20200300000033,259.2181773000002,260.2848144999998,259.7016362000004,260.2693188000003,260.2848144999998,260.2848144999998,260.2848144999998,261.9851636000003,Objects\315b.jpg,pre,s,1.6991054999998596,None,,,,,,,,00027,001,2025-11-14_17h03.55.071,MST_test,2024.2.2,59.97566187644062,2025-11-14 17h04.01.333542 +0530,
48,0,48,s,1.794941000000108,None,48,0,48,0,262.00149650000003,,,,,,,,,,,,,,,,,,,,,,,,,,,,,,,,,,,,,,,,,,,,,,,,,,261.98524290000023,262.00149650000003,262.50142589999996,262.4850058000002,262.49058590000004,262.50142589999996,262.50142589999996,262.50142589999996,264.30171560000053,Objects\229a.jpg,mid,s,1.794941000000108,None,,,,,,,,00027,001,2025-11-14_17h03.55.071,MST_test,2024.2.2,59.97566187644062,2025-11-14 17h04.01.333542 +0530,
49,0,49,s,0.9326430000000983,None,49,0,49,0,264.3180732000001,,,,,,,,,,,,,,,,,,,,,,,,,,,,,,,,,,,,,,,,,,,,,,,,,,264.3017982000001,264.3180732000001,264.9013880000002,264.80153000000064,264.89105519999976,264.9013880000002,264.9013880000002,264.9013880000002,265.83525740000005,Objects\176b.jpg,pre,s,0.9326430000000983,None,,,,,,,,00027,001,2025-11-14_17h03.55.071,MST_test,2024.2.2,59.97566187644062,2025-11-14 17h04.01.333542 +0530,
50,0,50,n,2.656310200000007,None,50,0,50,0,265.8513659,,,,,,,,,,,,,,,,,,,,,,,,,,,,,,,,,,,,,,,,,,,,,,,,,,265.8353375000006,265.8513659,266.3513188000006,266.3349388000006,266.342885,266.3513188000006,266.3513188000006,266.3513188000006,269.0183551,Foils\002a.jpg,none,n,2.656310200000007,None,,,,,,,,00027,001,2025-11-14_17h03.55.071,MST_test,2024.2.2,59.97566187644062,2025-11-14 17h04.01.333542 +0530,
51,0,51,s,1.4530066000006627,None,51,0,51,0,269.0346274000003,,,,,,,,,,,,,,,,,,,,,,,,,,,,,,,,,,,,,,,,,,,,,,,,,,269.0184362,269.0346274000003,269.5346177000001,269.51809390000017,269.51987160000044,269.5346177000001,269.5346177000001,269.5346177000001,271.0015219000006,Objects\076a.jpg,post,s,1.4530066000006627,None,,,,,,,,00027,001,2025-11-14_17h03.55.071,MST_test,2024.2.2,59.97566187644062,2025-11-14 17h04.01.333542 +0530,
52,0,52,s,1.371813600000678,None,52,0,52,0,271.0178824000004,,,,,,,,,,,,,,,,,,,,,,,,,,,,,,,,,,,,,,,,,,,,,,,,,,271.0016019000004,271.0178824000004,271.5179076000004,271.5014318000003,271.50637929999994,271.5179076000004,271.5179076000004,271.5179076000004,272.9016677999998,Objects\322a.jpg,mid,s,1.371813600000678,None,,,,,,,,00027,001,2025-11-14_17h03.55.071,MST_test,2024.2.2,59.97566187644062,2025-11-14 17h04.01.333542 +0530,
53,0,53,o,1.1322989999998754,None,53,0,53,0,272.9178757999998,,,,,,,,,,,,,,,,,,,,,,,,,,,,,,,,,,,,,,,,,,,,,,,,,,272.9017463,272.9178757999998,273.4178812,273.4014732000005,273.40657310000006,273.4178812,273.4178812,273.4178812,274.5517553999998,Objects\011a.jpg,mid,o,1.1322989999998754,None,,,,,,,,00027,001,2025-11-14_17h03.55.071,MST_test,2024.2.2,59.97566187644062,2025-11-14 17h04.01.333542 +0530,
54,0,54,n,1.2697845000002417,None,54,0,54,0,274.56783799999994,,,,,,,,,,,,,,,,,,,,,,,,,,,,,,,,,,,,,,,,,,,,,,,,,,274.55184629999985,274.56783799999994,275.0678132000003,275.0513109000003,275.0586874999999,275.0678132000003,275.0678132000003,275.0678132000003,276.3513843999999,Foils\106a.jpg,none,n,1.2697845000002417,None,,,,,,,,00027,001,2025-11-14_17h03.55.071,MST_test,2024.2.2,59.97566187644062,2025-11-14 17h04.01.333542 +0530,
55,0,55,n,1.652462199999718,None,55,0,55,0,276.3678374000001,,,,,,,,,,,,,,,,,,,,,,,,,,,,,,,,,,,,,,,,,,,,,,,,,,276.3514700000005,276.3678374000001,276.91781700000047,276.8513375000002,276.91005159999986,276.91781700000047,276.91781700000047,276.91781700000047,278.5848278000003,Objects\082b.jpg,mid,n,1.652462199999718,None,,,,,,,,00027,001,2025-11-14_17h03.55.071,MST_test,2024.2.2,59.97566187644062,2025-11-14 17h04.01.333542 +0530,
56,0,56,o,2.2515871000005063,None,56,0,56,0,278.60105960000055,,,,,,,,,,,,,,,,,,,,,,,,,,,,,,,,,,,,,,,,,,,,,,,,,,278.58491200000026,278.60105960000055,279.1843727000005,279.0846255000006,279.17324890000054,279.1843727000005,279.1843727000005,279.1843727000005,281.45141520000016,Objects\298b.jpg,pre,o,2.2515871000005063,None,,,,,,,,00027,001,2025-11-14_17h03.55.071,MST_test,2024.2.2,59.97566187644062,2025-11-14 17h04.01.333542 +0530,
57,0,57,s,1.5173001000002841,None,57,0,57,0,281.4677038,,,,,,,,,,,,,,,,,,,,,,,,,,,,,,,,,,,,,,,,,,,,,,,,,,281.4515127000004,281.4677038,281.98432909999974,281.95126210000035,281.97124450000047,281.98432909999974,281.98432909999974,281.98432909999974,283.51800860000003,Objects\044b.jpg,pre,s,1.5173001000002841,None,,,,,,,,00027,001,2025-11-14_17h03.55.071,MST_test,2024.2.2,59.97566187644062,2025-11-14 17h04.01.333542 +0530,
58,0,58,o,1.949014800000441,None,58,0,58,0,283.53431830000045,,,,,,,,,,,,,,,,,,,,,,,,,,,,,,,,,,,,,,,,,,,,,,,,,,283.5181074000002,283.53431830000045,284.1676111000006,284.0177990000002,284.1607754000006,284.1676111000006,284.1676111000006,284.1676111000006,286.11797750000005,Objects\300b.jpg,mid,o,1.949014800000441,None,,,,,,,,00027,001,2025-11-14_17h03.55.071,MST_test,2024.2.2,59.97566187644062,2025-11-14 17h04.01.333542 +0530,
59,0,59,n,1.1441568000000188,None,59,0,59,0,286.13426700000036,,,,,,,,,,,,,,,,,,,,,,,,,,,,,,,,,,,,,,,,,,,,,,,,,,286.11805490000006,286.13426700000036,286.63383580000027,286.6178727000006,286.62826829999995,286.63383580000027,286.63383580000027,286.63383580000027,287.7845477000001,Foils\018a.jpg,none,n,1.1441568000000188,None,,,,,,,,00027,001,2025-11-14_17h03.55.071,MST_test,2024.2.2,59.97566187644062,2025-11-14 17h04.01.333542 +0530,
60,0,60,s,9.116350000000239,None,60,0,60,0,287.80088700000033,,,,,,,,,,,,,,,,,,,,,,,,,,,,,,,,,,,,,,,,,,,,,,,,,,287.7846381999998,287.80088700000033,288.58417780000036,288.2845220999998,288.57576119999976,288.58417780000036,288.58417780000036,288.58417780000036,297.70103199999994,Objects\291b.jpg,mid,s,9.116350000000239,None,,,,,,,,00027,001,2025-11-14_17h03.55.071,MST_test,2024.2.2,59.97566187644062,2025-11-14 17h04.01.333542 +0530,
61,0,61,n,1.0966409000002386,None,61,0,61,0,297.71735080000053,,,,,,,,,,,,,,,,,,,,,,,,,,,,,,,,,,,,,,,,,,,,,,,,,,297.70111090000046,297.71735080000053,298.2173311000006,298.2008278000003,298.21143029999985,298.2173311000006,298.2173311000006,298.2173311000006,299.31764550000025,Foils\074a.jpg,none,n,1.0966409000002386,None,,,,,,,,00027,001,2025-11-14_17h03.55.071,MST_test,2024.2.2,59.97566187644062,2025-11-14 17h04.01.333542 +0530,
62,0,62,s,4.306865599999583,None,62,0,62,0,299.33412560000033,,,,,,,,,,,,,,,,,,,,,,,,,,,,,,,,,,,,,,,,,,,,,,,,,,299.3177235000003,299.33412560000033,300.16726890000064,299.81748979999975,300.1604126000002,300.16726890000064,300.16726890000064,300.16726890000064,304.48425450000013,Objects\099b.jpg,mid,s,4.306865599999583,None,,,,,,,,00027,001,2025-11-14_17h03.55.071,MST_test,2024.2.2,59.97566187644062,2025-11-14 17h04.01.333542 +0530,
63,0,63,s,1.524069099999906,None,63,0,63,0,304.5005369999999,,,,,,,,,,,,,,,,,,,,,,,,,,,,,,,,,,,,,,,,,,,,,,,,,,304.48433250000016,304.5005369999999,305.03385849999995,304.98428610000065,305.0187983000005,305.03385849999995,305.03385849999995,305.03385849999995,306.5675895000004,Objects\285b.jpg,post,s,1.524069099999906,None,,,,,,,,00027,001,2025-11-14_17h03.55.071,MST_test,2024.2.2,59.97566187644062,2025-11-14 17h04.01.333542 +0530,
64,0,64,s,1.548177399999986,None,64,0,64,0,306.5838422000006,,,,,,,,,,,,,,,,,,,,,,,,,,,,,,,,,,,,,,,,,,,,,,,,,,306.5676725000003,306.5838422000006,307.08379890000015,307.0673201999998,307.07272660000035,307.08379890000015,307.08379890000015,307.08379890000015,308.6342445999999,Objects\289a.jpg,post,s,1.548177399999986,None,,,,,,,,00027,001,2025-11-14_17h03.55.071,MST_test,2024.2.2,59.97566187644062,2025-11-14 17h04.01.333542 +0530,
65,0,65,o,1.7302503000000797,None,65,0,65,0,308.65050150000025,,,,,,,,,,,,,,,,,,,,,,,,,,,,,,,,,,,,,,,,,,,,,,,,,,308.6343211000003,308.65050150000025,309.38376470000003,309.1341731000002,309.3700766000002,309.38376470000003,309.38376470000003,309.38376470000003,311.11737840000023,Objects\257b.jpg,post,o,1.7302503000000797,None,,,,,,,,00027,001,2025-11-14_17h03.55.071,MST_test,2024.2.2,59.97566187644062,2025-11-14 17h04.01.333542 +0530,
66,0,66,s,1.5023770000007062,None,66,0,66,0,311.13374620000013,,,,,,,,,,,,,,,,,,,,,,,,,,,,,,,,,,,,,,,,,,,,,,,,,,311.11746120000043,311.13374620000013,311.75060180000037,311.6174133000004,311.7326721999998,311.75060180000037,311.75060180000037,311.75060180000037,313.26729070000056,Objects\058b.jpg,pre,s,1.5023770000007062,None,,,,,,,,00027,001,2025-11-14_17h03.55.071,MST_test,2024.2.2,59.97566187644062,2025-11-14 17h04.01.333542 +0530,
67,0,67,s,1.2104827000002842,None,67,0,67,0,313.28376819999994,,,,,,,,,,,,,,,,,,,,,,,,,,,,,,,,,,,,,,,,,,,,,,,,,,313.26737070000036,313.28376819999994,314.2336455000004,313.7672481999998,314.22499060000064,314.2336455000004,314.2336455000004,314.2336455000004,315.4507091000005,Objects\103b.jpg,pre,s,1.2104827000002842,None,,,,,,,,00027,001,2025-11-14_17h03.55.071,MST_test,2024.2.2,59.97566187644062,2025-11-14 17h04.01.333542 +0530,
68,0,68,o,1.1198315999999977,None,68,0,68,0,315.46702970000024,,,,,,,,,,,,,,,,,,,,,,,,,,,,,,,,,,,,,,,,,,,,,,,,,,315.45079160000023,315.46702970000024,315.9669281000006,315.95040849999987,315.95239949999996,315.9669281000006,315.9669281000006,315.9669281000006,317.10071140000036,Objects\150a.jpg,mid,o,1.1198315999999977,None,,,,,,,,00027,001,2025-11-14_17h03.55.071,MST_test,2024.2.2,59.97566187644062,2025-11-14 17h04.01.333542 +0530,
69,0,69,n,6.192646699999386,None,69,0,69,0,317.1169729000003,,,,,,,,,,,,,,,,,,,,,,,,,,,,,,,,,,,,,,,,,,,,,,,,,,317.10079380000025,317.1169729000003,317.68317620000016,317.60045400000035,317.6775359000003,317.68317620000016,317.68317620000016,317.68317620000016,323.8838016999998,Objects\137b.jpg,mid,n,6.192646699999386,None,,,,,,,,00027,001,2025-11-14_17h03.55.071,MST_test,2024.2.2,59.97566187644062,2025-11-14 17h04.01.333542 +0530,
70,0,70,o,1.1978128000000652,None,70,0,70,0,323.9002483000004,,,,,,,,,,,,,,,,,,,,,,,,,,,,,,,,,,,,,,,,,,,,,,,,,,323.8838904000004,323.9002483000004,324.4001788000005,324.3838067000006,324.385577,324.4001788000005,324.4001788000005,324.4001788000005,325.6004886999999,Objects\062a.jpg,mid,o,1.1978128000000652,None,,,,,,,,00027,001,2025-11-14_17h03.55.071,MST_test,2024.2.2,59.97566187644062,2025-11-14 17h04.01.333542 +0530,
71,0,71,s,1.64297870000064,None,71,0,71,0,325.6167566000004,,,,,,,,,,,,,,,,,,,,,,,,,,,,,,,,,,,,,,,,,,,,,,,,,,325.60056950000035,325.6167566000004,326.36677190000046,326.1002711000001,326.35607119999986,326.36677190000046,326.36677190000046,326.36677190000046,328.01739369999996,Objects\004b.jpg,mid,s,1.64297870000064,None,,,,,,,,00027,001,2025-11-14_17h03.55.071,MST_test,2024.2.2,59.97566187644062,2025-11-14 17h04.01.333542 +0530,
72,0,72,o,1.2572602000000188,None,72,0,72,0,328.03345640000043,,,,,,,,,,,,,,,,,,,,,,,,,,,,,,,,,,,,,,,,,,,,,,,,,,328.01747930000056,328.03345640000043,328.5334197000002,328.5169864999998,328.5190214000004,328.5334197000002,328.5334197000002,328.5334197000002,329.8004154999999,Objects\134a.jpg,pre,o,1.2572602000000188,None,,,,,,,,00027,001,2025-11-14_17h03.55.071,MST_test,2024.2.2,59.97566187644062,2025-11-14 17h04.01.333542 +0530,
73,0,73,n,2.1879331000000093,None,73,0,73,0,329.8167858000006,,,,,,,,,,,,,,,,,,,,,,,,,,,,,,,,,,,,,,,,,,,,,,,,,,329.8005004000006,329.8167858000006,330.31665150000026,330.3004289999999,330.30567280000014,330.31665150000026,330.31665150000026,330.31665150000026,332.5169749000006,Objects\337a.jpg,pre,n,2.1879331000000093,None,,,,,,,,00027,001,2025-11-14_17h03.55.071,MST_test,2024.2.2,59.97566187644062,2025-11-14 17h04.01.333542 +0530,
74,0,74,o,1.3446372000007614,None,74,0,74,0,332.5335190000005,,,,,,,,,,,,,,,,,,,,,,,,,,,,,,,,,,,,,,,,,,,,,,,,,,332.5170508000001,332.5335190000005,333.0333171000002,333.01681160000044,333.02159180000035,333.0333171000002,333.0333171000002,333.0333171000002,334.3836062999999,Objects\179a.jpg,pre,o,1.3446372000007614,None,,,,,,,,00027,001,2025-11-14_17h03.55.071,MST_test,2024.2.2,59.97566187644062,2025-11-14 17h04.01.333542 +0530,
75,0,75,o,2.415853900000002,None,75,0,75,0,334.3999579000001,,,,,,,,,,,,,,,,,,,,,,,,,,,,,,,,,,,,,,,,,,,,,,,,,,334.38368809999974,334.3999579000001,334.89992210000037,334.8834095000002,334.8855484000005,334.89992210000037,334.89992210000037,334.89992210000037,337.3168364000003,Objects\093a.jpg,mid,o,2.415853900000002,None,,,,,,,,00027,001,2025-11-14_17h03.55.071,MST_test,2024.2.2,59.97566187644062,2025-11-14 17h04.01.333542 +0530,
76,0,76,n,1.1612700000005134,None,76,0,76,0,337.33318860000054,,,,,,,,,,,,,,,,,,,,,,,,,,,,,,,,,,,,,,,,,,,,,,,,,,337.3169310000003,337.33318860000054,337.8332463000006,337.81670380000014,337.8241533999999,337.8332463000006,337.8332463000006,337.8332463000006,339.0000393,Foils\113a.jpg,none,n,1.1612700000005134,None,,,,,,,,00027,001,2025-11-14_17h03.55.071,MST_test,2024.2.2,59.97566187644062,2025-11-14 17h04.01.333542 +0530,
77,0,77,s,1.2042229000007865,None,77,0,77,0,339.0164874000002,,,,,,,,,,,,,,,,,,,,,,,,,,,,,,,,,,,,,,,,,,,,,,,,,,339.00011859999995,339.0164874000002,339.64977369999997,339.4999386999998,339.6432716999998,339.64977369999997,339.64977369999997,339.64977369999997,340.86670200000026,Objects\382b.jpg,mid,s,1.2042229000007865,None,,,,,,,,00027,001,2025-11-14_17h03.55.071,MST_test,2024.2.2,59.97566187644062,2025-11-14 17h04.01.333542 +0530,
78,0,78,o,2.4366855999996915,None,78,0,78,0,340.8831140000002,,,,,,,,,,,,,,,,,,,,,,,,,,,,,,,,,,,,,,,,,,,,,,,,,,340.86678219999976,340.8831140000002,341.38316399999985,341.3667019000004,341.36850270000014,341.38316399999985,341.38316399999985,341.38316399999985,343.8333726000001,Objects\141a.jpg,pre,o,2.4366855999996915,None,,,,,,,,00027,001,2025-11-14_17h03.55.071,MST_test,2024.2.2,59.97566187644062,2025-11-14 17h04.01.333542 +0530,
79,0,79,s,4.684886099999858,None,79,0,79,0,343.84971810000025,,,,,,,,,,,,,,,,,,,,,,,,,,,,,,,,,,,,,,,,,,,,,,,,,,343.8334579000002,343.84971810000025,344.3997059000003,344.3332903999999,344.3861348999999,344.3997059000003,344.3997059000003,344.3997059000003,349.0998451000005,Objects\146b.jpg,post,s,4.684886099999858,None,,,,,,,,00027,001,2025-11-14_17h03.55.071,MST_test,2024.2.2,59.97566187644062,2025-11-14 17h04.01.333542 +0530,
80,0,80,n,1.0378692000003866,None,80,0,80,0,349.1162400000003,,,,,,,,,,,,,,,,,,,,,,,,,,,,,,,,,,,,,,,,,,,,,,,,,,349.09993120000036,349.1162400000003,349.61629900000025,349.59980950000045,349.6071612000005,349.61629900000025,349.61629900000025,349.61629900000025,350.6666045000002,Foils\065a.jpg,none,n,1.0378692000003866,None,,,,,,,,00027,001,2025-11-14_17h03.55.071,MST_test,2024.2.2,59.97566187644062,2025-11-14 17h04.01.333542 +0530,
81,0,81,s,1.3958618000006027,None,81,0,81,0,350.68291750000026,,,,,,,,,,,,,,,,,,,,,,,,,,,,,,,,,,,,,,,,,,,,,,,,,,350.66669999999976,350.68291750000026,351.26617069999975,351.16649920000054,351.25414490000003,351.26617069999975,351.26617069999975,351.26617069999975,352.6664331000002,Objects\022b.jpg,post,s,1.3958618000006027,None,,,,,,,,00027,001,2025-11-14_17h03.55.071,MST_test,2024.2.2,59.97566187644062,2025-11-14 17h04.01.333542 +0530,
82,0,82,o,1.1687299999994138,None,82,0,82,0,352.68284779999976,,,,,,,,,,,,,,,,,,,,,,,,,,,,,,,,,,,,,,,,,,,,,,,,,,352.66651939999974,352.68284779999976,353.24946809999983,353.16638370000055,353.2324090000002,353.24946809999983,353.24946809999983,353.24946809999983,354.4330627999998,Objects\288b.jpg,mid,o,1.1687299999994138,None,,,,,,,,00027,001,2025-11-14_17h03.55.071,MST_test,2024.2.2,59.97566187644062,2025-11-14 17h04.01.333542 +0530,
83,0,83,o,2.179024500000196,None,83,0,83,0,354.44946979999986,,,,,,,,,,,,,,,,,,,,,,,,,,,,,,,,,,,,,,,,,,,,,,,,,,354.4331484000004,354.44946979999986,354.94947349999984,354.93295560000024,354.9381791000005,354.94947349999984,354.94947349999984,354.94947349999984,357.13300640000034,Objects\209a.jpg,post,o,2.179024500000196,None,,,,,,,,00027,001,2025-11-14_17h03.55.071,MST_test,2024.2.2,59.97566187644062,2025-11-14 17h04.01.333542 +0530,
84,0,84,s,1.1099961999998413,None,84,0,84,0,357.14942340000016,,,,,,,,,,,,,,,,,,,,,,,,,,,,,,,,,,,,,,,,,,,,,,,,,,357.13308490000054,357.14942340000016,357.64940430000024,357.6329031000005,357.6385366000004,357.64940430000024,357.64940430000024,357.64940430000024,358.76632919999975,Objects\064a.jpg,mid,s,1.1099961999998413,None,,,,,,,,00027,001,2025-11-14_17h03.55.071,MST_test,2024.2.2,59.97566187644062,2025-11-14 17h04.01.333542 +0530,
85,0,85,s,3.0499077000004036,None,85,0,85,0,358.7827352000004,,,,,,,,,,,,,,,,,,,,,,,,,,,,,,,,,,,,,,,,,,,,,,,,,,358.7664192000002,358.7827352000004,359.61610400000063,359.26620770000045,359.6001401000003,359.61610400000063,359.61610400000063,359.61610400000063,362.6663896,Objects\259b.jpg,pre,s,3.0499077000004036,None,,,,,,,,00027,001,2025-11-14_17h03.55.071,MST_test,2024.2.2,59.97566187644062,2025-11-14 17h04.01.333542 +0530,
86,0,86,s,1.699796700000661,None,86,0,86,0,362.6826222999998,,,,,,,,,,,,,,,,,,,,,,,,,,,,,,,,,,,,,,,,,,,,,,,,,,362.66647939999984,362.6826222999998,363.2159478000003,363.1661267999998,363.1989487000001,363.2159478000003,363.2159478000003,363.2159478000003,364.91623620000064,Objects\079b.jpg,pre,s,1.699796700000661,None,,,,,,,,00027,001,2025-11-14_17h03.55.071,MST_test,2024.2.2,59.97566187644062,2025-11-14 17h04.01.333542 +0530,
87,0,87,s,1.165205600000263,None,87,0,87,0,364.9325617000004,,,,,,,,,,,,,,,,,,,,,,,,,,,,,,,,,,,,,,,,,,,,,,,,,,364.91632370000025,364.9325617000004,365.43257300000005,365.4160794999998,365.41794410000057,365.43257300000005,365.43257300000005,365.43257300000005,366.5995320000002,Objects\100a.jpg,mid,s,1.165205600000263,None,,,,,,,,00027,001,2025-11-14_17h03.55.071,MST_test,2024.2.2,59.97566187644062,2025-11-14 17h04.01.333542 +0530,
88,0,88,s,0.857347999999547,None,88,0,88,0,366.6158860000005,,,,,,,,,,,,,,,,,,,,,,,,,,,,,,,,,,,,,,,,,,,,,,,,,,366.59961010000006,366.6158860000005,367.33250810000027,367.0993877000001,367.3231740000001,367.33250810000027,367.33250810000027,367.33250810000027,368.19952420000027,Objects\243b.jpg,pre,s,0.857347999999547,None,,,,,,,,00027,001,2025-11-14_17h03.55.071,MST_test,2024.2.2,59.97566187644062,2025-11-14 17h04.01.333542 +0530,
89,0,89,s,1.572884399999566,None,89,0,89,0,368.2158466000001,,,,,,,,,,,,,,,,,,,,,,,,,,,,,,,,,,,,,,,,,,,,,,,,,,368.19960869999977,368.2158466000001,368.71579720000045,368.6993351000001,368.7100553999999,368.71579720000045,368.71579720000045,368.71579720000045,370.29948760000025,Foils\057a.jpg,none,s,1.572884399999566,None,,,,,,,,00027,001,2025-11-14_17h03.55.071,MST_test,2024.2.2,59.97566187644062,2025-11-14 17h04.01.333542 +0530,
90,0,90,s,0.7642469000002166,None,90,0,90,0,370.31580159999976,,,,,,,,,,,,,,,,,,,,,,,,,,,,,,,,,,,,,,,,,,,,,,,,,,370.29957580000064,370.31580159999976,370.8158076999998,370.7993279000002,370.8043634000005,370.8158076999998,370.8158076999998,370.8158076999998,371.58297800000037,Objects\232a.jpg,post,s,0.7642469000002166,None,,,,,,,,00027,001,2025-11-14_17h03.55.071,MST_test,2024.2.2,59.97566187644062,2025-11-14 17h04.01.333542 +0530,
91,0,91,s,1.0965013000004546,None,91,0,91,0,371.59913790000064,,,,,,,,,,,,,,,,,,,,,,,,,,,,,,,,,,,,,,,,,,,,,,,,,,371.58305459999974,371.59913790000064,372.09908749999977,372.08261820000007,372.0932868,372.09908749999977,372.09908749999977,372.09908749999977,373.19953520000035,Foils\026a.jpg,none,s,1.0965013000004546,None,,,,,,,,00027,001,2025-11-14_17h03.55.071,MST_test,2024.2.2,59.97566187644062,2025-11-14 17h04.01.333542 +0530,
92,0,92,s,1.3889891999997417,None,92,0,92,0,373.2157537000003,,,,,,,,,,,,,,,,,,,,,,,,,,,,,,,,,,,,,,,,,,,,,,,,,,373.1996329000003,373.2157537000003,373.7491060000002,373.6993659999998,373.7313374000005,373.7491060000002,373.7491060000002,373.7491060000002,375.14930000000004,Objects\273b.jpg,post,s,1.3889891999997417,None,,,,,,,,00027,001,2025-11-14_17h03.55.071,MST_test,2024.2.2,59.97566187644062,2025-11-14 17h04.01.333542 +0530,
93,0,93,n,1.122306700000081,None,93,0,93,0,375.16571829999975,,,,,,,,,,,,,,,,,,,,,,,,,,,,,,,,,,,,,,,,,,,,,,,,,,375.14938640000037,375.16571829999975,375.66568800000005,375.6494300000004,375.6518446,375.66568800000005,375.66568800000005,375.66568800000005,376.7993645000006,Objects\023a.jpg,mid,n,1.122306700000081,None,,,,,,,,00027,001,2025-11-14_17h03.55.071,MST_test,2024.2.2,59.97566187644062,2025-11-14 17h04.01.333542 +0530,
94,0,94,s,1.0846629000006942,None,94,0,94,0,376.81566569999995,,,,,,,,,,,,,,,,,,,,,,,,,,,,,,,,,,,,,,,,,,,,,,,,,,376.7994477000002,376.81566569999995,377.31562329999997,377.2991572000001,377.3013062,377.31562329999997,377.31562329999997,377.31562329999997,378.4159315000006,Objects\147a.jpg,post,s,1.0846629000006942,None,,,,,,,,00027,001,2025-11-14_17h03.55.071,MST_test,2024.2.2,59.97566187644062,2025-11-14 17h04.01.333542 +0530,
95,0,95,o,1.8064524000001256,None,95,0,95,0,378.4322966999998,,,,,,,,,,,,,,,,,,,,,,,,,,,,,,,,,,,,,,,,,,,,,,,,,,378.41602150000017,378.4322966999998,378.93228139999974,378.9158115,378.92236520000006,378.93228139999974,378.93228139999974,378.93228139999974,380.7491888000004,Objects\248a.jpg,mid,o,1.8064524000001256,None,,,,,,,,00027,001,2025-11-14_17h03.55.071,MST_test,2024.2.2,59.97566187644062,2025-11-14 17h04.01.333542 +0530,
96,0,96,s,1.5429268999996566,None,96,0,96,0,380.7655448000005,,,,,,,,,,,,,,,,,,,,,,,,,,,,,,,,,,,,,,,,,,,,,,,,,,380.7492710000006,380.7655448000005,381.26557109999976,381.24910120000004,381.2546407,381.26557109999976,381.26557109999976,381.26557109999976,382.81590419999975,Objects\197a.jpg,post,s,1.5429268999996566,None,,,,,,,,00027,001,2025-11-14_17h03.55.071,MST_test,2024.2.2,59.97566187644062,2025-11-14 17h04.01.333542 +0530,
97,0,97,o,1.1083294999998543,None,97,0,97,0,382.83220340000025,,,,,,,,,,,,,,,,,,,,,,,,,,,,,,,,,,,,,,,,,,,,,,,,,,382.8159854000005,382.83220340000025,383.33216510000057,383.31570120000015,383.3179704000004,383.33216510000057,383.33216510000057,383.33216510000057,384.44912920000024,Objects\183a.jpg,mid,o,1.1083294999998543,None,,,,,,,,00027,001,2025-11-14_17h03.55.071,MST_test,2024.2.2,59.97566187644062,2025-11-14 17h04.01.333542 +0530,
98,0,98,n,1.0492949999998018,None,98,0,98,0,384.4654946999999,,,,,,,,,,,,,,,,,,,,,,,,,,,,,,,,,,,,,,,,,,,,,,,,,,384.44920790000015,384.4654946999999,386.34881399999995,384.9490022,386.3399811999998,386.34881399999995,386.34881399999995,386.34881399999995,387.39921289999984,Foils\097a.jpg,none,n,1.0492949999998018,None,,,,,,,,00027,001,2025-11-14_17h03.55.071,MST_test,2024.2.2,59.97566187644062,2025-11-14 17h04.01.333542 +0530,
99,0,99,o,1.1403628000007302,None,99,0,99,0,387.4154362999998,,,,,,,,,,,,,,,,,,,,,,,,,,,,,,,,,,,,,,,,,,,,,,,,,,387.39930189999995,387.4154362999998,387.9154599000003,387.89903460000005,387.9011936000006,387.9154599000003,387.9154599000003,387.9154599000003,389.0658352999999,Objects\027a.jpg,post,o,1.1403628000007302,None,,,,,,,,00027,001,2025-11-14_17h03.55.071,MST_test,2024.2.2,59.97566187644062,2025-11-14 17h04.01.333542 +0530,
100,0,100,o,1.0894963000000644,None,100,0,100,0,389.0820297,,,,,,,,,,,,,,,,,,,,,,,,,,,,,,,,,,,,,,,,,,,,,,,,,,389.0659161000003,389.0820297,389.5820413000001,389.5655618999999,389.56770419999975,389.5820413000001,389.5820413000001,389.5820413000001,390.68237450000015,Objects\129a.jpg,mid,o,1.0894963000000644,None,,,,,,,,00027,001,2025-11-14_17h03.55.071,MST_test,2024.2.2,59.97566187644062,2025-11-14 17h04.01.333542 +0530,
101,0,101,o,1.4778013000004648,None,101,0,101,0,390.6987049999998,,,,,,,,,,,,,,,,,,,,,,,,,,,,,,,,,,,,,,,,,,,,,,,,,,390.6824625999998,390.6987049999998,391.1987278000006,391.1821441000002,391.1842137000003,391.1987278000006,391.1987278000006,391.1987278000006,392.68230399999993,Objects\020a.jpg,post,o,1.4778013000004648,None,,,,,,,,00027,001,2025-11-14_17h03.55.071,MST_test,2024.2.2,59.97566187644062,2025-11-14 17h04.01.333542 +0530,
102,0,102,o,1.0519223000001148,None,102,0,102,0,392.6986517000005,,,,,,,,,,,,,,,,,,,,,,,,,,,,,,,,,,,,,,,,,,,,,,,,,,392.6823930999999,392.6986517000005,393.19864550000057,393.18211690000044,393.1841628000002,393.19864550000057,393.19864550000057,393.19864550000057,394.2655758000001,Objects\112a.jpg,pre,o,1.0519223000001148,None,,,,,,,,00027,001,2025-11-14_17h03.55.071,MST_test,2024.2.2,59.97566187644062,2025-11-14 17h04.01.333542 +0530,
103,0,103,o,0.7564642000006643,None,103,0,103,0,394.28193439999995,,,,,,,,,,,,,,,,,,,,,,,,,,,,,,,,,,,,,,,,,,,,,,,,,,394.26565690000007,394.28193439999995,394.7819073999999,394.7655013000003,394.7676198999998,394.7819073999999,394.7819073999999,394.7819073999999,395.5488677000003,Objects\071a.jpg,pre,o,0.7564642000006643,None,,,,,,,,00027,001,2025-11-14_17h03.55.071,MST_test,2024.2.2,59.97566187644062,2025-11-14 17h04.01.333542 +0530,
104,0,104,n,1.990318699999989,None,104,0,104,0,395.5652661000004,,,,,,,,,,,,,,,,,,,,,,,,,,,,,,,,,,,,,,,,,,,,,,,,,,395.54895450000004,395.5652661000004,398.3318889000002,396.04873920000045,398.31018050000057,398.3318889000002,398.3318889000002,398.3318889000002,400.33219290000034,Foils\034a.jpg,none,n,1.990318699999989,None,,,,,,,,00027,001,2025-11-14_17h03.55.071,MST_test,2024.2.2,59.97566187644062,2025-11-14 17h04.01.333542 +0530,
105,0,105,o,2.7700550999998086,None,105,0,105,0,400.34849209999993,,,,,,,,,,,,,,,,,,,,,,,,,,,,,,,,,,,,,,,,,,,,,,,,,,400.3322696000005,400.34849209999993,400.8484526000002,400.8321053999998,400.8363306000001,400.8484526000002,400.8484526000002,400.8484526000002,403.63214119999975,Objects\352a.jpg,pre,o,2.7700550999998086,None,,,,,,,,00027,001,2025-11-14_17h03.55.071,MST_test,2024.2.2,59.97566187644062,2025-11-14 17h04.01.333542 +0530,
106,0,106,o,1.1961816000002727,None,106,0,106,0,403.648424,,,,,,,,,,,,,,,,,,,,,,,,,,,,,,,,,,,,,,,,,,,,,,,,,,403.6322267000005,403.648424,404.1483766000001,404.1320002000002,404.13715279999997,404.1483766000001,404.1483766000001,404.1483766000001,405.34887290000006,Objects\094a.jpg,pre,o,1.1961816000002727,None,,,,,,,,00027,001,2025-11-14_17h03.55.071,MST_test,2024.2.2,59.97566187644062,2025-11-14 17h04.01.333542 +0530,
107,0,107,o,0.746024099999886,None,107,0,107,0,405.3650514000001,,,,,,,,,,,,,,,,,,,,,,,,,,,,,,,,,,,,,,,,,,,,,,,,,,405.3489567000006,405.3650514000001,405.86501810000027,405.8485645999999,405.85317600000053,405.86501810000027,405.86501810000027,405.86501810000027,406.6153205999999,Objects\227a.jpg,mid,o,0.746024099999886,None,,,,,,,,00027,001,2025-11-14_17h03.55.071,MST_test,2024.2.2,59.97566187644062,2025-11-14 17h04.01.333542 +0530,
108,0,108,o,0.727822500000002,None,108,0,108,0,406.63169930000004,,,,,,,,,,,,,,,,,,,,,,,,,,,,,,,,,,,,,,,,,,,,,,,,,,406.6154010999999,406.63169930000004,407.1483285000004,407.11521300000004,407.1365372,407.1483285000004,407.1483285000004,407.1483285000004,407.88207299999976,Objects\270b.jpg,mid,o,0.727822500000002,None,,,,,,,,00027,001,2025-11-14_17h03.55.071,MST_test,2024.2.2,59.97566187644062,2025-11-14 17h04.01.333542 +0530,
109,0,109,n,0.8722795999992741,None,109,0,109,0,407.8983288999998,,,,,,,,,,,,,,,,,,,,,,,,,,,,,,,,,,,,,,,,,,,,,,,,,,407.8821562000003,407.8983288999998,411.7315789000004,408.38192230000004,411.7150373000004,411.7315789000004,411.7315789000004,411.7315789000004,412.6151604000006,Foils\009a.jpg,none,n,0.8722795999992741,None,,,,,,,,00027,001,2025-11-14_17h03.55.071,MST_test,2024.2.2,59.97566187644062,2025-11-14 17h04.01.333542 +0530,
110,0,110,o,1.78052740000021,None,110,0,110,0,412.63156590000017,,,,,,,,,,,,,,,,,,,,,,,,,,,,,,,,,,,,,,,,,,,,,,,,,,412.61524800000007,412.63156590000017,415.1815209000006,413.1150333000005,415.1709933000002,415.1815209000006,415.1815209000006,415.1815209000006,416.965056,Objects\191b.jpg,mid,o,1.78052740000021,None,,,,,,,,00027,001,2025-11-14_17h03.55.071,MST_test,2024.2.2,59.97566187644062,2025-11-14 17h04.01.333542 +0530,
111,0,111,o,0.8805292000006375,None,111,0,111,0,416.9814670000005,,,,,,,,,,,,,,,,,,,,,,,,,,,,,,,,,,,,,,,,,,,,,,,,,,416.9651365999998,416.9814670000005,417.4814442000006,417.4649444000006,417.46691480000027,417.4814442000006,417.4814442000006,417.4814442000006,418.36512010000024,Objects\067a.jpg,post,o,0.8805292000006375,None,,,,,,,,00027,001,2025-11-14_17h03.55.071,MST_test,2024.2.2,59.97566187644062,2025-11-14 17h04.01.333542 +0530,
112,0,112,o,1.448355000000447,None,112,0,112,0,418.38145260000056,,,,,,,,,,,,,,,,,,,,,,,,,,,,,,,,,,,,,,,,,,,,,,,,,,418.36519920000046,418.38145260000056,418.8814622,418.86494290000064,418.8668736999998,418.8814622,418.8814622,418.8814622,420.33174039999994,Objects\333a.jpg,pre,o,1.448355000000447,None,,,,,,,,00027,001,2025-11-14_17h03.55.071,MST_test,2024.2.2,59.97566187644062,2025-11-14 17h04.01.333542 +0530,
113,0,113,o,2.795278800000233,None,113,0,113,0,420.34806780000054,,,,,,,,,,,,,,,,,,,,,,,,,,,,,,,,,,,,,,,,,,,,,,,,,,420.33182190000025,420.34806780000054,423.31472029999986,420.8316064999999,423.30101300000024,423.31472029999986,423.31472029999986,423.31472029999986,426.1149513999999,Objects\181b.jpg,post,o,2.795278800000233,None,,,,,,,,00027,001,2025-11-14_17h03.55.071,MST_test,2024.2.2,59.97566187644062,2025-11-14 17h04.01.333542 +0530,
114,0,114,s,1.374436500000229,None,114,0,114,0,426.13124100000005,,,,,,,,,,,,,,,,,,,,,,,,,,,,,,,,,,,,,,,,,,,,,,,,,,426.11504049999985,426.13124100000005,428.2813393000006,426.61488610000015,428.2654319000003,428.2813393000006,428.2813393000006,428.2813393000006,429.66493919999994,Objects\155b.jpg,pre,s,1.374436500000229,None,,,,,,,,00027,001,2025-11-14_17h03.55.071,MST_test,2024.2.2,59.97566187644062,2025-11-14 17h04.01.333542 +0530,
115,0,115,o,1.0797524999998132,None,115,0,115,0,429.6812918000005,,,,,,,,,,,,,,,,,,,,,,,,,,,,,,,,,,,,,,,,,,,,,,,,,,429.66502610000043,429.6812918000005,432.5980933000001,430.1647518,432.58541680000053,432.5980933000001,432.5980933000001,432.5980933000001,433.68159280000054,Objects\185a.jpg,mid,o,1.0797524999998132,None,,,,,,,,00027,001,2025-11-14_17h03.55.071,MST_test,2024.2.2,59.97566187644062,2025-11-14 17h04.01.333542 +0530,
116,0,116,s,1.4173994000002494,None,116,0,116,0,433.6979025999999,,,,,,,,,,,,,,,,,,,,,,,,,,,,,,,,,,,,,,,,,,,,,,,,,,433.68166590000055,433.6979025999999,442.98099749999983,434.1812725,442.9650333999998,442.98099749999983,442.98099749999983,442.98099749999983,444.3994102000006,Objects\174b.jpg,post,s,1.4173994000002494,None,,,,,,,,00027,001,2025-11-14_17h03.55.071,MST_test,2024.2.2,59.97566187644062,2025-11-14 17h04.01.333542 +0530,
117,0,117,s,1.3214424999996481,None,117,0,117,0,444.4142502000004,,,,,,,,,,,,,,,,,,,,,,,,,,,,,,,,,,,,,,,,,,,,,,,,,,444.3995857,444.4142502000004,445.86425940000026,444.8977412000004,445.84236169999986,445.86425940000026,445.86425940000026,445.86425940000026,447.1979105999999,Objects\145b.jpg,pre,s,1.3214424999996481,None,,,,,,,,00027,001,2025-11-14_17h03.55.071,MST_test,2024.2.2,59.97566187644062,2025-11-14 17h04.01.333542 +0530,
118,0,118,s,1.2764726000004885,None,118,0,118,0,447.2141750999999,,,,,,,,,,,,,,,,,,,,,,,,,,,,,,,,,,,,,,,,,,,,,,,,,,447.1980088,447.2141750999999,449.2641330000006,447.6976689000003,449.25346609999997,449.2641330000006,449.2641330000006,449.2641330000006,450.5480027000003,Objects\253b.jpg,post,s,1.2764726000004885,None,,,,,,,,00027,001,2025-11-14_17h03.55.071,MST_test,2024.2.2,59.97566187644062,2025-11-14 17h04.01.333542 +0530,
119,0,119,n,4.1693982000006145,None,119,0,119,0,450.56421800000044,,,,,,,,,,,,,,,,,,,,,,,,,,,,,,,,,,,,,,,,,,,,,,,,,,450.5480912000003,450.56421800000044,453.6807342000002,451.04766800000016,453.66922520000026,453.6807342000002,453.6807342000002,453.6807342000002,457.86425620000045,Foils\093b.jpg,none,n,4.1693982000006145,None,,,,,,,,00027,001,2025-11-14_17h03.55.071,MST_test,2024.2.2,59.97566187644062,2025-11-14 17h04.01.333542 +0530,
120,0,120,o,1.1977642000001651,None,120,0,120,0,457.8805665,,,,,,,,,,,,,,,,,,,,,,,,,,,,,,,,,,,,,,,,,,,,,,,,,,457.8643523999999,457.8805665,459.31398230000013,458.3640838000001,459.30339300000014,459.31398230000013,459.31398230000013,459.31398230000013,460.5145269000004,Objects\133a.jpg,pre,o,1.1977642000001651,None,,,,,,,,00027,001,2025-11-14_17h03.55.071,MST_test,2024.2.2,59.97566187644062,2025-11-14 17h04.01.333542 +0530,
121,0,121,s,4.219081600000209,None,121,0,121,0,460.5305653000005,,,,,,,,,,,,,,,,,,,,,,,,,,,,,,,,,,,,,,,,,,,,,,,,,,460.5146168000001,460.5305653000005,461.93055879999974,461.01403759999994,461.9176636000002,461.93055879999974,461.93055879999974,461.93055879999974,466.1640858999999,Objects\293a.jpg,mid,s,4.219081600000209,None,,,,,,,,00027,001,2025-11-14_17h03.55.071,MST_test,2024.2.2,59.97566187644062,2025-11-14 17h04.01.333542 +0530,
122,0,122,o,1.029529100000218,None,122,0,122,0,466.18041770000036,,,,,,,,,,,,,,,,,,,,,,,,,,,,,,,,,,,,,,,,,,,,,,,,,,466.1641748000002,466.18041770000036,466.6803774,466.66399830000046,466.6704117999998,466.6803774,466.6803774,466.6803774,467.71417329999986,Objects\278a.jpg,post,o,1.029529100000218,None,,,,,,,,00027,001,2025-11-14_17h03.55.071,MST_test,2024.2.2,59.97566187644062,2025-11-14 17h04.01.333542 +0530,
123,0,123,o,0.7493885000003502,None,123,0,123,0,467.7303939000003,,,,,,,,,,,,,,,,,,,,,,,,,,,,,,,,,,,,,,,,,,,,,,,,,,467.7142678,467.7303939000003,468.2303369000001,468.21399420000034,468.21858710000015,468.2303369000001,468.2303369000001,468.2303369000001,468.9807533000003,Objects\362a.jpg,post,o,0.7493885000003502,None,,,,,,,,00027,001,2025-11-14_17h03.55.071,MST_test,2024.2.2,59.97566187644062,2025-11-14 17h04.01.333542 +0530,
124,0,124,s,1.3074814000001425,None,124,0,124,0,468.99702010000055,,,,,,,,,,,,,,,,,,,,,,,,,,,,,,,,,,,,,,,,,,,,,,,,,,468.98084000000017,468.99702010000055,471.64689869999984,469.4805679000001,471.6413687000004,471.64689869999984,471.64689869999984,471.64689869999984,472.96387349999986,Objects\361b.jpg,post,s,1.3074814000001425,None,,,,,,,,00027,001,2025-11-14_17h03.55.071,MST_test,2024.2.2,59.97566187644062,2025-11-14 17h04.01.333542 +0530,
125,0,125,o,1.0471456000004764,None,125,0,125,0,472.9802804000001,,,,,,,,,,,,,,,,,,,,,,,,,,,,,,,,,,,,,,,,,,,,,,,,,,472.96395070000017,472.9802804000001,475.0637432000003,473.4637566000001,475.04309420000027,475.0637432000003,475.0637432000003,475.0637432000003,476.11399530000017,Objects\284b.jpg,mid,o,1.0471456000004764,None,,,,,,,,00027,001,2025-11-14_17h03.55.071,MST_test,2024.2.2,59.97566187644062,2025-11-14 17h04.01.333542 +0530,
126,0,126,s,1.818583000000217,None,126,0,126,0,476.13020510000024,,,,,,,,,,,,,,,,,,,,,,,,,,,,,,,,,,,,,,,,,,,,,,,,,,476.1140810000006,476.13020510000024,479.2634834999999,476.61368420000053,479.25052529999994,479.2634834999999,479.2634834999999,479.2634834999999,481.09717139999975,Objects\173b.jpg,mid,s,1.818583000000217,None,,,,,,,,00027,001,2025-11-14_17h03.55.071,MST_test,2024.2.2,59.97566187644062,2025-11-14 17h04.01.333542 +0530,
127,0,127,n,1.3566059000004316,None,127,0,127,0,481.1135193,,,,,,,,,,,,,,,,,,,,,,,,,,,,,,,,,,,,,,,,,,,,,,,,,,481.0972628999998,481.1135193,481.6134530999998,481.5971565,481.59999830000015,481.6134530999998,481.6134530999998,481.6134530999998,482.98041230000035,Objects\095a.jpg,post,n,1.3566059000004316,None,,,,,,,,00027,001,2025-11-14_17h03.55.071,MST_test,2024.2.2,59.97566187644062,2025-11-14 17h04.01.333542 +0530,
128,0,128,n,1.3550688999994236,None,128,0,128,0,482.99673110000003,,,,,,,,,,,,,,,,,,,,,,,,,,,,,,,,,,,,,,,,,,,,,,,,,,482.98050130000047,482.99673110000003,483.49668480000037,483.4802249000004,483.4878157000003,483.49668480000037,483.49668480000037,483.49668480000037,484.86376029999974,Foils\058a.jpg,none,n,1.3550688999994236,None,,,,,,,,00027,001,2025-11-14_17h03.55.071,MST_test,2024.2.2,59.97566187644062,2025-11-14 17h04.01.333542 +0530,
129,0,129,o,1.1578267000004416,None,129,0,129,0,484.88002640000013,,,,,,,,,,,,,,,,,,,,,,,,,,,,,,,,,,,,,,,,,,,,,,,,,,484.8638436000001,484.88002640000013,485.38001410000015,485.3637213000002,485.3658446999998,485.38001410000015,485.38001410000015,485.38001410000015,486.5470632000006,Objects\125a.jpg,mid,o,1.1578267000004416,None,,,,,,,,00027,001,2025-11-14_17h03.55.071,MST_test,2024.2.2,59.97566187644062,2025-11-14 17h04.01.333542 +0530,
130,0,130,o,0.9713582000003953,None,130,0,130,0,486.56334590000006,,,,,,,,,,,,,,,,,,,,,,,,,,,,,,,,,,,,,,,,,,,,,,,,,,486.54714440000043,486.56334590000006,487.0632794000003,487.04689620000045,487.05160890000025,487.0632794000003,487.0632794000003,487.0632794000003,488.0469883000005,Objects\119a.jpg,post,o,0.9713582000003953,None,,,,,,,,00027,001,2025-11-14_17h03.55.071,MST_test,2024.2.2,59.97566187644062,2025-11-14 17h04.01.333542 +0530,
131,0,131,o,1.0861849000002621,None,131,0,131,0,488.06329259999984,,,,,,,,,,,,,,,,,,,,,,,,,,,,,,,,,,,,,,,,,,,,,,,,,,488.0470701000004,488.06329259999984,490.2799280999998,488.54683060000025,490.26682150000033,490.2799280999998,490.2799280999998,490.2799280999998,491.38031130000036,Objects\206b.jpg,pre,o,1.0861849000002621,None,,,,,,,,00027,001,2025-11-14_17h03.55.071,MST_test,2024.2.2,59.97566187644062,2025-11-14 17h04.01.333542 +0530,
132,0,132,n,2.466251399999237,None,132,0,132,0,491.3965638999998,,,,,,,,,,,,,,,,,,,,,,,,,,,,,,,,,,,,,,,,,,,,,,,,,,491.3804116000001,491.3965638999998,491.89653290000024,491.8800663000002,491.8877065000006,491.89653290000024,491.89653290000024,491.89653290000024,494.36368010000024,Foils\020b.jpg,none,n,2.466251399999237,None,,,,,,,,00027,001,2025-11-14_17h03.55.071,MST_test,2024.2.2,59.97566187644062,2025-11-14 17h04.01.333542 +0530,
133,0,133,s,3.409972100000232,None,133,0,133,0,494.37994210000033,,,,,,,,,,,,,,,,,,,,,,,,,,,,,,,,,,,,,,,,,,,,,,,,,,494.3637612000002,494.37994210000033,495.31316310000057,494.8633028000004,495.2990589000001,495.31316310000057,495.31316310000057,495.31316310000057,498.73012629999994,Objects\247b.jpg,post,s,3.409972100000232,None,,,,,,,,00027,001,2025-11-14_17h03.55.071,MST_test,2024.2.2,59.97566187644062,2025-11-14 17h04.01.333542 +0530,
134,0,134,n,2.200537300000178,None,134,0,134,0,498.7464043,,,,,,,,,,,,,,,,,,,,,,,,,,,,,,,,,,,,,,,,,,,,,,,,,,498.7302159999999,498.7464043,499.41305470000043,499.2298821000004,499.406524,499.41305470000043,499.41305470000043,499.41305470000043,501.6299426000005,Foils\121a.jpg,none,n,2.200537300000178,None,,,,,,,,00027,001,2025-11-14_17h03.55.071,MST_test,2024.2.2,59.97566187644062,2025-11-14 17h04.01.333542 +0530,
135,0,135,s,2.1849965999999768,None,135,0,135,0,501.64637700000003,,,,,,,,,,,,,,,,,,,,,,,,,,,,,,,,,,,,,,,,,,,,,,,,,,501.63002229999984,501.64637700000003,502.37972009999976,502.1298796000001,502.36982350000017,502.37972009999976,502.37972009999976,502.37972009999976,504.58003270000063,Objects\220b.jpg,post,s,2.1849965999999768,None,,,,,,,,00027,001,2025-11-14_17h03.55.071,MST_test,2024.2.2,59.97566187644062,2025-11-14 17h04.01.333542 +0530,
136,0,136,s,1.4009573000003002,None,136,0,136,0,504.5962730000001,,,,,,,,,,,,,,,,,,,,,,,,,,,,,,,,,,,,,,,,,,,,,,,,,,504.58011870000064,504.5962730000001,505.6130090000006,505.0797646000001,505.6020064000004,505.6130090000006,505.6130090000006,505.6130090000006,507.02985499999977,Objects\072b.jpg,mid,s,1.4009573000003002,None,,,,,,,,00027,001,2025-11-14_17h03.55.071,MST_test,2024.2.2,59.97566187644062,2025-11-14 17h04.01.333542 +0530,
137,0,137,s,1.5130223999994996,None,137,0,137,0,507.0462392999998,,,,,,,,,,,,,,,,,,,,,,,,,,,,,,,,,,,,,,,,,,,,,,,,,,507.0299388000003,507.0462392999998,511.57945819999986,507.5297952000001,511.56805280000026,511.57945819999986,511.57945819999986,511.57945819999986,513.0965293999998,Objects\124a.jpg,post,s,1.5130223999994996,None,,,,,,,,00027,001,2025-11-14_17h03.55.071,MST_test,2024.2.2,59.97566187644062,2025-11-14 17h04.01.333542 +0530,
138,0,138,n,1.4231321000006574,None,138,0,138,0,513.1127631999998,,,,,,,,,,,,,,,,,,,,,,,,,,,,,,,,,,,,,,,,,,,,,,,,,,513.0966189999999,513.1127631999998,515.7794104000004,513.5963038999998,515.7630060000001,515.7794104000004,515.7794104000004,515.7794104000004,517.2130582999998,Foils\010a.jpg,none,n,1.4231321000006574,None,,,,,,,,00027,001,2025-11-14_17h03.55.071,MST_test,2024.2.2,59.97566187644062,2025-11-14 17h04.01.333542 +0530,
139,0,139,n,1.1806487000003472,None,139,0,139,0,517.2293447000002,,,,,,,,,,,,,,,,,,,,,,,,,,,,,,,,,,,,,,,,,,,,,,,,,,517.2131454,517.2293447000002,521.7459330000002,517.7129365000001,521.7248907000003,521.7459330000002,521.7459330000002,521.7459330000002,522.9295837999998,Foils\101b.jpg,none,n,1.1806487000003472,None,,,,,,,,00027,001,2025-11-14_17h03.55.071,MST_test,2024.2.2,59.97566187644062,2025-11-14 17h04.01.333542 +0530,
140,0,140,s,1.7600999000005686,None,140,0,140,0,522.9458719000004,,,,,,,,,,,,,,,,,,,,,,,,,,,,,,,,,,,,,,,,,,,,,,,,,,522.9296758999999,522.9458719000004,527.4958172000006,523.4293715000003,527.4779392,527.4958172000006,527.4958172000006,527.4958172000006,529.2626894000005,Objects\208b.jpg,post,s,1.7600999000005686,None,,,,,,,,00027,001,2025-11-14_17h03.55.071,MST_test,2024.2.2,59.97566187644062,2025-11-14 17h04.01.333542 +0530,
141,0,141,o,0.9749541000001045,None,141,0,141,0,529.2790732000003,,,,,,,,,,,,,,,,,,,,,,,,,,,,,,,,,,,,,,,,,,,,,,,,,,529.2627745999998,529.2790732000003,529.7790350000005,529.7625674000001,529.7681388000001,529.7790350000005,529.7790350000005,529.7790350000005,530.7627165000004,Objects\345a.jpg,mid,o,0.9749541000001045,None,,,,,,,,00027,001,2025-11-14_17h03.55.071,MST_test,2024.2.2,59.97566187644062,2025-11-14 17h04.01.333542 +0530,
142,0,142,n,3.070068799999717,None,142,0,142,0,530.7790494000001,,,,,,,,,,,,,,,,,,,,,,,,,,,,,,,,,,,,,,,,,,,,,,,,,,530.7628003,530.7790494000001,531.2790093000003,531.2625468000006,531.2645917,531.2790093000003,531.2790093000003,531.2790093000003,534.3625720999999,Objects\105a.jpg,post,n,3.070068799999717,None,,,,,,,,00027,001,2025-11-14_17h03.55.071,MST_test,2024.2.2,59.97566187644062,2025-11-14 17h04.01.333542 +0530,
143,0,143,n,1.0701445000004242,None,143,0,143,0,534.3789596000006,,,,,,,,,,,,,,,,,,,,,,,,,,,,,,,,,,,,,,,,,,,,,,,,,,534.3626565000004,534.3789596000006,535.0790021000003,534.8625963000004,535.066065,535.0790021000003,535.0790021000003,535.0790021000003,536.1627042,Foils\086a.jpg,none,n,1.0701445000004242,None,,,,,,,,00027,001,2025-11-14_17h03.55.071,MST_test,2024.2.2,59.97566187644062,2025-11-14 17h04.01.333542 +0530,
144,0,144,n,1.1397391000000425,None,144,0,144,0,536.1789286000003,,,,,,,,,,,,,,,,,,,,,,,,,,,,,,,,,,,,,,,,,,,,,,,,,,536.1627907000002,536.1789286000003,536.6789125000005,536.6624480999999,536.6707716000001,536.6789125000005,536.6789125000005,536.6789125000005,537.8291767000001,Foils\081a.jpg,none,n,1.1397391000000425,None,,,,,,,,00027,001,2025-11-14_17h03.55.071,MST_test,2024.2.2,59.97566187644062,2025-11-14 17h04.01.333542 +0530,
145,0,145,o,2.7807473000002574,None,145,0,145,0,537.8455623,,,,,,,,,,,,,,,,,,,,,,,,,,,,,,,,,,,,,,,,,,,,,,,,,,537.8292675000002,537.8455623,541.4953863999999,538.3290458000001,541.4900051000004,541.4953863999999,541.4953863999999,541.4953863999999,544.2791424000006,Objects\255b.jpg,post,o,2.7807473000002574,None,,,,,,,,00027,001,2025-11-14_17h03.55.071,MST_test,2024.2.2,59.97566187644062,2025-11-14 17h04.01.333542 +0530,
146,0,146,s,1.7786256999997931,None,146,0,146,0,544.2954601000001,,,,,,,,,,,,,,,,,,,,,,,,,,,,,,,,,,,,,,,,,,,,,,,,,,544.2792300000001,544.2954601000001,546.8121810000002,544.7790177000006,546.7911997000001,546.8121810000002,546.8121810000002,546.8121810000002,548.5956823000006,Objects\002b.jpg,post,s,1.7786256999997931,None,,,,,,,,00027,001,2025-11-14_17h03.55.071,MST_test,2024.2.2,59.97566187644062,2025-11-14 17h04.01.333542 +0530,
147,0,147,n,1.42909039999995,None,147,0,147,0,548.6121275000005,,,,,,,,,,,,,,,,,,,,,,,,,,,,,,,,,,,,,,,,,,,,,,,,,,548.5957588000001,548.6121275000005,549.2787053000002,549.0955408999998,549.2637651000005,549.2787053000002,549.2787053000002,549.2787053000002,550.7122912000004,Foils\098a.jpg,none,n,1.42909039999995,None,,,,,,,,00027,001,2025-11-14_17h03.55.071,MST_test,2024.2.2,59.97566187644062,2025-11-14 17h04.01.333542 +0530,
148,0,148,n,1.1468949000000066,None,148,0,148,0,550.7285926000004,,,,,,,,,,,,,,,,,,,,,,,,,,,,,,,,,,,,,,,,,,,,,,,,,,550.7123822000003,550.7285926000004,555.3952055,551.2121629000003,555.3834335000001,555.3952055,555.3952055,555.3952055,556.5455212000006,Objects\307b.jpg,mid,n,1.1468949000000066,None,,,,,,,,00027,001,2025-11-14_17h03.55.071,MST_test,2024.2.2,59.97566187644062,2025-11-14 17h04.01.333542 +0530,
149,0,149,s,1.2351675999998406,None,149,0,149,0,556.5619569,,,,,,,,,,,,,,,,,,,,,,,,,,,,,,,,,,,,,,,,,,,,,,,,,,556.5456027,556.5619569,557.1791678999998,557.0454484000002,557.1693939000006,557.1791678999998,557.1791678999998,557.1791678999998,558.4287517000002,Objects\363b.jpg,post,s,1.2351675999998406,None,,,,,,,,00027,001,2025-11-14_17h03.55.071,MST_test,2024.2.2,59.97566187644062,2025-11-14 17h04.01.333542 +0530,
,,,,,,,,,,,,,,,,,,,,,,,,,,,,,,,,,,,,,,,,,,,,,,,,,,,,,,,,,,,,,,,,,,,,,,,,,,558.4288130000004,558.4450817000006,558.4450817000006,562.9120633000002,space,4.453016200000093,None,00027,001,2025-11-14_17h03.55.071,MST_test,2024.2.2,59.97566187644062,2025-11-14 17h04.01.333542 +0530,
