thisN,thisTrialN,thisRepN,key_resp_3.keys,key_resp_3.rt,key_resp_3.duration,trials.thisRepN,trials.thisTrialN,trials.thisN,trials.thisIndex,thisRow.t,notes,intro_page.started,text.started,key_resp.started,intro_page.stopped,key_resp.keys,key_resp.rt,key_resp.duration,instructions.started,text_2.started,key_resp_2.started,instructions.stopped,key_resp_2.keys,key_resp_2.rt,key_resp_2.duration,demo1.started,image_1.started,image_2.started,text_7.started,key_resp_6.started,text_9.started,demo1.stopped,key_resp_6.keys,key_resp_6.rt,key_resp_6.duration,demo3.started,image_5.started,image_6.started,text_11.started,text_12.started,key_resp_8.started,demo3.stopped,key_resp_8.keys,key_resp_8.rt,key_resp_8.duration,demo_conclusion.started,text_13.started,key_resp_9.started,demo_conclusion.stopped,key_resp_9.keys,key_resp_9.rt,key_resp_9.duration,start_test.started,text_6.started,key_resp_5.started,start_test.stopped,key_resp_5.keys,key_resp_5.rt,key_resp_5.duration,ISI.started,text_4.started,text_4.stopped,ISI.stopped,routine_1.started,image.started,text_3.started,key_resp_3.started,routine_1.stopped,image_path,position_of_stimuli,trials.key_resp_3.keys,trials.key_resp_3.rt,trials.key_resp_3.duration,End_page.started,text_5.started,key_resp_4.started,End_page.stopped,key_resp_4.keys,key_resp_4.rt,key_resp_4.duration,participant,session,date,expName,psychopyVersion,frameRate,expStart,
,,,,,,,,,,,,0.0034826000046450645,0.019953200011514127,0.019953200011514127,2.838404800000717,space,2.8154751999973087,None,,,,,,,,,,,,,,,,,,,,,,,,,,,,,,,,,,,,,,,,,,,,,,,,,,,,,,,,,,,,,,,00024,001,2025-11-09_19h14.07.408,MST_test,2024.2.2,59.95308071945958,2025-11-09 19h14.18.903510 +0530,
,,,,,,,,,,,,,,,,,,,2.838431500000297,2.8531548000028124,2.8531548000028124,19.55333240001346,space,16.694177099998342,None,,,,,,,,,,,,,,,,,,,,,,,,,,,,,,,,,,,,,,,,,,,,,,,,,,,,,,,,00024,001,2025-11-09_19h14.07.408,MST_test,2024.2.2,59.95308071945958,2025-11-09 19h14.18.903510 +0530,
,,,,,,,,,,,,,,,,,,,,,,,,,,19.553359700003057,19.569530100008706,19.569530100008706,19.569530100008706,19.569530100008706,19.569530100008706,23.40307759999996,space,3.8256002999987686,None,,,,,,,,,,,,,,,,,,,,,,,,,,,,,,,,,,,,,,,,,,,,,,00024,001,2025-11-09_19h14.07.408,MST_test,2024.2.2,59.95308071945958,2025-11-09 19h14.18.903510 +0530,
,,,,,,,,,,,,,,,,,,,,,,,,,,,,,,,,,,,,23.403099400005885,23.41944890000741,23.41944890000741,23.41944890000741,23.41944890000741,23.41944890000741,26.253048000013223,space,2.8211854999972275,None,,,,,,,,,,,,,,,,,,,,,,,,,,,,,,,,,,,,00024,001,2025-11-09_19h14.07.408,MST_test,2024.2.2,59.95308071945958,2025-11-09 19h14.18.903510 +0530,
,,,,,,,,,,,,,,,,,,,,,,,,,,,,,,,,,,,,,,,,,,,,,,26.253077200002735,26.26939100000891,26.26939100000891,71.1187224000023,space,44.84150130000489,None,,,,,,,,,,,,,,,,,,,,,,,,,,,,,00024,001,2025-11-09_19h14.07.408,MST_test,2024.2.2,59.95308071945958,2025-11-09 19h14.18.903510 +0530,
,,,,,,,,,,,,,,,,,,,,,,,,,,,,,,,,,,,,,,,,,,,,,,,,,,,,,71.11875930000679,71.1349951000011,71.1349951000011,82.31851960001222,space,11.167676500001107,None,,,,,,,,,,,,,,,,,,,,,,00024,001,2025-11-09_19h14.07.408,MST_test,2024.2.2,59.95308071945958,2025-11-09 19h14.18.903510 +0530,
0,0,0,s,3.7430355999968015,None,0,0,0,0,82.33484700000554,,,,,,,,,,,,,,,,,,,,,,,,,,,,,,,,,,,,,,,,,,,,,,,,,,82.32125030001043,82.33484700000554,82.85171700001229,82.81835720001254,82.8392378000135,82.85171700001229,82.85171700001229,82.85171700001229,86.60176680001314,Objects\090b.jpg,mid,s,3.7430355999968015,None,,,,,,,,00024,001,2025-11-09_19h14.07.408,MST_test,2024.2.2,59.95308071945958,2025-11-09 19h14.18.903510 +0530,
1,0,1,o,2.476721200000611,None,1,0,1,0,86.61807190001127,,,,,,,,,,,,,,,,,,,,,,,,,,,,,,,,,,,,,,,,,,,,,,,,,,86.60185350000393,86.61807190001127,87.11828950000927,87.10156260000076,87.10640509999939,87.11828950000927,87.11828950000927,87.11828950000927,89.60169380001025,Objects\260a.jpg,mid,o,2.476721200000611,None,,,,,,,,00024,001,2025-11-09_19h14.07.408,MST_test,2024.2.2,59.95308071945958,2025-11-09 19h14.18.903510 +0530,
2,0,2,s,2.1188185999926645,None,2,0,2,0,89.61800430000585,,,,,,,,,,,,,,,,,,,,,,,,,,,,,,,,,,,,,,,,,,,,,,,,,,89.60177070001373,89.61800430000585,90.11794140000711,90.1014942000038,90.11185000000114,90.11794140000711,90.11794140000711,90.11794140000711,92.25165810000908,Objects\254b.jpg,pre,s,2.1188185999926645,None,,,,,,,,00024,001,2025-11-09_19h14.07.408,MST_test,2024.2.2,59.95308071945958,2025-11-09 19h14.18.903510 +0530,
3,0,3,o,1.6308088999940082,None,3,0,3,0,92.26801580000028,,,,,,,,,,,,,,,,,,,,,,,,,,,,,,,,,,,,,,,,,,,,,,,,,,92.25173500001256,92.26801580000028,92.76794070001051,92.75146390000009,92.75565980000829,92.76794070001051,92.76794070001051,92.76794070001051,94.40162370000326,Objects\287a.jpg,post,o,1.6308088999940082,None,,,,,,,,00024,001,2025-11-09_19h14.07.408,MST_test,2024.2.2,59.95308071945958,2025-11-09 19h14.18.903510 +0530,
4,0,4,o,1.2409712999942712,None,4,0,4,0,94.41790500000934,,,,,,,,,,,,,,,,,,,,,,,,,,,,,,,,,,,,,,,,,,,,,,,,,,94.40171109999937,94.41790500000934,94.91788730000553,94.90141660001245,94.9067253000103,94.91788730000553,94.91788730000553,94.91788730000553,96.16820660000667,Objects\028a.jpg,post,o,1.2409712999942712,None,,,,,,,,00024,001,2025-11-09_19h14.07.408,MST_test,2024.2.2,59.95308071945958,2025-11-09 19h14.18.903510 +0530,
5,0,5,o,9.834262700009276,None,5,0,5,0,96.18458900001133,,,,,,,,,,,,,,,,,,,,,,,,,,,,,,,,,,,,,,,,,,,,,,,,,,96.1682875000115,96.18458900001133,96.70119150000392,96.66804810000758,96.68896740001219,96.70119150000392,96.70119150000392,96.70119150000392,106.55129710001347,Objects\022b.jpg,pre,o,9.834262700009276,None,,,,,,,,00024,001,2025-11-09_19h14.07.408,MST_test,2024.2.2,59.95308071945958,2025-11-09 19h14.18.903510 +0530,
6,0,6,n,4.961401100008516,None,6,0,6,0,106.56765790001373,,,,,,,,,,,,,,,,,,,,,,,,,,,,,,,,,,,,,,,,,,,,,,,,,,106.55138120001357,106.56765790001373,107.06763290001254,107.05115630000364,107.05897900000855,107.06763290001254,107.06763290001254,107.06763290001254,112.0345207000064,Foils\058a.jpg,none,n,4.961401100008516,None,,,,,,,,00024,001,2025-11-09_19h14.07.408,MST_test,2024.2.2,59.95308071945958,2025-11-09 19h14.18.903510 +0530,
7,0,7,o,6.5696980000066105,None,7,0,7,0,112.05085690000851,,,,,,,,,,,,,,,,,,,,,,,,,,,,,,,,,,,,,,,,,,,,,,,,,,112.03460490000725,112.05085690000851,112.55086580000352,112.53433860000223,112.53661990001274,112.55086580000352,112.55086580000352,112.55086580000352,119.13438770000357,Objects\379a.jpg,pre,o,6.5696980000066105,None,,,,,,,,00024,001,2025-11-09_19h14.07.408,MST_test,2024.2.2,59.95308071945958,2025-11-09 19h14.18.903510 +0530,
8,0,8,n,1.8681457999919076,None,8,0,8,0,119.1507574999996,,,,,,,,,,,,,,,,,,,,,,,,,,,,,,,,,,,,,,,,,,,,,,,,,,119.1344650000101,119.1507574999996,119.65069130000484,119.63422320000245,119.63637970000855,119.65069130000484,119.65069130000484,119.65069130000484,121.53442750000977,Foils\020b.jpg,none,n,1.8681457999919076,None,,,,,,,,00024,001,2025-11-09_19h14.07.408,MST_test,2024.2.2,59.95308071945958,2025-11-09 19h14.18.903510 +0530,
9,0,9,n,15.040812100007315,None,9,0,9,0,121.5506779999996,,,,,,,,,,,,,,,,,,,,,,,,,,,,,,,,,,,,,,,,,,,,,,,,,,121.53451880000648,121.5506779999996,122.05063650000375,122.03415400000813,122.0396388000081,122.05063650000375,122.05063650000375,122.05063650000375,137.10063179999997,Objects\217a.jpg,post,n,15.040812100007315,None,,,,,,,,00024,001,2025-11-09_19h14.07.408,MST_test,2024.2.2,59.95308071945958,2025-11-09 19h14.18.903510 +0530,
10,0,10,o,1.6596295000053942,None,10,0,10,0,137.11700630000269,,,,,,,,,,,,,,,,,,,,,,,,,,,,,,,,,,,,,,,,,,,,,,,,,,137.10073080001166,137.11700630000269,137.6170364000136,137.60061960000894,137.6066162000061,137.6170364000136,137.6170364000136,137.6170364000136,139.28395620000083,Objects\039a.jpg,mid,o,1.6596295000053942,None,,,,,,,,00024,001,2025-11-09_19h14.07.408,MST_test,2024.2.2,59.95308071945958,2025-11-09 19h14.18.903510 +0530,
11,0,11,s,3.4500504000025103,None,11,0,11,0,139.30025830000523,,,,,,,,,,,,,,,,,,,,,,,,,,,,,,,,,,,,,,,,,,,,,,,,,,139.2840409000055,139.30025830000523,139.8169198000105,139.7839166000049,139.8006810000079,139.8169198000105,139.8169198000105,139.8169198000105,143.26729750000231,Objects\141b.jpg,mid,s,3.4500504000025103,None,,,,,,,,00024,001,2025-11-09_19h14.07.408,MST_test,2024.2.2,59.95308071945958,2025-11-09 19h14.18.903510 +0530,
12,0,12,o,5.100992200008477,None,12,0,12,0,143.28353430000425,,,,,,,,,,,,,,,,,,,,,,,,,,,,,,,,,,,,,,,,,,,,,,,,,,143.2673788000102,143.28353430000425,143.7834986000089,143.76701660000253,143.7691014000011,143.7834986000089,143.7834986000089,143.7834986000089,148.90036470000632,Objects\241a.jpg,mid,o,5.100992200008477,None,,,,,,,,00024,001,2025-11-09_19h14.07.408,MST_test,2024.2.2,59.95308071945958,2025-11-09 19h14.18.903510 +0530,
13,0,13,s,2.405302800005302,None,13,0,13,0,148.91674610000337,,,,,,,,,,,,,,,,,,,,,,,,,,,,,,,,,,,,,,,,,,,,,,,,,,148.900461000012,148.91674610000337,149.4333808000083,149.40017970000918,149.42477390001295,149.4333808000083,149.4333808000083,149.4333808000083,151.85048430001189,Objects\113b.jpg,pre,s,2.405302800005302,None,,,,,,,,00024,001,2025-11-09_19h14.07.408,MST_test,2024.2.2,59.95308071945958,2025-11-09 19h14.18.903510 +0530,
14,0,14,o,1.7764642000111053,None,14,0,14,0,151.86677540000528,,,,,,,,,,,,,,,,,,,,,,,,,,,,,,,,,,,,,,,,,,,,,,,,,,151.8505753000063,151.86677540000528,152.36667080000916,152.35014100000262,152.35195330000715,152.36667080000916,152.36667080000916,152.36667080000916,154.15023670000664,Objects\122a.jpg,mid,o,1.7764642000111053,None,,,,,,,,00024,001,2025-11-09_19h14.07.408,MST_test,2024.2.2,59.95308071945958,2025-11-09 19h14.18.903510 +0530,
15,0,15,o,3.4766276000009384,None,15,0,15,0,154.16666900001292,,,,,,,,,,,,,,,,,,,,,,,,,,,,,,,,,,,,,,,,,,,,,,,,,,154.15032490000885,154.16666900001292,154.66662260000885,154.65011320001213,154.65227990000858,154.66662260000885,154.66662260000885,154.66662260000885,158.15025500000047,Objects\148a.jpg,mid,o,3.4766276000009384,None,,,,,,,,00024,001,2025-11-09_19h14.07.408,MST_test,2024.2.2,59.95308071945958,2025-11-09 19h14.18.903510 +0530,
16,0,16,n,3.5948369999969145,None,16,0,16,0,158.1665781000047,,,,,,,,,,,,,,,,,,,,,,,,,,,,,,,,,,,,,,,,,,,,,,,,,,158.15034820001165,158.1665781000047,158.66652690000774,158.6500042000116,158.6533291000087,158.66652690000774,158.66652690000774,158.66652690000774,162.26668520001112,Foils\f5.jpg,none,n,3.5948369999969145,None,,,,,,,,00024,001,2025-11-09_19h14.07.408,MST_test,2024.2.2,59.95308071945958,2025-11-09 19h14.18.903510 +0530,
17,0,17,s,4.909154099994339,None,17,0,17,0,162.283033300002,,,,,,,,,,,,,,,,,,,,,,,,,,,,,,,,,,,,,,,,,,,,,,,,,,162.2667744000064,162.283033300002,162.7996654000017,162.76658940000925,162.79072620000807,162.7996654000017,162.7996654000017,162.7996654000017,167.71662430001015,Objects\121b.jpg,pre,s,4.909154099994339,None,,,,,,,,00024,001,2025-11-09_19h14.07.408,MST_test,2024.2.2,59.95308071945958,2025-11-09 19h14.18.903510 +0530,
18,0,18,o,2.692434199998388,None,18,0,18,0,167.73288630000025,,,,,,,,,,,,,,,,,,,,,,,,,,,,,,,,,,,,,,,,,,,,,,,,,,167.71670860001177,167.73288630000025,168.23287160000473,168.21645710000303,168.2218916000129,168.23287160000473,168.23287160000473,168.23287160000473,170.93323990001227,Objects\350a.jpg,post,o,2.692434199998388,None,,,,,,,,00024,001,2025-11-09_19h14.07.408,MST_test,2024.2.2,59.95308071945958,2025-11-09 19h14.18.903510 +0530,
19,0,19,o,3.0231675000104588,None,19,0,19,0,170.94953280000482,,,,,,,,,,,,,,,,,,,,,,,,,,,,,,,,,,,,,,,,,,,,,,,,,,170.93331620001118,170.94953280000482,171.44947340000363,171.43308880001132,171.43837870001153,171.44947340000363,171.44947340000363,171.44947340000363,174.48306280000543,Objects\342a.jpg,post,o,3.0231675000104588,None,,,,,,,,00024,001,2025-11-09_19h14.07.408,MST_test,2024.2.2,59.95308071945958,2025-11-09 19h14.18.903510 +0530,
20,0,20,n,4.443469699996058,None,20,0,20,0,174.49943429999985,,,,,,,,,,,,,,,,,,,,,,,,,,,,,,,,,,,,,,,,,,,,,,,,,,174.48314960001153,174.49943429999985,174.9993977000122,174.9829224999994,174.98506120000093,174.9993977000122,174.9993977000122,174.9993977000122,179.4496327000088,Foils\098a.jpg,none,n,4.443469699996058,None,,,,,,,,00024,001,2025-11-09_19h14.07.408,MST_test,2024.2.2,59.95308071945958,2025-11-09 19h14.18.903510 +0530,
21,0,21,n,2.626636500004679,None,21,0,21,0,179.46603510000568,,,,,,,,,,,,,,,,,,,,,,,,,,,,,,,,,,,,,,,,,,,,,,,,,,179.44971440000518,179.46603510000568,179.96597370000381,179.94956760000787,179.95157660001132,179.96597370000381,179.96597370000381,179.96597370000381,182.5995901999995,Foils\018a.jpg,none,n,2.626636500004679,None,,,,,,,,00024,001,2025-11-09_19h14.07.408,MST_test,2024.2.2,59.95308071945958,2025-11-09 19h14.18.903510 +0530,
22,0,22,o,1.5619902000034926,None,22,0,22,0,182.61595260001195,,,,,,,,,,,,,,,,,,,,,,,,,,,,,,,,,,,,,,,,,,,,,,,,,,182.59967190001043,182.61595260001195,183.13262070000928,183.0995028000034,183.1213465000037,183.13262070000928,183.13262070000928,183.13262070000928,184.6995675000071,Objects\142b.jpg,mid,o,1.5619902000034926,None,,,,,,,,00024,001,2025-11-09_19h14.07.408,MST_test,2024.2.2,59.95308071945958,2025-11-09 19h14.18.903510 +0530,
23,0,23,o,2.3251772000076016,None,23,0,23,0,184.71588690001226,,,,,,,,,,,,,,,,,,,,,,,,,,,,,,,,,,,,,,,,,,,,,,,,,,184.69964480001363,184.71588690001226,185.21584330000042,185.19944060000125,185.20150930000818,185.21584330000042,185.21584330000042,185.21584330000042,187.54953640000895,Objects\058a.jpg,mid,o,2.3251772000076016,None,,,,,,,,00024,001,2025-11-09_19h14.07.408,MST_test,2024.2.2,59.95308071945958,2025-11-09 19h14.18.903510 +0530,
24,0,24,s,3.5101182000071276,None,24,0,24,0,187.5657901000086,,,,,,,,,,,,,,,,,,,,,,,,,,,,,,,,,,,,,,,,,,,,,,,,,,187.54961550000007,187.5657901000086,188.08244720000948,188.04936750000343,188.0714380000136,188.08244720000948,188.08244720000948,188.08244720000948,191.5993548000115,Objects\292b.jpg,post,s,3.5101182000071276,None,,,,,,,,00024,001,2025-11-09_19h14.07.408,MST_test,2024.2.2,59.95308071945958,2025-11-09 19h14.18.903510 +0530,
25,0,25,s,5.932667699991725,None,25,0,25,0,191.6157441000105,,,,,,,,,,,,,,,,,,,,,,,,,,,,,,,,,,,,,,,,,,,,,,,,,,191.59944190000533,191.6157441000105,192.11569600000803,192.09933420000016,192.10500790001242,192.11569600000803,192.11569600000803,192.11569600000803,198.04928070001188,Objects\345a.jpg,mid,s,5.932667699991725,None,,,,,,,,00024,001,2025-11-09_19h14.07.408,MST_test,2024.2.2,59.95308071945958,2025-11-09 19h14.18.903510 +0530,
26,0,26,o,2.6612934000004316,None,26,0,26,0,198.0655981000018,,,,,,,,,,,,,,,,,,,,,,,,,,,,,,,,,,,,,,,,,,,,,,,,,,198.04936000000453,198.0655981000018,198.5655517000123,198.5491977000056,198.55120900001202,198.5655517000123,198.5655517000123,198.5655517000123,201.2324854000035,Objects\167a.jpg,pre,o,2.6612934000004316,None,,,,,,,,00024,001,2025-11-09_19h14.07.408,MST_test,2024.2.2,59.95308071945958,2025-11-09 19h14.18.903510 +0530,
27,0,27,s,1.7766093000100227,None,27,0,27,0,201.24885560000257,,,,,,,,,,,,,,,,,,,,,,,,,,,,,,,,,,,,,,,,,,,,,,,,,,201.23256820000825,201.24885560000257,201.78244450000057,201.7325251000002,201.7628842000122,201.78244450000057,201.78244450000057,201.78244450000057,203.56582510001317,Objects\240b.jpg,pre,s,1.7766093000100227,None,,,,,,,,00024,001,2025-11-09_19h14.07.408,MST_test,2024.2.2,59.95308071945958,2025-11-09 19h14.18.903510 +0530,
28,0,28,s,2.089856899998267,None,28,0,28,0,203.58213930000784,,,,,,,,,,,,,,,,,,,,,,,,,,,,,,,,,,,,,,,,,,,,,,,,,,203.56590140001208,203.58213930000784,204.0987979000056,204.06564460000664,204.08571550001216,204.0987979000056,204.0987979000056,204.0987979000056,206.19910840000375,Objects\111b.jpg,post,s,2.089856899998267,None,,,,,,,,00024,001,2025-11-09_19h14.07.408,MST_test,2024.2.2,59.95308071945958,2025-11-09 19h14.18.903510 +0530,
29,0,29,s,1.7613552999973763,None,29,0,29,0,206.21541770000476,,,,,,,,,,,,,,,,,,,,,,,,,,,,,,,,,,,,,,,,,,,,,,,,,,206.19919010000012,206.21541770000476,206.71541260000959,206.6988937999995,206.70108340001025,206.71541260000959,206.71541260000959,206.71541260000959,208.48247270000866,Foils\057a.jpg,none,s,1.7613552999973763,None,,,,,,,,00024,001,2025-11-09_19h14.07.408,MST_test,2024.2.2,59.95308071945958,2025-11-09 19h14.18.903510 +0530,
30,0,30,s,4.381683500003419,None,30,0,30,0,208.49867800000357,,,,,,,,,,,,,,,,,,,,,,,,,,,,,,,,,,,,,,,,,,,,,,,,,,208.48254950001137,208.49867800000357,208.99898080001003,208.982170400006,208.98758430000453,208.99898080001003,208.99898080001003,208.99898080001003,213.38228860001254,Objects\232a.jpg,pre,s,4.381683500003419,None,,,,,,,,00024,001,2025-11-09_19h14.07.408,MST_test,2024.2.2,59.95308071945958,2025-11-09 19h14.18.903510 +0530,
31,0,31,n,2.312339799987967,None,31,0,31,0,213.3986173000012,,,,,,,,,,,,,,,,,,,,,,,,,,,,,,,,,,,,,,,,,,,,,,,,,,213.38237800000934,213.3986173000012,213.8985481000127,213.88207140000304,213.88784000001033,213.8985481000127,213.8985481000127,213.8985481000127,216.2154770000052,Foils\002a.jpg,none,n,2.312339799987967,None,,,,,,,,00024,001,2025-11-09_19h14.07.408,MST_test,2024.2.2,59.95308071945958,2025-11-09 19h14.18.903510 +0530,
32,0,32,s,5.390986899990821,None,32,0,32,0,216.23186080000596,,,,,,,,,,,,,,,,,,,,,,,,,,,,,,,,,,,,,,,,,,,,,,,,,,216.21556280000368,216.23186080000596,216.73182480000833,216.71532970000408,216.72573900000134,216.73182480000833,216.73182480000833,216.73182480000833,222.132013800001,Objects\373b.jpg,post,s,5.390986899990821,None,,,,,,,,00024,001,2025-11-09_19h14.07.408,MST_test,2024.2.2,59.95308071945958,2025-11-09 19h14.18.903510 +0530,
33,0,33,s,2.1893492999952286,None,33,0,33,0,222.14840730000287,,,,,,,,,,,,,,,,,,,,,,,,,,,,,,,,,,,,,,,,,,,,,,,,,,222.1321125000104,222.14840730000287,222.68180109999957,222.63191960001132,222.66888200001267,222.68180109999957,222.68180109999957,222.68180109999957,224.88205090000702,Objects\242b.jpg,pre,s,2.1893492999952286,None,,,,,,,,00024,001,2025-11-09_19h14.07.408,MST_test,2024.2.2,59.95308071945958,2025-11-09 19h14.18.903510 +0530,
34,0,34,s,2.9702277000033064,None,34,0,34,0,224.89834730001166,,,,,,,,,,,,,,,,,,,,,,,,,,,,,,,,,,,,,,,,,,,,,,,,,,224.88213490000635,224.89834730001166,225.4149657000089,225.381947700007,225.39424590001,225.4149657000089,225.4149657000089,225.4149657000089,228.39855630000238,Objects\203b.jpg,mid,s,2.9702277000033064,None,,,,,,,,00024,001,2025-11-09_19h14.07.408,MST_test,2024.2.2,59.95308071945958,2025-11-09 19h14.18.903510 +0530,
35,0,35,s,4.215665700001409,None,35,0,35,0,228.41493920001085,,,,,,,,,,,,,,,,,,,,,,,,,,,,,,,,,,,,,,,,,,,,,,,,,,228.3986392000079,228.41493920001085,228.91488980001304,228.89841590001015,228.9038503000047,228.91488980001304,228.91488980001304,228.91488980001304,233.13178270000208,Objects\063a.jpg,post,s,4.215665700001409,None,,,,,,,,00024,001,2025-11-09_19h14.07.408,MST_test,2024.2.2,59.95308071945958,2025-11-09 19h14.18.903510 +0530,
36,0,36,o,1.2534474999993108,None,36,0,36,0,233.1481691000081,,,,,,,,,,,,,,,,,,,,,,,,,,,,,,,,,,,,,,,,,,,,,,,,,,233.13186810001207,233.1481691000081,233.64816010001232,233.6316502000118,233.63386290000926,233.64816010001232,233.64816010001232,233.64816010001232,234.91517760000715,Objects\002a.jpg,mid,o,1.2534474999993108,None,,,,,,,,00024,001,2025-11-09_19h14.07.408,MST_test,2024.2.2,59.95308071945958,2025-11-09 19h14.18.903510 +0530,
37,0,37,s,2.0409442000091076,None,37,0,37,0,234.93146220000926,,,,,,,,,,,,,,,,,,,,,,,,,,,,,,,,,,,,,,,,,,,,,,,,,,234.9152568000136,234.93146220000926,235.43149280000944,235.41497670000535,235.41710030000831,235.43149280000944,235.43149280000944,235.43149280000944,237.4818520000117,Objects\341b.jpg,mid,s,2.0409442000091076,None,,,,,,,,00024,001,2025-11-09_19h14.07.408,MST_test,2024.2.2,59.95308071945958,2025-11-09 19h14.18.903510 +0530,
38,0,38,s,1.4843624999921303,None,38,0,38,0,237.49807110000984,,,,,,,,,,,,,,,,,,,,,,,,,,,,,,,,,,,,,,,,,,,,,,,,,,237.4819342000119,237.49807110000984,237.99803050000628,237.98158040001,237.9837486000033,237.99803050000628,237.99803050000628,237.99803050000628,239.49839970000903,Objects\082b.jpg,post,s,1.4843624999921303,None,,,,,,,,00024,001,2025-11-09_19h14.07.408,MST_test,2024.2.2,59.95308071945958,2025-11-09 19h14.18.903510 +0530,
39,0,39,s,2.9807088000088697,None,39,0,39,0,239.51470400000107,,,,,,,,,,,,,,,,,,,,,,,,,,,,,,,,,,,,,,,,,,,,,,,,,,239.49847900000168,239.51470400000107,240.01465550001012,239.9981603000051,240.00782260000415,240.01465550001012,240.01465550001012,240.01465550001012,242.9984753000026,Objects\343b.jpg,pre,s,2.9807088000088697,None,,,,,,,,00024,001,2025-11-09_19h14.07.408,MST_test,2024.2.2,59.95308071945958,2025-11-09 19h14.18.903510 +0530,
40,0,40,s,3.5879373000061605,None,40,0,40,0,243.01462750000064,,,,,,,,,,,,,,,,,,,,,,,,,,,,,,,,,,,,,,,,,,,,,,,,,,242.99856150000414,243.01462750000064,243.53124440000101,243.4982219000085,243.5206720999995,243.53124440000101,243.53124440000101,243.53124440000101,247.13159129999985,Objects\096b.jpg,mid,s,3.5879373000061605,None,,,,,,,,00024,001,2025-11-09_19h14.07.408,MST_test,2024.2.2,59.95308071945958,2025-11-09 19h14.18.903510 +0530,
41,0,41,o,1.1170358000090346,None,41,0,41,0,247.14786530000856,,,,,,,,,,,,,,,,,,,,,,,,,,,,,,,,,,,,,,,,,,,,,,,,,,247.13167510001222,247.14786530000856,247.64782340000966,247.6314771000034,247.6336561000062,247.64782340000966,247.64782340000966,247.64782340000966,248.78155960000004,Objects\146a.jpg,mid,o,1.1170358000090346,None,,,,,,,,00024,001,2025-11-09_19h14.07.408,MST_test,2024.2.2,59.95308071945958,2025-11-09 19h14.18.903510 +0530,
42,0,42,s,6.898785399986082,None,42,0,42,0,248.79783250000037,,,,,,,,,,,,,,,,,,,,,,,,,,,,,,,,,,,,,,,,,,,,,,,,,,248.78164850000758,248.79783250000037,249.2977857000078,249.28130860000965,249.28591560000496,249.2977857000078,249.2977857000078,249.2977857000078,256.19808990000456,Objects\338a.jpg,mid,s,6.898785399986082,None,,,,,,,,00024,001,2025-11-09_19h14.07.408,MST_test,2024.2.2,59.95308071945958,2025-11-09 19h14.18.903510 +0530,
43,0,43,s,1.3514636000036262,None,43,0,43,0,256.21433550000074,,,,,,,,,,,,,,,,,,,,,,,,,,,,,,,,,,,,,,,,,,,,,,,,,,256.19818010000745,256.21433550000074,256.73097780000535,256.6978508000029,256.7170513000019,256.73097780000535,256.73097780000535,256.73097780000535,258.09800100000575,Objects\079b.jpg,post,s,1.3514636000036262,None,,,,,,,,00024,001,2025-11-09_19h14.07.408,MST_test,2024.2.2,59.95308071945958,2025-11-09 19h14.18.903510 +0530,
44,0,44,o,1.2286166999983834,None,44,0,44,0,258.11431730000186,,,,,,,,,,,,,,,,,,,,,,,,,,,,,,,,,,,,,,,,,,,,,,,,,,258.0980819000106,258.11431730000186,258.6142505000025,258.5977611000126,258.6025504999998,258.6142505000025,258.6142505000025,258.6142505000025,259.8480655000021,Objects\383a.jpg,post,o,1.2286166999983834,None,,,,,,,,00024,001,2025-11-09_19h14.07.408,MST_test,2024.2.2,59.95308071945958,2025-11-09 19h14.18.903510 +0530,
45,0,45,s,2.3718569000047864,None,45,0,45,0,259.8642513000086,,,,,,,,,,,,,,,,,,,,,,,,,,,,,,,,,,,,,,,,,,,,,,,,,,259.8481479000038,259.8642513000086,260.38087970000925,260.3478363000031,260.36942770000314,260.38087970000925,260.38087970000925,260.38087970000925,262.76454530000046,Objects\014b.jpg,mid,s,2.3718569000047864,None,,,,,,,,00024,001,2025-11-09_19h14.07.408,MST_test,2024.2.2,59.95308071945958,2025-11-09 19h14.18.903510 +0530,
46,0,46,o,1.0742317999975057,None,46,0,46,0,262.78090270000394,,,,,,,,,,,,,,,,,,,,,,,,,,,,,,,,,,,,,,,,,,,,,,,,,,262.76462900001206,262.78090270000394,263.28084890000173,263.26434270000027,263.2662473000091,263.28084890000173,263.28084890000173,263.28084890000173,264.36445380000805,Objects\106a.jpg,mid,o,1.0742317999975057,None,,,,,,,,00024,001,2025-11-09_19h14.07.408,MST_test,2024.2.2,59.95308071945958,2025-11-09 19h14.18.903510 +0530,
47,0,47,s,2.176941600002465,None,47,0,47,0,264.38079819999984,,,,,,,,,,,,,,,,,,,,,,,,,,,,,,,,,,,,,,,,,,,,,,,,,,264.3645283000078,264.38079819999984,264.8974478000018,264.86430230000406,264.88736470000003,264.8974478000018,264.8974478000018,264.8974478000018,267.08116390000214,Objects\305b.jpg,post,s,2.176941600002465,None,,,,,,,,00024,001,2025-11-09_19h14.07.408,MST_test,2024.2.2,59.95308071945958,2025-11-09 19h14.18.903510 +0530,
48,0,48,s,4.677618100002292,None,48,0,48,0,267.09740990000137,,,,,,,,,,,,,,,,,,,,,,,,,,,,,,,,,,,,,,,,,,,,,,,,,,267.0812428000063,267.09740990000137,267.597383100001,267.58096370000567,267.5897573000111,267.597383100001,267.597383100001,267.597383100001,272.28116130000853,Objects\140b.jpg,post,s,4.677618100002292,None,,,,,,,,00024,001,2025-11-09_19h14.07.408,MST_test,2024.2.2,59.95308071945958,2025-11-09 19h14.18.903510 +0530,
49,0,49,n,4.79782440001145,None,49,0,49,0,272.2972853000101,,,,,,,,,,,,,,,,,,,,,,,,,,,,,,,,,,,,,,,,,,,,,,,,,,272.28124820000085,272.2972853000101,272.79727580001054,272.78093790001003,272.78317300000344,272.79727580001054,272.79727580001054,272.79727580001054,277.5976246000064,Foils\086a.jpg,none,n,4.79782440001145,None,,,,,,,,00024,001,2025-11-09_19h14.07.408,MST_test,2024.2.2,59.95308071945958,2025-11-09 19h14.18.903510 +0530,
50,0,50,s,1.6470706999971299,None,50,0,50,0,277.6138520000095,,,,,,,,,,,,,,,,,,,,,,,,,,,,,,,,,,,,,,,,,,,,,,,,,,277.5977113000117,277.6138520000095,278.11382980000053,278.0973832000018,278.10039930000494,278.11382980000053,278.11382980000053,278.11382980000053,279.76409570001124,Objects\196a.jpg,mid,s,1.6470706999971299,None,,,,,,,,00024,001,2025-11-09_19h14.07.408,MST_test,2024.2.2,59.95308071945958,2025-11-09 19h14.18.903510 +0530,
51,0,51,s,2.5285313000058522,None,51,0,51,0,279.7804887000093,,,,,,,,,,,,,,,,,,,,,,,,,,,,,,,,,,,,,,,,,,,,,,,,,,279.7641745000001,279.7804887000093,280.28045000000566,280.2639482000086,280.272071600004,280.28045000000566,280.28045000000566,280.28045000000566,282.81418730001315,Objects\072b.jpg,mid,s,2.5285313000058522,None,,,,,,,,00024,001,2025-11-09_19h14.07.408,MST_test,2024.2.2,59.95308071945958,2025-11-09 19h14.18.903510 +0530,
52,0,52,n,2.436293199993088,None,52,0,52,0,282.83043090000865,,,,,,,,,,,,,,,,,,,,,,,,,,,,,,,,,,,,,,,,,,,,,,,,,,282.81426280000596,282.83043090000865,283.3304083000112,283.3138784000039,283.3168442000024,283.3304083000112,283.3304083000112,283.3304083000112,285.7806211000134,Foils\f7.jpg,none,n,2.436293199993088,None,,,,,,,,00024,001,2025-11-09_19h14.07.408,MST_test,2024.2.2,59.95308071945958,2025-11-09 19h14.18.903510 +0530,
53,0,53,s,1.973384899989469,None,53,0,53,0,285.7970229000057,,,,,,,,,,,,,,,,,,,,,,,,,,,,,,,,,,,,,,,,,,,,,,,,,,285.78070540000044,285.7970229000057,286.31366430000344,286.2805179999996,286.304060200011,286.31366430000344,286.31366430000344,286.31366430000344,288.29737150001165,Objects\136b.jpg,post,s,1.973384899989469,None,,,,,,,,00024,001,2025-11-09_19h14.07.408,MST_test,2024.2.2,59.95308071945958,2025-11-09 19h14.18.903510 +0530,
54,0,54,o,1.8693648999906145,None,54,0,54,0,288.3138607000001,,,,,,,,,,,,,,,,,,,,,,,,,,,,,,,,,,,,,,,,,,,,,,,,,,288.2974617,288.3138607000001,288.83028160000686,288.79724110000825,288.8127967000037,288.83028160000686,288.83028160000686,288.83028160000686,290.71405540000706,Objects\087b.jpg,pre,o,1.8693648999906145,None,,,,,,,,00024,001,2025-11-09_19h14.07.408,MST_test,2024.2.2,59.95308071945958,2025-11-09 19h14.18.903510 +0530,
55,0,55,s,3.512530899999547,None,55,0,55,0,290.73022350000974,,,,,,,,,,,,,,,,,,,,,,,,,,,,,,,,,,,,,,,,,,,,,,,,,,290.71414170000935,290.73022350000974,291.23027260000526,291.2139071000129,291.21590280000237,291.23027260000526,291.23027260000526,291.23027260000526,294.7472009000048,Objects\171b.jpg,pre,s,3.512530899999547,None,,,,,,,,00024,001,2025-11-09_19h14.07.408,MST_test,2024.2.2,59.95308071945958,2025-11-09 19h14.18.903510 +0530,
56,0,56,o,1.203326199989533,None,56,0,56,0,294.76349610000034,,,,,,,,,,,,,,,,,,,,,,,,,,,,,,,,,,,,,,,,,,,,,,,,,,294.7472761000099,294.76349610000034,295.26345880000736,295.24695190000057,295.24872750000213,295.26345880000736,295.26345880000736,295.26345880000736,296.4805539000081,Objects\225a.jpg,post,o,1.203326199989533,None,,,,,,,,00024,001,2025-11-09_19h14.07.408,MST_test,2024.2.2,59.95308071945958,2025-11-09 19h14.18.903510 +0530,
57,0,57,s,1.579723600007128,None,57,0,57,0,296.49679760000436,,,,,,,,,,,,,,,,,,,,,,,,,,,,,,,,,,,,,,,,,,,,,,,,,,296.4806389000005,296.49679760000436,297.01343940000515,296.9802791000111,296.99491500000295,297.01343940000515,297.01343940000515,297.01343940000515,298.59709250000014,Objects\201b.jpg,post,s,1.579723600007128,None,,,,,,,,00024,001,2025-11-09_19h14.07.408,MST_test,2024.2.2,59.95308071945958,2025-11-09 19h14.18.903510 +0530,
58,0,58,o,1.921309299999848,None,58,0,58,0,298.61343090000446,,,,,,,,,,,,,,,,,,,,,,,,,,,,,,,,,,,,,,,,,,,,,,,,,,298.59717900000396,298.61343090000446,299.11337570000615,299.09702220000327,299.09913000000233,299.11337570000615,299.11337570000615,299.11337570000615,301.047117500013,Objects\030a.jpg,pre,o,1.921309299999848,None,,,,,,,,00024,001,2025-11-09_19h14.07.408,MST_test,2024.2.2,59.95308071945958,2025-11-09 19h14.18.903510 +0530,
59,0,59,o,1.9131733999965945,None,59,0,59,0,301.0633694999997,,,,,,,,,,,,,,,,,,,,,,,,,,,,,,,,,,,,,,,,,,,,,,,,,,301.0472102000058,301.0633694999997,301.56335310000577,301.5467869000131,301.5489407000132,301.56335310000577,301.56335310000577,301.56335310000577,303.4802786000073,Objects\081a.jpg,pre,o,1.9131733999965945,None,,,,,,,,00024,001,2025-11-09_19h14.07.408,MST_test,2024.2.2,59.95308071945958,2025-11-09 19h14.18.903510 +0530,
60,0,60,s,1.329631699991296,None,60,0,60,0,303.49664860000485,,,,,,,,,,,,,,,,,,,,,,,,,,,,,,,,,,,,,,,,,,,,,,,,,,303.4803568000061,303.49664860000485,304.0132881000027,303.9801332000061,303.99592670000857,304.0132881000027,304.0132881000027,304.0132881000027,305.34685710001213,Objects\098b.jpg,pre,s,1.329631699991296,None,,,,,,,,00024,001,2025-11-09_19h14.07.408,MST_test,2024.2.2,59.95308071945958,2025-11-09 19h14.18.903510 +0530,
61,0,61,o,1.5096345000056317,None,61,0,61,0,305.3632728000084,,,,,,,,,,,,,,,,,,,,,,,,,,,,,,,,,,,,,,,,,,,,,,,,,,305.34693870000774,305.3632728000084,305.8632532000047,305.84671260000323,305.85130030001164,305.8632532000047,305.8632532000047,305.8632532000047,307.3802477999998,Objects\319a.jpg,mid,o,1.5096345000056317,None,,,,,,,,00024,001,2025-11-09_19h14.07.408,MST_test,2024.2.2,59.95308071945958,2025-11-09 19h14.18.903510 +0530,
62,0,62,n,2.976765200000955,None,62,0,62,0,307.39657050000096,,,,,,,,,,,,,,,,,,,,,,,,,,,,,,,,,,,,,,,,,,,,,,,,,,307.3803324000037,307.39657050000096,307.8965215000062,307.8800013,307.8849476000032,307.8965215000062,307.8965215000062,307.8965215000062,310.8801979000127,Foils\049a.jpg,none,n,2.976765200000955,None,,,,,,,,00024,001,2025-11-09_19h14.07.408,MST_test,2024.2.2,59.95308071945958,2025-11-09 19h14.18.903510 +0530,
63,0,63,s,2.6505410999961896,None,63,0,63,0,310.89648700000544,,,,,,,,,,,,,,,,,,,,,,,,,,,,,,,,,,,,,,,,,,,,,,,,,,310.8802868000057,310.89648700000544,311.3964388000022,311.3799691000022,311.3818641000107,311.3964388000022,311.3964388000022,311.3964388000022,314.06346880001365,Objects\086a.jpg,mid,s,2.6505410999961896,None,,,,,,,,00024,001,2025-11-09_19h14.07.408,MST_test,2024.2.2,59.95308071945958,2025-11-09 19h14.18.903510 +0530,
64,0,64,s,2.4615897000039695,None,64,0,64,0,314.0797456,,,,,,,,,,,,,,,,,,,,,,,,,,,,,,,,,,,,,,,,,,,,,,,,,,314.0635602000111,314.0797456,314.57974540001305,314.56325859999924,314.5655556000129,314.57974540001305,314.57974540001305,314.57974540001305,317.0466532000137,Foils\010a.jpg,none,s,2.4615897000039695,None,,,,,,,,00024,001,2025-11-09_19h14.07.408,MST_test,2024.2.2,59.95308071945958,2025-11-09 19h14.18.903510 +0530,
65,0,65,s,1.7031290000013541,None,65,0,65,0,317.06302549999964,,,,,,,,,,,,,,,,,,,,,,,,,,,,,,,,,,,,,,,,,,,,,,,,,,317.04674270001124,317.06302549999964,317.5796415000077,317.5465128000069,317.56304570000793,317.5796415000077,317.5796415000077,317.5796415000077,319.29664060000505,Objects\120b.jpg,mid,s,1.7031290000013541,None,,,,,,,,00024,001,2025-11-09_19h14.07.408,MST_test,2024.2.2,59.95308071945958,2025-11-09 19h14.18.903510 +0530,
66,0,66,n,4.3420443999930285,None,66,0,66,0,319.31297579999955,,,,,,,,,,,,,,,,,,,,,,,,,,,,,,,,,,,,,,,,,,,,,,,,,,319.2967157000094,319.31297579999955,319.8129853999999,319.796422600004,319.80413640000916,319.8129853999999,319.8129853999999,319.8129853999999,324.1631613000063,Objects\282b.jpg,pre,n,4.3420443999930285,None,,,,,,,,00024,001,2025-11-09_19h14.07.408,MST_test,2024.2.2,59.95308071945958,2025-11-09 19h14.18.903510 +0530,
67,0,67,n,2.465404499991564,None,67,0,67,0,324.1795001000137,,,,,,,,,,,,,,,,,,,,,,,,,,,,,,,,,,,,,,,,,,,,,,,,,,324.16324530000566,324.1795001000137,324.6794835000037,324.6630961000046,324.6651889000059,324.6794835000037,324.6794835000037,324.6794835000037,327.14653910000925,Foils\097a.jpg,none,n,2.465404499991564,None,,,,,,,,00024,001,2025-11-09_19h14.07.408,MST_test,2024.2.2,59.95308071945958,2025-11-09 19h14.18.903510 +0530,
68,0,68,o,1.8697085000021616,None,68,0,68,0,327.1628258000128,,,,,,,,,,,,,,,,,,,,,,,,,,,,,,,,,,,,,,,,,,,,,,,,,,327.14662600000156,327.1628258000128,327.66274930001236,327.64635490000364,327.64862260001246,327.66274930001236,327.66274930001236,327.66274930001236,329.5463177000056,Objects\145a.jpg,pre,o,1.8697085000021616,None,,,,,,,,00024,001,2025-11-09_19h14.07.408,MST_test,2024.2.2,59.95308071945958,2025-11-09 19h14.18.903510 +0530,
69,0,69,o,1.3444665999995777,None,69,0,69,0,329.56274680000206,,,,,,,,,,,,,,,,,,,,,,,,,,,,,,,,,,,,,,,,,,,,,,,,,,329.54640000000654,329.56274680000206,330.0626997000072,330.0463729000039,330.0511094000103,330.0626997000072,330.0626997000072,330.0626997000072,331.4130356000096,Objects\275a.jpg,mid,o,1.3444665999995777,None,,,,,,,,00024,001,2025-11-09_19h14.07.408,MST_test,2024.2.2,59.95308071945958,2025-11-09 19h14.18.903510 +0530,
70,0,70,o,1.4820095999893965,None,70,0,70,0,331.42937070000335,,,,,,,,,,,,,,,,,,,,,,,,,,,,,,,,,,,,,,,,,,,,,,,,,,331.41311370000767,331.42937070000335,331.9626743000117,331.9129243000061,331.9178996000119,331.9626743000117,331.9626743000117,331.9626743000117,333.44641330000013,Objects\252a.jpg,post,o,1.4820095999893965,None,,,,,,,,00024,001,2025-11-09_19h14.07.408,MST_test,2024.2.2,59.95308071945958,2025-11-09 19h14.18.903510 +0530,
71,0,71,o,1.0685688000085065,None,71,0,71,0,333.4626643000083,,,,,,,,,,,,,,,,,,,,,,,,,,,,,,,,,,,,,,,,,,,,,,,,,,333.4465029999992,333.4626643000083,333.9626191000134,333.94627860000764,333.9484354000015,333.9626191000134,333.9626191000134,333.9626191000134,335.0464200000133,Objects\164a.jpg,post,o,1.0685688000085065,None,,,,,,,,00024,001,2025-11-09_19h14.07.408,MST_test,2024.2.2,59.95308071945958,2025-11-09 19h14.18.903510 +0530,
72,0,72,n,1.9039939000067534,None,72,0,72,0,335.06275260000257,,,,,,,,,,,,,,,,,,,,,,,,,,,,,,,,,,,,,,,,,,,,,,,,,,335.04652600000554,335.06275260000257,335.5625776000088,335.5461429999996,335.54834459999984,335.5625776000088,335.5625776000088,335.5625776000088,337.4796117000078,Foils\082a.jpg,none,n,1.9039939000067534,None,,,,,,,,00024,001,2025-11-09_19h14.07.408,MST_test,2024.2.2,59.95308071945958,2025-11-09 19h14.18.903510 +0530,
73,0,73,o,3.8750484000047436,None,73,0,73,0,337.49591019999934,,,,,,,,,,,,,,,,,,,,,,,,,,,,,,,,,,,,,,,,,,,,,,,,,,337.47969180000655,337.49591019999934,337.99589130000095,337.9794835000066,337.9818512000056,337.99589130000095,337.99589130000095,337.99589130000095,341.8796050000092,Objects\024a.jpg,pre,o,3.8750484000047436,None,,,,,,,,00024,001,2025-11-09_19h14.07.408,MST_test,2024.2.2,59.95308071945958,2025-11-09 19h14.18.903510 +0530,
74,0,74,o,0.9327384000062011,None,74,0,74,0,341.8958560000028,,,,,,,,,,,,,,,,,,,,,,,,,,,,,,,,,,,,,,,,,,,,,,,,,,341.87969560000056,341.8958560000028,342.39577480001026,342.37937460000103,342.3816567000031,342.39577480001026,342.39577480001026,342.39577480001026,343.3294174000039,Objects\180b.jpg,mid,o,0.9327384000062011,None,,,,,,,,00024,001,2025-11-09_19h14.07.408,MST_test,2024.2.2,59.95308071945958,2025-11-09 19h14.18.903510 +0530,
75,0,75,o,0.9370358000014676,None,75,0,75,0,343.3457805000071,,,,,,,,,,,,,,,,,,,,,,,,,,,,,,,,,,,,,,,,,,,,,,,,,,343.3295039000077,343.3457805000071,343.84573700001056,343.8293219000043,343.83433520000835,343.84573700001056,343.84573700001056,343.84573700001056,344.79607060000126,Objects\213a.jpg,post,o,0.9370358000014676,None,,,,,,,,00024,001,2025-11-09_19h14.07.408,MST_test,2024.2.2,59.95308071945958,2025-11-09 19h14.18.903510 +0530,
76,0,76,o,1.2100318000011612,None,76,0,76,0,344.8123842000059,,,,,,,,,,,,,,,,,,,,,,,,,,,,,,,,,,,,,,,,,,,,,,,,,,344.7961498000077,344.8123842000059,345.3123682000005,345.29605340000126,345.30081930001325,345.3123682000005,345.3123682000005,345.3123682000005,346.5293631000095,Objects\003a.jpg,pre,o,1.2100318000011612,None,,,,,,,,00024,001,2025-11-09_19h14.07.408,MST_test,2024.2.2,59.95308071945958,2025-11-09 19h14.18.903510 +0530,
77,0,77,o,3.662076900000102,None,77,0,77,0,346.54572590001044,,,,,,,,,,,,,,,,,,,,,,,,,,,,,,,,,,,,,,,,,,,,,,,,,,346.52944120000757,346.54572590001044,347.0623278999992,347.0292530000006,347.05205399999977,347.0623278999992,347.0623278999992,347.0623278999992,350.72934210000676,Objects\189b.jpg,mid,o,3.662076900000102,None,,,,,,,,00024,001,2025-11-09_19h14.07.408,MST_test,2024.2.2,59.95308071945958,2025-11-09 19h14.18.903510 +0530,
78,0,78,n,3.952545599997393,None,78,0,78,0,350.74561900000845,,,,,,,,,,,,,,,,,,,,,,,,,,,,,,,,,,,,,,,,,,,,,,,,,,350.72943260001193,350.74561900000845,351.2456123000011,351.22917230000894,351.23124140000436,351.2456123000011,351.2456123000011,351.2456123000011,355.2126150000113,Foils\106a.jpg,none,n,3.952545599997393,None,,,,,,,,00024,001,2025-11-09_19h14.07.408,MST_test,2024.2.2,59.95308071945958,2025-11-09 19h14.18.903510 +0530,
79,0,79,s,1.4776994999992894,None,79,0,79,0,355.2288259000052,,,,,,,,,,,,,,,,,,,,,,,,,,,,,,,,,,,,,,,,,,,,,,,,,,355.2127032000135,355.2288259000052,355.7288172000117,355.7124184000131,355.71476919999986,355.7288172000117,355.7288172000117,355.7288172000117,357.21254630001204,Objects\228a.jpg,pre,s,1.4776994999992894,None,,,,,,,,00024,001,2025-11-09_19h14.07.408,MST_test,2024.2.2,59.95308071945958,2025-11-09 19h14.18.903510 +0530,
80,0,80,n,2.664112699989346,None,80,0,80,0,357.2288174999994,,,,,,,,,,,,,,,,,,,,,,,,,,,,,,,,,,,,,,,,,,,,,,,,,,357.21263420001196,357.2288174999994,357.7287670000078,357.7123152000131,357.71429360000184,357.7287670000078,357.7287670000078,357.7287670000078,360.3957255999994,Foils\066a.jpg,none,n,2.664112699989346,None,,,,,,,,00024,001,2025-11-09_19h14.07.408,MST_test,2024.2.2,59.95308071945958,2025-11-09 19h14.18.903510 +0530,
81,0,81,s,1.3619140999944648,None,81,0,81,0,360.41208170000755,,,,,,,,,,,,,,,,,,,,,,,,,,,,,,,,,,,,,,,,,,,,,,,,,,360.39580600000045,360.41208170000755,360.9287359000009,360.89570110000204,360.9115074000001,360.9287359000009,360.9287359000009,360.9287359000009,362.2957989000133,Objects\026b.jpg,pre,s,1.3619140999944648,None,,,,,,,,00024,001,2025-11-09_19h14.07.408,MST_test,2024.2.2,59.95308071945958,2025-11-09 19h14.18.903510 +0530,
82,0,82,o,2.973774800004321,None,82,0,82,0,362.31201750000764,,,,,,,,,,,,,,,,,,,,,,,,,,,,,,,,,,,,,,,,,,,,,,,,,,362.2959467000037,362.31201750000764,362.8119934999995,362.7955484000122,362.7976454000018,362.8119934999995,362.8119934999995,362.8119934999995,365.7956566000066,Objects\143a.jpg,mid,o,2.973774800004321,None,,,,,,,,00024,001,2025-11-09_19h14.07.408,MST_test,2024.2.2,59.95308071945958,2025-11-09 19h14.18.903510 +0530,
83,0,83,s,1.3459910999954445,None,83,0,83,0,365.8119430000079,,,,,,,,,,,,,,,,,,,,,,,,,,,,,,,,,,,,,,,,,,,,,,,,,,365.7957396000129,365.8119430000079,366.3119175000029,366.29544700001134,366.3035388999997,366.3119175000029,366.3119175000029,366.3119175000029,367.66223430000537,Objects\274b.jpg,post,s,1.3459910999954445,None,,,,,,,,00024,001,2025-11-09_19h14.07.408,MST_test,2024.2.2,59.95308071945958,2025-11-09 19h14.18.903510 +0530,
84,0,84,o,2.112674900010461,None,84,0,84,0,367.6785779000056,,,,,,,,,,,,,,,,,,,,,,,,,,,,,,,,,,,,,,,,,,,,,,,,,,367.66230920000817,367.6785779000056,368.1785982000001,368.1622114000056,368.1674379000033,368.1785982000001,368.1785982000001,368.1785982000001,370.2955088000017,Objects\322a.jpg,post,o,2.112674900010461,None,,,,,,,,00024,001,2025-11-09_19h14.07.408,MST_test,2024.2.2,59.95308071945958,2025-11-09 19h14.18.903510 +0530,
85,0,85,s,1.57013089999964,None,85,0,85,0,370.3119360000128,,,,,,,,,,,,,,,,,,,,,,,,,,,,,,,,,,,,,,,,,,,,,,,,,,370.29559270000027,370.3119360000128,370.81191790000594,370.7954402000032,370.80048380000517,370.81191790000594,370.81191790000594,370.81191790000594,372.39557970000897,Objects\048a.jpg,pre,s,1.57013089999964,None,,,,,,,,00024,001,2025-11-09_19h14.07.408,MST_test,2024.2.2,59.95308071945958,2025-11-09 19h14.18.903510 +0530,
86,0,86,n,2.4808864000078756,None,86,0,86,0,372.41194130000076,,,,,,,,,,,,,,,,,,,,,,,,,,,,,,,,,,,,,,,,,,,,,,,,,,372.3956613000046,372.41194130000076,372.91179209999973,372.8954565000022,372.8975247000053,372.91179209999973,372.91179209999973,372.91179209999973,375.3955038999993,Foils\113a.jpg,none,n,2.4808864000078756,None,,,,,,,,00024,001,2025-11-09_19h14.07.408,MST_test,2024.2.2,59.95308071945958,2025-11-09 19h14.18.903510 +0530,
87,0,87,n,0.8150890999968396,None,87,0,87,0,375.4118443000043,,,,,,,,,,,,,,,,,,,,,,,,,,,,,,,,,,,,,,,,,,,,,,,,,,375.39558220001345,375.4118443000043,375.9118082000059,375.89538320001157,375.8978275000118,375.9118082000059,375.9118082000059,375.9118082000059,376.72875270000077,Foils\009a.jpg,none,n,0.8150890999968396,None,,,,,,,,00024,001,2025-11-09_19h14.07.408,MST_test,2024.2.2,59.95308071945958,2025-11-09 19h14.18.903510 +0530,
88,0,88,s,1.1838770000031218,None,88,0,88,0,376.74515440000687,,,,,,,,,,,,,,,,,,,,,,,,,,,,,,,,,,,,,,,,,,,,,,,,,,376.72882840000966,376.74515440000687,377.2451010000077,377.22862390000955,377.23707580000337,377.2451010000077,377.2451010000077,377.2451010000077,378.44530370000575,Objects\018b.jpg,pre,s,1.1838770000031218,None,,,,,,,,00024,001,2025-11-09_19h14.07.408,MST_test,2024.2.2,59.95308071945958,2025-11-09 19h14.18.903510 +0530,
89,0,89,n,2.2838482999941334,None,89,0,89,0,378.4616948000039,,,,,,,,,,,,,,,,,,,,,,,,,,,,,,,,,,,,,,,,,,,,,,,,,,378.44539110000187,378.4616948000039,378.9617387000035,378.94527390001167,378.94733370000904,378.9617387000035,378.9617387000035,378.9617387000035,381.26196340000024,Foils\121a.jpg,none,n,2.2838482999941334,None,,,,,,,,00024,001,2025-11-09_19h14.07.408,MST_test,2024.2.2,59.95308071945958,2025-11-09 19h14.18.903510 +0530,
90,0,90,o,6.5186794999899575,None,90,0,90,0,381.2783599000104,,,,,,,,,,,,,,,,,,,,,,,,,,,,,,,,,,,,,,,,,,,,,,,,,,381.26204680000956,381.2783599000104,381.7783337000001,381.76183230000606,381.7637853000051,381.7783337000001,381.7783337000001,381.7783337000001,388.31191350000154,Objects\021a.jpg,post,o,6.5186794999899575,None,,,,,,,,00024,001,2025-11-09_19h14.07.408,MST_test,2024.2.2,59.95308071945958,2025-11-09 19h14.18.903510 +0530,
91,0,91,s,6.276612400004524,None,91,0,91,0,388.32814209999924,,,,,,,,,,,,,,,,,,,,,,,,,,,,,,,,,,,,,,,,,,,,,,,,,,388.31200170000375,388.32814209999924,388.8447776000103,388.8117045000108,388.83550470000773,388.8447776000103,388.8447776000103,388.8447776000103,395.1283581000025,Objects\152b.jpg,mid,s,6.276612400004524,None,,,,,,,,00024,001,2025-11-09_19h14.07.408,MST_test,2024.2.2,59.95308071945958,2025-11-09 19h14.18.903510 +0530,
92,0,92,s,2.7414298000076087,None,92,0,92,0,395.14478580000286,,,,,,,,,,,,,,,,,,,,,,,,,,,,,,,,,,,,,,,,,,,,,,,,,,395.12843480000447,395.14478580000286,395.6613745000068,395.6282332000119,395.65417810001236,395.6613745000068,395.6613745000068,395.6613745000068,398.4116434000025,Objects\339b.jpg,post,s,2.7414298000076087,None,,,,,,,,00024,001,2025-11-09_19h14.07.408,MST_test,2024.2.2,59.95308071945958,2025-11-09 19h14.18.903510 +0530,
93,0,93,s,7.1965995999926236,None,93,0,93,0,398.4282114000089,,,,,,,,,,,,,,,,,,,,,,,,,,,,,,,,,,,,,,,,,,,,,,,,,,398.4117338000069,398.4282114000089,398.92796450000606,398.91150950000156,398.916701500013,398.92796450000606,398.92796450000606,398.92796450000606,406.12812040001154,Objects\184a.jpg,pre,s,7.1965995999926236,None,,,,,,,,00024,001,2025-11-09_19h14.07.408,MST_test,2024.2.2,59.95308071945958,2025-11-09 19h14.18.903510 +0530,
94,0,94,s,1.2464941999933217,None,94,0,94,0,406.1444266000035,,,,,,,,,,,,,,,,,,,,,,,,,,,,,,,,,,,,,,,,,,,,,,,,,,406.12821070000064,406.1444266000035,406.64438360001077,406.62791510000534,406.63300430000527,406.64438360001077,406.64438360001077,406.64438360001077,407.89477360001183,Objects\346a.jpg,mid,s,1.2464941999933217,None,,,,,,,,00024,001,2025-11-09_19h14.07.408,MST_test,2024.2.2,59.95308071945958,2025-11-09 19h14.18.903510 +0530,
95,0,95,s,2.411897099998896,None,95,0,95,0,407.9110636000114,,,,,,,,,,,,,,,,,,,,,,,,,,,,,,,,,,,,,,,,,,,,,,,,,,407.89485609999974,407.9110636000114,408.41103290001047,408.3945078000106,408.3992350000044,408.41103290001047,408.41103290001047,408.41103290001047,410.82799850001174,Objects\211b.jpg,post,s,2.411897099998896,None,,,,,,,,00024,001,2025-11-09_19h14.07.408,MST_test,2024.2.2,59.95308071945958,2025-11-09 19h14.18.903510 +0530,
96,0,96,s,2.276376200010418,None,96,0,96,0,410.84432540000125,,,,,,,,,,,,,,,,,,,,,,,,,,,,,,,,,,,,,,,,,,,,,,,,,,410.82808180000575,410.84432540000125,411.34431170001335,411.32779850000225,411.332304200012,411.34431170001335,411.34431170001335,411.34431170001335,413.6279471000016,Objects\277b.jpg,mid,s,2.276376200010418,None,,,,,,,,00024,001,2025-11-09_19h14.07.408,MST_test,2024.2.2,59.95308071945958,2025-11-09 19h14.18.903510 +0530,
97,0,97,o,2.896827899996424,None,97,0,97,0,413.64425640000263,,,,,,,,,,,,,,,,,,,,,,,,,,,,,,,,,,,,,,,,,,,,,,,,,,413.62802190000366,413.64425640000263,414.14424660000077,414.1279041000089,414.13243950001197,414.14424660000077,414.14424660000077,414.14424660000077,417.04456950000895,Objects\250a.jpg,pre,o,2.896827899996424,None,,,,,,,,00024,001,2025-11-09_19h14.07.408,MST_test,2024.2.2,59.95308071945958,2025-11-09 19h14.18.903510 +0530,
98,0,98,s,1.0466181999945547,None,98,0,98,0,417.0608491000021,,,,,,,,,,,,,,,,,,,,,,,,,,,,,,,,,,,,,,,,,,,,,,,,,,417.04465619999974,417.0608491000021,417.57749710000644,417.54441130001214,417.5565980000101,417.57749710000644,417.57749710000644,417.57749710000644,418.62786260001303,Objects\230b.jpg,mid,s,1.0466181999945547,None,,,,,,,,00024,001,2025-11-09_19h14.07.408,MST_test,2024.2.2,59.95308071945958,2025-11-09 19h14.18.903510 +0530,
99,0,99,o,1.5389662999950815,None,99,0,99,0,418.64415340000414,,,,,,,,,,,,,,,,,,,,,,,,,,,,,,,,,,,,,,,,,,,,,,,,,,418.6279445000109,418.64415340000414,419.1441189000034,419.12768490001326,419.13221630000044,419.1441189000034,419.1441189000034,419.1441189000034,420.694461600011,Objects\362a.jpg,post,o,1.5389662999950815,None,,,,,,,,00024,001,2025-11-09_19h14.07.408,MST_test,2024.2.2,59.95308071945958,2025-11-09 19h14.18.903510 +0530,
100,0,100,s,1.2269771999999648,None,100,0,100,0,420.7107723000081,,,,,,,,,,,,,,,,,,,,,,,,,,,,,,,,,,,,,,,,,,,,,,,,,,420.6945526000054,420.7107723000081,421.2273955000128,421.19431330000225,421.2140447000129,421.2273955000128,421.2273955000128,421.2273955000128,422.46106800000416,Objects\061b.jpg,post,s,1.2269771999999648,None,,,,,,,,00024,001,2025-11-09_19h14.07.408,MST_test,2024.2.2,59.95308071945958,2025-11-09 19h14.18.903510 +0530,
101,0,101,s,4.089891499999794,None,101,0,101,0,422.4774061000062,,,,,,,,,,,,,,,,,,,,,,,,,,,,,,,,,,,,,,,,,,,,,,,,,,422.461152200005,422.4774061000062,422.9774127000128,422.96083999999973,422.9686090000032,422.9774127000128,422.9774127000128,422.9774127000128,427.077655400004,Objects\114b.jpg,pre,s,4.089891499999794,None,,,,,,,,00024,001,2025-11-09_19h14.07.408,MST_test,2024.2.2,59.95308071945958,2025-11-09 19h14.18.903510 +0530,
102,0,102,s,1.2221318000083556,None,102,0,102,0,427.09396100000595,,,,,,,,,,,,,,,,,,,,,,,,,,,,,,,,,,,,,,,,,,,,,,,,,,427.07774450001307,427.09396100000595,427.61072270000295,427.57755870000983,427.59653160000744,427.61072270000295,427.61072270000295,427.61072270000295,428.8442669000069,Objects\068b.jpg,pre,s,1.2221318000083556,None,,,,,,,,00024,001,2025-11-09_19h14.07.408,MST_test,2024.2.2,59.95308071945958,2025-11-09 19h14.18.903510 +0530,
103,0,103,s,1.37767580000218,None,103,0,103,0,428.8605816000054,,,,,,,,,,,,,,,,,,,,,,,,,,,,,,,,,,,,,,,,,,,,,,,,,,428.84435330000997,428.8605816000054,429.36123020001105,429.34431070000574,429.3463816000003,429.36123020001105,429.36123020001105,429.36123020001105,430.7442985000089,Objects\124a.jpg,pre,s,1.37767580000218,None,,,,,,,,00024,001,2025-11-09_19h14.07.408,MST_test,2024.2.2,59.95308071945958,2025-11-09 19h14.18.903510 +0530,
104,0,104,s,0.9261330000008456,None,104,0,104,0,430.7606104000006,,,,,,,,,,,,,,,,,,,,,,,,,,,,,,,,,,,,,,,,,,,,,,,,,,430.74438160000136,430.7606104000006,431.2606666000065,431.24407460000657,431.2482572000008,431.2606666000065,431.2606666000065,431.2606666000065,432.19420230000105,Objects\194a.jpg,post,s,0.9261330000008456,None,,,,,,,,00024,001,2025-11-09_19h14.07.408,MST_test,2024.2.2,59.95308071945958,2025-11-09 19h14.18.903510 +0530,
105,0,105,s,1.4051035000011325,None,105,0,105,0,432.21061540000665,,,,,,,,,,,,,,,,,,,,,,,,,,,,,,,,,,,,,,,,,,,,,,,,,,432.1942754000047,432.21061540000665,432.7105745000008,432.69411340000806,432.69913480000105,432.7105745000008,432.7105745000008,432.7105745000008,434.12770029999956,Objects\116b.jpg,mid,s,1.4051035000011325,None,,,,,,,,00024,001,2025-11-09_19h14.07.408,MST_test,2024.2.2,59.95308071945958,2025-11-09 19h14.18.903510 +0530,
106,0,106,s,1.4228233999892836,None,106,0,106,0,434.14390410001215,,,,,,,,,,,,,,,,,,,,,,,,,,,,,,,,,,,,,,,,,,,,,,,,,,434.1277784000122,434.14390410001215,434.6604750000115,434.62735200001043,434.65458830000716,434.6604750000115,434.6604750000115,434.6604750000115,436.09413610000047,Objects\324b.jpg,post,s,1.4228233999892836,None,,,,,,,,00024,001,2025-11-09_19h14.07.408,MST_test,2024.2.2,59.95308071945958,2025-11-09 19h14.18.903510 +0530,
107,0,107,s,5.012592599989148,None,107,0,107,0,436.11056310001004,,,,,,,,,,,,,,,,,,,,,,,,,,,,,,,,,,,,,,,,,,,,,,,,,,436.0942123999994,436.11056310001004,436.61048400000436,436.59398160000273,436.5988117000088,436.61048400000436,436.61048400000436,436.61048400000436,441.62738560000435,Foils\042a.jpg,none,s,5.012592599989148,None,,,,,,,,00024,001,2025-11-09_19h14.07.408,MST_test,2024.2.2,59.95308071945958,2025-11-09 19h14.18.903510 +0530,
108,0,108,s,0.8081702000054065,None,108,0,108,0,441.6437378000119,,,,,,,,,,,,,,,,,,,,,,,,,,,,,,,,,,,,,,,,,,,,,,,,,,441.6274678000045,441.6437378000119,442.1436967000045,442.1271979000012,442.1290943000058,442.1436967000045,442.1436967000045,442.1436967000045,442.960753700012,Objects\190a.jpg,pre,s,0.8081702000054065,None,,,,,,,,00024,001,2025-11-09_19h14.07.408,MST_test,2024.2.2,59.95308071945958,2025-11-09 19h14.18.903510 +0530,
109,0,109,n,5.441585699998541,None,109,0,109,0,442.9770372000057,,,,,,,,,,,,,,,,,,,,,,,,,,,,,,,,,,,,,,,,,,,,,,,,,,442.9608324000001,442.9770372000057,443.4769953000068,443.4606487000128,443.463587700011,443.4769953000068,443.4769953000068,443.4769953000068,448.9272125999996,Foils\f6.jpg,none,n,5.441585699998541,None,,,,,,,,00024,001,2025-11-09_19h14.07.408,MST_test,2024.2.2,59.95308071945958,2025-11-09 19h14.18.903510 +0530,
110,0,110,s,2.7491527999954997,None,110,0,110,0,448.94360430000233,,,,,,,,,,,,,,,,,,,,,,,,,,,,,,,,,,,,,,,,,,,,,,,,,,448.92729230000987,448.94360430000233,449.4435394000029,449.42703060001077,449.4322033000062,449.4435394000029,449.4435394000029,449.4435394000029,452.1937057000032,Objects\084b.jpg,pre,s,2.7491527999954997,None,,,,,,,,00024,001,2025-11-09_19h14.07.408,MST_test,2024.2.2,59.95308071945958,2025-11-09 19h14.18.903510 +0530,
111,0,111,o,3.0628094999992754,None,111,0,111,0,452.2102048000088,,,,,,,,,,,,,,,,,,,,,,,,,,,,,,,,,,,,,,,,,,,,,,,,,,452.1937831000105,452.2102048000088,452.71015080000507,452.69373570001335,452.69590930000413,452.71015080000507,452.71015080000507,452.71015080000507,455.7771012000012,Objects\008a.jpg,pre,o,3.0628094999992754,None,,,,,,,,00024,001,2025-11-09_19h14.07.408,MST_test,2024.2.2,59.95308071945958,2025-11-09 19h14.18.903510 +0530,
112,0,112,s,5.443566899994039,None,112,0,112,0,455.7933939000068,,,,,,,,,,,,,,,,,,,,,,,,,,,,,,,,,,,,,,,,,,,,,,,,,,455.77719780000916,455.7933939000068,456.29342370000086,456.2768872000015,456.2790478000097,456.29342370000086,456.29342370000086,456.29342370000086,461.74368920001143,Objects\019a.jpg,post,s,5.443566899994039,None,,,,,,,,00024,001,2025-11-09_19h14.07.408,MST_test,2024.2.2,59.95308071945958,2025-11-09 19h14.18.903510 +0530,
113,0,113,n,1.4176911000104155,None,113,0,113,0,461.76000660000136,,,,,,,,,,,,,,,,,,,,,,,,,,,,,,,,,,,,,,,,,,,,,,,,,,461.7437812999997,461.76000660000136,462.25993369999924,462.2434415000025,462.24555130000226,462.25993369999924,462.25993369999924,462.25993369999924,463.69374320001225,Foils\033a.jpg,none,n,1.4176911000104155,None,,,,,,,,00024,001,2025-11-09_19h14.07.408,MST_test,2024.2.2,59.95308071945958,2025-11-09 19h14.18.903510 +0530,
114,0,114,s,6.91331230000651,None,114,0,114,0,463.7099070000113,,,,,,,,,,,,,,,,,,,,,,,,,,,,,,,,,,,,,,,,,,,,,,,,,,463.69383180000295,463.7099070000113,464.209886800003,464.1933953000116,464.19855890001054,464.209886800003,464.209886800003,464.209886800003,471.12683240001206,Objects\315b.jpg,mid,s,6.91331230000651,None,,,,,,,,00024,001,2025-11-09_19h14.07.408,MST_test,2024.2.2,59.95308071945958,2025-11-09 19h14.18.903510 +0530,
115,0,115,s,2.4757271999988006,None,115,0,115,0,471.1431021000026,,,,,,,,,,,,,,,,,,,,,,,,,,,,,,,,,,,,,,,,,,,,,,,,,,471.12692629999947,471.1431021000026,471.6431261000107,471.62679190000927,471.6318472999992,471.6431261000107,471.6431261000107,471.6431261000107,474.1269241000118,Objects\165b.jpg,post,s,2.4757271999988006,None,,,,,,,,00024,001,2025-11-09_19h14.07.408,MST_test,2024.2.2,59.95308071945958,2025-11-09 19h14.18.903510 +0530,
116,0,116,s,1.4605372000078205,None,116,0,116,0,474.14303800000926,,,,,,,,,,,,,,,,,,,,,,,,,,,,,,,,,,,,,,,,,,,,,,,,,,474.1270011000015,474.14303800000926,474.64261540000734,474.62649450000026,474.6362369000126,474.64261540000734,474.64261540000734,474.64261540000734,476.1099462000129,Objects\158b.jpg,post,s,1.4605372000078205,None,,,,,,,,00024,001,2025-11-09_19h14.07.408,MST_test,2024.2.2,59.95308071945958,2025-11-09 19h14.18.903510 +0530,
117,0,117,n,7.81301070000336,None,117,0,117,0,476.12630600000557,,,,,,,,,,,,,,,,,,,,,,,,,,,,,,,,,,,,,,,,,,,,,,,,,,476.11003190001065,476.12630600000557,476.62631330000295,476.6098495000042,476.6123573000077,476.62631330000295,476.62631330000295,476.62631330000295,484.44305640000675,Foils\105a.jpg,none,n,7.81301070000336,None,,,,,,,,00024,001,2025-11-09_19h14.07.408,MST_test,2024.2.2,59.95308071945958,2025-11-09 19h14.18.903510 +0530,
118,0,118,o,1.215503200000967,None,118,0,118,0,484.45948090001184,,,,,,,,,,,,,,,,,,,,,,,,,,,,,,,,,,,,,,,,,,,,,,,,,,484.4431348000071,484.45948090001184,484.9594608000043,484.94299560000945,484.9447799000045,484.9594608000043,484.9594608000043,484.9594608000043,486.1764019000111,Objects\380a.jpg,post,o,1.215503200000967,None,,,,,,,,00024,001,2025-11-09_19h14.07.408,MST_test,2024.2.2,59.95308071945958,2025-11-09 19h14.18.903510 +0530,
119,0,119,o,1.1215031999890925,None,119,0,119,0,486.19277050001256,,,,,,,,,,,,,,,,,,,,,,,,,,,,,,,,,,,,,,,,,,,,,,,,,,486.1764791000023,486.19277050001256,486.69272860001365,486.6763217000116,486.6812604000006,486.69272860001365,486.69272860001365,486.69272860001365,487.8264053000021,Objects\207a.jpg,pre,o,1.1215031999890925,None,,,,,,,,00024,001,2025-11-09_19h14.07.408,MST_test,2024.2.2,59.95308071945958,2025-11-09 19h14.18.903510 +0530,
120,0,120,o,1.262651500001084,None,120,0,120,0,487.8427146000031,,,,,,,,,,,,,,,,,,,,,,,,,,,,,,,,,,,,,,,,,,,,,,,,,,487.8264916000044,487.8427146000031,488.3427013000037,488.32622470000933,488.33142320001207,488.3427013000037,488.3427013000037,488.3427013000037,489.60974720001104,Objects\016a.jpg,mid,o,1.262651500001084,None,,,,,,,,00024,001,2025-11-09_19h14.07.408,MST_test,2024.2.2,59.95308071945958,2025-11-09 19h14.18.903510 +0530,
121,0,121,n,1.3982840000098804,None,121,0,121,0,489.62603460000537,,,,,,,,,,,,,,,,,,,,,,,,,,,,,,,,,,,,,,,,,,,,,,,,,,489.60982830000285,489.62603460000537,490.1260001000046,490.10969530000875,490.1181287000072,490.1260001000046,490.1260001000046,490.1260001000046,491.52632730000187,Objects\134b.jpg,mid,n,1.3982840000098804,None,,,,,,,,00024,001,2025-11-09_19h14.07.408,MST_test,2024.2.2,59.95308071945958,2025-11-09 19h14.18.903510 +0530,
122,0,122,s,1.230329600002733,None,122,0,122,0,491.54262750000635,,,,,,,,,,,,,,,,,,,,,,,,,,,,,,,,,,,,,,,,,,,,,,,,,,491.52640110001084,491.54262750000635,492.0592858000018,492.0261116000038,492.0514050000056,492.0592858000018,492.0592858000018,492.0592858000018,493.2930483000091,Objects\359b.jpg,mid,s,1.230329600002733,None,,,,,,,,00024,001,2025-11-09_19h14.07.408,MST_test,2024.2.2,59.95308071945958,2025-11-09 19h14.18.903510 +0530,
123,0,123,s,1.610839799992391,None,123,0,123,0,493.3092828000081,,,,,,,,,,,,,,,,,,,,,,,,,,,,,,,,,,,,,,,,,,,,,,,,,,493.2931333000015,493.3092828000081,493.8092452000128,493.7927647000033,493.80335880001076,493.8092452000128,493.8092452000128,493.8092452000128,495.42629440000746,Objects\206b.jpg,pre,s,1.610839799992391,None,,,,,,,,00024,001,2025-11-09_19h14.07.408,MST_test,2024.2.2,59.95308071945958,2025-11-09 19h14.18.903510 +0530,
124,0,124,s,1.1632229999959236,None,124,0,124,0,495.4426045,,,,,,,,,,,,,,,,,,,,,,,,,,,,,,,,,,,,,,,,,,,,,,,,,,495.4263815000013,495.4426045,495.9594747000083,495.9260304000054,495.9388457000023,495.9594747000083,495.9594747000083,495.9594747000083,497.12627970000904,Objects\303b.jpg,mid,s,1.1632229999959236,None,,,,,,,,00024,001,2025-11-09_19h14.07.408,MST_test,2024.2.2,59.95308071945958,2025-11-09 19h14.18.903510 +0530,
125,0,125,s,1.3620100999978604,None,125,0,125,0,497.14253930000996,,,,,,,,,,,,,,,,,,,,,,,,,,,,,,,,,,,,,,,,,,,,,,,,,,497.12637320000795,497.14253930000996,497.65916460000153,497.62603800000215,497.64800320001086,497.65916460000153,497.65916460000153,497.65916460000153,499.0261412000109,Objects\183b.jpg,pre,s,1.3620100999978604,None,,,,,,,,00024,001,2025-11-09_19h14.07.408,MST_test,2024.2.2,59.95308071945958,2025-11-09 19h14.18.903510 +0530,
126,0,126,s,1.779519400006393,None,126,0,126,0,499.0424902000086,,,,,,,,,,,,,,,,,,,,,,,,,,,,,,,,,,,,,,,,,,,,,,,,,,499.0262195000105,499.0424902000086,499.5591232000006,499.52597840000817,499.5469224000117,499.5591232000006,499.5591232000006,499.5591232000006,501.3428961000027,Objects\198b.jpg,pre,s,1.779519400006393,None,,,,,,,,00024,001,2025-11-09_19h14.07.408,MST_test,2024.2.2,59.95308071945958,2025-11-09 19h14.18.903510 +0530,
127,0,127,n,2.8621758999943268,None,127,0,127,0,501.3590884000005,,,,,,,,,,,,,,,,,,,,,,,,,,,,,,,,,,,,,,,,,,,,,,,,,,501.3429929000122,501.3590884000005,501.85909480000555,501.84257590000925,501.84471510000003,501.85909480000555,501.85909480000555,501.85909480000555,504.7260142000014,Foils\034a.jpg,none,n,2.8621758999943268,None,,,,,,,,00024,001,2025-11-09_19h14.07.408,MST_test,2024.2.2,59.95308071945958,2025-11-09 19h14.18.903510 +0530,
128,0,128,s,1.2337221999914618,None,128,0,128,0,504.74237460001314,,,,,,,,,,,,,,,,,,,,,,,,,,,,,,,,,,,,,,,,,,,,,,,,,,504.72610610000265,504.74237460001314,505.2590068000136,505.225886900007,505.2515812000056,505.2590068000136,505.2590068000136,505.2590068000136,506.5092801000137,Objects\234b.jpg,post,s,1.2337221999914618,None,,,,,,,,00024,001,2025-11-09_19h14.07.408,MST_test,2024.2.2,59.95308071945958,2025-11-09 19h14.18.903510 +0530,
129,0,129,o,2.942767399988952,None,129,0,129,0,506.52568650001194,,,,,,,,,,,,,,,,,,,,,,,,,,,,,,,,,,,,,,,,,,,,,,,,,,506.5093590000033,506.52568650001194,507.02562320001016,507.0091276000021,507.0123975000024,507.02562320001016,507.02562320001016,507.02562320001016,509.97602760000154,Objects\326a.jpg,pre,o,2.942767399988952,None,,,,,,,,00024,001,2025-11-09_19h14.07.408,MST_test,2024.2.2,59.95308071945958,2025-11-09 19h14.18.903510 +0530,
130,0,130,s,1.184222600000794,None,130,0,130,0,509.992370500011,,,,,,,,,,,,,,,,,,,,,,,,,,,,,,,,,,,,,,,,,,,,,,,,,,509.9761051000096,509.992370500011,510.49242680000316,510.4757178,510.48639670001285,510.49242680000316,510.49242680000316,510.49242680000316,511.6924929000088,Objects\243b.jpg,post,s,1.184222600000794,None,,,,,,,,00024,001,2025-11-09_19h14.07.408,MST_test,2024.2.2,59.95308071945958,2025-11-09 19h14.18.903510 +0530,
131,0,131,s,1.4603364999929909,None,131,0,131,0,511.70888540000306,,,,,,,,,,,,,,,,,,,,,,,,,,,,,,,,,,,,,,,,,,,,,,,,,,511.6925760000013,511.70888540000306,512.2088474000047,512.1924453000101,512.1974241999997,512.2088474000047,512.2088474000047,512.2088474000047,513.6757862000086,Objects\332a.jpg,post,s,1.4603364999929909,None,,,,,,,,00024,001,2025-11-09_19h14.07.408,MST_test,2024.2.2,59.95308071945958,2025-11-09 19h14.18.903510 +0530,
132,0,132,o,1.2884430999984033,None,132,0,132,0,513.6921599000052,,,,,,,,,,,,,,,,,,,,,,,,,,,,,,,,,,,,,,,,,,,,,,,,,,513.6758671000134,513.6921599000052,514.192166400011,514.1756227000005,514.179464300003,514.192166400011,514.192166400011,514.192166400011,515.4923810000037,Objects\231a.jpg,post,o,1.2884430999984033,None,,,,,,,,00024,001,2025-11-09_19h14.07.408,MST_test,2024.2.2,59.95308071945958,2025-11-09 19h14.18.903510 +0530,
133,0,133,n,2.1559399999969173,None,133,0,133,0,515.5088042000134,,,,,,,,,,,,,,,,,,,,,,,,,,,,,,,,,,,,,,,,,,,,,,,,,,515.492459800007,515.5088042000134,516.0087771000108,515.9922668000072,515.9980633000087,516.0087771000108,516.0087771000108,516.0087771000108,518.1756769000058,Foils\101b.jpg,none,n,2.1559399999969173,None,,,,,,,,00024,001,2025-11-09_19h14.07.408,MST_test,2024.2.2,59.95308071945958,2025-11-09 19h14.18.903510 +0530,
134,0,134,s,2.2688746999920113,None,134,0,134,0,518.1920482999994,,,,,,,,,,,,,,,,,,,,,,,,,,,,,,,,,,,,,,,,,,,,,,,,,,518.1757875000039,518.1920482999994,518.6920612000104,518.6755661000061,518.6776779000065,518.6920612000104,518.6920612000104,518.6920612000104,520.97566370001,Objects\017a.jpg,mid,s,2.2688746999920113,None,,,,,,,,00024,001,2025-11-09_19h14.07.408,MST_test,2024.2.2,59.95308071945958,2025-11-09 19h14.18.903510 +0530,
135,0,135,o,2.361366500001168,None,135,0,135,0,520.99190980001,,,,,,,,,,,,,,,,,,,,,,,,,,,,,,,,,,,,,,,,,,,,,,,,,,520.9757568000059,520.99190980001,521.4919656000129,521.4754527000041,521.4776259000064,521.4919656000129,521.4919656000129,521.4919656000129,523.8589102000115,Objects\192a.jpg,post,o,2.361366500001168,None,,,,,,,,00024,001,2025-11-09_19h14.07.408,MST_test,2024.2.2,59.95308071945958,2025-11-09 19h14.18.903510 +0530,
136,0,136,o,1.3577252999966731,None,136,0,136,0,523.8751928000129,,,,,,,,,,,,,,,,,,,,,,,,,,,,,,,,,,,,,,,,,,,,,,,,,,523.8589866000111,523.8751928000129,524.3751587000006,524.3588119000051,524.3611878000083,524.3751587000006,524.3751587000006,524.3751587000006,525.7422139000118,Objects\042a.jpg,pre,o,1.3577252999966731,None,,,,,,,,00024,001,2025-11-09_19h14.07.408,MST_test,2024.2.2,59.95308071945958,2025-11-09 19h14.18.903510 +0530,
137,0,137,n,2.87085809999553,None,137,0,137,0,525.7584899000067,,,,,,,,,,,,,,,,,,,,,,,,,,,,,,,,,,,,,,,,,,,,,,,,,,525.7423031000071,525.7584899000067,526.2584476000047,526.242115800007,526.2442676000064,526.2584476000047,526.2584476000047,526.2584476000047,529.1421416000085,Foils\050a.jpg,none,n,2.87085809999553,None,,,,,,,,00024,001,2025-11-09_19h14.07.408,MST_test,2024.2.2,59.95308071945958,2025-11-09 19h14.18.903510 +0530,
138,0,138,s,6.534375600007479,None,138,0,138,0,529.1584103000059,,,,,,,,,,,,,,,,,,,,,,,,,,,,,,,,,,,,,,,,,,,,,,,,,,529.1422304000007,529.1584103000059,529.6585131000029,529.6420218999992,529.6516597000009,529.6585131000029,529.6585131000029,529.6585131000029,536.208644000013,Foils\090a.jpg,none,s,6.534375600007479,None,,,,,,,,00024,001,2025-11-09_19h14.07.408,MST_test,2024.2.2,59.95308071945958,2025-11-09 19h14.18.903510 +0530,
139,0,139,n,3.46167860001151,None,139,0,139,0,536.2249002000026,,,,,,,,,,,,,,,,,,,,,,,,,,,,,,,,,,,,,,,,,,,,,,,,,,536.2087279000116,536.2249002000026,536.7415839000023,536.7084933000006,536.7210317999998,536.7415839000023,536.7415839000023,536.7415839000023,540.2085798000044,Objects\200b.jpg,post,n,3.46167860001151,None,,,,,,,,00024,001,2025-11-09_19h14.07.408,MST_test,2024.2.2,59.95308071945958,2025-11-09 19h14.18.903510 +0530,
140,0,140,s,2.8099425999971572,None,140,0,140,0,540.2248152000102,,,,,,,,,,,,,,,,,,,,,,,,,,,,,,,,,,,,,,,,,,,,,,,,,,540.208664500009,540.2248152000102,540.7414647000114,540.7083979000017,540.7303226000076,540.7414647000114,540.7414647000114,540.7414647000114,543.5585327000008,Objects\269b.jpg,pre,s,2.8099425999971572,None,,,,,,,,00024,001,2025-11-09_19h14.07.408,MST_test,2024.2.2,59.95308071945958,2025-11-09 19h14.18.903510 +0530,
141,0,141,n,1.1560285000014119,None,141,0,141,0,543.5747749000002,,,,,,,,,,,,,,,,,,,,,,,,,,,,,,,,,,,,,,,,,,,,,,,,,,543.5586164000124,543.5747749000002,544.0747840000113,544.0583696000103,544.0636257000006,544.0747840000113,544.0747840000113,544.0747840000113,545.2416381000075,Foils\081a.jpg,none,n,1.1560285000014119,None,,,,,,,,00024,001,2025-11-09_19h14.07.408,MST_test,2024.2.2,59.95308071945958,2025-11-09 19h14.18.903510 +0530,
142,0,142,n,1.1111612999957288,None,142,0,142,0,545.2580698000093,,,,,,,,,,,,,,,,,,,,,,,,,,,,,,,,,,,,,,,,,,,,,,,,,,545.2417215000023,545.2580698000093,545.7580345000024,545.7417382000131,545.7439889000088,545.7580345000024,545.7580345000024,545.7580345000024,546.8751067000121,Foils\017a.jpg,none,n,1.1111612999957288,None,,,,,,,,00024,001,2025-11-09_19h14.07.408,MST_test,2024.2.2,59.95308071945958,2025-11-09 19h14.18.903510 +0530,
143,0,143,o,1.011895400006324,None,143,0,143,0,546.8913711000059,,,,,,,,,,,,,,,,,,,,,,,,,,,,,,,,,,,,,,,,,,,,,,,,,,546.8751875000016,546.8913711000059,547.3913331000076,547.3750188000122,547.3795364000107,547.3913331000076,547.3913331000076,547.3913331000076,548.4084022000025,Objects\233a.jpg,pre,o,1.011895400006324,None,,,,,,,,00024,001,2025-11-09_19h14.07.408,MST_test,2024.2.2,59.95308071945958,2025-11-09 19h14.18.903510 +0530,
144,0,144,n,4.7187088999926345,None,144,0,144,0,548.4246811000048,,,,,,,,,,,,,,,,,,,,,,,,,,,,,,,,,,,,,,,,,,,,,,,,,,548.4084843000019,548.4246811000048,548.9246297000063,548.9082679999992,548.9133427000052,548.9246297000063,548.9246297000063,548.9246297000063,553.6582548000006,Foils\073a.jpg,none,n,4.7187088999926345,None,,,,,,,,00024,001,2025-11-09_19h14.07.408,MST_test,2024.2.2,59.95308071945958,2025-11-09 19h14.18.903510 +0530,
145,0,145,n,2.808416700005182,None,145,0,145,0,553.6745552000066,,,,,,,,,,,,,,,,,,,,,,,,,,,,,,,,,,,,,,,,,,,,,,,,,,553.6583365000115,553.6745552000066,554.1745482000115,554.1580887000018,554.1660533000104,554.1745482000115,554.1745482000115,554.1745482000115,556.9916579000128,Foils\065a.jpg,none,n,2.808416700005182,None,,,,,,,,00024,001,2025-11-09_19h14.07.408,MST_test,2024.2.2,59.95308071945958,2025-11-09 19h14.18.903510 +0530,
146,0,146,s,1.300778499993612,None,146,0,146,0,557.0078180000128,,,,,,,,,,,,,,,,,,,,,,,,,,,,,,,,,,,,,,,,,,,,,,,,,,556.991751900001,557.0078180000128,557.5244520000124,557.4913680000027,557.5045197,557.5244520000124,557.5244520000124,557.5244520000124,558.8415422000107,Objects\214b.jpg,mid,s,1.300778499993612,None,,,,,,,,00024,001,2025-11-09_19h14.07.408,MST_test,2024.2.2,59.95308071945958,2025-11-09 19h14.18.903510 +0530,
147,0,147,o,1.143516100011766,None,147,0,147,0,558.8577522000123,,,,,,,,,,,,,,,,,,,,,,,,,,,,,,,,,,,,,,,,,,,,,,,,,,558.8416269000008,558.8577522000123,559.3577385000099,559.3413461000018,559.3463164000132,559.3577385000099,559.3577385000099,559.3577385000099,560.5080000000016,Objects\249a.jpg,mid,o,1.143516100011766,None,,,,,,,,00024,001,2025-11-09_19h14.07.408,MST_test,2024.2.2,59.95308071945958,2025-11-09 19h14.18.903510 +0530,
148,0,148,o,1.3008988999936264,None,148,0,148,0,560.5244057000091,,,,,,,,,,,,,,,,,,,,,,,,,,,,,,,,,,,,,,,,,,,,,,,,,,560.5080835000117,560.5244057000091,561.024382100004,561.0078633000085,561.0128140000015,561.024382100004,561.024382100004,561.024382100004,562.3414112000028,Objects\172a.jpg,pre,o,1.3008988999936264,None,,,,,,,,00024,001,2025-11-09_19h14.07.408,MST_test,2024.2.2,59.95308071945958,2025-11-09 19h14.18.903510 +0530,
149,0,149,s,1.5034871000098065,None,149,0,149,0,562.3577044000122,,,,,,,,,,,,,,,,,,,,,,,,,,,,,,,,,,,,,,,,,,,,,,,,,,562.3414870000124,562.3577044000122,562.8743342000089,562.8412922000134,562.8583041000093,562.8743342000089,562.8743342000089,562.8743342000089,564.3912874000089,Objects\150b.jpg,post,s,1.5034871000098065,None,,,,,,,,00024,001,2025-11-09_19h14.07.408,MST_test,2024.2.2,59.95308071945958,2025-11-09 19h14.18.903510 +0530,
,,,,,,,,,,,,,,,,,,,,,,,,,,,,,,,,,,,,,,,,,,,,,,,,,,,,,,,,,,,,,,,,,,,,,,,,,,564.3913453999994,564.4076637000107,564.4076637000107,566.5747021999996,space,2.1636279999947874,None,00024,001,2025-11-09_19h14.07.408,MST_test,2024.2.2,59.95308071945958,2025-11-09 19h14.18.903510 +0530,
