thisN,thisTrialN,thisRepN,key_resp_3.keys,key_resp_3.rt,key_resp_3.duration,trials.thisRepN,trials.thisTrialN,trials.thisN,trials.thisIndex,thisRow.t,notes,intro_page.started,text.started,key_resp.started,intro_page.stopped,key_resp.keys,key_resp.rt,key_resp.duration,instructions.started,text_2.started,key_resp_2.started,instructions.stopped,key_resp_2.keys,key_resp_2.rt,key_resp_2.duration,demo1.started,image_1.started,image_2.started,text_7.started,key_resp_6.started,text_9.started,demo1.stopped,key_resp_6.keys,key_resp_6.rt,key_resp_6.duration,demo3.started,image_5.started,image_6.started,text_11.started,text_12.started,key_resp_8.started,demo3.stopped,key_resp_8.keys,key_resp_8.rt,key_resp_8.duration,demo_conclusion.started,text_13.started,key_resp_9.started,demo_conclusion.stopped,key_resp_9.keys,key_resp_9.rt,key_resp_9.duration,start_test.started,text_6.started,key_resp_5.started,start_test.stopped,key_resp_5.keys,key_resp_5.rt,key_resp_5.duration,ISI.started,text_4.started,text_4.stopped,ISI.stopped,routine_1.started,image.started,text_3.started,key_resp_3.started,routine_1.stopped,image_path,position_of_stimuli,trials.key_resp_3.keys,trials.key_resp_3.rt,trials.key_resp_3.duration,End_page.started,text_5.started,key_resp_4.started,End_page.stopped,key_resp_4.keys,key_resp_4.rt,key_resp_4.duration,participant,session,date,expName,psychopyVersion,frameRate,expStart,
,,,,,,,,,,,,0.01717250001092907,0.03347980001126416,0.03347980001126416,2.1016246000071988,space,2.059255000000121,None,,,,,,,,,,,,,,,,,,,,,,,,,,,,,,,,,,,,,,,,,,,,,,,,,,,,,,,,,,,,,,,00022,001,2025-11-09_12h15.12.382,MST_test,2024.2.2,59.991817113200966,2025-11-09 12h15.18.737654 +0530,
,,,,,,,,,,,,,,,,,,,2.101654600002803,2.116751599998679,2.116751599998679,10.167005200011772,space,8.036257999992813,None,,,,,,,,,,,,,,,,,,,,,,,,,,,,,,,,,,,,,,,,,,,,,,,,,,,,,,,,00022,001,2025-11-09_12h15.12.382,MST_test,2024.2.2,59.991817113200966,2025-11-09 12h15.18.737654 +0530,
,,,,,,,,,,,,,,,,,,,,,,,,,,10.1670310000045,10.183241300008376,10.183241300008376,10.183241300008376,10.183241300008376,10.183241300008376,15.05018970000674,space,4.858110800007125,None,,,,,,,,,,,,,,,,,,,,,,,,,,,,,,,,,,,,,,,,,,,,,,00022,001,2025-11-09_12h15.12.382,MST_test,2024.2.2,59.991817113200966,2025-11-09 12h15.18.737654 +0530,
,,,,,,,,,,,,,,,,,,,,,,,,,,,,,,,,,,,,15.050212300004205,15.066469600002165,15.066469600002165,15.066469600002165,15.066469600002165,15.066469600002165,18.3001801000064,space,3.226344099995913,None,,,,,,,,,,,,,,,,,,,,,,,,,,,,,,,,,,,,00022,001,2025-11-09_12h15.12.382,MST_test,2024.2.2,59.991817113200966,2025-11-09 12h15.18.737654 +0530,
,,,,,,,,,,,,,,,,,,,,,,,,,,,,,,,,,,,,,,,,,,,,,,18.300203300008434,18.31640630000038,18.31640630000038,27.916635500005214,space,9.590247500003898,None,,,,,,,,,,,,,,,,,,,,,,,,,,,,,00022,001,2025-11-09_12h15.12.382,MST_test,2024.2.2,59.991817113200966,2025-11-09 12h15.18.737654 +0530,
,,,,,,,,,,,,,,,,,,,,,,,,,,,,,,,,,,,,,,,,,,,,,,,,,,,,,27.916671900005895,27.93286060000537,27.93286060000537,49.64957910000521,space,21.71619139998802,None,,,,,,,,,,,,,,,,,,,,,,00022,001,2025-11-09_12h15.12.382,MST_test,2024.2.2,59.991817113200966,2025-11-09 12h15.18.737654 +0530,
0,0,0,n,6.474893899998278,None,0,0,0,0,49.665722500009,,,,,,,,,,,,,,,,,,,,,,,,,,,,,,,,,,,,,,,,,,,,,,,,,,49.65229560001171,49.665722500009,50.182617200000095,50.149258300007205,50.16456050000852,50.182617200000095,50.182617200000095,50.182617200000095,56.66602309999871,Foils\065a.jpg,none,n,6.474893899998278,None,,,,,,,,00022,001,2025-11-09_12h15.12.382,MST_test,2024.2.2,59.991817113200966,2025-11-09 12h15.18.737654 +0530,
1,0,1,s,2.9058737000013934,None,1,0,1,0,56.68227280001156,,,,,,,,,,,,,,,,,,,,,,,,,,,,,,,,,,,,,,,,,,,,,,,,,,56.666119700006675,56.68227280001156,57.19915140001103,57.16577170000528,57.188457900003414,57.19915140001103,57.19915140001103,57.19915140001103,60.11591269999917,Objects\306b.jpg,mid,s,2.9058737000013934,None,,,,,,,,00022,001,2025-11-09_12h15.12.382,MST_test,2024.2.2,59.991817113200966,2025-11-09 12h15.18.737654 +0530,
2,0,2,o,3.9406712999916635,None,2,0,2,0,60.13218939999933,,,,,,,,,,,,,,,,,,,,,,,,,,,,,,,,,,,,,,,,,,,,,,,,,,60.11598790000426,60.13218939999933,60.63216100000136,60.615684500007774,60.62477670000226,60.63216100000136,60.63216100000136,60.63216100000136,64.58237879999797,Objects\244a.jpg,post,o,3.9406712999916635,None,,,,,,,,00022,001,2025-11-09_12h15.12.382,MST_test,2024.2.2,59.991817113200966,2025-11-09 12h15.18.737654 +0530,
3,0,3,o,2.8561258999980055,None,3,0,3,0,64.59876740000618,,,,,,,,,,,,,,,,,,,,,,,,,,,,,,,,,,,,,,,,,,,,,,,,,,64.58246090001194,64.59876740000618,65.09866630000761,65.08239900000626,65.09386439999798,65.09866630000761,65.09866630000761,65.09866630000761,67.96577300000354,Objects\379b.jpg,mid,o,2.8561258999980055,None,,,,,,,,00022,001,2025-11-09_12h15.12.382,MST_test,2024.2.2,59.991817113200966,2025-11-09 12h15.18.737654 +0530,
4,0,4,n,2.313276200002292,None,4,0,4,0,67.98203320000903,,,,,,,,,,,,,,,,,,,,,,,,,,,,,,,,,,,,,,,,,,,,,,,,,,67.96585380000761,67.98203320000903,68.482027200007,68.46577590001107,68.47520110000914,68.482027200007,68.482027200007,68.482027200007,70.79898370000592,Foils\098a.jpg,none,n,2.313276200002292,None,,,,,,,,00022,001,2025-11-09_12h15.12.382,MST_test,2024.2.2,59.991817113200966,2025-11-09 12h15.18.737654 +0530,
5,0,5,o,2.856199000001652,None,5,0,5,0,70.81529740001133,,,,,,,,,,,,,,,,,,,,,,,,,,,,,,,,,,,,,,,,,,,,,,,,,,70.79907020000974,70.81529740001133,71.31514370000514,71.29898780000804,71.31029160000617,71.31514370000514,71.31514370000514,71.31514370000514,74.18228829999862,Objects\256a.jpg,post,o,2.856199000001652,None,,,,,,,,00022,001,2025-11-09_12h15.12.382,MST_test,2024.2.2,59.991817113200966,2025-11-09 12h15.18.737654 +0530,
6,0,6,s,1.6732112999889068,None,6,0,6,0,74.19856580000487,,,,,,,,,,,,,,,,,,,,,,,,,,,,,,,,,,,,,,,,,,,,,,,,,,74.18237059999956,74.19856580000487,74.71521260000009,74.6820454000117,74.69869400000607,74.71521260000009,74.71521260000009,74.71521260000009,76.39892790000886,Objects\004b.jpg,mid,s,1.6732112999889068,None,,,,,,,,00022,001,2025-11-09_12h15.12.382,MST_test,2024.2.2,59.991817113200966,2025-11-09 12h15.18.737654 +0530,
7,0,7,s,1.3025808999955188,None,7,0,7,0,76.41518100000394,,,,,,,,,,,,,,,,,,,,,,,,,,,,,,,,,,,,,,,,,,,,,,,,,,76.39900830000988,76.41518100000394,76.93179890001193,76.89874560000317,76.91674980000244,76.93179890001193,76.93179890001193,76.93179890001193,78.24876570000197,Objects\221b.jpg,post,s,1.3025808999955188,None,,,,,,,,00022,001,2025-11-09_12h15.12.382,MST_test,2024.2.2,59.991817113200966,2025-11-09 12h15.18.737654 +0530,
8,0,8,n,2.388423199998215,None,8,0,8,0,78.26514529999986,,,,,,,,,,,,,,,,,,,,,,,,,,,,,,,,,,,,,,,,,,,,,,,,,,78.24884280000697,78.26514529999986,78.76509200000146,78.748662900005,78.76015159999952,78.76509200000146,78.76509200000146,78.76509200000146,81.1653776000021,Foils\105a.jpg,none,n,2.388423199998215,None,,,,,,,,00022,001,2025-11-09_12h15.12.382,MST_test,2024.2.2,59.991817113200966,2025-11-09 12h15.18.737654 +0530,
9,0,9,o,1.7194495000003371,None,9,0,9,0,81.18174340001133,,,,,,,,,,,,,,,,,,,,,,,,,,,,,,,,,,,,,,,,,,,,,,,,,,81.16546640000888,81.18174340001133,81.69837290000578,81.66524970000319,81.68328750001092,81.69837290000578,81.69837290000578,81.69837290000578,83.43197060000966,Objects\083b.jpg,post,o,1.7194495000003371,None,,,,,,,,00022,001,2025-11-09_12h15.12.382,MST_test,2024.2.2,59.991817113200966,2025-11-09 12h15.18.737654 +0530,
10,0,10,o,1.1512211999943247,None,10,0,10,0,83.44835580000654,,,,,,,,,,,,,,,,,,,,,,,,,,,,,,,,,,,,,,,,,,,,,,,,,,83.43204910001077,83.44835580000654,83.94836360000772,83.93186599999899,83.93937330000335,83.94836360000772,83.94836360000772,83.94836360000772,85.11533880000934,Objects\092a.jpg,mid,o,1.1512211999943247,None,,,,,,,,00022,001,2025-11-09_12h15.12.382,MST_test,2024.2.2,59.991817113200966,2025-11-09 12h15.18.737654 +0530,
11,0,11,o,1.2615313999995124,None,11,0,11,0,85.13165890000528,,,,,,,,,,,,,,,,,,,,,,,,,,,,,,,,,,,,,,,,,,,,,,,,,,85.11542139999801,85.13165890000528,85.63161470000341,85.61518150000484,85.61754780000774,85.63161470000341,85.63161470000341,85.63161470000341,86.89851050000289,Objects\095a.jpg,pre,o,1.2615313999995124,None,,,,,,,,00022,001,2025-11-09_12h15.12.382,MST_test,2024.2.2,59.991817113200966,2025-11-09 12h15.18.737654 +0530,
12,0,12,n,7.079926799997338,None,12,0,12,0,86.91495430000941,,,,,,,,,,,,,,,,,,,,,,,,,,,,,,,,,,,,,,,,,,,,,,,,,,86.89858570000797,86.91495430000941,87.41491590000805,87.39843929999915,87.4062663000077,87.41491590000805,87.41491590000805,87.41491590000805,94.49855600000592,Foils\018a.jpg,none,n,7.079926799997338,None,,,,,,,,00022,001,2025-11-09_12h15.12.382,MST_test,2024.2.2,59.991817113200966,2025-11-09 12h15.18.737654 +0530,
13,0,13,o,1.660438899998553,None,13,0,13,0,94.51479280000785,,,,,,,,,,,,,,,,,,,,,,,,,,,,,,,,,,,,,,,,,,,,,,,,,,94.49863180000102,94.51479280000785,95.01483140001073,94.99829139999929,95.00600910000503,95.01483140001073,95.01483140001073,95.01483140001073,96.68174280000676,Objects\278b.jpg,mid,o,1.660438899998553,None,,,,,,,,00022,001,2025-11-09_12h15.12.382,MST_test,2024.2.2,59.991817113200966,2025-11-09 12h15.18.737654 +0530,
14,0,14,o,1.1546831000014208,None,14,0,14,0,96.69807800000126,,,,,,,,,,,,,,,,,,,,,,,,,,,,,,,,,,,,,,,,,,,,,,,,,,96.68183370000042,96.69807800000126,97.19802910000726,97.18156760001148,97.1891622000112,97.19802910000726,97.19802910000726,97.19802910000726,98.36501040001167,Objects\107a.jpg,post,o,1.1546831000014208,None,,,,,,,,00022,001,2025-11-09_12h15.12.382,MST_test,2024.2.2,59.991817113200966,2025-11-09 12h15.18.737654 +0530,
15,0,15,o,1.1106689000007464,None,15,0,15,0,98.38133570000355,,,,,,,,,,,,,,,,,,,,,,,,,,,,,,,,,,,,,,,,,,,,,,,,,,98.3650900000066,98.38133570000355,98.8980198000063,98.8649235000048,98.88691640000616,98.8980198000063,98.8980198000063,98.8980198000063,100.01503790001152,Objects\017b.jpg,mid,o,1.1106689000007464,None,,,,,,,,00022,001,2025-11-09_12h15.12.382,MST_test,2024.2.2,59.991817113200966,2025-11-09 12h15.18.737654 +0530,
16,0,16,o,0.8972972000046866,None,16,0,16,0,100.03135100001236,,,,,,,,,,,,,,,,,,,,,,,,,,,,,,,,,,,,,,,,,,,,,,,,,,100.01512570001069,100.03135100001236,100.54798730000039,100.51485340000363,100.53331199999957,100.54798730000039,100.54798730000039,100.54798730000039,101.4485480000003,Objects\091b.jpg,post,o,0.8972972000046866,None,,,,,,,,00022,001,2025-11-09_12h15.12.382,MST_test,2024.2.2,59.991817113200966,2025-11-09 12h15.18.737654 +0530,
17,0,17,s,2.727145600001677,None,17,0,17,0,101.46463850000873,,,,,,,,,,,,,,,,,,,,,,,,,,,,,,,,,,,,,,,,,,,,,,,,,,101.448638700007,101.46463850000873,101.96460730000399,101.9481925,101.95572450000327,101.96460730000399,101.96460730000399,101.96460730000399,104.69820860000618,Foils\093b.jpg,none,s,2.727145600001677,None,,,,,,,,00022,001,2025-11-09_12h15.12.382,MST_test,2024.2.2,59.991817113200966,2025-11-09 12h15.18.737654 +0530,
18,0,18,o,1.1815877000044566,None,18,0,18,0,104.7145748000039,,,,,,,,,,,,,,,,,,,,,,,,,,,,,,,,,,,,,,,,,,,,,,,,,,104.69829440000467,104.7145748000039,105.21456269999908,105.19805270001234,105.19993070000783,105.21456269999908,105.21456269999908,105.21456269999908,106.39838410000084,Objects\046a.jpg,post,o,1.1815877000044566,None,,,,,,,,00022,001,2025-11-09_12h15.12.382,MST_test,2024.2.2,59.991817113200966,2025-11-09 12h15.18.737654 +0530,
19,0,19,n,1.9624618000088958,None,19,0,19,0,106.414543100007,,,,,,,,,,,,,,,,,,,,,,,,,,,,,,,,,,,,,,,,,,,,,,,,,,106.3984758000006,106.414543100007,106.91449090000242,106.89804900001036,106.90586179999809,106.91449090000242,106.91449090000242,106.91449090000242,108.88152300000365,Foils\050a.jpg,none,n,1.9624618000088958,None,,,,,,,,00022,001,2025-11-09_12h15.12.382,MST_test,2024.2.2,59.991817113200966,2025-11-09 12h15.18.737654 +0530,
20,0,20,s,3.277631199991447,None,20,0,20,0,108.89778530001058,,,,,,,,,,,,,,,,,,,,,,,,,,,,,,,,,,,,,,,,,,,,,,,,,,108.88160120000248,108.89778530001058,109.41445250000106,109.38130700000329,109.40209780000441,109.41445250000106,109.41445250000106,109.41445250000106,112.69831790000899,Objects\127b.jpg,pre,s,3.277631199991447,None,,,,,,,,00022,001,2025-11-09_12h15.12.382,MST_test,2024.2.2,59.991817113200966,2025-11-09 12h15.18.737654 +0530,
21,0,21,s,1.650271000005887,None,21,0,21,0,112.71438950000447,,,,,,,,,,,,,,,,,,,,,,,,,,,,,,,,,,,,,,,,,,,,,,,,,,112.69840890000341,112.71438950000447,113.23101660000975,113.19796170000336,113.21119400000316,113.23101660000975,113.23101660000975,113.23101660000975,114.8980573000008,Objects\109b.jpg,post,s,1.650271000005887,None,,,,,,,,00022,001,2025-11-09_12h15.12.382,MST_test,2024.2.2,59.991817113200966,2025-11-09 12h15.18.737654 +0530,
22,0,22,o,1.4111824999999953,None,22,0,22,0,114.91437500000757,,,,,,,,,,,,,,,,,,,,,,,,,,,,,,,,,,,,,,,,,,,,,,,,,,114.89813240000512,114.91437500000757,115.41418830001203,115.39790210001229,115.40867330000037,115.41418830001203,115.41418830001203,115.41418830001203,116.83129580000241,Objects\299a.jpg,post,o,1.4111824999999953,None,,,,,,,,00022,001,2025-11-09_12h15.12.382,MST_test,2024.2.2,59.991817113200966,2025-11-09 12h15.18.737654 +0530,
23,0,23,n,1.9378092999977525,None,23,0,23,0,116.84764530000393,,,,,,,,,,,,,,,,,,,,,,,,,,,,,,,,,,,,,,,,,,,,,,,,,,116.8313865000091,116.84764530000393,117.34722090000287,117.33110090000264,117.34226390000549,117.34722090000287,117.34722090000287,117.34722090000287,119.29797290000715,Foils\081a.jpg,none,n,1.9378092999977525,None,,,,,,,,00022,001,2025-11-09_12h15.12.382,MST_test,2024.2.2,59.991817113200966,2025-11-09 12h15.18.737654 +0530,
24,0,24,n,1.027212300003157,None,24,0,24,0,119.31424610000977,,,,,,,,,,,,,,,,,,,,,,,,,,,,,,,,,,,,,,,,,,,,,,,,,,119.29805630000192,119.31424610000977,119.8142155000096,119.79776420000417,119.80565290000231,119.8142155000096,119.8142155000096,119.8142155000096,120.84791720000794,Foils\033a.jpg,none,n,1.027212300003157,None,,,,,,,,00022,001,2025-11-09_12h15.12.382,MST_test,2024.2.2,59.991817113200966,2025-11-09 12h15.18.737654 +0530,
25,0,25,o,3.511471400008304,None,25,0,25,0,120.86422550000134,,,,,,,,,,,,,,,,,,,,,,,,,,,,,,,,,,,,,,,,,,,,,,,,,,120.84799540000677,120.86422550000134,121.36418000000413,121.34778280000319,121.35271680000005,121.36418000000413,121.36418000000413,121.36418000000413,124.88116679999803,Objects\346a.jpg,mid,o,3.511471400008304,None,,,,,,,,00022,001,2025-11-09_12h15.12.382,MST_test,2024.2.2,59.991817113200966,2025-11-09 12h15.18.737654 +0530,
26,0,26,o,1.1334325000061654,None,26,0,26,0,124.89747010001156,,,,,,,,,,,,,,,,,,,,,,,,,,,,,,,,,,,,,,,,,,,,,,,,,,124.88124960000277,124.89747010001156,125.39745450000919,125.38110009999946,125.39204250001058,125.39745450000919,125.39745450000919,125.39745450000919,126.53120360001049,Objects\081b.jpg,mid,o,1.1334325000061654,None,,,,,,,,00022,001,2025-11-09_12h15.12.382,MST_test,2024.2.2,59.991817113200966,2025-11-09 12h15.18.737654 +0530,
27,0,27,o,1.9133450999943307,None,27,0,27,0,126.54744239999854,,,,,,,,,,,,,,,,,,,,,,,,,,,,,,,,,,,,,,,,,,,,,,,,,,126.53129940001236,126.54744239999854,127.0474222000048,127.03092100001231,127.03832700000203,127.0474222000048,127.0474222000048,127.0474222000048,128.96434600000794,Objects\225a.jpg,mid,o,1.9133450999943307,None,,,,,,,,00022,001,2025-11-09_12h15.12.382,MST_test,2024.2.2,59.991817113200966,2025-11-09 12h15.18.737654 +0530,
28,0,28,s,1.1596309000015026,None,28,0,28,0,128.98071550000168,,,,,,,,,,,,,,,,,,,,,,,,,,,,,,,,,,,,,,,,,,,,,,,,,,128.96443069999805,128.98071550000168,129.5140032000054,129.4642632000032,129.50438030000078,129.5140032000054,129.5140032000054,129.5140032000054,130.68100370001048,Objects\230b.jpg,pre,s,1.1596309000015026,None,,,,,,,,00022,001,2025-11-09_12h15.12.382,MST_test,2024.2.2,59.991817113200966,2025-11-09 12h15.18.737654 +0530,
29,0,29,o,2.519152799999574,None,29,0,29,0,130.69734680000693,,,,,,,,,,,,,,,,,,,,,,,,,,,,,,,,,,,,,,,,,,,,,,,,,,130.68109310000727,130.69734680000693,131.1973555000004,131.18099550000625,131.19101860000228,131.1973555000004,131.1973555000004,131.1973555000004,133.73109660000773,Objects\224b.jpg,pre,o,2.519152799999574,None,,,,,,,,00022,001,2025-11-09_12h15.12.382,MST_test,2024.2.2,59.991817113200966,2025-11-09 12h15.18.737654 +0530,
30,0,30,s,0.9899012999958359,None,30,0,30,0,133.74731740000425,,,,,,,,,,,,,,,,,,,,,,,,,,,,,,,,,,,,,,,,,,,,,,,,,,133.73119010000664,133.74731740000425,134.24723090000043,134.23075950000202,134.23508779999975,134.24723090000043,134.24723090000043,134.24723090000043,135.2476166000124,Objects\255a.jpg,mid,s,0.9899012999958359,None,,,,,,,,00022,001,2025-11-09_12h15.12.382,MST_test,2024.2.2,59.991817113200966,2025-11-09 12h15.18.737654 +0530,
31,0,31,o,1.9647243000072194,None,31,0,31,0,135.26391170000716,,,,,,,,,,,,,,,,,,,,,,,,,,,,,,,,,,,,,,,,,,,,,,,,,,135.24769519999973,135.26391170000716,135.78053490001184,135.74740849999944,135.77053390000947,135.78053490001184,135.78053490001184,135.78053490001184,137.74755730001198,Objects\204b.jpg,post,o,1.9647243000072194,None,,,,,,,,00022,001,2025-11-09_12h15.12.382,MST_test,2024.2.2,59.991817113200966,2025-11-09 12h15.18.737654 +0530,
32,0,32,o,1.9504971999995178,None,32,0,32,0,137.76386370000546,,,,,,,,,,,,,,,,,,,,,,,,,,,,,,,,,,,,,,,,,,,,,,,,,,137.7476319999987,137.76386370000546,138.26382069999818,138.24737320000713,138.25829070000327,138.26382069999818,138.26382069999818,138.26382069999818,140.23085069999797,Objects\263b.jpg,post,o,1.9504971999995178,None,,,,,,,,00022,001,2025-11-09_12h15.12.382,MST_test,2024.2.2,59.991817113200966,2025-11-09 12h15.18.737654 +0530,
33,0,33,o,1.0160974000027636,None,33,0,33,0,140.2471046999999,,,,,,,,,,,,,,,,,,,,,,,,,,,,,,,,,,,,,,,,,,,,,,,,,,140.2309258000023,140.2471046999999,140.7469611000124,140.73066130001098,140.74188860000868,140.7469611000124,140.7469611000124,140.7469611000124,141.76415160000033,Objects\220a.jpg,mid,o,1.0160974000027636,None,,,,,,,,00022,001,2025-11-09_12h15.12.382,MST_test,2024.2.2,59.991817113200966,2025-11-09 12h15.18.737654 +0530,
34,0,34,s,3.92624749999959,None,34,0,34,0,141.7804441000044,,,,,,,,,,,,,,,,,,,,,,,,,,,,,,,,,,,,,,,,,,,,,,,,,,141.76422779999848,141.7804441000044,142.29709950000688,142.26391760000843,142.28079370000341,142.29709950000688,142.29709950000688,142.29709950000688,146.23066500001005,Objects\013b.jpg,pre,s,3.92624749999959,None,,,,,,,,00022,001,2025-11-09_12h15.12.382,MST_test,2024.2.2,59.991817113200966,2025-11-09 12h15.18.737654 +0530,
35,0,35,s,1.377070399990771,None,35,0,35,0,146.24700840000878,,,,,,,,,,,,,,,,,,,,,,,,,,,,,,,,,,,,,,,,,,,,,,,,,,146.23075070000777,146.24700840000878,146.76363500001025,146.7305544000119,146.75193769999896,146.76363500001025,146.76363500001025,146.76363500001025,148.14739060000284,Objects\262b.jpg,pre,s,1.377070399990771,None,,,,,,,,00022,001,2025-11-09_12h15.12.382,MST_test,2024.2.2,59.991817113200966,2025-11-09 12h15.18.737654 +0530,
36,0,36,o,1.196015300010913,None,36,0,36,0,148.16360470000654,,,,,,,,,,,,,,,,,,,,,,,,,,,,,,,,,,,,,,,,,,,,,,,,,,148.1474761999998,148.16360470000654,148.66358940000646,148.64715210000577,148.65694780000194,148.66358940000646,148.66358940000646,148.66358940000646,149.86407970001164,Objects\293a.jpg,post,o,1.196015300010913,None,,,,,,,,00022,001,2025-11-09_12h15.12.382,MST_test,2024.2.2,59.991817113200966,2025-11-09 12h15.18.737654 +0530,
37,0,37,n,1.9926459999987856,None,37,0,37,0,149.88030150000122,,,,,,,,,,,,,,,,,,,,,,,,,,,,,,,,,,,,,,,,,,,,,,,,,,149.86415930000658,149.88030150000122,150.3802263000107,150.36370260000695,150.3744461000024,150.3802263000107,150.3802263000107,150.3802263000107,152.38058530000853,Foils\073a.jpg,none,n,1.9926459999987856,None,,,,,,,,00022,001,2025-11-09_12h15.12.382,MST_test,2024.2.2,59.991817113200966,2025-11-09 12h15.18.737654 +0530,
38,0,38,s,1.7358009000017773,None,38,0,38,0,152.3969347000093,,,,,,,,,,,,,,,,,,,,,,,,,,,,,,,,,,,,,,,,,,,,,,,,,,152.38067990000127,152.3969347000093,152.9135352000012,152.8804259000026,152.8962782000017,152.9135352000012,152.9135352000012,152.9135352000012,154.66386410000268,Objects\378b.jpg,post,s,1.7358009000017773,None,,,,,,,,00022,001,2025-11-09_12h15.12.382,MST_test,2024.2.2,59.991817113200966,2025-11-09 12h15.18.737654 +0530,
39,0,39,s,1.3671883999923011,None,39,0,39,0,154.68012440000894,,,,,,,,,,,,,,,,,,,,,,,,,,,,,,,,,,,,,,,,,,,,,,,,,,154.6639484000043,154.68012440000894,155.1801153999986,155.1636550000112,155.17430980000063,155.1801153999986,155.1801153999986,155.1801153999986,156.56384940000135,Objects\118b.jpg,post,s,1.3671883999923011,None,,,,,,,,00022,001,2025-11-09_12h15.12.382,MST_test,2024.2.2,59.991817113200966,2025-11-09 12h15.18.737654 +0530,
40,0,40,o,1.1911739000061061,None,40,0,40,0,156.5800911000115,,,,,,,,,,,,,,,,,,,,,,,,,,,,,,,,,,,,,,,,,,,,,,,,,,156.56393790000584,156.5800911000115,157.08007680000446,157.06370730001072,157.07431130000623,157.08007680000446,157.08007680000446,157.08007680000446,158.28038060000108,Objects\275a.jpg,post,o,1.1911739000061061,None,,,,,,,,00022,001,2025-11-09_12h15.12.382,MST_test,2024.2.2,59.991817113200966,2025-11-09 12h15.18.737654 +0530,
41,0,41,o,1.4765542999957688,None,41,0,41,0,158.29675459999999,,,,,,,,,,,,,,,,,,,,,,,,,,,,,,,,,,,,,,,,,,,,,,,,,,158.28046140000515,158.29675459999999,158.79673139999795,158.7802481000108,158.78529070000513,158.79673139999795,158.79673139999795,158.79673139999795,160.28044260000752,Objects\034a.jpg,post,o,1.4765542999957688,None,,,,,,,,00022,001,2025-11-09_12h15.12.382,MST_test,2024.2.2,59.991817113200966,2025-11-09 12h15.18.737654 +0530,
42,0,42,o,1.0763732000050368,None,42,0,42,0,160.29674330000125,,,,,,,,,,,,,,,,,,,,,,,,,,,,,,,,,,,,,,,,,,,,,,,,,,160.28053030000592,160.29674330000125,160.79666050001106,160.78026030000183,160.78773570001067,160.79666050001106,160.79666050001106,160.79666050001106,161.88041170001088,Objects\267b.jpg,mid,o,1.0763732000050368,None,,,,,,,,00022,001,2025-11-09_12h15.12.382,MST_test,2024.2.2,59.991817113200966,2025-11-09 12h15.18.737654 +0530,
43,0,43,s,4.458415700006299,None,43,0,43,0,161.8966611000069,,,,,,,,,,,,,,,,,,,,,,,,,,,,,,,,,,,,,,,,,,,,,,,,,,161.88049670000328,161.8966611000069,162.39663870001095,162.380261600003,162.38763630000176,162.39663870001095,162.39663870001095,162.39663870001095,166.86374390000128,Objects\168a.jpg,post,s,4.458415700006299,None,,,,,,,,00022,001,2025-11-09_12h15.12.382,MST_test,2024.2.2,59.991817113200966,2025-11-09 12h15.18.737654 +0530,
44,0,44,o,1.1545642999990378,None,44,0,44,0,166.87990110000828,,,,,,,,,,,,,,,,,,,,,,,,,,,,,,,,,,,,,,,,,,,,,,,,,,166.86382080000476,166.87990110000828,167.37985260000278,167.3633841000119,167.3711489999987,167.37985260000278,167.37985260000278,167.37985260000278,168.54693280000356,Objects\044a.jpg,post,o,1.1545642999990378,None,,,,,,,,00022,001,2025-11-09_12h15.12.382,MST_test,2024.2.2,59.991817113200966,2025-11-09 12h15.18.737654 +0530,
45,0,45,s,1.1437339999974938,None,45,0,45,0,168.5632356999995,,,,,,,,,,,,,,,,,,,,,,,,,,,,,,,,,,,,,,,,,,,,,,,,,,168.54701910000585,168.5632356999995,169.06314620000194,169.04668350001157,169.0543359000003,169.06314620000194,169.06314620000194,169.06314620000194,170.21346730001096,Objects\317b.jpg,post,s,1.1437339999974938,None,,,,,,,,00022,001,2025-11-09_12h15.12.382,MST_test,2024.2.2,59.991817113200966,2025-11-09 12h15.18.737654 +0530,
46,0,46,o,1.2610437000112142,None,46,0,46,0,170.22981670001172,,,,,,,,,,,,,,,,,,,,,,,,,,,,,,,,,,,,,,,,,,,,,,,,,,170.21354630000133,170.22981670001172,170.72982240001147,170.71336059999885,170.72103820000484,170.72982240001147,170.72982240001147,170.72982240001147,171.99679080001079,Objects\026a.jpg,pre,o,1.2610437000112142,None,,,,,,,,00022,001,2025-11-09_12h15.12.382,MST_test,2024.2.2,59.991817113200966,2025-11-09 12h15.18.737654 +0530,
47,0,47,o,0.9941385999991326,None,47,0,47,0,172.0131187000079,,,,,,,,,,,,,,,,,,,,,,,,,,,,,,,,,,,,,,,,,,,,,,,,,,171.99687480001012,172.0131187000079,172.51312670001062,172.49657000000298,172.50034120000782,172.51312670001062,172.51312670001062,172.51312670001062,173.51331530000607,Objects\208a.jpg,post,o,0.9941385999991326,None,,,,,,,,00022,001,2025-11-09_12h15.12.382,MST_test,2024.2.2,59.991817113200966,2025-11-09 12h15.18.737654 +0530,
48,0,48,o,1.1066999999893596,None,48,0,48,0,173.52975230000447,,,,,,,,,,,,,,,,,,,,,,,,,,,,,,,,,,,,,,,,,,,,,,,,,,173.51338660001056,173.52975230000447,174.04637950001052,174.01334580000548,174.02986110000347,174.04637950001052,174.04637950001052,174.04637950001052,175.16347730001144,Objects\064b.jpg,pre,o,1.1066999999893596,None,,,,,,,,00022,001,2025-11-09_12h15.12.382,MST_test,2024.2.2,59.991817113200966,2025-11-09 12h15.18.737654 +0530,
49,0,49,s,1.0988794000004418,None,49,0,49,0,175.1797244000045,,,,,,,,,,,,,,,,,,,,,,,,,,,,,,,,,,,,,,,,,,,,,,,,,,175.16355190001195,175.1797244000045,175.69633859999885,175.66339480000897,175.68110120001074,175.69633859999885,175.69633859999885,175.69633859999885,176.79691950000415,Objects\131b.jpg,pre,s,1.0988794000004418,None,,,,,,,,00022,001,2025-11-09_12h15.12.382,MST_test,2024.2.2,59.991817113200966,2025-11-09 12h15.18.737654 +0530,
50,0,50,s,2.0283172999916133,None,50,0,50,0,176.812995100001,,,,,,,,,,,,,,,,,,,,,,,,,,,,,,,,,,,,,,,,,,,,,,,,,,176.79701040001237,176.812995100001,177.31260509999993,177.29661420000775,177.3077645000012,177.31260509999993,177.31260509999993,177.31260509999993,179.34660960000474,Objects\374a.jpg,pre,s,2.0283172999916133,None,,,,,,,,00022,001,2025-11-09_12h15.12.382,MST_test,2024.2.2,59.991817113200966,2025-11-09 12h15.18.737654 +0530,
51,0,51,o,1.0739830999955302,None,51,0,51,0,179.36296180001227,,,,,,,,,,,,,,,,,,,,,,,,,,,,,,,,,,,,,,,,,,,,,,,,,,179.34670239999832,179.36296180001227,179.86292390000017,179.84655990000465,179.85155610000947,179.86292390000017,179.86292390000017,179.86292390000017,180.9465343000047,Objects\051a.jpg,mid,o,1.0739830999955302,None,,,,,,,,00022,001,2025-11-09_12h15.12.382,MST_test,2024.2.2,59.991817113200966,2025-11-09 12h15.18.737654 +0530,
52,0,52,s,2.3460430999984965,None,52,0,52,0,180.9629333000048,,,,,,,,,,,,,,,,,,,,,,,,,,,,,,,,,,,,,,,,,,,,,,,,,,180.94661189999897,180.9629333000048,181.47965010000917,181.44639599999937,181.47247170000628,181.47965010000917,181.47965010000917,181.47965010000917,183.82984920000308,Objects\340b.jpg,pre,s,2.3460430999984965,None,,,,,,,,00022,001,2025-11-09_12h15.12.382,MST_test,2024.2.2,59.991817113200966,2025-11-09 12h15.18.737654 +0530,
53,0,53,s,1.1023719000077108,None,53,0,53,0,183.84620470000664,,,,,,,,,,,,,,,,,,,,,,,,,,,,,,,,,,,,,,,,,,,,,,,,,,183.82993700000225,183.84620470000664,184.36283090000506,184.32971800000814,184.34575900000345,184.36283090000506,184.36283090000506,184.36283090000506,185.47990160000336,Objects\174b.jpg,pre,s,1.1023719000077108,None,,,,,,,,00022,001,2025-11-09_12h15.12.382,MST_test,2024.2.2,59.991817113200966,2025-11-09 12h15.18.737654 +0530,
54,0,54,s,7.336870200000703,None,54,0,54,0,185.49616249999963,,,,,,,,,,,,,,,,,,,,,,,,,,,,,,,,,,,,,,,,,,,,,,,,,,185.47997710001073,185.49616249999963,185.9961164999986,185.97966920000908,185.98703800000658,185.9961164999986,185.9961164999986,185.9961164999986,193.34627660000115,Objects\274b.jpg,post,s,7.336870200000703,None,,,,,,,,00022,001,2025-11-09_12h15.12.382,MST_test,2024.2.2,59.991817113200966,2025-11-09 12h15.18.737654 +0530,
55,0,55,o,1.0502031999931205,None,55,0,55,0,193.36266590000014,,,,,,,,,,,,,,,,,,,,,,,,,,,,,,,,,,,,,,,,,,,,,,,,,,193.34636120000505,193.36266590000014,193.86261590001232,193.84614030001103,193.85082390000753,193.86261590001232,193.86261590001232,193.86261590001232,194.92967810000118,Objects\233a.jpg,pre,o,1.0502031999931205,None,,,,,,,,00022,001,2025-11-09_12h15.12.382,MST_test,2024.2.2,59.991817113200966,2025-11-09 12h15.18.737654 +0530,
56,0,56,s,1.9864211000094656,None,56,0,56,0,194.94592510000803,,,,,,,,,,,,,,,,,,,,,,,,,,,,,,,,,,,,,,,,,,,,,,,,,,194.92975619999925,194.94592510000803,195.46258469999884,195.4295082000026,195.45508100000734,195.46258469999884,195.46258469999884,195.46258469999884,197.46292400000675,Objects\155b.jpg,post,s,1.9864211000094656,None,,,,,,,,00022,001,2025-11-09_12h15.12.382,MST_test,2024.2.2,59.991817113200966,2025-11-09 12h15.18.737654 +0530,
57,0,57,s,2.377086299995426,None,57,0,57,0,197.47923830000218,,,,,,,,,,,,,,,,,,,,,,,,,,,,,,,,,,,,,,,,,,,,,,,,,,197.46300800000608,197.47923830000218,197.99587660000543,197.9627368000074,197.9754580000008,197.99587660000543,197.99587660000543,197.99587660000543,200.37950850000198,Objects\097b.jpg,post,s,2.377086299995426,None,,,,,,,,00022,001,2025-11-09_12h15.12.382,MST_test,2024.2.2,59.991817113200966,2025-11-09 12h15.18.737654 +0530,
58,0,58,s,2.36578659999941,None,58,0,58,0,200.3958435000095,,,,,,,,,,,,,,,,,,,,,,,,,,,,,,,,,,,,,,,,,,,,,,,,,,200.37959510000655,200.3958435000095,200.9292887000047,200.87942750001093,200.90972260000126,200.9292887000047,200.9292887000047,200.9292887000047,203.29606440001226,Objects\348b.jpg,post,s,2.36578659999941,None,,,,,,,,00022,001,2025-11-09_12h15.12.382,MST_test,2024.2.2,59.991817113200966,2025-11-09 12h15.18.737654 +0530,
59,0,59,o,1.6239065999980085,None,59,0,59,0,203.31245480000507,,,,,,,,,,,,,,,,,,,,,,,,,,,,,,,,,,,,,,,,,,,,,,,,,,203.29615270000068,203.31245480000507,203.82910760000232,203.7960396999988,203.8124065000011,203.82910760000232,203.82910760000232,203.82910760000232,205.4627601000102,Objects\099b.jpg,pre,o,1.6239065999980085,None,,,,,,,,00022,001,2025-11-09_12h15.12.382,MST_test,2024.2.2,59.991817113200966,2025-11-09 12h15.18.737654 +0530,
60,0,60,o,1.18257750000339,None,60,0,60,0,205.4790628000046,,,,,,,,,,,,,,,,,,,,,,,,,,,,,,,,,,,,,,,,,,,,,,,,,,205.4628389999998,205.4790628000046,205.97902240000258,205.9626533999981,205.97006079999846,205.97902240000258,205.97902240000258,205.97902240000258,207.16286560001026,Objects\076a.jpg,pre,o,1.18257750000339,None,,,,,,,,00022,001,2025-11-09_12h15.12.382,MST_test,2024.2.2,59.991817113200966,2025-11-09 12h15.18.737654 +0530,
61,0,61,n,1.7657489999983227,None,61,0,61,0,207.1790589000011,,,,,,,,,,,,,,,,,,,,,,,,,,,,,,,,,,,,,,,,,,,,,,,,,,207.16294239999843,207.1790589000011,207.6790192000044,207.66258650000964,207.66983790000086,207.6790192000044,207.6790192000044,207.6790192000044,209.4460315000033,Foils\082a.jpg,none,n,1.7657489999983227,None,,,,,,,,00022,001,2025-11-09_12h15.12.382,MST_test,2024.2.2,59.991817113200966,2025-11-09 12h15.18.737654 +0530,
62,0,62,o,1.0671679000079166,None,62,0,62,0,209.4622909000027,,,,,,,,,,,,,,,,,,,,,,,,,,,,,,,,,,,,,,,,,,,,,,,,,,209.4461125000089,209.4622909000027,209.96229770001082,209.9458003000036,209.94780230001197,209.96229770001082,209.96229770001082,209.96229770001082,211.04599980000057,Objects\156a.jpg,pre,o,1.0671679000079166,None,,,,,,,,00022,001,2025-11-09_12h15.12.382,MST_test,2024.2.2,59.991817113200966,2025-11-09 12h15.18.737654 +0530,
63,0,63,n,1.2822583000088343,None,63,0,63,0,211.06224400000065,,,,,,,,,,,,,,,,,,,,,,,,,,,,,,,,,,,,,,,,,,,,,,,,,,211.0460854999983,211.06224400000065,211.5622344000003,211.54577720000816,211.5533349000034,211.5622344000003,211.5622344000003,211.5622344000003,212.84604560000298,Foils\106a.jpg,none,n,1.2822583000088343,None,,,,,,,,00022,001,2025-11-09_12h15.12.382,MST_test,2024.2.2,59.991817113200966,2025-11-09 12h15.18.737654 +0530,
64,0,64,o,1.1013156000117306,None,64,0,64,0,212.86223120000795,,,,,,,,,,,,,,,,,,,,,,,,,,,,,,,,,,,,,,,,,,,,,,,,,,212.84613320000062,212.86223120000795,213.36219660000643,213.3457430999988,213.34904780000215,213.36219660000643,213.36219660000643,213.36219660000643,214.47916060000716,Objects\326a.jpg,pre,o,1.1013156000117306,None,,,,,,,,00022,001,2025-11-09_12h15.12.382,MST_test,2024.2.2,59.991817113200966,2025-11-09 12h15.18.737654 +0530,
65,0,65,o,1.5617294000112452,None,65,0,65,0,214.49553970000125,,,,,,,,,,,,,,,,,,,,,,,,,,,,,,,,,,,,,,,,,,,,,,,,,,214.47924270000658,214.49553970000125,214.99548490000598,214.97900530000334,214.9812096000096,214.99548490000598,214.99548490000598,214.99548490000598,216.56253730000753,Objects\085a.jpg,mid,o,1.5617294000112452,None,,,,,,,,00022,001,2025-11-09_12h15.12.382,MST_test,2024.2.2,59.991817113200966,2025-11-09 12h15.18.737654 +0530,
66,0,66,n,3.778300899997703,None,66,0,66,0,216.57879949999915,,,,,,,,,,,,,,,,,,,,,,,,,,,,,,,,,,,,,,,,,,,,,,,,,,216.56261300000187,216.57879949999915,217.0787823999999,217.06238040000608,217.07020570000168,217.0787823999999,217.0787823999999,217.0787823999999,220.86244540000916,Foils\097a.jpg,none,n,3.778300899997703,None,,,,,,,,00022,001,2025-11-09_12h15.12.382,MST_test,2024.2.2,59.991817113200966,2025-11-09 12h15.18.737654 +0530,
67,0,67,n,1.3623553000070387,None,67,0,67,0,220.87871710000036,,,,,,,,,,,,,,,,,,,,,,,,,,,,,,,,,,,,,,,,,,,,,,,,,,220.86252480000257,220.87871710000036,221.37869120000687,221.36236009999993,221.36999269999797,221.37869120000687,221.37869120000687,221.37869120000687,222.7457632000005,Foils\074a.jpg,none,n,1.3623553000070387,None,,,,,,,,00022,001,2025-11-09_12h15.12.382,MST_test,2024.2.2,59.991817113200966,2025-11-09 12h15.18.737654 +0530,
68,0,68,o,1.2934199000010267,None,68,0,68,0,222.76202999999805,,,,,,,,,,,,,,,,,,,,,,,,,,,,,,,,,,,,,,,,,,,,,,,,,,222.74585110000044,222.76202999999805,223.26199280000583,223.2456233999983,223.25674520000757,223.26199280000583,223.26199280000583,223.26199280000583,224.5622846000042,Objects\295a.jpg,pre,o,1.2934199000010267,None,,,,,,,,00022,001,2025-11-09_12h15.12.382,MST_test,2024.2.2,59.991817113200966,2025-11-09 12h15.18.737654 +0530,
69,0,69,s,1.1001943000010215,None,69,0,69,0,224.57863940000243,,,,,,,,,,,,,,,,,,,,,,,,,,,,,,,,,,,,,,,,,,,,,,,,,,224.56236570001056,224.57863940000243,225.09528050001245,225.0621467000019,225.0844373,225.09528050001245,225.09528050001245,225.09528050001245,226.2121855000005,Objects\025b.jpg,pre,s,1.1001943000010215,None,,,,,,,,00022,001,2025-11-09_12h15.12.382,MST_test,2024.2.2,59.991817113200966,2025-11-09 12h15.18.737654 +0530,
70,0,70,s,4.634369599996717,None,70,0,70,0,226.22862480000185,,,,,,,,,,,,,,,,,,,,,,,,,,,,,,,,,,,,,,,,,,,,,,,,,,226.21226660000684,226.22862480000185,226.74524270000984,226.71209739999904,226.73355000000447,226.74524270000984,226.74524270000984,226.74524270000984,231.3954434000043,Objects\191b.jpg,mid,s,4.634369599996717,None,,,,,,,,00022,001,2025-11-09_12h15.12.382,MST_test,2024.2.2,59.991817113200966,2025-11-09 12h15.18.737654 +0530,
71,0,71,s,4.777888199998415,None,71,0,71,0,231.41185140000016,,,,,,,,,,,,,,,,,,,,,,,,,,,,,,,,,,,,,,,,,,,,,,,,,,231.3955244000099,231.41185140000016,231.94520290000946,231.89538950000133,231.9031294000015,231.94520290000946,231.94520290000946,231.94520290000946,236.72875470000145,Foils\042a.jpg,none,s,4.777888199998415,None,,,,,,,,00022,001,2025-11-09_12h15.12.382,MST_test,2024.2.2,59.991817113200966,2025-11-09 12h15.18.737654 +0530,
72,0,72,n,4.9396913000091445,None,72,0,72,0,236.74507160000212,,,,,,,,,,,,,,,,,,,,,,,,,,,,,,,,,,,,,,,,,,,,,,,,,,236.72883540000475,236.74507160000212,237.24507119999907,237.2286807000055,237.23670890000358,237.24507119999907,237.24507119999907,237.24507119999907,242.19525230000727,Foils\090a.jpg,none,n,4.9396913000091445,None,,,,,,,,00022,001,2025-11-09_12h15.12.382,MST_test,2024.2.2,59.991817113200966,2025-11-09 12h15.18.737654 +0530,
73,0,73,s,1.1661779999994906,None,73,0,73,0,242.21157310000854,,,,,,,,,,,,,,,,,,,,,,,,,,,,,,,,,,,,,,,,,,,,,,,,,,242.19534470001236,242.21157310000854,242.72823570000764,242.6952287000022,242.7118169000023,242.72823570000764,242.72823570000764,242.72823570000764,243.89526309999928,Objects\186b.jpg,pre,s,1.1661779999994906,None,,,,,,,,00022,001,2025-11-09_12h15.12.382,MST_test,2024.2.2,59.991817113200966,2025-11-09 12h15.18.737654 +0530,
74,0,74,s,2.649318299998413,None,74,0,74,0,243.91153360001044,,,,,,,,,,,,,,,,,,,,,,,,,,,,,,,,,,,,,,,,,,,,,,,,,,243.89535270001215,243.91153360001044,244.41152580000926,244.39515510000638,244.40291220000654,244.41152580000926,244.41152580000926,244.41152580000926,247.0618617,Objects\036b.jpg,pre,s,2.649318299998413,None,,,,,,,,00022,001,2025-11-09_12h15.12.382,MST_test,2024.2.2,59.991817113200966,2025-11-09 12h15.18.737654 +0530,
75,0,75,o,2.590831600013189,None,75,0,75,0,247.07818290000432,,,,,,,,,,,,,,,,,,,,,,,,,,,,,,,,,,,,,,,,,,,,,,,,,,247.06193680000433,247.07818290000432,247.57812099999865,247.5616602000082,247.57261230000586,247.57812099999865,247.57812099999865,247.57812099999865,250.17843320000975,Objects\288a.jpg,pre,o,2.590831600013189,None,,,,,,,,00022,001,2025-11-09_12h15.12.382,MST_test,2024.2.2,59.991817113200966,2025-11-09 12h15.18.737654 +0530,
76,0,76,s,1.3218633999931626,None,76,0,76,0,250.19477700001153,,,,,,,,,,,,,,,,,,,,,,,,,,,,,,,,,,,,,,,,,,,,,,,,,,250.17851800000062,250.19477700001153,250.71141750000243,250.6783548000094,250.69523680000566,250.71141750000243,250.71141750000243,250.71141750000243,252.04508730000816,Objects\106b.jpg,mid,s,1.3218633999931626,None,,,,,,,,00022,001,2025-11-09_12h15.12.382,MST_test,2024.2.2,59.991817113200966,2025-11-09 12h15.18.737654 +0530,
77,0,77,o,4.016075899999123,None,77,0,77,0,252.0614013000013,,,,,,,,,,,,,,,,,,,,,,,,,,,,,,,,,,,,,,,,,,,,,,,,,,252.04517810000107,252.0614013000013,252.56139830000757,252.5449493000051,252.5538446999999,252.56139830000757,252.56139830000757,252.56139830000757,256.5783150000061,Objects\132a.jpg,pre,o,4.016075899999123,None,,,,,,,,00022,001,2025-11-09_12h15.12.382,MST_test,2024.2.2,59.991817113200966,2025-11-09 12h15.18.737654 +0530,
78,0,78,s,5.366607099989778,None,78,0,78,0,256.59466080000857,,,,,,,,,,,,,,,,,,,,,,,,,,,,,,,,,,,,,,,,,,,,,,,,,,256.57840370001213,256.59466080000857,257.0945625000022,257.0782254000078,257.08968480001204,257.0945625000022,257.0945625000022,257.0945625000022,262.46166359999916,Objects\359a.jpg,mid,s,5.366607099989778,None,,,,,,,,00022,001,2025-11-09_12h15.12.382,MST_test,2024.2.2,59.991817113200966,2025-11-09 12h15.18.737654 +0530,
79,0,79,s,1.3708722000010312,None,79,0,79,0,262.4778587000037,,,,,,,,,,,,,,,,,,,,,,,,,,,,,,,,,,,,,,,,,,,,,,,,,,262.4617491000099,262.4778587000037,262.99449019999884,262.9613175000122,262.9781503999984,262.99449019999884,262.99449019999884,262.99449019999884,264.3780725000106,Objects\045b.jpg,pre,s,1.3708722000010312,None,,,,,,,,00022,001,2025-11-09_12h15.12.382,MST_test,2024.2.2,59.991817113200966,2025-11-09 12h15.18.737654 +0530,
80,0,80,o,1.0344130000012228,None,80,0,80,0,264.39447250000376,,,,,,,,,,,,,,,,,,,,,,,,,,,,,,,,,,,,,,,,,,,,,,,,,,264.3781483000057,264.39447250000376,264.91110930001014,264.8780928000051,264.8985046000016,264.91110930001014,264.91110930001014,264.91110930001014,265.96148990000074,Objects\213b.jpg,post,o,1.0344130000012228,None,,,,,,,,00022,001,2025-11-09_12h15.12.382,MST_test,2024.2.2,59.991817113200966,2025-11-09 12h15.18.737654 +0530,
81,0,81,o,0.8555762999894796,None,81,0,81,0,265.97775450001063,,,,,,,,,,,,,,,,,,,,,,,,,,,,,,,,,,,,,,,,,,,,,,,,,,265.9615640999982,265.97775450001063,266.4777580000082,266.4612439000048,266.466299000007,266.4777580000082,266.4777580000082,266.4777580000082,267.3447046000074,Objects\031a.jpg,post,o,0.8555762999894796,None,,,,,,,,00022,001,2025-11-09_12h15.12.382,MST_test,2024.2.2,59.991817113200966,2025-11-09 12h15.18.737654 +0530,
82,0,82,n,3.9337402999954065,None,82,0,82,0,267.36106340000697,,,,,,,,,,,,,,,,,,,,,,,,,,,,,,,,,,,,,,,,,,,,,,,,,,267.3447763000004,267.36106340000697,267.8610852999991,267.8445339000027,267.85223110001243,267.8610852999991,267.8610852999991,267.8610852999991,271.8112497000111,Foils\026a.jpg,none,n,3.9337402999954065,None,,,,,,,,00022,001,2025-11-09_12h15.12.382,MST_test,2024.2.2,59.991817113200966,2025-11-09 12h15.18.737654 +0530,
83,0,83,s,2.030475399995339,None,83,0,83,0,271.8276363000041,,,,,,,,,,,,,,,,,,,,,,,,,,,,,,,,,,,,,,,,,,,,,,,,,,271.8113247000001,271.8276363000041,272.3442674000107,272.3112160000019,272.3312042000034,272.3442674000107,272.3442674000107,272.3442674000107,274.3778326000029,Objects\028b.jpg,mid,s,2.030475399995339,None,,,,,,,,00022,001,2025-11-09_12h15.12.382,MST_test,2024.2.2,59.991817113200966,2025-11-09 12h15.18.737654 +0530,
84,0,84,o,0.9365923000004841,None,84,0,84,0,274.39425420000043,,,,,,,,,,,,,,,,,,,,,,,,,,,,,,,,,,,,,,,,,,,,,,,,,,274.3779096000071,274.39425420000043,274.89420419999806,274.8778383000026,274.8830144000094,274.89420419999806,274.89420419999806,274.89420419999806,275.844617499999,Objects\238a.jpg,mid,o,0.9365923000004841,None,,,,,,,,00022,001,2025-11-09_12h15.12.382,MST_test,2024.2.2,59.991817113200966,2025-11-09 12h15.18.737654 +0530,
85,0,85,n,1.3394807999866316,None,85,0,85,0,275.86089190001076,,,,,,,,,,,,,,,,,,,,,,,,,,,,,,,,,,,,,,,,,,,,,,,,,,275.84470000000147,275.86089190001076,276.37750550000055,276.34441630000947,276.3560587000102,276.37750550000055,276.37750550000055,276.37750550000055,277.72774709999794,Foils\020b.jpg,none,n,1.3394807999866316,None,,,,,,,,00022,001,2025-11-09_12h15.12.382,MST_test,2024.2.2,59.991817113200966,2025-11-09 12h15.18.737654 +0530,
86,0,86,o,0.9991500000032829,None,86,0,86,0,277.7442187000124,,,,,,,,,,,,,,,,,,,,,,,,,,,,,,,,,,,,,,,,,,,,,,,,,,277.72783000000345,277.7442187000124,278.24407169999904,278.22779800000717,278.2391443000088,278.24407169999904,278.24407169999904,278.24407169999904,279.24460220000765,Objects\333b.jpg,post,o,0.9991500000032829,None,,,,,,,,00022,001,2025-11-09_12h15.12.382,MST_test,2024.2.2,59.991817113200966,2025-11-09 12h15.18.737654 +0530,
87,0,87,s,1.0629809000092791,None,87,0,87,0,279.2608191000036,,,,,,,,,,,,,,,,,,,,,,,,,,,,,,,,,,,,,,,,,,,,,,,,,,279.24468290001096,279.2608191000036,279.77758140000515,279.7445943000057,279.76492440000584,279.77758140000515,279.77758140000515,279.77758140000515,280.8444974000013,Objects\212b.jpg,mid,s,1.0629809000092791,None,,,,,,,,00022,001,2025-11-09_12h15.12.382,MST_test,2024.2.2,59.991817113200966,2025-11-09 12h15.18.737654 +0530,
88,0,88,s,1.1773811000020942,None,88,0,88,0,280.86086200000136,,,,,,,,,,,,,,,,,,,,,,,,,,,,,,,,,,,,,,,,,,,,,,,,,,280.8445727000071,280.86086200000136,281.377515900007,281.3444004000048,281.36539489999996,281.377515900007,281.377515900007,281.377515900007,282.561246199999,Objects\335b.jpg,post,s,1.1773811000020942,None,,,,,,,,00022,001,2025-11-09_12h15.12.382,MST_test,2024.2.2,59.991817113200966,2025-11-09 12h15.18.737654 +0530,
89,0,89,s,1.3316855000011856,None,89,0,89,0,282.57746630000474,,,,,,,,,,,,,,,,,,,,,,,,,,,,,,,,,,,,,,,,,,,,,,,,,,282.56133430000045,282.57746630000474,283.094176700004,283.0609614999994,283.0813144999993,283.094176700004,283.094176700004,283.094176700004,284.42787270000554,Objects\114b.jpg,pre,s,1.3316855000011856,None,,,,,,,,00022,001,2025-11-09_12h15.12.382,MST_test,2024.2.2,59.991817113200966,2025-11-09 12h15.18.737654 +0530,
90,0,90,s,1.378729200005182,None,90,0,90,0,284.44412179999927,,,,,,,,,,,,,,,,,,,,,,,,,,,,,,,,,,,,,,,,,,,,,,,,,,284.4279576000117,284.44412179999927,284.94408580000163,284.9276333000016,284.93560550000984,284.94408580000163,284.94408580000163,284.94408580000163,286.32770880000317,Objects\072b.jpg,mid,s,1.378729200005182,None,,,,,,,,00022,001,2025-11-09_12h15.12.382,MST_test,2024.2.2,59.991817113200966,2025-11-09 12h15.18.737654 +0530,
91,0,91,o,1.0896856999897864,None,91,0,91,0,286.34407700000156,,,,,,,,,,,,,,,,,,,,,,,,,,,,,,,,,,,,,,,,,,,,,,,,,,286.32778690000123,286.34407700000156,286.84399069999927,286.8277076000086,286.8384545000008,286.84399069999927,286.84399069999927,286.84399069999927,287.94430440000724,Objects\205a.jpg,pre,o,1.0896856999897864,None,,,,,,,,00022,001,2025-11-09_12h15.12.382,MST_test,2024.2.2,59.991817113200966,2025-11-09 12h15.18.737654 +0530,
92,0,92,s,1.4234207999979844,None,92,0,92,0,287.9607653999992,,,,,,,,,,,,,,,,,,,,,,,,,,,,,,,,,,,,,,,,,,,,,,,,,,287.9443792000093,287.9607653999992,288.47734950001177,288.44432600001164,288.46838400000706,288.47734950001177,288.47734950001177,288.47734950001177,289.91092480000225,Objects\246b.jpg,pre,s,1.4234207999979844,None,,,,,,,,00022,001,2025-11-09_12h15.12.382,MST_test,2024.2.2,59.991817113200966,2025-11-09 12h15.18.737654 +0530,
93,0,93,s,1.1608066999906441,None,93,0,93,0,289.9273780000076,,,,,,,,,,,,,,,,,,,,,,,,,,,,,,,,,,,,,,,,,,,,,,,,,,289.91100800001004,289.9273780000076,290.44398860000365,290.4107961000118,290.4357847000065,290.44398860000365,290.44398860000365,290.44398860000365,291.6109080000024,Objects\322b.jpg,post,s,1.1608066999906441,None,,,,,,,,00022,001,2025-11-09_12h15.12.382,MST_test,2024.2.2,59.991817113200966,2025-11-09 12h15.18.737654 +0530,
94,0,94,s,1.1460495999926934,None,94,0,94,0,291.62732450000476,,,,,,,,,,,,,,,,,,,,,,,,,,,,,,,,,,,,,,,,,,,,,,,,,,291.61098969999875,291.62732450000476,292.12688180000987,292.110772,292.1214536000043,292.12688180000987,292.12688180000987,292.12688180000987,293.27766040001006,Objects\039b.jpg,mid,s,1.1460495999926934,None,,,,,,,,00022,001,2025-11-09_12h15.12.382,MST_test,2024.2.2,59.991817113200966,2025-11-09 12h15.18.737654 +0530,
95,0,95,o,2.780399999988731,None,95,0,95,0,293.29390460001014,,,,,,,,,,,,,,,,,,,,,,,,,,,,,,,,,,,,,,,,,,,,,,,,,,293.2777391999989,293.29390460001014,293.81055990001187,293.77750460000243,293.78980270000466,293.81055990001187,293.81055990001187,293.81055990001187,296.59423550000065,Objects\259a.jpg,mid,o,2.780399999988731,None,,,,,,,,00022,001,2025-11-09_12h15.12.382,MST_test,2024.2.2,59.991817113200966,2025-11-09 12h15.18.737654 +0530,
96,0,96,s,5.225086999998894,None,96,0,96,0,296.61057200000505,,,,,,,,,,,,,,,,,,,,,,,,,,,,,,,,,,,,,,,,,,,,,,,,,,296.59431820000464,296.61057200000505,297.1104864000081,297.09395520000544,297.10392340000544,297.1104864000081,297.1104864000081,297.1104864000081,302.34420079999836,Objects\260b.jpg,mid,s,5.225086999998894,None,,,,,,,,00022,001,2025-11-09_12h15.12.382,MST_test,2024.2.2,59.991817113200966,2025-11-09 12h15.18.737654 +0530,
97,0,97,s,1.2804472999996506,None,97,0,97,0,302.3603390000062,,,,,,,,,,,,,,,,,,,,,,,,,,,,,,,,,,,,,,,,,,,,,,,,,,302.34428710000066,302.3603390000062,302.87703090001014,302.844010300003,302.86748340001213,302.87703090001014,302.87703090001014,302.87703090001014,304.1606332000083,Objects\373b.jpg,post,s,1.2804472999996506,None,,,,,,,,00022,001,2025-11-09_12h15.12.382,MST_test,2024.2.2,59.991817113200966,2025-11-09 12h15.18.737654 +0530,
98,0,98,s,1.7799787000112701,None,98,0,98,0,304.1770286000101,,,,,,,,,,,,,,,,,,,,,,,,,,,,,,,,,,,,,,,,,,,,,,,,,,304.16070639999816,304.1770286000101,304.67702400000417,304.66054460000305,304.6655170000013,304.67702400000417,304.67702400000417,304.67702400000417,306.4607579000003,Objects\334a.jpg,mid,s,1.7799787000112701,None,,,,,,,,00022,001,2025-11-09_12h15.12.382,MST_test,2024.2.2,59.991817113200966,2025-11-09 12h15.18.737654 +0530,
99,0,99,n,2.1525637000013376,None,99,0,99,0,306.477083100006,,,,,,,,,,,,,,,,,,,,,,,,,,,,,,,,,,,,,,,,,,,,,,,,,,306.4608317000093,306.477083100006,306.976903200004,306.96050610000384,306.9682264000003,306.976903200004,306.976903200004,306.976903200004,309.1440583000076,Foils\017a.jpg,none,n,2.1525637000013376,None,,,,,,,,00022,001,2025-11-09_12h15.12.382,MST_test,2024.2.2,59.991817113200966,2025-11-09 12h15.18.737654 +0530,
100,0,100,o,1.5299126999889268,None,100,0,100,0,309.1603039000038,,,,,,,,,,,,,,,,,,,,,,,,,,,,,,,,,,,,,,,,,,,,,,,,,,309.14413950000016,309.1603039000038,309.67688780000026,309.6437911000103,309.66477660000965,309.67688780000026,309.67688780000026,309.67688780000026,311.2105469000089,Objects\057b.jpg,mid,o,1.5299126999889268,None,,,,,,,,00022,001,2025-11-09_12h15.12.382,MST_test,2024.2.2,59.991817113200966,2025-11-09 12h15.18.737654 +0530,
101,0,101,o,1.2526084000128321,None,101,0,101,0,311.22678460000316,,,,,,,,,,,,,,,,,,,,,,,,,,,,,,,,,,,,,,,,,,,,,,,,,,311.21063450000656,311.22678460000316,311.7268374999985,311.71038319999934,311.71238750001066,311.7268374999985,311.7268374999985,311.7268374999985,312.9938366999995,Objects\032a.jpg,post,o,1.2526084000128321,None,,,,,,,,00022,001,2025-11-09_12h15.12.382,MST_test,2024.2.2,59.991817113200966,2025-11-09 12h15.18.737654 +0530,
102,0,102,o,0.8940527000086149,None,102,0,102,0,313.0101772000053,,,,,,,,,,,,,,,,,,,,,,,,,,,,,,,,,,,,,,,,,,,,,,,,,,312.99391740000283,313.0101772000053,313.52680380000675,313.4936408000067,313.5074717000098,313.52680380000675,313.52680380000675,313.52680380000675,314.4270935000095,Objects\297a.jpg,pre,o,0.8940527000086149,None,,,,,,,,00022,001,2025-11-09_12h15.12.382,MST_test,2024.2.2,59.991817113200966,2025-11-09 12h15.18.737654 +0530,
103,0,103,s,2.3456186999974307,None,103,0,103,0,314.44347520000883,,,,,,,,,,,,,,,,,,,,,,,,,,,,,,,,,,,,,,,,,,,,,,,,,,314.4271659000078,314.44347520000883,314.96010979999846,314.92697880000924,314.945544400005,314.96010979999846,314.96010979999846,314.96010979999846,317.3104602000094,Objects\165b.jpg,mid,s,2.3456186999974307,None,,,,,,,,00022,001,2025-11-09_12h15.12.382,MST_test,2024.2.2,59.991817113200966,2025-11-09 12h15.18.737654 +0530,
104,0,104,s,1.2243027999938931,None,104,0,104,0,317.32671530000516,,,,,,,,,,,,,,,,,,,,,,,,,,,,,,,,,,,,,,,,,,,,,,,,,,317.3105402000074,317.32671530000516,317.82665890001226,317.81024200000684,317.8198216000019,317.82665890001226,317.82665890001226,317.82665890001226,319.0604533000005,Objects\367a.jpg,pre,s,1.2243027999938931,None,,,,,,,,00022,001,2025-11-09_12h15.12.382,MST_test,2024.2.2,59.991817113200966,2025-11-09 12h15.18.737654 +0530,
105,0,105,o,0.8626547000021674,None,105,0,105,0,319.0767480000068,,,,,,,,,,,,,,,,,,,,,,,,,,,,,,,,,,,,,,,,,,,,,,,,,,319.060527499998,319.0767480000068,319.57667460000084,319.56012069999997,319.56433990001096,319.57667460000084,319.57667460000084,319.57667460000084,320.44367670000065,Objects\291a.jpg,pre,o,0.8626547000021674,None,,,,,,,,00022,001,2025-11-09_12h15.12.382,MST_test,2024.2.2,59.991817113200966,2025-11-09 12h15.18.737654 +0530,
106,0,106,n,2.8393396999890683,None,106,0,106,0,320.4600625000021,,,,,,,,,,,,,,,,,,,,,,,,,,,,,,,,,,,,,,,,,,,,,,,,,,320.44375140000193,320.4600625000021,320.97657290000643,320.9435222000029,320.9652319000015,320.97657290000643,320.97657290000643,320.97657290000643,323.8268412000034,Foils\f5.jpg,none,n,2.8393396999890683,None,,,,,,,,00022,001,2025-11-09_12h15.12.382,MST_test,2024.2.2,59.991817113200966,2025-11-09 12h15.18.737654 +0530,
107,0,107,n,1.120871699997224,None,107,0,107,0,323.8431854000082,,,,,,,,,,,,,,,,,,,,,,,,,,,,,,,,,,,,,,,,,,,,,,,,,,323.8269219000067,323.8431854000082,324.3598987000005,324.3267979000084,324.3382207000104,324.3598987000005,324.3598987000005,324.3598987000005,325.4935269999987,Foils\002a.jpg,none,n,1.120871699997224,None,,,,,,,,00022,001,2025-11-09_12h15.12.382,MST_test,2024.2.2,59.991817113200966,2025-11-09 12h15.18.737654 +0530,
108,0,108,s,2.868161299993517,None,108,0,108,0,325.5099048999982,,,,,,,,,,,,,,,,,,,,,,,,,,,,,,,,,,,,,,,,,,,,,,,,,,325.49360549999983,325.5099048999982,326.0265587000031,325.99348630000895,326.00890680000884,326.0265587000031,326.0265587000031,326.0265587000031,328.9100562000094,Objects\343b.jpg,mid,s,2.868161299993517,None,,,,,,,,00022,001,2025-11-09_12h15.12.382,MST_test,2024.2.2,59.991817113200966,2025-11-09 12h15.18.737654 +0530,
109,0,109,o,1.0782125999976415,None,109,0,109,0,328.92640520000714,,,,,,,,,,,,,,,,,,,,,,,,,,,,,,,,,,,,,,,,,,,,,,,,,,328.9101523999998,328.92640520000714,329.4430743999983,329.4100111000007,329.4213421000022,329.4430743999983,329.4430743999983,329.4430743999983,330.52669720000995,Objects\113a.jpg,post,o,1.0782125999976415,None,,,,,,,,00022,001,2025-11-09_12h15.12.382,MST_test,2024.2.2,59.991817113200966,2025-11-09 12h15.18.737654 +0530,
110,0,110,s,1.167983200008166,None,110,0,110,0,330.54310510000505,,,,,,,,,,,,,,,,,,,,,,,,,,,,,,,,,,,,,,,,,,,,,,,,,,330.5267833000107,330.54310510000505,331.04309010000725,331.0266058999987,331.0342934000073,331.04309010000725,331.04309010000725,331.04309010000725,332.2267552000121,Objects\050b.jpg,pre,s,1.167983200008166,None,,,,,,,,00022,001,2025-11-09_12h15.12.382,MST_test,2024.2.2,59.991817113200966,2025-11-09 12h15.18.737654 +0530,
111,0,111,o,0.9021251000085613,None,111,0,111,0,332.2431263000035,,,,,,,,,,,,,,,,,,,,,,,,,,,,,,,,,,,,,,,,,,,,,,,,,,332.2268320000003,332.2431263000035,332.74306320000323,332.726642900001,332.73423750000075,332.74306320000323,332.74306320000323,332.74306320000323,333.65997760000755,Objects\173a.jpg,mid,o,0.9021251000085613,None,,,,,,,,00022,001,2025-11-09_12h15.12.382,MST_test,2024.2.2,59.991817113200966,2025-11-09 12h15.18.737654 +0530,
112,0,112,s,0.886742000002414,None,112,0,112,0,333.6764269999985,,,,,,,,,,,,,,,,,,,,,,,,,,,,,,,,,,,,,,,,,,,,,,,,,,333.66005660001247,333.6764269999985,334.1759747000033,334.1599922000023,334.17061070000636,334.1759747000033,334.1759747000033,334.1759747000033,335.07662130000244,Objects\364b.jpg,pre,s,0.886742000002414,None,,,,,,,,00022,001,2025-11-09_12h15.12.382,MST_test,2024.2.2,59.991817113200966,2025-11-09 12h15.18.737654 +0530,
113,0,113,n,1.2124528999993345,None,113,0,113,0,335.0930757000024,,,,,,,,,,,,,,,,,,,,,,,,,,,,,,,,,,,,,,,,,,,,,,,,,,335.07670540000254,335.0930757000024,335.5925120000029,335.5764780000027,335.58759660000214,335.5925120000029,335.5925120000029,335.5925120000029,336.81005540001206,Foils\101b.jpg,none,n,1.2124528999993345,None,,,,,,,,00022,001,2025-11-09_12h15.12.382,MST_test,2024.2.2,59.991817113200966,2025-11-09 12h15.18.737654 +0530,
114,0,114,o,0.9155500999913784,None,114,0,114,0,336.8263752000057,,,,,,,,,,,,,,,,,,,,,,,,,,,,,,,,,,,,,,,,,,,,,,,,,,336.8101297000103,336.8263752000057,337.3262931000063,337.30983270000434,337.3172779000015,337.3262931000063,337.3262931000063,337.3262931000063,338.2434157000098,Objects\369a.jpg,pre,o,0.9155500999913784,None,,,,,,,,00022,001,2025-11-09_12h15.12.382,MST_test,2024.2.2,59.991817113200966,2025-11-09 12h15.18.737654 +0530,
115,0,115,n,1.0658148999937112,None,115,0,115,0,338.25959980000334,,,,,,,,,,,,,,,,,,,,,,,,,,,,,,,,,,,,,,,,,,,,,,,,,,338.24349800001073,338.25959980000334,338.7595513999986,338.7431238999998,338.750429000007,338.7595513999986,338.7595513999986,338.7595513999986,339.82650280000234,Foils\121a.jpg,none,n,1.0658148999937112,None,,,,,,,,00022,001,2025-11-09_12h15.12.382,MST_test,2024.2.2,59.991817113200966,2025-11-09 12h15.18.737654 +0530,
116,0,116,s,3.790339099999983,None,116,0,116,0,339.8428391000052,,,,,,,,,,,,,,,,,,,,,,,,,,,,,,,,,,,,,,,,,,,,,,,,,,339.826584200011,339.8428391000052,340.34279910000623,340.3264429000119,340.3369512000063,340.34279910000623,340.34279910000623,340.34279910000623,344.1430735000031,Objects\381a.jpg,mid,s,3.790339099999983,None,,,,,,,,00022,001,2025-11-09_12h15.12.382,MST_test,2024.2.2,59.991817113200966,2025-11-09 12h15.18.737654 +0530,
117,0,117,s,1.2868411999952514,None,117,0,117,0,344.15941340000427,,,,,,,,,,,,,,,,,,,,,,,,,,,,,,,,,,,,,,,,,,,,,,,,,,344.14316070001223,344.15941340000427,344.67603830000735,344.64294289999816,344.6678291999997,344.67603830000735,344.67603830000735,344.67603830000735,345.976398800005,Objects\285b.jpg,mid,s,1.2868411999952514,None,,,,,,,,00022,001,2025-11-09_12h15.12.382,MST_test,2024.2.2,59.991817113200966,2025-11-09 12h15.18.737654 +0530,
118,0,118,s,1.0818546999944374,None,118,0,118,0,345.99272070000006,,,,,,,,,,,,,,,,,,,,,,,,,,,,,,,,,,,,,,,,,,,,,,,,,,345.9764858999988,345.99272070000006,346.509335300012,346.4762226000021,346.49232889999985,346.509335300012,346.509335300012,346.509335300012,347.5929666000011,Foils\f6.jpg,none,s,1.0818546999944374,None,,,,,,,,00022,001,2025-11-09_12h15.12.382,MST_test,2024.2.2,59.991817113200966,2025-11-09 12h15.18.737654 +0530,
119,0,119,o,1.0073778000078164,None,119,0,119,0,347.60934030001226,,,,,,,,,,,,,,,,,,,,,,,,,,,,,,,,,,,,,,,,,,,,,,,,,,347.5930506000004,347.60934030001226,348.10929490000126,348.09287180000683,348.09811289999925,348.10929490000126,348.10929490000126,348.10929490000126,349.1264005000121,Objects\184a.jpg,post,o,1.0073778000078164,None,,,,,,,,00022,001,2025-11-09_12h15.12.382,MST_test,2024.2.2,59.991817113200966,2025-11-09 12h15.18.737654 +0530,
120,0,120,s,1.9530208999931347,None,120,0,120,0,349.14263500001107,,,,,,,,,,,,,,,,,,,,,,,,,,,,,,,,,,,,,,,,,,,,,,,,,,349.1264751999988,349.14263500001107,349.64259180000226,349.6261947000021,349.63393409999844,349.64259180000226,349.64259180000226,349.64259180000226,351.60962160000054,Foils\057a.jpg,none,s,1.9530208999931347,None,,,,,,,,00022,001,2025-11-09_12h15.12.382,MST_test,2024.2.2,59.991817113200966,2025-11-09 12h15.18.737654 +0530,
121,0,121,n,1.2246856999990996,None,121,0,121,0,351.62592730000324,,,,,,,,,,,,,,,,,,,,,,,,,,,,,,,,,,,,,,,,,,,,,,,,,,351.60970840000664,351.62592730000324,352.12593670000206,352.1094814000098,352.1170286999986,352.12593670000206,352.12593670000206,352.12593670000206,353.3594989999983,Foils\113a.jpg,none,n,1.2246856999990996,None,,,,,,,,00022,001,2025-11-09_12h15.12.382,MST_test,2024.2.2,59.991817113200966,2025-11-09 12h15.18.737654 +0530,
122,0,122,o,1.267173999993247,None,122,0,122,0,353.3758863000112,,,,,,,,,,,,,,,,,,,,,,,,,,,,,,,,,,,,,,,,,,,,,,,,,,353.3595784000063,353.3758863000112,353.87583879999875,353.8594887000072,353.86177780000435,353.87583879999875,353.87583879999875,353.87583879999875,355.15955470000335,Objects\162a.jpg,pre,o,1.267173999993247,None,,,,,,,,00022,001,2025-11-09_12h15.12.382,MST_test,2024.2.2,59.991817113200966,2025-11-09 12h15.18.737654 +0530,
123,0,123,o,1.1191933999944013,None,123,0,123,0,355.1758506000042,,,,,,,,,,,,,,,,,,,,,,,,,,,,,,,,,,,,,,,,,,,,,,,,,,355.1596688999998,355.1758506000042,355.6758206000086,355.6593998000026,355.6670268000016,355.6758206000086,355.6758206000086,355.6758206000086,356.8095229000028,Objects\146a.jpg,mid,o,1.1191933999944013,None,,,,,,,,00022,001,2025-11-09_12h15.12.382,MST_test,2024.2.2,59.991817113200966,2025-11-09 12h15.18.737654 +0530,
124,0,124,o,0.9970437999872956,None,124,0,124,0,356.8258046000119,,,,,,,,,,,,,,,,,,,,,,,,,,,,,,,,,,,,,,,,,,,,,,,,,,356.80959740000253,356.8258046000119,357.3424343000079,357.30935390001105,357.32942360000743,357.3424343000079,357.3424343000079,357.3424343000079,358.342802500003,Objects\116b.jpg,post,o,0.9970437999872956,None,,,,,,,,00022,001,2025-11-09_12h15.12.382,MST_test,2024.2.2,59.991817113200966,2025-11-09 12h15.18.737654 +0530,
125,0,125,o,0.9637317000015173,None,125,0,125,0,358.35910700001114,,,,,,,,,,,,,,,,,,,,,,,,,,,,,,,,,,,,,,,,,,,,,,,,,,358.3428780000104,358.35910700001114,358.8590644000069,358.84265289999894,358.8502168000123,358.8590644000069,358.8590644000069,358.8590644000069,359.82609590000357,Objects\141a.jpg,pre,o,0.9637317000015173,None,,,,,,,,00022,001,2025-11-09_12h15.12.382,MST_test,2024.2.2,59.991817113200966,2025-11-09 12h15.18.737654 +0530,
126,0,126,s,1.9684069999930216,None,126,0,126,0,359.84240480000153,,,,,,,,,,,,,,,,,,,,,,,,,,,,,,,,,,,,,,,,,,,,,,,,,,359.8261712000094,359.84240480000153,360.3423688000039,360.32597499999974,360.33329429999867,360.3423688000039,360.3423688000039,360.3423688000039,362.32604939999874,Objects\140a.jpg,post,s,1.9684069999930216,None,,,,,,,,00022,001,2025-11-09_12h15.12.382,MST_test,2024.2.2,59.991817113200966,2025-11-09 12h15.18.737654 +0530,
127,0,127,n,1.2228490999987116,None,127,0,127,0,362.3423518000054,,,,,,,,,,,,,,,,,,,,,,,,,,,,,,,,,,,,,,,,,,,,,,,,,,362.3261241,362.3423518000054,362.8423715000099,362.8258887999982,362.8333469000063,362.8423715000099,362.8423715000099,362.8423715000099,364.07600460000685,Foils\086a.jpg,none,n,1.2228490999987116,None,,,,,,,,00022,001,2025-11-09_12h15.12.382,MST_test,2024.2.2,59.991817113200966,2025-11-09 12h15.18.737654 +0530,
128,0,128,n,1.8085456999979215,None,128,0,128,0,364.0923191000038,,,,,,,,,,,,,,,,,,,,,,,,,,,,,,,,,,,,,,,,,,,,,,,,,,364.07608900000923,364.0923191000038,364.5922896999982,364.5758307000069,364.5835844000103,364.5922896999982,364.5922896999982,364.5922896999982,366.40923050000856,Foils\066a.jpg,none,n,1.8085456999979215,None,,,,,,,,00022,001,2025-11-09_12h15.12.382,MST_test,2024.2.2,59.991817113200966,2025-11-09 12h15.18.737654 +0530,
129,0,129,n,1.1192330999911064,None,129,0,129,0,366.4256000000023,,,,,,,,,,,,,,,,,,,,,,,,,,,,,,,,,,,,,,,,,,,,,,,,,,366.4093133999995,366.4256000000023,366.9255753000034,366.90917750001245,366.91638390001026,366.9255753000034,366.9255753000034,366.9255753000034,368.05930459999945,Foils\034a.jpg,none,n,1.1192330999911064,None,,,,,,,,00022,001,2025-11-09_12h15.12.382,MST_test,2024.2.2,59.991817113200966,2025-11-09 12h15.18.737654 +0530,
130,0,130,o,1.1597008999960963,None,130,0,130,0,368.07556550001027,,,,,,,,,,,,,,,,,,,,,,,,,,,,,,,,,,,,,,,,,,,,,,,,,,368.0593785000092,368.07556550001027,368.5755194000085,368.55908200000704,368.5635844000062,368.5755194000085,368.5755194000085,368.5755194000085,369.74258610000834,Objects\287a.jpg,mid,o,1.1597008999960963,None,,,,,,,,00022,001,2025-11-09_12h15.12.382,MST_test,2024.2.2,59.991817113200966,2025-11-09 12h15.18.737654 +0530,
131,0,131,o,3.86785169999348,None,131,0,131,0,369.7589547000098,,,,,,,,,,,,,,,,,,,,,,,,,,,,,,,,,,,,,,,,,,,,,,,,,,369.742671400003,369.7589547000098,370.2589348000038,370.24234960001195,370.25140510000347,370.2589348000038,370.2589348000038,370.2589348000038,374.14255990000675,Objects\292a.jpg,post,o,3.86785169999348,None,,,,,,,,00022,001,2025-11-09_12h15.12.382,MST_test,2024.2.2,59.991817113200966,2025-11-09 12h15.18.737654 +0530,
132,0,132,o,1.8377781999879517,None,132,0,132,0,374.158886300007,,,,,,,,,,,,,,,,,,,,,,,,,,,,,,,,,,,,,,,,,,,,,,,,,,374.14264370000456,374.158886300007,374.67549960000906,374.64238010000554,374.65489800000796,374.67549960000906,374.67549960000906,374.67549960000906,376.52572679999867,Objects\342b.jpg,post,o,1.8377781999879517,None,,,,,,,,00022,001,2025-11-09_12h15.12.382,MST_test,2024.2.2,59.991817113200966,2025-11-09 12h15.18.737654 +0530,
133,0,133,o,0.9212341000093147,None,133,0,133,0,376.5421326000069,,,,,,,,,,,,,,,,,,,,,,,,,,,,,,,,,,,,,,,,,,,,,,,,,,376.52580980000494,376.5421326000069,377.04212740001094,377.02571260000695,377.0301610000024,377.04212740001094,377.04212740001094,377.04212740001094,377.9756947999995,Objects\277a.jpg,post,o,0.9212341000093147,None,,,,,,,,00022,001,2025-11-09_12h15.12.382,MST_test,2024.2.2,59.991817113200966,2025-11-09 12h15.18.737654 +0530,
134,0,134,o,0.8589052000024822,None,134,0,134,0,377.9921052999998,,,,,,,,,,,,,,,,,,,,,,,,,,,,,,,,,,,,,,,,,,,,,,,,,,377.9757767000119,377.9921052999998,378.4920692000014,378.47566599999845,378.48050360000343,378.4920692000014,378.4920692000014,378.4920692000014,379.35905170001206,Objects\177a.jpg,pre,o,0.8589052000024822,None,,,,,,,,00022,001,2025-11-09_12h15.12.382,MST_test,2024.2.2,59.991817113200966,2025-11-09 12h15.18.737654 +0530,
135,0,135,o,1.3212192999926629,None,135,0,135,0,379.37546640000073,,,,,,,,,,,,,,,,,,,,,,,,,,,,,,,,,,,,,,,,,,,,,,,,,,379.3591255000065,379.37546640000073,379.89205180000863,379.85896130000765,379.87238040000375,379.89205180000863,379.89205180000863,379.89205180000863,381.2257098000118,Objects\236a.jpg,mid,o,1.3212192999926629,None,,,,,,,,00022,001,2025-11-09_12h15.12.382,MST_test,2024.2.2,59.991817113200966,2025-11-09 12h15.18.737654 +0530,
136,0,136,s,3.1822428000014042,None,136,0,136,0,381.2420732000028,,,,,,,,,,,,,,,,,,,,,,,,,,,,,,,,,,,,,,,,,,,,,,,,,,381.22579029999906,381.2420732000028,381.74154210000415,381.72548170000664,381.7363802000036,381.74154210000415,381.74154210000415,381.74154210000415,384.92563040000095,Objects\149a.jpg,mid,s,3.1822428000014042,None,,,,,,,,00022,001,2025-11-09_12h15.12.382,MST_test,2024.2.2,59.991817113200966,2025-11-09 12h15.18.737654 +0530,
137,0,137,o,1.3355964999936987,None,137,0,137,0,384.94191890000366,,,,,,,,,,,,,,,,,,,,,,,,,,,,,,,,,,,,,,,,,,,,,,,,,,384.92571260000113,384.94191890000366,385.44197640000493,385.4254720000026,385.4273172000103,385.44197640000493,385.44197640000493,385.44197640000493,386.79218570000376,Objects\245a.jpg,mid,o,1.3355964999936987,None,,,,,,,,00022,001,2025-11-09_12h15.12.382,MST_test,2024.2.2,59.991817113200966,2025-11-09 12h15.18.737654 +0530,
138,0,138,o,0.910587399994256,None,138,0,138,0,386.8085882000014,,,,,,,,,,,,,,,,,,,,,,,,,,,,,,,,,,,,,,,,,,,,,,,,,,386.7922682000062,386.8085882000014,387.3085426000034,387.2920555000019,387.3022062000091,387.3085426000034,387.3085426000034,387.3085426000034,388.2255184000096,Objects\284a.jpg,pre,o,0.910587399994256,None,,,,,,,,00022,001,2025-11-09_12h15.12.382,MST_test,2024.2.2,59.991817113200966,2025-11-09 12h15.18.737654 +0530,
139,0,139,n,2.881934500008356,None,139,0,139,0,388.24186180000834,,,,,,,,,,,,,,,,,,,,,,,,,,,,,,,,,,,,,,,,,,,,,,,,,,388.22560400000657,388.24186180000834,388.74179580000055,388.72551889999886,388.7355908000027,388.74179580000055,388.74179580000055,388.74179580000055,391.62549910000234,Objects\366b.jpg,pre,n,2.881934500008356,None,,,,,,,,00022,001,2025-11-09_12h15.12.382,MST_test,2024.2.2,59.991817113200966,2025-11-09 12h15.18.737654 +0530,
140,0,140,o,0.8955043000023579,None,140,0,140,0,391.6417866999982,,,,,,,,,,,,,,,,,,,,,,,,,,,,,,,,,,,,,,,,,,,,,,,,,,391.6255855000054,391.6417866999982,392.1417693000112,392.12527040000714,392.13034630000766,392.1417693000112,392.1417693000112,392.1417693000112,393.0420995000022,Objects\223a.jpg,mid,o,0.8955043000023579,None,,,,,,,,00022,001,2025-11-09_12h15.12.382,MST_test,2024.2.2,59.991817113200966,2025-11-09 12h15.18.737654 +0530,
141,0,141,o,1.2723421999980928,None,141,0,141,0,393.05841789999977,,,,,,,,,,,,,,,,,,,,,,,,,,,,,,,,,,,,,,,,,,,,,,,,,,393.0421810000116,393.05841789999977,393.5584716000012,393.5418922000099,393.5440585000033,393.5584716000012,393.5584716000012,393.5584716000012,394.8420698000118,Objects\341a.jpg,post,o,1.2723421999980928,None,,,,,,,,00022,001,2025-11-09_12h15.12.382,MST_test,2024.2.2,59.991817113200966,2025-11-09 12h15.18.737654 +0530,
142,0,142,o,0.8069710999989184,None,142,0,142,0,394.85838240000885,,,,,,,,,,,,,,,,,,,,,,,,,,,,,,,,,,,,,,,,,,,,,,,,,,394.84215219999896,394.85838240000885,395.3583682000026,395.3418786000111,395.34698230000504,395.3583682000026,395.3583682000026,395.3583682000026,396.17548600000737,Objects\249a.jpg,mid,o,0.8069710999989184,None,,,,,,,,00022,001,2025-11-09_12h15.12.382,MST_test,2024.2.2,59.991817113200966,2025-11-09 12h15.18.737654 +0530,
143,0,143,s,1.4953363999957219,None,143,0,143,0,396.19174629999907,,,,,,,,,,,,,,,,,,,,,,,,,,,,,,,,,,,,,,,,,,,,,,,,,,396.1755644000077,396.19174629999907,396.70838020001247,396.6751568000036,396.69795310001064,396.70838020001247,396.70838020001247,396.70838020001247,398.2086307999998,Objects\089b.jpg,mid,s,1.4953363999957219,None,,,,,,,,00022,001,2025-11-09_12h15.12.382,MST_test,2024.2.2,59.991817113200966,2025-11-09 12h15.18.737654 +0530,
144,0,144,s,1.40315090000513,None,144,0,144,0,398.22500430000946,,,,,,,,,,,,,,,,,,,,,,,,,,,,,,,,,,,,,,,,,,,,,,,,,,398.20871279999847,398.22500430000946,398.7249628999998,398.7085952000052,398.71611510000366,398.7249628999998,398.7249628999998,398.7249628999998,400.14190850000887,Objects\126b.jpg,mid,s,1.40315090000513,None,,,,,,,,00022,001,2025-11-09_12h15.12.382,MST_test,2024.2.2,59.991817113200966,2025-11-09 12h15.18.737654 +0530,
145,0,145,o,1.0852492999983951,None,145,0,145,0,400.15826430000016,,,,,,,,,,,,,,,,,,,,,,,,,,,,,,,,,,,,,,,,,,,,,,,,,,400.1419954000012,400.15826430000016,400.6583316000033,400.64191109999956,400.6438843000069,400.6583316000033,400.6583316000033,400.6583316000033,401.75852680001117,Objects\108a.jpg,pre,o,1.0852492999983951,None,,,,,,,,00022,001,2025-11-09_12h15.12.382,MST_test,2024.2.2,59.991817113200966,2025-11-09 12h15.18.737654 +0530,
146,0,146,s,1.293839999998454,None,146,0,146,0,401.77492890000576,,,,,,,,,,,,,,,,,,,,,,,,,,,,,,,,,,,,,,,,,,,,,,,,,,401.75860680000915,401.77492890000576,402.27488019999873,402.25836880000134,402.26758930001233,402.27488019999873,402.27488019999873,402.27488019999873,403.5753251999995,Objects\272b.jpg,pre,s,1.293839999998454,None,,,,,,,,00022,001,2025-11-09_12h15.12.382,MST_test,2024.2.2,59.991817113200966,2025-11-09 12h15.18.737654 +0530,
147,0,147,n,1.9236935000080848,None,147,0,147,0,403.59155160000955,,,,,,,,,,,,,,,,,,,,,,,,,,,,,,,,,,,,,,,,,,,,,,,,,,403.5754087000096,403.59155160000955,404.0910922000039,404.07524810000905,404.08601179999823,404.0910922000039,404.0910922000039,404.0910922000039,406.0252087000117,Foils\058a.jpg,none,n,1.9236935000080848,None,,,,,,,,00022,001,2025-11-09_12h15.12.382,MST_test,2024.2.2,59.991817113200966,2025-11-09 12h15.18.737654 +0530,
148,0,148,s,1.4283302999974694,None,148,0,148,0,406.04152880000765,,,,,,,,,,,,,,,,,,,,,,,,,,,,,,,,,,,,,,,,,,,,,,,,,,406.025292899998,406.04152880000765,406.5414620000083,406.5250004000118,406.5354206000047,406.5414620000083,406.5414620000083,406.5414620000083,407.975050500012,Objects\339a.jpg,post,s,1.4283302999974694,None,,,,,,,,00022,001,2025-11-09_12h15.12.382,MST_test,2024.2.2,59.991817113200966,2025-11-09 12h15.18.737654 +0530,
149,0,149,s,4.226746699991054,None,149,0,149,0,407.99150680001185,,,,,,,,,,,,,,,,,,,,,,,,,,,,,,,,,,,,,,,,,,,,,,,,,,407.9751408000011,407.99150680001185,408.4913874000049,408.47493580001174,408.4858110000059,408.4913874000049,408.4913874000049,408.4913874000049,412.72496000000683,Foils\010a.jpg,none,s,4.226746699991054,None,,,,,,,,00022,001,2025-11-09_12h15.12.382,MST_test,2024.2.2,59.991817113200966,2025-11-09 12h15.18.737654 +0530,
,,,,,,,,,,,,,,,,,,,,,,,,,,,,,,,,,,,,,,,,,,,,,,,,,,,,,,,,,,,,,,,,,,,,,,,,,,412.7250279,412.7413319000043,412.7413319000043,415.67493910000485,space,2.921183699989342,None,00022,001,2025-11-09_12h15.12.382,MST_test,2024.2.2,59.991817113200966,2025-11-09 12h15.18.737654 +0530,
