thisN,thisTrialN,thisRepN,key_resp_3.keys,key_resp_3.rt,key_resp_3.duration,trials.thisRepN,trials.thisTrialN,trials.thisN,thisRow.t,notes,intro_page.started,text.started,key_resp.started,intro_page.stopped,key_resp.keys,key_resp.rt,key_resp.duration,instructions.started,text_2.started,key_resp_2.started,instructions.stopped,key_resp_2.keys,key_resp_2.rt,key_resp_2.duration,demo1.started,image_1.started,image_2.started,text_7.started,key_resp_6.started,text_9.started,demo1.stopped,key_resp_6.keys,key_resp_6.rt,key_resp_6.duration,demo3.started,image_5.started,image_6.started,text_11.started,text_12.started,key_resp_8.started,demo3.stopped,key_resp_8.keys,key_resp_8.rt,key_resp_8.duration,demo_conclusion.started,text_13.started,key_resp_9.started,demo_conclusion.stopped,key_resp_9.keys,key_resp_9.rt,key_resp_9.duration,start_test.started,text_6.started,key_resp_5.started,start_test.stopped,key_resp_5.keys,key_resp_5.rt,key_resp_5.duration,ISI.started,text_4.started,text_4.stopped,ISI.stopped,routine_1.started,image.started,text_3.started,key_resp_3.started,routine_1.stopped,image_path,position_of_stimuli,trials.key_resp_3.keys,trials.key_resp_3.rt,trials.key_resp_3.duration,End_page.started,text_5.started,key_resp_4.started,End_page.stopped,key_resp_4.keys,key_resp_4.rt,key_resp_4.duration,participant,session,date,expName,psychopyVersion,frameRate,expStart,
,,,,,,,,,,,0.0016695000012987293,0.0038655000025755726,0.0038655000025755726,76.8453429000001,space,76.83324169999833,None,,,,,,,,,,,,,,,,,,,,,,,,,,,,,,,,,,,,,,,,,,,,,,,,,,,,,,,,,,,,,,,00029,001,2025-11-15_11h52.06.081,MST_test,2024.2.0,99.96471245110472,2025-11-15 11h52.12.643917 +0530,
,,,,,,,,,,,,,,,,,,76.84539529999893,76.86019990000204,76.86019990000204,85.86033660000248,space,8.99277429999347,None,,,,,,,,,,,,,,,,,,,,,,,,,,,,,,,,,,,,,,,,,,,,,,,,,,,,,,,,00029,001,2025-11-15_11h52.06.081,MST_test,2024.2.0,99.96471245110472,2025-11-15 11h52.12.643917 +0530,
,,,,,,,,,,,,,,,,,,,,,,,,,85.86040599999978,85.87527650000266,85.87527650000266,85.87527650000266,85.87527650000266,85.87527650000266,89.51099339999928,space,3.634199799998896,None,,,,,,,,,,,,,,,,,,,,,,,,,,,,,,,,,,,,,,,,,,,,,,00029,001,2025-11-15_11h52.06.081,MST_test,2024.2.0,99.96471245110472,2025-11-15 11h52.12.643917 +0530,
,,,,,,,,,,,,,,,,,,,,,,,,,,,,,,,,,,,89.5110640999992,89.51945649999834,89.51945649999834,89.51945649999834,89.51945649999834,89.51945649999834,91.36102060000121,space,1.8377921999999671,None,,,,,,,,,,,,,,,,,,,,,,,,,,,,,,,,,,,,00029,001,2025-11-15_11h52.06.081,MST_test,2024.2.0,99.96471245110472,2025-11-15 11h52.12.643917 +0530,
,,,,,,,,,,,,,,,,,,,,,,,,,,,,,,,,,,,,,,,,,,,,,91.36110719999851,91.368441300001,91.368441300001,107.00757919999887,space,15.629311400000006,None,,,,,,,,,,,,,,,,,,,,,,,,,,,,,00029,001,2025-11-15_11h52.06.081,MST_test,2024.2.0,99.96471245110472,2025-11-15 11h52.12.643917 +0530,
,,,,,,,,,,,,,,,,,,,,,,,,,,,,,,,,,,,,,,,,,,,,,,,,,,,,107.007652100001,107.02852459999849,107.02852459999849,132.19463939999696,space,25.160456300000078,None,,,,,,,,,,,,,,,,,,,,,,00029,001,2025-11-15_11h52.06.081,MST_test,2024.2.0,99.96471245110472,2025-11-15 11h52.12.643917 +0530,
0,0,1,n,4.265241100001731,None,1,0,0,132.20307799999864,,,,,,,,,,,,,,,,,,,,,,,,,,,,,,,,,,,,,,,,,,,,,,,,,,132.20050079999783,132.20307799999864,132.71614009999757,132.6940065000017,132.7133720999991,132.71614009999757,132.71614009999757,132.71614009999757,136.9848886999971,Objects\328b.jpg,mid,n,4.265241100001731,None,,,,,,,,00029,001,2025-11-15_11h52.06.081,MST_test,2024.2.0,99.96471245110472,2025-11-15 11h52.12.643917 +0530,
1,0,2,o,4.278078300005291,None,2,0,1,136.99270100000285,,,,,,,,,,,,,,,,,,,,,,,,,,,,,,,,,,,,,,,,,,,,,,,,,,136.9851856000023,136.99270100000285,137.4957310000027,137.48354310000286,137.49347809999745,137.4957310000027,137.4957310000027,137.4957310000027,141.78353590000188,Objects\227a.jpg,post,o,4.278078300005291,None,,,,,,,,00029,001,2025-11-15_11h52.06.081,MST_test,2024.2.0,99.96471245110472,2025-11-15 11h52.12.643917 +0530,
2,0,3,n,2.41752259999339,None,3,0,2,141.7921914000035,,,,,,,,,,,,,,,,,,,,,,,,,,,,,,,,,,,,,,,,,,,,,,,,,,141.7837830999997,141.7921914000035,142.29974180000136,142.28330149999965,142.29738540000108,142.29974180000136,142.29974180000136,142.29974180000136,144.72382720000314,Foils\101b.jpg,none,n,2.41752259999339,None,,,,,,,,00029,001,2025-11-15_11h52.06.081,MST_test,2024.2.0,99.96471245110472,2025-11-15 11h52.12.643917 +0530,
3,0,4,n,1.742864700005157,None,4,0,3,144.73163000000204,,,,,,,,,,,,,,,,,,,,,,,,,,,,,,,,,,,,,,,,,,,,,,,,,,144.72410330000275,144.73163000000204,145.23872950000077,145.22294369999872,145.23579020000034,145.23872950000077,145.23872950000077,145.23872950000077,146.98415999999997,Foils\058a.jpg,none,n,1.742864700005157,None,,,,,,,,00029,001,2025-11-15_11h52.06.081,MST_test,2024.2.0,99.96471245110472,2025-11-15 11h52.12.643917 +0530,
4,0,5,s,4.315209200001846,None,5,0,4,146.99146640000254,,,,,,,,,,,,,,,,,,,,,,,,,,,,,,,,,,,,,,,,,,,,,,,,,,146.9844793000011,146.99146640000254,147.49825630000123,147.48227359999873,147.49547619999794,147.49825630000123,147.49825630000123,147.49825630000123,151.82251369999722,Objects\347b.jpg,mid,s,4.315209200001846,None,,,,,,,,00029,001,2025-11-15_11h52.06.081,MST_test,2024.2.0,99.96471245110472,2025-11-15 11h52.12.643917 +0530,
5,0,6,s,5.203462099998433,None,6,0,5,151.83068900000217,,,,,,,,,,,,,,,,,,,,,,,,,,,,,,,,,,,,,,,,,,,,,,,,,,151.8227595999997,151.83068900000217,152.33777499999997,152.3220117000019,152.335473799998,152.33777499999997,152.33777499999997,152.33777499999997,157.55115379999916,Objects\064b.jpg,post,s,5.203462099998433,None,,,,,,,,00029,001,2025-11-15_11h52.06.081,MST_test,2024.2.0,99.96471245110472,2025-11-15 11h52.12.643917 +0530,
6,0,7,s,1.9073117000007187,None,7,0,6,157.55992720000359,,,,,,,,,,,,,,,,,,,,,,,,,,,,,,,,,,,,,,,,,,,,,,,,,,157.5513856999969,157.55992720000359,158.06590400000277,158.0509275000004,158.06350630000088,158.06590400000277,158.06590400000277,158.06590400000277,159.98221840000042,Objects\276b.jpg,pre,s,1.9073117000007187,None,,,,,,,,00029,001,2025-11-15_11h52.06.081,MST_test,2024.2.0,99.96471245110472,2025-11-15 11h52.12.643917 +0530,
7,0,8,o,4.706656800000928,None,8,0,7,159.98984370000107,,,,,,,,,,,,,,,,,,,,,,,,,,,,,,,,,,,,,,,,,,,,,,,,,,159.98251410000375,159.98984370000107,160.49114939999708,160.48038030000316,160.4886805999995,160.49114939999708,160.49114939999708,160.49114939999708,165.20085090000066,Objects\219a.jpg,pre,o,4.706656800000928,None,,,,,,,,00029,001,2025-11-15_11h52.06.081,MST_test,2024.2.0,99.96471245110472,2025-11-15 11h52.12.643917 +0530,
8,0,9,o,1.5669120000020484,None,9,0,8,165.20893049999722,,,,,,,,,,,,,,,,,,,,,,,,,,,,,,,,,,,,,,,,,,,,,,,,,,165.2011560000028,165.20893049999722,165.7103247999985,165.7005919000003,165.7078782000026,165.7103247999985,165.7103247999985,165.7103247999985,167.28048999999737,Objects\241a.jpg,post,o,1.5669120000020484,None,,,,,,,,00029,001,2025-11-15_11h52.06.081,MST_test,2024.2.0,99.96471245110472,2025-11-15 11h52.12.643917 +0530,
9,0,10,o,1.5033217999953195,None,10,0,9,167.28897570000117,,,,,,,,,,,,,,,,,,,,,,,,,,,,,,,,,,,,,,,,,,,,,,,,,,167.28074780000316,167.28897570000117,167.78970690000278,167.78028749999794,167.78734699999768,167.78970690000278,167.78970690000278,167.78970690000278,169.30035630000202,Objects\026a.jpg,post,o,1.5033217999953195,None,,,,,,,,00029,001,2025-11-15_11h52.06.081,MST_test,2024.2.0,99.96471245110472,2025-11-15 11h52.12.643917 +0530,
10,0,11,n,3.2705586000010953,None,11,0,10,169.30849450000096,,,,,,,,,,,,,,,,,,,,,,,,,,,,,,,,,,,,,,,,,,,,,,,,,,169.30063840000366,169.30849450000096,169.81541119999747,169.79942689999734,169.81307209999795,169.81541119999747,169.81541119999747,169.81541119999747,173.0905528000003,Foils\106a.jpg,none,n,3.2705586000010953,None,,,,,,,,00029,001,2025-11-15_11h52.06.081,MST_test,2024.2.0,99.96471245110472,2025-11-15 11h52.12.643917 +0530,
11,0,12,n,7.5253833000024315,None,12,0,11,173.09795049999957,,,,,,,,,,,,,,,,,,,,,,,,,,,,,,,,,,,,,,,,,,,,,,,,,,173.09079239999846,173.09795049999957,173.6076780000003,173.58928600000218,173.60496189999685,173.6076780000003,173.6076780000003,173.6076780000003,181.13854739999806,Objects\111b.jpg,pre,n,7.5253833000024315,None,,,,,,,,00029,001,2025-11-15_11h52.06.081,MST_test,2024.2.0,99.96471245110472,2025-11-15 11h52.12.643917 +0530,
12,0,13,s,1.30137129999639,None,13,0,12,181.14701459999924,,,,,,,,,,,,,,,,,,,,,,,,,,,,,,,,,,,,,,,,,,,,,,,,,,181.13877189999766,181.14701459999924,181.64762709999923,181.63792229999672,181.6439698999966,181.64762709999923,181.64762709999923,181.64762709999923,182.95853019999777,Objects\292a.jpg,mid,s,1.30137129999639,None,,,,,,,,00029,001,2025-11-15_11h52.06.081,MST_test,2024.2.0,99.96471245110472,2025-11-15 11h52.12.643917 +0530,
13,0,14,s,2.279973800003063,None,14,0,13,182.96668849999696,,,,,,,,,,,,,,,,,,,,,,,,,,,,,,,,,,,,,,,,,,,,,,,,,,182.95878660000017,182.96668849999696,183.46952849999798,183.4578873999999,183.46616570000333,183.46952849999798,183.46952849999798,183.46952849999798,185.75784710000153,Objects\244a.jpg,mid,s,2.279973800003063,None,,,,,,,,00029,001,2025-11-15_11h52.06.081,MST_test,2024.2.0,99.96471245110472,2025-11-15 11h52.12.643917 +0530,
14,0,15,s,4.410104999995383,None,15,0,14,185.76639920000162,,,,,,,,,,,,,,,,,,,,,,,,,,,,,,,,,,,,,,,,,,,,,,,,,,185.75807229999918,185.76639920000162,186.26688670000294,186.25738860000274,186.2636141999974,186.26688670000294,186.26688670000294,186.26688670000294,190.6875751999978,Objects\192a.jpg,mid,s,4.410104999995383,None,,,,,,,,00029,001,2025-11-15_11h52.06.081,MST_test,2024.2.0,99.96471245110472,2025-11-15 11h52.12.643917 +0530,
15,0,16,o,1.577538600002299,None,16,0,15,190.6958747000026,,,,,,,,,,,,,,,,,,,,,,,,,,,,,,,,,,,,,,,,,,,,,,,,,,190.68784099999903,190.6958747000026,191.1960368,191.18688850000035,191.1930807000026,191.1960368,191.1960368,191.1960368,192.7772885000013,Objects\098a.jpg,pre,o,1.577538600002299,None,,,,,,,,00029,001,2025-11-15_11h52.06.081,MST_test,2024.2.0,99.96471245110472,2025-11-15 11h52.12.643917 +0530,
16,0,17,o,2.431074799998896,None,17,0,16,192.78555480000068,,,,,,,,,,,,,,,,,,,,,,,,,,,,,,,,,,,,,,,,,,,,,,,,,,192.7775374999983,192.78555480000068,193.2861331000022,193.27631190000102,193.28098199999658,193.2861331000022,193.2861331000022,193.2861331000022,195.72659340000246,Objects\354a.jpg,mid,o,2.431074799998896,None,,,,,,,,00029,001,2025-11-15_11h52.06.081,MST_test,2024.2.0,99.96471245110472,2025-11-15 11h52.12.643917 +0530,
17,0,18,n,2.179285999998683,None,18,0,17,195.73515380000026,,,,,,,,,,,,,,,,,,,,,,,,,,,,,,,,,,,,,,,,,,,,,,,,,,195.72682019999775,195.73515380000026,196.24245930000325,196.22636900000361,196.23978779999743,196.24245930000325,196.24245930000325,196.24245930000325,198.42659039999853,Foils\042a.jpg,none,n,2.179285999998683,None,,,,,,,,00029,001,2025-11-15_11h52.06.081,MST_test,2024.2.0,99.96471245110472,2025-11-15 11h52.12.643917 +0530,
18,0,19,n,2.200097499997355,None,19,0,18,198.4348056000017,,,,,,,,,,,,,,,,,,,,,,,,,,,,,,,,,,,,,,,,,,,,,,,,,,198.42685670000355,198.4348056000017,198.94181109999772,198.9260307000004,198.9394872999983,198.94181109999772,198.94181109999772,198.94181109999772,201.14645960000053,Foils\065a.jpg,none,n,2.200097499997355,None,,,,,,,,00029,001,2025-11-15_11h52.06.081,MST_test,2024.2.0,99.96471245110472,2025-11-15 11h52.12.643917 +0530,
19,0,20,s,3.6203775000030873,None,20,0,19,201.15447380000114,,,,,,,,,,,,,,,,,,,,,,,,,,,,,,,,,,,,,,,,,,,,,,,,,,201.14676979999786,201.15447380000114,201.66484949999722,201.6455408999973,201.66200019999815,201.66484949999722,201.66484949999722,201.66484949999722,205.2961942000038,Objects\224b.jpg,mid,s,3.6203775000030873,None,,,,,,,,00029,001,2025-11-15_11h52.06.081,MST_test,2024.2.0,99.96471245110472,2025-11-15 11h52.12.643917 +0530,
20,0,21,o,1.5919874000028358,None,21,0,20,205.30410619999748,,,,,,,,,,,,,,,,,,,,,,,,,,,,,,,,,,,,,,,,,,,,,,,,,,205.2964873000019,205.30410619999748,205.80545379999967,205.79507410000224,205.80304920000344,205.80545379999967,205.80545379999967,205.80545379999967,207.40514460000122,Objects\248a.jpg,pre,o,1.5919874000028358,None,,,,,,,,00029,001,2025-11-15_11h52.06.081,MST_test,2024.2.0,99.96471245110472,2025-11-15 11h52.12.643917 +0530,
21,0,22,s,2.512532900000224,None,22,0,21,207.41371539999818,,,,,,,,,,,,,,,,,,,,,,,,,,,,,,,,,,,,,,,,,,,,,,,,,,207.40542370000185,207.41371539999818,207.91653439999936,207.90480570000364,207.91357009999774,207.91653439999936,207.91653439999936,207.91653439999936,210.43547730000137,Objects\259a.jpg,post,s,2.512532900000224,None,,,,,,,,00029,001,2025-11-15_11h52.06.081,MST_test,2024.2.0,99.96471245110472,2025-11-15 11h52.12.643917 +0530,
22,0,23,s,5.261137000001327,None,23,0,22,210.44326800000272,,,,,,,,,,,,,,,,,,,,,,,,,,,,,,,,,,,,,,,,,,,,,,,,,,210.4357944000003,210.44326800000272,210.94405830000323,210.93370259999938,210.94005409999954,210.94405830000323,210.94405830000323,210.94405830000323,216.21410070000275,Objects\361a.jpg,mid,s,5.261137000001327,None,,,,,,,,00029,001,2025-11-15_11h52.06.081,MST_test,2024.2.0,99.96471245110472,2025-11-15 11h52.12.643917 +0530,
23,0,24,s,1.2927175000004354,None,24,0,23,216.22258790000342,,,,,,,,,,,,,,,,,,,,,,,,,,,,,,,,,,,,,,,,,,,,,,,,,,216.21431299999676,216.22258790000342,216.72865569999703,216.71375960000296,216.72648469999694,216.72865569999703,216.72865569999703,216.72865569999703,218.02382729999954,Objects\171b.jpg,pre,s,1.2927175000004354,None,,,,,,,,00029,001,2025-11-15_11h52.06.081,MST_test,2024.2.0,99.96471245110472,2025-11-15 11h52.12.643917 +0530,
24,0,25,s,1.225808600000164,None,25,0,24,218.03239739999844,,,,,,,,,,,,,,,,,,,,,,,,,,,,,,,,,,,,,,,,,,,,,,,,,,218.02408139999898,218.03239739999844,218.539557600001,218.52376789999835,218.5372647999975,218.539557600001,218.539557600001,218.539557600001,219.7739062000037,Objects\140b.jpg,post,s,1.225808600000164,None,,,,,,,,00029,001,2025-11-15_11h52.06.081,MST_test,2024.2.0,99.96471245110472,2025-11-15 11h52.12.643917 +0530,
25,0,26,n,1.0085355000046548,None,26,0,25,219.78216200000315,,,,,,,,,,,,,,,,,,,,,,,,,,,,,,,,,,,,,,,,,,,,,,,,,,219.7741922999994,219.78216200000315,220.29245629999787,220.27344630000152,220.28996149999875,220.29245629999787,220.29245629999787,220.29245629999787,221.30368610000005,Foils\073a.jpg,none,n,1.0085355000046548,None,,,,,,,,00029,001,2025-11-15_11h52.06.081,MST_test,2024.2.0,99.96471245110472,2025-11-15 11h52.12.643917 +0530,
26,0,27,o,1.9128135999999358,None,27,0,26,221.3119194000028,,,,,,,,,,,,,,,,,,,,,,,,,,,,,,,,,,,,,,,,,,,,,,,,,,221.3040217000016,221.3119194000028,221.81216020000284,221.80277719999867,221.8086164999986,221.81216020000284,221.81216020000284,221.81216020000284,223.73368669999763,Objects\163a.jpg,post,o,1.9128135999999358,None,,,,,,,,00029,001,2025-11-15_11h52.06.081,MST_test,2024.2.0,99.96471245110472,2025-11-15 11h52.12.643917 +0530,
27,0,28,o,0.9074783999967622,None,28,0,27,223.74160310000298,,,,,,,,,,,,,,,,,,,,,,,,,,,,,,,,,,,,,,,,,,,,,,,,,,223.73403849999886,223.74160310000298,224.24191150000115,224.23313410000264,224.23888920000172,224.24191150000115,224.24191150000115,224.24191150000115,225.15304990000004,Objects\129a.jpg,post,o,0.9074783999967622,None,,,,,,,,00029,001,2025-11-15_11h52.06.081,MST_test,2024.2.0,99.96471245110472,2025-11-15 11h52.12.643917 +0530,
28,0,29,o,6.727769699995406,None,29,0,28,225.1613819999984,,,,,,,,,,,,,,,,,,,,,,,,,,,,,,,,,,,,,,,,,,,,,,,,,,225.15326449999702,225.1613819999984,225.66212610000366,225.65281210000103,225.65869630000088,225.66212610000366,225.66212610000366,225.66212610000366,232.39259039999888,Objects\348a.jpg,pre,o,6.727769699995406,None,,,,,,,,00029,001,2025-11-15_11h52.06.081,MST_test,2024.2.0,99.96471245110472,2025-11-15 11h52.12.643917 +0530,
29,0,30,o,3.1115971000035643,None,30,0,29,232.40052950000245,,,,,,,,,,,,,,,,,,,,,,,,,,,,,,,,,,,,,,,,,,,,,,,,,,232.39288630000374,232.40052950000245,232.9019432999994,232.89178040000115,232.89936360000138,232.9019432999994,232.9019432999994,232.9019432999994,236.02214770000137,Objects\016a.jpg,pre,o,3.1115971000035643,None,,,,,,,,00029,001,2025-11-15_11h52.06.081,MST_test,2024.2.0,99.96471245110472,2025-11-15 11h52.12.643917 +0530,
30,0,31,n,2.466341800005466,None,31,0,30,236.0300544999991,,,,,,,,,,,,,,,,,,,,,,,,,,,,,,,,,,,,,,,,,,,,,,,,,,236.02242020000267,236.0300544999991,236.53880480000225,236.52124840000033,236.5363817999969,236.53880480000225,236.53880480000225,236.53880480000225,239.010927000003,Foils\018a.jpg,none,n,2.466341800005466,None,,,,,,,,00029,001,2025-11-15_11h52.06.081,MST_test,2024.2.0,99.96471245110472,2025-11-15 11h52.12.643917 +0530,
31,0,32,o,1.8616181000033976,None,32,0,31,239.0198212000032,,,,,,,,,,,,,,,,,,,,,,,,,,,,,,,,,,,,,,,,,,,,,,,,,,239.01120220000303,239.0198212000032,239.51992790000077,239.50977959999727,239.51275229999737,239.51992790000077,239.51992790000077,239.51992790000077,241.3907923000006,Objects\101a.jpg,post,o,1.8616181000033976,None,,,,,,,,00029,001,2025-11-15_11h52.06.081,MST_test,2024.2.0,99.96471245110472,2025-11-15 11h52.12.643917 +0530,
32,0,33,o,1.1457475000061095,None,33,0,32,241.39991649999865,,,,,,,,,,,,,,,,,,,,,,,,,,,,,,,,,,,,,,,,,,,,,,,,,,241.3909832999998,241.39991649999865,241.89965400000074,241.89036620000115,241.89575530000002,241.89965400000074,241.89965400000074,241.89965400000074,243.05104340000253,Objects\025a.jpg,pre,o,1.1457475000061095,None,,,,,,,,00029,001,2025-11-15_11h52.06.081,MST_test,2024.2.0,99.96471245110472,2025-11-15 11h52.12.643917 +0530,
33,0,34,s,1.1061709999994491,None,34,0,33,243.05924680000317,,,,,,,,,,,,,,,,,,,,,,,,,,,,,,,,,,,,,,,,,,,,,,,,,,243.05133609999757,243.05924680000317,243.57083840000269,243.55046220000077,243.56778330000088,243.57083840000269,243.57083840000269,243.57083840000269,244.6804478999984,Objects\250b.jpg,pre,s,1.1061709999994491,None,,,,,,,,00029,001,2025-11-15_11h52.06.081,MST_test,2024.2.0,99.96471245110472,2025-11-15 11h52.12.643917 +0530,
34,0,35,n,5.065702100000635,None,35,0,34,244.68901999999798,,,,,,,,,,,,,,,,,,,,,,,,,,,,,,,,,,,,,,,,,,,,,,,,,,244.68066360000375,244.68901999999798,245.19615229999908,245.18015339999693,245.1935913999987,245.19615229999908,245.19615229999908,245.19615229999908,250.27026070000284,Foils\086a.jpg,none,n,5.065702100000635,None,,,,,,,,00029,001,2025-11-15_11h52.06.081,MST_test,2024.2.0,99.96471245110472,2025-11-15 11h52.12.643917 +0530,
35,0,36,n,3.5494217000014032,None,36,0,35,250.27845510000043,,,,,,,,,,,,,,,,,,,,,,,,,,,,,,,,,,,,,,,,,,,,,,,,,,250.2705300000016,250.27845510000043,250.78446629999962,250.7694771000024,250.78209190000052,250.78446629999962,250.78446629999962,250.78446629999962,254.33979510000063,Objects\010b.jpg,mid,n,3.5494217000014032,None,,,,,,,,00029,001,2025-11-15_11h52.06.081,MST_test,2024.2.0,99.96471245110472,2025-11-15 11h52.12.643917 +0530,
36,0,37,s,1.941626499996346,None,37,0,36,254.3477933999966,,,,,,,,,,,,,,,,,,,,,,,,,,,,,,,,,,,,,,,,,,,,,,,,,,254.34006319999753,254.3477933999966,254.85624320000352,254.83916250000038,254.8535957999993,254.85624320000352,254.85624320000352,254.85624320000352,256.7999568000014,Objects\242b.jpg,post,s,1.941626499996346,None,,,,,,,,00029,001,2025-11-15_11h52.06.081,MST_test,2024.2.0,99.96471245110472,2025-11-15 11h52.12.643917 +0530,
37,0,38,o,2.8737249999976484,None,38,0,37,256.80747269999847,,,,,,,,,,,,,,,,,,,,,,,,,,,,,,,,,,,,,,,,,,,,,,,,,,256.80024250000133,256.80747269999847,257.30809579999914,257.298661300003,257.30554069999926,257.30809579999914,257.30809579999914,257.30809579999914,260.1896201999989,Objects\057a.jpg,mid,o,2.8737249999976484,None,,,,,,,,00029,001,2025-11-15_11h52.06.081,MST_test,2024.2.0,99.96471245110472,2025-11-15 11h52.12.643917 +0530,
38,0,39,o,7.070549399999436,None,39,0,38,260.1972456000003,,,,,,,,,,,,,,,,,,,,,,,,,,,,,,,,,,,,,,,,,,,,,,,,,,260.1899173999991,260.1972456000003,260.7035856000002,260.68864230000327,260.7011302000028,260.7035856000002,260.7035856000002,260.7035856000002,267.7782271000033,Objects\094b.jpg,post,o,7.070549399999436,None,,,,,,,,00029,001,2025-11-15_11h52.06.081,MST_test,2024.2.0,99.96471245110472,2025-11-15 11h52.12.643917 +0530,
39,0,40,n,17.151467499999853,None,40,0,39,267.7862546999968,,,,,,,,,,,,,,,,,,,,,,,,,,,,,,,,,,,,,,,,,,,,,,,,,,267.7785203000021,267.7862546999968,268.2936597000007,268.27784809999866,268.2913311000011,268.2936597000007,268.2936597000007,268.2936597000007,285.44671219999873,Foils\017a.jpg,none,n,17.151467499999853,None,,,,,,,,00029,001,2025-11-15_11h52.06.081,MST_test,2024.2.0,99.96471245110472,2025-11-15 11h52.12.643917 +0530,
40,0,41,s,2.8518698000043514,None,41,0,40,285.45399259999976,,,,,,,,,,,,,,,,,,,,,,,,,,,,,,,,,,,,,,,,,,,,,,,,,,285.4470052999968,285.45399259999976,285.96215259999735,285.9453093999982,285.9597419999991,285.96215259999735,285.96215259999735,285.96215259999735,288.81514320000133,Objects\083b.jpg,mid,s,2.8518698000043514,None,,,,,,,,00029,001,2025-11-15_11h52.06.081,MST_test,2024.2.0,99.96471245110472,2025-11-15 11h52.12.643917 +0530,
41,0,42,s,3.4493602000002284,None,42,0,41,288.8233764000033,,,,,,,,,,,,,,,,,,,,,,,,,,,,,,,,,,,,,,,,,,,,,,,,,,288.8153655999995,288.8233764000033,289.3237367999973,289.3151437999986,289.3212018999984,289.3237367999973,289.3237367999973,289.3237367999973,292.774874499999,Objects\130a.jpg,pre,s,3.4493602000002284,None,,,,,,,,00029,001,2025-11-15_11h52.06.081,MST_test,2024.2.0,99.96471245110472,2025-11-15 11h52.12.643917 +0530,
42,0,43,o,1.2737357000005431,None,43,0,42,292.7828912999976,,,,,,,,,,,,,,,,,,,,,,,,,,,,,,,,,,,,,,,,,,,,,,,,,,292.775166899999,292.7828912999976,293.28328260000126,293.27420469999925,293.2797178999972,293.28328260000126,293.28328260000126,293.28328260000126,294.56404140000086,Objects\141a.jpg,mid,o,1.2737357000005431,None,,,,,,,,00029,001,2025-11-15_11h52.06.081,MST_test,2024.2.0,99.96471245110472,2025-11-15 11h52.12.643917 +0530,
43,0,44,s,4.75660209999478,None,44,0,43,294.5727358000004,,,,,,,,,,,,,,,,,,,,,,,,,,,,,,,,,,,,,,,,,,,,,,,,,,294.5642683999977,294.5727358000004,295.0810860999991,295.0638257000028,295.0785993000027,295.0810860999991,295.0810860999991,295.0810860999991,299.84403269999893,Objects\131b.jpg,pre,s,4.75660209999478,None,,,,,,,,00029,001,2025-11-15_11h52.06.081,MST_test,2024.2.0,99.96471245110472,2025-11-15 11h52.12.643917 +0530,
44,0,45,n,1.1864132999980939,None,45,0,44,299.8521605999995,,,,,,,,,,,,,,,,,,,,,,,,,,,,,,,,,,,,,,,,,,,,,,,,,,299.84438780000346,299.8521605999995,300.354496400003,300.34211170000344,300.35188180000114,300.354496400003,300.354496400003,300.354496400003,301.5433927999984,Foils\f6.jpg,none,n,1.1864132999980939,None,,,,,,,,00029,001,2025-11-15_11h52.06.081,MST_test,2024.2.0,99.96471245110472,2025-11-15 11h52.12.643917 +0530,
45,0,46,o,1.1287636999986717,None,46,0,45,301.5518461000029,,,,,,,,,,,,,,,,,,,,,,,,,,,,,,,,,,,,,,,,,,,,,,,,,,301.5436472000001,301.5518461000029,302.05220890000055,302.04280350000045,302.0488253000003,302.05220890000055,302.05220890000055,302.05220890000055,303.18344069999876,Objects\305a.jpg,post,o,1.1287636999986717,None,,,,,,,,00029,001,2025-11-15_11h52.06.081,MST_test,2024.2.0,99.96471245110472,2025-11-15 11h52.12.643917 +0530,
46,0,47,s,4.547205100003339,None,47,0,46,303.1915894999984,,,,,,,,,,,,,,,,,,,,,,,,,,,,,,,,,,,,,,,,,,,,,,,,,,303.1836801000027,303.1915894999984,303.6987685999993,303.6828086000023,303.69616210000095,303.6987685999993,303.6987685999993,303.6987685999993,308.25240779999876,Objects\290b.jpg,post,s,4.547205100003339,None,,,,,,,,00029,001,2025-11-15_11h52.06.081,MST_test,2024.2.0,99.96471245110472,2025-11-15 11h52.12.643917 +0530,
47,0,48,s,4.19686979999824,None,48,0,47,308.2609806000037,,,,,,,,,,,,,,,,,,,,,,,,,,,,,,,,,,,,,,,,,,,,,,,,,,308.2526524999994,308.2609806000037,308.76968710000074,308.75189359999786,308.76692470000125,308.76968710000074,308.76968710000074,308.76968710000074,312.9722514000023,Objects\307b.jpg,pre,s,4.19686979999824,None,,,,,,,,00029,001,2025-11-15_11h52.06.081,MST_test,2024.2.0,99.96471245110472,2025-11-15 11h52.12.643917 +0530,
48,0,49,n,3.2333508000010625,None,49,0,48,312.98034599999664,,,,,,,,,,,,,,,,,,,,,,,,,,,,,,,,,,,,,,,,,,,,,,,,,,312.97249659999943,312.98034599999664,313.49252010000055,313.4715892000022,313.489888600001,313.49252010000055,313.49252010000055,313.49252010000055,316.73168180000357,Objects\162b.jpg,mid,n,3.2333508000010625,None,,,,,,,,00029,001,2025-11-15_11h52.06.081,MST_test,2024.2.0,99.96471245110472,2025-11-15 11h52.12.643917 +0530,
49,0,50,s,1.6280314999967231,None,50,0,49,316.7399762999994,,,,,,,,,,,,,,,,,,,,,,,,,,,,,,,,,,,,,,,,,,,,,,,,,,316.7319615000015,316.7399762999994,317.24134739999863,317.2311929999996,317.2385215000031,317.24134739999863,317.24134739999863,317.24134739999863,318.87154960000044,Objects\293a.jpg,mid,s,1.6280314999967231,None,,,,,,,,00029,001,2025-11-15_11h52.06.081,MST_test,2024.2.0,99.96471245110472,2025-11-15 11h52.12.643917 +0530,
50,0,51,s,7.161637100005464,None,51,0,50,318.87958680000156,,,,,,,,,,,,,,,,,,,,,,,,,,,,,,,,,,,,,,,,,,,,,,,,,,318.871808099997,318.87958680000156,319.38019319999876,319.3705134999982,319.3771992999973,319.38019319999876,319.38019319999876,319.38019319999876,326.5508740000005,Objects\160a.jpg,pre,s,7.161637100005464,None,,,,,,,,00029,001,2025-11-15_11h52.06.081,MST_test,2024.2.0,99.96471245110472,2025-11-15 11h52.12.643917 +0530,
51,0,52,n,5.052935300001991,None,52,0,51,326.5587420000011,,,,,,,,,,,,,,,,,,,,,,,,,,,,,,,,,,,,,,,,,,,,,,,,,,326.55119189999823,326.5587420000011,327.06487429999834,327.04966350000177,327.0625549999968,327.06487429999834,327.06487429999834,327.06487429999834,332.11996329999965,Objects\095b.jpg,mid,n,5.052935300001991,None,,,,,,,,00029,001,2025-11-15_11h52.06.081,MST_test,2024.2.0,99.96471245110472,2025-11-15 11h52.12.643917 +0530,
52,0,53,o,4.716662399994675,None,53,0,52,332.12800920000154,,,,,,,,,,,,,,,,,,,,,,,,,,,,,,,,,,,,,,,,,,,,,,,,,,332.1202290000001,332.12800920000154,332.63243220000004,332.61852080000244,332.63024009999936,332.63243220000004,332.63243220000004,332.63243220000004,337.35930969999754,Foils\010a.jpg,none,o,4.716662399994675,None,,,,,,,,00029,001,2025-11-15_11h52.06.081,MST_test,2024.2.0,99.96471245110472,2025-11-15 11h52.12.643917 +0530,
53,0,54,n,0.9633153000031598,None,54,0,53,337.36751479999657,,,,,,,,,,,,,,,,,,,,,,,,,,,,,,,,,,,,,,,,,,,,,,,,,,337.3595929000003,337.36751479999657,337.87490740000067,337.8585632000031,337.8722119000013,337.87490740000067,337.87490740000067,337.87490740000067,338.8401012000031,Objects\316b.jpg,pre,n,0.9633153000031598,None,,,,,,,,00029,001,2025-11-15_11h52.06.081,MST_test,2024.2.0,99.96471245110472,2025-11-15 11h52.12.643917 +0530,
54,0,55,n,1.8812337999988813,None,55,0,54,338.8471638999981,,,,,,,,,,,,,,,,,,,,,,,,,,,,,,,,,,,,,,,,,,,,,,,,,,338.840457899998,338.8471638999981,339.3564645000006,339.3383787999992,339.3534660000005,339.3564645000006,339.3564645000006,339.3564645000006,341.2480110000033,Objects\350b.jpg,pre,n,1.8812337999988813,None,,,,,,,,00029,001,2025-11-15_11h52.06.081,MST_test,2024.2.0,99.96471245110472,2025-11-15 11h52.12.643917 +0530,
55,0,56,n,2.1194155999983195,None,56,0,55,341.25668320000113,,,,,,,,,,,,,,,,,,,,,,,,,,,,,,,,,,,,,,,,,,,,,,,,,,341.24818360000063,341.25668320000113,341.7582513000016,341.74786609999865,341.7552433000019,341.7582513000016,341.7582513000016,341.7582513000016,343.8878102000017,Objects\073a.jpg,mid,n,2.1194155999983195,None,,,,,,,,00029,001,2025-11-15_11h52.06.081,MST_test,2024.2.0,99.96471245110472,2025-11-15 11h52.12.643917 +0530,
56,0,57,s,1.953483999997843,None,57,0,56,343.8963386000032,,,,,,,,,,,,,,,,,,,,,,,,,,,,,,,,,,,,,,,,,,,,,,,,,,343.88801409999724,343.8963386000032,344.404148900001,344.38780140000017,344.40178860000015,344.404148900001,344.404148900001,344.404148900001,346.36803070000315,Objects\033b.jpg,pre,s,1.953483999997843,None,,,,,,,,00029,001,2025-11-15_11h52.06.081,MST_test,2024.2.0,99.96471245110472,2025-11-15 11h52.12.643917 +0530,
57,0,58,o,1.296889299999748,None,58,0,57,346.3762354999999,,,,,,,,,,,,,,,,,,,,,,,,,,,,,,,,,,,,,,,,,,,,,,,,,,346.36829710000166,346.3762354999999,346.8767786000026,346.86723540000094,346.8744716000001,346.8767786000026,346.8767786000026,346.8767786000026,348.17763240000204,Objects\176a.jpg,pre,o,1.296889299999748,None,,,,,,,,00029,001,2025-11-15_11h52.06.081,MST_test,2024.2.0,99.96471245110472,2025-11-15 11h52.12.643917 +0530,
58,0,59,n,4.646768200000224,None,59,0,58,348.18606369999907,,,,,,,,,,,,,,,,,,,,,,,,,,,,,,,,,,,,,,,,,,,,,,,,,,348.17785990000266,348.18606369999907,348.6863030000022,348.67723359999945,348.6834138999984,348.6863030000022,348.6863030000022,348.6863030000022,353.33711739999853,Objects\041a.jpg,post,n,4.646768200000224,None,,,,,,,,00029,001,2025-11-15_11h52.06.081,MST_test,2024.2.0,99.96471245110472,2025-11-15 11h52.12.643917 +0530,
59,0,60,o,1.2237391000016942,None,60,0,59,353.3452554000032,,,,,,,,,,,,,,,,,,,,,,,,,,,,,,,,,,,,,,,,,,,,,,,,,,353.33741120000195,353.3452554000032,353.8456054999988,353.83625480000046,353.84175320000213,353.8456054999988,353.8456054999988,353.8456054999988,355.0768038000024,Objects\273a.jpg,post,o,1.2237391000016942,None,,,,,,,,00029,001,2025-11-15_11h52.06.081,MST_test,2024.2.0,99.96471245110472,2025-11-15 11h52.12.643917 +0530,
60,0,61,s,1.3394908999980544,None,61,0,60,355.0849930999975,,,,,,,,,,,,,,,,,,,,,,,,,,,,,,,,,,,,,,,,,,,,,,,,,,355.0770795999997,355.0849930999975,355.59363190000295,355.57622419999825,355.59081349999906,355.59363190000295,355.59363190000295,355.59363190000295,356.9368230999971,Objects\358b.jpg,post,s,1.3394908999980544,None,,,,,,,,00029,001,2025-11-15_11h52.06.081,MST_test,2024.2.0,99.96471245110472,2025-11-15 11h52.12.643917 +0530,
61,0,62,n,4.31393720000051,None,62,0,61,356.94481449999876,,,,,,,,,,,,,,,,,,,,,,,,,,,,,,,,,,,,,,,,,,,,,,,,,,356.9370897999979,356.94481449999876,357.45189709999977,357.43589359999896,357.4492348999993,357.45189709999977,357.45189709999977,357.45189709999977,361.77531050000107,Foils\074a.jpg,none,n,4.31393720000051,None,,,,,,,,00029,001,2025-11-15_11h52.06.081,MST_test,2024.2.0,99.96471245110472,2025-11-15 11h52.12.643917 +0530,
62,0,63,o,2.032826299997396,None,63,0,62,361.78423199999816,,,,,,,,,,,,,,,,,,,,,,,,,,,,,,,,,,,,,,,,,,,,,,,,,,361.7754993999988,361.78423199999816,362.2844858000026,362.27501330000086,362.28064260000247,362.2844858000026,362.2844858000026,362.2844858000026,364.3253723000016,Objects\049a.jpg,post,o,2.032826299997396,None,,,,,,,,00029,001,2025-11-15_11h52.06.081,MST_test,2024.2.0,99.96471245110472,2025-11-15 11h52.12.643917 +0530,
63,0,64,o,1.3964949999935925,None,64,0,63,364.333990799998,,,,,,,,,,,,,,,,,,,,,,,,,,,,,,,,,,,,,,,,,,,,,,,,,,364.32565369999793,364.333990799998,364.8405606000015,364.8248969999986,364.83787250000023,364.8405606000015,364.8405606000015,364.8405606000015,366.2458224000002,Objects\260b.jpg,pre,o,1.3964949999935925,None,,,,,,,,00029,001,2025-11-15_11h52.06.081,MST_test,2024.2.0,99.96471245110472,2025-11-15 11h52.12.643917 +0530,
64,0,65,n,1.0519851999997627,None,65,0,64,366.25378349999664,,,,,,,,,,,,,,,,,,,,,,,,,,,,,,,,,,,,,,,,,,,,,,,,,,366.2462289000032,366.25378349999664,366.761328200002,366.74482320000243,366.7587185000011,366.761328200002,366.761328200002,366.761328200002,367.8162602000011,Foils\082a.jpg,none,n,1.0519851999997627,None,,,,,,,,00029,001,2025-11-15_11h52.06.081,MST_test,2024.2.0,99.96471245110472,2025-11-15 11h52.12.643917 +0530,
65,0,66,s,1.3360669000030612,None,66,0,65,367.82348649999767,,,,,,,,,,,,,,,,,,,,,,,,,,,,,,,,,,,,,,,,,,,,,,,,,,367.8166005000021,367.82348649999767,368.3330999000027,368.3144973000017,368.3304031000007,368.3330999000027,368.3330999000027,368.3330999000027,369.6751071000035,Objects\378b.jpg,mid,s,1.3360669000030612,None,,,,,,,,00029,001,2025-11-15_11h52.06.081,MST_test,2024.2.0,99.96471245110472,2025-11-15 11h52.12.643917 +0530,
66,0,67,n,6.358395300005213,None,67,0,66,369.68323390000296,,,,,,,,,,,,,,,,,,,,,,,,,,,,,,,,,,,,,,,,,,,,,,,,,,369.6754140999983,369.68323390000296,370.1906893999985,370.17440489999717,370.1879015000013,370.1906893999985,370.1906893999985,370.1906893999985,376.55420479999884,Foils\034a.jpg,none,n,6.358395300005213,None,,,,,,,,00029,001,2025-11-15_11h52.06.081,MST_test,2024.2.0,99.96471245110472,2025-11-15 11h52.12.643917 +0530,
67,0,68,s,2.7991486999962945,None,68,0,67,376.56236419999914,,,,,,,,,,,,,,,,,,,,,,,,,,,,,,,,,,,,,,,,,,,,,,,,,,376.5545071000015,376.56236419999914,377.0706610999987,377.05356510000274,377.0678473000007,377.0706610999987,377.0706610999987,377.0706610999987,379.87480119999964,Objects\254b.jpg,post,s,2.7991486999962945,None,,,,,,,,00029,001,2025-11-15_11h52.06.081,MST_test,2024.2.0,99.96471245110472,2025-11-15 11h52.12.643917 +0530,
68,0,69,s,2.4090641000002506,None,69,0,68,379.882145399999,,,,,,,,,,,,,,,,,,,,,,,,,,,,,,,,,,,,,,,,,,,,,,,,,,379.8751340000017,379.882145399999,380.38859409999714,380.37315359999775,380.3858438000025,380.38859409999714,380.38859409999714,380.38859409999714,382.8044469000015,Objects\206b.jpg,pre,s,2.4090641000002506,None,,,,,,,,00029,001,2025-11-15_11h52.06.081,MST_test,2024.2.0,99.96471245110472,2025-11-15 11h52.12.643917 +0530,
69,0,70,o,1.0268508000008296,None,70,0,69,382.81186829999933,,,,,,,,,,,,,,,,,,,,,,,,,,,,,,,,,,,,,,,,,,,,,,,,,,382.80481080000027,382.81186829999933,383.31466419999924,383.30296739999903,383.31171560000075,383.31466419999924,383.31466419999924,383.31466419999924,384.3441951999994,Objects\089a.jpg,post,o,1.0268508000008296,None,,,,,,,,00029,001,2025-11-15_11h52.06.081,MST_test,2024.2.0,99.96471245110472,2025-11-15 11h52.12.643917 +0530,
70,0,71,s,1.3298255999980029,None,71,0,70,384.35168530000374,,,,,,,,,,,,,,,,,,,,,,,,,,,,,,,,,,,,,,,,,,,,,,,,,,384.3445259,384.35168530000374,384.8593312000012,384.8427759999977,384.8567002999989,384.8593312000012,384.8593312000012,384.8593312000012,386.19371970000066,Objects\066b.jpg,pre,s,1.3298255999980029,None,,,,,,,,00029,001,2025-11-15_11h52.06.081,MST_test,2024.2.0,99.96471245110472,2025-11-15 11h52.12.643917 +0530,
71,0,72,n,1.191982200005441,None,72,0,71,386.20149859999947,,,,,,,,,,,,,,,,,,,,,,,,,,,,,,,,,,,,,,,,,,,,,,,,,,386.1940297999972,386.20149859999947,386.7099476000003,386.6925009999977,386.7071949000019,386.7099476000003,386.7099476000003,386.7099476000003,387.9034305000023,Foils\f5.jpg,none,n,1.191982200005441,None,,,,,,,,00029,001,2025-11-15_11h52.06.081,MST_test,2024.2.0,99.96471245110472,2025-11-15 11h52.12.643917 +0530,
72,0,73,n,3.785362599999644,None,73,0,72,387.91110409999965,,,,,,,,,,,,,,,,,,,,,,,,,,,,,,,,,,,,,,,,,,,,,,,,,,387.90372149999894,387.91110409999965,388.4201826999997,388.4024935999987,388.41758590000245,388.4201826999997,388.4201826999997,388.4201826999997,392.2131249000013,Objects\133b.jpg,post,n,3.785362599999644,None,,,,,,,,00029,001,2025-11-15_11h52.06.081,MST_test,2024.2.0,99.96471245110472,2025-11-15 11h52.12.643917 +0530,
73,0,74,o,1.420395599998301,None,74,0,73,392.2205885000003,,,,,,,,,,,,,,,,,,,,,,,,,,,,,,,,,,,,,,,,,,,,,,,,,,392.2134473999977,392.2205885000003,392.72105569999985,392.7118769000008,392.7182555000036,392.72105569999985,392.72105569999985,392.72105569999985,394.1519085999971,Objects\365a.jpg,mid,o,1.420395599998301,None,,,,,,,,00029,001,2025-11-15_11h52.06.081,MST_test,2024.2.0,99.96471245110472,2025-11-15 11h52.12.643917 +0530,
74,0,75,n,5.897560199999134,None,75,0,74,394.160286600003,,,,,,,,,,,,,,,,,,,,,,,,,,,,,,,,,,,,,,,,,,,,,,,,,,394.152198900003,394.160286600003,394.6677431999997,394.65146749999985,394.6649976999979,394.6677431999997,394.6677431999997,394.6677431999997,400.57117350000044,Foils\033a.jpg,none,n,5.897560199999134,None,,,,,,,,00029,001,2025-11-15_11h52.06.081,MST_test,2024.2.0,99.96471245110472,2025-11-15 11h52.12.643917 +0530,
75,0,76,s,2.0875692999979947,None,76,0,75,400.5795005999971,,,,,,,,,,,,,,,,,,,,,,,,,,,,,,,,,,,,,,,,,,,,,,,,,,400.57148929999676,400.5795005999971,401.08581689999846,401.0709188000037,401.08332789999986,401.08581689999846,401.08581689999846,401.08581689999846,403.181422499998,Objects\021b.jpg,post,s,2.0875692999979947,None,,,,,,,,00029,001,2025-11-15_11h52.06.081,MST_test,2024.2.0,99.96471245110472,2025-11-15 11h52.12.643917 +0530,
76,0,77,n,3.261544099994353,None,77,0,76,403.18933480000123,,,,,,,,,,,,,,,,,,,,,,,,,,,,,,,,,,,,,,,,,,,,,,,,,,403.18175930000143,403.18933480000123,403.6959363999995,403.68013580000115,403.69342229999893,403.6959363999995,403.6959363999995,403.6959363999995,406.96094789999916,Foils\049a.jpg,none,n,3.261544099994353,None,,,,,,,,00029,001,2025-11-15_11h52.06.081,MST_test,2024.2.0,99.96471245110472,2025-11-15 11h52.12.643917 +0530,
77,0,78,s,1.320487900004082,None,78,0,77,406.96876730000076,,,,,,,,,,,,,,,,,,,,,,,,,,,,,,,,,,,,,,,,,,,,,,,,,,406.9612565999996,406.96876730000076,407.47688760000165,407.45967740000196,407.4744617999968,407.47688760000165,407.47688760000165,407.47688760000165,408.8000746999969,Objects\109b.jpg,post,s,1.320487900004082,None,,,,,,,,00029,001,2025-11-15_11h52.06.081,MST_test,2024.2.0,99.96471245110472,2025-11-15 11h52.12.643917 +0530,
78,0,79,s,1.848396400004276,None,79,0,78,408.8083121000018,,,,,,,,,,,,,,,,,,,,,,,,,,,,,,,,,,,,,,,,,,,,,,,,,,408.80039229999966,408.8083121000018,409.30866909999895,409.29976650000026,409.3053865999973,409.30866909999895,409.30866909999895,409.30866909999895,411.15913400000136,Objects\308a.jpg,pre,s,1.848396400004276,None,,,,,,,,00029,001,2025-11-15_11h52.06.081,MST_test,2024.2.0,99.96471245110472,2025-11-15 11h52.12.643917 +0530,
79,0,80,s,1.0432114000068395,None,80,0,79,411.1680116999996,,,,,,,,,,,,,,,,,,,,,,,,,,,,,,,,,,,,,,,,,,,,,,,,,,411.15931719999935,411.1680116999996,411.6744105999969,411.65944019999733,411.67211790000147,411.6744105999969,411.6744105999969,411.6744105999969,412.72047400000156,Objects\167b.jpg,post,s,1.0432114000068395,None,,,,,,,,00029,001,2025-11-15_11h52.06.081,MST_test,2024.2.0,99.96471245110472,2025-11-15 11h52.12.643917 +0530,
80,0,81,o,1.9598339000003762,None,81,0,80,412.7277008000019,,,,,,,,,,,,,,,,,,,,,,,,,,,,,,,,,,,,,,,,,,,,,,,,,,412.72080339999957,412.7277008000019,413.229803000002,413.2187933000023,413.2271202999982,413.229803000002,413.229803000002,413.229803000002,415.1983693000002,Objects\337a.jpg,pre,o,1.9598339000003762,None,,,,,,,,00029,001,2025-11-15_11h52.06.081,MST_test,2024.2.0,99.96471245110472,2025-11-15 11h52.12.643917 +0530,
81,0,82,s,1.0909218999950099,None,82,0,81,415.2075748999996,,,,,,,,,,,,,,,,,,,,,,,,,,,,,,,,,,,,,,,,,,,,,,,,,,415.1984717000014,415.2075748999996,415.71417870000005,415.6990361999997,415.7116374000034,415.71417870000005,415.71417870000005,415.71417870000005,416.80887000000075,Objects\323b.jpg,mid,s,1.0909218999950099,None,,,,,,,,00029,001,2025-11-15_11h52.06.081,MST_test,2024.2.0,99.96471245110472,2025-11-15 11h52.12.643917 +0530,
82,0,83,o,1.30286260000139,None,83,0,82,416.8172565999994,,,,,,,,,,,,,,,,,,,,,,,,,,,,,,,,,,,,,,,,,,,,,,,,,,416.80915030000324,416.8172565999994,417.31863780000276,417.30845760000375,417.3159031999967,417.31863780000276,417.31863780000276,417.31863780000276,418.62881290000223,Objects\013a.jpg,pre,o,1.30286260000139,None,,,,,,,,00029,001,2025-11-15_11h52.06.081,MST_test,2024.2.0,99.96471245110472,2025-11-15 11h52.12.643917 +0530,
83,0,84,o,0.9238033000001451,None,84,0,83,418.63714269999764,,,,,,,,,,,,,,,,,,,,,,,,,,,,,,,,,,,,,,,,,,,,,,,,,,418.62905480000336,418.63714269999764,419.1373531999998,419.1277215000009,419.13435000000027,419.1373531999998,419.1373531999998,419.1373531999998,420.06931610000174,Objects\124a.jpg,pre,o,0.9238033000001451,None,,,,,,,,00029,001,2025-11-15_11h52.06.081,MST_test,2024.2.0,99.96471245110472,2025-11-15 11h52.12.643917 +0530,
84,0,85,s,1.5581627000065055,None,85,0,84,420.07688970000163,,,,,,,,,,,,,,,,,,,,,,,,,,,,,,,,,,,,,,,,,,,,,,,,,,420.06964020000305,420.07688970000163,420.58370260000083,420.56830459999765,420.58144229999743,420.58370260000083,420.58370260000083,420.58370260000083,422.14830719999736,Objects\097b.jpg,post,s,1.5581627000065055,None,,,,,,,,00029,001,2025-11-15_11h52.06.081,MST_test,2024.2.0,99.96471245110472,2025-11-15 11h52.12.643917 +0530,
85,0,86,n,2.1516061000002082,None,86,0,85,422.15653040000325,,,,,,,,,,,,,,,,,,,,,,,,,,,,,,,,,,,,,,,,,,,,,,,,,,422.14856200000213,422.15653040000325,422.66187170000194,422.6477801000001,422.6596907999992,422.66187170000194,422.66187170000194,422.66187170000194,424.81806840000354,Foils\098a.jpg,none,n,2.1516061000002082,None,,,,,,,,00029,001,2025-11-15_11h52.06.081,MST_test,2024.2.0,99.96471245110472,2025-11-15 11h52.12.643917 +0530,
86,0,87,s,1.1035724999965169,None,87,0,86,424.826404200001,,,,,,,,,,,,,,,,,,,,,,,,,,,,,,,,,,,,,,,,,,,,,,,,,,424.8183568000022,424.826404200001,425.3342619000032,425.31799129999854,425.3314376999988,425.3342619000032,425.3342619000032,425.3342619000032,426.44771110000147,Objects\286b.jpg,pre,s,1.1035724999965169,None,,,,,,,,00029,001,2025-11-15_11h52.06.081,MST_test,2024.2.0,99.96471245110472,2025-11-15 11h52.12.643917 +0530,
87,0,88,s,2.7286578999992344,None,88,0,87,426.45618419999664,,,,,,,,,,,,,,,,,,,,,,,,,,,,,,,,,,,,,,,,,,,,,,,,,,426.4479874000026,426.45618419999664,426.96445590000076,426.94747420000203,426.9617292999974,426.96445590000076,426.96445590000076,426.96445590000076,429.6982190999988,Objects\062b.jpg,post,s,2.7286578999992344,None,,,,,,,,00029,001,2025-11-15_11h52.06.081,MST_test,2024.2.0,99.96471245110472,2025-11-15 11h52.12.643917 +0530,
88,0,89,n,0.8809041000058642,None,89,0,88,429.7058793999968,,,,,,,,,,,,,,,,,,,,,,,,,,,,,,,,,,,,,,,,,,,,,,,,,,429.6984741999986,429.7058793999968,430.2128800999999,430.19690190000256,430.2106519000008,430.2128800999999,430.2128800999999,430.2128800999999,431.09776959999726,Foils\066a.jpg,none,n,0.8809041000058642,None,,,,,,,,00029,001,2025-11-15_11h52.06.081,MST_test,2024.2.0,99.96471245110472,2025-11-15 11h52.12.643917 +0530,
89,0,90,n,0.9530697000009241,None,90,0,89,431.10552070000267,,,,,,,,,,,,,,,,,,,,,,,,,,,,,,,,,,,,,,,,,,,,,,,,,,431.0980514999974,431.10552070000267,431.61247110000113,431.59638460000133,431.610042100001,431.61247110000113,431.61247110000113,431.61247110000113,432.5674158000038,Foils\020b.jpg,none,n,0.9530697000009241,None,,,,,,,,00029,001,2025-11-15_11h52.06.081,MST_test,2024.2.0,99.96471245110472,2025-11-15 11h52.12.643917 +0530,
90,0,91,n,1.4028453999999329,None,91,0,90,432.575324999998,,,,,,,,,,,,,,,,,,,,,,,,,,,,,,,,,,,,,,,,,,,,,,,,,,432.56767019999825,432.575324999998,433.08235080000304,433.0667927999966,433.0797668000014,433.08235080000304,433.08235080000304,433.08235080000304,434.4875650000031,Objects\280b.jpg,mid,n,1.4028453999999329,None,,,,,,,,00029,001,2025-11-15_11h52.06.081,MST_test,2024.2.0,99.96471245110472,2025-11-15 11h52.12.643917 +0530,
91,0,92,n,1.6341825999988941,None,92,0,91,434.4952515999976,,,,,,,,,,,,,,,,,,,,,,,,,,,,,,,,,,,,,,,,,,,,,,,,,,434.48784909999813,434.4952515999976,435.0034952999995,434.98634709999897,435.000872800003,435.0034952999995,435.0034952999995,435.0034952999995,436.6466231000013,Foils\081a.jpg,none,n,1.6341825999988941,None,,,,,,,,00029,001,2025-11-15_11h52.06.081,MST_test,2024.2.0,99.96471245110472,2025-11-15 11h52.12.643917 +0530,
92,0,93,s,3.3152221999989706,None,93,0,92,436.6548565999983,,,,,,,,,,,,,,,,,,,,,,,,,,,,,,,,,,,,,,,,,,,,,,,,,,436.6469395000022,436.6548565999983,437.1622694999969,437.1459775999974,437.15996850000374,437.1622694999969,437.1622694999969,437.1622694999969,440.4863781000022,Objects\334b.jpg,post,s,3.3152221999989706,None,,,,,,,,00029,001,2025-11-15_11h52.06.081,MST_test,2024.2.0,99.96471245110472,2025-11-15 11h52.12.643917 +0530,
93,0,94,n,1.5230866000056267,None,94,0,93,440.4943966999999,,,,,,,,,,,,,,,,,,,,,,,,,,,,,,,,,,,,,,,,,,,,,,,,,,440.48665939999773,440.4943966999999,441.0019287999967,440.98579959999915,440.99955200000113,441.0019287999967,441.0019287999967,441.0019287999967,442.5353247000021,Objects\134b.jpg,mid,n,1.5230866000056267,None,,,,,,,,00029,001,2025-11-15_11h52.06.081,MST_test,2024.2.0,99.96471245110472,2025-11-15 11h52.12.643917 +0530,
94,0,95,o,1.2247054999970715,None,95,0,94,442.54407779999747,,,,,,,,,,,,,,,,,,,,,,,,,,,,,,,,,,,,,,,,,,,,,,,,,,442.5355442,442.54407779999747,443.0447115999996,443.0350610000023,443.04177920000075,443.0447115999996,443.0447115999996,443.0447115999996,444.2759942999983,Objects\319a.jpg,pre,o,1.2247054999970715,None,,,,,,,,00029,001,2025-11-15_11h52.06.081,MST_test,2024.2.0,99.96471245110472,2025-11-15 11h52.12.643917 +0530,
95,0,96,o,0.9327455999955419,None,96,0,95,444.2839942999999,,,,,,,,,,,,,,,,,,,,,,,,,,,,,,,,,,,,,,,,,,,,,,,,,,444.2762581999996,444.2839942999999,444.78521249999903,444.77508220000163,444.7825776000027,444.78521249999903,444.78521249999903,444.78521249999903,445.7258679000006,Objects\144a.jpg,mid,o,0.9327455999955419,None,,,,,,,,00029,001,2025-11-15_11h52.06.081,MST_test,2024.2.0,99.96471245110472,2025-11-15 11h52.12.643917 +0530,
96,0,97,s,0.9098350999993272,None,97,0,96,445.73361309999746,,,,,,,,,,,,,,,,,,,,,,,,,,,,,,,,,,,,,,,,,,,,,,,,,,445.7261834000019,445.73361309999746,446.2392403999984,446.2247118000014,446.2370007999998,446.2392403999984,446.2392403999984,446.2392403999984,447.15525080000225,Objects\151b.jpg,post,s,0.9098350999993272,None,,,,,,,,00029,001,2025-11-15_11h52.06.081,MST_test,2024.2.0,99.96471245110472,2025-11-15 11h52.12.643917 +0530,
97,0,98,n,1.4944677999956184,None,98,0,97,447.16345020000153,,,,,,,,,,,,,,,,,,,,,,,,,,,,,,,,,,,,,,,,,,,,,,,,,,447.1554854999995,447.16345020000153,447.67059139999765,447.6546573000014,447.66780290000315,447.67059139999765,447.67059139999765,447.67059139999765,449.1753752000004,Objects\333b.jpg,mid,n,1.4944677999956184,None,,,,,,,,00029,001,2025-11-15_11h52.06.081,MST_test,2024.2.0,99.96471245110472,2025-11-15 11h52.12.643917 +0530,
98,0,99,s,6.619909500004724,None,99,0,98,449.1833848000024,,,,,,,,,,,,,,,,,,,,,,,,,,,,,,,,,,,,,,,,,,,,,,,,,,449.1756250000035,449.1833848000024,449.6898396000033,449.6743518000003,449.6870783999984,449.6898396000033,449.6898396000033,449.6898396000033,456.31383720000304,Objects\084b.jpg,pre,s,6.619909500004724,None,,,,,,,,00029,001,2025-11-15_11h52.06.081,MST_test,2024.2.0,99.96471245110472,2025-11-15 11h52.12.643917 +0530,
99,0,100,n,6.744172500002605,None,100,0,99,456.3223358000032,,,,,,,,,,,,,,,,,,,,,,,,,,,,,,,,,,,,,,,,,,,,,,,,,,456.31405200000154,456.3223358000032,456.8290665000022,456.8136594000025,456.82672959999763,456.8290665000022,456.8290665000022,456.8290665000022,463.5826098000034,Foils\050a.jpg,none,n,6.744172500002605,None,,,,,,,,00029,001,2025-11-15_11h52.06.081,MST_test,2024.2.0,99.96471245110472,2025-11-15 11h52.12.643917 +0530,
100,0,101,n,1.4895848000014666,None,101,0,100,463.59142370000336,,,,,,,,,,,,,,,,,,,,,,,,,,,,,,,,,,,,,,,,,,,,,,,,,,463.5827790999974,463.59142370000336,464.09974350000266,464.08263089999673,464.09735920000094,464.09974350000266,464.09974350000266,464.09974350000266,465.5931244000021,Objects\067b.jpg,post,n,1.4895848000014666,None,,,,,,,,00029,001,2025-11-15_11h52.06.081,MST_test,2024.2.0,99.96471245110472,2025-11-15 11h52.12.643917 +0530,
101,0,102,s,1.0157521000000997,None,102,0,101,465.6012114999976,,,,,,,,,,,,,,,,,,,,,,,,,,,,,,,,,,,,,,,,,,,,,,,,,,465.5934161999976,465.6012114999976,466.1101406000016,466.09192159999657,466.1078404,466.1101406000016,466.1101406000016,466.1101406000016,467.1325906999991,Objects\311b.jpg,mid,s,1.0157521000000997,None,,,,,,,,00029,001,2025-11-15_11h52.06.081,MST_test,2024.2.0,99.96471245110472,2025-11-15 11h52.12.643917 +0530,
102,0,103,o,1.1407154999978957,None,103,0,102,467.1409932000024,,,,,,,,,,,,,,,,,,,,,,,,,,,,,,,,,,,,,,,,,,,,,,,,,,467.132901099998,467.1409932000024,467.6412003000005,467.63201449999906,467.63759910000226,467.6412003000005,467.6412003000005,467.6412003000005,468.7926060000027,Objects\042a.jpg,pre,o,1.1407154999978957,None,,,,,,,,00029,001,2025-11-15_11h52.06.081,MST_test,2024.2.0,99.96471245110472,2025-11-15 11h52.12.643917 +0530,
103,0,104,o,1.2342811000053189,None,104,0,103,468.80076479999843,,,,,,,,,,,,,,,,,,,,,,,,,,,,,,,,,,,,,,,,,,,,,,,,,,468.79292140000325,468.80076479999843,469.30709979999665,469.2914993000013,469.30489379999926,469.30709979999665,469.30709979999665,469.30709979999665,470.5431682999988,Objects\169b.jpg,mid,o,1.2342811000053189,None,,,,,,,,00029,001,2025-11-15_11h52.06.081,MST_test,2024.2.0,99.96471245110472,2025-11-15 11h52.12.643917 +0530,
104,0,105,o,0.9860560000015539,None,105,0,104,470.550762400002,,,,,,,,,,,,,,,,,,,,,,,,,,,,,,,,,,,,,,,,,,,,,,,,,,470.5434561000002,470.550762400002,471.05086180000217,471.0415933999975,471.04748539999855,471.05086180000217,471.05086180000217,471.05086180000217,472.04171540000243,Objects\018a.jpg,pre,o,0.9860560000015539,None,,,,,,,,00029,001,2025-11-15_11h52.06.081,MST_test,2024.2.0,99.96471245110472,2025-11-15 11h52.12.643917 +0530,
105,0,106,s,4.880037200004153,None,106,0,105,472.0504537000015,,,,,,,,,,,,,,,,,,,,,,,,,,,,,,,,,,,,,,,,,,,,,,,,,,472.04192460000195,472.0504537000015,472.5578087000031,472.54188550000254,472.55535339999915,472.5578087000031,472.5578087000031,472.5578087000031,477.4419418000034,Objects\158b.jpg,pre,s,4.880037200004153,None,,,,,,,,00029,001,2025-11-15_11h52.06.081,MST_test,2024.2.0,99.96471245110472,2025-11-15 11h52.12.643917 +0530,
106,0,107,s,1.5204345999954967,None,107,0,106,477.44970730000205,,,,,,,,,,,,,,,,,,,,,,,,,,,,,,,,,,,,,,,,,,,,,,,,,,477.44226809999964,477.44970730000205,477.95700699999725,477.94063299999834,477.9546065999966,477.95700699999725,477.95700699999725,477.95700699999725,479.48170409999875,Objects\383b.jpg,post,s,1.5204345999954967,None,,,,,,,,00029,001,2025-11-15_11h52.06.081,MST_test,2024.2.0,99.96471245110472,2025-11-15 11h52.12.643917 +0530,
107,0,108,n,2.7915661000006367,None,108,0,107,479.4895297999974,,,,,,,,,,,,,,,,,,,,,,,,,,,,,,,,,,,,,,,,,,,,,,,,,,479.4819917999994,479.4895297999974,479.9897697999986,479.9811050999997,479.98738479999884,479.9897697999986,479.9897697999986,479.9897697999986,482.79107459999796,Objects\175a.jpg,post,n,2.7915661000006367,None,,,,,,,,00029,001,2025-11-15_11h52.06.081,MST_test,2024.2.0,99.96471245110472,2025-11-15 11h52.12.643917 +0530,
108,0,109,s,4.7857743999993545,None,109,0,108,482.79914160000044,,,,,,,,,,,,,,,,,,,,,,,,,,,,,,,,,,,,,,,,,,,,,,,,,,482.79132709999976,482.79914160000044,483.2993635000021,483.29008169999724,483.29511549999734,483.2993635000021,483.2993635000021,483.2993635000021,488.0906799000004,Objects\040a.jpg,mid,s,4.7857743999993545,None,,,,,,,,00029,001,2025-11-15_11h52.06.081,MST_test,2024.2.0,99.96471245110472,2025-11-15 11h52.12.643917 +0530,
109,0,110,s,1.2336378999971203,None,110,0,109,488.09859210000286,,,,,,,,,,,,,,,,,,,,,,,,,,,,,,,,,,,,,,,,,,,,,,,,,,488.09094560000085,488.09859210000286,488.603546600003,488.5889621000024,488.6007935000016,488.603546600003,488.603546600003,488.603546600003,489.8401565000022,Objects\313b.jpg,mid,s,1.2336378999971203,None,,,,,,,,00029,001,2025-11-15_11h52.06.081,MST_test,2024.2.0,99.96471245110472,2025-11-15 11h52.12.643917 +0530,
110,0,111,n,1.744733700004872,None,111,0,110,489.8481549999997,,,,,,,,,,,,,,,,,,,,,,,,,,,,,,,,,,,,,,,,,,,,,,,,,,489.8404511999979,489.8481549999997,490.3570808000004,490.33910179999657,490.3544280999995,490.3570808000004,490.3570808000004,490.3570808000004,492.1098232000004,Foils\f7.jpg,none,n,1.744733700004872,None,,,,,,,,00029,001,2025-11-15_11h52.06.081,MST_test,2024.2.0,99.96471245110472,2025-11-15 11h52.12.643917 +0530,
111,0,112,n,5.131812600004196,None,112,0,111,492.11789090000093,,,,,,,,,,,,,,,,,,,,,,,,,,,,,,,,,,,,,,,,,,,,,,,,,,492.11014080000314,492.11789090000093,492.6252499999973,492.60930550000194,492.6226220000026,492.6252499999973,492.6252499999973,492.6252499999973,497.75893930000166,Objects\306b.jpg,pre,n,5.131812600004196,None,,,,,,,,00029,001,2025-11-15_11h52.06.081,MST_test,2024.2.0,99.96471245110472,2025-11-15 11h52.12.643917 +0530,
112,0,113,s,1.474569900005008,None,113,0,112,497.76718249999976,,,,,,,,,,,,,,,,,,,,,,,,,,,,,,,,,,,,,,,,,,,,,,,,,,497.7591409000015,497.76718249999976,498.2746779000008,498.2585504000017,498.2719803,498.2746779000008,498.2746779000008,498.2746779000008,499.75883530000283,Objects\156b.jpg,pre,s,1.474569900005008,None,,,,,,,,00029,001,2025-11-15_11h52.06.081,MST_test,2024.2.0,99.96471245110472,2025-11-15 11h52.12.643917 +0530,
113,0,114,s,0.8919349999996484,None,114,0,113,499.7670744999996,,,,,,,,,,,,,,,,,,,,,,,,,,,,,,,,,,,,,,,,,,,,,,,,,,499.75910109999677,499.7670744999996,500.2737832999992,500.25781519999873,500.2713033999971,500.2737832999992,500.2737832999992,500.2737832999992,501.1679460000014,Objects\154b.jpg,mid,s,0.8919349999996484,None,,,,,,,,00029,001,2025-11-15_11h52.06.081,MST_test,2024.2.0,99.96471245110472,2025-11-15 11h52.12.643917 +0530,
114,0,115,n,1.5297797000021092,None,115,0,114,501.1767299999992,,,,,,,,,,,,,,,,,,,,,,,,,,,,,,,,,,,,,,,,,,,,,,,,,,501.16813980000006,501.1767299999992,501.68359719999717,501.66800630000216,501.6811261999974,501.68359719999717,501.68359719999717,501.68359719999717,503.21815659999993,Foils\002a.jpg,none,n,1.5297797000021092,None,,,,,,,,00029,001,2025-11-15_11h52.06.081,MST_test,2024.2.0,99.96471245110472,2025-11-15 11h52.12.643917 +0530,
115,0,116,o,1.0794471999979578,None,116,0,115,503.22646610000083,,,,,,,,,,,,,,,,,,,,,,,,,,,,,,,,,,,,,,,,,,,,,,,,,,503.21840079999674,503.22646610000083,503.7267195000022,503.71752540000307,503.72363380000024,503.7267195000022,503.7267195000022,503.7267195000022,504.80793789999734,Objects\096a.jpg,pre,o,1.0794471999979578,None,,,,,,,,00029,001,2025-11-15_11h52.06.081,MST_test,2024.2.0,99.96471245110472,2025-11-15 11h52.12.643917 +0530,
116,0,117,s,1.0188359999956447,None,117,0,116,504.81618829999934,,,,,,,,,,,,,,,,,,,,,,,,,,,,,,,,,,,,,,,,,,,,,,,,,,504.8081728000034,504.81618829999934,505.3228906000004,505.30751410000084,505.32018380000227,505.3228906000004,505.3228906000004,505.3228906000004,506.3475411000036,Objects\277b.jpg,post,s,1.0188359999956447,None,,,,,,,,00029,001,2025-11-15_11h52.06.081,MST_test,2024.2.0,99.96471245110472,2025-11-15 11h52.12.643917 +0530,
117,0,118,s,3.8214941999976872,None,118,0,117,506.35596280000027,,,,,,,,,,,,,,,,,,,,,,,,,,,,,,,,,,,,,,,,,,,,,,,,,,506.34780989999854,506.35596280000027,506.86427679999906,506.8472685000015,506.8616647000017,506.86427679999906,506.86427679999906,506.86427679999906,510.6879942000014,Objects\195b.jpg,post,s,3.8214941999976872,None,,,,,,,,00029,001,2025-11-15_11h52.06.081,MST_test,2024.2.0,99.96471245110472,2025-11-15 11h52.12.643917 +0530,
118,0,119,n,1.2379176999966148,None,119,0,118,510.6954659999974,,,,,,,,,,,,,,,,,,,,,,,,,,,,,,,,,,,,,,,,,,,,,,,,,,510.6882654000001,510.6954659999974,511.1991280000002,511.18639039999834,511.19637630000216,511.1991280000002,511.1991280000002,511.1991280000002,512.4467021000019,Foils\009a.jpg,none,n,1.2379176999966148,None,,,,,,,,00029,001,2025-11-15_11h52.06.081,MST_test,2024.2.0,99.96471245110472,2025-11-15 11h52.12.643917 +0530,
119,0,120,n,2.8603072999976575,None,120,0,119,512.4552718999985,,,,,,,,,,,,,,,,,,,,,,,,,,,,,,,,,,,,,,,,,,,,,,,,,,512.446973099999,512.4552718999985,512.9622610000006,512.9460871999981,512.9598372000037,512.9622610000006,512.9622610000006,512.9622610000006,515.826186899998,Objects\196b.jpg,post,n,2.8603072999976575,None,,,,,,,,00029,001,2025-11-15_11h52.06.081,MST_test,2024.2.0,99.96471245110472,2025-11-15 11h52.12.643917 +0530,
120,0,121,s,1.1917743000012706,None,121,0,120,515.8348201999979,,,,,,,,,,,,,,,,,,,,,,,,,,,,,,,,,,,,,,,,,,,,,,,,,,515.8263885999986,515.8348201999979,516.3415844999981,516.3259220000036,516.3389536999966,516.3415844999981,516.3415844999981,516.3415844999981,517.5364410000038,Objects\222b.jpg,pre,s,1.1917743000012706,None,,,,,,,,00029,001,2025-11-15_11h52.06.081,MST_test,2024.2.0,99.96471245110472,2025-11-15 11h52.12.643917 +0530,
121,0,122,s,1.3201697999975295,None,122,0,121,517.5445718999981,,,,,,,,,,,,,,,,,,,,,,,,,,,,,,,,,,,,,,,,,,,,,,,,,,517.5366817000031,517.5445718999981,518.0452691000028,518.0356738999981,518.0417854999978,518.0452691000028,518.0452691000028,518.0452691000028,519.366646100003,Objects\168a.jpg,pre,s,1.3201697999975295,None,,,,,,,,00029,001,2025-11-15_11h52.06.081,MST_test,2024.2.0,99.96471245110472,2025-11-15 11h52.12.643917 +0530,
122,0,123,n,3.359863999998197,None,123,0,122,519.3744708000013,,,,,,,,,,,,,,,,,,,,,,,,,,,,,,,,,,,,,,,,,,,,,,,,,,519.3667461000005,519.3744708000013,519.8860589000033,519.8658519000019,519.8833266000001,519.8860589000033,519.8860589000033,519.8860589000033,523.2561036999978,Objects\014b.jpg,mid,n,3.359863999998197,None,,,,,,,,00029,001,2025-11-15_11h52.06.081,MST_test,2024.2.0,99.96471245110472,2025-11-15 11h52.12.643917 +0530,
123,0,124,o,1.145659899993916,None,124,0,123,523.2639915999971,,,,,,,,,,,,,,,,,,,,,,,,,,,,,,,,,,,,,,,,,,,,,,,,,,523.2563829999999,523.2639915999971,523.7641112999991,523.755150099998,523.7618823000012,523.7641112999991,523.7641112999991,523.7641112999991,524.9151655000023,Objects\182a.jpg,post,o,1.145659899993916,None,,,,,,,,00029,001,2025-11-15_11h52.06.081,MST_test,2024.2.0,99.96471245110472,2025-11-15 11h52.12.643917 +0530,
124,0,125,n,2.012843700002122,None,125,0,124,524.9237003000017,,,,,,,,,,,,,,,,,,,,,,,,,,,,,,,,,,,,,,,,,,,,,,,,,,524.9153960999975,524.9237003000017,525.432532400002,525.4153829999996,525.4298729000002,525.432532400002,525.432532400002,525.432532400002,527.4554839999983,Objects\159b.jpg,mid,n,2.012843700002122,None,,,,,,,,00029,001,2025-11-15_11h52.06.081,MST_test,2024.2.0,99.96471245110472,2025-11-15 11h52.12.643917 +0530,
125,0,126,o,1.0743271000028471,None,126,0,125,527.4635514000038,,,,,,,,,,,,,,,,,,,,,,,,,,,,,,,,,,,,,,,,,,,,,,,,,,527.4557695999974,527.4635514000038,527.9636417000002,527.954118200003,527.9612978000005,527.9636417000002,527.9636417000002,527.9636417000002,529.0453658999977,Objects\326a.jpg,post,o,1.0743271000028471,None,,,,,,,,00029,001,2025-11-15_11h52.06.081,MST_test,2024.2.0,99.96471245110472,2025-11-15 11h52.12.643917 +0530,
126,0,127,o,0.907307999994373,None,127,0,126,529.0531494000024,,,,,,,,,,,,,,,,,,,,,,,,,,,,,,,,,,,,,,,,,,,,,,,,,,529.0456779000015,529.0531494000024,529.5541796999969,529.5445583999972,529.5517994999973,529.5541796999969,529.5541796999969,529.5541796999969,530.4648547000033,Objects\113a.jpg,mid,o,0.907307999994373,None,,,,,,,,00029,001,2025-11-15_11h52.06.081,MST_test,2024.2.0,99.96471245110472,2025-11-15 11h52.12.643917 +0530,
127,0,128,n,0.7850556000048527,None,128,0,127,530.4729321999985,,,,,,,,,,,,,,,,,,,,,,,,,,,,,,,,,,,,,,,,,,,,,,,,,,530.4651204999973,530.4729321999985,530.9801100999975,530.9641172999982,530.9778222000023,530.9801100999975,530.9801100999975,530.9801100999975,531.7747262999983,Foils\105a.jpg,none,n,0.7850556000048527,None,,,,,,,,00029,001,2025-11-15_11h52.06.081,MST_test,2024.2.0,99.96471245110472,2025-11-15 11h52.12.643917 +0530,
128,0,129,n,0.6907073999973363,None,129,0,128,531.7827918999974,,,,,,,,,,,,,,,,,,,,,,,,,,,,,,,,,,,,,,,,,,,,,,,,,,531.7749651999984,531.7827918999974,532.2830852999978,532.2735777999987,532.2781068999975,532.2830852999978,532.2830852999978,532.2830852999978,532.9840328999999,Objects\174a.jpg,post,n,0.6907073999973363,None,,,,,,,,00029,001,2025-11-15_11h52.06.081,MST_test,2024.2.0,99.96471245110472,2025-11-15 11h52.12.643917 +0530,
129,0,130,o,2.1437574999945355,None,130,0,129,532.9926500000001,,,,,,,,,,,,,,,,,,,,,,,,,,,,,,,,,,,,,,,,,,,,,,,,,,532.9842551999973,532.9926500000001,533.4933029000022,533.4839792999992,533.4897624000005,533.4933029000022,533.4933029000022,533.4933029000022,535.6435055000038,Objects\360a.jpg,mid,o,2.1437574999945355,None,,,,,,,,00029,001,2025-11-15_11h52.06.081,MST_test,2024.2.0,99.96471245110472,2025-11-15 11h52.12.643917 +0530,
130,0,131,o,1.0681282000005012,None,131,0,130,535.6523301999987,,,,,,,,,,,,,,,,,,,,,,,,,,,,,,,,,,,,,,,,,,,,,,,,,,535.6436829000013,535.6523301999987,536.1529188999993,536.1431948000027,536.1488243999993,536.1529188999993,536.1529188999993,536.1529188999993,537.2235241000017,Objects\264a.jpg,mid,o,1.0681282000005012,None,,,,,,,,00029,001,2025-11-15_11h52.06.081,MST_test,2024.2.0,99.96471245110472,2025-11-15 11h52.12.643917 +0530,
131,0,132,o,1.072573100005684,None,132,0,131,537.2321233999974,,,,,,,,,,,,,,,,,,,,,,,,,,,,,,,,,,,,,,,,,,,,,,,,,,537.2237808999998,537.2321233999974,537.7326508999977,537.7235043000037,537.7298758999968,537.7326508999977,537.7326508999977,537.7326508999977,538.8136165999967,Objects\082a.jpg,mid,o,1.072573100005684,None,,,,,,,,00029,001,2025-11-15_11h52.06.081,MST_test,2024.2.0,99.96471245110472,2025-11-15 11h52.12.643917 +0530,
132,0,133,n,2.7252097000018694,None,133,0,132,538.8219387999998,,,,,,,,,,,,,,,,,,,,,,,,,,,,,,,,,,,,,,,,,,,,,,,,,,538.8138755000036,538.8219387999998,539.3284847999967,539.312912399997,539.3261876999968,539.3284847999967,539.3284847999967,539.3284847999967,542.0631078000006,Foils\057a.jpg,none,n,2.7252097000018694,None,,,,,,,,00029,001,2025-11-15_11h52.06.081,MST_test,2024.2.0,99.96471245110472,2025-11-15 11h52.12.643917 +0530,
133,0,134,o,1.065893099999812,None,134,0,133,542.0714378999983,,,,,,,,,,,,,,,,,,,,,,,,,,,,,,,,,,,,,,,,,,,,,,,,,,542.063327099997,542.0714378999983,542.5717755000005,542.5623013000004,542.5675656000021,542.5717755000005,542.5717755000005,542.5717755000005,543.643015200003,Objects\245a.jpg,mid,o,1.065893099999812,None,,,,,,,,00029,001,2025-11-15_11h52.06.081,MST_test,2024.2.0,99.96471245110472,2025-11-15 11h52.12.643917 +0530,
134,0,135,n,1.6553343999985373,None,135,0,134,543.6512674999976,,,,,,,,,,,,,,,,,,,,,,,,,,,,,,,,,,,,,,,,,,,,,,,,,,543.6432126,543.6512674999976,544.1515081000034,544.1422248000017,544.1476244000005,544.1515081000034,544.1515081000034,544.1515081000034,545.8122882000025,Objects\106a.jpg,mid,n,1.6553343999985373,None,,,,,,,,00029,001,2025-11-15_11h52.06.081,MST_test,2024.2.0,99.96471245110472,2025-11-15 11h52.12.643917 +0530,
135,0,136,n,0.8129513999956544,None,136,0,135,545.8210252999997,,,,,,,,,,,,,,,,,,,,,,,,,,,,,,,,,,,,,,,,,,,,,,,,,,545.812506299997,545.8210252999997,546.3287876000031,546.3120584999997,546.326568299999,546.3287876000031,546.3287876000031,546.3287876000031,547.143356499997,Foils\113a.jpg,none,n,0.8129513999956544,None,,,,,,,,00029,001,2025-11-15_11h52.06.081,MST_test,2024.2.0,99.96471245110472,2025-11-15 11h52.12.643917 +0530,
136,0,137,n,0.6213948000004166,None,137,0,136,547.1508864999996,,,,,,,,,,,,,,,,,,,,,,,,,,,,,,,,,,,,,,,,,,,,,,,,,,547.1436546999976,547.1508864999996,547.6564558000027,547.6418627000021,547.6538205999968,547.6564558000027,547.6564558000027,547.6564558000027,548.2819691999975,Objects\251b.jpg,mid,n,0.6213948000004166,None,,,,,,,,00029,001,2025-11-15_11h52.06.081,MST_test,2024.2.0,99.96471245110472,2025-11-15 11h52.12.643917 +0530,
137,0,138,o,0.9660794000010355,None,138,0,137,548.2906671000019,,,,,,,,,,,,,,,,,,,,,,,,,,,,,,,,,,,,,,,,,,,,,,,,,,548.2821779000005,548.2906671000019,548.7914329999985,548.7820953999981,548.7889636000036,548.7914329999985,548.7914329999985,548.7914329999985,549.7620410000018,Objects\104a.jpg,pre,o,0.9660794000010355,None,,,,,,,,00029,001,2025-11-15_11h52.06.081,MST_test,2024.2.0,99.96471245110472,2025-11-15 11h52.12.643917 +0530,
138,0,139,n,1.4643299000017578,None,139,0,138,549.770559800003,,,,,,,,,,,,,,,,,,,,,,,,,,,,,,,,,,,,,,,,,,,,,,,,,,549.7622931000005,549.770559800003,550.2771427999978,550.2617084000012,550.2747778999983,550.2771427999978,550.2771427999978,550.2771427999978,551.751525300002,Foils\097a.jpg,none,n,1.4643299000017578,None,,,,,,,,00029,001,2025-11-15_11h52.06.081,MST_test,2024.2.0,99.96471245110472,2025-11-15 11h52.12.643917 +0530,
139,0,140,o,1.0407342000034987,None,140,0,139,551.7603872999971,,,,,,,,,,,,,,,,,,,,,,,,,,,,,,,,,,,,,,,,,,,,,,,,,,551.7517544000002,551.7603872999971,552.2605872999993,552.2511270999967,552.2561196000024,552.2605872999993,552.2605872999993,552.2605872999993,553.3116393000018,Objects\115a.jpg,mid,o,1.0407342000034987,None,,,,,,,,00029,001,2025-11-15_11h52.06.081,MST_test,2024.2.0,99.96471245110472,2025-11-15 11h52.12.643917 +0530,
140,0,141,s,1.6091212000028463,None,141,0,140,553.3201270999998,,,,,,,,,,,,,,,,,,,,,,,,,,,,,,,,,,,,,,,,,,,,,,,,,,553.3118599000009,553.3201270999998,553.8203056999992,553.8113290000038,553.817827400002,553.8203056999992,553.8203056999992,553.8203056999992,555.431390400001,Objects\020a.jpg,post,s,1.6091212000028463,None,,,,,,,,00029,001,2025-11-15_11h52.06.081,MST_test,2024.2.0,99.96471245110472,2025-11-15 11h52.12.643917 +0530,
141,0,142,n,0.9477666999955545,None,142,0,141,555.4398707,,,,,,,,,,,,,,,,,,,,,,,,,,,,,,,,,,,,,,,,,,,,,,,,,,555.4316446000012,555.4398707,555.9457120000006,555.9307157000003,555.9434258000038,555.9457120000006,555.9457120000006,555.9457120000006,556.9020034999994,Foils\093b.jpg,none,n,0.9477666999955545,None,,,,,,,,00029,001,2025-11-15_11h52.06.081,MST_test,2024.2.0,99.96471245110472,2025-11-15 11h52.12.643917 +0530,
142,0,143,o,2.069441799998458,None,143,0,142,556.9097307999982,,,,,,,,,,,,,,,,,,,,,,,,,,,,,,,,,,,,,,,,,,,,,,,,,,556.9022893000001,556.9097307999982,557.416492999997,557.400565099997,557.4141298999966,557.416492999997,557.416492999997,557.416492999997,559.4905928000007,Objects\178b.jpg,mid,o,2.069441799998458,None,,,,,,,,00029,001,2025-11-15_11h52.06.081,MST_test,2024.2.0,99.96471245110472,2025-11-15 11h52.12.643917 +0530,
143,0,144,s,2.078319400003238,None,144,0,143,559.4993503000005,,,,,,,,,,,,,,,,,,,,,,,,,,,,,,,,,,,,,,,,,,,,,,,,,,559.4907942999998,559.4993503000005,560.0073894000016,559.9902509000021,560.0046520000033,560.0073894000016,560.0073894000016,560.0073894000016,562.0908165000001,Objects\297b.jpg,pre,s,2.078319400003238,None,,,,,,,,00029,001,2025-11-15_11h52.06.081,MST_test,2024.2.0,99.96471245110472,2025-11-15 11h52.12.643917 +0530,
144,0,145,o,1.4284504999959609,None,145,0,144,562.0989749,,,,,,,,,,,,,,,,,,,,,,,,,,,,,,,,,,,,,,,,,,,,,,,,,,562.0910546000014,562.0989749,562.6012441999992,562.5901817999984,562.5985269000012,562.6012441999992,562.6012441999992,562.6012441999992,564.0312105999983,Objects\069a.jpg,post,o,1.4284504999959609,None,,,,,,,,00029,001,2025-11-15_11h52.06.081,MST_test,2024.2.0,99.96471245110472,2025-11-15 11h52.12.643917 +0530,
145,0,146,s,4.297864299995126,None,146,0,145,564.0387811000037,,,,,,,,,,,,,,,,,,,,,,,,,,,,,,,,,,,,,,,,,,,,,,,,,,564.031476199998,564.0387811000037,564.5394155999966,564.5297150999977,564.5352197000029,564.5394155999966,564.5394155999966,564.5394155999966,568.8396466999984,Objects\375a.jpg,post,s,4.297864299995126,None,,,,,,,,00029,001,2025-11-15_11h52.06.081,MST_test,2024.2.0,99.96471245110472,2025-11-15 11h52.12.643917 +0530,
146,0,147,n,6.345113200004562,None,147,0,146,568.8481568999996,,,,,,,,,,,,,,,,,,,,,,,,,,,,,,,,,,,,,,,,,,,,,,,,,,568.8398648000002,568.8481568999996,569.3487623000037,569.3392848000003,569.3462881000014,569.3487623000037,569.3487623000037,569.3487623000037,575.6990628999993,Objects\142a.jpg,post,n,6.345113200004562,None,,,,,,,,00029,001,2025-11-15_11h52.06.081,MST_test,2024.2.0,99.96471245110472,2025-11-15 11h52.12.643917 +0530,
147,0,148,n,2.064918200005195,None,148,0,147,575.7072585999995,,,,,,,,,,,,,,,,,,,,,,,,,,,,,,,,,,,,,,,,,,,,,,,,,,575.6993487,575.7072585999995,576.213135799997,576.1984054999994,576.2108531999984,576.213135799997,576.213135799997,576.213135799997,578.2886221000008,Objects\301b.jpg,pre,n,2.064918200005195,None,,,,,,,,00029,001,2025-11-15_11h52.06.081,MST_test,2024.2.0,99.96471245110472,2025-11-15 11h52.12.643917 +0530,
148,0,149,s,5.712098299998615,None,149,0,148,578.296994700002,,,,,,,,,,,,,,,,,,,,,,,,,,,,,,,,,,,,,,,,,,,,,,,,,,578.2889843000012,578.296994700002,578.7970866999967,578.7883501000033,578.7946472999975,578.7970866999967,578.7970866999967,578.7970866999967,584.5177968999997,Objects\252a.jpg,pre,s,5.712098299998615,None,,,,,,,,00029,001,2025-11-15_11h52.06.081,MST_test,2024.2.0,99.96471245110472,2025-11-15 11h52.12.643917 +0530,
149,0,150,o,1.1471367000049213,None,150,0,149,584.5261409000013,,,,,,,,,,,,,,,,,,,,,,,,,,,,,,,,,,,,,,,,,,,,,,,,,,584.5180041999993,584.5261409000013,585.0265644000028,585.0175665999996,585.0230589999992,585.0265644000028,585.0265644000028,585.0265644000028,586.177979,Objects\380a.jpg,mid,o,1.1471367000049213,None,,,,,,,,00029,001,2025-11-15_11h52.06.081,MST_test,2024.2.0,99.96471245110472,2025-11-15 11h52.12.643917 +0530,
,,,,,,,,,,,,,,,,,,,,,,,,,,,,,,,,,,,,,,,,,,,,,,,,,,,,,,,,,,,,,,,,,,,,,,,,,586.1782078999968,586.1859865000006,586.1859865000006,589.8472089999996,space,3.651915700000245,None,00029,001,2025-11-15_11h52.06.081,MST_test,2024.2.0,99.96471245110472,2025-11-15 11h52.12.643917 +0530,
