thisN,thisTrialN,thisRepN,key_resp_3.keys,key_resp_3.rt,key_resp_3.duration,trials.thisRepN,trials.thisTrialN,trials.thisN,trials.thisIndex,thisRow.t,notes,intro_page.started,text.started,key_resp.started,intro_page.stopped,key_resp.keys,key_resp.rt,key_resp.duration,instructions.started,text_2.started,key_resp_2.started,instructions.stopped,key_resp_2.keys,key_resp_2.rt,key_resp_2.duration,demo1.started,image_1.started,image_2.started,text_7.started,key_resp_6.started,text_9.started,demo1.stopped,key_resp_6.keys,key_resp_6.rt,key_resp_6.duration,demo3.started,image_5.started,image_6.started,text_11.started,text_12.started,key_resp_8.started,demo3.stopped,key_resp_8.keys,key_resp_8.rt,key_resp_8.duration,demo_conclusion.started,text_13.started,key_resp_9.started,demo_conclusion.stopped,key_resp_9.keys,key_resp_9.rt,key_resp_9.duration,start_test.started,text_6.started,key_resp_5.started,start_test.stopped,key_resp_5.keys,key_resp_5.rt,key_resp_5.duration,ISI.started,text_4.started,text_4.stopped,ISI.stopped,routine_1.started,image.started,text_3.started,key_resp_3.started,routine_1.stopped,image_path,position_of_stimuli,trials.key_resp_3.keys,trials.key_resp_3.rt,trials.key_resp_3.duration,End_page.started,text_5.started,key_resp_4.started,End_page.stopped,key_resp_4.keys,key_resp_4.rt,key_resp_4.duration,participant,session,date,expName,psychopyVersion,frameRate,expStart,
,,,,,,,,,,,,0.003160399995977059,0.019627200003014877,0.019627200003014877,6.737694299998111,space,6.715702600005898,None,,,,,,,,,,,,,,,,,,,,,,,,,,,,,,,,,,,,,,,,,,,,,,,,,,,,,,,,,,,,,,,00023,001,2025-11-09_16h38.05.927,MST_test,2024.2.2,59.957070736779215,2025-11-09 16h38.12.918198 +0530,
,,,,,,,,,,,,,,,,,,,6.737723199999891,6.7528847999928985,6.7528847999928985,13.919952099997317,space,7.15844769999967,None,,,,,,,,,,,,,,,,,,,,,,,,,,,,,,,,,,,,,,,,,,,,,,,,,,,,,,,,00023,001,2025-11-09_16h38.05.927,MST_test,2024.2.2,59.957070736779215,2025-11-09 16h38.12.918198 +0530,
,,,,,,,,,,,,,,,,,,,,,,,,,,13.919974699994782,13.936038699990604,13.936038699990604,13.936038699990604,13.936038699990604,13.936038699990604,17.96954099999857,space,4.019200100010494,None,,,,,,,,,,,,,,,,,,,,,,,,,,,,,,,,,,,,,,,,,,,,,,00023,001,2025-11-09_16h38.05.927,MST_test,2024.2.2,59.957070736779215,2025-11-09 16h38.12.918198 +0530,
,,,,,,,,,,,,,,,,,,,,,,,,,,,,,,,,,,,,17.969562099999166,17.985939199992572,17.985939199992572,17.985939199992572,17.985939199992572,17.985939199992572,21.086180099999183,space,3.0913151999993715,None,,,,,,,,,,,,,,,,,,,,,,,,,,,,,,,,,,,,00023,001,2025-11-09_16h38.05.927,MST_test,2024.2.2,59.957070736779215,2025-11-09 16h38.12.918198 +0530,
,,,,,,,,,,,,,,,,,,,,,,,,,,,,,,,,,,,,,,,,,,,,,,21.0862036000035,21.10259729999234,21.10259729999234,37.16916219999257,space,16.054612300009467,None,,,,,,,,,,,,,,,,,,,,,,,,,,,,,00023,001,2025-11-09_16h38.05.927,MST_test,2024.2.2,59.957070736779215,2025-11-09 16h38.12.918198 +0530,
,,,,,,,,,,,,,,,,,,,,,,,,,,,,,,,,,,,,,,,,,,,,,,,,,,,,,37.16919780000171,37.1854469999962,37.1854469999962,75.48502359999111,space,38.29289379999682,None,,,,,,,,,,,,,,,,,,,,,,00023,001,2025-11-09_16h38.05.927,MST_test,2024.2.2,59.957070736779215,2025-11-09 16h38.12.918198 +0530,
0,0,0,o,6.000824099988677,None,0,0,0,0,75.50127269999939,,,,,,,,,,,,,,,,,,,,,,,,,,,,,,,,,,,,,,,,,,,,,,,,,,75.48785239999415,75.50127269999939,76.00126140000066,75.9849000999966,75.9917803999997,76.00126140000066,76.00126140000066,76.00126140000066,82.01825209999515,Objects\251a.jpg,post,o,6.000824099988677,None,,,,,,,,00023,001,2025-11-09_16h38.05.927,MST_test,2024.2.2,59.957070736779215,2025-11-09 16h38.12.918198 +0530,
1,0,1,o,1.990795399993658,None,1,0,1,0,82.03448780000326,,,,,,,,,,,,,,,,,,,,,,,,,,,,,,,,,,,,,,,,,,,,,,,,,,82.01834290000261,82.03448780000326,82.56804759999795,82.5180343999964,82.56091200000083,82.56804759999795,82.56804759999795,82.56804759999795,84.56802959999186,Objects\326b.jpg,pre,o,1.990795399993658,None,,,,,,,,00023,001,2025-11-09_16h38.05.927,MST_test,2024.2.2,59.957070736779215,2025-11-09 16h38.12.918198 +0530,
2,0,2,s,2.42520000001241,None,2,0,2,0,84.58443380000244,,,,,,,,,,,,,,,,,,,,,,,,,,,,,,,,,,,,,,,,,,,,,,,,,,84.56811149998975,84.58443380000244,85.1013474999927,85.06794159999117,85.08912789999158,85.1013474999927,85.1013474999927,85.1013474999927,87.53474709999864,Objects\193b.jpg,mid,s,2.42520000001241,None,,,,,,,,00023,001,2025-11-09_16h38.05.927,MST_test,2024.2.2,59.957070736779215,2025-11-09 16h38.12.918198 +0530,
3,0,3,s,7.501538800002891,None,3,0,3,0,87.5510299000016,,,,,,,,,,,,,,,,,,,,,,,,,,,,,,,,,,,,,,,,,,,,,,,,,,87.53483609999239,87.5510299000016,88.06766159999825,88.03464789999998,88.05360519999522,88.06766159999825,88.06766159999825,88.06766159999825,95.58452089999628,Objects\084b.jpg,pre,s,7.501538800002891,None,,,,,,,,00023,001,2025-11-09_16h38.05.927,MST_test,2024.2.2,59.957070736779215,2025-11-09 16h38.12.918198 +0530,
4,0,4,n,2.9040954999945825,None,4,0,4,0,95.60085719999915,,,,,,,,,,,,,,,,,,,,,,,,,,,,,,,,,,,,,,,,,,,,,,,,,,95.58459959999891,95.60085719999915,96.1008201999939,96.08439360000193,96.09232619999966,96.1008201999939,96.1008201999939,96.1008201999939,99.01784749999933,Foils\106a.jpg,none,n,2.9040954999945825,None,,,,,,,,00023,001,2025-11-09_16h38.05.927,MST_test,2024.2.2,59.957070736779215,2025-11-09 16h38.12.918198 +0530,
5,0,5,o,3.2757447000039974,None,5,0,5,0,99.03412039999967,,,,,,,,,,,,,,,,,,,,,,,,,,,,,,,,,,,,,,,,,,,,,,,,,,99.01793489999545,99.03412039999967,99.55074589999276,99.51768699999957,99.53847329999553,99.55074589999276,99.55074589999276,99.55074589999276,102.83432490000268,Objects\381b.jpg,pre,o,3.2757447000039974,None,,,,,,,,00023,001,2025-11-09_16h38.05.927,MST_test,2024.2.2,59.957070736779215,2025-11-09 16h38.12.918198 +0530,
6,0,6,n,2.9365774000034435,None,6,0,6,0,102.85070419999829,,,,,,,,,,,,,,,,,,,,,,,,,,,,,,,,,,,,,,,,,,,,,,,,,,102.83440459999838,102.85070419999829,103.35061239999777,103.33425610000268,103.34554789999675,103.35061239999777,103.35061239999777,103.35061239999777,106.30088110000361,Foils\098a.jpg,none,n,2.9365774000034435,None,,,,,,,,00023,001,2025-11-09_16h38.05.927,MST_test,2024.2.2,59.957070736779215,2025-11-09 16h38.12.918198 +0530,
7,0,7,o,2.1550776999938535,None,7,0,7,0,106.31732649999321,,,,,,,,,,,,,,,,,,,,,,,,,,,,,,,,,,,,,,,,,,,,,,,,,,106.30095849999634,106.31732649999321,106.81725059999735,106.80076339999505,106.81182839999383,106.81725059999735,106.81725059999735,106.81725059999735,108.98415619999287,Objects\286b.jpg,pre,o,2.1550776999938535,None,,,,,,,,00023,001,2025-11-09_16h38.05.927,MST_test,2024.2.2,59.957070736779215,2025-11-09 16h38.12.918198 +0530,
8,0,8,s,3.454636499998742,None,8,0,8,0,109.0005691999977,,,,,,,,,,,,,,,,,,,,,,,,,,,,,,,,,,,,,,,,,,,,,,,,,,108.98423780000303,109.0005691999977,109.50013859999308,109.48402469999564,109.4954679999937,109.50013859999308,109.50013859999308,109.50013859999308,112.96742109999468,Objects\165b.jpg,mid,s,3.454636499998742,None,,,,,,,,00023,001,2025-11-09_16h38.05.927,MST_test,2024.2.2,59.957070736779215,2025-11-09 16h38.12.918198 +0530,
9,0,9,o,2.0346084000047995,None,9,0,9,0,112.98384649999207,,,,,,,,,,,,,,,,,,,,,,,,,,,,,,,,,,,,,,,,,,,,,,,,,,112.96749909999198,112.98384649999207,113.48377049999544,113.46742649999214,113.4693125999911,113.48377049999544,113.48377049999544,113.48377049999544,115.53408610000042,Objects\100a.jpg,pre,o,2.0346084000047995,None,,,,,,,,00023,001,2025-11-09_16h38.05.927,MST_test,2024.2.2,59.957070736779215,2025-11-09 16h38.12.918198 +0530,
10,0,10,n,1.3702824999927543,None,10,0,10,0,115.55042179999873,,,,,,,,,,,,,,,,,,,,,,,,,,,,,,,,,,,,,,,,,,,,,,,,,,115.53416799999832,115.55042179999873,116.05038549999881,116.03399569999601,116.04185189999407,116.05038549999881,116.05038549999881,116.05038549999881,117.43407469999511,Foils\010a.jpg,none,n,1.3702824999927543,None,,,,,,,,00023,001,2025-11-09_16h38.05.927,MST_test,2024.2.2,59.957070736779215,2025-11-09 16h38.12.918198 +0530,
11,0,11,s,1.783838100003777,None,11,0,11,0,117.45038619999832,,,,,,,,,,,,,,,,,,,,,,,,,,,,,,,,,,,,,,,,,,,,,,,,,,117.43415719999757,117.45038619999832,117.96704150000005,117.9338751000032,117.95097499999974,117.96704150000005,117.96704150000005,117.96704150000005,119.76725649999571,Objects\110b.jpg,pre,s,1.783838100003777,None,,,,,,,,00023,001,2025-11-09_16h38.05.927,MST_test,2024.2.2,59.957070736779215,2025-11-09 16h38.12.918198 +0530,
12,0,12,s,4.08740210000542,None,12,0,12,0,119.78366559999995,,,,,,,,,,,,,,,,,,,,,,,,,,,,,,,,,,,,,,,,,,,,,,,,,,119.76733659999445,119.78366559999995,120.28363510000054,120.26723669999046,120.27471179999702,120.28363510000054,120.28363510000054,120.28363510000054,124.38397860000259,Foils\093b.jpg,none,s,4.08740210000542,None,,,,,,,,00023,001,2025-11-09_16h38.05.927,MST_test,2024.2.2,59.957070736779215,2025-11-09 16h38.12.918198 +0530,
13,0,13,o,3.478241100005107,None,13,0,13,0,124.40023259998998,,,,,,,,,,,,,,,,,,,,,,,,,,,,,,,,,,,,,,,,,,,,,,,,,,124.3840624000004,124.40023259998998,124.9001860999997,124.88373370000045,124.88835019999533,124.9001860999997,124.9001860999997,124.9001860999997,128.3838809000008,Objects\348a.jpg,post,o,3.478241100005107,None,,,,,,,,00023,001,2025-11-09_16h38.05.927,MST_test,2024.2.2,59.957070736779215,2025-11-09 16h38.12.918198 +0530,
14,0,14,o,1.0844882000092184,None,14,0,14,0,128.40015269999276,,,,,,,,,,,,,,,,,,,,,,,,,,,,,,,,,,,,,,,,,,,,,,,,,,128.3839633000025,128.40015269999276,128.91676469999948,128.88361969999096,128.90496970000095,128.91676469999948,128.91676469999948,128.91676469999948,130.01710029999958,Objects\167b.jpg,post,o,1.0844882000092184,None,,,,,,,,00023,001,2025-11-09_16h38.05.927,MST_test,2024.2.2,59.957070736779215,2025-11-09 16h38.12.918198 +0530,
15,0,15,o,0.9968537000095239,None,15,0,15,0,130.0334475999989,,,,,,,,,,,,,,,,,,,,,,,,,,,,,,,,,,,,,,,,,,,,,,,,,,130.01718209999672,130.0334475999989,130.53340459999163,130.51695759998984,130.5189207999938,130.53340459999163,130.53340459999163,130.53340459999163,131.53382879999117,Objects\062a.jpg,mid,o,0.9968537000095239,None,,,,,,,,00023,001,2025-11-09_16h38.05.927,MST_test,2024.2.2,59.957070736779215,2025-11-09 16h38.12.918198 +0530,
16,0,16,o,0.843132499998319,None,16,0,16,0,131.55005099999835,,,,,,,,,,,,,,,,,,,,,,,,,,,,,,,,,,,,,,,,,,,,,,,,,,131.5339127999905,131.55005099999835,132.05003089999082,132.03356409999833,132.03902769999695,132.05003089999082,132.05003089999082,132.05003089999082,132.90032289999363,Objects\254a.jpg,pre,o,0.843132499998319,None,,,,,,,,00023,001,2025-11-09_16h38.05.927,MST_test,2024.2.2,59.957070736779215,2025-11-09 16h38.12.918198 +0530,
17,0,17,o,1.1468456000002334,None,17,0,17,0,132.91678699999466,,,,,,,,,,,,,,,,,,,,,,,,,,,,,,,,,,,,,,,,,,,,,,,,,,132.9004003000009,132.91678699999466,133.43333519999578,133.4001821999991,133.41249449999304,133.43333519999578,133.43333519999578,133.43333519999578,134.58365790000244,Objects\213b.jpg,pre,o,1.1468456000002334,None,,,,,,,,00023,001,2025-11-09_16h38.05.927,MST_test,2024.2.2,59.957070736779215,2025-11-09 16h38.12.918198 +0530,
18,0,18,o,1.705772799992701,None,18,0,18,0,134.6000178999966,,,,,,,,,,,,,,,,,,,,,,,,,,,,,,,,,,,,,,,,,,,,,,,,,,134.5837376999989,134.6000178999966,135.1166419999936,135.0834729999915,135.1054346000019,135.1166419999936,135.1166419999936,135.1166419999936,136.83356800000183,Objects\133b.jpg,post,o,1.705772799992701,None,,,,,,,,00023,001,2025-11-09_16h38.05.927,MST_test,2024.2.2,59.957070736779215,2025-11-09 16h38.12.918198 +0530,
19,0,19,n,2.2728182999999262,None,19,0,19,0,136.8499354999949,,,,,,,,,,,,,,,,,,,,,,,,,,,,,,,,,,,,,,,,,,,,,,,,,,136.83365849999245,136.8499354999949,137.34991769999033,137.33353799999168,137.3416075999994,137.34991769999033,137.34991769999033,137.34991769999033,139.63352960000338,Foils\002a.jpg,none,n,2.2728182999999262,None,,,,,,,,00023,001,2025-11-09_16h38.05.927,MST_test,2024.2.2,59.957070736779215,2025-11-09 16h38.12.918198 +0530,
20,0,20,o,1.4329254000040237,None,20,0,20,0,139.64991429999645,,,,,,,,,,,,,,,,,,,,,,,,,,,,,,,,,,,,,,,,,,,,,,,,,,139.6336086999945,139.64991429999645,140.1498697999923,140.13344279999728,140.13829059999262,140.1498697999923,140.1498697999923,140.1498697999923,141.5834593000036,Objects\264a.jpg,pre,o,1.4329254000040237,None,,,,,,,,00023,001,2025-11-09_16h38.05.927,MST_test,2024.2.2,59.957070736779215,2025-11-09 16h38.12.918198 +0530,
21,0,21,o,0.8510435999924084,None,21,0,21,0,141.5998646999942,,,,,,,,,,,,,,,,,,,,,,,,,,,,,,,,,,,,,,,,,,,,,,,,,,141.58353760000318,141.5998646999942,142.0998178000009,142.08334329999343,142.0884115999943,142.0998178000009,142.0998178000009,142.0998178000009,142.96696279999742,Objects\089a.jpg,post,o,0.8510435999924084,None,,,,,,,,00023,001,2025-11-09_16h38.05.927,MST_test,2024.2.2,59.957070736779215,2025-11-09 16h38.12.918198 +0530,
22,0,22,o,2.0212754999956815,None,22,0,22,0,142.9831647999963,,,,,,,,,,,,,,,,,,,,,,,,,,,,,,,,,,,,,,,,,,,,,,,,,,142.96704529999988,142.9831647999963,143.49979539999913,143.46673289999308,143.48733459999494,143.49979539999913,143.49979539999913,143.49979539999913,145.53347909999138,Objects\007b.jpg,post,o,2.0212754999956815,None,,,,,,,,00023,001,2025-11-09_16h38.05.927,MST_test,2024.2.2,59.957070736779215,2025-11-09 16h38.12.918198 +0530,
23,0,23,s,2.0822157000075094,None,23,0,23,0,145.5497805999912,,,,,,,,,,,,,,,,,,,,,,,,,,,,,,,,,,,,,,,,,,,,,,,,,,145.53357149999647,145.5497805999912,146.06643349998922,146.03325849999965,146.05140479998954,146.06643349998922,146.06643349998922,146.06643349998922,148.15007229999173,Objects\307b.jpg,mid,s,2.0822157000075094,None,,,,,,,,00023,001,2025-11-09_16h38.05.927,MST_test,2024.2.2,59.957070736779215,2025-11-09 16h38.12.918198 +0530,
24,0,24,s,1.9021351999981562,None,24,0,24,0,148.16635159999714,,,,,,,,,,,,,,,,,,,,,,,,,,,,,,,,,,,,,,,,,,,,,,,,,,148.15014859999064,148.16635159999714,148.6663378999947,148.64987069999916,148.6575998999906,148.6663378999947,148.6663378999947,148.6663378999947,150.58335919999809,Foils\086a.jpg,none,s,1.9021351999981562,None,,,,,,,,00023,001,2025-11-09_16h38.05.927,MST_test,2024.2.2,59.957070736779215,2025-11-09 16h38.12.918198 +0530,
25,0,25,o,1.3051747999998042,None,25,0,25,0,150.5996671999892,,,,,,,,,,,,,,,,,,,,,,,,,,,,,,,,,,,,,,,,,,,,,,,,,,150.58345279999776,150.5996671999892,151.0996274999925,151.08323979999113,151.087620899998,151.0996274999925,151.0996274999925,151.0996274999925,152.41657439999108,Objects\362a.jpg,mid,o,1.3051747999998042,None,,,,,,,,00023,001,2025-11-09_16h38.05.927,MST_test,2024.2.2,59.957070736779215,2025-11-09 16h38.12.918198 +0530,
26,0,26,s,2.5833008000045083,None,26,0,26,0,152.43296120000014,,,,,,,,,,,,,,,,,,,,,,,,,,,,,,,,,,,,,,,,,,,,,,,,,,152.4166619000025,152.43296120000014,152.9329534999997,152.91643289999047,152.9272259999998,152.9329534999997,152.9329534999997,152.9329534999997,155.51667479999014,Foils\050a.jpg,none,s,2.5833008000045083,None,,,,,,,,00023,001,2025-11-09_16h38.05.927,MST_test,2024.2.2,59.957070736779215,2025-11-09 16h38.12.918198 +0530,
27,0,27,s,2.983786999990116,None,27,0,27,0,155.53289699999732,,,,,,,,,,,,,,,,,,,,,,,,,,,,,,,,,,,,,,,,,,,,,,,,,,155.5167652999953,155.53289699999732,156.03286279999884,156.0164264999912,156.02404319999914,156.03286279999884,156.03286279999884,156.03286279999884,159.033073899991,Foils\017a.jpg,none,s,2.983786999990116,None,,,,,,,,00023,001,2025-11-09_16h38.05.927,MST_test,2024.2.2,59.957070736779215,2025-11-09 16h38.12.918198 +0530,
28,0,28,o,1.3387922000110848,None,28,0,28,0,159.04947979999997,,,,,,,,,,,,,,,,,,,,,,,,,,,,,,,,,,,,,,,,,,,,,,,,,,159.03315419999126,159.04947979999997,159.54943449998973,159.5330576999986,159.53886479999346,159.54943449998973,159.54943449998973,159.54943449998973,160.8996860999905,Objects\330a.jpg,pre,o,1.3387922000110848,None,,,,,,,,00023,001,2025-11-09_16h38.05.927,MST_test,2024.2.2,59.957070736779215,2025-11-09 16h38.12.918198 +0530,
29,0,29,s,1.330462500001886,None,29,0,29,0,160.9161129999993,,,,,,,,,,,,,,,,,,,,,,,,,,,,,,,,,,,,,,,,,,,,,,,,,,160.89977979999094,160.9161129999993,161.41610049999144,161.39958060000208,161.40453629998956,161.41610049999144,161.41610049999144,161.41610049999144,162.7497255999915,Objects\159a.jpg,post,s,1.330462500001886,None,,,,,,,,00023,001,2025-11-09_16h38.05.927,MST_test,2024.2.2,59.957070736779215,2025-11-09 16h38.12.918198 +0530,
30,0,30,s,2.9830617000116035,None,30,0,30,0,162.76606189999438,,,,,,,,,,,,,,,,,,,,,,,,,,,,,,,,,,,,,,,,,,,,,,,,,,162.74980619999405,162.76606189999438,163.26602169999387,163.24953649999225,163.2606136999966,163.26602169999387,163.26602169999387,163.26602169999387,166.24976629999583,Objects\197b.jpg,post,s,2.9830617000116035,None,,,,,,,,00023,001,2025-11-09_16h38.05.927,MST_test,2024.2.2,59.957070736779215,2025-11-09 16h38.12.918198 +0530,
31,0,31,n,2.1493378000013763,None,31,0,31,0,166.26599179999903,,,,,,,,,,,,,,,,,,,,,,,,,,,,,,,,,,,,,,,,,,,,,,,,,,166.24984599999152,166.26599179999903,166.76594199999818,166.74948810000205,166.76030629999877,166.76594199999818,166.76594199999818,166.76594199999818,168.91626859999087,Foils\081a.jpg,none,n,2.1493378000013763,None,,,,,,,,00023,001,2025-11-09_16h38.05.927,MST_test,2024.2.2,59.957070736779215,2025-11-09 16h38.12.918198 +0530,
32,0,32,o,4.562433599989163,None,32,0,32,0,168.93260200000077,,,,,,,,,,,,,,,,,,,,,,,,,,,,,,,,,,,,,,,,,,,,,,,,,,168.9163472999935,168.93260200000077,169.43256679999467,169.41608209999686,169.4234901000018,169.43256679999467,169.43256679999467,169.43256679999467,173.99956759999623,Objects\246b.jpg,post,o,4.562433599989163,None,,,,,,,,00023,001,2025-11-09_16h38.05.927,MST_test,2024.2.2,59.957070736779215,2025-11-09 16h38.12.918198 +0530,
33,0,33,n,7.796770100001595,None,33,0,33,0,174.01578960000188,,,,,,,,,,,,,,,,,,,,,,,,,,,,,,,,,,,,,,,,,,,,,,,,,,173.99964470000123,174.01578960000188,174.51578729999892,174.49930549999408,174.5068142999953,174.51578729999892,174.51578729999892,174.51578729999892,182.31599269999424,Objects\171b.jpg,mid,n,7.796770100001595,None,,,,,,,,00023,001,2025-11-09_16h38.05.927,MST_test,2024.2.2,59.957070736779215,2025-11-09 16h38.12.918198 +0530,
34,0,34,s,1.8828178999974625,None,34,0,34,0,182.33227919999626,,,,,,,,,,,,,,,,,,,,,,,,,,,,,,,,,,,,,,,,,,,,,,,,,,182.31608769999002,182.33227919999626,182.83226149999246,182.81583229999524,182.82339659999707,182.83226149999246,182.83226149999246,182.83226149999246,184.71595849998994,Objects\331b.jpg,mid,s,1.8828178999974625,None,,,,,,,,00023,001,2025-11-09_16h38.05.927,MST_test,2024.2.2,59.957070736779215,2025-11-09 16h38.12.918198 +0530,
35,0,35,n,1.2625237000029301,None,35,0,35,0,184.73223059999873,,,,,,,,,,,,,,,,,,,,,,,,,,,,,,,,,,,,,,,,,,,,,,,,,,184.71603670000331,184.73223059999873,185.2322112999973,185.21583960000135,185.22326210000028,185.2322112999973,185.2322112999973,185.2322112999973,186.49924059999466,Foils\020b.jpg,none,n,1.2625237000029301,None,,,,,,,,00023,001,2025-11-09_16h38.05.927,MST_test,2024.2.2,59.957070736779215,2025-11-09 16h38.12.918198 +0530,
36,0,36,o,1.3253147000068566,None,36,0,36,0,186.51554909998958,,,,,,,,,,,,,,,,,,,,,,,,,,,,,,,,,,,,,,,,,,,,,,,,,,186.49933150000288,186.51554909998958,187.01551460000337,186.99909919999482,187.00090240000281,187.01551460000337,187.01551460000337,187.01551460000337,188.34919829999853,Objects\253a.jpg,pre,o,1.3253147000068566,None,,,,,,,,00023,001,2025-11-09_16h38.05.927,MST_test,2024.2.2,59.957070736779215,2025-11-09 16h38.12.918198 +0530,
37,0,37,o,0.9385029999975814,None,37,0,37,0,188.36551370000234,,,,,,,,,,,,,,,,,,,,,,,,,,,,,,,,,,,,,,,,,,,,,,,,,,188.34927579999203,188.36551370000234,188.8650834,188.8490912999987,188.86073800000304,188.8650834,188.8650834,188.8650834,189.815858499991,Objects\384b.jpg,post,o,0.9385029999975814,None,,,,,,,,00023,001,2025-11-09_16h38.05.927,MST_test,2024.2.2,59.957070736779215,2025-11-09 16h38.12.918198 +0530,
38,0,38,o,0.9446475000004284,None,38,0,38,0,189.83211550000124,,,,,,,,,,,,,,,,,,,,,,,,,,,,,,,,,,,,,,,,,,,,,,,,,,189.81593139999313,189.83211550000124,190.3321081000031,190.3156919999892,190.32141659999616,190.3321081000031,190.3321081000031,190.3321081000031,191.28249640000286,Objects\191a.jpg,mid,o,0.9446475000004284,None,,,,,,,,00023,001,2025-11-09_16h38.05.927,MST_test,2024.2.2,59.957070736779215,2025-11-09 16h38.12.918198 +0530,
39,0,39,o,0.8260063000052469,None,39,0,39,0,191.29878119999194,,,,,,,,,,,,,,,,,,,,,,,,,,,,,,,,,,,,,,,,,,,,,,,,,,191.28257389999635,191.29878119999194,191.79874579999887,191.78231159999268,191.7843578000029,191.79874579999887,191.79874579999887,191.79874579999887,192.6326676000026,Objects\099a.jpg,mid,o,0.8260063000052469,None,,,,,,,,00023,001,2025-11-09_16h38.05.927,MST_test,2024.2.2,59.957070736779215,2025-11-09 16h38.12.918198 +0530,
40,0,40,s,1.4075961000053212,None,40,0,40,0,192.6487546999997,,,,,,,,,,,,,,,,,,,,,,,,,,,,,,,,,,,,,,,,,,,,,,,,,,192.63276459999906,192.6487546999997,193.1487022999936,193.13227069999266,193.13817049999489,193.1487022999936,193.1487022999936,193.1487022999936,194.56561799999326,Objects\278a.jpg,pre,s,1.4075961000053212,None,,,,,,,,00023,001,2025-11-09_16h38.05.927,MST_test,2024.2.2,59.957070736779215,2025-11-09 16h38.12.918198 +0530,
41,0,41,o,1.2590569000021787,None,41,0,41,0,194.58204500000284,,,,,,,,,,,,,,,,,,,,,,,,,,,,,,,,,,,,,,,,,,,,,,,,,,194.56569679999666,194.58204500000284,195.08200609999767,195.0655906000029,195.07039470000018,195.08200609999767,195.08200609999767,195.08200609999767,196.34902259999944,Objects\120a.jpg,pre,o,1.2590569000021787,None,,,,,,,,00023,001,2025-11-09_16h38.05.927,MST_test,2024.2.2,59.957070736779215,2025-11-09 16h38.12.918198 +0530,
42,0,42,s,2.4149294999951962,None,42,0,42,0,196.36533410000266,,,,,,,,,,,,,,,,,,,,,,,,,,,,,,,,,,,,,,,,,,,,,,,,,,196.349103200002,196.36533410000266,196.8652779999975,196.84892019999097,196.85835899999074,196.8652779999975,196.8652779999975,196.8652779999975,199.282357899996,Foils\074a.jpg,none,s,2.4149294999951962,None,,,,,,,,00023,001,2025-11-09_16h38.05.927,MST_test,2024.2.2,59.957070736779215,2025-11-09 16h38.12.918198 +0530,
43,0,43,o,1.4877785999997286,None,43,0,43,0,199.29861430000165,,,,,,,,,,,,,,,,,,,,,,,,,,,,,,,,,,,,,,,,,,,,,,,,,,199.2824491999927,199.29861430000165,199.79861079998955,199.7821477999969,199.79102849999617,199.79861079998955,199.79861079998955,199.79861079998955,201.2989472999907,Objects\162b.jpg,mid,o,1.4877785999997286,None,,,,,,,,00023,001,2025-11-09_16h38.05.927,MST_test,2024.2.2,59.957070736779215,2025-11-09 16h38.12.918198 +0530,
44,0,44,s,2.685959599999478,None,44,0,44,0,201.31522699999914,,,,,,,,,,,,,,,,,,,,,,,,,,,,,,,,,,,,,,,,,,,,,,,,,,201.2990320999961,201.31522699999914,201.81518379999034,201.79881989999558,201.8062396000023,201.81518379999034,201.81518379999034,201.81518379999034,204.51548940000066,Objects\138b.jpg,post,s,2.685959599999478,None,,,,,,,,00023,001,2025-11-09_16h38.05.927,MST_test,2024.2.2,59.957070736779215,2025-11-09 16h38.12.918198 +0530,
45,0,45,n,2.74759919999633,None,45,0,45,0,204.53187229999457,,,,,,,,,,,,,,,,,,,,,,,,,,,,,,,,,,,,,,,,,,,,,,,,,,204.51557689999754,204.53187229999457,205.03181729999778,205.0153597000026,205.02286050000112,205.03181729999778,205.03181729999778,205.03181729999778,207.78214640000078,Objects\131b.jpg,pre,n,2.74759919999633,None,,,,,,,,00023,001,2025-11-09_16h38.05.927,MST_test,2024.2.2,59.957070736779215,2025-11-09 16h38.12.918198 +0530,
46,0,46,o,1.2358356000040658,None,46,0,46,0,207.79842619999545,,,,,,,,,,,,,,,,,,,,,,,,,,,,,,,,,,,,,,,,,,,,,,,,,,207.78223230000003,207.79842619999545,208.2983816999913,208.2820156999951,208.2840365000011,208.2983816999913,208.2983816999913,208.2983816999913,209.54876789999253,Objects\156a.jpg,mid,o,1.2358356000040658,None,,,,,,,,00023,001,2025-11-09_16h38.05.927,MST_test,2024.2.2,59.957070736779215,2025-11-09 16h38.12.918198 +0530,
47,0,47,s,4.692746799992165,None,47,0,47,0,209.56501969999226,,,,,,,,,,,,,,,,,,,,,,,,,,,,,,,,,,,,,,,,,,,,,,,,,,209.5488514000026,209.56501969999226,210.09834460000275,210.04858570000215,210.08538560000306,210.09834460000275,210.09834460000275,210.09834460000275,214.79870139999548,Objects\247b.jpg,pre,s,4.692746799992165,None,,,,,,,,00023,001,2025-11-09_16h38.05.927,MST_test,2024.2.2,59.957070736779215,2025-11-09 16h38.12.918198 +0530,
48,0,48,o,1.344100599992089,None,48,0,48,0,214.8149329000007,,,,,,,,,,,,,,,,,,,,,,,,,,,,,,,,,,,,,,,,,,,,,,,,,,214.79878830000234,214.8149329000007,215.31450529998983,215.2985400000034,215.30973729999096,215.31450529998983,215.31450529998983,215.31450529998983,216.66532119999465,Objects\071b.jpg,post,o,1.344100599992089,None,,,,,,,,00023,001,2025-11-09_16h38.05.927,MST_test,2024.2.2,59.957070736779215,2025-11-09 16h38.12.918198 +0530,
49,0,49,n,2.279325199997402,None,49,0,49,0,216.68153149999853,,,,,,,,,,,,,,,,,,,,,,,,,,,,,,,,,,,,,,,,,,,,,,,,,,216.66540250000253,216.68153149999853,217.18151319999015,217.16508789999352,217.17238009998982,217.18151319999015,217.18151319999015,217.18151319999015,219.4653563000029,Foils\034a.jpg,none,n,2.279325199997402,None,,,,,,,,00023,001,2025-11-09_16h38.05.927,MST_test,2024.2.2,59.957070736779215,2025-11-09 16h38.12.918198 +0530,
50,0,50,s,1.786654899988207,None,50,0,50,0,219.48147519999475,,,,,,,,,,,,,,,,,,,,,,,,,,,,,,,,,,,,,,,,,,,,,,,,,,219.46544580000045,219.48147519999475,219.98147109999263,219.96505319999414,219.97591320000356,219.98147109999263,219.98147109999263,219.98147109999263,221.7817703000037,Objects\222b.jpg,mid,s,1.786654899988207,None,,,,,,,,00023,001,2025-11-09_16h38.05.927,MST_test,2024.2.2,59.957070736779215,2025-11-09 16h38.12.918198 +0530,
51,0,51,s,2.078182500001276,None,51,0,51,0,221.79811459999473,,,,,,,,,,,,,,,,,,,,,,,,,,,,,,,,,,,,,,,,,,,,,,,,,,221.78186170000117,221.79811459999473,222.29807259999507,222.28158569999505,222.2922469999903,222.29807259999507,222.29807259999507,222.29807259999507,224.38178179999522,Foils\026a.jpg,none,s,2.078182500001276,None,,,,,,,,00023,001,2025-11-09_16h38.05.927,MST_test,2024.2.2,59.957070736779215,2025-11-09 16h38.12.918198 +0530,
52,0,52,o,1.7115328999934718,None,52,0,52,0,224.39803499999107,,,,,,,,,,,,,,,,,,,,,,,,,,,,,,,,,,,,,,,,,,,,,,,,,,224.38186809999752,224.39803499999107,224.9146890999982,224.88149919999705,224.8974589999998,224.9146890999982,224.9146890999982,224.9146890999982,226.63162040000316,Objects\295b.jpg,post,o,1.7115328999934718,None,,,,,,,,00023,001,2025-11-09_16h38.05.927,MST_test,2024.2.2,59.957070736779215,2025-11-09 16h38.12.918198 +0530,
53,0,53,s,2.774835300006089,None,53,0,53,0,226.6480215999909,,,,,,,,,,,,,,,,,,,,,,,,,,,,,,,,,,,,,,,,,,,,,,,,,,226.63170559999708,226.6480215999909,227.14796279999427,227.13152919999266,227.13614119999693,227.14796279999427,227.14796279999427,227.14796279999427,229.93166770000244,Objects\344a.jpg,post,s,2.774835300006089,None,,,,,,,,00023,001,2025-11-09_16h38.05.927,MST_test,2024.2.2,59.957070736779215,2025-11-09 16h38.12.918198 +0530,
54,0,54,s,1.1232696999941254,None,54,0,54,0,229.94793589999608,,,,,,,,,,,,,,,,,,,,,,,,,,,,,,,,,,,,,,,,,,,,,,,,,,229.93174509999517,229.94793589999608,230.44781729999522,230.43141769999056,230.44229179999093,230.44781729999522,230.44781729999522,230.44781729999522,231.58162569999695,Objects\013b.jpg,pre,s,1.1232696999941254,None,,,,,,,,00023,001,2025-11-09_16h38.05.927,MST_test,2024.2.2,59.957070736779215,2025-11-09 16h38.12.918198 +0530,
55,0,55,n,2.5149958999973023,None,55,0,55,0,231.59790310000244,,,,,,,,,,,,,,,,,,,,,,,,,,,,,,,,,,,,,,,,,,,,,,,,,,231.58171749999747,231.59790310000244,232.09789429999364,232.08140129999083,232.0891479999991,232.09789429999364,232.09789429999364,232.09789429999364,234.61476679999032,Foils\101b.jpg,none,n,2.5149958999973023,None,,,,,,,,00023,001,2025-11-09_16h38.05.927,MST_test,2024.2.2,59.957070736779215,2025-11-09 16h38.12.918198 +0530,
56,0,56,s,1.4034234999999171,None,56,0,56,0,234.6311677999911,,,,,,,,,,,,,,,,,,,,,,,,,,,,,,,,,,,,,,,,,,,,,,,,,,234.61484650000057,234.6311677999911,235.14782569999807,235.1146435999981,235.13767119999102,235.14782569999807,235.14782569999807,235.14782569999807,236.56470740000077,Objects\338b.jpg,pre,s,1.4034234999999171,None,,,,,,,,00023,001,2025-11-09_16h38.05.927,MST_test,2024.2.2,59.957070736779215,2025-11-09 16h38.12.918198 +0530,
57,0,57,s,1.575289000000339,None,57,0,57,0,236.58112550000078,,,,,,,,,,,,,,,,,,,,,,,,,,,,,,,,,,,,,,,,,,,,,,,,,,236.56479079999554,236.58112550000078,237.08108579998952,237.06467349999002,237.074815999993,237.08108579998952,237.08108579998952,237.08108579998952,238.66483189999417,Objects\211b.jpg,pre,s,1.575289000000339,None,,,,,,,,00023,001,2025-11-09_16h38.05.927,MST_test,2024.2.2,59.957070736779215,2025-11-09 16h38.12.918198 +0530,
58,0,58,o,1.0863749999989523,None,58,0,58,0,238.68108049999864,,,,,,,,,,,,,,,,,,,,,,,,,,,,,,,,,,,,,,,,,,,,,,,,,,238.66490779999003,238.68108049999864,239.18104460000177,239.16470549999212,239.1699602000008,239.18104460000177,239.18104460000177,239.18104460000177,240.28140979999444,Objects\053a.jpg,mid,o,1.0863749999989523,None,,,,,,,,00023,001,2025-11-09_16h38.05.927,MST_test,2024.2.2,59.957070736779215,2025-11-09 16h38.12.918198 +0530,
59,0,59,o,1.516801999998279,None,59,0,59,0,240.29771009999968,,,,,,,,,,,,,,,,,,,,,,,,,,,,,,,,,,,,,,,,,,,,,,,,,,240.28149700000358,240.29771009999968,240.79767040000297,240.78132470000128,240.78872479998972,240.79767040000297,240.79767040000297,240.79767040000297,242.3148041999957,Objects\235b.jpg,mid,o,1.516801999998279,None,,,,,,,,00023,001,2025-11-09_16h38.05.927,MST_test,2024.2.2,59.957070736779215,2025-11-09 16h38.12.918198 +0530,
60,0,60,o,1.1445561000000453,None,60,0,60,0,242.33099989999027,,,,,,,,,,,,,,,,,,,,,,,,,,,,,,,,,,,,,,,,,,,,,,,,,,242.3148921999964,242.33099989999027,242.84762849999242,242.814584199994,242.83098829998926,242.84762849999242,242.84762849999242,242.84762849999242,243.99804279999807,Objects\078b.jpg,mid,o,1.1445561000000453,None,,,,,,,,00023,001,2025-11-09_16h38.05.927,MST_test,2024.2.2,59.957070736779215,2025-11-09 16h38.12.918198 +0530,
61,0,61,s,1.328193299996201,None,61,0,61,0,244.0143315000023,,,,,,,,,,,,,,,,,,,,,,,,,,,,,,,,,,,,,,,,,,,,,,,,,,243.99812139999995,244.0143315000023,244.51426349999383,244.49791910000204,244.5055033999961,244.51426349999383,244.51426349999383,244.51426349999383,245.84799729999213,Objects\081b.jpg,mid,s,1.328193299996201,None,,,,,,,,00023,001,2025-11-09_16h38.05.927,MST_test,2024.2.2,59.957070736779215,2025-11-09 16h38.12.918198 +0530,
62,0,62,o,10.341757100002724,None,62,0,62,0,245.8643241999962,,,,,,,,,,,,,,,,,,,,,,,,,,,,,,,,,,,,,,,,,,,,,,,,,,245.8480780999962,245.8643241999962,246.3809065999958,246.3477464000025,246.36802549999265,246.3809065999958,246.3809065999958,246.3809065999958,256.73112019999826,Objects\180b.jpg,post,o,10.341757100002724,None,,,,,,,,00023,001,2025-11-09_16h38.05.927,MST_test,2024.2.2,59.957070736779215,2025-11-09 16h38.12.918198 +0530,
63,0,63,n,2.41969059999974,None,63,0,63,0,256.7473256999947,,,,,,,,,,,,,,,,,,,,,,,,,,,,,,,,,,,,,,,,,,,,,,,,,,256.7312144000025,256.7473256999947,257.24733579999884,257.23084740000195,257.24052839999786,257.24733579999884,257.24733579999884,257.24733579999884,259.68101619998924,Foils\105a.jpg,none,n,2.41969059999974,None,,,,,,,,00023,001,2025-11-09_16h38.05.927,MST_test,2024.2.2,59.957070736779215,2025-11-09 16h38.12.918198 +0530,
64,0,64,s,1.821238100004848,None,64,0,64,0,259.6972972999938,,,,,,,,,,,,,,,,,,,,,,,,,,,,,,,,,,,,,,,,,,,,,,,,,,259.6811019000015,259.6972972999938,260.19725610000023,260.18087879999075,260.1859351000021,260.19725610000023,260.19725610000023,260.19725610000023,262.0310155999905,Objects\284a.jpg,pre,s,1.821238100004848,None,,,,,,,,00023,001,2025-11-09_16h38.05.927,MST_test,2024.2.2,59.957070736779215,2025-11-09 16h38.12.918198 +0530,
65,0,65,s,1.653504600006272,None,65,0,65,0,262.04723959999683,,,,,,,,,,,,,,,,,,,,,,,,,,,,,,,,,,,,,,,,,,,,,,,,,,262.03109869999753,262.04723959999683,262.5472000000009,262.5308662000025,262.5361462000001,262.5472000000009,262.5472000000009,262.5472000000009,264.2141547999927,Objects\204a.jpg,mid,s,1.653504600006272,None,,,,,,,,00023,001,2025-11-09_16h38.05.927,MST_test,2024.2.2,59.957070736779215,2025-11-09 16h38.12.918198 +0530,
66,0,66,o,1.4760664000059478,None,66,0,66,0,264.23055409999506,,,,,,,,,,,,,,,,,,,,,,,,,,,,,,,,,,,,,,,,,,,,,,,,,,264.21423529999447,264.23055409999506,264.73048649998964,264.71416170000157,264.717888500003,264.73048649998964,264.73048649998964,264.73048649998964,266.2142376999982,Objects\200a.jpg,mid,o,1.4760664000059478,None,,,,,,,,00023,001,2025-11-09_16h38.05.927,MST_test,2024.2.2,59.957070736779215,2025-11-09 16h38.12.918198 +0530,
67,0,67,n,2.7677238000032958,None,67,0,67,0,266.2304834999959,,,,,,,,,,,,,,,,,,,,,,,,,,,,,,,,,,,,,,,,,,,,,,,,,,266.2143178999977,266.2304834999959,266.74710049999703,266.7140772999992,266.72633599999244,266.74710049999703,266.74710049999703,266.74710049999703,269.5307308999909,Foils\121a.jpg,none,n,2.7677238000032958,None,,,,,,,,00023,001,2025-11-09_16h38.05.927,MST_test,2024.2.2,59.957070736779215,2025-11-09 16h38.12.918198 +0530,
68,0,68,s,1.4099194000009447,None,68,0,68,0,269.5470862999937,,,,,,,,,,,,,,,,,,,,,,,,,,,,,,,,,,,,,,,,,,,,,,,,,,269.5308143000002,269.5470862999937,270.047055499992,270.03062849999696,270.03583300000173,270.047055499992,270.047055499992,270.047055499992,271.46394449999207,Objects\324a.jpg,pre,s,1.4099194000009447,None,,,,,,,,00023,001,2025-11-09_16h38.05.927,MST_test,2024.2.2,59.957070736779215,2025-11-09 16h38.12.918198 +0530,
69,0,69,n,3.025736700001289,None,69,0,69,0,271.4803699999902,,,,,,,,,,,,,,,,,,,,,,,,,,,,,,,,,,,,,,,,,,,,,,,,,,271.4640187999903,271.4803699999902,271.9970472999994,271.9638249999989,271.98762269999133,271.9970472999994,271.9970472999994,271.9970472999994,275.0305449000007,Objects\314b.jpg,post,n,3.025736700001289,None,,,,,,,,00023,001,2025-11-09_16h38.05.927,MST_test,2024.2.2,59.957070736779215,2025-11-09 16h38.12.918198 +0530,
70,0,70,o,1.0700929000013275,None,70,0,70,0,275.0469611000008,,,,,,,,,,,,,,,,,,,,,,,,,,,,,,,,,,,,,,,,,,,,,,,,,,275.0306241999933,275.0469611000008,275.58026940000127,275.53054110000085,275.53491719999874,275.58026940000127,275.58026940000127,275.58026940000127,276.66398070000287,Objects\268a.jpg,pre,o,1.0700929000013275,None,,,,,,,,00023,001,2025-11-09_16h38.05.927,MST_test,2024.2.2,59.957070736779215,2025-11-09 16h38.12.918198 +0530,
71,0,71,o,0.7907477999979164,None,71,0,71,0,276.6802991000004,,,,,,,,,,,,,,,,,,,,,,,,,,,,,,,,,,,,,,,,,,,,,,,,,,276.66406739999366,276.6802991000004,277.1802183999971,277.16370079999615,277.1689088999992,277.1802183999971,277.1802183999971,277.1802183999971,277.9804868999927,Objects\155a.jpg,post,o,0.7907477999979164,None,,,,,,,,00023,001,2025-11-09_16h38.05.927,MST_test,2024.2.2,59.957070736779215,2025-11-09 16h38.12.918198 +0530,
72,0,72,s,1.4254589999909513,None,72,0,72,0,277.996902400002,,,,,,,,,,,,,,,,,,,,,,,,,,,,,,,,,,,,,,,,,,,,,,,,,,277.98056309999083,277.996902400002,278.4968525000004,278.4804424999893,278.488279600002,278.4968525000004,278.4968525000004,278.4968525000004,279.93046659999527,Foils\057a.jpg,none,s,1.4254589999909513,None,,,,,,,,00023,001,2025-11-09_16h38.05.927,MST_test,2024.2.2,59.957070736779215,2025-11-09 16h38.12.918198 +0530,
73,0,73,o,1.454448799995589,None,73,0,73,0,279.9468487999984,,,,,,,,,,,,,,,,,,,,,,,,,,,,,,,,,,,,,,,,,,,,,,,,,,279.9305478000024,279.9468487999984,280.4468080999941,280.43033239999204,280.432393199997,280.4468080999941,280.4468080999941,280.4468080999941,281.91384379999363,Objects\088a.jpg,pre,o,1.454448799995589,None,,,,,,,,00023,001,2025-11-09_16h38.05.927,MST_test,2024.2.2,59.957070736779215,2025-11-09 16h38.12.918198 +0530,
74,0,74,s,1.3750984000071185,None,74,0,74,0,281.93014479998965,,,,,,,,,,,,,,,,,,,,,,,,,,,,,,,,,,,,,,,,,,,,,,,,,,281.9139292000036,281.93014479998965,282.43010420000064,282.4136684999976,282.42085229999793,282.43010420000064,282.43010420000064,282.43010420000064,283.81379439999,Objects\177b.jpg,pre,s,1.3750984000071185,None,,,,,,,,00023,001,2025-11-09_16h38.05.927,MST_test,2024.2.2,59.957070736779215,2025-11-09 16h38.12.918198 +0530,
75,0,75,o,1.8413602000073297,None,75,0,75,0,283.8301369999972,,,,,,,,,,,,,,,,,,,,,,,,,,,,,,,,,,,,,,,,,,,,,,,,,,283.8138726999896,283.8301369999972,284.330063100002,284.31368959999236,284.318786799995,284.330063100002,284.330063100002,284.330063100002,286.18044199999713,Objects\238a.jpg,post,o,1.8413602000073297,None,,,,,,,,00023,001,2025-11-09_16h38.05.927,MST_test,2024.2.2,59.957070736779215,2025-11-09 16h38.12.918198 +0530,
76,0,76,s,4.290246499993373,None,76,0,76,0,286.19669019999856,,,,,,,,,,,,,,,,,,,,,,,,,,,,,,,,,,,,,,,,,,,,,,,,,,286.1805270999903,286.19669019999856,286.6966761999938,286.68021880000015,286.6868067000032,286.6966761999938,286.6966761999938,286.6966761999938,290.9968990999914,Objects\259a.jpg,mid,s,4.290246499993373,None,,,,,,,,00023,001,2025-11-09_16h38.05.927,MST_test,2024.2.2,59.957070736779215,2025-11-09 16h38.12.918198 +0530,
77,0,77,o,1.390910799993435,None,77,0,77,0,291.01328109999304,,,,,,,,,,,,,,,,,,,,,,,,,,,,,,,,,,,,,,,,,,,,,,,,,,290.9969842999999,291.01328109999304,291.5298979999934,291.49686269999074,291.50869590000366,291.5298979999934,291.5298979999934,291.5298979999934,292.93018219999794,Objects\289b.jpg,pre,o,1.390910799993435,None,,,,,,,,00023,001,2025-11-09_16h38.05.927,MST_test,2024.2.2,59.957070736779215,2025-11-09 16h38.12.918198 +0530,
78,0,78,s,1.7194104999944102,None,78,0,78,0,292.9465957999928,,,,,,,,,,,,,,,,,,,,,,,,,,,,,,,,,,,,,,,,,,,,,,,,,,292.93026629999804,292.9465957999928,293.4633867999946,293.4300899999944,293.4548888999998,293.4633867999946,293.4633867999946,293.4633867999946,295.1968952000025,Objects\051b.jpg,pre,s,1.7194104999944102,None,,,,,,,,00023,001,2025-11-09_16h38.05.927,MST_test,2024.2.2,59.957070736779215,2025-11-09 16h38.12.918198 +0530,
79,0,79,s,3.6209094999940135,None,79,0,79,0,295.2131873999897,,,,,,,,,,,,,,,,,,,,,,,,,,,,,,,,,,,,,,,,,,,,,,,,,,295.19697439999436,295.2131873999897,295.7133071999997,295.6966648999951,295.70739599999797,295.7133071999997,295.7133071999997,295.7133071999997,299.34679749999486,Objects\346b.jpg,post,s,3.6209094999940135,None,,,,,,,,00023,001,2025-11-09_16h38.05.927,MST_test,2024.2.2,59.957070736779215,2025-11-09 16h38.12.918198 +0530,
80,0,80,s,2.291081800009124,None,80,0,80,0,299.36310400000366,,,,,,,,,,,,,,,,,,,,,,,,,,,,,,,,,,,,,,,,,,,,,,,,,,299.34687660000054,299.36310400000366,299.8631505999947,299.84660900000017,299.85789159999695,299.8631505999947,299.8631505999947,299.8631505999947,302.1633249000006,Objects\064b.jpg,post,s,2.291081800009124,None,,,,,,,,00023,001,2025-11-09_16h38.05.927,MST_test,2024.2.2,59.957070736779215,2025-11-09 16h38.12.918198 +0530,
81,0,81,s,1.4967354999971576,None,81,0,81,0,302.1797083999991,,,,,,,,,,,,,,,,,,,,,,,,,,,,,,,,,,,,,,,,,,,,,,,,,,302.16340859999764,302.1797083999991,302.67965769999137,302.66321709999465,302.67009189999953,302.67965769999137,302.67965769999137,302.67965769999137,304.18006099999184,Objects\297a.jpg,post,s,1.4967354999971576,None,,,,,,,,00023,001,2025-11-09_16h38.05.927,MST_test,2024.2.2,59.957070736779215,2025-11-09 16h38.12.918198 +0530,
82,0,82,n,2.646773500004201,None,82,0,82,0,304.1963332000014,,,,,,,,,,,,,,,,,,,,,,,,,,,,,,,,,,,,,,,,,,,,,,,,,,304.18013729999075,304.1963332000014,304.6962899999926,304.6799158999929,304.69080969999777,304.6962899999926,304.6962899999926,304.6962899999926,307.3465836999967,Foils\033a.jpg,none,n,2.646773500004201,None,,,,,,,,00023,001,2025-11-09_16h38.05.927,MST_test,2024.2.2,59.957070736779215,2025-11-09 16h38.12.918198 +0530,
83,0,83,o,1.2677243999933125,None,83,0,83,0,307.362930599993,,,,,,,,,,,,,,,,,,,,,,,,,,,,,,,,,,,,,,,,,,,,,,,,,,307.34666569999536,307.362930599993,307.8629376000026,307.84648469999956,307.8539607999992,307.8629376000026,307.8629376000026,307.8629376000026,309.14662109999335,Foils\066a.jpg,none,o,1.2677243999933125,None,,,,,,,,00023,001,2025-11-09_16h38.05.927,MST_test,2024.2.2,59.957070736779215,2025-11-09 16h38.12.918198 +0530,
84,0,84,s,1.15226449999318,None,84,0,84,0,309.16289130000223,,,,,,,,,,,,,,,,,,,,,,,,,,,,,,,,,,,,,,,,,,,,,,,,,,309.146708699991,309.16289130000223,309.6628955999913,309.64637049999146,309.65425409999443,309.6628955999913,309.6628955999913,309.6628955999913,310.8299063000013,Foils\113a.jpg,none,s,1.15226449999318,None,,,,,,,,00023,001,2025-11-09_16h38.05.927,MST_test,2024.2.2,59.957070736779215,2025-11-09 16h38.12.918198 +0530,
85,0,85,o,1.0949495999957435,None,85,0,85,0,310.84620819998963,,,,,,,,,,,,,,,,,,,,,,,,,,,,,,,,,,,,,,,,,,,,,,,,,,310.82999139999447,310.84620819998963,311.34617059999437,311.32974329999706,311.3313818000024,311.34617059999437,311.34617059999437,311.34617059999437,312.4465475999896,Objects\225a.jpg,mid,o,1.0949495999957435,None,,,,,,,,00023,001,2025-11-09_16h38.05.927,MST_test,2024.2.2,59.957070736779215,2025-11-09 16h38.12.918198 +0530,
86,0,86,s,1.2828230000013718,None,86,0,86,0,312.46281669999007,,,,,,,,,,,,,,,,,,,,,,,,,,,,,,,,,,,,,,,,,,,,,,,,,,312.446626799996,312.46281669999007,312.97967939999944,312.94635919999564,312.96674209999037,312.97967939999944,312.97967939999944,312.97967939999944,314.2632217999926,Objects\277b.jpg,post,s,1.2828230000013718,None,,,,,,,,00023,001,2025-11-09_16h38.05.927,MST_test,2024.2.2,59.957070736779215,2025-11-09 16h38.12.918198 +0530,
87,0,87,o,1.133524100005161,None,87,0,87,0,314.27944839998963,,,,,,,,,,,,,,,,,,,,,,,,,,,,,,,,,,,,,,,,,,,,,,,,,,314.2633116999932,314.27944839998963,314.77940990000207,314.76303590000316,314.76791189999494,314.77940990000207,314.77940990000207,314.77940990000207,315.91325759999745,Objects\076a.jpg,pre,o,1.133524100005161,None,,,,,,,,00023,001,2025-11-09_16h38.05.927,MST_test,2024.2.2,59.957070736779215,2025-11-09 16h38.12.918198 +0530,
88,0,88,n,1.3288218999950914,None,88,0,88,0,315.92940569999337,,,,,,,,,,,,,,,,,,,,,,,,,,,,,,,,,,,,,,,,,,,,,,,,,,315.91333999999915,315.92940569999337,316.4460334000032,316.4129777999915,316.428098599994,316.4460334000032,316.4460334000032,316.4460334000032,317.7798471999995,Foils\f6.jpg,none,n,1.3288218999950914,None,,,,,,,,00023,001,2025-11-09_16h38.05.927,MST_test,2024.2.2,59.957070736779215,2025-11-09 16h38.12.918198 +0530,
89,0,89,s,5.736275900009787,None,89,0,89,0,317.7960305000015,,,,,,,,,,,,,,,,,,,,,,,,,,,,,,,,,,,,,,,,,,,,,,,,,,317.77992449999147,317.7960305000015,318.31268419999105,318.2796529999905,318.29221689999395,318.31268419999105,318.31268419999105,318.31268419999105,324.0629220999981,Objects\116b.jpg,post,s,5.736275900009787,None,,,,,,,,00023,001,2025-11-09_16h38.05.927,MST_test,2024.2.2,59.957070736779215,2025-11-09 16h38.12.918198 +0530,
90,0,90,s,2.1601983000000473,None,90,0,90,0,324.0792608999909,,,,,,,,,,,,,,,,,,,,,,,,,,,,,,,,,,,,,,,,,,,,,,,,,,324.06300999999803,324.0792608999909,324.5791831999959,324.5628199999919,324.5649131999962,324.5791831999959,324.5791831999959,324.5791831999959,326.7462111999921,Objects\142a.jpg,post,s,2.1601983000000473,None,,,,,,,,00023,001,2025-11-09_16h38.05.927,MST_test,2024.2.2,59.957070736779215,2025-11-09 16h38.12.918198 +0530,
91,0,91,o,0.9465142999979435,None,91,0,91,0,326.76247129999683,,,,,,,,,,,,,,,,,,,,,,,,,,,,,,,,,,,,,,,,,,,,,,,,,,326.74629299998924,326.76247129999683,327.2624977999949,327.2459516999952,327.2479017000005,327.2624977999949,327.2624977999949,327.2624977999949,328.21282020000217,Objects\129a.jpg,pre,o,0.9465142999979435,None,,,,,,,,00023,001,2025-11-09_16h38.05.927,MST_test,2024.2.2,59.957070736779215,2025-11-09 16h38.12.918198 +0530,
92,0,92,o,1.7367080000112765,None,92,0,92,0,328.2291366999998,,,,,,,,,,,,,,,,,,,,,,,,,,,,,,,,,,,,,,,,,,,,,,,,,,328.2128941999981,328.2291366999998,328.7457984999928,328.7125929999893,328.7294200000033,328.7457984999928,328.7457984999928,328.7457984999928,330.49614589998964,Objects\020b.jpg,mid,o,1.7367080000112765,None,,,,,,,,00023,001,2025-11-09_16h38.05.927,MST_test,2024.2.2,59.957070736779215,2025-11-09 16h38.12.918198 +0530,
93,0,93,o,0.7559002000052715,None,93,0,93,0,330.51241819999996,,,,,,,,,,,,,,,,,,,,,,,,,,,,,,,,,,,,,,,,,,,,,,,,,,330.49622099999397,330.51241819999996,331.0124085999996,330.9960091999965,331.00001459999476,331.0124085999996,331.0124085999996,331.0124085999996,331.77933369998937,Objects\364a.jpg,post,o,0.7559002000052715,None,,,,,,,,00023,001,2025-11-09_16h38.05.927,MST_test,2024.2.2,59.957070736779215,2025-11-09 16h38.12.918198 +0530,
94,0,94,o,0.8248937000025762,None,94,0,94,0,331.79573709999386,,,,,,,,,,,,,,,,,,,,,,,,,,,,,,,,,,,,,,,,,,,,,,,,,,331.7794214000023,331.79573709999386,332.29568519999157,332.2792536999914,332.2842066000012,332.29568519999157,332.29568519999157,332.29568519999157,333.12945569999283,Objects\117a.jpg,pre,o,0.8248937000025762,None,,,,,,,,00023,001,2025-11-09_16h38.05.927,MST_test,2024.2.2,59.957070736779215,2025-11-09 16h38.12.918198 +0530,
95,0,95,s,1.3526711000013165,None,95,0,95,0,333.1457029000012,,,,,,,,,,,,,,,,,,,,,,,,,,,,,,,,,,,,,,,,,,,,,,,,,,333.1295406999998,333.1457029000012,333.6623462999996,333.6292773000023,333.65084869999555,333.6623462999996,333.6623462999996,333.6623462999996,335.02927590000036,Objects\146b.jpg,pre,s,1.3526711000013165,None,,,,,,,,00023,001,2025-11-09_16h38.05.927,MST_test,2024.2.2,59.957070736779215,2025-11-09 16h38.12.918198 +0530,
96,0,96,o,1.970199400006095,None,96,0,96,0,335.04565960000036,,,,,,,,,,,,,,,,,,,,,,,,,,,,,,,,,,,,,,,,,,,,,,,,,,335.0293585999898,335.04565960000036,335.54561159999867,335.52921120000246,335.53426819999004,335.54561159999867,335.54561159999867,335.54561159999867,337.5292027999967,Objects\288a.jpg,pre,o,1.970199400006095,None,,,,,,,,00023,001,2025-11-09_16h38.05.927,MST_test,2024.2.2,59.957070736779215,2025-11-09 16h38.12.918198 +0530,
97,0,97,s,1.8192111999960616,None,97,0,97,0,337.54561229998944,,,,,,,,,,,,,,,,,,,,,,,,,,,,,,,,,,,,,,,,,,,,,,,,,,337.5292880999914,337.54561229998944,338.0455534999928,338.0291789999901,338.04030519998923,338.0455534999928,338.0455534999928,338.0455534999928,339.8791912000015,Foils\009a.jpg,none,s,1.8192111999960616,None,,,,,,,,00023,001,2025-11-09_16h38.05.927,MST_test,2024.2.2,59.957070736779215,2025-11-09 16h38.12.918198 +0530,
98,0,98,o,1.2651075999892782,None,98,0,98,0,339.8955575,,,,,,,,,,,,,,,,,,,,,,,,,,,,,,,,,,,,,,,,,,,,,,,,,,339.87927550000313,339.8955575,340.39552879999974,340.37901849999616,340.3866524999903,340.39552879999974,340.39552879999974,340.39552879999974,341.6625611999916,Objects\188b.jpg,mid,o,1.2651075999892782,None,,,,,,,,00023,001,2025-11-09_16h38.05.927,MST_test,2024.2.2,59.957070736779215,2025-11-09 16h38.12.918198 +0530,
99,0,99,o,1.7894353000010597,None,99,0,99,0,341.67882629999076,,,,,,,,,,,,,,,,,,,,,,,,,,,,,,,,,,,,,,,,,,,,,,,,,,341.66264739999315,341.67882629999076,342.1788233999978,342.1623330000002,342.16434439999284,342.1788233999978,342.1788233999978,342.1788233999978,343.97909409999556,Objects\077a.jpg,post,o,1.7894353000010597,None,,,,,,,,00023,001,2025-11-09_16h38.05.927,MST_test,2024.2.2,59.957070736779215,2025-11-09 16h38.12.918198 +0530,
100,0,100,o,0.9754610000090906,None,100,0,100,0,343.99548849998973,,,,,,,,,,,,,,,,,,,,,,,,,,,,,,,,,,,,,,,,,,,,,,,,,,343.97918260000006,343.99548849998973,344.49541730000055,344.4791089999926,344.48458160000155,344.49541730000055,344.49541730000055,344.49541730000055,345.4791139000008,Objects\267a.jpg,pre,o,0.9754610000090906,None,,,,,,,,00023,001,2025-11-09_16h38.05.927,MST_test,2024.2.2,59.957070736779215,2025-11-09 16h38.12.918198 +0530,
101,0,101,s,1.2796965999878012,None,101,0,101,0,345.4955450999987,,,,,,,,,,,,,,,,,,,,,,,,,,,,,,,,,,,,,,,,,,,,,,,,,,345.4791927999904,345.4955450999987,345.99550530000124,345.9790165000013,345.9840192999982,345.99550530000124,345.99550530000124,345.99550530000124,347.2792804999917,Objects\261a.jpg,post,s,1.2796965999878012,None,,,,,,,,00023,001,2025-11-09_16h38.05.927,MST_test,2024.2.2,59.957070736779215,2025-11-09 16h38.12.918198 +0530,
102,0,102,o,1.9407523999980185,None,102,0,102,0,347.29551679998985,,,,,,,,,,,,,,,,,,,,,,,,,,,,,,,,,,,,,,,,,,,,,,,,,,347.2793610999943,347.29551679998985,347.81210579999606,347.77896480000345,347.8028073000023,347.81210579999606,347.81210579999606,347.81210579999606,349.76238190000004,Objects\300b.jpg,post,o,1.9407523999980185,None,,,,,,,,00023,001,2025-11-09_16h38.05.927,MST_test,2024.2.2,59.957070736779215,2025-11-09 16h38.12.918198 +0530,
103,0,103,s,1.2677610000100685,None,103,0,103,0,349.7787864999991,,,,,,,,,,,,,,,,,,,,,,,,,,,,,,,,,,,,,,,,,,,,,,,,,,349.7624650999933,349.7787864999991,350.27874319998955,350.2622044000018,350.2664661000017,350.27874319998955,350.27874319998955,350.27874319998955,351.5622979000036,Objects\202a.jpg,mid,s,1.2677610000100685,None,,,,,,,,00023,001,2025-11-09_16h38.05.927,MST_test,2024.2.2,59.957070736779215,2025-11-09 16h38.12.918198 +0530,
104,0,104,s,2.0397750999982236,None,104,0,104,0,351.57876459999534,,,,,,,,,,,,,,,,,,,,,,,,,,,,,,,,,,,,,,,,,,,,,,,,,,351.56238519999897,351.57876459999534,352.09535139999934,352.0621938999975,352.0774112999934,352.09535139999934,352.09535139999934,352.09535139999934,354.14570589999494,Objects\341b.jpg,mid,s,2.0397750999982236,None,,,,,,,,00023,001,2025-11-09_16h38.05.927,MST_test,2024.2.2,59.957070736779215,2025-11-09 16h38.12.918198 +0530,
105,0,105,o,1.2333096000074875,None,105,0,105,0,354.1619961999968,,,,,,,,,,,,,,,,,,,,,,,,,,,,,,,,,,,,,,,,,,,,,,,,,,354.14578239999537,354.1619961999968,354.6619105999998,354.64559819998976,354.6475050000008,354.6619105999998,354.6619105999998,354.6619105999998,355.89564200000314,Objects\145a.jpg,pre,o,1.2333096000074875,None,,,,,,,,00023,001,2025-11-09_16h38.05.927,MST_test,2024.2.2,59.957070736779215,2025-11-09 16h38.12.918198 +0530,
106,0,106,o,0.9362989000073867,None,106,0,106,0,355.9119939999946,,,,,,,,,,,,,,,,,,,,,,,,,,,,,,,,,,,,,,,,,,,,,,,,,,355.8957308999961,355.9119939999946,356.41198439999425,356.39551329999813,356.39753109999583,356.41198439999425,356.41198439999425,356.41198439999425,357.36232230000314,Objects\176a.jpg,post,o,0.9362989000073867,None,,,,,,,,00023,001,2025-11-09_16h38.05.927,MST_test,2024.2.2,59.957070736779215,2025-11-09 16h38.12.918198 +0530,
107,0,107,s,4.6686787999933586,None,107,0,107,0,357.3785898999922,,,,,,,,,,,,,,,,,,,,,,,,,,,,,,,,,,,,,,,,,,,,,,,,,,357.36240199999884,357.3785898999922,357.8785654999956,357.8621473999956,357.8722279999929,357.8785654999956,357.8785654999956,357.8785654999956,362.5620886999968,Objects\309b.jpg,post,s,4.6686787999933586,None,,,,,,,,00023,001,2025-11-09_16h38.05.927,MST_test,2024.2.2,59.957070736779215,2025-11-09 16h38.12.918198 +0530,
108,0,108,o,1.8798577999987174,None,108,0,108,0,362.57851209999353,,,,,,,,,,,,,,,,,,,,,,,,,,,,,,,,,,,,,,,,,,,,,,,,,,362.5621710999985,362.57851209999353,363.07844679999107,363.0620675999962,363.0668493999983,363.07844679999107,363.07844679999107,363.07844679999107,364.96208430000115,Objects\360a.jpg,mid,o,1.8798577999987174,None,,,,,,,,00023,001,2025-11-09_16h38.05.927,MST_test,2024.2.2,59.957070736779215,2025-11-09 16h38.12.918198 +0530,
109,0,109,s,1.4409842000022763,None,109,0,109,0,364.9784626999899,,,,,,,,,,,,,,,,,,,,,,,,,,,,,,,,,,,,,,,,,,,,,,,,,,364.9621649000037,364.9784626999899,365.5117345000035,365.4619440999959,365.4906237999967,365.5117345000035,365.5117345000035,365.5117345000035,366.9621732999949,Objects\315b.jpg,post,s,1.4409842000022763,None,,,,,,,,00023,001,2025-11-09_16h38.05.927,MST_test,2024.2.2,59.957070736779215,2025-11-09 16h38.12.918198 +0530,
110,0,110,o,1.6182055999961449,None,110,0,110,0,366.97841709999193,,,,,,,,,,,,,,,,,,,,,,,,,,,,,,,,,,,,,,,,,,,,,,,,,,366.96224890000303,366.97841709999193,367.4783688000025,367.46177939999325,367.4668204999907,367.4783688000025,367.4783688000025,367.4783688000025,369.11207339999964,Objects\019a.jpg,pre,o,1.6182055999961449,None,,,,,,,,00023,001,2025-11-09_16h38.05.927,MST_test,2024.2.2,59.957070736779215,2025-11-09 16h38.12.918198 +0530,
111,0,111,s,1.6967415999970399,None,111,0,111,0,369.1283162000036,,,,,,,,,,,,,,,,,,,,,,,,,,,,,,,,,,,,,,,,,,,,,,,,,,369.11215639999136,369.1283162000036,369.62831819998974,369.61179729999276,369.61914290000277,369.62831819998974,369.62831819998974,369.62831819998974,371.3285710999917,Foils\042a.jpg,none,s,1.6967415999970399,None,,,,,,,,00023,001,2025-11-09_16h38.05.927,MST_test,2024.2.2,59.957070736779215,2025-11-09 16h38.12.918198 +0530,
112,0,112,s,3.1090741000080016,None,112,0,112,0,371.34498399999575,,,,,,,,,,,,,,,,,,,,,,,,,,,,,,,,,,,,,,,,,,,,,,,,,,371.32864439999685,371.34498399999575,371.8616034000006,371.8285171000025,371.8411286999908,371.8616034000006,371.8616034000006,371.8616034000006,374.97859319999407,Objects\035b.jpg,mid,s,3.1090741000080016,None,,,,,,,,00023,001,2025-11-09_16h38.05.927,MST_test,2024.2.2,59.957070736779215,2025-11-09 16h38.12.918198 +0530,
113,0,113,o,1.0102756999986013,None,113,0,113,0,374.9948710000026,,,,,,,,,,,,,,,,,,,,,,,,,,,,,,,,,,,,,,,,,,,,,,,,,,374.9786701999983,374.9948710000026,375.49483820000023,375.4784784999938,375.48069729999406,375.49483820000023,375.49483820000023,375.49483820000023,376.51181549999455,Objects\311a.jpg,post,o,1.0102756999986013,None,,,,,,,,00023,001,2025-11-09_16h38.05.927,MST_test,2024.2.2,59.957070736779215,2025-11-09 16h38.12.918198 +0530,
114,0,114,o,1.2025407000037376,None,114,0,114,0,376.5281541000004,,,,,,,,,,,,,,,,,,,,,,,,,,,,,,,,,,,,,,,,,,,,,,,,,,376.5118962999986,376.5281541000004,377.0281415999925,377.0117409999948,377.01646159999655,377.0281415999925,377.0281415999925,377.0281415999925,378.2450431000034,Objects\319a.jpg,post,o,1.2025407000037376,None,,,,,,,,00023,001,2025-11-09_16h38.05.927,MST_test,2024.2.2,59.957070736779215,2025-11-09 16h38.12.918198 +0530,
115,0,115,o,2.8887301000067964,None,115,0,115,0,378.2615097999951,,,,,,,,,,,,,,,,,,,,,,,,,,,,,,,,,,,,,,,,,,,,,,,,,,378.24511819999316,378.2615097999951,378.7616629999975,378.7449442999932,378.7521679999918,378.7616629999975,378.7616629999975,378.7616629999975,381.661666400003,Objects\303a.jpg,post,o,2.8887301000067964,None,,,,,,,,00023,001,2025-11-09_16h38.05.927,MST_test,2024.2.2,59.957070736779215,2025-11-09 16h38.12.918198 +0530,
116,0,116,o,6.053017300000647,None,116,0,116,0,381.6780470999947,,,,,,,,,,,,,,,,,,,,,,,,,,,,,,,,,,,,,,,,,,,,,,,,,,381.6617444000003,381.6780470999947,382.17804479999177,382.1615395999979,382.166389799997,382.17804479999177,382.17804479999177,382.17804479999177,388.24488149999524,Objects\149a.jpg,mid,o,6.053017300000647,None,,,,,,,,00023,001,2025-11-09_16h38.05.927,MST_test,2024.2.2,59.957070736779215,2025-11-09 16h38.12.918198 +0530,
117,0,117,n,1.6880947000026936,None,117,0,117,0,388.26123319999897,,,,,,,,,,,,,,,,,,,,,,,,,,,,,,,,,,,,,,,,,,,,,,,,,,388.2449714999966,388.26123319999897,388.7612014999904,388.74475359999633,388.7541091000021,388.7612014999904,388.7612014999904,388.7612014999904,390.46147850000125,Foils\097a.jpg,none,n,1.6880947000026936,None,,,,,,,,00023,001,2025-11-09_16h38.05.927,MST_test,2024.2.2,59.957070736779215,2025-11-09 16h38.12.918198 +0530,
118,0,118,s,3.675745000000461,None,118,0,118,0,390.47791299999517,,,,,,,,,,,,,,,,,,,,,,,,,,,,,,,,,,,,,,,,,,,,,,,,,,390.46155549999094,390.47791299999517,390.9947264999937,390.96138149999024,390.97381280000263,390.9947264999937,390.9947264999937,390.9947264999937,394.6780690000014,Objects\256b.jpg,mid,s,3.675745000000461,None,,,,,,,,00023,001,2025-11-09_16h38.05.927,MST_test,2024.2.2,59.957070736779215,2025-11-09 16h38.12.918198 +0530,
119,0,119,o,0.9119664000027115,None,119,0,119,0,394.69449929999246,,,,,,,,,,,,,,,,,,,,,,,,,,,,,,,,,,,,,,,,,,,,,,,,,,394.67815169999085,394.69449929999246,395.19442489999346,395.1779502999998,395.1821337000001,395.19442489999346,395.19442489999346,395.19442489999346,396.11160059999384,Objects\296a.jpg,pre,o,0.9119664000027115,None,,,,,,,,00023,001,2025-11-09_16h38.05.927,MST_test,2024.2.2,59.957070736779215,2025-11-09 16h38.12.918198 +0530,
120,0,120,s,1.822937600009027,None,120,0,120,0,396.12771610000345,,,,,,,,,,,,,,,,,,,,,,,,,,,,,,,,,,,,,,,,,,,,,,,,,,396.1116944999958,396.12771610000345,396.6276688999933,396.611244300002,396.62228100000357,396.6276688999933,396.6276688999933,396.6276688999933,398.46156379999593,Objects\003b.jpg,mid,s,1.822937600009027,None,,,,,,,,00023,001,2025-11-09_16h38.05.927,MST_test,2024.2.2,59.957070736779215,2025-11-09 16h38.12.918198 +0530,
121,0,121,s,1.676872900003218,None,121,0,121,0,398.47772789999726,,,,,,,,,,,,,,,,,,,,,,,,,,,,,,,,,,,,,,,,,,,,,,,,,,398.4616487000021,398.47772789999726,398.9776497999992,398.9611525999935,398.971644499994,398.9776497999992,398.9776497999992,398.9776497999992,400.661331700001,Objects\377b.jpg,mid,s,1.676872900003218,None,,,,,,,,00023,001,2025-11-09_16h38.05.927,MST_test,2024.2.2,59.957070736779215,2025-11-09 16h38.12.918198 +0530,
122,0,122,s,1.012165799998911,None,122,0,122,0,400.6776297999895,,,,,,,,,,,,,,,,,,,,,,,,,,,,,,,,,,,,,,,,,,,,,,,,,,400.6614139000012,400.6776297999895,401.19429200000013,401.161099799996,401.1759759999986,401.19429200000013,401.19429200000013,401.19429200000013,402.2112221999996,Objects\223b.jpg,mid,s,1.012165799998911,None,,,,,,,,00023,001,2025-11-09_16h38.05.927,MST_test,2024.2.2,59.957070736779215,2025-11-09 16h38.12.918198 +0530,
123,0,123,o,1.4997983000066597,None,123,0,123,0,402.22765139999683,,,,,,,,,,,,,,,,,,,,,,,,,,,,,,,,,,,,,,,,,,,,,,,,,,402.2113004999992,402.22765139999683,402.72710380000353,402.71103479999874,402.7224637999898,402.72710380000353,402.72710380000353,402.72710380000353,404.22783190000337,Objects\228b.jpg,post,o,1.4997983000066597,None,,,,,,,,00023,001,2025-11-09_16h38.05.927,MST_test,2024.2.2,59.957070736779215,2025-11-09 16h38.12.918198 +0530,
124,0,124,s,1.9593601000087801,None,124,0,124,0,404.24417079999694,,,,,,,,,,,,,,,,,,,,,,,,,,,,,,,,,,,,,,,,,,,,,,,,,,404.22790859999077,404.24417079999694,404.7441499999986,404.7277514000016,404.7386075999966,404.7441499999986,404.7441499999986,404.7441499999986,406.7110476999951,Objects\118b.jpg,pre,s,1.9593601000087801,None,,,,,,,,00023,001,2025-11-09_16h38.05.927,MST_test,2024.2.2,59.957070736779215,2025-11-09 16h38.12.918198 +0530,
125,0,125,s,2.4763672000117367,None,125,0,125,0,406.7274354999972,,,,,,,,,,,,,,,,,,,,,,,,,,,,,,,,,,,,,,,,,,,,,,,,,,406.7111244999978,406.7274354999972,407.2440585000004,407.2109092000028,407.23278029999346,407.2440585000004,407.2440585000004,407.2440585000004,409.7277316999971,Objects\070b.jpg,pre,s,2.4763672000117367,None,,,,,,,,00023,001,2025-11-09_16h38.05.927,MST_test,2024.2.2,59.957070736779215,2025-11-09 16h38.12.918198 +0530,
126,0,126,o,2.208622500009369,None,126,0,126,0,409.74403339999844,,,,,,,,,,,,,,,,,,,,,,,,,,,,,,,,,,,,,,,,,,,,,,,,,,409.7278137999965,409.74403339999844,410.2439927999949,410.227624799998,410.2295884999912,410.2439927999949,410.2439927999949,410.2439927999949,412.46097849999205,Objects\063a.jpg,post,o,2.208622500009369,None,,,,,,,,00023,001,2025-11-09_16h38.05.927,MST_test,2024.2.2,59.957070736779215,2025-11-09 16h38.12.918198 +0530,
127,0,127,s,2.384010499998112,None,127,0,127,0,412.47734089998994,,,,,,,,,,,,,,,,,,,,,,,,,,,,,,,,,,,,,,,,,,,,,,,,,,412.46107279999705,412.47734089998994,412.9772743999929,412.96100129999104,412.963184799999,412.9772743999929,412.9772743999929,412.9772743999929,415.3776361999917,Objects\096a.jpg,post,s,2.384010499998112,None,,,,,,,,00023,001,2025-11-09_16h38.05.927,MST_test,2024.2.2,59.957070736779215,2025-11-09 16h38.12.918198 +0530,
128,0,128,s,1.5928743999975268,None,128,0,128,0,415.39388039999176,,,,,,,,,,,,,,,,,,,,,,,,,,,,,,,,,,,,,,,,,,,,,,,,,,415.37771619998966,415.39388039999176,415.893869099993,415.87750380000216,415.8852010999981,415.893869099993,415.893869099993,415.893869099993,417.49425209999026,Objects\082b.jpg,mid,s,1.5928743999975268,None,,,,,,,,00023,001,2025-11-09_16h38.05.927,MST_test,2024.2.2,59.957070736779215,2025-11-09 16h38.12.918198 +0530,
129,0,129,o,1.0909041999984765,None,129,0,129,0,417.51053729999694,,,,,,,,,,,,,,,,,,,,,,,,,,,,,,,,,,,,,,,,,,,,,,,,,,417.4943343999912,417.51053729999694,418.0105240999983,417.99406080000335,417.9959553999943,418.0105240999983,418.0105240999983,418.0105240999983,419.1108161000011,Objects\174a.jpg,mid,o,1.0909041999984765,None,,,,,,,,00023,001,2025-11-09_16h38.05.927,MST_test,2024.2.2,59.957070736779215,2025-11-09 16h38.12.918198 +0530,
130,0,130,o,1.0540889999974752,None,130,0,130,0,419.1271623999928,,,,,,,,,,,,,,,,,,,,,,,,,,,,,,,,,,,,,,,,,,,,,,,,,,419.110903599998,419.1271623999928,419.62713149999036,419.6107251999929,419.615143899995,419.62713149999036,419.62713149999036,419.62713149999036,420.69407889999275,Objects\227a.jpg,mid,o,1.0540889999974752,None,,,,,,,,00023,001,2025-11-09_16h38.05.927,MST_test,2024.2.2,59.957070736779215,2025-11-09 16h38.12.918198 +0530,
131,0,131,s,4.209699800005183,None,131,0,131,0,420.71043349998945,,,,,,,,,,,,,,,,,,,,,,,,,,,,,,,,,,,,,,,,,,,,,,,,,,420.6941693999979,420.71043349998945,421.22708599999896,421.1939941000019,421.2089386000007,421.22708599999896,421.22708599999896,421.22708599999896,425.44411579999723,Foils\f5.jpg,none,s,4.209699800005183,None,,,,,,,,00023,001,2025-11-09_16h38.05.927,MST_test,2024.2.2,59.957070736779215,2025-11-09 16h38.12.918198 +0530,
132,0,132,s,1.625966099993093,None,132,0,132,0,425.46035769999435,,,,,,,,,,,,,,,,,,,,,,,,,,,,,,,,,,,,,,,,,,,,,,,,,,425.44420149999496,425.46035769999435,425.960342099992,425.9438957999955,425.94889970000077,425.960342099992,425.960342099992,425.960342099992,427.5941426999925,Objects\166a.jpg,mid,s,1.625966099993093,None,,,,,,,,00023,001,2025-11-09_16h38.05.927,MST_test,2024.2.2,59.957070736779215,2025-11-09 16h38.12.918198 +0530,
133,0,133,o,2.1258041999972193,None,133,0,133,0,427.61028709998936,,,,,,,,,,,,,,,,,,,,,,,,,,,,,,,,,,,,,,,,,,,,,,,,,,427.59422699999413,427.61028709998936,428.12695710000116,428.0938790999935,428.11444469999697,428.12695710000116,428.12695710000116,428.12695710000116,430.26063199999044,Objects\334b.jpg,pre,o,2.1258041999972193,None,,,,,,,,00023,001,2025-11-09_16h38.05.927,MST_test,2024.2.2,59.957070736779215,2025-11-09 16h38.12.918198 +0530,
134,0,134,o,3.5677939000015613,None,134,0,134,0,430.2769171999971,,,,,,,,,,,,,,,,,,,,,,,,,,,,,,,,,,,,,,,,,,,,,,,,,,430.26071849999425,430.2769171999971,430.77687980000337,430.76042189999134,430.762370299999,430.77687980000337,430.77687980000337,430.77687980000337,434.36045130000275,Objects\141a.jpg,post,o,3.5677939000015613,None,,,,,,,,00023,001,2025-11-09_16h38.05.927,MST_test,2024.2.2,59.957070736779215,2025-11-09 16h38.12.918198 +0530,
135,0,135,o,1.096118799992837,None,135,0,135,0,434.3768398999964,,,,,,,,,,,,,,,,,,,,,,,,,,,,,,,,,,,,,,,,,,,,,,,,,,434.36052760000166,434.3768398999964,434.8768016999966,434.86036479999893,434.86220029999095,434.8768016999966,434.8768016999966,434.8768016999966,435.9772132999933,Objects\369a.jpg,post,o,1.096118799992837,None,,,,,,,,00023,001,2025-11-09_16h38.05.927,MST_test,2024.2.2,59.957070736779215,2025-11-09 16h38.12.918198 +0530,
136,0,136,n,1.305223000003025,None,136,0,136,0,435.9934615999955,,,,,,,,,,,,,,,,,,,,,,,,,,,,,,,,,,,,,,,,,,,,,,,,,,435.97729860000254,435.9934615999955,436.4934341999906,436.47710779999034,436.4845845999953,436.4934341999906,436.4934341999906,436.4934341999906,437.810459100001,Foils\082a.jpg,none,n,1.305223000003025,None,,,,,,,,00023,001,2025-11-09_16h38.05.927,MST_test,2024.2.2,59.957070736779215,2025-11-09 16h38.12.918198 +0530,
137,0,137,n,1.268196999997599,None,137,0,137,0,437.8267246999894,,,,,,,,,,,,,,,,,,,,,,,,,,,,,,,,,,,,,,,,,,,,,,,,,,437.8105368999968,437.8267246999894,438.3267290999938,438.31027970000287,438.3176512999926,438.3267290999938,438.3267290999938,438.3267290999938,439.6104411999986,Foils\018a.jpg,none,n,1.268196999997599,None,,,,,,,,00023,001,2025-11-09_16h38.05.927,MST_test,2024.2.2,59.957070736779215,2025-11-09 16h38.12.918198 +0530,
138,0,138,o,1.414136299994425,None,138,0,138,0,439.6266959999921,,,,,,,,,,,,,,,,,,,,,,,,,,,,,,,,,,,,,,,,,,,,,,,,,,439.61052659999405,439.6266959999921,440.12668299999496,440.11028739999165,440.11500550000346,440.12668299999496,440.12668299999496,440.12668299999496,441.54370739999285,Objects\310a.jpg,mid,o,1.414136299994425,None,,,,,,,,00023,001,2025-11-09_16h38.05.927,MST_test,2024.2.2,59.957070736779215,2025-11-09 16h38.12.918198 +0530,
139,0,139,s,3.337556600003154,None,139,0,139,0,441.5600143999909,,,,,,,,,,,,,,,,,,,,,,,,,,,,,,,,,,,,,,,,,,,,,,,,,,441.5437966000027,441.5600143999909,442.0599821999931,442.0436101999949,442.0500621999963,442.0599821999931,442.0599821999931,442.0599821999931,445.4104754,Objects\236a.jpg,pre,s,3.337556600003154,None,,,,,,,,00023,001,2025-11-09_16h38.05.927,MST_test,2024.2.2,59.957070736779215,2025-11-09 16h38.12.918198 +0530,
140,0,140,s,1.8478857000009157,None,140,0,140,0,445.4265994000016,,,,,,,,,,,,,,,,,,,,,,,,,,,,,,,,,,,,,,,,,,,,,,,,,,445.41055659999256,445.4265994000016,445.926552799996,445.9101246999926,445.92110349998984,445.926552799996,445.926552799996,445.926552799996,447.77714350000315,Foils\073a.jpg,none,s,1.8478857000009157,None,,,,,,,,00023,001,2025-11-09_16h38.05.927,MST_test,2024.2.2,59.957070736779215,2025-11-09 16h38.12.918198 +0530,
141,0,141,n,3.3217559000040637,None,141,0,141,0,447.79320249999,,,,,,,,,,,,,,,,,,,,,,,,,,,,,,,,,,,,,,,,,,,,,,,,,,447.7772302999947,447.79320249999,448.2931712999998,448.27693959999306,448.28452509999624,448.2931712999998,448.2931712999998,448.2931712999998,451.6268385000003,Foils\049a.jpg,none,n,3.3217559000040637,None,,,,,,,,00023,001,2025-11-09_16h38.05.927,MST_test,2024.2.2,59.957070736779215,2025-11-09 16h38.12.918198 +0530,
142,0,142,s,1.3984679999994114,None,142,0,142,0,451.6431012999965,,,,,,,,,,,,,,,,,,,,,,,,,,,,,,,,,,,,,,,,,,,,,,,,,,451.62692919999245,451.6431012999965,452.15979530000186,452.12666470000113,452.1477623999963,452.15979530000186,452.15979530000186,452.15979530000186,453.5601103999943,Objects\196b.jpg,pre,s,1.3984679999994114,None,,,,,,,,00023,001,2025-11-09_16h38.05.927,MST_test,2024.2.2,59.957070736779215,2025-11-09 16h38.12.918198 +0530,
143,0,143,s,1.6824621999985538,None,143,0,143,0,453.5764232999936,,,,,,,,,,,,,,,,,,,,,,,,,,,,,,,,,,,,,,,,,,,,,,,,,,453.5601946999959,453.5764232999936,454.0763670000015,454.05992539999716,454.06196900000214,454.0763670000015,454.0763670000015,454.0763670000015,455.76016849999723,Objects\029a.jpg,mid,s,1.6824621999985538,None,,,,,,,,00023,001,2025-11-09_16h38.05.927,MST_test,2024.2.2,59.957070736779215,2025-11-09 16h38.12.918198 +0530,
144,0,144,s,0.9642783000017516,None,144,0,144,0,455.776426299999,,,,,,,,,,,,,,,,,,,,,,,,,,,,,,,,,,,,,,,,,,,,,,,,,,455.7602565999987,455.776426299999,456.2763563999906,456.2598591999995,456.26174999999057,456.2763563999906,456.2763563999906,456.2763563999906,457.2435036999959,Objects\317a.jpg,mid,s,0.9642783000017516,None,,,,,,,,00023,001,2025-11-09_16h38.05.927,MST_test,2024.2.2,59.957070736779215,2025-11-09 16h38.12.918198 +0530,
145,0,145,n,1.6077680000016699,None,145,0,145,0,457.259639099997,,,,,,,,,,,,,,,,,,,,,,,,,,,,,,,,,,,,,,,,,,,,,,,,,,457.2435839999962,457.259639099997,457.7929634000029,457.7432145999919,457.7722136999946,457.7929634000029,457.7929634000029,457.7929634000029,459.40991619999113,Foils\f7.jpg,none,n,1.6077680000016699,None,,,,,,,,00023,001,2025-11-09_16h38.05.927,MST_test,2024.2.2,59.957070736779215,2025-11-09 16h38.12.918198 +0530,
146,0,146,s,1.6769784000061918,None,146,0,146,0,459.4262829999934,,,,,,,,,,,,,,,,,,,,,,,,,,,,,,,,,,,,,,,,,,,,,,,,,,459.410003099998,459.4262829999934,459.9262410999945,459.90985699999146,459.9206295999902,459.9262410999945,459.9262410999945,459.9262410999945,461.60986630000116,Objects\285b.jpg,post,s,1.6769784000061918,None,,,,,,,,00023,001,2025-11-09_16h38.05.927,MST_test,2024.2.2,59.957070736779215,2025-11-09 16h38.12.918198 +0530,
147,0,147,s,2.5970183000026736,None,147,0,147,0,461.626242600003,,,,,,,,,,,,,,,,,,,,,,,,,,,,,,,,,,,,,,,,,,,,,,,,,,461.60995159999584,461.626242600003,462.12622619999456,462.10975459999463,462.1144573999918,462.12622619999456,462.12622619999456,462.12622619999456,464.726542599994,Objects\275a.jpg,mid,s,2.5970183000026736,None,,,,,,,,00023,001,2025-11-09_16h38.05.927,MST_test,2024.2.2,59.957070736779215,2025-11-09 16h38.12.918198 +0530,
148,0,148,s,1.263062500001979,None,148,0,148,0,464.74284009999246,,,,,,,,,,,,,,,,,,,,,,,,,,,,,,,,,,,,,,,,,,,,,,,,,,464.72663209999155,464.74284009999246,465.25945719999436,465.2264356999949,465.2523089000024,465.25945719999436,465.25945719999436,465.25945719999436,466.5266716999904,Objects\005b.jpg,pre,s,1.263062500001979,None,,,,,,,,00023,001,2025-11-09_16h38.05.927,MST_test,2024.2.2,59.957070736779215,2025-11-09 16h38.12.918198 +0530,
149,0,149,o,0.9526685000018915,None,149,0,149,0,466.5429748000024,,,,,,,,,,,,,,,,,,,,,,,,,,,,,,,,,,,,,,,,,,,,,,,,,,466.5267557999905,466.5429748000024,467.0595934000012,467.02640789998986,467.03903159999754,467.0595934000012,467.0595934000012,467.0595934000012,468.0265245999908,Objects\130b.jpg,mid,o,0.9526685000018915,None,,,,,,,,00023,001,2025-11-09_16h38.05.927,MST_test,2024.2.2,59.957070736779215,2025-11-09 16h38.12.918198 +0530,
,,,,,,,,,,,,,,,,,,,,,,,,,,,,,,,,,,,,,,,,,,,,,,,,,,,,,,,,,,,,,,,,,,,,,,,,,,468.02657879999606,468.04284259999986,468.04284259999986,471.14322329999413,space,3.0944939000037266,None,00023,001,2025-11-09_16h38.05.927,MST_test,2024.2.2,59.957070736779215,2025-11-09 16h38.12.918198 +0530,
