thisN,thisTrialN,thisRepN,key_resp_3.keys,key_resp_3.rt,key_resp_3.duration,trials.thisRepN,trials.thisTrialN,trials.thisN,trials.thisIndex,thisRow.t,notes,intro_page.started,text.started,key_resp.started,intro_page.stopped,key_resp.keys,key_resp.rt,key_resp.duration,instructions.started,text_2.started,key_resp_2.started,instructions.stopped,key_resp_2.keys,key_resp_2.rt,key_resp_2.duration,demo1.started,image_1.started,image_2.started,text_7.started,key_resp_6.started,text_9.started,demo1.stopped,key_resp_6.keys,key_resp_6.rt,key_resp_6.duration,demo3.started,image_5.started,image_6.started,text_11.started,text_12.started,key_resp_8.started,demo3.stopped,key_resp_8.keys,key_resp_8.rt,key_resp_8.duration,demo_conclusion.started,text_13.started,key_resp_9.started,demo_conclusion.stopped,key_resp_9.keys,key_resp_9.rt,key_resp_9.duration,start_test.started,text_6.started,key_resp_5.started,start_test.stopped,key_resp_5.keys,key_resp_5.rt,key_resp_5.duration,ISI.started,text_4.started,text_4.stopped,ISI.stopped,routine_1.started,image.started,text_3.started,key_resp_3.started,routine_1.stopped,image_path,position_of_stimuli,trials.key_resp_3.keys,trials.key_resp_3.rt,trials.key_resp_3.duration,End_page.started,text_5.started,key_resp_4.started,End_page.stopped,key_resp_4.keys,key_resp_4.rt,key_resp_4.duration,participant,session,date,expName,psychopyVersion,frameRate,expStart,
,,,,,,,,,,,,0.01508170000033715,0.03157069999997475,0.03157069999997475,2.1664156000006187,space,2.121003200000814,None,,,,,,,,,,,,,,,,,,,,,,,,,,,,,,,,,,,,,,,,,,,,,,,,,,,,,,,,,,,,,,,00028,001,2025-11-14_19h28.58.680,MST_test,2024.2.2,60.002184079541365,2025-11-14 19h29.04.641673 +0530,
,,,,,,,,,,,,,,,,,,,2.166443099999924,2.1813661000005595,2.1813661000005595,15.764828000000307,space,13.568051799999921,None,,,,,,,,,,,,,,,,,,,,,,,,,,,,,,,,,,,,,,,,,,,,,,,,,,,,,,,,00028,001,2025-11-14_19h28.58.680,MST_test,2024.2.2,60.002184079541365,2025-11-14 19h29.04.641673 +0530,
,,,,,,,,,,,,,,,,,,,,,,,,,,15.764855299999908,15.78108390000034,15.78108390000034,15.78108390000034,15.78108390000034,15.78108390000034,22.247905700000047,space,6.459519799999725,None,,,,,,,,,,,,,,,,,,,,,,,,,,,,,,,,,,,,,,,,,,,,,,00028,001,2025-11-14_19h28.58.680,MST_test,2024.2.2,60.002184079541365,2025-11-14 19h29.04.641673 +0530,
,,,,,,,,,,,,,,,,,,,,,,,,,,,,,,,,,,,,22.247929000000113,22.264299800000117,22.264299800000117,22.264299800000117,22.264299800000117,22.264299800000117,25.647884400000294,space,3.3721840999996857,None,,,,,,,,,,,,,,,,,,,,,,,,,,,,,,,,,,,,00028,001,2025-11-14_19h28.58.680,MST_test,2024.2.2,60.002184079541365,2025-11-14 19h29.04.641673 +0530,
,,,,,,,,,,,,,,,,,,,,,,,,,,,,,,,,,,,,,,,,,,,,,,25.647910100000445,25.66418210000029,25.66418210000029,89.11331820000032,space,63.44379669999944,None,,,,,,,,,,,,,,,,,,,,,,,,,,,,,00028,001,2025-11-14_19h28.58.680,MST_test,2024.2.2,60.002184079541365,2025-11-14 19h29.04.641673 +0530,
,,,,,,,,,,,,,,,,,,,,,,,,,,,,,,,,,,,,,,,,,,,,,,,,,,,,,89.11336260000007,89.12947369999983,89.12947369999983,101.2629581000001,space,12.117006000000401,None,,,,,,,,,,,,,,,,,,,,,,00028,001,2025-11-14_19h28.58.680,MST_test,2024.2.2,60.002184079541365,2025-11-14 19h29.04.641673 +0530,
0,0,0,s,2.253787100000409,None,0,0,0,0,101.2792115000002,,,,,,,,,,,,,,,,,,,,,,,,,,,,,,,,,,,,,,,,,,,,,,,,,,101.2656723,101.2792115000002,101.79613640000025,101.76269719999982,101.7880513,101.79613640000025,101.79613640000025,101.79613640000025,104.06289310000011,Objects\223b.jpg,mid,s,2.253787100000409,None,,,,,,,,00028,001,2025-11-14_19h28.58.680,MST_test,2024.2.2,60.002184079541365,2025-11-14 19h29.04.641673 +0530,
1,0,1,o,3.308842800000093,None,1,0,1,0,104.07916740000019,,,,,,,,,,,,,,,,,,,,,,,,,,,,,,,,,,,,,,,,,,,,,,,,,,104.06297129999984,104.07916740000019,104.57942100000037,104.56267430000025,104.56741839999995,104.57942100000037,104.57942100000037,104.57942100000037,107.89612850000049,Objects\291a.jpg,mid,o,3.308842800000093,None,,,,,,,,00028,001,2025-11-14_19h28.58.680,MST_test,2024.2.2,60.002184079541365,2025-11-14 19h29.04.641673 +0530,
2,0,2,o,2.021616400000312,None,2,0,2,0,107.91244050000023,,,,,,,,,,,,,,,,,,,,,,,,,,,,,,,,,,,,,,,,,,,,,,,,,,107.89620680000007,107.91244050000023,108.41202710000016,108.39598970000043,108.40731479999977,108.41202710000016,108.41202710000016,108.41202710000016,110.4460968000003,Foils\057a.jpg,none,o,2.021616400000312,None,,,,,,,,00028,001,2025-11-14_19h28.58.680,MST_test,2024.2.2,60.002184079541365,2025-11-14 19h29.04.641673 +0530,
3,0,3,s,1.6327854000001025,None,3,0,3,0,110.46238820000053,,,,,,,,,,,,,,,,,,,,,,,,,,,,,,,,,,,,,,,,,,,,,,,,,,110.4461753000005,110.46238820000053,110.97904160000053,110.94598930000029,110.96486000000004,110.97904160000053,110.97904160000053,110.97904160000053,112.61258550000002,Objects\043b.jpg,post,s,1.6327854000001025,None,,,,,,,,00028,001,2025-11-14_19h28.58.680,MST_test,2024.2.2,60.002184079541365,2025-11-14 19h29.04.641673 +0530,
4,0,4,s,2.238976399999956,None,4,0,4,0,112.62901539999984,,,,,,,,,,,,,,,,,,,,,,,,,,,,,,,,,,,,,,,,,,,,,,,,,,112.61265989999993,112.62901539999984,113.12895790000039,113.1124604000006,113.1173802000003,113.12895790000039,113.12895790000039,113.12895790000039,115.37931500000013,Objects\290a.jpg,post,s,2.238976399999956,None,,,,,,,,00028,001,2025-11-14_19h28.58.680,MST_test,2024.2.2,60.002184079541365,2025-11-14 19h29.04.641673 +0530,
5,0,5,n,2.1734843999993245,None,5,0,5,0,115.3955962,,,,,,,,,,,,,,,,,,,,,,,,,,,,,,,,,,,,,,,,,,,,,,,,,,115.37941210000008,115.3955962,115.91223189999982,115.87908770000013,115.89045200000055,115.91223189999982,115.91223189999982,115.91223189999982,118.09587710000051,Objects\104b.jpg,post,n,2.1734843999993245,None,,,,,,,,00028,001,2025-11-14_19h28.58.680,MST_test,2024.2.2,60.002184079541365,2025-11-14 19h29.04.641673 +0530,
6,0,6,s,2.1491069000003336,None,6,0,6,0,118.1123305000001,,,,,,,,,,,,,,,,,,,,,,,,,,,,,,,,,,,,,,,,,,,,,,,,,,118.09596060000058,118.1123305000001,118.6289899000003,118.59574040000007,118.61664380000002,118.6289899000003,118.6289899000003,118.6289899000003,120.77925340000002,Objects\146b.jpg,post,s,2.1491069000003336,None,,,,,,,,00028,001,2025-11-14_19h28.58.680,MST_test,2024.2.2,60.002184079541365,2025-11-14 19h29.04.641673 +0530,
7,0,7,o,1.8121435000002748,None,7,0,7,0,120.79561830000057,,,,,,,,,,,,,,,,,,,,,,,,,,,,,,,,,,,,,,,,,,,,,,,,,,120.77933269999994,120.79561830000057,121.29556580000008,121.27910909999991,121.2811343000003,121.29556580000008,121.29556580000008,121.29556580000008,123.1124834000002,Objects\060a.jpg,mid,o,1.8121435000002748,None,,,,,,,,00028,001,2025-11-14_19h28.58.680,MST_test,2024.2.2,60.002184079541365,2025-11-14 19h29.04.641673 +0530,
8,0,8,n,1.4061309000007896,None,8,0,8,0,123.12878230000024,,,,,,,,,,,,,,,,,,,,,,,,,,,,,,,,,,,,,,,,,,,,,,,,,,123.11256580000008,123.12878230000024,123.64543130000038,123.61226090000036,123.62779469999987,123.64543130000038,123.64543130000038,123.64543130000038,125.06245690000014,Objects\188b.jpg,post,n,1.4061309000007896,None,,,,,,,,00028,001,2025-11-14_19h28.58.680,MST_test,2024.2.2,60.002184079541365,2025-11-14 19h29.04.641673 +0530,
9,0,9,o,2.989713799999663,None,9,0,9,0,125.07873720000043,,,,,,,,,,,,,,,,,,,,,,,,,,,,,,,,,,,,,,,,,,,,,,,,,,125.06254059999992,125.07873720000043,125.57867940000051,125.56228650000048,125.56749140000011,125.57867940000051,125.57867940000051,125.57867940000051,128.5790562000002,Objects\261a.jpg,pre,o,2.989713799999663,None,,,,,,,,00028,001,2025-11-14_19h28.58.680,MST_test,2024.2.2,60.002184079541365,2025-11-14 19h29.04.641673 +0530,
10,0,10,o,1.0961527999997998,None,10,0,10,0,128.59532450000006,,,,,,,,,,,,,,,,,,,,,,,,,,,,,,,,,,,,,,,,,,,,,,,,,,128.5791476000004,128.59532450000006,129.1119779999999,129.07889310000064,129.10061829999995,129.1119779999999,129.1119779999999,129.1119779999999,130.2123302,Objects\153b.jpg,mid,o,1.0961527999997998,None,,,,,,,,00028,001,2025-11-14_19h28.58.680,MST_test,2024.2.2,60.002184079541365,2025-11-14 19h29.04.641673 +0530,
11,0,11,o,0.7049737000006644,None,11,0,11,0,130.22863140000027,,,,,,,,,,,,,,,,,,,,,,,,,,,,,,,,,,,,,,,,,,,,,,,,,,130.21240820000003,130.22863140000027,130.72862390000046,130.71213200000057,130.7141689,130.72862390000046,130.72862390000046,130.72862390000046,131.4456326999998,Objects\026a.jpg,post,o,0.7049737000006644,None,,,,,,,,00028,001,2025-11-14_19h28.58.680,MST_test,2024.2.2,60.002184079541365,2025-11-14 19h29.04.641673 +0530,
12,0,12,n,1.1035695000000487,None,12,0,12,0,131.4619274000006,,,,,,,,,,,,,,,,,,,,,,,,,,,,,,,,,,,,,,,,,,,,,,,,,,131.44571040000028,131.4619274000006,131.9619419999999,131.94548680000025,131.95332880000024,131.9619419999999,131.9619419999999,131.9619419999999,133.07884520000061,Foils\121a.jpg,none,n,1.1035695000000487,None,,,,,,,,00028,001,2025-11-14_19h28.58.680,MST_test,2024.2.2,60.002184079541365,2025-11-14 19h29.04.641673 +0530,
13,0,13,o,1.0450897000000623,None,13,0,13,0,133.09523439999975,,,,,,,,,,,,,,,,,,,,,,,,,,,,,,,,,,,,,,,,,,,,,,,,,,133.0789261,133.09523439999975,133.59518939999998,133.57882359999985,133.58088260000022,133.59518939999998,133.59518939999998,133.59518939999998,134.64555350000046,Objects\085a.jpg,post,o,1.0450897000000623,None,,,,,,,,00028,001,2025-11-14_19h28.58.680,MST_test,2024.2.2,60.002184079541365,2025-11-14 19h29.04.641673 +0530,
14,0,14,n,1.1320655999998053,None,14,0,14,0,134.66186990000006,,,,,,,,,,,,,,,,,,,,,,,,,,,,,,,,,,,,,,,,,,,,,,,,,,134.64563410000028,134.66186990000006,135.16187020000052,135.1453446000005,135.15332820000003,135.16187020000052,135.16187020000052,135.16187020000052,136.29558069999985,Foils\002a.jpg,none,n,1.1320655999998053,None,,,,,,,,00028,001,2025-11-14_19h28.58.680,MST_test,2024.2.2,60.002184079541365,2025-11-14 19h29.04.641673 +0530,
15,0,15,n,2.5107115999999223,None,15,0,15,0,136.3118260000001,,,,,,,,,,,,,,,,,,,,,,,,,,,,,,,,,,,,,,,,,,,,,,,,,,136.29567039999984,136.3118260000001,136.8118970000005,136.79537309999978,136.80295939999996,136.8118970000005,136.8118970000005,136.8118970000005,139.32884400000057,Foils\097a.jpg,none,n,2.5107115999999223,None,,,,,,,,00028,001,2025-11-14_19h28.58.680,MST_test,2024.2.2,60.002184079541365,2025-11-14 19h29.04.641673 +0530,
16,0,16,o,1.9025580000006812,None,16,0,16,0,139.34509400000024,,,,,,,,,,,,,,,,,,,,,,,,,,,,,,,,,,,,,,,,,,,,,,,,,,139.32892429999993,139.34509400000024,139.84508170000026,139.8286173000006,139.83370389999982,139.84508170000026,139.84508170000026,139.84508170000026,141.76209670000026,Objects\239a.jpg,mid,o,1.9025580000006812,None,,,,,,,,00028,001,2025-11-14_19h28.58.680,MST_test,2024.2.2,60.002184079541365,2025-11-14 19h29.04.641673 +0530,
17,0,17,s,7.3865246000004845,None,17,0,17,0,141.77837230000023,,,,,,,,,,,,,,,,,,,,,,,,,,,,,,,,,,,,,,,,,,,,,,,,,,141.7621807000005,141.77837230000023,142.2952636,142.2619765999998,142.27347970000028,142.2952636,142.2952636,142.2952636,149.6954224000001,Objects\303b.jpg,mid,s,7.3865246000004845,None,,,,,,,,00028,001,2025-11-14_19h28.58.680,MST_test,2024.2.2,60.002184079541365,2025-11-14 19h29.04.641673 +0530,
18,0,18,n,1.330263400000149,None,18,0,18,0,149.71154410000054,,,,,,,,,,,,,,,,,,,,,,,,,,,,,,,,,,,,,,,,,,,,,,,,,,149.69550739999977,149.71154410000054,150.21149200000036,150.19507570000042,150.20596490000025,150.21149200000036,150.21149200000036,150.21149200000036,151.54516909999984,Foils\106a.jpg,none,n,1.330263400000149,None,,,,,,,,00028,001,2025-11-14_19h28.58.680,MST_test,2024.2.2,60.002184079541365,2025-11-14 19h29.04.641673 +0530,
19,0,19,s,3.9181756000007226,None,19,0,19,0,151.56145600000036,,,,,,,,,,,,,,,,,,,,,,,,,,,,,,,,,,,,,,,,,,,,,,,,,,151.5452481000002,151.56145600000036,152.06148649999977,152.0449335000003,152.04687939999985,152.06148649999977,152.06148649999977,152.06148649999977,155.99512310000046,Objects\079a.jpg,pre,s,3.9181756000007226,None,,,,,,,,00028,001,2025-11-14_19h28.58.680,MST_test,2024.2.2,60.002184079541365,2025-11-14 19h29.04.641673 +0530,
20,0,20,s,2.415906900000664,None,20,0,20,0,156.01140209999994,,,,,,,,,,,,,,,,,,,,,,,,,,,,,,,,,,,,,,,,,,,,,,,,,,155.99520610000036,156.01140209999994,156.52802220000012,156.49485689999983,156.51404730000013,156.52802220000012,156.52802220000012,156.52802220000012,158.9450998000002,Objects\374b.jpg,pre,s,2.415906900000664,None,,,,,,,,00028,001,2025-11-14_19h28.58.680,MST_test,2024.2.2,60.002184079541365,2025-11-14 19h29.04.641673 +0530,
21,0,21,o,1.0866150000001653,None,21,0,21,0,158.96130059999996,,,,,,,,,,,,,,,,,,,,,,,,,,,,,,,,,,,,,,,,,,,,,,,,,,158.94517970000015,158.96130059999996,159.47822069999984,159.44486899999993,159.46630780000032,159.47822069999984,159.47822069999984,159.47822069999984,160.57839120000062,Objects\269b.jpg,post,o,1.0866150000001653,None,,,,,,,,00028,001,2025-11-14_19h28.58.680,MST_test,2024.2.2,60.002184079541365,2025-11-14 19h29.04.641673 +0530,
22,0,22,s,2.072763600000144,None,22,0,22,0,160.5946429000005,,,,,,,,,,,,,,,,,,,,,,,,,,,,,,,,,,,,,,,,,,,,,,,,,,160.57848400000057,160.5946429000005,161.11125700000048,161.0782239,161.09908059999998,161.11125700000048,161.11125700000048,161.11125700000048,163.1949794000002,Objects\293b.jpg,pre,s,2.072763600000144,None,,,,,,,,00028,001,2025-11-14_19h28.58.680,MST_test,2024.2.2,60.002184079541365,2025-11-14 19h29.04.641673 +0530,
23,0,23,s,1.47021660000064,None,23,0,23,0,163.2112547000006,,,,,,,,,,,,,,,,,,,,,,,,,,,,,,,,,,,,,,,,,,,,,,,,,,163.19505690000005,163.2112547000006,163.7279124000006,163.69466580000062,163.71291350000047,163.7279124000006,163.7279124000006,163.7279124000006,165.21161690000008,Objects\325b.jpg,pre,s,1.47021660000064,None,,,,,,,,00028,001,2025-11-14_19h28.58.680,MST_test,2024.2.2,60.002184079541365,2025-11-14 19h29.04.641673 +0530,
24,0,24,s,1.288395099999434,None,24,0,24,0,165.2278868000003,,,,,,,,,,,,,,,,,,,,,,,,,,,,,,,,,,,,,,,,,,,,,,,,,,165.21169650000047,165.2278868000003,165.74452060000021,165.71143089999987,165.73124019999977,165.74452060000021,165.74452060000021,165.74452060000021,167.04486009999982,Objects\116b.jpg,post,s,1.288395099999434,None,,,,,,,,00028,001,2025-11-14_19h28.58.680,MST_test,2024.2.2,60.002184079541365,2025-11-14 19h29.04.641673 +0530,
25,0,25,o,1.124536899999839,None,25,0,25,0,167.06115370000043,,,,,,,,,,,,,,,,,,,,,,,,,,,,,,,,,,,,,,,,,,,,,,,,,,167.0449421000003,167.06115370000043,167.56110810000064,167.54476150000028,167.5490221,167.56110810000064,167.56110810000064,167.56110810000064,168.69471500000054,Objects\367a.jpg,mid,o,1.124536899999839,None,,,,,,,,00028,001,2025-11-14_19h28.58.680,MST_test,2024.2.2,60.002184079541365,2025-11-14 19h29.04.641673 +0530,
26,0,26,n,1.4413863999998284,None,26,0,26,0,168.71112429999994,,,,,,,,,,,,,,,,,,,,,,,,,,,,,,,,,,,,,,,,,,,,,,,,,,168.69479430000047,168.71112429999994,169.21080669999992,169.19467320000058,169.2052966000001,169.21080669999992,169.21080669999992,169.21080669999992,170.66150910000033,Foils\009a.jpg,none,n,1.4413863999998284,None,,,,,,,,00028,001,2025-11-14_19h28.58.680,MST_test,2024.2.2,60.002184079541365,2025-11-14 19h29.04.641673 +0530,
27,0,27,n,1.129099099999621,None,27,0,27,0,170.67774819999977,,,,,,,,,,,,,,,,,,,,,,,,,,,,,,,,,,,,,,,,,,,,,,,,,,170.66159169999992,170.67774819999977,171.21113930000047,171.16135209999993,171.2031089000002,171.21113930000047,171.21113930000047,171.21113930000047,172.34477070000048,Foils\f5.jpg,none,n,1.129099099999621,None,,,,,,,,00028,001,2025-11-14_19h28.58.680,MST_test,2024.2.2,60.002184079541365,2025-11-14 19h29.04.641673 +0530,
28,0,28,o,1.566617600000427,None,28,0,28,0,172.36104299999988,,,,,,,,,,,,,,,,,,,,,,,,,,,,,,,,,,,,,,,,,,,,,,,,,,172.34484520000024,172.36104299999988,172.86099660000036,172.84459250000054,172.84894320000058,172.86099660000036,172.86099660000036,172.86099660000036,174.42799699999978,Objects\250a.jpg,post,o,1.566617600000427,None,,,,,,,,00028,001,2025-11-14_19h28.58.680,MST_test,2024.2.2,60.002184079541365,2025-11-14 19h29.04.641673 +0530,
29,0,29,n,1.0599164999994173,None,29,0,29,0,174.44434619999993,,,,,,,,,,,,,,,,,,,,,,,,,,,,,,,,,,,,,,,,,,,,,,,,,,174.42806980000023,174.44434619999993,174.94390569999996,174.92789249999987,174.93937180000012,174.94390569999996,174.94390569999996,174.94390569999996,176.0113661000005,Foils\105a.jpg,none,n,1.0599164999994173,None,,,,,,,,00028,001,2025-11-14_19h28.58.680,MST_test,2024.2.2,60.002184079541365,2025-11-14 19h29.04.641673 +0530,
30,0,30,s,1.1100611000001663,None,30,0,30,0,176.02763909999976,,,,,,,,,,,,,,,,,,,,,,,,,,,,,,,,,,,,,,,,,,,,,,,,,,176.01145170000018,176.02763909999976,176.5442810000004,176.51116000000002,176.52946560000055,176.5442810000004,176.5442810000004,176.5442810000004,177.6612313000005,Objects\169b.jpg,post,s,1.1100611000001663,None,,,,,,,,00028,001,2025-11-14_19h28.58.680,MST_test,2024.2.2,60.002184079541365,2025-11-14 19h29.04.641673 +0530,
31,0,31,o,1.736099099999592,None,31,0,31,0,177.67759550000028,,,,,,,,,,,,,,,,,,,,,,,,,,,,,,,,,,,,,,,,,,,,,,,,,,177.66130220000014,177.67759550000028,178.17755000000034,178.16105289999996,178.16562450000038,178.17755000000034,178.17755000000034,178.17755000000034,179.92799860000014,Objects\329a.jpg,pre,o,1.736099099999592,None,,,,,,,,00028,001,2025-11-14_19h28.58.680,MST_test,2024.2.2,60.002184079541365,2025-11-14 19h29.04.641673 +0530,
32,0,32,o,0.9301347999999052,None,32,0,32,0,179.94425580000006,,,,,,,,,,,,,,,,,,,,,,,,,,,,,,,,,,,,,,,,,,,,,,,,,,179.92808930000047,179.94425580000006,180.44422120000036,180.42778230000022,180.43269779999991,180.44422120000036,180.44422120000036,180.44422120000036,181.3779224,Objects\067a.jpg,post,o,0.9301347999999052,None,,,,,,,,00028,001,2025-11-14_19h28.58.680,MST_test,2024.2.2,60.002184079541365,2025-11-14 19h29.04.641673 +0530,
33,0,33,s,2.1089183000003686,None,33,0,33,0,181.3942403000001,,,,,,,,,,,,,,,,,,,,,,,,,,,,,,,,,,,,,,,,,,,,,,,,,,181.3780023999998,181.3942403000001,181.91089980000015,181.87773749999997,181.88905630000045,181.91089980000015,181.91089980000015,181.91089980000015,184.02791870000055,Objects\208b.jpg,mid,s,2.1089183000003686,None,,,,,,,,00028,001,2025-11-14_19h28.58.680,MST_test,2024.2.2,60.002184079541365,2025-11-14 19h29.04.641673 +0530,
34,0,34,o,1.2262534999999843,None,34,0,34,0,184.0442423000004,,,,,,,,,,,,,,,,,,,,,,,,,,,,,,,,,,,,,,,,,,,,,,,,,,184.02801460000046,184.0442423000004,184.5441768999999,184.5276758,184.5327111000006,184.5441768999999,184.5441768999999,184.5441768999999,185.7777885000005,Objects\090a.jpg,mid,o,1.2262534999999843,None,,,,,,,,00028,001,2025-11-14_19h28.58.680,MST_test,2024.2.2,60.002184079541365,2025-11-14 19h29.04.641673 +0530,
35,0,35,s,1.8758151000001817,None,35,0,35,0,185.79421559999992,,,,,,,,,,,,,,,,,,,,,,,,,,,,,,,,,,,,,,,,,,,,,,,,,,185.77786190000006,185.79421559999992,186.31083320000016,186.27769030000036,186.29669100000046,186.31083320000016,186.31083320000016,186.31083320000016,188.19447949999994,Objects\138b.jpg,pre,s,1.8758151000001817,None,,,,,,,,00028,001,2025-11-14_19h28.58.680,MST_test,2024.2.2,60.002184079541365,2025-11-14 19h29.04.641673 +0530,
36,0,36,s,1.3731502999999066,None,36,0,36,0,188.2107573000003,,,,,,,,,,,,,,,,,,,,,,,,,,,,,,,,,,,,,,,,,,,,,,,,,,188.19456830000036,188.2107573000003,188.71076749999975,188.69436730000052,188.70211949999975,188.71076749999975,188.71076749999975,188.71076749999975,190.09444070000063,Foils\086a.jpg,none,s,1.3731502999999066,None,,,,,,,,00028,001,2025-11-14_19h28.58.680,MST_test,2024.2.2,60.002184079541365,2025-11-14 19h29.04.641673 +0530,
37,0,37,o,1.1269649999994726,None,37,0,37,0,190.11067060000005,,,,,,,,,,,,,,,,,,,,,,,,,,,,,,,,,,,,,,,,,,,,,,,,,,190.09451499999977,190.11067060000005,190.61073860000033,190.59421660000044,190.59890280000036,190.61073860000033,190.61073860000033,190.61073860000033,191.7445163000002,Objects\230a.jpg,mid,o,1.1269649999994726,None,,,,,,,,00028,001,2025-11-14_19h28.58.680,MST_test,2024.2.2,60.002184079541365,2025-11-14 19h29.04.641673 +0530,
38,0,38,o,0.9196071999995183,None,38,0,38,0,191.76075180000043,,,,,,,,,,,,,,,,,,,,,,,,,,,,,,,,,,,,,,,,,,,,,,,,,,191.74459209999986,191.76075180000043,192.2606738000004,192.24423170000046,192.2490772000001,192.2606738000004,192.2606738000004,192.2606738000004,193.19439330000023,Objects\125a.jpg,pre,o,0.9196071999995183,None,,,,,,,,00028,001,2025-11-14_19h28.58.680,MST_test,2024.2.2,60.002184079541365,2025-11-14 19h29.04.641673 +0530,
39,0,39,s,1.3551743999996688,None,39,0,39,0,193.21065360000011,,,,,,,,,,,,,,,,,,,,,,,,,,,,,,,,,,,,,,,,,,,,,,,,,,193.19447610000043,193.21065360000011,193.7273382000003,193.69417010000052,193.70973680000043,193.7273382000003,193.7273382000003,193.7273382000003,195.09427270000015,Objects\244b.jpg,mid,s,1.3551743999996688,None,,,,,,,,00028,001,2025-11-14_19h28.58.680,MST_test,2024.2.2,60.002184079541365,2025-11-14 19h29.04.641673 +0530,
40,0,40,s,2.1202468999999837,None,40,0,40,0,195.11055230000056,,,,,,,,,,,,,,,,,,,,,,,,,,,,,,,,,,,,,,,,,,,,,,,,,,195.0943627000006,195.11055230000056,195.61013559999992,195.59410360000038,195.60549510000055,195.61013559999992,195.61013559999992,195.61013559999992,197.7441845000003,Objects\142b.jpg,mid,s,2.1202468999999837,None,,,,,,,,00028,001,2025-11-14_19h28.58.680,MST_test,2024.2.2,60.002184079541365,2025-11-14 19h29.04.641673 +0530,
41,0,41,o,1.3474354999998468,None,41,0,41,0,197.76063369999974,,,,,,,,,,,,,,,,,,,,,,,,,,,,,,,,,,,,,,,,,,,,,,,,,,197.74426889999995,197.76063369999974,198.2605583000004,198.24409269999978,198.24826759999996,198.2605583000004,198.2605583000004,198.2605583000004,199.6108519999998,Objects\340a.jpg,post,o,1.3474354999998468,None,,,,,,,,00028,001,2025-11-14_19h28.58.680,MST_test,2024.2.2,60.002184079541365,2025-11-14 19h29.04.641673 +0530,
42,0,42,o,1.079037900000003,None,42,0,42,0,199.62717580000026,,,,,,,,,,,,,,,,,,,,,,,,,,,,,,,,,,,,,,,,,,,,,,,,,,199.6109320000005,199.62717580000026,200.12717650000013,200.11072950000016,200.11606660000052,200.12717650000013,200.12717650000013,200.12717650000013,201.21081310000045,Objects\008a.jpg,post,o,1.079037900000003,None,,,,,,,,00028,001,2025-11-14_19h28.58.680,MST_test,2024.2.2,60.002184079541365,2025-11-14 19h29.04.641673 +0530,
43,0,43,o,1.0928374999994048,None,43,0,43,0,201.22715920000064,,,,,,,,,,,,,,,,,,,,,,,,,,,,,,,,,,,,,,,,,,,,,,,,,,201.21089260000008,201.22715920000064,201.72713750000003,201.71067589999984,201.7126057000005,201.72713750000003,201.72713750000003,201.72713750000003,202.8274394,Objects\058a.jpg,mid,o,1.0928374999994048,None,,,,,,,,00028,001,2025-11-14_19h28.58.680,MST_test,2024.2.2,60.002184079541365,2025-11-14 19h29.04.641673 +0530,
44,0,44,o,1.0693154000000504,None,44,0,44,0,202.84383510000043,,,,,,,,,,,,,,,,,,,,,,,,,,,,,,,,,,,,,,,,,,,,,,,,,,202.82752900000014,202.84383510000043,203.36045110000032,203.32734729999993,203.33826640000007,203.36045110000032,203.36045110000032,203.36045110000032,204.44415060000028,Objects\371b.jpg,mid,o,1.0693154000000504,None,,,,,,,,00028,001,2025-11-14_19h28.58.680,MST_test,2024.2.2,60.002184079541365,2025-11-14 19h29.04.641673 +0530,
45,0,45,s,1.0998325999998997,None,45,0,45,0,204.46043660000032,,,,,,,,,,,,,,,,,,,,,,,,,,,,,,,,,,,,,,,,,,,,,,,,,,204.44422010000017,204.46043660000032,204.9604129999998,204.9440199999999,204.95439420000002,204.9604129999998,204.9604129999998,204.9604129999998,206.06062010000005,Objects\373b.jpg,post,s,1.0998325999998997,None,,,,,,,,00028,001,2025-11-14_19h28.58.680,MST_test,2024.2.2,60.002184079541365,2025-11-14 19h29.04.641673 +0530,
46,0,46,o,0.8798886000004131,None,46,0,46,0,206.07706730000064,,,,,,,,,,,,,,,,,,,,,,,,,,,,,,,,,,,,,,,,,,,,,,,,,,206.06069149999985,206.07706730000064,206.5937042000005,206.5605755000006,206.58530220000011,206.5937042000005,206.5937042000005,206.5937042000005,207.47732749999977,Objects\032b.jpg,mid,o,0.8798886000004131,None,,,,,,,,00028,001,2025-11-14_19h28.58.680,MST_test,2024.2.2,60.002184079541365,2025-11-14 19h29.04.641673 +0530,
47,0,47,n,0.9868851999999606,None,47,0,47,0,207.49370910000016,,,,,,,,,,,,,,,,,,,,,,,,,,,,,,,,,,,,,,,,,,,,,,,,,,207.47739890000048,207.49370910000016,207.99366640000062,207.97715880000032,207.98459869999988,207.99366640000062,207.99366640000062,207.99366640000062,208.99391860000014,Foils\058a.jpg,none,n,0.9868851999999606,None,,,,,,,,00028,001,2025-11-14_19h28.58.680,MST_test,2024.2.2,60.002184079541365,2025-11-14 19h29.04.641673 +0530,
48,0,48,o,1.9682981000005384,None,48,0,48,0,209.0104938000004,,,,,,,,,,,,,,,,,,,,,,,,,,,,,,,,,,,,,,,,,,,,,,,,,,208.99399260000064,209.0104938000004,209.51029910000034,209.4937957000002,209.49557730000015,209.51029910000034,209.51029910000034,209.51029910000034,211.49379670000053,Objects\334a.jpg,post,o,1.9682981000005384,None,,,,,,,,00028,001,2025-11-14_19h28.58.680,MST_test,2024.2.2,60.002184079541365,2025-11-14 19h29.04.641673 +0530,
49,0,49,s,1.5287291000004188,None,49,0,49,0,211.51019590000033,,,,,,,,,,,,,,,,,,,,,,,,,,,,,,,,,,,,,,,,,,,,,,,,,,211.49387149999984,211.51019590000033,212.02681699999994,211.9936985000004,212.01502340000025,212.02681699999994,212.02681699999994,212.02681699999994,213.56055509999987,Objects\292b.jpg,post,s,1.5287291000004188,None,,,,,,,,00028,001,2025-11-14_19h28.58.680,MST_test,2024.2.2,60.002184079541365,2025-11-14 19h29.04.641673 +0530,
50,0,50,n,0.8454366000005393,None,50,0,50,0,213.5768237000002,,,,,,,,,,,,,,,,,,,,,,,,,,,,,,,,,,,,,,,,,,,,,,,,,,213.56064609999976,213.5768237000002,214.07639610000024,214.06029500000022,214.0710011000001,214.07639610000024,214.07639610000024,214.07639610000024,214.92709569999988,Foils\101b.jpg,none,n,0.8454366000005393,None,,,,,,,,00028,001,2025-11-14_19h28.58.680,MST_test,2024.2.2,60.002184079541365,2025-11-14 19h29.04.641673 +0530,
51,0,51,o,1.258253799999693,None,51,0,51,0,214.94342200000028,,,,,,,,,,,,,,,,,,,,,,,,,,,,,,,,,,,,,,,,,,,,,,,,,,214.92716870000004,214.94342200000028,215.44345500000054,215.42693400000007,215.42891820000023,215.44345500000054,215.44345500000054,215.44345500000054,216.7103560000005,Objects\379a.jpg,pre,o,1.258253799999693,None,,,,,,,,00028,001,2025-11-14_19h28.58.680,MST_test,2024.2.2,60.002184079541365,2025-11-14 19h29.04.641673 +0530,
52,0,52,s,1.2687814999999318,None,52,0,52,0,216.72674900000038,,,,,,,,,,,,,,,,,,,,,,,,,,,,,,,,,,,,,,,,,,,,,,,,,,216.7104288999999,216.72674900000038,217.24337000000014,217.21034560000044,217.23490440000023,217.24337000000014,217.24337000000014,217.24337000000014,218.52695800000038,Objects\156b.jpg,post,s,1.2687814999999318,None,,,,,,,,00028,001,2025-11-14_19h28.58.680,MST_test,2024.2.2,60.002184079541365,2025-11-14 19h29.04.641673 +0530,
53,0,53,n,1.0812015999999858,None,53,0,53,0,218.54337589999977,,,,,,,,,,,,,,,,,,,,,,,,,,,,,,,,,,,,,,,,,,,,,,,,,,218.52704080000058,218.54337589999977,219.04337269999996,219.02686640000047,219.03426050000053,219.04337269999996,219.04337269999996,219.04337269999996,220.1269600000005,Foils\049a.jpg,none,n,1.0812015999999858,None,,,,,,,,00028,001,2025-11-14_19h28.58.680,MST_test,2024.2.2,60.002184079541365,2025-11-14 19h29.04.641673 +0530,
54,0,54,s,3.4020144999994955,None,54,0,54,0,220.14334899999994,,,,,,,,,,,,,,,,,,,,,,,,,,,,,,,,,,,,,,,,,,,,,,,,,,220.1270456000002,220.14334899999994,220.65999610000017,220.6269198,220.6472745000001,220.65999610000017,220.65999610000017,220.65999610000017,224.07683799999995,Objects\020b.jpg,pre,s,3.4020144999994955,None,,,,,,,,00028,001,2025-11-14_19h28.58.680,MST_test,2024.2.2,60.002184079541365,2025-11-14 19h29.04.641673 +0530,
55,0,55,s,2.0826537000002645,None,55,0,55,0,224.09330349999982,,,,,,,,,,,,,,,,,,,,,,,,,,,,,,,,,,,,,,,,,,,,,,,,,,224.07691410000007,224.09330349999982,,224.59329680000064,224.5955356000004,224.60987860000023,224.60987860000023,224.60987860000023,226.6935312000005,Objects\024a.jpg,mid,s,2.0826537000002645,None,,,,,,,,00028,001,2025-11-14_19h28.58.680,MST_test,2024.2.2,60.002184079541365,2025-11-14 19h29.04.641673 +0530,
56,0,56,s,2.969106699999429,None,56,0,56,0,226.7098775000004,,,,,,,,,,,,,,,,,,,,,,,,,,,,,,,,,,,,,,,,,,,,,,,,,,226.69361590000062,226.7098775000004,227.22652710000057,227.19330270000046,227.20627800000057,227.22652710000057,227.22652710000057,227.22652710000057,230.21019960000012,Objects\154b.jpg,mid,s,2.969106699999429,None,,,,,,,,00028,001,2025-11-14_19h28.58.680,MST_test,2024.2.2,60.002184079541365,2025-11-14 19h29.04.641673 +0530,
57,0,57,n,0.7996910000001662,None,57,0,57,0,230.22645470000043,,,,,,,,,,,,,,,,,,,,,,,,,,,,,,,,,,,,,,,,,,,,,,,,,,230.21028780000051,230.22645470000043,230.72642369999994,230.70994729999984,230.71766519999983,230.72642369999994,230.72642369999994,230.72642369999994,231.52672729999995,Foils\113a.jpg,none,n,0.7996910000001662,None,,,,,,,,00028,001,2025-11-14_19h28.58.680,MST_test,2024.2.2,60.002184079541365,2025-11-14 19h29.04.641673 +0530,
58,0,58,s,1.1300047999993694,None,58,0,58,0,231.54310350000014,,,,,,,,,,,,,,,,,,,,,,,,,,,,,,,,,,,,,,,,,,,,,,,,,,231.5268057000003,231.54310350000014,232.05971810000028,232.02656810000008,232.04683790000036,232.05971810000028,232.05971810000028,232.05971810000028,233.19350320000012,Objects\365b.jpg,post,s,1.1300047999993694,None,,,,,,,,00028,001,2025-11-14_19h28.58.680,MST_test,2024.2.2,60.002184079541365,2025-11-14 19h29.04.641673 +0530,
59,0,59,s,0.8137922999994771,None,59,0,59,0,233.20972880000045,,,,,,,,,,,,,,,,,,,,,,,,,,,,,,,,,,,,,,,,,,,,,,,,,,233.19359090000034,233.20972880000045,233.70978680000007,233.69328529999984,233.69849690000046,233.70978680000007,233.70978680000007,233.70978680000007,234.5267283000003,Objects\234a.jpg,post,s,0.8137922999994771,None,,,,,,,,00028,001,2025-11-14_19h28.58.680,MST_test,2024.2.2,60.002184079541365,2025-11-14 19h29.04.641673 +0530,
60,0,60,o,0.9468223000003491,None,60,0,60,0,234.5430365000002,,,,,,,,,,,,,,,,,,,,,,,,,,,,,,,,,,,,,,,,,,,,,,,,,,234.5268059,234.5430365000002,235.04302199999984,235.02660800000012,235.02853500000037,235.04302199999984,235.04302199999984,235.04302199999984,235.99323689999983,Objects\160a.jpg,post,o,0.9468223000003491,None,,,,,,,,00028,001,2025-11-14_19h28.58.680,MST_test,2024.2.2,60.002184079541365,2025-11-14 19h29.04.641673 +0530,
61,0,61,o,0.8228551000001971,None,61,0,61,0,236.00967839999976,,,,,,,,,,,,,,,,,,,,,,,,,,,,,,,,,,,,,,,,,,,,,,,,,,235.99332409999988,236.00967839999976,236.50962609999988,236.49315500000012,236.49511470000016,236.50962609999988,236.50962609999988,236.50962609999988,237.34340059999977,Objects\124a.jpg,mid,o,0.8228551000001971,None,,,,,,,,00028,001,2025-11-14_19h28.58.680,MST_test,2024.2.2,60.002184079541365,2025-11-14 19h29.04.641673 +0530,
62,0,62,s,2.614744999999857,None,62,0,62,0,237.3596395000004,,,,,,,,,,,,,,,,,,,,,,,,,,,,,,,,,,,,,,,,,,,,,,,,,,237.34347849999995,237.3596395000004,237.85958850000043,237.84323500000028,237.8475840000001,237.85958850000043,237.85958850000043,237.85958850000043,240.47653830000036,Objects\226a.jpg,mid,s,2.614744999999857,None,,,,,,,,00028,001,2025-11-14_19h28.58.680,MST_test,2024.2.2,60.002184079541365,2025-11-14 19h29.04.641673 +0530,
63,0,63,s,1.322857600000134,None,63,0,63,0,240.49286530000063,,,,,,,,,,,,,,,,,,,,,,,,,,,,,,,,,,,,,,,,,,,,,,,,,,240.4766163000004,240.49286530000063,241.00952580000012,240.97641430000022,241.00344760000007,241.00952580000012,241.00952580000012,241.00952580000012,242.3432102000006,Objects\235b.jpg,mid,s,1.322857600000134,None,,,,,,,,00028,001,2025-11-14_19h28.58.680,MST_test,2024.2.2,60.002184079541365,2025-11-14 19h29.04.641673 +0530,
64,0,64,s,1.6783964000005653,None,64,0,64,0,242.3595267999999,,,,,,,,,,,,,,,,,,,,,,,,,,,,,,,,,,,,,,,,,,,,,,,,,,242.34329760000037,242.3595267999999,242.85948890000054,242.84301779999987,242.8516649000003,242.85948890000054,242.85948890000054,242.85948890000054,244.5431677000006,Foils\026a.jpg,none,s,1.6783964000005653,None,,,,,,,,00028,001,2025-11-14_19h28.58.680,MST_test,2024.2.2,60.002184079541365,2025-11-14 19h29.04.641673 +0530,
65,0,65,o,1.1920436000000336,None,65,0,65,0,244.55951820000064,,,,,,,,,,,,,,,,,,,,,,,,,,,,,,,,,,,,,,,,,,,,,,,,,,244.54325250000056,244.55951820000064,245.05943650000063,245.04303770000024,245.04492750000009,245.05943650000063,245.05943650000063,245.05943650000063,246.2598065000002,Objects\185a.jpg,post,o,1.1920436000000336,None,,,,,,,,00028,001,2025-11-14_19h28.58.680,MST_test,2024.2.2,60.002184079541365,2025-11-14 19h29.04.641673 +0530,
66,0,66,n,2.2143328999991354,None,66,0,66,0,246.27609850000044,,,,,,,,,,,,,,,,,,,,,,,,,,,,,,,,,,,,,,,,,,,,,,,,,,246.2598880000005,246.27609850000044,246.77606430000014,246.75957420000032,246.76738860000023,246.77606430000014,246.77606430000014,246.77606430000014,248.99303650000002,Foils\017a.jpg,none,n,2.2143328999991354,None,,,,,,,,00028,001,2025-11-14_19h28.58.680,MST_test,2024.2.2,60.002184079541365,2025-11-14 19h29.04.641673 +0530,
67,0,67,o,1.074912599999152,None,67,0,67,0,249.0093506000003,,,,,,,,,,,,,,,,,,,,,,,,,,,,,,,,,,,,,,,,,,,,,,,,,,248.99312270000064,249.0093506000003,249.52600799999982,249.49296909999975,249.51080809999985,249.52600799999982,249.52600799999982,249.52600799999982,250.60956929999975,Objects\075b.jpg,post,o,1.074912599999152,None,,,,,,,,00028,001,2025-11-14_19h28.58.680,MST_test,2024.2.2,60.002184079541365,2025-11-14 19h29.04.641673 +0530,
68,0,68,o,0.8034675999997489,None,68,0,68,0,250.62601919999997,,,,,,,,,,,,,,,,,,,,,,,,,,,,,,,,,,,,,,,,,,,,,,,,,,250.6096435999998,250.62601919999997,251.12601319999976,251.1094417000004,251.11149680000017,251.12601319999976,251.12601319999976,251.12601319999976,251.9428764000004,Objects\164a.jpg,mid,o,0.8034675999997489,None,,,,,,,,00028,001,2025-11-14_19h28.58.680,MST_test,2024.2.2,60.002184079541365,2025-11-14 19h29.04.641673 +0530,
69,0,69,n,1.0121838000004573,None,69,0,69,0,251.95932660000017,,,,,,,,,,,,,,,,,,,,,,,,,,,,,,,,,,,,,,,,,,,,,,,,,,251.94294450000052,251.95932660000017,252.4593093000003,252.4428072999999,252.4505035000002,252.4593093000003,252.4593093000003,252.4593093000003,253.4762412,Foils\082a.jpg,none,n,1.0121838000004573,None,,,,,,,,00028,001,2025-11-14_19h28.58.680,MST_test,2024.2.2,60.002184079541365,2025-11-14 19h29.04.641673 +0530,
70,0,70,o,0.9729184999996505,None,70,0,70,0,253.49262679999993,,,,,,,,,,,,,,,,,,,,,,,,,,,,,,,,,,,,,,,,,,,,,,,,,,253.4763155999999,253.49262679999993,253.99269520000053,253.97612459999982,253.9800307000005,253.99269520000053,253.99269520000053,253.99269520000053,254.97616990000006,Objects\286a.jpg,post,o,0.9729184999996505,None,,,,,,,,00028,001,2025-11-14_19h28.58.680,MST_test,2024.2.2,60.002184079541365,2025-11-14 19h29.04.641673 +0530,
71,0,71,n,5.352968399999554,None,71,0,71,0,254.99262610000005,,,,,,,,,,,,,,,,,,,,,,,,,,,,,,,,,,,,,,,,,,,,,,,,,,254.97623889999977,254.99262610000005,255.54256780000014,255.47607200000039,255.49395319999985,255.54256780000014,255.54256780000014,255.54256780000014,260.90939979999985,Objects\174b.jpg,post,n,5.352968399999554,None,,,,,,,,00028,001,2025-11-14_19h28.58.680,MST_test,2024.2.2,60.002184079541365,2025-11-14 19h29.04.641673 +0530,
72,0,72,s,2.128481499999907,None,72,0,72,0,260.9257932999999,,,,,,,,,,,,,,,,,,,,,,,,,,,,,,,,,,,,,,,,,,,,,,,,,,260.9094845999998,260.9257932999999,261.44245349999983,261.4092709000006,261.4218279000006,261.44245349999983,261.44245349999983,261.44245349999983,263.57616899999994,Objects\380b.jpg,post,s,2.128481499999907,None,,,,,,,,00028,001,2025-11-14_19h28.58.680,MST_test,2024.2.2,60.002184079541365,2025-11-14 19h29.04.641673 +0530,
73,0,73,s,1.6405185000003257,None,73,0,73,0,263.59247250000044,,,,,,,,,,,,,,,,,,,,,,,,,,,,,,,,,,,,,,,,,,,,,,,,,,263.57625180000014,263.59247250000044,264.1257346000002,264.0758802999999,264.10635139999977,264.1257346000002,264.1257346000002,264.1257346000002,265.77590880000025,Objects\204b.jpg,post,s,1.6405185000003257,None,,,,,,,,00028,001,2025-11-14_19h28.58.680,MST_test,2024.2.2,60.002184079541365,2025-11-14 19h29.04.641673 +0530,
74,0,74,o,1.3689320000003136,None,74,0,74,0,265.7923587000005,,,,,,,,,,,,,,,,,,,,,,,,,,,,,,,,,,,,,,,,,,,,,,,,,,265.7759857000001,265.7923587000005,266.3256419999998,266.27587740000035,266.311068,266.3256419999998,266.3256419999998,266.3256419999998,267.7093644000006,Objects\247b.jpg,pre,o,1.3689320000003136,None,,,,,,,,00028,001,2025-11-14_19h28.58.680,MST_test,2024.2.2,60.002184079541365,2025-11-14 19h29.04.641673 +0530,
75,0,75,s,1.153675800000201,None,75,0,75,0,267.72572350000064,,,,,,,,,,,,,,,,,,,,,,,,,,,,,,,,,,,,,,,,,,,,,,,,,,267.70943910000005,267.72572350000064,268.2422697000002,268.2091968000004,268.2260105000005,268.2422697000002,268.2422697000002,268.2422697000002,269.40918930000043,Objects\083b.jpg,pre,s,1.153675800000201,None,,,,,,,,00028,001,2025-11-14_19h28.58.680,MST_test,2024.2.2,60.002184079541365,2025-11-14 19h29.04.641673 +0530,
76,0,76,o,1.001069500000085,None,76,0,76,0,269.4256138999999,,,,,,,,,,,,,,,,,,,,,,,,,,,,,,,,,,,,,,,,,,,,,,,,,,269.40926990000025,269.4256138999999,269.92556220000006,269.9090790999999,269.91095810000024,269.92556220000006,269.92556220000006,269.92556220000006,270.9424706,Objects\167a.jpg,pre,o,1.001069500000085,None,,,,,,,,00028,001,2025-11-14_19h28.58.680,MST_test,2024.2.2,60.002184079541365,2025-11-14 19h29.04.641673 +0530,
77,0,77,o,1.0988672000003135,None,77,0,77,0,270.9589130000004,,,,,,,,,,,,,,,,,,,,,,,,,,,,,,,,,,,,,,,,,,,,,,,,,,270.94254490000003,270.9589130000004,271.45893290000004,271.44234529999994,271.44425169999977,271.45893290000004,271.45893290000004,271.45893290000004,272.55931280000004,Objects\241a.jpg,post,o,1.0988672000003135,None,,,,,,,,00028,001,2025-11-14_19h28.58.680,MST_test,2024.2.2,60.002184079541365,2025-11-14 19h29.04.641673 +0530,
78,0,78,o,1.0565123999995194,None,78,0,78,0,272.5755482000004,,,,,,,,,,,,,,,,,,,,,,,,,,,,,,,,,,,,,,,,,,,,,,,,,,272.55939170000056,272.5755482000004,273.09219960000064,273.0590164000005,273.0743259000001,273.09219960000064,273.09219960000064,273.09219960000064,274.1591388000006,Objects\343b.jpg,pre,o,1.0565123999995194,None,,,,,,,,00028,001,2025-11-14_19h28.58.680,MST_test,2024.2.2,60.002184079541365,2025-11-14 19h29.04.641673 +0530,
79,0,79,n,1.077838399999564,None,79,0,79,0,274.17547470000045,,,,,,,,,,,,,,,,,,,,,,,,,,,,,,,,,,,,,,,,,,,,,,,,,,274.1592089000005,274.17547470000045,274.6921628,274.65899030000037,274.6786038,274.6921628,274.6921628,274.6921628,275.7757480999999,Foils\f7.jpg,none,n,1.077838399999564,None,,,,,,,,00028,001,2025-11-14_19h28.58.680,MST_test,2024.2.2,60.002184079541365,2025-11-14 19h29.04.641673 +0530,
80,0,80,o,1.3322612000001754,None,80,0,80,0,275.79214649999994,,,,,,,,,,,,,,,,,,,,,,,,,,,,,,,,,,,,,,,,,,,,,,,,,,275.77582170000005,275.79214649999994,276.2921333000004,276.2756448,276.2806549000006,276.2921333000004,276.2921333000004,276.2921333000004,277.6257239000006,Objects\036a.jpg,pre,o,1.3322612000001754,None,,,,,,,,00028,001,2025-11-14_19h28.58.680,MST_test,2024.2.2,60.002184079541365,2025-11-14 19h29.04.641673 +0530,
81,0,81,n,0.7939820000001419,None,81,0,81,0,277.64210249999996,,,,,,,,,,,,,,,,,,,,,,,,,,,,,,,,,,,,,,,,,,,,,,,,,,277.6258101000003,277.64210249999996,278.1754080999999,278.1255927000002,278.15706670000054,278.1754080999999,278.1754080999999,278.1754080999999,278.97572780000064,Objects\183b.jpg,mid,n,0.7939820000001419,None,,,,,,,,00028,001,2025-11-14_19h28.58.680,MST_test,2024.2.2,60.002184079541365,2025-11-14 19h29.04.641673 +0530,
82,0,82,o,1.141825400000016,None,82,0,82,0,278.99206330000015,,,,,,,,,,,,,,,,,,,,,,,,,,,,,,,,,,,,,,,,,,,,,,,,,,278.97581249999985,278.99206330000015,279.4920753000006,279.4756631,279.47769940000035,279.4920753000006,279.4920753000006,279.4920753000006,280.6423501999998,Objects\216a.jpg,pre,o,1.141825400000016,None,,,,,,,,00028,001,2025-11-14_19h28.58.680,MST_test,2024.2.2,60.002184079541365,2025-11-14 19h29.04.641673 +0530,
83,0,83,n,0.961750800000118,None,83,0,83,0,280.6586653000004,,,,,,,,,,,,,,,,,,,,,,,,,,,,,,,,,,,,,,,,,,,,,,,,,,280.64242470000045,280.6586653000004,281.1586790000001,281.1421721000006,281.1494819999998,281.1586790000001,281.1586790000001,281.1586790000001,282.1256021999998,Foils\065a.jpg,none,n,0.961750800000118,None,,,,,,,,00028,001,2025-11-14_19h28.58.680,MST_test,2024.2.2,60.002184079541365,2025-11-14 19h29.04.641673 +0530,
84,0,84,s,1.4156312000004618,None,84,0,84,0,282.1420071000002,,,,,,,,,,,,,,,,,,,,,,,,,,,,,,,,,,,,,,,,,,,,,,,,,,282.1256758999998,282.1420071000002,282.64195720000043,282.62548609999976,282.62943670000004,282.64195720000043,282.64195720000043,282.64195720000043,284.0590103000004,Objects\251a.jpg,mid,s,1.4156312000004618,None,,,,,,,,00028,001,2025-11-14_19h28.58.680,MST_test,2024.2.2,60.002184079541365,2025-11-14 19h29.04.641673 +0530,
85,0,85,s,1.3489595000000918,None,85,0,85,0,284.07530829999996,,,,,,,,,,,,,,,,,,,,,,,,,,,,,,,,,,,,,,,,,,,,,,,,,,284.0590959000001,284.07530829999996,284.5753144999999,284.55873919999976,284.563572,284.5753144999999,284.5753144999999,284.5753144999999,285.92555150000044,Objects\266a.jpg,post,s,1.3489595000000918,None,,,,,,,,00028,001,2025-11-14_19h28.58.680,MST_test,2024.2.2,60.002184079541365,2025-11-14 19h29.04.641673 +0530,
86,0,86,o,1.2959664999998495,None,86,0,86,0,285.9419267000003,,,,,,,,,,,,,,,,,,,,,,,,,,,,,,,,,,,,,,,,,,,,,,,,,,285.9256352000002,285.9419267000003,286.4418912000001,286.4253825000005,286.43020010000055,286.4418912000001,286.4418912000001,286.4418912000001,287.7421672999999,Objects\100a.jpg,pre,o,1.2959664999998495,None,,,,,,,,00028,001,2025-11-14_19h28.58.680,MST_test,2024.2.2,60.002184079541365,2025-11-14 19h29.04.641673 +0530,
87,0,87,n,0.9752403000002232,None,87,0,87,0,287.75869560000046,,,,,,,,,,,,,,,,,,,,,,,,,,,,,,,,,,,,,,,,,,,,,,,,,,287.7422395000003,287.75869560000046,288.25852120000036,288.2421561000001,288.24977300000046,288.25852120000036,288.25852120000036,288.25852120000036,289.2422765000001,Foils\090a.jpg,none,n,0.9752403000002232,None,,,,,,,,00028,001,2025-11-14_19h28.58.680,MST_test,2024.2.2,60.002184079541365,2025-11-14 19h29.04.641673 +0530,
88,0,88,s,2.026987100000042,None,88,0,88,0,289.2585194000003,,,,,,,,,,,,,,,,,,,,,,,,,,,,,,,,,,,,,,,,,,,,,,,,,,289.2423598000005,289.2585194000003,289.77516950000063,289.74204220000047,289.7620144000002,289.77516950000063,289.77516950000063,289.77516950000063,291.80889710000065,Objects\158b.jpg,pre,s,2.026987100000042,None,,,,,,,,00028,001,2025-11-14_19h28.58.680,MST_test,2024.2.2,60.002184079541365,2025-11-14 19h29.04.641673 +0530,
89,0,89,o,1.16045639999993,None,89,0,89,0,291.82512529999985,,,,,,,,,,,,,,,,,,,,,,,,,,,,,,,,,,,,,,,,,,,,,,,,,,291.8089847000001,291.82512529999985,292.3250797999999,292.30859060000057,292.31068779999987,292.3250797999999,292.3250797999999,292.3250797999999,293.4920766000005,Objects\135a.jpg,mid,o,1.16045639999993,None,,,,,,,,00028,001,2025-11-14_19h28.58.680,MST_test,2024.2.2,60.002184079541365,2025-11-14 19h29.04.641673 +0530,
90,0,90,n,1.181086200000209,None,90,0,90,0,293.5084209000006,,,,,,,,,,,,,,,,,,,,,,,,,,,,,,,,,,,,,,,,,,,,,,,,,,293.4921492000003,293.5084209000006,294.00845780000054,293.9919783000005,293.9994106000004,294.00845780000054,294.00845780000054,294.00845780000054,295.1920961000005,Foils\018a.jpg,none,n,1.181086200000209,None,,,,,,,,00028,001,2025-11-14_19h28.58.680,MST_test,2024.2.2,60.002184079541365,2025-11-14 19h29.04.641673 +0530,
91,0,91,n,1.0154838999997082,None,91,0,91,0,295.20839479999995,,,,,,,,,,,,,,,,,,,,,,,,,,,,,,,,,,,,,,,,,,,,,,,,,,295.1921825999998,295.20839479999995,295.7250117000003,295.6918777000001,295.7091860999999,295.7250117000003,295.7250117000003,295.7250117000003,296.7420062000001,Foils\093b.jpg,none,n,1.0154838999997082,None,,,,,,,,00028,001,2025-11-14_19h28.58.680,MST_test,2024.2.2,60.002184079541365,2025-11-14 19h29.04.641673 +0530,
92,0,92,s,1.3565924000004088,None,92,0,92,0,296.75835370000004,,,,,,,,,,,,,,,,,,,,,,,,,,,,,,,,,,,,,,,,,,,,,,,,,,296.74209169999995,296.75835370000004,297.2749738000002,297.24181769999996,297.26432300000033,297.2749738000002,297.2749738000002,297.2749738000002,298.64189970000007,Objects\297b.jpg,mid,s,1.3565924000004088,None,,,,,,,,00028,001,2025-11-14_19h28.58.680,MST_test,2024.2.2,60.002184079541365,2025-11-14 19h29.04.641673 +0530,
93,0,93,o,2.0877862000006644,None,93,0,93,0,298.6583150000006,,,,,,,,,,,,,,,,,,,,,,,,,,,,,,,,,,,,,,,,,,,,,,,,,,298.64198529999976,298.6583150000006,299.1582911000005,299.14190020000024,299.14737479999985,299.1582911000005,299.1582911000005,299.1582911000005,301.2586332000001,Objects\282a.jpg,pre,o,2.0877862000006644,None,,,,,,,,00028,001,2025-11-14_19h28.58.680,MST_test,2024.2.2,60.002184079541365,2025-11-14 19h29.04.641673 +0530,
94,0,94,o,0.8947392000000036,None,94,0,94,0,301.2749283000003,,,,,,,,,,,,,,,,,,,,,,,,,,,,,,,,,,,,,,,,,,,,,,,,,,301.2587076,301.2749283000003,301.7748760000004,301.7584065000001,301.7630360000003,301.7748760000004,301.7748760000004,301.7748760000004,302.675158,Objects\352a.jpg,pre,o,0.8947392000000036,None,,,,,,,,00028,001,2025-11-14_19h28.58.680,MST_test,2024.2.2,60.002184079541365,2025-11-14 19h29.04.641673 +0530,
95,0,95,o,0.8164371000002575,None,95,0,95,0,302.6915233,,,,,,,,,,,,,,,,,,,,,,,,,,,,,,,,,,,,,,,,,,,,,,,,,,302.67523729999994,302.6915233,303.19150850000005,303.17503660000057,303.1800411000004,303.19150850000005,303.19150850000005,303.19150850000005,304.0085522999998,Objects\049a.jpg,post,o,0.8164371000002575,None,,,,,,,,00028,001,2025-11-14_19h28.58.680,MST_test,2024.2.2,60.002184079541365,2025-11-14 19h29.04.641673 +0530,
96,0,96,s,1.7776673999997001,None,96,0,96,0,304.0248646,,,,,,,,,,,,,,,,,,,,,,,,,,,,,,,,,,,,,,,,,,,,,,,,,,304.0086258000001,304.0248646,304.55824699999994,304.5083445,304.55183430000034,304.55824699999994,304.55824699999994,304.55824699999994,306.3417392000001,Objects\203b.jpg,pre,s,1.7776673999997001,None,,,,,,,,00028,001,2025-11-14_19h28.58.680,MST_test,2024.2.2,60.002184079541365,2025-11-14 19h29.04.641673 +0530,
97,0,97,s,1.696870200000376,None,97,0,97,0,306.35817940000015,,,,,,,,,,,,,,,,,,,,,,,,,,,,,,,,,,,,,,,,,,,,,,,,,,306.3418214000003,306.35817940000015,306.8747714000001,306.84161459999996,306.8599129000004,306.8747714000001,306.8747714000001,306.8747714000001,308.57513389999986,Objects\184b.jpg,mid,s,1.696870200000376,None,,,,,,,,00028,001,2025-11-14_19h28.58.680,MST_test,2024.2.2,60.002184079541365,2025-11-14 19h29.04.641673 +0530,
98,0,98,s,1.6005236000000878,None,98,0,98,0,308.5914302000001,,,,,,,,,,,,,,,,,,,,,,,,,,,,,,,,,,,,,,,,,,,,,,,,,,308.57521610000003,308.5914302000001,309.10805170000003,309.0749209000005,309.09863870000027,309.10805170000003,309.10805170000003,309.10805170000003,310.7250889000006,Objects\118b.jpg,mid,s,1.6005236000000878,None,,,,,,,,00028,001,2025-11-14_19h28.58.680,MST_test,2024.2.2,60.002184079541365,2025-11-14 19h29.04.641673 +0530,
99,0,99,s,1.1055360999998811,None,99,0,99,0,310.7413796999999,,,,,,,,,,,,,,,,,,,,,,,,,,,,,,,,,,,,,,,,,,,,,,,,,,310.72516429999996,310.7413796999999,311.25811280000016,311.22486370000024,311.25017800000023,311.25811280000016,311.25811280000016,311.25811280000016,312.37502680000034,Objects\280b.jpg,pre,s,1.1055360999998811,None,,,,,,,,00028,001,2025-11-14_19h28.58.680,MST_test,2024.2.2,60.002184079541365,2025-11-14 19h29.04.641673 +0530,
100,0,100,o,0.9984887000000526,None,100,0,100,0,312.3913747000006,,,,,,,,,,,,,,,,,,,,,,,,,,,,,,,,,,,,,,,,,,,,,,,,,,312.3751038999999,312.3913747000006,312.89130620000014,312.8749429999998,312.880322,312.89130620000014,312.89130620000014,312.89130620000014,313.8916072000002,Objects\355a.jpg,pre,o,0.9984887000000526,None,,,,,,,,00028,001,2025-11-14_19h28.58.680,MST_test,2024.2.2,60.002184079541365,2025-11-14 19h29.04.641673 +0530,
101,0,101,s,1.2505873000000065,None,101,0,101,0,313.9079509000003,,,,,,,,,,,,,,,,,,,,,,,,,,,,,,,,,,,,,,,,,,,,,,,,,,313.8916807000005,313.9079509000003,314.4078307,314.3914648,314.40275250000013,314.4078307,314.4078307,314.4078307,315.6748148000006,Objects\145b.jpg,pre,s,1.2505873000000065,None,,,,,,,,00028,001,2025-11-14_19h28.58.680,MST_test,2024.2.2,60.002184079541365,2025-11-14 19h29.04.641673 +0530,
102,0,102,n,1.134409099999175,None,102,0,102,0,315.69127220000064,,,,,,,,,,,,,,,,,,,,,,,,,,,,,,,,,,,,,,,,,,,,,,,,,,315.6748926999999,315.69127220000064,316.19122849999985,316.1749012999999,316.1821608,316.19122849999985,316.19122849999985,316.19122849999985,317.3414942999998,Foils\034a.jpg,none,n,1.134409099999175,None,,,,,,,,00028,001,2025-11-14_19h28.58.680,MST_test,2024.2.2,60.002184079541365,2025-11-14 19h29.04.641673 +0530,
103,0,103,o,1.2476462000004176,None,103,0,103,0,317.35791830000016,,,,,,,,,,,,,,,,,,,,,,,,,,,,,,,,,,,,,,,,,,,,,,,,,,317.34157529999993,317.35791830000016,317.8578666000003,317.84151660000043,317.84346580000056,317.8578666000003,317.8578666000003,317.8578666000003,319.1081315000001,Objects\119a.jpg,post,o,1.2476462000004176,None,,,,,,,,00028,001,2025-11-14_19h28.58.680,MST_test,2024.2.2,60.002184079541365,2025-11-14 19h29.04.641673 +0530,
104,0,104,s,1.1788701999994373,None,104,0,104,0,319.1245073,,,,,,,,,,,,,,,,,,,,,,,,,,,,,,,,,,,,,,,,,,,,,,,,,,319.10820800000056,319.1245073,319.6411616000005,319.6080728000006,319.6336153000002,319.6411616000005,319.6411616000005,319.6411616000005,320.8249175000001,Objects\327b.jpg,pre,s,1.1788701999994373,None,,,,,,,,00028,001,2025-11-14_19h28.58.680,MST_test,2024.2.2,60.002184079541365,2025-11-14 19h29.04.641673 +0530,
105,0,105,o,0.9938341999995828,None,105,0,105,0,320.8411706000006,,,,,,,,,,,,,,,,,,,,,,,,,,,,,,,,,,,,,,,,,,,,,,,,,,320.82500080000045,320.8411706000006,321.35790970000016,321.3246280000003,321.3496948000002,321.35790970000016,321.35790970000016,321.35790970000016,322.3582028999999,Objects\064b.jpg,pre,o,0.9938341999995828,None,,,,,,,,00028,001,2025-11-14_19h28.58.680,MST_test,2024.2.2,60.002184079541365,2025-11-14 19h29.04.641673 +0530,
106,0,106,s,1.3251626000001124,None,106,0,106,0,322.37447520000023,,,,,,,,,,,,,,,,,,,,,,,,,,,,,,,,,,,,,,,,,,,,,,,,,,322.35827750000044,322.37447520000023,322.87446940000063,322.85806010000033,322.86242370000036,322.87446940000063,322.87446940000063,322.87446940000063,324.2081624000002,Objects\264a.jpg,mid,s,1.3251626000001124,None,,,,,,,,00028,001,2025-11-14_19h28.58.680,MST_test,2024.2.2,60.002184079541365,2025-11-14 19h29.04.641673 +0530,
107,0,107,s,1.537299300000086,None,107,0,107,0,324.2243976,,,,,,,,,,,,,,,,,,,,,,,,,,,,,,,,,,,,,,,,,,,,,,,,,,324.20823350000046,324.2243976,324.74108200000046,324.7079982000005,324.7293546000001,324.74108200000046,324.74108200000046,324.74108200000046,326.29139750000013,Objects\050b.jpg,post,s,1.537299300000086,None,,,,,,,,00028,001,2025-11-14_19h28.58.680,MST_test,2024.2.2,60.002184079541365,2025-11-14 19h29.04.641673 +0530,
108,0,108,o,1.1622201000000132,None,108,0,108,0,326.3077103000005,,,,,,,,,,,,,,,,,,,,,,,,,,,,,,,,,,,,,,,,,,,,,,,,,,326.2914754000003,326.3077103000005,326.8076682000001,326.7912086000006,326.7936681000001,326.8076682000001,326.8076682000001,326.8076682000001,327.97470710000016,Objects\147a.jpg,post,o,1.1622201000000132,None,,,,,,,,00028,001,2025-11-14_19h28.58.680,MST_test,2024.2.2,60.002184079541365,2025-11-14 19h29.04.641673 +0530,
109,0,109,n,2.6192332000000533,None,109,0,109,0,327.99101299999984,,,,,,,,,,,,,,,,,,,,,,,,,,,,,,,,,,,,,,,,,,,,,,,,,,327.97478860000047,327.99101299999984,328.49096590000045,328.47460219999994,328.4819223000004,328.49096590000045,328.49096590000045,328.49096590000045,331.1247097000005,Foils\042a.jpg,none,n,2.6192332000000533,None,,,,,,,,00028,001,2025-11-14_19h28.58.680,MST_test,2024.2.2,60.002184079541365,2025-11-14 19h29.04.641673 +0530,
110,0,110,n,1.0060067000003983,None,110,0,110,0,331.1409115000006,,,,,,,,,,,,,,,,,,,,,,,,,,,,,,,,,,,,,,,,,,,,,,,,,,331.12479470000017,331.1409115000006,331.6576629000001,331.6245678000005,331.64093159999993,331.6576629000001,331.6576629000001,331.6576629000001,332.67462870000054,Objects\302b.jpg,mid,n,1.0060067000003983,None,,,,,,,,00028,001,2025-11-14_19h28.58.680,MST_test,2024.2.2,60.002184079541365,2025-11-14 19h29.04.641673 +0530,
111,0,111,n,1.4889617000008002,None,111,0,111,0,332.6909126999999,,,,,,,,,,,,,,,,,,,,,,,,,,,,,,,,,,,,,,,,,,,,,,,,,,332.6747161000003,332.6909126999999,333.1908841000004,333.1744908999999,333.18200799999977,333.1908841000004,333.1908841000004,333.1908841000004,334.6912417000003,Foils\050a.jpg,none,n,1.4889617000008002,None,,,,,,,,00028,001,2025-11-14_19h28.58.680,MST_test,2024.2.2,60.002184079541365,2025-11-14 19h29.04.641673 +0530,
112,0,112,o,1.0526286000003893,None,112,0,112,0,334.7075353,,,,,,,,,,,,,,,,,,,,,,,,,,,,,,,,,,,,,,,,,,,,,,,,,,334.69132030000037,334.7075353,335.2074874,335.1911138000005,335.1930917999998,335.2074874,335.2074874,335.2074874,336.2744604999998,Objects\197a.jpg,pre,o,1.0526286000003893,None,,,,,,,,00028,001,2025-11-14_19h28.58.680,MST_test,2024.2.2,60.002184079541365,2025-11-14 19h29.04.641673 +0530,
113,0,113,s,1.6144156999998813,None,113,0,113,0,336.29085420000047,,,,,,,,,,,,,,,,,,,,,,,,,,,,,,,,,,,,,,,,,,,,,,,,,,336.2745304,336.29085420000047,336.8074962999999,336.7743366000004,336.7873126000004,336.8074962999999,336.8074962999999,336.8074962999999,338.4244972000006,Objects\045b.jpg,mid,s,1.6144156999998813,None,,,,,,,,00028,001,2025-11-14_19h28.58.680,MST_test,2024.2.2,60.002184079541365,2025-11-14 19h29.04.641673 +0530,
114,0,114,o,1.584375600000385,None,114,0,114,0,338.44075450000037,,,,,,,,,,,,,,,,,,,,,,,,,,,,,,,,,,,,,,,,,,,,,,,,,,338.42457300000024,338.44075450000037,338.94077520000064,338.9242425000002,338.9289585000006,338.94077520000064,338.94077520000064,338.94077520000064,340.5412053,Objects\316a.jpg,mid,o,1.584375600000385,None,,,,,,,,00028,001,2025-11-14_19h28.58.680,MST_test,2024.2.2,60.002184079541365,2025-11-14 19h29.04.641673 +0530,
115,0,115,o,1.1657978000002913,None,115,0,115,0,340.5573880000002,,,,,,,,,,,,,,,,,,,,,,,,,,,,,,,,,,,,,,,,,,,,,,,,,,340.5412888999999,340.5573880000002,341.05736630000047,341.0408937000002,341.04589769999984,341.05736630000047,341.05736630000047,341.05736630000047,342.2244221000001,Objects\383a.jpg,post,o,1.1657978000002913,None,,,,,,,,00028,001,2025-11-14_19h28.58.680,MST_test,2024.2.2,60.002184079541365,2025-11-14 19h29.04.641673 +0530,
116,0,116,s,1.2113883000001806,None,116,0,116,0,342.24070389999997,,,,,,,,,,,,,,,,,,,,,,,,,,,,,,,,,,,,,,,,,,,,,,,,,,342.2244924000006,342.24070389999997,342.74065210000026,342.72422950000055,342.73516329999984,342.74065210000026,342.74065210000026,342.74065210000026,343.9576941000005,Objects\106b.jpg,pre,s,1.2113883000001806,None,,,,,,,,00028,001,2025-11-14_19h28.58.680,MST_test,2024.2.2,60.002184079541365,2025-11-14 19h29.04.641673 +0530,
117,0,117,s,1.528968900000109,None,117,0,117,0,343.9740012000002,,,,,,,,,,,,,,,,,,,,,,,,,,,,,,,,,,,,,,,,,,,,,,,,,,343.95776939999996,343.9740012000002,344.4906651000001,344.45744430000013,344.476087,344.4906651000001,344.4906651000001,344.4906651000001,346.02433519999977,Objects\037b.jpg,post,s,1.528968900000109,None,,,,,,,,00028,001,2025-11-14_19h28.58.680,MST_test,2024.2.2,60.002184079541365,2025-11-14 19h29.04.641673 +0530,
118,0,118,s,1.6820794999994177,None,118,0,118,0,346.04062690000046,,,,,,,,,,,,,,,,,,,,,,,,,,,,,,,,,,,,,,,,,,,,,,,,,,346.02442229999997,346.04062690000046,346.57390829999986,346.52423629999976,346.55821130000004,346.57390829999986,346.57390829999986,346.57390829999986,348.25776490000044,Objects\366b.jpg,mid,s,1.6820794999994177,None,,,,,,,,00028,001,2025-11-14_19h28.58.680,MST_test,2024.2.2,60.002184079541365,2025-11-14 19h29.04.641673 +0530,
119,0,119,n,0.9526979000002029,None,119,0,119,0,348.27390110000033,,,,,,,,,,,,,,,,,,,,,,,,,,,,,,,,,,,,,,,,,,,,,,,,,,348.2578516000003,348.27390110000033,348.7738943000004,348.7574908000006,348.7682372999998,348.7738943000004,348.7738943000004,348.7738943000004,349.74091169999974,Foils\074a.jpg,none,n,0.9526979000002029,None,,,,,,,,00028,001,2025-11-14_19h28.58.680,MST_test,2024.2.2,60.002184079541365,2025-11-14 19h29.04.641673 +0530,
120,0,120,o,1.2051580999996077,None,120,0,120,0,349.75717150000037,,,,,,,,,,,,,,,,,,,,,,,,,,,,,,,,,,,,,,,,,,,,,,,,,,349.74098800000047,349.75717150000037,350.25716060000013,350.2406498,350.2460423000002,350.25716060000013,350.25716060000013,350.25716060000013,351.47405160000017,Objects\207a.jpg,mid,o,1.2051580999996077,None,,,,,,,,00028,001,2025-11-14_19h28.58.680,MST_test,2024.2.2,60.002184079541365,2025-11-14 19h29.04.641673 +0530,
121,0,121,n,1.7271301000000676,None,121,0,121,0,351.4905011000001,,,,,,,,,,,,,,,,,,,,,,,,,,,,,,,,,,,,,,,,,,,,,,,,,,351.4741359999998,351.4905011000001,352.00712770000064,351.9740877000004,351.99466530000063,352.00712770000064,352.00712770000064,352.00712770000064,353.7406824999998,Objects\159b.jpg,pre,n,1.7271301000000676,None,,,,,,,,00028,001,2025-11-14_19h28.58.680,MST_test,2024.2.2,60.002184079541365,2025-11-14 19h29.04.641673 +0530,
122,0,122,s,1.0572513999995863,None,122,0,122,0,353.7571472999998,,,,,,,,,,,,,,,,,,,,,,,,,,,,,,,,,,,,,,,,,,,,,,,,,,353.74075660000017,353.7571472999998,354.2570835000006,354.2406787,354.2429910000001,354.2570835000006,354.2570835000006,354.2570835000006,355.3239923000001,Objects\215a.jpg,pre,s,1.0572513999995863,None,,,,,,,,00028,001,2025-11-14_19h28.58.680,MST_test,2024.2.2,60.002184079541365,2025-11-14 19h29.04.641673 +0530,
123,0,123,n,1.667799400000149,None,123,0,123,0,355.34042039999986,,,,,,,,,,,,,,,,,,,,,,,,,,,,,,,,,,,,,,,,,,,,,,,,,,355.32407090000015,355.34042039999986,355.8403754000001,355.8238796000005,355.8259632999998,355.8403754000001,355.8403754000001,355.8403754000001,357.5240941000002,Objects\129a.jpg,post,n,1.667799400000149,None,,,,,,,,00028,001,2025-11-14_19h28.58.680,MST_test,2024.2.2,60.002184079541365,2025-11-14 19h29.04.641673 +0530,
124,0,124,n,1.1942998999993506,None,124,0,124,0,357.54042350000054,,,,,,,,,,,,,,,,,,,,,,,,,,,,,,,,,,,,,,,,,,,,,,,,,,357.52418039999975,357.54042350000054,358.0403262,358.02383050000026,358.0315341000005,358.0403262,358.0403262,358.0403262,359.2405580000004,Foils\098a.jpg,none,n,1.1942998999993506,None,,,,,,,,00028,001,2025-11-14_19h28.58.680,MST_test,2024.2.2,60.002184079541365,2025-11-14 19h29.04.641673 +0530,
125,0,125,s,1.0000880999996298,None,125,0,125,0,359.25700830000005,,,,,,,,,,,,,,,,,,,,,,,,,,,,,,,,,,,,,,,,,,,,,,,,,,359.24063990000013,359.25700830000005,359.7736524000002,359.7404569999999,359.7614365999998,359.7736524000002,359.7736524000002,359.7736524000002,360.7740475999999,Objects\217b.jpg,mid,s,1.0000880999996298,None,,,,,,,,00028,001,2025-11-14_19h28.58.680,MST_test,2024.2.2,60.002184079541365,2025-11-14 19h29.04.641673 +0530,
126,0,126,n,1.963625299999876,None,126,0,126,0,360.7902866000004,,,,,,,,,,,,,,,,,,,,,,,,,,,,,,,,,,,,,,,,,,,,,,,,,,360.77411800000027,360.7902866000004,361.29025270000056,361.27378130000034,361.27806190000047,361.29025270000056,361.29025270000056,361.29025270000056,363.25735910000003,Objects\287a.jpg,post,n,1.963625299999876,None,,,,,,,,00028,001,2025-11-14_19h28.58.680,MST_test,2024.2.2,60.002184079541365,2025-11-14 19h29.04.641673 +0530,
127,0,127,o,1.2645619000004444,None,127,0,127,0,363.27358879999974,,,,,,,,,,,,,,,,,,,,,,,,,,,,,,,,,,,,,,,,,,,,,,,,,,363.2574427999998,363.27358879999974,363.7735362000003,363.7570703000001,363.7620316000002,363.7735362000003,363.7735362000003,363.7735362000003,365.0405117,Objects\101a.jpg,pre,o,1.2645619000004444,None,,,,,,,,00028,001,2025-11-14_19h28.58.680,MST_test,2024.2.2,60.002184079541365,2025-11-14 19h29.04.641673 +0530,
128,0,128,o,0.8667595000006258,None,128,0,128,0,365.0568970000004,,,,,,,,,,,,,,,,,,,,,,,,,,,,,,,,,,,,,,,,,,,,,,,,,,365.0405924000006,365.0568970000004,365.5568258000003,365.5404145000002,365.5447383999999,365.5568258000003,365.5568258000003,365.5568258000003,366.42393230000016,Objects\315a.jpg,mid,o,0.8667595000006258,None,,,,,,,,00028,001,2025-11-14_19h28.58.680,MST_test,2024.2.2,60.002184079541365,2025-11-14 19h29.04.641673 +0530,
129,0,129,n,1.5268018999995547,None,129,0,129,0,366.44018440000036,,,,,,,,,,,,,,,,,,,,,,,,,,,,,,,,,,,,,,,,,,,,,,,,,,366.42401150000023,366.44018440000036,366.9567993999999,366.92372720000003,366.94513460000053,366.9567993999999,366.9567993999999,366.9567993999999,368.4905118000006,Foils\f6.jpg,none,n,1.5268018999995547,None,,,,,,,,00028,001,2025-11-14_19h28.58.680,MST_test,2024.2.2,60.002184079541365,2025-11-14 19h29.04.641673 +0530,
130,0,130,o,1.1114088999993328,None,130,0,130,0,368.5067985000005,,,,,,,,,,,,,,,,,,,,,,,,,,,,,,,,,,,,,,,,,,,,,,,,,,368.4906025999999,368.5067985000005,369.0068017000003,368.9902957000004,368.99496629999976,369.0068017000003,369.0068017000003,369.0068017000003,370.12374069999987,Objects\209a.jpg,pre,o,1.1114088999993328,None,,,,,,,,00028,001,2025-11-14_19h28.58.680,MST_test,2024.2.2,60.002184079541365,2025-11-14 19h29.04.641673 +0530,
131,0,131,o,0.830095700000129,None,131,0,131,0,370.1401055000006,,,,,,,,,,,,,,,,,,,,,,,,,,,,,,,,,,,,,,,,,,,,,,,,,,370.1238174,370.1401055000006,370.6400573000001,370.6236548000006,370.62853820000055,370.6400573000001,370.6400573000001,370.6400573000001,371.47380539999995,Objects\198a.jpg,pre,o,0.830095700000129,None,,,,,,,,00028,001,2025-11-14_19h28.58.680,MST_test,2024.2.2,60.002184079541365,2025-11-14 19h29.04.641673 +0530,
132,0,132,o,0.8183361000001241,None,132,0,132,0,371.4900736999998,,,,,,,,,,,,,,,,,,,,,,,,,,,,,,,,,,,,,,,,,,,,,,,,,,371.4738758000003,371.4900736999998,371.9900660000003,371.97356469999977,371.9757083000004,371.9900660000003,371.9900660000003,371.9900660000003,372.8236745000004,Objects\178a.jpg,mid,o,0.8183361000001241,None,,,,,,,,00028,001,2025-11-14_19h28.58.680,MST_test,2024.2.2,60.002184079541365,2025-11-14 19h29.04.641673 +0530,
133,0,133,n,0.9814768000005643,None,133,0,133,0,372.84003930000017,,,,,,,,,,,,,,,,,,,,,,,,,,,,,,,,,,,,,,,,,,,,,,,,,,372.82374750000054,372.84003930000017,373.3401125999999,373.32348700000057,373.33184429999983,373.3401125999999,373.3401125999999,373.3401125999999,374.3237330000002,Foils\066a.jpg,none,n,0.9814768000005643,None,,,,,,,,00028,001,2025-11-14_19h28.58.680,MST_test,2024.2.2,60.002184079541365,2025-11-14 19h29.04.641673 +0530,
134,0,134,o,1.067982700000357,None,134,0,134,0,374.3400737000002,,,,,,,,,,,,,,,,,,,,,,,,,,,,,,,,,,,,,,,,,,,,,,,,,,374.323813,374.3400737000002,374.8399665000006,374.82359200000064,374.82779819999996,374.8399665000006,374.8399665000006,374.8399665000006,375.92356890000065,Objects\362a.jpg,pre,o,1.067982700000357,None,,,,,,,,00028,001,2025-11-14_19h28.58.680,MST_test,2024.2.2,60.002184079541365,2025-11-14 19h29.04.641673 +0530,
135,0,135,o,0.9255980000007185,None,135,0,135,0,375.93997730000046,,,,,,,,,,,,,,,,,,,,,,,,,,,,,,,,,,,,,,,,,,,,,,,,,,375.92364799999996,375.93997730000046,376.4399282000004,376.4234651000006,376.42765280000003,376.4399282000004,376.4399282000004,376.4399282000004,377.37369990000025,Objects\210a.jpg,pre,o,0.9255980000007185,None,,,,,,,,00028,001,2025-11-14_19h28.58.680,MST_test,2024.2.2,60.002184079541365,2025-11-14 19h29.04.641673 +0530,
136,0,136,s,1.4552471000006335,None,136,0,136,0,377.3899508000004,,,,,,,,,,,,,,,,,,,,,,,,,,,,,,,,,,,,,,,,,,,,,,,,,,377.37377620000007,377.3899508000004,377.90659870000036,377.87349489999997,377.8938566000006,377.90659870000036,377.90659870000036,377.90659870000036,379.37350830000014,Objects\039b.jpg,mid,s,1.4552471000006335,None,,,,,,,,00028,001,2025-11-14_19h28.58.680,MST_test,2024.2.2,60.002184079541365,2025-11-14 19h29.04.641673 +0530,
137,0,137,s,1.2898622000002433,None,137,0,137,0,379.3899061000002,,,,,,,,,,,,,,,,,,,,,,,,,,,,,,,,,,,,,,,,,,,,,,,,,,379.3735913999999,379.3899061000002,379.9065539000003,379.87340330000006,379.88904960000036,379.9065539000003,379.9065539000003,379.9065539000003,381.20680880000054,Objects\130b.jpg,post,s,1.2898622000002433,None,,,,,,,,00028,001,2025-11-14_19h28.58.680,MST_test,2024.2.2,60.002184079541365,2025-11-14 19h29.04.641673 +0530,
138,0,138,n,1.4801954000004116,None,138,0,138,0,381.2232012000004,,,,,,,,,,,,,,,,,,,,,,,,,,,,,,,,,,,,,,,,,,,,,,,,,,381.2068837000006,381.2232012000004,381.7398178000003,381.7067498000006,381.72552520000045,381.7398178000003,381.7398178000003,381.7398178000003,383.2234091,Objects\028b.jpg,post,n,1.4801954000004116,None,,,,,,,,00028,001,2025-11-14_19h28.58.680,MST_test,2024.2.2,60.002184079541365,2025-11-14 19h29.04.641673 +0530,
139,0,139,s,1.1805022000007739,None,139,0,139,0,383.2398460000004,,,,,,,,,,,,,,,,,,,,,,,,,,,,,,,,,,,,,,,,,,,,,,,,,,383.22348390000025,383.2398460000004,383.73939860000064,383.72334820000015,383.7332200000001,383.73939860000064,383.73939860000064,383.73939860000064,384.9233598999999,Objects\336b.jpg,pre,s,1.1805022000007739,None,,,,,,,,00028,001,2025-11-14_19h28.58.680,MST_test,2024.2.2,60.002184079541365,2025-11-14 19h29.04.641673 +0530,
140,0,140,s,0.8051457000001392,None,140,0,140,0,384.93979020000006,,,,,,,,,,,,,,,,,,,,,,,,,,,,,,,,,,,,,,,,,,,,,,,,,,384.9234413000004,384.93979020000006,385.45640530000037,385.4232173999999,385.44152920000033,385.45640530000037,385.45640530000037,385.45640530000037,386.2734870000004,Objects\018b.jpg,post,s,0.8051457000001392,None,,,,,,,,00028,001,2025-11-14_19h28.58.680,MST_test,2024.2.2,60.002184079541365,2025-11-14 19h29.04.641673 +0530,
141,0,141,s,0.7720947999996497,None,141,0,141,0,386.2897631000005,,,,,,,,,,,,,,,,,,,,,,,,,,,,,,,,,,,,,,,,,,,,,,,,,,386.2735610999998,386.2897631000005,386.80641040000046,386.7733122999998,386.7943776000002,386.80641040000046,386.80641040000046,386.80641040000046,387.58998789999987,Objects\088b.jpg,pre,s,0.7720947999996497,None,,,,,,,,00028,001,2025-11-14_19h28.58.680,MST_test,2024.2.2,60.002184079541365,2025-11-14 19h29.04.641673 +0530,
142,0,142,s,0.7367029999995793,None,142,0,142,0,387.606393,,,,,,,,,,,,,,,,,,,,,,,,,,,,,,,,,,,,,,,,,,,,,,,,,,387.5900579999998,387.606393,388.1230446999998,388.0899969000002,388.11191359999975,388.1230446999998,388.1230446999998,388.1230446999998,388.8732871000002,Objects\218b.jpg,mid,s,0.7367029999995793,None,,,,,,,,00028,001,2025-11-14_19h28.58.680,MST_test,2024.2.2,60.002184079541365,2025-11-14 19h29.04.641673 +0530,
143,0,143,o,1.249872299999879,None,143,0,143,0,388.8897028000001,,,,,,,,,,,,,,,,,,,,,,,,,,,,,,,,,,,,,,,,,,,,,,,,,,388.87336740000046,388.8897028000001,389.3896537999999,389.37330010000005,389.3777349000002,389.3896537999999,389.3896537999999,389.3896537999999,390.64000209999995,Objects\296a.jpg,mid,o,1.249872299999879,None,,,,,,,,00028,001,2025-11-14_19h28.58.680,MST_test,2024.2.2,60.002184079541365,2025-11-14 19h29.04.641673 +0530,
144,0,144,s,0.9599367000000711,None,144,0,144,0,390.6563280999999,,,,,,,,,,,,,,,,,,,,,,,,,,,,,,,,,,,,,,,,,,,,,,,,,,390.6400835000004,390.6563280999999,391.18970660000014,391.13982380000016,391.1755030000004,391.18970660000014,391.18970660000014,391.18970660000014,392.15672470000027,Objects\237b.jpg,pre,s,0.9599367000000711,None,,,,,,,,00028,001,2025-11-14_19h28.58.680,MST_test,2024.2.2,60.002184079541365,2025-11-14 19h29.04.641673 +0530,
145,0,145,o,1.759462199999689,None,145,0,145,0,392.1729862000002,,,,,,,,,,,,,,,,,,,,,,,,,,,,,,,,,,,,,,,,,,,,,,,,,,392.1568213999999,392.1729862000002,392.6729154000004,392.6564293000001,392.65866540000025,392.6729154000004,392.6729154000004,392.6729154000004,394.43979000000036,Objects\311a.jpg,mid,o,1.759462199999689,None,,,,,,,,00028,001,2025-11-14_19h28.58.680,MST_test,2024.2.2,60.002184079541365,2025-11-14 19h29.04.641673 +0530,
146,0,146,n,2.6382722999996986,None,146,0,146,0,394.4562562000001,,,,,,,,,,,,,,,,,,,,,,,,,,,,,,,,,,,,,,,,,,,,,,,,,,394.4398688000001,394.4562562000001,394.95621649999975,394.93969130000005,394.94723630000044,394.95621649999975,394.95621649999975,394.95621649999975,397.60641600000054,Foils\020b.jpg,none,n,2.6382722999996986,None,,,,,,,,00028,001,2025-11-14_19h28.58.680,MST_test,2024.2.2,60.002184079541365,2025-11-14 19h29.04.641673 +0530,
147,0,147,s,1.7689992999994502,None,147,0,147,0,397.6228482000006,,,,,,,,,,,,,,,,,,,,,,,,,,,,,,,,,,,,,,,,,,,,,,,,,,397.6064989000006,397.6228482000006,398.13945839999997,398.1064698,398.12879690000045,398.13945839999997,398.13945839999997,398.13945839999997,399.9231737,Objects\001b.jpg,pre,s,1.7689992999994502,None,,,,,,,,00028,001,2025-11-14_19h28.58.680,MST_test,2024.2.2,60.002184079541365,2025-11-14 19h29.04.641673 +0530,
148,0,148,o,1.1384667000002082,None,148,0,148,0,399.93949220000013,,,,,,,,,,,,,,,,,,,,,,,,,,,,,,,,,,,,,,,,,,,,,,,,,,399.9232585999998,399.93949220000013,400.4394069,400.42301020000014,400.42499880000014,400.4394069,400.4394069,400.4394069,401.5896431000001,Objects\078a.jpg,pre,o,1.1384667000002082,None,,,,,,,,00028,001,2025-11-14_19h28.58.680,MST_test,2024.2.2,60.002184079541365,2025-11-14 19h29.04.641673 +0530,
149,0,149,n,0.9483209999998508,None,149,0,149,0,401.6060838000003,,,,,,,,,,,,,,,,,,,,,,,,,,,,,,,,,,,,,,,,,,,,,,,,,,401.58971660000043,401.6060838000003,402.1060395000004,402.08955270000024,402.09721770000033,402.1060395000004,402.1060395000004,402.1060395000004,403.05634980000013,Foils\081a.jpg,none,n,0.9483209999998508,None,,,,,,,,00028,001,2025-11-14_19h28.58.680,MST_test,2024.2.2,60.002184079541365,2025-11-14 19h29.04.641673 +0530,
,,,,,,,,,,,,,,,,,,,,,,,,,,,,,,,,,,,,,,,,,,,,,,,,,,,,,,,,,,,,,,,,,,,,,,,,,,403.05640610000046,403.07272509999984,403.07272509999984,433.5724823999999,space,30.48525410000002,None,00028,001,2025-11-14_19h28.58.680,MST_test,2024.2.2,60.002184079541365,2025-11-14 19h29.04.641673 +0530,
