thisN,thisTrialN,thisRepN,key_resp_3.keys,key_resp_3.rt,key_resp_3.duration,trials.thisRepN,trials.thisTrialN,trials.thisN,trials.thisIndex,thisRow.t,notes,intro_page.started,text.started,key_resp.started,intro_page.stopped,key_resp.keys,key_resp.rt,key_resp.duration,instructions.started,text_2.started,key_resp_2.started,instructions.stopped,key_resp_2.keys,key_resp_2.rt,key_resp_2.duration,demo1.started,image_1.started,image_2.started,text_7.started,key_resp_6.started,text_9.started,demo1.stopped,key_resp_6.keys,key_resp_6.rt,key_resp_6.duration,demo3.started,image_5.started,image_6.started,text_11.started,text_12.started,key_resp_8.started,demo3.stopped,key_resp_8.keys,key_resp_8.rt,key_resp_8.duration,demo_conclusion.started,text_13.started,key_resp_9.started,demo_conclusion.stopped,key_resp_9.keys,key_resp_9.rt,key_resp_9.duration,start_test.started,text_6.started,key_resp_5.started,start_test.stopped,key_resp_5.keys,key_resp_5.rt,key_resp_5.duration,ISI.started,text_4.started,text_4.stopped,ISI.stopped,routine_1.started,image.started,text_3.started,key_resp_3.started,routine_1.stopped,image_path,position_of_stimuli,trials.key_resp_3.keys,trials.key_resp_3.rt,trials.key_resp_3.duration,End_page.started,text_5.started,key_resp_4.started,End_page.stopped,key_resp_4.keys,key_resp_4.rt,key_resp_4.duration,participant,session,date,expName,psychopyVersion,frameRate,expStart,
,,,,,,,,,,,,0.009986200000184908,0.026349799999934476,0.026349799999934476,2.861079900000277,space,2.821169899999859,None,,,,,,,,,,,,,,,,,,,,,,,,,,,,,,,,,,,,,,,,,,,,,,,,,,,,,,,,,,,,,,,00026,001,2025-11-11_05h50.27.008,MST_test,2024.2.2,60.00621664400952,2025-11-11 05h50.33.273289 +0530,
,,,,,,,,,,,,,,,,,,,2.861109299999953,2.876278100000036,2.876278100000036,13.742972400000326,space,10.852939199999582,None,,,,,,,,,,,,,,,,,,,,,,,,,,,,,,,,,,,,,,,,,,,,,,,,,,,,,,,,00026,001,2025-11-11_05h50.27.008,MST_test,2024.2.2,60.00621664400952,2025-11-11 05h50.33.273289 +0530,
,,,,,,,,,,,,,,,,,,,,,,,,,,13.742996299999959,13.759356200000184,13.759356200000184,13.759356200000184,13.759356200000184,13.759356200000184,20.85942810000006,space,7.089723100000356,None,,,,,,,,,,,,,,,,,,,,,,,,,,,,,,,,,,,,,,,,,,,,,,00026,001,2025-11-11_05h50.27.008,MST_test,2024.2.2,60.00621664400952,2025-11-11 05h50.33.273289 +0530,
,,,,,,,,,,,,,,,,,,,,,,,,,,,,,,,,,,,,20.859454800000094,20.875859199999923,20.875859199999923,20.875859199999923,20.875859199999923,20.875859199999923,26.159302300000036,space,5.269309499999963,None,,,,,,,,,,,,,,,,,,,,,,,,,,,,,,,,,,,,00026,001,2025-11-11_05h50.27.008,MST_test,2024.2.2,60.00621664400952,2025-11-11 05h50.33.273289 +0530,
,,,,,,,,,,,,,,,,,,,,,,,,,,,,,,,,,,,,,,,,,,,,,,26.159328300000197,26.175722899999982,26.175722899999982,72.60828900000024,space,46.42714309999974,None,,,,,,,,,,,,,,,,,,,,,,,,,,,,,00026,001,2025-11-11_05h50.27.008,MST_test,2024.2.2,60.00621664400952,2025-11-11 05h50.33.273289 +0530,
,,,,,,,,,,,,,,,,,,,,,,,,,,,,,,,,,,,,,,,,,,,,,,,,,,,,,72.60832690000007,72.62463830000024,72.62463830000024,95.55773910000016,space,22.916521999999986,None,,,,,,,,,,,,,,,,,,,,,,00026,001,2025-11-11_05h50.27.008,MST_test,2024.2.2,60.00621664400952,2025-11-11 05h50.33.273289 +0530,
0,0,0,o,4.433293000000049,None,0,0,0,0,95.5741049000003,,,,,,,,,,,,,,,,,,,,,,,,,,,,,,,,,,,,,,,,,,,,,,,,,,95.56066469999996,95.5741049000003,96.07429360000015,96.05761480000001,96.06557920000023,96.07429360000015,96.07429360000015,96.07429360000015,100.52440070000011,Objects\059a.jpg,pre,o,4.433293000000049,None,,,,,,,,00026,001,2025-11-11_05h50.27.008,MST_test,2024.2.2,60.00621664400952,2025-11-11 05h50.33.273289 +0530,
1,0,1,o,1.4061553999999887,None,1,0,1,0,100.54072799999994,,,,,,,,,,,,,,,,,,,,,,,,,,,,,,,,,,,,,,,,,,,,,,,,,,100.52448499999991,100.54072799999994,101.0407051000002,101.0241833,101.03115230000003,101.0407051000002,101.0407051000002,101.0407051000002,102.45768940000016,Objects\259a.jpg,mid,o,1.4061553999999887,None,,,,,,,,00026,001,2025-11-11_05h50.27.008,MST_test,2024.2.2,60.00621664400952,2025-11-11 05h50.33.273289 +0530,
2,0,2,o,2.3437964999998258,None,2,0,2,0,102.47399140000016,,,,,,,,,,,,,,,,,,,,,,,,,,,,,,,,,,,,,,,,,,,,,,,,,,102.45777240000007,102.47399140000016,102.99080630000026,102.95744400000012,102.98330000000033,102.99080630000026,102.99080630000026,102.99080630000026,105.34089970000014,Objects\051b.jpg,post,o,2.3437964999998258,None,,,,,,,,00026,001,2025-11-11_05h50.27.008,MST_test,2024.2.2,60.00621664400952,2025-11-11 05h50.33.273289 +0530,
3,0,3,o,1.2876730999996653,None,3,0,3,0,105.35725300000013,,,,,,,,,,,,,,,,,,,,,,,,,,,,,,,,,,,,,,,,,,,,,,,,,,105.34097560000009,105.35725300000013,105.85720769999989,105.8407256999999,105.84601109999994,105.85720769999989,105.85720769999989,105.85720769999989,107.15748460000032,Objects\077a.jpg,post,o,1.2876730999996653,None,,,,,,,,00026,001,2025-11-11_05h50.27.008,MST_test,2024.2.2,60.00621664400952,2025-11-11 05h50.33.273289 +0530,
4,0,4,o,1.0258206000003156,None,4,0,4,0,107.17388600000004,,,,,,,,,,,,,,,,,,,,,,,,,,,,,,,,,,,,,,,,,,,,,,,,,,107.15755519999993,107.17388600000004,107.67382780000025,107.65737450000006,107.65975920000028,107.67382780000025,107.67382780000025,107.67382780000025,108.70761690000018,Objects\378a.jpg,mid,o,1.0258206000003156,None,,,,,,,,00026,001,2025-11-11_05h50.27.008,MST_test,2024.2.2,60.00621664400952,2025-11-11 05h50.33.273289 +0530,
5,0,5,o,1.0810338999999658,None,5,0,5,0,108.72380640000029,,,,,,,,,,,,,,,,,,,,,,,,,,,,,,,,,,,,,,,,,,,,,,,,,,108.70769410000003,108.72380640000029,109.22426580000001,109.20732080000016,109.21234940000022,109.22426580000001,109.22426580000001,109.22426580000001,110.30741200000011,Objects\344a.jpg,mid,o,1.0810338999999658,None,,,,,,,,00026,001,2025-11-11_05h50.27.008,MST_test,2024.2.2,60.00621664400952,2025-11-11 05h50.33.273289 +0530,
6,0,6,o,1.2080464999999094,None,6,0,6,0,110.32376900000008,,,,,,,,,,,,,,,,,,,,,,,,,,,,,,,,,,,,,,,,,,,,,,,,,,110.30748260000018,110.32376900000008,110.85713510000005,110.80729410000004,110.83713540000008,110.85713510000005,110.85713510000005,110.85713510000005,112.0740836,Objects\278b.jpg,mid,o,1.2080464999999094,None,,,,,,,,00026,001,2025-11-11_05h50.27.008,MST_test,2024.2.2,60.00621664400952,2025-11-11 05h50.33.273289 +0530,
7,0,7,o,1.1131792999999561,None,7,0,7,0,112.09043640000027,,,,,,,,,,,,,,,,,,,,,,,,,,,,,,,,,,,,,,,,,,,,,,,,,,112.07415700000001,112.09043640000027,112.59038689999988,112.5738824,112.57897410000032,112.59038689999988,112.59038689999988,112.59038689999988,113.7073418,Objects\360a.jpg,post,o,1.1131792999999561,None,,,,,,,,00026,001,2025-11-11_05h50.27.008,MST_test,2024.2.2,60.00621664400952,2025-11-11 05h50.33.273289 +0530,
8,0,8,o,1.487770200000341,None,8,0,8,0,113.7237325000001,,,,,,,,,,,,,,,,,,,,,,,,,,,,,,,,,,,,,,,,,,,,,,,,,,113.70741380000027,113.7237325000001,114.25704420000011,114.2071920000003,114.24117840000008,114.25704420000011,114.25704420000011,114.25704420000011,115.7573881000003,Objects\368b.jpg,pre,o,1.487770200000341,None,,,,,,,,00026,001,2025-11-11_05h50.27.008,MST_test,2024.2.2,60.00621664400952,2025-11-11 05h50.33.273289 +0530,
9,0,9,o,2.0837695000000167,None,9,0,9,0,115.77365510000027,,,,,,,,,,,,,,,,,,,,,,,,,,,,,,,,,,,,,,,,,,,,,,,,,,115.7574697,115.77365510000027,116.27363500000001,116.25714319999997,116.26154380000025,116.27363500000001,116.27363500000001,116.27363500000001,118.37390140000025,Objects\296a.jpg,pre,o,2.0837695000000167,None,,,,,,,,00026,001,2025-11-11_05h50.27.008,MST_test,2024.2.2,60.00621664400952,2025-11-11 05h50.33.273289 +0530,
10,0,10,s,6.456082899999728,None,10,0,10,0,118.39031139999997,,,,,,,,,,,,,,,,,,,,,,,,,,,,,,,,,,,,,,,,,,,,,,,,,,118.37399060000007,118.39031139999997,118.90691700000025,118.87375969999994,118.89464790000011,118.90691700000025,118.90691700000025,118.90691700000025,125.37371350000012,Objects\018b.jpg,mid,s,6.456082899999728,None,,,,,,,,00026,001,2025-11-11_05h50.27.008,MST_test,2024.2.2,60.00621664400952,2025-11-11 05h50.33.273289 +0530,
11,0,11,o,1.9547333999998955,None,11,0,11,0,125.39008950000016,,,,,,,,,,,,,,,,,,,,,,,,,,,,,,,,,,,,,,,,,,,,,,,,,,125.37380209999992,125.39008950000016,125.90676970000004,125.87365649999992,125.89065320000009,125.90676970000004,125.90676970000004,125.90676970000004,127.87366150000025,Objects\094b.jpg,post,o,1.9547333999998955,None,,,,,,,,00026,001,2025-11-11_05h50.27.008,MST_test,2024.2.2,60.00621664400952,2025-11-11 05h50.33.273289 +0530,
12,0,12,o,2.9953974999998536,None,12,0,12,0,127.89005940000015,,,,,,,,,,,,,,,,,,,,,,,,,,,,,,,,,,,,,,,,,,,,,,,,,,127.87374580000005,127.89005940000015,128.39001480000024,128.37352740000006,128.3786611999999,128.39001480000024,128.39001480000024,128.39001480000024,131.39028839999992,Objects\324a.jpg,mid,o,2.9953974999998536,None,,,,,,,,00026,001,2025-11-11_05h50.27.008,MST_test,2024.2.2,60.00621664400952,2025-11-11 05h50.33.273289 +0530,
13,0,13,n,3.1223689999997077,None,13,0,13,0,131.40666039999996,,,,,,,,,,,,,,,,,,,,,,,,,,,,,,,,,,,,,,,,,,,,,,,,,,131.39037340000004,131.40666039999996,131.90649410000015,131.8901060000003,131.90125790000002,131.90649410000015,131.90649410000015,131.90649410000015,135.0402578000003,Foils\082a.jpg,none,n,3.1223689999997077,None,,,,,,,,00026,001,2025-11-11_05h50.27.008,MST_test,2024.2.2,60.00621664400952,2025-11-11 05h50.33.273289 +0530,
14,0,14,s,6.4119668999996975,None,14,0,14,0,135.0565829000002,,,,,,,,,,,,,,,,,,,,,,,,,,,,,,,,,,,,,,,,,,,,,,,,,,135.0403451000002,135.0565829000002,135.5731894999999,135.54011290000017,135.56197740000016,135.5731894999999,135.5731894999999,135.5731894999999,141.9900987000001,Objects\104b.jpg,pre,s,6.4119668999996975,None,,,,,,,,00026,001,2025-11-11_05h50.27.008,MST_test,2024.2.2,60.00621664400952,2025-11-11 05h50.33.273289 +0530,
15,0,15,s,2.719546899999841,None,15,0,15,0,142.00640470000008,,,,,,,,,,,,,,,,,,,,,,,,,,,,,,,,,,,,,,,,,,,,,,,,,,141.99018860000024,142.00640470000008,142.52306810000027,142.4899002000002,142.50895050000008,142.52306810000027,142.52306810000027,142.52306810000027,145.25660199999993,Objects\121b.jpg,pre,s,2.719546899999841,None,,,,,,,,00026,001,2025-11-11_05h50.27.008,MST_test,2024.2.2,60.00621664400952,2025-11-11 05h50.33.273289 +0530,
16,0,16,o,2.7311257999999725,None,16,0,16,0,145.27302009999994,,,,,,,,,,,,,,,,,,,,,,,,,,,,,,,,,,,,,,,,,,,,,,,,,,145.25668429999996,145.27302009999994,145.78972870000007,145.7564669000003,145.77480650000007,145.78972870000007,145.78972870000007,145.78972870000007,148.5234172999999,Objects\169b.jpg,post,o,2.7311257999999725,None,,,,,,,,00026,001,2025-11-11_05h50.27.008,MST_test,2024.2.2,60.00621664400952,2025-11-11 05h50.33.273289 +0530,
17,0,17,s,9.979645300000357,None,17,0,17,0,148.5395950000002,,,,,,,,,,,,,,,,,,,,,,,,,,,,,,,,,,,,,,,,,,,,,,,,,,148.52349589999994,148.5395950000002,149.03954539999995,149.02313219999996,149.0306988000002,149.03954539999995,149.03954539999995,149.03954539999995,159.02309289999994,Foils\074a.jpg,none,s,9.979645300000357,None,,,,,,,,00026,001,2025-11-11_05h50.27.008,MST_test,2024.2.2,60.00621664400952,2025-11-11 05h50.33.273289 +0530,
18,0,18,s,2.4438930000001164,None,18,0,18,0,159.0393435000001,,,,,,,,,,,,,,,,,,,,,,,,,,,,,,,,,,,,,,,,,,,,,,,,,,159.02317660000017,159.0393435000001,159.53892160000032,159.5228774000002,159.53215180000007,159.53892160000032,159.53892160000032,159.53892160000032,161.98954790000016,Foils\042a.jpg,none,s,2.4438930000001164,None,,,,,,,,00026,001,2025-11-11_05h50.27.008,MST_test,2024.2.2,60.00621664400952,2025-11-11 05h50.33.273289 +0530,
19,0,19,s,2.7924089999996795,None,19,0,19,0,162.00591590000022,,,,,,,,,,,,,,,,,,,,,,,,,,,,,,,,,,,,,,,,,,,,,,,,,,161.98963380000032,162.00591590000022,162.52258269999993,162.48943129999998,162.50473039999997,162.52258269999993,162.52258269999993,162.52258269999993,165.32289579999997,Objects\246b.jpg,post,s,2.7924089999996795,None,,,,,,,,00026,001,2025-11-11_05h50.27.008,MST_test,2024.2.2,60.00621664400952,2025-11-11 05h50.33.273289 +0530,
20,0,20,s,5.36357659999976,None,20,0,20,0,165.33920160000025,,,,,,,,,,,,,,,,,,,,,,,,,,,,,,,,,,,,,,,,,,,,,,,,,,165.32297909999988,165.33920160000025,165.85582220000015,165.8226735000003,165.84567800000013,165.85582220000015,165.85582220000015,165.85582220000015,171.2227087000001,Objects\321b.jpg,pre,s,5.36357659999976,None,,,,,,,,00026,001,2025-11-11_05h50.27.008,MST_test,2024.2.2,60.00621664400952,2025-11-11 05h50.33.273289 +0530,
21,0,21,o,2.336630100000093,None,21,0,21,0,171.23906370000032,,,,,,,,,,,,,,,,,,,,,,,,,,,,,,,,,,,,,,,,,,,,,,,,,,171.22279560000015,171.23906370000032,171.73906450000004,171.72252019999996,171.72748230000025,171.73906450000004,171.73906450000004,171.73906450000004,174.08927059999996,Objects\159a.jpg,mid,o,2.336630100000093,None,,,,,,,,00026,001,2025-11-11_05h50.27.008,MST_test,2024.2.2,60.00621664400952,2025-11-11 05h50.33.273289 +0530,
22,0,22,n,2.8060472000001937,None,22,0,22,0,174.10566470000003,,,,,,,,,,,,,,,,,,,,,,,,,,,,,,,,,,,,,,,,,,,,,,,,,,174.0893541999999,174.10566470000003,174.60565240000005,174.5891418000001,174.59674180000002,174.60565240000005,174.60565240000005,174.60565240000005,177.42261450000024,Foils\010a.jpg,none,n,2.8060472000001937,None,,,,,,,,00026,001,2025-11-11_05h50.27.008,MST_test,2024.2.2,60.00621664400952,2025-11-11 05h50.33.273289 +0530,
23,0,23,o,1.8859658000001218,None,23,0,23,0,177.43891410000015,,,,,,,,,,,,,,,,,,,,,,,,,,,,,,,,,,,,,,,,,,,,,,,,,,177.4226904000002,177.43891410000015,177.93887670000004,177.92247140000018,177.92739380000012,177.93887670000004,177.93887670000004,177.93887670000004,179.83933000000025,Objects\218a.jpg,mid,o,1.8859658000001218,None,,,,,,,,00026,001,2025-11-11_05h50.27.008,MST_test,2024.2.2,60.00621664400952,2025-11-11 05h50.33.273289 +0530,
24,0,24,o,2.6829757000000427,None,24,0,24,0,179.85552619999999,,,,,,,,,,,,,,,,,,,,,,,,,,,,,,,,,,,,,,,,,,,,,,,,,,179.83941380000033,179.85552619999999,180.37217099999998,180.33897520000028,180.35368930000004,180.37217099999998,180.37217099999998,180.37217099999998,183.0557721,Objects\252b.jpg,pre,o,2.6829757000000427,None,,,,,,,,00026,001,2025-11-11_05h50.27.008,MST_test,2024.2.2,60.00621664400952,2025-11-11 05h50.33.273289 +0530,
25,0,25,o,2.199042200000349,None,25,0,25,0,183.07214629999999,,,,,,,,,,,,,,,,,,,,,,,,,,,,,,,,,,,,,,,,,,,,,,,,,,183.05586200000016,183.07214629999999,183.57207880000033,183.55570960000023,183.55793530000028,183.57207880000033,183.57207880000033,183.57207880000033,185.7723836,Objects\189a.jpg,pre,o,2.199042200000349,None,,,,,,,,00026,001,2025-11-11_05h50.27.008,MST_test,2024.2.2,60.00621664400952,2025-11-11 05h50.33.273289 +0530,
26,0,26,n,4.164765299999999,None,26,0,26,0,185.78873150000027,,,,,,,,,,,,,,,,,,,,,,,,,,,,,,,,,,,,,,,,,,,,,,,,,,185.77246360000026,185.78873150000027,186.28874240000005,186.27220859999989,186.2801647000001,186.28874240000005,186.28874240000005,186.28874240000005,190.4556361,Foils\009a.jpg,none,n,4.164765299999999,None,,,,,,,,00026,001,2025-11-11_05h50.27.008,MST_test,2024.2.2,60.00621664400952,2025-11-11 05h50.33.273289 +0530,
27,0,27,n,1.7132419999998092,None,27,0,27,0,190.47204710000005,,,,,,,,,,,,,,,,,,,,,,,,,,,,,,,,,,,,,,,,,,,,,,,,,,190.45571500000005,190.47204710000005,190.97216350000008,190.95556430000033,190.96344080000017,190.97216350000008,190.97216350000008,190.97216350000008,192.68899409999995,Foils\058a.jpg,none,n,1.7132419999998092,None,,,,,,,,00026,001,2025-11-11_05h50.27.008,MST_test,2024.2.2,60.00621664400952,2025-11-11 05h50.33.273289 +0530,
28,0,28,o,1.592593400000169,None,28,0,28,0,192.7053624,,,,,,,,,,,,,,,,,,,,,,,,,,,,,,,,,,,,,,,,,,,,,,,,,,192.68907260000015,192.7053624,193.22202030000017,193.18878029999996,193.2083829000003,193.22202030000017,193.22202030000017,193.22202030000017,194.8222384999999,Objects\003b.jpg,mid,o,1.592593400000169,None,,,,,,,,00026,001,2025-11-11_05h50.27.008,MST_test,2024.2.2,60.00621664400952,2025-11-11 05h50.33.273289 +0530,
29,0,29,o,3.3666658000001917,None,29,0,29,0,194.83861260000003,,,,,,,,,,,,,,,,,,,,,,,,,,,,,,,,,,,,,,,,,,,,,,,,,,194.82231520000005,194.83861260000003,195.33857020000005,195.3221069000001,195.32742580000013,195.33857020000005,195.33857020000005,195.33857020000005,198.7221228000003,Objects\217a.jpg,post,o,3.3666658000001917,None,,,,,,,,00026,001,2025-11-11_05h50.27.008,MST_test,2024.2.2,60.00621664400952,2025-11-11 05h50.33.273289 +0530,
30,0,30,o,2.4854817000000367,None,30,0,30,0,198.73856320000004,,,,,,,,,,,,,,,,,,,,,,,,,,,,,,,,,,,,,,,,,,,,,,,,,,198.7221955,198.73856320000004,199.23847980000028,199.22203190000027,199.22708710000006,199.23847980000028,199.23847980000028,199.23847980000028,201.7387066000001,Objects\350a.jpg,mid,o,2.4854817000000367,None,,,,,,,,00026,001,2025-11-11_05h50.27.008,MST_test,2024.2.2,60.00621664400952,2025-11-11 05h50.33.273289 +0530,
31,0,31,o,1.6888229000001047,None,31,0,31,0,201.75515620000033,,,,,,,,,,,,,,,,,,,,,,,,,,,,,,,,,,,,,,,,,,,,,,,,,,201.73878980000018,201.75515620000033,202.25508230000014,202.2386002000003,202.24390680000033,202.25508230000014,202.25508230000014,202.25508230000014,203.95545360000006,Objects\103a.jpg,post,o,1.6888229000001047,None,,,,,,,,00026,001,2025-11-11_05h50.27.008,MST_test,2024.2.2,60.00621664400952,2025-11-11 05h50.33.273289 +0530,
32,0,32,n,6.5832657999999356,None,32,0,32,0,203.97172290000026,,,,,,,,,,,,,,,,,,,,,,,,,,,,,,,,,,,,,,,,,,,,,,,,,,203.95553139999993,203.97172290000026,204.47175480000033,204.4552262000002,204.46344420000014,204.47175480000033,204.47175480000033,204.47175480000033,211.07178760000033,Foils\105a.jpg,none,n,6.5832657999999356,None,,,,,,,,00026,001,2025-11-11_05h50.27.008,MST_test,2024.2.2,60.00621664400952,2025-11-11 05h50.33.273289 +0530,
33,0,33,o,1.5914103000000068,None,33,0,33,0,211.08820540000033,,,,,,,,,,,,,,,,,,,,,,,,,,,,,,,,,,,,,,,,,,,,,,,,,,211.07186850000016,211.08820540000033,211.58819100000028,211.57169310000018,211.5741281999999,211.58819100000028,211.58819100000028,211.58819100000028,213.18842620000032,Objects\311a.jpg,pre,o,1.5914103000000068,None,,,,,,,,00026,001,2025-11-11_05h50.27.008,MST_test,2024.2.2,60.00621664400952,2025-11-11 05h50.33.273289 +0530,
34,0,34,s,5.186241599999903,None,34,0,34,0,213.20488999999998,,,,,,,,,,,,,,,,,,,,,,,,,,,,,,,,,,,,,,,,,,,,,,,,,,213.18851339999992,213.20488999999998,213.7049333,213.68828630000007,213.69046509999998,213.7049333,213.7049333,213.7049333,218.90495360000023,Objects\024a.jpg,post,s,5.186241599999903,None,,,,,,,,00026,001,2025-11-11_05h50.27.008,MST_test,2024.2.2,60.00621664400952,2025-11-11 05h50.33.273289 +0530,
35,0,35,s,2.338467800000217,None,35,0,35,0,218.92138860000023,,,,,,,,,,,,,,,,,,,,,,,,,,,,,,,,,,,,,,,,,,,,,,,,,,218.90504490000012,218.92138860000023,219.4547149,219.4049890000001,219.43903580000006,219.4547149,219.4547149,219.4547149,221.80484210000031,Objects\066b.jpg,post,s,2.338467800000217,None,,,,,,,,00026,001,2025-11-11_05h50.27.008,MST_test,2024.2.2,60.00621664400952,2025-11-11 05h50.33.273289 +0530,
36,0,36,s,1.8126165999997284,None,36,0,36,0,221.82124430000022,,,,,,,,,,,,,,,,,,,,,,,,,,,,,,,,,,,,,,,,,,,,,,,,,,221.80492230000027,221.82124430000022,222.33788159999995,222.3048131999999,222.32562370000005,222.33788159999995,222.33788159999995,222.33788159999995,224.15490180000006,Objects\325b.jpg,post,s,1.8126165999997284,None,,,,,,,,00026,001,2025-11-11_05h50.27.008,MST_test,2024.2.2,60.00621664400952,2025-11-11 05h50.33.273289 +0530,
37,0,37,s,1.4503802000003816,None,37,0,37,0,224.1711932000003,,,,,,,,,,,,,,,,,,,,,,,,,,,,,,,,,,,,,,,,,,,,,,,,,,224.1549869999999,224.1711932000003,224.70456970000032,224.65467230000013,224.6909066000003,224.70456970000032,224.70456970000032,224.70456970000032,226.1714635000003,Objects\227b.jpg,mid,s,1.4503802000003816,None,,,,,,,,00026,001,2025-11-11_05h50.27.008,MST_test,2024.2.2,60.00621664400952,2025-11-11 05h50.33.273289 +0530,
38,0,38,s,5.2574030999999195,None,38,0,38,0,226.18779399999994,,,,,,,,,,,,,,,,,,,,,,,,,,,,,,,,,,,,,,,,,,,,,,,,,,226.17154699999992,226.18779399999994,226.68777050000017,226.67146270000012,226.67636500000026,226.68777050000017,226.68777050000017,226.68777050000017,231.95460000000003,Objects\245a.jpg,pre,s,5.2574030999999195,None,,,,,,,,00026,001,2025-11-11_05h50.27.008,MST_test,2024.2.2,60.00621664400952,2025-11-11 05h50.33.273289 +0530,
39,0,39,n,3.416432900000018,None,39,0,39,0,231.9710398000002,,,,,,,,,,,,,,,,,,,,,,,,,,,,,,,,,,,,,,,,,,,,,,,,,,231.9546809000003,231.9710398000002,232.4709542999999,232.45455790000005,232.46266210000022,232.4709542999999,232.4709542999999,232.4709542999999,235.88788130000012,Foils\097a.jpg,none,n,3.416432900000018,None,,,,,,,,00026,001,2025-11-11_05h50.27.008,MST_test,2024.2.2,60.00621664400952,2025-11-11 05h50.33.273289 +0530,
40,0,40,s,1.9239888000001883,None,40,0,40,0,235.9042503999999,,,,,,,,,,,,,,,,,,,,,,,,,,,,,,,,,,,,,,,,,,,,,,,,,,235.88796739999998,235.9042503999999,236.42089369999985,236.38771810000026,236.40759449999996,236.42089369999985,236.42089369999985,236.42089369999985,238.35444380000035,Objects\013b.jpg,pre,s,1.9239888000001883,None,,,,,,,,00026,001,2025-11-11_05h50.27.008,MST_test,2024.2.2,60.00621664400952,2025-11-11 05h50.33.273289 +0530,
41,0,41,s,1.3543265999996947,None,41,0,41,0,238.3708529999999,,,,,,,,,,,,,,,,,,,,,,,,,,,,,,,,,,,,,,,,,,,,,,,,,,238.3545196,238.3708529999999,238.87081350000017,238.85433130000047,238.85652309999978,238.87081350000017,238.87081350000017,238.87081350000017,240.2379834999997,Objects\092a.jpg,pre,s,1.3543265999996947,None,,,,,,,,00026,001,2025-11-11_05h50.27.008,MST_test,2024.2.2,60.00621664400952,2025-11-11 05h50.33.273289 +0530,
42,0,42,s,4.089821800000209,None,42,0,42,0,240.25421599999981,,,,,,,,,,,,,,,,,,,,,,,,,,,,,,,,,,,,,,,,,,,,,,,,,,240.23806560000003,240.25421599999981,240.77082649999966,240.73762450000004,240.7616554000001,240.77082649999966,240.77082649999966,240.77082649999966,244.87128129999974,Objects\226b.jpg,pre,s,4.089821800000209,None,,,,,,,,00026,001,2025-11-11_05h50.27.008,MST_test,2024.2.2,60.00621664400952,2025-11-11 05h50.33.273289 +0530,
43,0,43,o,2.087632400000075,None,43,0,43,0,244.88737210000045,,,,,,,,,,,,,,,,,,,,,,,,,,,,,,,,,,,,,,,,,,,,,,,,,,244.8713668000005,244.88737210000045,245.38739339999984,245.3709672,245.3768170999997,245.38739339999984,245.38739339999984,245.38739339999984,247.48767139999973,Objects\039a.jpg,mid,o,2.087632400000075,None,,,,,,,,00026,001,2025-11-11_05h50.27.008,MST_test,2024.2.2,60.00621664400952,2025-11-11 05h50.33.273289 +0530,
44,0,44,o,1.4248007999995025,None,44,0,44,0,247.50397310000017,,,,,,,,,,,,,,,,,,,,,,,,,,,,,,,,,,,,,,,,,,,,,,,,,,247.48774960000037,247.50397310000017,248.0039326000001,247.98755910000045,247.99255949999997,248.0039326000001,248.0039326000001,248.0039326000001,249.43765360000043,Objects\302a.jpg,mid,o,1.4248007999995025,None,,,,,,,,00026,001,2025-11-11_05h50.27.008,MST_test,2024.2.2,60.00621664400952,2025-11-11 05h50.33.273289 +0530,
45,0,45,o,1.9062309000000823,None,45,0,45,0,249.45397290000028,,,,,,,,,,,,,,,,,,,,,,,,,,,,,,,,,,,,,,,,,,,,,,,,,,249.4377314999997,249.45397290000028,249.95391010000048,249.93737680000004,249.94214489999968,249.95391010000048,249.95391010000048,249.95391010000048,251.87094380000008,Objects\380a.jpg,post,o,1.9062309000000823,None,,,,,,,,00026,001,2025-11-11_05h50.27.008,MST_test,2024.2.2,60.00621664400952,2025-11-11 05h50.33.273289 +0530,
46,0,46,n,6.425890399999844,None,46,0,46,0,251.88721060000034,,,,,,,,,,,,,,,,,,,,,,,,,,,,,,,,,,,,,,,,,,,,,,,,,,251.87103109999998,251.88721060000034,252.38722579999967,252.3706662999998,252.3788080999998,252.38722579999967,252.38722579999967,252.38722579999967,258.8206336999997,Foils\073a.jpg,none,n,6.425890399999844,None,,,,,,,,00026,001,2025-11-11_05h50.27.008,MST_test,2024.2.2,60.00621664400952,2025-11-11 05h50.33.273289 +0530,
47,0,47,s,5.429585299999417,None,47,0,47,0,258.83706480000046,,,,,,,,,,,,,,,,,,,,,,,,,,,,,,,,,,,,,,,,,,,,,,,,,,258.82071589999987,258.83706480000046,259.3537259,259.3205363000002,259.33502869999984,259.3537259,259.3537259,259.3537259,264.7872964000003,Objects\110b.jpg,mid,s,5.429585299999417,None,,,,,,,,00026,001,2025-11-11_05h50.27.008,MST_test,2024.2.2,60.00621664400952,2025-11-11 05h50.33.273289 +0530,
48,0,48,s,1.9399505999999747,None,48,0,48,0,264.8035838999999,,,,,,,,,,,,,,,,,,,,,,,,,,,,,,,,,,,,,,,,,,,,,,,,,,264.78738960000055,264.8035838999999,265.3368653000002,265.2870522999997,265.3174375000003,265.3368653000002,265.3368653000002,265.3368653000002,267.2872404000004,Objects\229b.jpg,pre,s,1.9399505999999747,None,,,,,,,,00026,001,2025-11-11_05h50.27.008,MST_test,2024.2.2,60.00621664400952,2025-11-11 05h50.33.273289 +0530,
49,0,49,s,2.6591011999998955,None,49,0,49,0,267.3035136000003,,,,,,,,,,,,,,,,,,,,,,,,,,,,,,,,,,,,,,,,,,,,,,,,,,267.2873176999997,267.3035136000003,267.8035136000003,267.78701299999966,267.7922685999997,267.8035136000003,267.8035136000003,267.8035136000003,270.47046980000005,Objects\243a.jpg,pre,s,2.6591011999998955,None,,,,,,,,00026,001,2025-11-11_05h50.27.008,MST_test,2024.2.2,60.00621664400952,2025-11-11 05h50.33.273289 +0530,
50,0,50,o,1.8775166999994326,None,50,0,50,0,270.48675409999987,,,,,,,,,,,,,,,,,,,,,,,,,,,,,,,,,,,,,,,,,,,,,,,,,,270.4705482000004,270.48675409999987,271.00344670000004,270.97045690000004,270.9941638000005,271.00344670000004,271.00344670000004,271.00344670000004,272.8870984,Objects\247b.jpg,mid,o,1.8775166999994326,None,,,,,,,,00026,001,2025-11-11_05h50.27.008,MST_test,2024.2.2,60.00621664400952,2025-11-11 05h50.33.273289 +0530,
51,0,51,s,2.0768285000003743,None,51,0,51,0,272.90338329999986,,,,,,,,,,,,,,,,,,,,,,,,,,,,,,,,,,,,,,,,,,,,,,,,,,272.8871795,272.90338329999986,273.43699979999974,273.38693530000046,273.4302917,273.43699979999974,273.43699979999974,273.43699979999974,275.5203951999997,Objects\363b.jpg,mid,s,2.0768285000003743,None,,,,,,,,00026,001,2025-11-11_05h50.27.008,MST_test,2024.2.2,60.00621664400952,2025-11-11 05h50.33.273289 +0530,
52,0,52,o,1.4757692000002862,None,52,0,52,0,275.5366627999997,,,,,,,,,,,,,,,,,,,,,,,,,,,,,,,,,,,,,,,,,,,,,,,,,,275.5204783000004,275.5366627999997,276.0366251999999,276.0201699000004,276.02536139999984,276.0366251999999,276.0366251999999,276.0366251999999,277.5204084000002,Objects\157a.jpg,mid,o,1.4757692000002862,None,,,,,,,,00026,001,2025-11-11_05h50.27.008,MST_test,2024.2.2,60.00621664400952,2025-11-11 05h50.33.273289 +0530,
53,0,53,n,5.995980900000177,None,53,0,53,0,277.53662250000025,,,,,,,,,,,,,,,,,,,,,,,,,,,,,,,,,,,,,,,,,,,,,,,,,,277.5204845000003,277.53662250000025,278.03657990000056,278.0201578000001,278.02799730000015,278.03657990000056,278.03657990000056,278.03657990000056,284.03684960000055,Foils\101b.jpg,none,n,5.995980900000177,None,,,,,,,,00026,001,2025-11-11_05h50.27.008,MST_test,2024.2.2,60.00621664400952,2025-11-11 05h50.33.273289 +0530,
54,0,54,o,1.5368222000006426,None,54,0,54,0,284.0531339000004,,,,,,,,,,,,,,,,,,,,,,,,,,,,,,,,,,,,,,,,,,,,,,,,,,284.03693280000016,284.0531339000004,284.5530898000002,284.53661070000044,284.5388390000003,284.5530898000002,284.5530898000002,284.5530898000002,286.10331710000037,Objects\361a.jpg,post,o,1.5368222000006426,None,,,,,,,,00026,001,2025-11-11_05h50.27.008,MST_test,2024.2.2,60.00621664400952,2025-11-11 05h50.33.273289 +0530,
55,0,55,o,1.9492983000000095,None,55,0,55,0,286.11977780000007,,,,,,,,,,,,,,,,,,,,,,,,,,,,,,,,,,,,,,,,,,,,,,,,,,286.1033927000003,286.11977780000007,286.61975310000025,286.60330100000056,286.6051381000002,286.61975310000025,286.61975310000025,286.61975310000025,288.5699832000005,Objects\047a.jpg,pre,o,1.9492983000000095,None,,,,,,,,00026,001,2025-11-11_05h50.27.008,MST_test,2024.2.2,60.00621664400952,2025-11-11 05h50.33.273289 +0530,
56,0,56,s,5.240475999999944,None,56,0,56,0,288.5863737000004,,,,,,,,,,,,,,,,,,,,,,,,,,,,,,,,,,,,,,,,,,,,,,,,,,288.5700588000004,288.5863737000004,289.08639790000007,289.06984859999966,289.07180149999976,289.08639790000007,289.08639790000007,289.08639790000007,294.33662460000005,Objects\083a.jpg,mid,s,5.240475999999944,None,,,,,,,,00026,001,2025-11-11_05h50.27.008,MST_test,2024.2.2,60.00621664400952,2025-11-11 05h50.33.273289 +0530,
57,0,57,o,1.5959799000002022,None,57,0,57,0,294.35290829999985,,,,,,,,,,,,,,,,,,,,,,,,,,,,,,,,,,,,,,,,,,,,,,,,,,294.3367039,294.35290829999985,294.8528922999999,294.83637940000017,294.83836759999986,294.8528922999999,294.8528922999999,294.8528922999999,296.4532052999998,Objects\044a.jpg,mid,o,1.5959799000002022,None,,,,,,,,00026,001,2025-11-11_05h50.27.008,MST_test,2024.2.2,60.00621664400952,2025-11-11 05h50.33.273289 +0530,
58,0,58,o,1.4492545000002792,None,58,0,58,0,296.46951540000055,,,,,,,,,,,,,,,,,,,,,,,,,,,,,,,,,,,,,,,,,,,,,,,,,,296.4532746,296.46951540000055,296.9861808999999,296.9531592999997,296.9733762000001,296.9861808999999,296.9861808999999,296.9861808999999,298.43645890000016,Objects\137b.jpg,post,o,1.4492545000002792,None,,,,,,,,00026,001,2025-11-11_05h50.27.008,MST_test,2024.2.2,60.00621664400952,2025-11-11 05h50.33.273289 +0530,
59,0,59,s,4.091434599999957,None,59,0,59,0,298.4528098000005,,,,,,,,,,,,,,,,,,,,,,,,,,,,,,,,,,,,,,,,,,,,,,,,,,298.43653289999975,298.4528098000005,298.96971429999985,298.93640280000045,298.95646290000013,298.96971429999985,298.96971429999985,298.96971429999985,303.06976650000024,Objects\342b.jpg,mid,s,4.091434599999957,None,,,,,,,,00026,001,2025-11-11_05h50.27.008,MST_test,2024.2.2,60.00621664400952,2025-11-11 05h50.33.273289 +0530,
60,0,60,o,1.663186499999938,None,60,0,60,0,303.0860372000002,,,,,,,,,,,,,,,,,,,,,,,,,,,,,,,,,,,,,,,,,,,,,,,,,,303.0698404,303.0860372000002,303.5859894,303.56950629999983,303.57411490000004,303.5859894,303.5859894,303.5859894,305.25295510000024,Objects\277a.jpg,post,o,1.663186499999938,None,,,,,,,,00026,001,2025-11-11_05h50.27.008,MST_test,2024.2.2,60.00621664400952,2025-11-11 05h50.33.273289 +0530,
61,0,61,o,4.251565500000652,None,61,0,61,0,305.2693240000003,,,,,,,,,,,,,,,,,,,,,,,,,,,,,,,,,,,,,,,,,,,,,,,,,,305.2530284999998,305.2693240000003,305.7692758999997,305.75279160000036,305.75796390000005,305.7692758999997,305.7692758999997,305.7692758999997,310.0361103,Objects\114a.jpg,post,o,4.251565500000652,None,,,,,,,,00026,001,2025-11-11_05h50.27.008,MST_test,2024.2.2,60.00621664400952,2025-11-11 05h50.33.273289 +0530,
62,0,62,o,1.3708026000003883,None,62,0,62,0,310.0525356000003,,,,,,,,,,,,,,,,,,,,,,,,,,,,,,,,,,,,,,,,,,,,,,,,,,310.0361939999998,310.0525356000003,310.55258150000054,310.5360660000001,310.5398815000003,310.55258150000054,310.55258150000054,310.55258150000054,311.93619960000024,Objects\286a.jpg,post,o,1.3708026000003883,None,,,,,,,,00026,001,2025-11-11_05h50.27.008,MST_test,2024.2.2,60.00621664400952,2025-11-11 05h50.33.273289 +0530,
63,0,63,o,1.6225281999995786,None,63,0,63,0,311.9525570999999,,,,,,,,,,,,,,,,,,,,,,,,,,,,,,,,,,,,,,,,,,,,,,,,,,311.9362750000005,311.9525570999999,312.4525447000001,312.4360105999999,312.4407753999999,312.4525447000001,312.4525447000001,312.4525447000001,314.08621379999977,Objects\372a.jpg,post,o,1.6225281999995786,None,,,,,,,,00026,001,2025-11-11_05h50.27.008,MST_test,2024.2.2,60.00621664400952,2025-11-11 05h50.33.273289 +0530,
64,0,64,o,2.3764800999997533,None,64,0,64,0,314.1025734,,,,,,,,,,,,,,,,,,,,,,,,,,,,,,,,,,,,,,,,,,,,,,,,,,314.08628650000037,314.1025734,314.6024881999997,314.58604479999985,314.5909220999997,314.6024881999997,314.6024881999997,314.6024881999997,316.9860185000002,Objects\279a.jpg,mid,o,2.3764800999997533,None,,,,,,,,00026,001,2025-11-11_05h50.27.008,MST_test,2024.2.2,60.00621664400952,2025-11-11 05h50.33.273289 +0530,
65,0,65,n,3.9211818000003404,None,65,0,65,0,317.0024688999997,,,,,,,,,,,,,,,,,,,,,,,,,,,,,,,,,,,,,,,,,,,,,,,,,,316.9860994000005,317.0024688999997,317.5024257,317.48602249999976,317.49398750000046,317.5024257,317.5024257,317.5024257,321.43593439999995,Foils\017a.jpg,none,n,3.9211818000003404,None,,,,,,,,00026,001,2025-11-11_05h50.27.008,MST_test,2024.2.2,60.00621664400952,2025-11-11 05h50.33.273289 +0530,
66,0,66,o,1.6003037999998924,None,66,0,66,0,321.45234310000023,,,,,,,,,,,,,,,,,,,,,,,,,,,,,,,,,,,,,,,,,,,,,,,,,,321.43601080000053,321.45234310000023,321.95232780000015,321.93585029999986,321.9379507999997,321.95232780000015,321.95232780000015,321.95232780000015,323.5692088999999,Objects\234a.jpg,pre,o,1.6003037999998924,None,,,,,,,,00026,001,2025-11-11_05h50.27.008,MST_test,2024.2.2,60.00621664400952,2025-11-11 05h50.33.273289 +0530,
67,0,67,o,1.4149693999997908,None,67,0,67,0,323.58568890000015,,,,,,,,,,,,,,,,,,,,,,,,,,,,,,,,,,,,,,,,,,,,,,,,,,323.5692770999999,323.58568890000015,324.0856789000004,324.0690974000004,324.0711210000004,324.0856789000004,324.0856789000004,324.0856789000004,325.5026955999997,Objects\153a.jpg,pre,o,1.4149693999997908,None,,,,,,,,00026,001,2025-11-11_05h50.27.008,MST_test,2024.2.2,60.00621664400952,2025-11-11 05h50.33.273289 +0530,
68,0,68,o,1.3773424999999406,None,68,0,68,0,325.5189427,,,,,,,,,,,,,,,,,,,,,,,,,,,,,,,,,,,,,,,,,,,,,,,,,,325.5027646000003,325.5189427,326.0188973999998,326.00244090000024,326.00640410000005,326.0188973999998,326.0188973999998,326.0188973999998,327.40257969999993,Objects\199a.jpg,mid,o,1.3773424999999406,None,,,,,,,,00026,001,2025-11-11_05h50.27.008,MST_test,2024.2.2,60.00621664400952,2025-11-11 05h50.33.273289 +0530,
69,0,69,o,1.6717832999993334,None,69,0,69,0,327.4188936000005,,,,,,,,,,,,,,,,,,,,,,,,,,,,,,,,,,,,,,,,,,,,,,,,,,327.40265599999975,327.4188936000005,327.91885090000005,327.9024688000004,327.90728379999973,327.91885090000005,327.91885090000005,327.91885090000005,329.6025771999998,Objects\038a.jpg,post,o,1.6717832999993334,None,,,,,,,,00026,001,2025-11-11_05h50.27.008,MST_test,2024.2.2,60.00621664400952,2025-11-11 05h50.33.273289 +0530,
70,0,70,o,1.253160299999763,None,70,0,70,0,329.6188423999997,,,,,,,,,,,,,,,,,,,,,,,,,,,,,,,,,,,,,,,,,,,,,,,,,,329.60266139999976,329.6188423999997,330.1521499000005,330.1023822000002,330.1066925,330.1521499000005,330.1521499000005,330.1521499000005,331.41905650000035,Objects\362a.jpg,pre,o,1.253160299999763,None,,,,,,,,00026,001,2025-11-11_05h50.27.008,MST_test,2024.2.2,60.00621664400952,2025-11-11 05h50.33.273289 +0530,
71,0,71,o,1.2899692999999388,None,71,0,71,0,331.43550449999975,,,,,,,,,,,,,,,,,,,,,,,,,,,,,,,,,,,,,,,,,,,,,,,,,,331.4191334000002,331.43550449999975,331.93542579999985,331.9189583000002,331.9244162,331.93542579999985,331.93542579999985,331.93542579999985,333.23569499999985,Objects\241a.jpg,pre,o,1.2899692999999388,None,,,,,,,,00026,001,2025-11-11_05h50.27.008,MST_test,2024.2.2,60.00621664400952,2025-11-11 05h50.33.273289 +0530,
72,0,72,s,4.512043099999573,None,72,0,72,0,333.2520903999998,,,,,,,,,,,,,,,,,,,,,,,,,,,,,,,,,,,,,,,,,,,,,,,,,,333.23577309999973,333.2520903999998,333.76872030000004,333.73558360000015,333.7546124000005,333.76872030000004,333.76872030000004,333.76872030000004,338.2856443000005,Objects\119b.jpg,mid,s,4.512043099999573,None,,,,,,,,00026,001,2025-11-11_05h50.27.008,MST_test,2024.2.2,60.00621664400952,2025-11-11 05h50.33.273289 +0530,
73,0,73,s,3.4723947000002227,None,73,0,73,0,338.3019840000002,,,,,,,,,,,,,,,,,,,,,,,,,,,,,,,,,,,,,,,,,,,,,,,,,,338.28572010000016,338.3019840000002,338.8186042000002,338.78540250000015,338.8058581999999,338.8186042000002,338.8186042000002,338.8186042000002,342.30215009999984,Objects\117b.jpg,pre,s,3.4723947000002227,None,,,,,,,,00026,001,2025-11-11_05h50.27.008,MST_test,2024.2.2,60.00621664400952,2025-11-11 05h50.33.273289 +0530,
74,0,74,n,6.986086400000204,None,74,0,74,0,342.3184649,,,,,,,,,,,,,,,,,,,,,,,,,,,,,,,,,,,,,,,,,,,,,,,,,,342.3022286999999,342.3184649,342.8184225,342.80198990000054,342.8096406999998,342.8184225,342.8184225,342.8184225,349.8185789000004,Foils\049a.jpg,none,n,6.986086400000204,None,,,,,,,,00026,001,2025-11-11_05h50.27.008,MST_test,2024.2.2,60.00621664400952,2025-11-11 05h50.33.273289 +0530,
75,0,75,s,4.908012500000041,None,75,0,75,0,349.83497039999975,,,,,,,,,,,,,,,,,,,,,,,,,,,,,,,,,,,,,,,,,,,,,,,,,,349.81866200000013,349.83497039999975,350.3349513999997,350.3184451000002,350.3260335,350.3349513999997,350.3349513999997,350.3349513999997,355.25189379999983,Foils\090a.jpg,none,s,4.908012500000041,None,,,,,,,,00026,001,2025-11-11_05h50.27.008,MST_test,2024.2.2,60.00621664400952,2025-11-11 05h50.33.273289 +0530,
76,0,76,s,8.035697400000572,None,76,0,76,0,355.2681668,,,,,,,,,,,,,,,,,,,,,,,,,,,,,,,,,,,,,,,,,,,,,,,,,,355.25197679999974,355.2681668,355.7848323000003,355.7516433000005,355.77083079999966,355.7848323000003,355.7848323000003,355.7848323000003,363.8348983000001,Objects\010b.jpg,pre,s,8.035697400000572,None,,,,,,,,00026,001,2025-11-11_05h50.27.008,MST_test,2024.2.2,60.00621664400952,2025-11-11 05h50.33.273289 +0530,
77,0,77,s,11.329434500000389,None,77,0,77,0,363.8513033000004,,,,,,,,,,,,,,,,,,,,,,,,,,,,,,,,,,,,,,,,,,,,,,,,,,363.8349854000003,363.8513033000004,364.35128920000034,364.33477559999983,364.3407739999998,364.35128920000034,364.35128920000034,364.35128920000034,375.6847250000005,Objects\359a.jpg,post,s,11.329434500000389,None,,,,,,,,00026,001,2025-11-11_05h50.27.008,MST_test,2024.2.2,60.00621664400952,2025-11-11 05h50.33.273289 +0530,
78,0,78,n,10.698167399999875,None,78,0,78,0,375.70102520000046,,,,,,,,,,,,,,,,,,,,,,,,,,,,,,,,,,,,,,,,,,,,,,,,,,375.68481500000007,375.70102520000046,376.2010175999999,376.1846096000004,376.19549099999995,376.2010175999999,376.2010175999999,376.2010175999999,386.90121279999994,Foils\050a.jpg,none,n,10.698167399999875,None,,,,,,,,00026,001,2025-11-11_05h50.27.008,MST_test,2024.2.2,60.00621664400952,2025-11-11 05h50.33.273289 +0530,
79,0,79,o,1.6732836999999563,None,79,0,79,0,386.91744549999976,,,,,,,,,,,,,,,,,,,,,,,,,,,,,,,,,,,,,,,,,,,,,,,,,,386.9013041000003,386.91744549999976,387.41740320000054,387.4010576000005,387.40525410000055,387.41740320000054,387.41740320000054,387.41740320000054,389.10104509999974,Objects\364a.jpg,mid,o,1.6732836999999563,None,,,,,,,,00026,001,2025-11-11_05h50.27.008,MST_test,2024.2.2,60.00621664400952,2025-11-11 05h50.33.273289 +0530,
80,0,80,s,3.5714239999997517,None,80,0,80,0,389.1173891000003,,,,,,,,,,,,,,,,,,,,,,,,,,,,,,,,,,,,,,,,,,,,,,,,,,389.1011203000003,389.1173891000003,389.63404649999984,389.6008495000001,389.62334260000034,389.63404649999984,389.63404649999984,389.63404649999984,393.2178079999999,Objects\001b.jpg,mid,s,3.5714239999997517,None,,,,,,,,00026,001,2025-11-11_05h50.27.008,MST_test,2024.2.2,60.00621664400952,2025-11-11 05h50.33.273289 +0530,
81,0,81,s,3.3546814000001177,None,81,0,81,0,393.2340048000001,,,,,,,,,,,,,,,,,,,,,,,,,,,,,,,,,,,,,,,,,,,,,,,,,,393.2179019,393.2340048000001,393.73393160000023,393.7176585000002,393.72506889999977,393.73393160000023,393.73393160000023,393.73393160000023,397.1009406999997,Foils\066a.jpg,none,s,3.3546814000001177,None,,,,,,,,00026,001,2025-11-11_05h50.27.008,MST_test,2024.2.2,60.00621664400952,2025-11-11 05h50.33.273289 +0530,
82,0,82,s,2.603041800000028,None,82,0,82,0,397.1172167,,,,,,,,,,,,,,,,,,,,,,,,,,,,,,,,,,,,,,,,,,,,,,,,,,397.1010232000003,397.1172167,397.6172105999999,397.6007992,397.6084235000003,397.6172105999999,397.6172105999999,397.6172105999999,400.23432170000024,Foils\057a.jpg,none,s,2.603041800000028,None,,,,,,,,00026,001,2025-11-11_05h50.27.008,MST_test,2024.2.2,60.00621664400952,2025-11-11 05h50.33.273289 +0530,
83,0,83,s,2.148164799999904,None,83,0,83,0,400.2505250999998,,,,,,,,,,,,,,,,,,,,,,,,,,,,,,,,,,,,,,,,,,,,,,,,,,400.23440830000027,400.2505250999998,400.7504233000004,400.7339973000003,400.74166300000024,400.7504233000004,400.7504233000004,400.7504233000004,402.9008219000002,Objects\369b.jpg,mid,s,2.148164799999904,None,,,,,,,,00026,001,2025-11-11_05h50.27.008,MST_test,2024.2.2,60.00621664400952,2025-11-11 05h50.33.273289 +0530,
84,0,84,o,3.202561699999933,None,84,0,84,0,402.9170803000002,,,,,,,,,,,,,,,,,,,,,,,,,,,,,,,,,,,,,,,,,,,,,,,,,,402.9009071000005,402.9170803000002,403.4337453000003,403.4007515999997,403.4193833000004,403.4337453000003,403.4337453000003,403.4337453000003,406.6506985000001,Objects\101b.jpg,mid,o,3.202561699999933,None,,,,,,,,00026,001,2025-11-11_05h50.27.008,MST_test,2024.2.2,60.00621664400952,2025-11-11 05h50.33.273289 +0530,
85,0,85,s,10.486248399999567,None,85,0,85,0,406.6669902999997,,,,,,,,,,,,,,,,,,,,,,,,,,,,,,,,,,,,,,,,,,,,,,,,,,406.6507869000002,406.6669902999997,407.1669456000004,407.1504643000003,407.15802399999984,407.1669456000004,407.1669456000004,407.1669456000004,417.6670783000004,Foils\020b.jpg,none,s,10.486248399999567,None,,,,,,,,00026,001,2025-11-11_05h50.27.008,MST_test,2024.2.2,60.00621664400952,2025-11-11 05h50.33.273289 +0530,
86,0,86,s,1.171203500000047,None,86,0,86,0,417.6834064999998,,,,,,,,,,,,,,,,,,,,,,,,,,,,,,,,,,,,,,,,,,,,,,,,,,417.66717089999975,417.6834064999998,418.2000208000004,418.16694270000016,418.1785818000003,418.2000208000004,418.2000208000004,418.2000208000004,419.3837294,Objects\097b.jpg,post,s,1.171203500000047,None,,,,,,,,00026,001,2025-11-11_05h50.27.008,MST_test,2024.2.2,60.00621664400952,2025-11-11 05h50.33.273289 +0530,
87,0,87,n,5.628767999999582,None,87,0,87,0,419.4000283999999,,,,,,,,,,,,,,,,,,,,,,,,,,,,,,,,,,,,,,,,,,,,,,,,,,419.38380670000015,419.4000283999999,419.9000388999998,419.8836315000003,419.8911242999998,419.9000388999998,419.9000388999998,419.9000388999998,425.5335412999998,Foils\034a.jpg,none,n,5.628767999999582,None,,,,,,,,00026,001,2025-11-11_05h50.27.008,MST_test,2024.2.2,60.00621664400952,2025-11-11 05h50.33.273289 +0530,
88,0,88,s,2.490844100000686,None,88,0,88,0,425.5498874,,,,,,,,,,,,,,,,,,,,,,,,,,,,,,,,,,,,,,,,,,,,,,,,,,425.5336167999999,425.5498874,426.0498768000002,426.0334496999999,426.0384175000004,426.0498768000002,426.0498768000002,426.0498768000002,428.5500919000001,Objects\288a.jpg,pre,s,2.490844100000686,None,,,,,,,,00026,001,2025-11-11_05h50.27.008,MST_test,2024.2.2,60.00621664400952,2025-11-11 05h50.33.273289 +0530,
89,0,89,s,2.2377832000001945,None,89,0,89,0,428.5664764999997,,,,,,,,,,,,,,,,,,,,,,,,,,,,,,,,,,,,,,,,,,,,,,,,,,428.55016399999977,428.5664764999997,429.08313659999976,429.0500925000001,429.0627231000003,429.08313659999976,429.08313659999976,429.08313659999976,431.33345430000054,Objects\108b.jpg,pre,s,2.2377832000001945,None,,,,,,,,00026,001,2025-11-11_05h50.27.008,MST_test,2024.2.2,60.00621664400952,2025-11-11 05h50.33.273289 +0530,
90,0,90,o,2.1801843999992343,None,90,0,90,0,431.34975429999986,,,,,,,,,,,,,,,,,,,,,,,,,,,,,,,,,,,,,,,,,,,,,,,,,,431.3335377999997,431.34975429999986,431.86639760000025,431.8331871000005,431.8548919,431.86639760000025,431.86639760000025,431.86639760000025,434.05022990000043,Objects\099b.jpg,post,o,2.1801843999992343,None,,,,,,,,00026,001,2025-11-11_05h50.27.008,MST_test,2024.2.2,60.00621664400952,2025-11-11 05h50.33.273289 +0530,
91,0,91,s,6.849536499999886,None,91,0,91,0,434.06635380000034,,,,,,,,,,,,,,,,,,,,,,,,,,,,,,,,,,,,,,,,,,,,,,,,,,434.0503104000004,434.06635380000034,434.5993276000004,434.5498259000001,434.5942159000001,434.5993276000004,434.5993276000004,434.5993276000004,441.44985450000013,Objects\281b.jpg,post,s,6.849536499999886,None,,,,,,,,00026,001,2025-11-11_05h50.27.008,MST_test,2024.2.2,60.00621664400952,2025-11-11 05h50.33.273289 +0530,
92,0,92,o,1.6216603000002578,None,92,0,92,0,441.46627149999995,,,,,,,,,,,,,,,,,,,,,,,,,,,,,,,,,,,,,,,,,,,,,,,,,,441.4499361000003,441.46627149999995,441.9662967999998,441.9497139,441.95394290000013,441.9662967999998,441.9662967999998,441.9662967999998,443.59979840000005,Objects\210a.jpg,mid,o,1.6216603000002578,None,,,,,,,,00026,001,2025-11-11_05h50.27.008,MST_test,2024.2.2,60.00621664400952,2025-11-11 05h50.33.273289 +0530,
93,0,93,o,2.8565380999998524,None,93,0,93,0,443.61624690000053,,,,,,,,,,,,,,,,,,,,,,,,,,,,,,,,,,,,,,,,,,,,,,,,,,443.5998738000003,443.61624690000053,444.11619160000055,444.0997828000004,444.1052375000004,444.11619160000055,444.11619160000055,444.11619160000055,446.98307890000024,Objects\374a.jpg,pre,o,2.8565380999998524,None,,,,,,,,00026,001,2025-11-11_05h50.27.008,MST_test,2024.2.2,60.00621664400952,2025-11-11 05h50.33.273289 +0530,
94,0,94,o,1.290035899999566,None,94,0,94,0,446.99951250000004,,,,,,,,,,,,,,,,,,,,,,,,,,,,,,,,,,,,,,,,,,,,,,,,,,446.98316209999984,446.99951250000004,447.4994405000002,447.48291720000043,447.4882891000002,447.4994405000002,447.4994405000002,447.4994405000002,448.79982210000026,Objects\219a.jpg,pre,o,1.290035899999566,None,,,,,,,,00026,001,2025-11-11_05h50.27.008,MST_test,2024.2.2,60.00621664400952,2025-11-11 05h50.33.273289 +0530,
95,0,95,o,1.2506689000001643,None,95,0,95,0,448.81613849999985,,,,,,,,,,,,,,,,,,,,,,,,,,,,,,,,,,,,,,,,,,,,,,,,,,448.79990399999997,448.81613849999985,449.3327954000001,449.2996086999997,449.3196356000003,449.3327954000001,449.3327954000001,449.3327954000001,450.59986119999985,Objects\181b.jpg,mid,o,1.2506689000001643,None,,,,,,,,00026,001,2025-11-11_05h50.27.008,MST_test,2024.2.2,60.00621664400952,2025-11-11 05h50.33.273289 +0530,
96,0,96,o,1.4042688999998063,None,96,0,96,0,450.61606919999986,,,,,,,,,,,,,,,,,,,,,,,,,,,,,,,,,,,,,,,,,,,,,,,,,,450.5999529000005,450.61606919999986,451.11603950000017,451.09968080000044,451.10185599999977,451.11603950000017,451.11603950000017,451.11603950000017,452.53292120000015,Objects\037a.jpg,mid,o,1.4042688999998063,None,,,,,,,,00026,001,2025-11-11_05h50.27.008,MST_test,2024.2.2,60.00621664400952,2025-11-11 05h50.33.273289 +0530,
97,0,97,o,1.0632330999997066,None,97,0,97,0,452.5492128000001,,,,,,,,,,,,,,,,,,,,,,,,,,,,,,,,,,,,,,,,,,,,,,,,,,452.5329975999998,452.5492128000001,453.0493228999999,453.0329263999997,453.0348992000004,453.0493228999999,453.0493228999999,453.0493228999999,454.11636769999996,Objects\177a.jpg,post,o,1.0632330999997066,None,,,,,,,,00026,001,2025-11-11_05h50.27.008,MST_test,2024.2.2,60.00621664400952,2025-11-11 05h50.33.273289 +0530,
98,0,98,s,6.938807900000029,None,98,0,98,0,454.1327406000005,,,,,,,,,,,,,,,,,,,,,,,,,,,,,,,,,,,,,,,,,,,,,,,,,,454.1164426,454.1327406000005,454.6326125999999,454.6162638999999,454.62413849999984,454.6326125999999,454.6326125999999,454.6326125999999,461.58269770000015,Foils\121a.jpg,none,s,6.938807900000029,None,,,,,,,,00026,001,2025-11-11_05h50.27.008,MST_test,2024.2.2,60.00621664400952,2025-11-11 05h50.33.273289 +0530,
99,0,99,o,2.8155102000000625,None,99,0,99,0,461.5991435000001,,,,,,,,,,,,,,,,,,,,,,,,,,,,,,,,,,,,,,,,,,,,,,,,,,461.58278569999993,461.5991435000001,462.1153958,462.08258090000027,462.11014550000027,462.1153958,462.1153958,462.1153958,464.9326495999999,Objects\220b.jpg,post,o,2.8155102000000625,None,,,,,,,,00026,001,2025-11-11_05h50.27.008,MST_test,2024.2.2,60.00621664400952,2025-11-11 05h50.33.273289 +0530,
100,0,100,o,5.121729500000583,None,100,0,100,0,464.9489887000004,,,,,,,,,,,,,,,,,,,,,,,,,,,,,,,,,,,,,,,,,,,,,,,,,,464.93273050000016,464.9489887000004,465.46569430000045,465.4326427000001,465.45128239999985,465.46569430000045,465.46569430000045,465.46569430000045,470.5993132999997,Objects\141b.jpg,pre,o,5.121729500000583,None,,,,,,,,00026,001,2025-11-11_05h50.27.008,MST_test,2024.2.2,60.00621664400952,2025-11-11 05h50.33.273289 +0530,
101,0,101,n,4.034759099999974,None,101,0,101,0,470.6156328000002,,,,,,,,,,,,,,,,,,,,,,,,,,,,,,,,,,,,,,,,,,,,,,,,,,470.5993875999998,470.6156328000002,471.1155917000001,471.09905990000016,471.1065517000002,471.1155917000001,471.1155917000001,471.1155917000001,475.16575909999983,Foils\026a.jpg,none,n,4.034759099999974,None,,,,,,,,00026,001,2025-11-11_05h50.27.008,MST_test,2024.2.2,60.00621664400952,2025-11-11 05h50.33.273289 +0530,
102,0,102,s,1.8857459999999264,None,102,0,102,0,475.1821659000002,,,,,,,,,,,,,,,,,,,,,,,,,,,,,,,,,,,,,,,,,,,,,,,,,,475.1658314000001,475.1821659000002,475.6987958000004,475.6656017999999,475.6802035000005,475.6987958000004,475.6987958000004,475.6987958000004,477.5990009000002,Objects\142b.jpg,mid,s,1.8857459999999264,None,,,,,,,,00026,001,2025-11-11_05h50.27.008,MST_test,2024.2.2,60.00621664400952,2025-11-11 05h50.33.273289 +0530,
103,0,103,s,2.7379601000002367,None,103,0,103,0,477.6154736000003,,,,,,,,,,,,,,,,,,,,,,,,,,,,,,,,,,,,,,,,,,,,,,,,,,477.59908029999997,477.6154736000003,478.1154620000002,478.0988924999997,478.10088210000004,478.1154620000002,478.1154620000002,478.1154620000002,480.86570729999994,Objects\011a.jpg,post,s,2.7379601000002367,None,,,,,,,,00026,001,2025-11-11_05h50.27.008,MST_test,2024.2.2,60.00621664400952,2025-11-11 05h50.33.273289 +0530,
104,0,104,n,2.396919699999671,None,104,0,104,0,480.88206000000037,,,,,,,,,,,,,,,,,,,,,,,,,,,,,,,,,,,,,,,,,,,,,,,,,,480.8657844000004,480.88206000000037,481.38200110000025,481.36555590000034,481.37323830000014,481.38200110000025,481.38200110000025,481.38200110000025,483.7822121000004,Foils\081a.jpg,none,n,2.396919699999671,None,,,,,,,,00026,001,2025-11-11_05h50.27.008,MST_test,2024.2.2,60.00621664400952,2025-11-11 05h50.33.273289 +0530,
105,0,105,o,1.7899002000003748,None,105,0,105,0,483.7986771000001,,,,,,,,,,,,,,,,,,,,,,,,,,,,,,,,,,,,,,,,,,,,,,,,,,483.782291,483.7986771000001,484.2985945000005,484.2821239,484.28699989999996,484.2985945000005,484.2985945000005,484.2985945000005,486.09886700000015,Objects\346a.jpg,pre,o,1.7899002000003748,None,,,,,,,,00026,001,2025-11-11_05h50.27.008,MST_test,2024.2.2,60.00621664400952,2025-11-11 05h50.33.273289 +0530,
106,0,106,o,1.9922398000007888,None,106,0,106,0,486.11523369999986,,,,,,,,,,,,,,,,,,,,,,,,,,,,,,,,,,,,,,,,,,,,,,,,,,486.09893859999966,486.11523369999986,486.6484919999998,486.59869800000024,486.6281678999999,486.6484919999998,486.6484919999998,486.6484919999998,488.6489478999997,Objects\162b.jpg,post,o,1.9922398000007888,None,,,,,,,,00026,001,2025-11-11_05h50.27.008,MST_test,2024.2.2,60.00621664400952,2025-11-11 05h50.33.273289 +0530,
107,0,107,s,2.7953233999996883,None,107,0,107,0,488.66514400000005,,,,,,,,,,,,,,,,,,,,,,,,,,,,,,,,,,,,,,,,,,,,,,,,,,488.6490208,488.66514400000005,489.16517950000025,489.1486153000001,489.15767780000033,489.16517950000025,489.16517950000025,489.16517950000025,491.96535939999967,Foils\086a.jpg,none,s,2.7953233999996883,None,,,,,,,,00026,001,2025-11-11_05h50.27.008,MST_test,2024.2.2,60.00621664400952,2025-11-11 05h50.33.273289 +0530,
108,0,108,n,2.97063849999995,None,108,0,108,0,491.9816993999998,,,,,,,,,,,,,,,,,,,,,,,,,,,,,,,,,,,,,,,,,,,,,,,,,,491.9654344000005,491.9816993999998,492.4812692999999,492.4653824000002,492.4769854000001,492.4812692999999,492.4812692999999,492.4812692999999,495.4652081999998,Objects\263b.jpg,pre,n,2.97063849999995,None,,,,,,,,00026,001,2025-11-11_05h50.27.008,MST_test,2024.2.2,60.00621664400952,2025-11-11 05h50.33.273289 +0530,
109,0,109,s,1.5662613000004058,None,109,0,109,0,495.48167220000005,,,,,,,,,,,,,,,,,,,,,,,,,,,,,,,,,,,,,,,,,,,,,,,,,,495.46528420000004,495.48167220000005,495.9815628000001,495.9651669,495.97009389999994,495.9815628000001,495.9815628000001,495.9815628000001,497.54861180000034,Objects\209a.jpg,pre,s,1.5662613000004058,None,,,,,,,,00026,001,2025-11-11_05h50.27.008,MST_test,2024.2.2,60.00621664400952,2025-11-11 05h50.33.273289 +0530,
110,0,110,s,1.4586202000000412,None,110,0,110,0,497.5649248000004,,,,,,,,,,,,,,,,,,,,,,,,,,,,,,,,,,,,,,,,,,,,,,,,,,497.5486942000002,497.5649248000004,498.0815438000004,498.04858300000024,498.07210090000035,498.0815438000004,498.0815438000004,498.0815438000004,499.54853219999995,Objects\072b.jpg,post,s,1.4586202000000412,None,,,,,,,,00026,001,2025-11-11_05h50.27.008,MST_test,2024.2.2,60.00621664400952,2025-11-11 05h50.33.273289 +0530,
111,0,111,s,7.531049100000018,None,111,0,111,0,499.5648494000002,,,,,,,,,,,,,,,,,,,,,,,,,,,,,,,,,,,,,,,,,,,,,,,,,,499.5486100000003,499.5648494000002,500.08151229999976,500.04844319999984,500.0739287000001,500.08151229999976,500.08151229999976,500.08151229999976,507.61504860000014,Objects\284b.jpg,mid,s,7.531049100000018,None,,,,,,,,00026,001,2025-11-11_05h50.27.008,MST_test,2024.2.2,60.00621664400952,2025-11-11 05h50.33.273289 +0530,
112,0,112,o,3.777264600000308,None,112,0,112,0,507.6313247000003,,,,,,,,,,,,,,,,,,,,,,,,,,,,,,,,,,,,,,,,,,,,,,,,,,507.6151424000004,507.6313247000003,508.1312800999999,508.11483309999994,508.12033269999984,508.1312800999999,508.1312800999999,508.1312800999999,511.9148502000003,Objects\173a.jpg,mid,o,3.777264600000308,None,,,,,,,,00026,001,2025-11-11_05h50.27.008,MST_test,2024.2.2,60.00621664400952,2025-11-11 05h50.33.273289 +0530,
113,0,113,o,1.6039447000002838,None,113,0,113,0,511.93123270000024,,,,,,,,,,,,,,,,,,,,,,,,,,,,,,,,,,,,,,,,,,,,,,,,,,511.9149385000005,511.93123270000024,512.4311897000002,512.4148264999999,512.4169127999999,512.4311897000002,512.4311897000002,512.4311897000002,514.0482202999997,Objects\140a.jpg,post,o,1.6039447000002838,None,,,,,,,,00026,001,2025-11-11_05h50.27.008,MST_test,2024.2.2,60.00621664400952,2025-11-11 05h50.33.273289 +0530,
114,0,114,n,3.6282060000003185,None,114,0,114,0,514.0644819000004,,,,,,,,,,,,,,,,,,,,,,,,,,,,,,,,,,,,,,,,,,,,,,,,,,514.0482902999997,514.0644819000004,514.5644895999999,514.5481892000003,514.5564575000003,514.5644895999999,514.5644895999999,514.5644895999999,518.1982306000004,Foils\033a.jpg,none,n,3.6282060000003185,None,,,,,,,,00026,001,2025-11-11_05h50.27.008,MST_test,2024.2.2,60.00621664400952,2025-11-11 05h50.33.273289 +0530,
115,0,115,s,3.2747433000004094,None,115,0,115,0,518.2144990000002,,,,,,,,,,,,,,,,,,,,,,,,,,,,,,,,,,,,,,,,,,,,,,,,,,518.1983178000005,518.2144990000002,518.7143754000003,518.6980156000004,518.6999842999999,518.7143754000003,518.7143754000003,518.7143754000003,521.9981006000003,Objects\154a.jpg,post,s,3.2747433000004094,None,,,,,,,,00026,001,2025-11-11_05h50.27.008,MST_test,2024.2.2,60.00621664400952,2025-11-11 05h50.33.273289 +0530,
116,0,116,n,4.599901700000373,None,116,0,116,0,522.0143380000004,,,,,,,,,,,,,,,,,,,,,,,,,,,,,,,,,,,,,,,,,,,,,,,,,,521.9981841000003,522.0143380000004,522.5309872000003,522.4978220999997,522.5177160999997,522.5309872000003,522.5309872000003,522.5309872000003,527.1312938000005,Foils\f7.jpg,none,n,4.599901700000373,None,,,,,,,,00026,001,2025-11-11_05h50.27.008,MST_test,2024.2.2,60.00621664400952,2025-11-11 05h50.33.273289 +0530,
117,0,117,s,2.5000637000002826,None,117,0,117,0,527.1475481000002,,,,,,,,,,,,,,,,,,,,,,,,,,,,,,,,,,,,,,,,,,,,,,,,,,527.1313803999997,527.1475481000002,527.6642155000004,527.6311290999997,527.6504559999998,527.6642155000004,527.6642155000004,527.6642155000004,530.1645972000001,Objects\133b.jpg,post,s,2.5000637000002826,None,,,,,,,,00026,001,2025-11-11_05h50.27.008,MST_test,2024.2.2,60.00621664400952,2025-11-11 05h50.33.273289 +0530,
118,0,118,n,3.158798499999648,None,118,0,118,0,530.1808388000004,,,,,,,,,,,,,,,,,,,,,,,,,,,,,,,,,,,,,,,,,,,,,,,,,,530.1646807000002,530.1808388000004,530.6974728,530.6642852,530.6863639999997,530.6974728,530.6974728,530.6974728,533.8644528999998,Foils\f5.jpg,none,n,3.158798499999648,None,,,,,,,,00026,001,2025-11-11_05h50.27.008,MST_test,2024.2.2,60.00621664400952,2025-11-11 05h50.33.273289 +0530,
119,0,119,s,1.5944913000002998,None,119,0,119,0,533.8807278999998,,,,,,,,,,,,,,,,,,,,,,,,,,,,,,,,,,,,,,,,,,,,,,,,,,533.8645366000005,533.8807278999998,534.4139295999998,534.3642090999997,534.409064,534.4139295999998,534.4139295999998,534.4139295999998,536.0143174999998,Objects\115b.jpg,mid,s,1.5944913000002998,None,,,,,,,,00026,001,2025-11-11_05h50.27.008,MST_test,2024.2.2,60.00621664400952,2025-11-11 05h50.33.273289 +0530,
120,0,120,s,2.2557463000002826,None,120,0,120,0,536.0306710999998,,,,,,,,,,,,,,,,,,,,,,,,,,,,,,,,,,,,,,,,,,,,,,,,,,536.0143990000001,536.0306710999998,536.5473325999997,536.5141520000002,536.5344854999998,536.5473325999997,536.5473325999997,536.5473325999997,538.8153701000006,Objects\057b.jpg,pre,s,2.2557463000002826,None,,,,,,,,00026,001,2025-11-11_05h50.27.008,MST_test,2024.2.2,60.00621664400952,2025-11-11 05h50.33.273289 +0530,
121,0,121,n,2.9197026000001642,None,121,0,121,0,538.8306118000005,,,,,,,,,,,,,,,,,,,,,,,,,,,,,,,,,,,,,,,,,,,,,,,,,,538.8154510999998,538.8306118000005,539.3306261000002,539.3140868000005,539.3221932000001,539.3306261000002,539.3306261000002,539.3306261000002,542.2641589,Foils\002a.jpg,none,n,2.9197026000001642,None,,,,,,,,00026,001,2025-11-11_05h50.27.008,MST_test,2024.2.2,60.00621664400952,2025-11-11 05h50.33.273289 +0530,
122,0,122,s,2.8818234000000302,None,122,0,122,0,542.2805291999998,,,,,,,,,,,,,,,,,,,,,,,,,,,,,,,,,,,,,,,,,,,,,,,,,,542.2642356000001,542.2805291999998,542.7805025000002,542.7640309000003,542.7723305000004,542.7805025000002,542.7805025000002,542.7805025000002,545.6642047999999,Objects\106b.jpg,post,s,2.8818234000000302,None,,,,,,,,00026,001,2025-11-11_05h50.27.008,MST_test,2024.2.2,60.00621664400952,2025-11-11 05h50.33.273289 +0530,
123,0,123,s,1.7054683999995177,None,123,0,123,0,545.6804502,,,,,,,,,,,,,,,,,,,,,,,,,,,,,,,,,,,,,,,,,,,,,,,,,,545.6642883999998,545.6804502,546.1966961000003,546.1639369,546.1916623000002,546.1966961000003,546.1966961000003,546.1966961000003,547.9139461,Objects\355b.jpg,post,s,1.7054683999995177,None,,,,,,,,00026,001,2025-11-11_05h50.27.008,MST_test,2024.2.2,60.00621664400952,2025-11-11 05h50.33.273289 +0530,
124,0,124,s,1.343898199999785,None,124,0,124,0,547.9303999999997,,,,,,,,,,,,,,,,,,,,,,,,,,,,,,,,,,,,,,,,,,,,,,,,,,547.9140219000005,547.9303999999997,548.4470667,548.4138342000001,548.4352214000005,548.4470667,548.4470667,548.4470667,549.7973330999998,Objects\098b.jpg,pre,s,1.343898199999785,None,,,,,,,,00026,001,2025-11-11_05h50.27.008,MST_test,2024.2.2,60.00621664400952,2025-11-11 05h50.33.273289 +0530,
125,0,125,o,2.044540199999574,None,125,0,125,0,549.8136675000001,,,,,,,,,,,,,,,,,,,,,,,,,,,,,,,,,,,,,,,,,,,,,,,,,,549.7974141999998,549.8136675000001,550.3137999000005,550.2972723999997,550.3021974999997,550.3137999000005,550.3137999000005,550.3137999000005,552.3640128000002,Objects\332a.jpg,mid,o,2.044540199999574,None,,,,,,,,00026,001,2025-11-11_05h50.27.008,MST_test,2024.2.2,60.00621664400952,2025-11-11 05h50.33.273289 +0530,
126,0,126,o,2.4500160999996297,None,126,0,126,0,552.38042,,,,,,,,,,,,,,,,,,,,,,,,,,,,,,,,,,,,,,,,,,,,,,,,,,552.3640847000001,552.38042,552.8970107,552.8639522999997,552.8834806999998,552.8970107,552.8970107,552.8970107,555.3473967000004,Objects\091b.jpg,pre,o,2.4500160999996297,None,,,,,,,,00026,001,2025-11-11_05h50.27.008,MST_test,2024.2.2,60.00621664400952,2025-11-11 05h50.33.273289 +0530,
127,0,127,o,1.1912739999997939,None,127,0,127,0,555.3636929999998,,,,,,,,,,,,,,,,,,,,,,,,,,,,,,,,,,,,,,,,,,,,,,,,,,555.3474739999997,555.3636929999998,555.8636079000003,555.8471782000001,555.8492443999999,555.8636079000003,555.8636079000003,555.8636079000003,557.0639433000001,Objects\313a.jpg,post,o,1.1912739999997939,None,,,,,,,,00026,001,2025-11-11_05h50.27.008,MST_test,2024.2.2,60.00621664400952,2025-11-11 05h50.33.273289 +0530,
128,0,128,o,1.2965552000005118,None,128,0,128,0,557.0803112999997,,,,,,,,,,,,,,,,,,,,,,,,,,,,,,,,,,,,,,,,,,,,,,,,,,557.0640151000002,557.0803112999997,557.5802338999997,557.5638260000001,557.5659972999997,557.5802338999997,557.5802338999997,557.5802338999997,558.8806011000001,Objects\285a.jpg,pre,o,1.2965552000005118,None,,,,,,,,00026,001,2025-11-11_05h50.27.008,MST_test,2024.2.2,60.00621664400952,2025-11-11 05h50.33.273289 +0530,
129,0,129,n,8.69378979999965,None,129,0,129,0,558.8968983,,,,,,,,,,,,,,,,,,,,,,,,,,,,,,,,,,,,,,,,,,,,,,,,,,558.8806833000003,558.8968983,559.3968663,559.3804556999999,559.3880841000005,559.3968663,559.3968663,559.3968663,568.0971135000004,Foils\113a.jpg,none,n,8.69378979999965,None,,,,,,,,00026,001,2025-11-11_05h50.27.008,MST_test,2024.2.2,60.00621664400952,2025-11-11 05h50.33.273289 +0530,
130,0,130,s,1.513081900000543,None,130,0,130,0,568.1133912,,,,,,,,,,,,,,,,,,,,,,,,,,,,,,,,,,,,,,,,,,,,,,,,,,568.0971927000005,568.1133912,568.6300474000004,568.5969559,568.6182408,568.6300474000004,568.6300474000004,568.6300474000004,570.1471309000003,Objects\212b.jpg,post,s,1.513081900000543,None,,,,,,,,00026,001,2025-11-11_05h50.27.008,MST_test,2024.2.2,60.00621664400952,2025-11-11 05h50.33.273289 +0530,
131,0,131,o,3.6726112999995166,None,131,0,131,0,570.1632850999999,,,,,,,,,,,,,,,,,,,,,,,,,,,,,,,,,,,,,,,,,,,,,,,,,,570.1472223000005,570.1632850999999,570.6800102000002,570.6467562000003,570.6657491999999,570.6800102000002,570.6800102000002,570.6800102000002,574.3634345000005,Objects\128b.jpg,pre,o,3.6726112999995166,None,,,,,,,,00026,001,2025-11-11_05h50.27.008,MST_test,2024.2.2,60.00621664400952,2025-11-11 05h50.33.273289 +0530,
132,0,132,o,1.4466817000002266,None,132,0,132,0,574.3799279999998,,,,,,,,,,,,,,,,,,,,,,,,,,,,,,,,,,,,,,,,,,,,,,,,,,574.3635082000005,574.3799279999998,574.8799487000001,574.8633007000003,574.8653318000001,574.8799487000001,574.8799487000001,574.8799487000001,576.3300888999997,Objects\186a.jpg,post,o,1.4466817000002266,None,,,,,,,,00026,001,2025-11-11_05h50.27.008,MST_test,2024.2.2,60.00621664400952,2025-11-11 05h50.33.273289 +0530,
133,0,133,o,1.2963552999999592,None,133,0,133,0,576.3465324000003,,,,,,,,,,,,,,,,,,,,,,,,,,,,,,,,,,,,,,,,,,,,,,,,,,576.3301621000005,576.3465324000003,576.8798616999998,576.8300650000006,576.8610169999997,576.8798616999998,576.8798616999998,576.8798616999998,578.1801699000002,Objects\166b.jpg,post,o,1.2963552999999592,None,,,,,,,,00026,001,2025-11-11_05h50.27.008,MST_test,2024.2.2,60.00621664400952,2025-11-11 05h50.33.273289 +0530,
134,0,134,n,3.1099145999996836,None,134,0,134,0,578.1964536,,,,,,,,,,,,,,,,,,,,,,,,,,,,,,,,,,,,,,,,,,,,,,,,,,578.1802441000004,578.1964536,578.6964476999997,578.6800218000003,578.6874035000005,578.6964476999997,578.6964476999997,578.6964476999997,581.8133400000002,Foils\106a.jpg,none,n,3.1099145999996836,None,,,,,,,,00026,001,2025-11-11_05h50.27.008,MST_test,2024.2.2,60.00621664400952,2025-11-11 05h50.33.273289 +0530,
135,0,135,s,1.5265000999997937,None,135,0,135,0,581.8297403000001,,,,,,,,,,,,,,,,,,,,,,,,,,,,,,,,,,,,,,,,,,,,,,,,,,581.8134215000005,581.8297403000001,582.3296723999997,582.3131625000001,582.3211768000006,582.3296723999997,582.3296723999997,582.3296723999997,583.8633203000004,Objects\073b.jpg,pre,s,1.5265000999997937,None,,,,,,,,00026,001,2025-11-11_05h50.27.008,MST_test,2024.2.2,60.00621664400952,2025-11-11 05h50.33.273289 +0530,
136,0,136,n,4.0504055000001244,None,136,0,136,0,583.8796511000005,,,,,,,,,,,,,,,,,,,,,,,,,,,,,,,,,,,,,,,,,,,,,,,,,,583.8633925999998,583.8796511000005,584.3963528999998,584.3631460000001,584.3760735000001,584.3963528999998,584.3963528999998,584.3963528999998,588.4632305,Objects\084b.jpg,post,n,4.0504055000001244,None,,,,,,,,00026,001,2025-11-11_05h50.27.008,MST_test,2024.2.2,60.00621664400952,2025-11-11 05h50.33.273289 +0530,
137,0,137,s,1.9141467999997985,None,137,0,137,0,588.4795307999998,,,,,,,,,,,,,,,,,,,,,,,,,,,,,,,,,,,,,,,,,,,,,,,,,,588.4633096000002,588.4795307999998,588.9961785999999,588.9630481999998,588.9861381000005,588.9961785999999,588.9961785999999,588.9961785999999,590.9131831999998,Foils\f6.jpg,none,s,1.9141467999997985,None,,,,,,,,00026,001,2025-11-11_05h50.27.008,MST_test,2024.2.2,60.00621664400952,2025-11-11 05h50.33.273289 +0530,
138,0,138,s,1.457665700000689,None,138,0,138,0,590.9295368999997,,,,,,,,,,,,,,,,,,,,,,,,,,,,,,,,,,,,,,,,,,,,,,,,,,590.9132593999998,590.9295368999997,591.4290305,591.4129907000001,591.4243412000001,591.4290305,591.4290305,591.4290305,592.8963401000005,Objects\190b.jpg,mid,s,1.457665700000689,None,,,,,,,,00026,001,2025-11-11_05h50.27.008,MST_test,2024.2.2,60.00621664400952,2025-11-11 05h50.33.273289 +0530,
139,0,139,o,1.97995869999977,None,139,0,139,0,592.9128216000004,,,,,,,,,,,,,,,,,,,,,,,,,,,,,,,,,,,,,,,,,,,,,,,,,,592.8964120000005,592.9128216000004,593.4127617999998,593.3962690000003,593.3981214,593.4127617999998,593.4127617999998,593.4127617999998,595.3963051000005,Objects\004a.jpg,pre,o,1.97995869999977,None,,,,,,,,00026,001,2025-11-11_05h50.27.008,MST_test,2024.2.2,60.00621664400952,2025-11-11 05h50.33.273289 +0530,
140,0,140,o,1.2488315000000512,None,140,0,140,0,595.4127647999999,,,,,,,,,,,,,,,,,,,,,,,,,,,,,,,,,,,,,,,,,,,,,,,,,,595.3963810999999,595.4127647999999,595.9293856999998,595.8961479000004,595.9177439999999,595.9293856999998,595.9293856999998,595.9293856999998,597.1797566,Objects\170b.jpg,mid,o,1.2488315000000512,None,,,,,,,,00026,001,2025-11-11_05h50.27.008,MST_test,2024.2.2,60.00621664400952,2025-11-11 05h50.33.273289 +0530,
141,0,141,n,10.471162600000753,None,141,0,141,0,597.1959957000004,,,,,,,,,,,,,,,,,,,,,,,,,,,,,,,,,,,,,,,,,,,,,,,,,,597.1798352999999,597.1959957000004,597.6960337000005,597.6795457000003,597.6871505000004,597.6960337000005,597.6960337000005,597.6960337000005,608.1793751,Foils\098a.jpg,none,n,10.471162600000753,None,,,,,,,,00026,001,2025-11-11_05h50.27.008,MST_test,2024.2.2,60.00621664400952,2025-11-11 05h50.33.273289 +0530,
142,0,142,o,1.6072069000001648,None,142,0,142,0,608.1957689000005,,,,,,,,,,,,,,,,,,,,,,,,,,,,,,,,,,,,,,,,,,,,,,,,,,608.1794653000002,608.1957689000005,608.7291903,608.6792477000004,608.7191134999998,608.7291903,608.7291903,608.7291903,610.3459189,Objects\306b.jpg,mid,o,1.6072069000001648,None,,,,,,,,00026,001,2025-11-11_05h50.27.008,MST_test,2024.2.2,60.00621664400952,2025-11-11 05h50.33.273289 +0530,
143,0,143,n,3.2791784000000916,None,143,0,143,0,610.3623276000003,,,,,,,,,,,,,,,,,,,,,,,,,,,,,,,,,,,,,,,,,,,,,,,,,,610.3459985000004,610.3623276000003,610.8789614000002,610.8457844,610.8639006999997,610.8789614000002,610.8789614000002,610.8789614000002,614.1625182000002,Objects\126b.jpg,post,n,3.2791784000000916,None,,,,,,,,00026,001,2025-11-11_05h50.27.008,MST_test,2024.2.2,60.00621664400952,2025-11-11 05h50.33.273289 +0530,
144,0,144,s,6.411255099999835,None,144,0,144,0,614.1788913000005,,,,,,,,,,,,,,,,,,,,,,,,,,,,,,,,,,,,,,,,,,,,,,,,,,614.1625970999999,614.1788913000005,614.6955294000004,614.6624305999999,614.6827236000004,614.6955294000004,614.6955294000004,614.6955294000004,621.1123676000002,Objects\105b.jpg,mid,s,6.411255099999835,None,,,,,,,,00026,001,2025-11-11_05h50.27.008,MST_test,2024.2.2,60.00621664400952,2025-11-11 05h50.33.273289 +0530,
145,0,145,n,7.474970500000381,None,145,0,145,0,621.1286806000003,,,,,,,,,,,,,,,,,,,,,,,,,,,,,,,,,,,,,,,,,,,,,,,,,,621.1124518000001,621.1286806000003,621.6454539000001,621.6122417000001,621.6313511000003,621.6454539000001,621.6454539000001,621.6454539000001,629.1288737,Objects\054b.jpg,pre,n,7.474970500000381,None,,,,,,,,00026,001,2025-11-11_05h50.27.008,MST_test,2024.2.2,60.00621664400952,2025-11-11 05h50.33.273289 +0530,
146,0,146,n,13.139524700000038,None,146,0,146,0,629.1451602000002,,,,,,,,,,,,,,,,,,,,,,,,,,,,,,,,,,,,,,,,,,,,,,,,,,629.1289610999997,629.1451602000002,629.6451880999998,629.6288316000005,629.6308561999999,629.6451880999998,629.6451880999998,629.6451880999998,642.7952731999999,Objects\168a.jpg,pre,n,13.139524700000038,None,,,,,,,,00026,001,2025-11-11_05h50.27.008,MST_test,2024.2.2,60.00621664400952,2025-11-11 05h50.33.273289 +0530,
147,0,147,s,4.244369000000006,None,147,0,147,0,642.8115510000002,,,,,,,,,,,,,,,,,,,,,,,,,,,,,,,,,,,,,,,,,,,,,,,,,,642.7953494999997,642.8115510000002,643.3114983999999,643.2950814999999,643.2994561,643.3114983999999,643.3114983999999,643.3114983999999,647.5618445000005,Objects\287a.jpg,post,s,4.244369000000006,None,,,,,,,,00026,001,2025-11-11_05h50.27.008,MST_test,2024.2.2,60.00621664400952,2025-11-11 05h50.33.273289 +0530,
148,0,148,o,1.2323117999994793,None,148,0,148,0,647.5781031000001,,,,,,,,,,,,,,,,,,,,,,,,,,,,,,,,,,,,,,,,,,,,,,,,,,647.5619201000004,647.5781031000001,648.0781102000005,648.0616820999999,648.0676957999999,648.0781102000005,648.0781102000005,648.0781102000005,649.3116955999999,Objects\384a.jpg,mid,o,1.2323117999994793,None,,,,,,,,00026,001,2025-11-11_05h50.27.008,MST_test,2024.2.2,60.00621664400952,2025-11-11 05h50.33.273289 +0530,
149,0,149,o,2.659110999999939,None,149,0,149,0,649.3280841999999,,,,,,,,,,,,,,,,,,,,,,,,,,,,,,,,,,,,,,,,,,,,,,,,,,649.3117692000001,649.3280841999999,649.8280460999999,649.8115097000004,649.8220173000004,649.8280460999999,649.8280460999999,649.8280460999999,652.4949522000002,Objects\208b.jpg,pre,o,2.659110999999939,None,,,,,,,,00026,001,2025-11-11_05h50.27.008,MST_test,2024.2.2,60.00621664400952,2025-11-11 05h50.33.273289 +0530,
,,,,,,,,,,,,,,,,,,,,,,,,,,,,,,,,,,,,,,,,,,,,,,,,,,,,,,,,,,,,,,,,,,,,,,,,,,652.4950083999997,652.5112878000004,652.5112878000004,711.6935752000004,space,59.165504799999326,None,00026,001,2025-11-11_05h50.27.008,MST_test,2024.2.2,60.00621664400952,2025-11-11 05h50.33.273289 +0530,
