Sl_no,image_path,thisN,thisTrialN,thisRepN,key_resp_5.keys,key_resp_7.keys,key_resp_7.rt,key_resp_7.duration,key_resp_5.rt,key_resp_5.duration,key_resp_9.keys,key_resp_9.rt,key_resp_9.duration,key_resp_8.keys,key_resp_8.rt,key_resp_8.duration,practice.thisRepN,practice.thisTrialN,practice.thisN,practice.thisIndex,trials.thisRepN,trials.thisTrialN,trials.thisN,trials.thisIndex,thisRow.t,notes,welcome_page.started,text.started,key_resp.started,welcome_page.stopped,key_resp.keys,key_resp.rt,key_resp.duration,instructions.started,ins.started,key_resp_2.started,instructions.stopped,key_resp_2.keys,key_resp_2.rt,key_resp_2.duration,objects_only_instruction.started,text_3.started,key_resp_3.started,objects_only_instruction.stopped,key_resp_3.keys,key_resp_3.rt,key_resp_3.duration,ISI.started,text_4.started,text_4.stopped,ISI.stopped,practice_block.started,image.started,key_resp_5.started,text_5.started,practice_block.stopped,practice.key_resp_5.keys,indoor_outdoor.started,text_7.started,key_resp_7.started,indoor_outdoor.stopped,practice.key_resp_7.keys,practice.key_resp_7.rt,practice.key_resp_7.duration,practice.key_resp_5.rt,practice.key_resp_5.duration,image.stopped,key_resp_5.stopped,text_5.stopped,practice_to_main.started,text_2.started,key_resp_4.started,practice_to_main.stopped,key_resp_4.keys,key_resp_4.rt,key_resp_4.duration,objects.started,image_2.started,text_9.started,key_resp_9.started,objects.stopped,category,trials.key_resp_9.keys,trials.key_resp_9.rt,trials.key_resp_9.duration,encoding_task.started,encoding_task.stopped,trials.key_resp_8.keys,text_8.started,key_resp_8.started,trials.key_resp_8.rt,trials.key_resp_8.duration,image_2.stopped,text_9.stopped,key_resp_9.stopped,end_experiment.started,text_6.started,key_resp_6.started,end_experiment.stopped,key_resp_6.keys,key_resp_6.rt,key_resp_6.duration,list_of_stimuli,encoding_task_accuracy,participant,session,date,expName,psychopyVersion,frameRate,expStart,
,,,,,,,,,,,,,,,,,,,,,,,,,,,0.018496000000141066,0.035105700000258366,0.035105700000258366,8.536729800000103,space,8.50002749999976,None,,,,,,,,,,,,,,,,,,,,,,,,,,,,,,,,,,,,,,,,,,,,,,,,,,,,,,,,,,,,,,,,,,,,,,,,00025,001,2025-11-10_15h37.05.281,MST_task,2024.2.2,59.98825429984729,2025-11-10 15h37.09.648348 +0530,
,,,,,,,,,,,,,,,,,,,,,,,,,,,,,,,,,,8.536754900000233,8.551535500000227,8.551535500000227,38.83467580000024,space,30.281200000000354,None,,,,,,,,,,,,,,,,,,,,,,,,,,,,,,,,,,,,,,,,,,,,,,,,,,,,,,,,,,,,,,,,,00025,001,2025-11-10_15h37.05.281,MST_task,2024.2.2,59.98825429984729,2025-11-10 15h37.09.648348 +0530,
,,,,,,,,,,,,,,,,,,,,,,,,,,,,,,,,,,,,,,,,,38.83470870000019,38.850854900000286,38.850854900000286,50.1676408000003,space,11.313414199999897,None,,,,,,,,,,,,,,,,,,,,,,,,,,,,,,,,,,,,,,,,,,,,,,,,,,,,,,,,,,00025,001,2025-11-10_15h37.05.281,MST_task,2024.2.2,59.98825429984729,2025-11-10 15h37.09.648348 +0530,
6,practice_images/158a.jpg,0,0,0,None,j,0.5297113000001445,None,,,,,,,,,0,0,0,5,,,,,50.18394450000005,,,,,,,,,,,,,,,,,,,,,,,50.17084580000028,50.18394450000005,50.70068089999995,50.66741490000004,50.693390700000236,50.70068089999995,50.70068089999995,50.70068089999995,53.68395060000012,None,53.68514090000008,53.700601500000175,53.700601500000175,54.23427760000004,j,0.5297113000001445,None,,,,,,,,,,,,,,,,,,,,,,,,,,,,,,,,,,,,,,,,,00025,001,2025-11-10_15h37.05.281,MST_task,2024.2.2,59.98825429984729,2025-11-10 15h37.09.648348 +0530,
7,practice_images/166a.jpg,1,1,0,f,None,,,2.883441599999969,None,,,,,,,0,1,1,6,,,,,54.25056360000008,,,,,,,,,,,,,,,,,,,,,,,54.234353700000156,54.25056360000008,54.767176199999994,54.734104000000116,54.75036880000016,54.767176199999994,54.767176199999994,54.767176199999994,57.75053770000022,f,57.75058940000008,,,57.750599800000145,None,,,2.883441599999969,None,,,,,,,,,,,,,,,,,,,,,,,,,,,,,,,,,,,,,,,00025,001,2025-11-10_15h37.05.281,MST_task,2024.2.2,59.98825429984729,2025-11-10 15h37.09.648348 +0530,
4,practice_images/002b.jpg,2,2,0,None,f,0.42890099999976883,None,,,,,,,,,0,2,2,3,,,,,57.76710830000002,,,,,,,,,,,,,,,,,,,,,,,57.75066880000031,57.76710830000002,58.28380170000037,58.250690900000336,58.27082490000021,58.28380170000037,58.28380170000037,58.28380170000037,61.26709860000028,None,61.267132200000106,61.28369550000025,61.28369550000025,61.717533300000014,f,0.42890099999976883,None,,,,,,,,,,,,,,,,,,,,,,,,,,,,,,,,,,,,,,,,,00025,001,2025-11-10_15h37.05.281,MST_task,2024.2.2,59.98825429984729,2025-11-10 15h37.09.648348 +0530,
1,practice_images/013a.jpg,3,3,0,j,None,,,2.1278047000000697,0.11838649999981499,,,,,,,0,3,3,0,,,,,61.73376150000013,,,,,,,,,,,,,,,,,,,,,,,61.71760059999997,61.73376150000013,62.25038650000033,62.21721400000024,62.23726710000028,62.25038650000033,62.25038650000033,62.25038650000033,65.23364680000032,j,65.23368759999994,,,65.23369739999998,None,,,2.1278047000000697,0.11838649999981499,,,,,,,,,,,,,,,,,,,,,,,,,,,,,,,,,,,,,,,00025,001,2025-11-10_15h37.05.281,MST_task,2024.2.2,59.98825429984729,2025-11-10 15h37.09.648348 +0530,
5,practice_images/139a.jpg,4,4,0,j,None,,,2.591774600000008,0.13841580000007525,,,,,,,0,4,4,4,,,,,65.25028550000025,,,,,,,,,,,,,,,,,,,,,,,65.23375690000012,65.25028550000025,65.76693740000019,65.73377290000008,65.75438140000006,65.76693740000019,65.76693740000019,65.76693740000019,68.75039700000025,j,68.75043400000004,,,68.75046850000035,None,,,2.591774600000008,0.13841580000007525,,,,,,,,,,,,,,,,,,,,,,,,,,,,,,,,,,,,,,,00025,001,2025-11-10_15h37.05.281,MST_task,2024.2.2,59.98825429984729,2025-11-10 15h37.09.648348 +0530,
2,practice_images/031a.jpg,5,5,0,None,j,0.6050741999997626,None,,,,,,,,,0,5,5,1,,,,,68.76689810000016,,,,,,,,,,,,,,,,,,,,,,,68.75052460000006,68.76689810000016,69.28352910000012,69.25037180000027,69.27158300000019,69.28352910000012,69.28352910000012,69.28352910000012,72.26684580000028,None,72.26846800000021,72.28349860000026,72.28349860000026,72.90046389999998,j,0.6050741999997626,None,,,,,,,,,,,,,,,,,,,,,,,,,,,,,,,,,,,,,,,,,00025,001,2025-11-10_15h37.05.281,MST_task,2024.2.2,59.98825429984729,2025-11-10 15h37.09.648348 +0530,
3,practice_images/037a.jpg,6,6,0,None,f,2.9387393000001794,None,,,,,,,,,0,6,6,2,,,,,72.91681120000021,,,,,,,,,,,,,,,,,,,,,,,72.90052920000016,72.91681120000021,73.4330546000001,73.40041220000012,73.4288862000003,73.4330546000001,73.4330546000001,73.4330546000001,76.41676880000023,None,76.41679920000024,76.43340519999992,76.43340519999992,79.38372930000014,f,2.9387393000001794,None,,,,,,,,,,,,,,,,,,,,,,,,,,,,,,,,,,,,,,,,,00025,001,2025-11-10_15h37.05.281,MST_task,2024.2.2,59.98825429984729,2025-11-10 15h37.09.648348 +0530,
10,practice_images/182a.jpg,7,7,0,f,None,,,1.28019919999997,0.15417269999989003,,,,,,,0,7,7,9,,,,,79.40003810000007,,,,,,,,,,,,,,,,,,,,,,,79.3838039000002,79.40003810000007,79.89999340000031,79.88347599999997,79.89023050000014,79.89999340000031,79.89999340000031,79.89999340000031,82.88343550000036,f,82.88346980000006,,,82.88348070000029,None,,,1.28019919999997,0.15417269999989003,82.89992120000034,82.89992120000034,82.89992120000034,,,,,,,,,,,,,,,,,,,,,,,,,,,,,,,,,,,,00025,001,2025-11-10_15h37.05.281,MST_task,2024.2.2,59.98825429984729,2025-11-10 15h37.09.648348 +0530,
9,practice_images/180a.jpg,8,8,0,j,None,,,2.155139599999984,0.16208689999984927,,,,,,,0,8,8,8,,,,,82.89992120000034,,,,,,,,,,,,,,,,,,,,,,,82.88353420000021,82.89992120000034,83.39992770000026,83.38355040000033,83.39493029999994,83.39992770000026,83.39992770000026,83.39992770000026,86.38357650000034,j,86.38361110000005,,,86.38361990000021,None,,,2.155139599999984,0.16208689999984927,86.39992500000017,86.39992500000017,86.39992500000017,,,,,,,,,,,,,,,,,,,,,,,,,,,,,,,,,,,,00025,001,2025-11-10_15h37.05.281,MST_task,2024.2.2,59.98825429984729,2025-11-10 15h37.09.648348 +0530,
8,practice_images/178a.jpg,9,9,0,f,None,,,1.848359199999777,0.14006359999984852,,,,,,,0,9,9,7,,,,,86.39992500000017,,,,,,,,,,,,,,,,,,,,,,,86.38367770000013,86.39992500000017,86.89990490000037,86.88336140000001,86.89010350000035,86.89990490000037,86.89990490000037,86.89990490000037,89.88330900000028,f,89.88333880000027,,,89.88334729999997,None,,,1.848359199999777,0.14006359999984852,89.89984830000003,89.89984830000003,89.89984830000003,,,,,,,,,,,,,,,,,,,,,,,,,,,,,,,,,,,,00025,001,2025-11-10_15h37.05.281,MST_task,2024.2.2,59.98825429984729,2025-11-10 15h37.09.648348 +0530,
,,,,,,,,,,,,,,,,,,,,,,,,,,,,,,,,,,,,,,,,,,,,,,,,,,,,,,,,,,,,,,,,,,,,,,89.8833823,89.89984830000003,89.89984830000003,117.73285350000015,space,27.828658200000064,None,,,,,,,,,,,,,,,,,,,,,,,,,,,,,00025,001,2025-11-10_15h37.05.281,MST_task,2024.2.2,59.98825429984729,2025-11-10 15h37.09.648348 +0530,
,Objects\022a.jpg,0,0,0,,,,,,,f,2.3283762000000934,0.142688200000066,None,,,,,,,0,0,0,0,117.74917970000024,,,,,,,,,,,,,,,,,,,,,,,117.73351900000034,117.74917970000024,118.26603569999997,118.23262840000007,,,,,,,,,,,,,,,,,,,,,,,,,,118.25498640000023,118.26603569999997,118.26603569999997,118.26603569999997,121.24914330000001,shoe,f,2.3283762000000934,0.142688200000066,121.25074270000005,121.25075480000032,None,,,,,,,,,,,,,,,,,00025,001,2025-11-10_15h37.05.281,MST_task,2024.2.2,59.98825429984729,2025-11-10 15h37.09.648348 +0530,
,Objects\278a.jpg,1,0,1,,,,,,,None,,,f,0.2962054999998145,None,,,,,1,0,1,0,121.2657494,,,,,,,,,,,,,,,,,,,,,,,121.25081260000024,121.2657494,121.7823598,121.74925110000004,,,,,,,,,,,,,,,,,,,,,,,,,,121.76117980000026,121.7823598,121.7823598,121.7823598,124.76572600000009,shoe,None,,,124.76576040000009,125.08261650000031,f,124.7822986000001,124.7822986000001,0.2962054999998145,None,,,,,,,,,,,,,00025,001,2025-11-10_15h37.05.281,MST_task,2024.2.2,59.98825429984729,2025-11-10 15h37.09.648348 +0530,
,Objects\205a.jpg,2,0,2,,,,,,,j,2.0411619999999857,0.17384609999999157,None,,,,,,,2,0,2,0,125.09902150000016,,,,,,,,,,,,,,,,,,,,,,,125.08269539999992,125.09902150000016,125.61588680000023,125.5824504000002,,,,,,,,,,,,,,,,,,,,,,,,,,125.59379020000006,125.61588680000023,125.61588680000023,125.61588680000023,128.59897820000015,shoe,j,2.0411619999999857,0.17384609999999157,128.5990138000002,128.59902320000037,None,,,,,,,,,,,,,,,,,00025,001,2025-11-10_15h37.05.281,MST_task,2024.2.2,59.98825429984729,2025-11-10 15h37.09.648348 +0530,
,Objects\316a.jpg,3,0,3,,,,,,,None,,,f,0.08325689999992392,None,,,,,3,0,3,0,128.6155778000002,,,,,,,,,,,,,,,,,,,,,,,128.59907890000022,128.6155778000002,129.11515499999996,129.0990882000001,,,,,,,,,,,,,,,,,,,,,,,,,,129.10976610000034,129.11515499999996,129.11515499999996,129.11515499999996,132.09910630000013,shoe,None,,,132.09914190000018,132.19925290000037,f,132.1155689000002,132.1155689000002,0.08325689999992392,None,132.1155689000002,132.1155689000002,132.1155689000002,,,,,,,,,,00025,001,2025-11-10_15h37.05.281,MST_task,2024.2.2,59.98825429984729,2025-11-10 15h37.09.648348 +0530,
,Objects\174a.jpg,4,0,4,,,,,,,j,1.389713799999754,0.1752588000003925,None,,,,,,,4,0,4,0,132.21546910000006,,,,,,,,,,,,,,,,,,,,,,,132.19931590000033,132.21546910000006,132.7150829000002,132.69908550000036,,,,,,,,,,,,,,,,,,,,,,,,,,132.70999650000022,132.7150829000002,132.7150829000002,132.7150829000002,135.69898290000037,shoe,j,1.389713799999754,0.1752588000003925,135.69902000000002,135.69902880000018,None,,,,,135.71542820000013,135.71542820000013,135.71542820000013,,,,,,,,,,00025,001,2025-11-10_15h37.05.281,MST_task,2024.2.2,59.98825429984729,2025-11-10 15h37.09.648348 +0530,
,Objects\368a.jpg,5,0,5,,,,,,,f,1.4549729000000298,0.1266675000001669,None,,,,,,,5,0,5,0,135.71542820000013,,,,,,,,,,,,,,,,,,,,,,,135.69910849999997,135.71542820000013,136.21538150000015,136.19893360000015,,,,,,,,,,,,,,,,,,,,,,,,,,136.2095789,136.21538150000015,136.21538150000015,136.21538150000015,139.1989539000001,shoe,f,1.4549729000000298,0.1266675000001669,139.19898899999998,139.19899720000012,None,,,,,139.21535510000012,139.21535510000012,139.21535510000012,,,,,,,,,,00025,001,2025-11-10_15h37.05.281,MST_task,2024.2.2,59.98825429984729,2025-11-10 15h37.09.648348 +0530,
,Objects\217a.jpg,6,0,6,,,,,,,None,,,j,0.56768749999992,None,,,,,6,0,6,0,139.21535510000012,,,,,,,,,,,,,,,,,,,,,,,139.19905050000034,139.21535510000012,139.7319668,139.69879570000012,,,,,,,,,,,,,,,,,,,,,,,,,,139.7103416,139.7319668,139.7319668,139.7319668,142.71529420000024,shoe,None,,,142.71534220000012,143.3155601000003,j,142.73194450000028,142.73194450000028,0.56768749999992,None,,,,,,,,,,,,,00025,001,2025-11-10_15h37.05.281,MST_task,2024.2.2,59.98825429984729,2025-11-10 15h37.09.648348 +0530,
,Objects\332a.jpg,7,0,7,,,,,,,j,1.8511723999999958,0.17326349999984814,None,,,,,,,7,0,7,0,143.3319236000002,,,,,,,,,,,,,,,,,,,,,,,143.3156409000003,143.3319236000002,143.83175530000017,143.81548509999993,,,,,,,,,,,,,,,,,,,,,,,,,,143.82804239999996,143.83175530000017,143.83175530000017,143.83175530000017,146.81547230000024,indoor,j,1.8511723999999958,0.17326349999984814,146.81661450000001,146.8166255000001,None,,,,,146.83184550000033,146.83184550000033,146.83184550000033,,,,,,,,,,00025,001,2025-11-10_15h37.05.281,MST_task,2024.2.2,59.98825429984729,2025-11-10 15h37.09.648348 +0530,
,Objects\348a.jpg,8,0,8,,,,,,,f,1.6430334000001494,0.1475425999997242,None,,,,,,,8,0,8,0,146.83184550000033,,,,,,,,,,,,,,,,,,,,,,,146.81667760000028,146.83184550000033,147.33180040000025,147.31528100000014,,,,,,,,,,,,,,,,,,,,,,,,,,147.32531480000034,147.33180040000025,147.33180040000025,147.33180040000025,150.3155055000002,indoor,f,1.6430334000001494,0.1475425999997242,150.31554129999995,150.31554970000025,None,,,,,150.33173510000006,150.33173510000006,150.33173510000006,,,,,,,,,,00025,001,2025-11-10_15h37.05.281,MST_task,2024.2.2,59.98825429984729,2025-11-10 15h37.09.648348 +0530,
,Objects\137a.jpg,9,0,9,,,,,,,j,2.250514199999998,0.17735010000023976,None,,,,,,,9,0,9,0,150.33173510000006,,,,,,,,,,,,,,,,,,,,,,,150.31560260000015,150.33173510000006,150.84838919999993,150.81530040000007,,,,,,,,,,,,,,,,,,,,,,,,,,150.84184700000014,150.84838919999993,150.84838919999993,150.84838919999993,153.83171410000023,indoor,j,2.250514199999998,0.17735010000023976,153.8317522000002,153.83176110000022,None,,,,,,,,,,,,,,,,,00025,001,2025-11-10_15h37.05.281,MST_task,2024.2.2,59.98825429984729,2025-11-10 15h37.09.648348 +0530,
,Objects\305a.jpg,10,0,10,,,,,,,f,2.741923399999905,0.15797359999987748,None,,,,,,,10,0,10,0,153.84836480000013,,,,,,,,,,,,,,,,,,,,,,,153.83181830000012,153.84836480000013,154.34831490000033,154.33194440000034,,,,,,,,,,,,,,,,,,,,,,,,,,154.33963100000028,154.34831490000033,154.34831490000033,154.34831490000033,157.33195879999994,indoor,f,2.741923399999905,0.15797359999987748,157.33200269999998,157.33201180000015,None,,,,,157.3482914000001,157.3482914000001,157.3482914000001,,,,,,,,,,00025,001,2025-11-10_15h37.05.281,MST_task,2024.2.2,59.98825429984729,2025-11-10 15h37.09.648348 +0530,
,Objects\108a.jpg,11,0,11,,,,,,,j,2.1804634999998598,0.17397510000000693,None,,,,,,,11,0,11,0,157.3482914000001,,,,,,,,,,,,,,,,,,,,,,,157.3320751000001,157.3482914000001,157.8482573000001,157.83185649999996,,,,,,,,,,,,,,,,,,,,,,,,,,157.8398188000001,157.8482573000001,157.8482573000001,157.8482573000001,160.83181710000008,indoor,j,2.1804634999998598,0.17397510000000693,160.83185170000024,160.83186019999994,None,,,,,160.84820160000027,160.84820160000027,160.84820160000027,,,,,,,,,,00025,001,2025-11-10_15h37.05.281,MST_task,2024.2.2,59.98825429984729,2025-11-10 15h37.09.648348 +0530,
,Objects\225a.jpg,12,0,12,,,,,,,None,,,f,0.44049459999996543,None,,,,,12,0,12,0,160.84820160000027,,,,,,,,,,,,,,,,,,,,,,,160.8319136,160.84820160000027,161.34819030000017,161.33164970000007,,,,,,,,,,,,,,,,,,,,,,,,,,161.33925630000022,161.34819030000017,161.34819030000017,161.34819030000017,164.33187550000002,indoor,None,,,164.33190650000006,164.79865860000018,f,164.3481624000001,164.3481624000001,0.44049459999996543,None,164.3481624000001,164.3481624000001,164.3481624000001,,,,,,,,,,00025,001,2025-11-10_15h37.05.281,MST_task,2024.2.2,59.98825429984729,2025-11-10 15h37.09.648348 +0530,
,Objects\213a.jpg,13,0,13,,,,,,,f,1.1359345000000758,0.14541479999979856,None,,,,,,,13,0,13,0,164.81478300000026,,,,,,,,,,,,,,,,,,,,,,,164.79873810000026,164.81478300000026,165.31474340000022,165.2983964,,,,,,,,,,,,,,,,,,,,,,,,,,165.30951730000015,165.31474340000022,165.31474340000022,165.31474340000022,168.29830230000016,indoor,f,1.1359345000000758,0.14541479999979856,168.29834180000034,168.2983505000002,None,,,,,168.31477680000035,168.31477680000035,168.31477680000035,,,,,,,,,,00025,001,2025-11-10_15h37.05.281,MST_task,2024.2.2,59.98825429984729,2025-11-10 15h37.09.648348 +0530,
,Objects\034a.jpg,14,0,14,,,,,,,f,1.5392767999996977,0.15351000000009662,None,,,,,,,14,0,14,0,168.31477680000035,,,,,,,,,,,,,,,,,,,,,,,168.29840570000033,168.31477680000035,168.8313688000003,168.79823450000004,,,,,,,,,,,,,,,,,,,,,,,,,,168.8110001,168.8313688000003,168.8313688000003,168.8313688000003,171.81469790000028,shoe,f,1.5392767999996977,0.15351000000009662,171.81630040000027,171.81631210000023,None,,,,,,,,,,,,,,,,,00025,001,2025-11-10_15h37.05.281,MST_task,2024.2.2,59.98825429984729,2025-11-10 15h37.09.648348 +0530,
,Objects\050a.jpg,15,0,15,,,,,,,f,1.7272867000001497,0.15502500000002328,None,,,,,,,15,0,15,0,171.83133420000013,,,,,,,,,,,,,,,,,,,,,,,171.81640030000017,171.83133420000013,172.33125659999996,172.31481980000035,,,,,,,,,,,,,,,,,,,,,,,,,,172.32228590000022,172.33125659999996,172.33125659999996,172.33125659999996,175.31478080000034,shoe,f,1.7272867000001497,0.15502500000002328,175.31481580000036,175.31482440000036,None,,,,,175.33122060000005,175.33122060000005,175.33122060000005,,,,,,,,,,00025,001,2025-11-10_15h37.05.281,MST_task,2024.2.2,59.98825429984729,2025-11-10 15h37.09.648348 +0530,
,Objects\314a.jpg,16,0,16,,,,,,,None,,,f,0.12285509999992428,None,,,,,16,0,16,0,175.33122060000005,,,,,,,,,,,,,,,,,,,,,,,175.31488040000022,175.33122060000005,175.83117700000003,175.81471510000029,,,,,,,,,,,,,,,,,,,,,,,,,,175.8256504000001,175.83117700000003,175.83117700000003,175.83117700000003,178.81471760000022,shoe,None,,,178.81474819999994,178.96480980000024,f,178.8311477000002,178.8311477000002,0.12285509999992428,None,178.8311477000002,178.8311477000002,178.8311477000002,,,,,,,,,,00025,001,2025-11-10_15h37.05.281,MST_task,2024.2.2,59.98825429984729,2025-11-10 15h37.09.648348 +0530,
,Objects\192a.jpg,17,0,17,,,,,,,f,1.4444477000001825,0.15437569999994594,None,,,,,,,17,0,17,0,178.98121880000008,,,,,,,,,,,,,,,,,,,,,,,178.96487460000026,178.98121880000008,179.49786650000033,179.46468240000013,,,,,,,,,,,,,,,,,,,,,,,,,,179.47776520000025,179.49786650000033,179.49786650000033,179.49786650000033,182.48108690000026,shoe,f,1.4444477000001825,0.15437569999994594,182.48112530000026,182.48113469999998,None,,,,,,,,,,,,,,,,,00025,001,2025-11-10_15h37.05.281,MST_task,2024.2.2,59.98825429984729,2025-11-10 15h37.09.648348 +0530,
,Objects\099a.jpg,18,0,18,,,,,,,f,1.9967289999999593,0.15428449999990335,None,,,,,,,18,0,18,0,182.49772490000032,,,,,,,,,,,,,,,,,,,,,,,182.48119110000016,182.49772490000032,,182.9812197000001,,,,,,,,,,,,,,,,,,,,,,,,,,182.99005179999995,182.99770910000007,182.99770910000007,182.99770910000007,185.98135290000027,shoe,f,1.9967289999999593,0.15428449999990335,185.98138960000006,185.98139900000024,None,,,,,185.99772970000004,185.99772970000004,185.99772970000004,,,,,,,,,,00025,001,2025-11-10_15h37.05.281,MST_task,2024.2.2,59.98825429984729,2025-11-10 15h37.09.648348 +0530,
,Objects\013a.jpg,19,0,19,,,,,,,j,1.4192128999998204,0.17423090000011143,None,,,,,,,19,0,19,0,185.99772970000004,,,,,,,,,,,,,,,,,,,,,,,185.98145569999997,185.99772970000004,186.49760860000015,186.48109590000013,,,,,,,,,,,,,,,,,,,,,,,,,,186.48922970000012,186.49760860000015,186.49760860000015,186.49760860000015,189.4811469000001,shoe,j,1.4192128999998204,0.17423090000011143,189.4811863,189.4811993000003,None,,,,,189.49757390000013,189.49757390000013,189.49757390000013,,,,,,,,,,00025,001,2025-11-10_15h37.05.281,MST_task,2024.2.2,59.98825429984729,2025-11-10 15h37.09.648348 +0530,
,Objects\104a.jpg,20,0,20,,,,,,,f,0.9505736999999499,0.19993599999997969,None,,,,,,,20,0,20,0,189.49757390000013,,,,,,,,,,,,,,,,,,,,,,,189.48125419999997,189.49757390000013,189.99755099999993,189.98116600000003,,,,,,,,,,,,,,,,,,,,,,,,,,189.98912930000006,189.99755099999993,189.99755099999993,189.99755099999993,192.98107890000028,shoe,f,0.9505736999999499,0.19993599999997969,192.98111749999998,192.98112590000028,None,,,,,192.99747320000006,192.99747320000006,192.99747320000006,,,,,,,,,,00025,001,2025-11-10_15h37.05.281,MST_task,2024.2.2,59.98825429984729,2025-11-10 15h37.09.648348 +0530,
,Objects\159a.jpg,21,0,21,,,,,,,f,2.3212742000000617,0.19397200000003068,None,,,,,,,21,0,21,0,192.99747320000006,,,,,,,,,,,,,,,,,,,,,,,192.98121330000004,192.99747320000006,193.49745239999993,193.48107400000026,,,,,,,,,,,,,,,,,,,,,,,,,,193.4898436000003,193.49745239999993,193.49745239999993,193.49745239999993,196.48109650000015,indoor,f,2.3212742000000617,0.19397200000003068,196.48221950000016,196.48223000000007,None,,,,,196.49738640000032,196.49738640000032,196.49738640000032,,,,,,,,,,00025,001,2025-11-10_15h37.05.281,MST_task,2024.2.2,59.98825429984729,2025-11-10 15h37.09.648348 +0530,
,Objects\346a.jpg,22,0,22,,,,,,,f,2.455310499999996,0.17382339999994656,None,,,,,,,22,0,22,0,196.49738640000032,,,,,,,,,,,,,,,,,,,,,,,196.4822862000001,196.49738640000032,196.99740490000022,196.98090610000008,,,,,,,,,,,,,,,,,,,,,,,,,,196.9918017,196.99740490000022,196.99740490000022,196.99740490000022,199.98092670000005,indoor,f,2.455310499999996,0.17382339999994656,199.98096060000034,199.98096860000032,None,,,,,199.99738770000022,199.99738770000022,199.99738770000022,,,,,,,,,,00025,001,2025-11-10_15h37.05.281,MST_task,2024.2.2,59.98825429984729,2025-11-10 15h37.09.648348 +0530,
,Objects\231a.jpg,23,0,23,,,,,,,j,1.1737743999997292,0.16171990000020742,None,,,,,,,23,0,23,0,199.99738770000022,,,,,,,,,,,,,,,,,,,,,,,199.98102020000033,199.99738770000022,200.49729720000005,200.48080800000025,,,,,,,,,,,,,,,,,,,,,,,,,,200.49054460000025,200.49729720000005,200.49729720000005,200.49729720000005,203.48085919999994,indoor,j,1.1737743999997292,0.16171990000020742,203.48089879999998,203.48090709999997,None,,,,,203.49723820000008,203.49723820000008,203.49723820000008,,,,,,,,,,00025,001,2025-11-10_15h37.05.281,MST_task,2024.2.2,59.98825429984729,2025-11-10 15h37.09.648348 +0530,
,Objects\263a.jpg,24,0,24,,,,,,,j,1.119854000000032,0.17788160000009157,None,,,,,,,24,0,24,0,203.49723820000008,,,,,,,,,,,,,,,,,,,,,,,203.48096080000005,203.49723820000008,203.99710030000006,203.98075270000027,,,,,,,,,,,,,,,,,,,,,,,,,,203.9921064,203.99710030000006,203.99710030000006,203.99710030000006,206.9807711000003,indoor,j,1.119854000000032,0.17788160000009157,206.98081100000036,206.98081960000036,None,,,,,206.99720340000022,206.99720340000022,206.99720340000022,,,,,,,,,,00025,001,2025-11-10_15h37.05.281,MST_task,2024.2.2,59.98825429984729,2025-11-10 15h37.09.648348 +0530,
,Objects\134a.jpg,25,0,25,,,,,,,None,,,f,0.4878790000002482,None,,,,,25,0,25,0,206.99720340000022,,,,,,,,,,,,,,,,,,,,,,,206.9808777000003,206.99720340000022,207.4970228000002,207.48067790000005,,,,,,,,,,,,,,,,,,,,,,,,,,207.4918861000001,207.4970228000002,207.4970228000002,207.4970228000002,210.4806662000001,indoor,None,,,210.48069680000026,210.9974919000001,f,210.4971214000002,210.4971214000002,0.4878790000002482,None,210.4971214000002,210.4971214000002,210.4971214000002,,,,,,,,,,00025,001,2025-11-10_15h37.05.281,MST_task,2024.2.2,59.98825429984729,2025-11-10 15h37.09.648348 +0530,
,Objects\147a.jpg,26,0,26,,,,,,,f,1.7686861999995926,0.19433210000033796,None,,,,,,,26,0,26,0,211.01375300000018,,,,,,,,,,,,,,,,,,,,,,,210.9975733000001,211.01375300000018,211.51377550000007,211.49725540000009,,,,,,,,,,,,,,,,,,,,,,,,,,211.50499440000021,211.51377550000007,211.51377550000007,211.51377550000007,214.49733790000028,indoor,f,1.7686861999995926,0.19433210000033796,214.49737589999995,214.49738500000012,None,,,,,214.5136577000003,214.5136577000003,214.5136577000003,,,,,,,,,,00025,001,2025-11-10_15h37.05.281,MST_task,2024.2.2,59.98825429984729,2025-11-10 15h37.09.648348 +0530,
,Objects\290a.jpg,27,0,27,,,,,,,j,1.9827782999996089,0.17035810000015772,None,,,,,,,27,0,27,0,214.5136577000003,,,,,,,,,,,,,,,,,,,,,,,214.49743949999993,214.5136577000003,215.01364200000035,214.99724760000026,,,,,,,,,,,,,,,,,,,,,,,,,,215.00727840000036,215.01364200000035,215.01364200000035,215.01364200000035,217.99717370000008,indoor,j,1.9827782999996089,0.17035810000015772,217.99721150000005,217.99721980000004,None,,,,,218.0136133000001,218.0136133000001,218.0136133000001,,,,,,,,,,00025,001,2025-11-10_15h37.05.281,MST_task,2024.2.2,59.98825429984729,2025-11-10 15h37.09.648348 +0530,
,Objects\194a.jpg,28,0,28,,,,,,,f,1.4673170000000937,0.20611159999998563,None,,,,,,,28,0,28,0,218.0136133000001,,,,,,,,,,,,,,,,,,,,,,,217.99727570000005,218.0136133000001,218.51344530000006,218.4970833000002,,,,,,,,,,,,,,,,,,,,,,,,,,218.50861860000032,218.51344530000006,218.51344530000006,218.51344530000006,221.4971032000003,shoe,f,1.4673170000000937,0.20611159999998563,221.49861320000036,221.49862470000016,None,,,,,221.51354170000013,221.51354170000013,221.51354170000013,,,,,,,,,,00025,001,2025-11-10_15h37.05.281,MST_task,2024.2.2,59.98825429984729,2025-11-10 15h37.09.648348 +0530,
,Objects\249a.jpg,29,0,29,,,,,,,f,1.9952615999995942,0.21334280000019135,None,,,,,,,29,0,29,0,221.51354170000013,,,,,,,,,,,,,,,,,,,,,,,221.4986812000002,221.51354170000013,222.0135212,221.99702690000004,,,,,,,,,,,,,,,,,,,,,,,,,,222.00762950000035,222.0135212,222.0135212,222.0135212,224.99708099999998,shoe,f,1.9952615999995942,0.21334280000019135,224.99712580000005,224.99713480000037,None,,,,,225.01345280000032,225.01345280000032,225.01345280000032,,,,,,,,,,00025,001,2025-11-10_15h37.05.281,MST_task,2024.2.2,59.98825429984729,2025-11-10 15h37.09.648348 +0530,
,Objects\206a.jpg,30,0,30,,,,,,,None,,,j,1.0396272000002682,None,,,,,30,0,30,0,225.01345280000032,,,,,,,,,,,,,,,,,,,,,,,224.9972445000003,225.01345280000032,225.5134154000002,225.49706030000016,,,,,,,,,,,,,,,,,,,,,,,,,,225.50723560000006,225.5134154000002,225.5134154000002,225.5134154000002,228.4969119000002,shoe,None,,,228.49694210000007,229.56376709999995,j,228.51338140000007,228.51338140000007,1.0396272000002682,None,228.51338140000007,228.51338140000007,228.51338140000007,,,,,,,,,,00025,001,2025-11-10_15h37.05.281,MST_task,2024.2.2,59.98825429984729,2025-11-10 15h37.09.648348 +0530,
,Objects\156a.jpg,31,0,31,,,,,,,j,2.0191186000001835,0.17346069999985048,None,,,,,,,31,0,31,0,229.58003570000028,,,,,,,,,,,,,,,,,,,,,,,229.5638511000002,229.58003570000028,230.07962380000026,230.0636399,,,,,,,,,,,,,,,,,,,,,,,,,,230.07524740000008,230.07962380000026,230.07962380000026,230.07962380000026,233.06368350000002,shoe,j,2.0191186000001835,0.17346069999985048,233.06372520000014,233.06373460000032,None,,,,,233.07995100000016,233.07995100000016,233.07995100000016,,,,,,,,,,00025,001,2025-11-10_15h37.05.281,MST_task,2024.2.2,59.98825429984729,2025-11-10 15h37.09.648348 +0530,
,Objects\264a.jpg,32,0,32,,,,,,,f,2.253433800000039,0.22519939999983762,None,,,,,,,32,0,32,0,233.07995100000016,,,,,,,,,,,,,,,,,,,,,,,233.0637912000002,233.07995100000016,233.5795266,233.56344960000024,,,,,,,,,,,,,,,,,,,,,,,,,,233.57368160000033,233.5795266,233.5795266,233.5795266,236.56342369999993,shoe,f,2.253433800000039,0.22519939999983762,236.56345950000014,236.56346759999997,None,,,,,236.5798821000003,236.5798821000003,236.5798821000003,,,,,,,,,,00025,001,2025-11-10_15h37.05.281,MST_task,2024.2.2,59.98825429984729,2025-11-10 15h37.09.648348 +0530,
,Objects\045a.jpg,33,0,33,,,,,,,None,,,j,0.2379508000003625,None,,,,,33,0,33,0,236.5798821000003,,,,,,,,,,,,,,,,,,,,,,,236.56352319999996,236.5798821000003,237.09654960000034,237.06341900000007,,,,,,,,,,,,,,,,,,,,,,,,,,237.07478830000036,237.09654960000034,237.09654960000034,237.09654960000034,240.07979680000017,shoe,None,,,240.07983110000032,240.34686310000006,j,240.0964627000003,240.0964627000003,0.2379508000003625,None,,,,,,,,,,,,,00025,001,2025-11-10_15h37.05.281,MST_task,2024.2.2,59.98825429984729,2025-11-10 15h37.09.648348 +0530,
,Objects\063a.jpg,34,0,34,,,,,,,f,2.131821899999977,0.17378180000014254,None,,,,,,,34,0,34,0,240.36310920000005,,,,,,,,,,,,,,,,,,,,,,,240.34698210000033,240.36310920000005,240.8627150000002,240.8466510000003,,,,,,,,,,,,,,,,,,,,,,,,,,240.85616400000026,240.8627150000002,240.8627150000002,240.8627150000002,243.84660970000004,shoe,f,2.131821899999977,0.17378180000014254,243.84664629999997,243.8466552,None,,,,,243.86302760000035,243.86302760000035,243.86302760000035,,,,,,,,,,00025,001,2025-11-10_15h37.05.281,MST_task,2024.2.2,59.98825429984729,2025-11-10 15h37.09.648348 +0530,
,Objects\223a.jpg,35,0,35,,,,,,,j,1.7482170000002952,0.18130219999966357,None,,,,,,,35,0,35,0,243.86302760000035,,,,,,,,,,,,,,,,,,,,,,,243.84673539999994,243.86302760000035,244.36261980000018,244.34661499999993,,,,,,,,,,,,,,,,,,,,,,,,,,244.3566605000001,244.36261980000018,244.36261980000018,244.36261980000018,247.34683670000004,indoor,j,1.7482170000002952,0.18130219999966357,247.34798030000002,247.3479929,None,,,,,247.36297680000007,247.36297680000007,247.36297680000007,,,,,,,,,,00025,001,2025-11-10_15h37.05.281,MST_task,2024.2.2,59.98825429984729,2025-11-10 15h37.09.648348 +0530,
,Objects\266a.jpg,36,0,36,,,,,,,f,1.8581116000000293,0.2195825999997396,None,,,,,,,36,0,36,0,247.36297680000007,,,,,,,,,,,,,,,,,,,,,,,247.3480509000001,247.36297680000007,247.86279970000032,247.84651500000018,,,,,,,,,,,,,,,,,,,,,,,,,,247.85750540000026,247.86279970000032,247.86279970000032,247.86279970000032,250.84641800000009,indoor,f,1.8581116000000293,0.2195825999997396,250.84645279999995,250.8464610000001,None,,,,,250.86290250000002,250.86290250000002,250.86290250000002,,,,,,,,,,00025,001,2025-11-10_15h37.05.281,MST_task,2024.2.2,59.98825429984729,2025-11-10 15h37.09.648348 +0530,
,Objects\259a.jpg,37,0,37,,,,,,,f,1.4453713000002608,0.19750429999976404,None,,,,,,,37,0,37,0,250.86290250000002,,,,,,,,,,,,,,,,,,,,,,,250.84651220000023,250.86290250000002,251.37951509999994,251.34643559999995,,,,,,,,,,,,,,,,,,,,,,,,,,251.35928620000004,251.37951509999994,251.37951509999994,251.37951509999994,254.3628520000002,indoor,f,1.4453713000002608,0.19750429999976404,254.36289060000036,254.36289950000037,None,,,,,,,,,,,,,,,,,00025,001,2025-11-10_15h37.05.281,MST_task,2024.2.2,59.98825429984729,2025-11-10 15h37.09.648348 +0530,
,Objects\282a.jpg,38,0,38,,,,,,,j,1.849897300000066,0.24136510000016642,None,,,,,,,38,0,38,0,254.3794487,,,,,,,,,,,,,,,,,,,,,,,254.3629579000003,254.3794487,254.87956310000027,254.86296470000025,,,,,,,,,,,,,,,,,,,,,,,,,,254.87417060000007,254.87956310000027,254.87956310000027,254.87956310000027,257.8631584,indoor,j,1.849897300000066,0.24136510000016642,257.8631970000001,257.8632053000001,None,,,,,257.8794101000003,257.8794101000003,257.8794101000003,,,,,,,,,,00025,001,2025-11-10_15h37.05.281,MST_task,2024.2.2,59.98825429984729,2025-11-10 15h37.09.648348 +0530,
,Objects\345a.jpg,39,0,39,,,,,,,f,2.9130365000000893,None,None,,,,,,,39,0,39,0,257.8794101000003,,,,,,,,,,,,,,,,,,,,,,,257.86326370000006,257.8794101000003,258.3792515,258.36299640000016,,,,,,,,,,,,,,,,,,,,,,,,,,258.37064039999996,258.3792515,258.3792515,258.3792515,261.3629175000001,indoor,f,2.9130365000000893,None,261.36295710000013,261.3629656000003,None,,,,,261.3793334000002,261.3793334000002,261.3793334000002,,,,,,,,,,00025,001,2025-11-10_15h37.05.281,MST_task,2024.2.2,59.98825429984729,2025-11-10 15h37.09.648348 +0530,
,Objects\239a.jpg,40,0,40,,,,,,,f,0.9497025999999096,0.17776550000007774,None,,,,,,,40,0,40,0,261.3793334000002,,,,,,,,,,,,,,,,,,,,,,,261.3630191000002,261.3793334000002,261.87928220000003,261.8628423,,,,,,,,,,,,,,,,,,,,,,,,,,261.8736732000002,261.87928220000003,261.87928220000003,261.87928220000003,264.8628678,indoor,f,0.9497025999999096,0.17776550000007774,264.8629100000003,264.8629183000003,None,,,,,264.8792510000003,264.8792510000003,264.8792510000003,,,,,,,,,,00025,001,2025-11-10_15h37.05.281,MST_task,2024.2.2,59.98825429984729,2025-11-10 15h37.09.648348 +0530,
,Objects\189a.jpg,41,0,41,,,,,,,j,2.145261699999992,0.241026900000179,None,,,,,,,41,0,41,0,264.8792510000003,,,,,,,,,,,,,,,,,,,,,,,264.86297680000007,264.8792510000003,265.39588159999994,265.3627848000001,,,,,,,,,,,,,,,,,,,,,,,,,,265.3743316,265.39588159999994,265.39588159999994,265.39588159999994,268.3791719000001,indoor,j,2.145261699999992,0.241026900000179,268.3792131,268.379222,None,,,,,,,,,,,,,,,,,00025,001,2025-11-10_15h37.05.281,MST_task,2024.2.2,59.98825429984729,2025-11-10 15h37.09.648348 +0530,
,Objects\124a.jpg,42,0,42,,,,,,,j,1.596849900000052,0.22556989999975485,None,,,,,,,42,0,42,0,268.39580650000016,,,,,,,,,,,,,,,,,,,,,,,268.3792832000004,268.39580650000016,268.8958187000003,268.8794272,,,,,,,,,,,,,,,,,,,,,,,,,,268.88857959999996,268.8958187000003,268.8958187000003,268.8958187000003,271.8793003999999,shoe,j,1.596849900000052,0.22556989999975485,271.88086850000036,271.8808799000003,None,,,,,271.8957614000001,271.8957614000001,271.8957614000001,,,,,,,,,,00025,001,2025-11-10_15h37.05.281,MST_task,2024.2.2,59.98825429984729,2025-11-10 15h37.09.648348 +0530,
,Objects\121a.jpg,43,0,43,,,,,,,f,1.7716930999999931,0.29940609999994194,None,,,,,,,43,0,43,0,271.8957614000001,,,,,,,,,,,,,,,,,,,,,,,271.88096670000004,271.8957614000001,272.39576860000034,272.3792916000002,,,,,,,,,,,,,,,,,,,,,,,,,,272.38721570000007,272.39576860000034,272.39576860000034,272.39576860000034,275.37923160000037,shoe,f,1.7716930999999931,0.29940609999994194,275.3792735000002,275.37928230000034,None,,,,,275.39567920000036,275.39567920000036,275.39567920000036,,,,,,,,,,00025,001,2025-11-10_15h37.05.281,MST_task,2024.2.2,59.98825429984729,2025-11-10 15h37.09.648348 +0530,
,Objects\219a.jpg,44,0,44,,,,,,,f,2.820912000000135,None,None,,,,,,,44,0,44,0,275.39567920000036,,,,,,,,,,,,,,,,,,,,,,,275.3793376000003,275.39567920000036,275.89563339999995,275.8791352000003,,,,,,,,,,,,,,,,,,,,,,,,,,275.8871226000001,275.89563339999995,275.89563339999995,275.89563339999995,278.8794401,shoe,f,2.820912000000135,None,278.8794809000001,278.8794895000001,None,,,,,278.89563220000036,278.89563220000036,278.89563220000036,,,,,,,,,,00025,001,2025-11-10_15h37.05.281,MST_task,2024.2.2,59.98825429984729,2025-11-10 15h37.09.648348 +0530,
,Objects\110a.jpg,45,0,45,,,,,,,j,1.7930018000001837,0.1739333999998962,None,,,,,,,45,0,45,0,278.89563220000036,,,,,,,,,,,,,,,,,,,,,,,278.87954630000013,278.89563220000036,279.39556200000015,279.37912410000035,,,,,,,,,,,,,,,,,,,,,,,,,,279.3869887000001,279.39556200000015,279.39556200000015,279.39556200000015,282.37906850000036,shoe,j,1.7930018000001837,0.1739333999998962,282.37910469999997,282.37911280000026,None,,,,,282.39553090000027,282.39553090000027,282.39553090000027,,,,,,,,,,00025,001,2025-11-10_15h37.05.281,MST_task,2024.2.2,59.98825429984729,2025-11-10 15h37.09.648348 +0530,
,Objects\016a.jpg,46,0,46,,,,,,,f,2.823243999999704,None,None,,,,,,,46,0,46,0,282.39553090000027,,,,,,,,,,,,,,,,,,,,,,,282.3791692,282.39553090000027,282.89548090000017,282.87914260000025,,,,,,,,,,,,,,,,,,,,,,,,,,282.8869436,282.89548090000017,282.89548090000017,282.89548090000017,285.8792123000003,shoe,f,2.823243999999704,None,285.8792507000003,285.87925889999997,None,,,,,285.895454,285.895454,285.895454,,,,,,,,,,00025,001,2025-11-10_15h37.05.281,MST_task,2024.2.2,59.98825429984729,2025-11-10 15h37.09.648348 +0530,
,Objects\356a.jpg,47,0,47,,,,,,,None,,,f,0.2671404999996412,None,,,,,47,0,47,0,285.895454,,,,,,,,,,,,,,,,,,,,,,,285.87934300000006,285.895454,286.3954125,286.37900020000006,,,,,,,,,,,,,,,,,,,,,,,,,,286.3896542000002,286.3954125,286.3954125,286.3954125,289.37906509999993,shoe,None,,,289.37909690000015,289.6790721000002,f,289.3953902000003,289.3953902000003,0.2671404999996412,None,289.3953902000003,289.3953902000003,289.3953902000003,,,,,,,,,,00025,001,2025-11-10_15h37.05.281,MST_task,2024.2.2,59.98825429984729,2025-11-10 15h37.09.648348 +0530,
,Objects\165a.jpg,48,0,48,,,,,,,f,1.0096478000000388,0.2091923999996652,None,,,,,,,48,0,48,0,289.6953717000001,,,,,,,,,,,,,,,,,,,,,,,289.6791436000003,289.6953717000001,290.1954061000001,290.17892280000024,,,,,,,,,,,,,,,,,,,,,,,,,,290.189312,290.1954061000001,290.1954061000001,290.1954061000001,293.17892170000005,shoe,f,1.0096478000000388,0.2091923999996652,293.17895980000003,293.17896870000004,None,,,,,293.1952991000003,293.1952991000003,293.1952991000003,,,,,,,,,,00025,001,2025-11-10_15h37.05.281,MST_task,2024.2.2,59.98825429984729,2025-11-10 15h37.09.648348 +0530,
,Objects\112a.jpg,49,0,49,,,,,,,f,1.1697881000000052,0.21459890000005544,None,,,,,,,49,0,49,0,293.1952991000003,,,,,,,,,,,,,,,,,,,,,,,293.1790536000003,293.1952991000003,293.69531140000026,293.6788770000003,,,,,,,,,,,,,,,,,,,,,,,,,,293.6878630000001,293.69531140000026,293.69531140000026,293.69531140000026,296.6791137,indoor,f,1.1697881000000052,0.21459890000005544,296.68028490000006,296.6802958000003,None,,,,,296.69519919999993,296.69519919999993,296.69519919999993,,,,,,,,,,00025,001,2025-11-10_15h37.05.281,MST_task,2024.2.2,59.98825429984729,2025-11-10 15h37.09.648348 +0530,
,Objects\251a.jpg,50,0,50,,,,,,,f,1.8696943999998439,0.24957640000002357,None,,,,,,,50,0,50,0,296.69519919999993,,,,,,,,,,,,,,,,,,,,,,,296.6803494999999,296.69519919999993,297.19522640000014,297.17868350000026,,,,,,,,,,,,,,,,,,,,,,,,,,297.1889977000001,297.19522640000014,297.19522640000014,297.19522640000014,300.1787088000001,indoor,f,1.8696943999998439,0.24957640000002357,300.1787505000002,300.17875890000005,None,,,,,300.1951411,300.1951411,300.1951411,,,,,,,,,,00025,001,2025-11-10_15h37.05.281,MST_task,2024.2.2,59.98825429984729,2025-11-10 15h37.09.648348 +0530,
,Objects\326a.jpg,51,0,51,,,,,,,f,2.0364346000001206,0.24836340000001655,None,,,,,,,51,0,51,0,300.1951411,,,,,,,,,,,,,,,,,,,,,,,300.17881750000015,300.1951411,300.7118152000003,300.67863430000034,,,,,,,,,,,,,,,,,,,,,,,,,,300.69099510000024,300.7118152000003,300.7118152000003,300.7118152000003,303.69511490000014,indoor,f,2.0364346000001206,0.24836340000001655,303.69515130000036,303.69516060000024,None,,,,,,,,,,,,,,,,,00025,001,2025-11-10_15h37.05.281,MST_task,2024.2.2,59.98825429984729,2025-11-10 15h37.09.648348 +0530,
,Objects\181a.jpg,52,0,52,,,,,,,j,1.7145669999999882,0.22655510000004142,None,,,,,,,52,0,52,0,303.71173980000003,,,,,,,,,,,,,,,,,,,,,,,303.6952175000001,303.71173980000003,304.21169280000004,304.19522370000004,,,,,,,,,,,,,,,,,,,,,,,,,,304.2060653000003,304.21169280000004,304.21169280000004,304.21169280000004,307.1953125,indoor,j,1.7145669999999882,0.22655510000004142,307.1953533000001,307.1953615000002,None,,,,,307.21165840000003,307.21165840000003,307.21165840000003,,,,,,,,,,00025,001,2025-11-10_15h37.05.281,MST_task,2024.2.2,59.98825429984729,2025-11-10 15h37.09.648348 +0530,
,Objects\145a.jpg,53,0,53,,,,,,,f,2.0634949000000233,0.4505074999997305,None,,,,,,,53,0,53,0,307.21165840000003,,,,,,,,,,,,,,,,,,,,,,,307.19541500000014,307.21165840000003,307.7116682000001,307.6952930000002,,,,,,,,,,,,,,,,,,,,,,,,,,307.70434220000016,307.7116682000001,307.7116682000001,307.7116682000001,310.69514590000017,indoor,f,2.0634949000000233,0.4505074999997305,310.6951809000002,310.69518910000033,None,,,,,310.7115844,310.7115844,310.7115844,,,,,,,,,,00025,001,2025-11-10_15h37.05.281,MST_task,2024.2.2,59.98825429984729,2025-11-10 15h37.09.648348 +0530,
,Objects\331a.jpg,54,0,54,,,,,,,f,1.829950600000302,0.26147609999998167,None,,,,,,,54,0,54,0,310.7115844,,,,,,,,,,,,,,,,,,,,,,,310.69524279999996,310.7115844,311.2111484000002,311.1953426,,,,,,,,,,,,,,,,,,,,,,,,,,311.20633780000026,311.2111484000002,311.2111484000002,311.2111484000002,314.1951114000003,indoor,f,1.829950600000302,0.26147609999998167,314.19515020000017,314.1951589,None,,,,,314.21152359999996,314.21152359999996,314.21152359999996,,,,,,,,,,00025,001,2025-11-10_15h37.05.281,MST_task,2024.2.2,59.98825429984729,2025-11-10 15h37.09.648348 +0530,
,Objects\071a.jpg,55,0,55,,,,,,,None,,,f,0.5373586000000614,None,,,,,55,0,55,0,314.21152359999996,,,,,,,,,,,,,,,,,,,,,,,314.1952166000001,314.21152359999996,314.71107500000016,314.69509860000016,,,,,,,,,,,,,,,,,,,,,,,,,,314.70611810000037,314.71107500000016,314.71107500000016,314.71107500000016,317.6950660000002,indoor,None,,,317.69510040000023,318.2617785000002,f,317.71143269999993,317.71143269999993,0.5373586000000614,None,317.71143269999993,317.71143269999993,317.71143269999993,,,,,,,,,,00025,001,2025-11-10_15h37.05.281,MST_task,2024.2.2,59.98825429984729,2025-11-10 15h37.09.648348 +0530,
,Objects\072a.jpg,56,0,56,,,,,,,f,1.9521842999997716,0.24448480000000927,None,,,,,,,56,0,56,0,318.27804289999995,,,,,,,,,,,,,,,,,,,,,,,318.2618526000001,318.27804289999995,318.77805350000017,318.7617303000002,,,,,,,,,,,,,,,,,,,,,,,,,,318.7706505000001,318.77805350000017,318.77805350000017,318.77805350000017,321.7616433000003,shoe,f,1.9521842999997716,0.24448480000000927,321.7631701,321.76318170000013,None,,,,,321.77806980000014,321.77806980000014,321.77806980000014,,,,,,,,,,00025,001,2025-11-10_15h37.05.281,MST_task,2024.2.2,59.98825429984729,2025-11-10 15h37.09.648348 +0530,
,Objects\315a.jpg,57,0,57,,,,,,,None,,,f,0.06830899999977191,None,,,,,57,0,57,0,321.77806980000014,,,,,,,,,,,,,,,,,,,,,,,321.76323850000017,321.77806980000014,322.27783130000034,322.2615925,,,,,,,,,,,,,,,,,,,,,,,,,,322.27183230000037,322.27783130000034,322.27783130000034,322.27783130000034,325.26151720000007,shoe,None,,,325.2615532,325.36160530000006,f,325.2779512000002,325.2779512000002,0.06830899999977191,None,325.2779512000002,325.2779512000002,325.2779512000002,,,,,,,,,,00025,001,2025-11-10_15h37.05.281,MST_task,2024.2.2,59.98825429984729,2025-11-10 15h37.09.648348 +0530,
,Objects\106a.jpg,58,0,58,,,,,,,f,2.248586599999726,0.2024399000001722,None,,,,,,,58,0,58,0,325.37791830000015,,,,,,,,,,,,,,,,,,,,,,,325.36166790000016,325.37791830000015,325.8778682000002,325.86138210000036,,,,,,,,,,,,,,,,,,,,,,,,,,325.8721880000003,325.8778682000002,325.8778682000002,325.8778682000002,328.8615613000002,shoe,f,2.248586599999726,0.2024399000001722,328.8616043000002,328.8616151000001,None,,,,,328.87786099999994,328.87786099999994,328.87786099999994,,,,,,,,,,00025,001,2025-11-10_15h37.05.281,MST_task,2024.2.2,59.98825429984729,2025-11-10 15h37.09.648348 +0530,
,Objects\035a.jpg,59,0,59,,,,,,,f,2.4273200999996334,0.20499460000019099,None,,,,,,,59,0,59,0,328.87786099999994,,,,,,,,,,,,,,,,,,,,,,,328.86171360000026,328.87786099999994,329.3777920000002,329.36130200000025,,,,,,,,,,,,,,,,,,,,,,,,,,329.36913060000006,329.3777920000002,329.3777920000002,329.3777920000002,332.3613461,shoe,f,2.4273200999996334,0.20499460000019099,332.3613795000001,332.36138800000026,None,,,,,332.3777596,332.3777596,332.3777596,,,,,,,,,,00025,001,2025-11-10_15h37.05.281,MST_task,2024.2.2,59.98825429984729,2025-11-10 15h37.09.648348 +0530,
,Objects\287a.jpg,60,0,60,,,,,,,f,2.350484999999935,0.3007784999999785,None,,,,,,,60,0,60,0,332.3777596,,,,,,,,,,,,,,,,,,,,,,,332.3614485000003,332.3777596,332.87772140000015,332.8613991000002,,,,,,,,,,,,,,,,,,,,,,,,,,332.87193300000035,332.87772140000015,332.87772140000015,332.87772140000015,335.8613636,shoe,f,2.350484999999935,0.3007784999999785,335.86139820000017,335.8614063,None,,,,,335.87772429999995,335.87772429999995,335.87772429999995,,,,,,,,,,00025,001,2025-11-10_15h37.05.281,MST_task,2024.2.2,59.98825429984729,2025-11-10 15h37.09.648348 +0530,
,Objects\196a.jpg,61,0,61,,,,,,,f,1.7946716999999808,0.33118229999990945,None,,,,,,,61,0,61,0,335.87772429999995,,,,,,,,,,,,,,,,,,,,,,,335.8614630000002,335.87772429999995,336.3943445,336.3611920000003,,,,,,,,,,,,,,,,,,,,,,,,,,336.37333100000023,336.3943445,336.3943445,336.3943445,339.37763940000013,shoe,f,1.7946716999999808,0.33118229999990945,339.37768210000013,339.3776911,None,,,,,,,,,,,,,,,,,00025,001,2025-11-10_15h37.05.281,MST_task,2024.2.2,59.98825429984729,2025-11-10 15h37.09.648348 +0530,
,Objects\343a.jpg,62,0,62,,,,,,,None,,,f,0.6706707000003007,None,,,,,62,0,62,0,339.3942868000004,,,,,,,,,,,,,,,,,,,,,,,339.37775150000016,339.3942868000004,339.89423080000006,339.87775610000017,,,,,,,,,,,,,,,,,,,,,,,,,,339.88695780000035,339.89423080000006,339.89423080000006,339.89423080000006,342.87774230000014,shoe,None,,,342.87777210000013,343.57781780000005,f,342.8943115000002,342.8943115000002,0.6706707000003007,None,342.8943115000002,342.8943115000002,342.8943115000002,,,,,,,,,,00025,001,2025-11-10_15h37.05.281,MST_task,2024.2.2,59.98825429984729,2025-11-10 15h37.09.648348 +0530,
,Objects\308a.jpg,63,0,63,,,,,,,j,1.7200683000000936,0.2459165000000212,None,,,,,,,63,0,63,0,343.59419389999994,,,,,,,,,,,,,,,,,,,,,,,343.57789470000034,343.59419389999994,344.11084580000033,344.07767090000016,,,,,,,,,,,,,,,,,,,,,,,,,,344.0899466000001,344.11084580000033,344.11084580000033,344.11084580000033,347.09415949999993,indoor,j,1.7200683000000936,0.2459165000000212,347.0954706000002,347.0954848000001,None,,,,,,,,,,,,,,,,,00025,001,2025-11-10_15h37.05.281,MST_task,2024.2.2,59.98825429984729,2025-11-10 15h37.09.648348 +0530,
,Objects\120a.jpg,64,0,64,,,,,,,None,,,f,0.15581979999979012,None,,,,,64,0,64,0,347.1107513000002,,,,,,,,,,,,,,,,,,,,,,,347.0955447000001,347.1107513000002,347.61073030000034,347.5942476,,,,,,,,,,,,,,,,,,,,,,,,,,347.60213390000035,347.61073030000034,347.61073030000034,347.61073030000034,350.5943811000002,indoor,None,,,350.59441460000016,350.7777193000002,f,350.61070540000037,350.61070540000037,0.15581979999979012,None,350.61070540000037,350.61070540000037,350.61070540000037,,,,,,,,,,00025,001,2025-11-10_15h37.05.281,MST_task,2024.2.2,59.98825429984729,2025-11-10 15h37.09.648348 +0530,
,Objects\162a.jpg,65,0,65,,,,,,,f,0.8368221000000631,0.29294320000008156,None,,,,,,,65,0,65,0,350.7940315000001,,,,,,,,,,,,,,,,,,,,,,,350.7777824,350.7940315000001,351.2940093000002,351.27760290000015,,,,,,,,,,,,,,,,,,,,,,,,,,351.28522509999993,351.2940093000002,351.2940093000002,351.2940093000002,354.27754159999995,indoor,f,0.8368221000000631,0.29294320000008156,354.2775769,354.27758540000013,None,,,,,354.2939736000003,354.2939736000003,354.2939736000003,,,,,,,,,,00025,001,2025-11-10_15h37.05.281,MST_task,2024.2.2,59.98825429984729,2025-11-10 15h37.09.648348 +0530,
,Objects\300a.jpg,66,0,66,,,,,,,f,2.149487300000146,0.4348697999998876,None,,,,,,,66,0,66,0,354.2939736000003,,,,,,,,,,,,,,,,,,,,,,,354.27764049999996,354.2939736000003,354.7939187000002,354.7775706000002,,,,,,,,,,,,,,,,,,,,,,,,,,354.78841310000007,354.7939187000002,354.7939187000002,354.7939187000002,357.7775477,indoor,f,2.149487300000146,0.4348697999998876,357.77758440000025,357.7775922999999,None,,,,,357.79387350000025,357.79387350000025,357.79387350000025,,,,,,,,,,00025,001,2025-11-10_15h37.05.281,MST_task,2024.2.2,59.98825429984729,2025-11-10 15h37.09.648348 +0530,
,Objects\150a.jpg,67,0,67,,,,,,,f,2.119080600000416,0.3563574999998309,None,,,,,,,67,0,67,0,357.79387350000025,,,,,,,,,,,,,,,,,,,,,,,357.77765750000026,357.79387350000025,358.29344900000024,358.2773506000003,,,,,,,,,,,,,,,,,,,,,,,,,,358.28828920000024,358.29344900000024,358.29344900000024,358.29344900000024,361.27747350000027,indoor,f,2.119080600000416,0.3563574999998309,361.27751020000005,361.27751850000004,None,,,,,361.29380459999993,361.29380459999993,361.29380459999993,,,,,,,,,,00025,001,2025-11-10_15h37.05.281,MST_task,2024.2.2,59.98825429984729,2025-11-10 15h37.09.648348 +0530,
,Objects\038a.jpg,68,0,68,,,,,,,f,1.8700926999999865,0.294003800000155,None,,,,,,,68,0,68,0,361.29380459999993,,,,,,,,,,,,,,,,,,,,,,,361.27757390000033,361.29380459999993,361.8104489000002,361.7774039000001,,,,,,,,,,,,,,,,,,,,,,,,,,361.8011563,361.8104489000002,361.8104489000002,361.8104489000002,364.79383210000015,indoor,f,1.8700926999999865,0.294003800000155,364.79387210000004,364.7938812000002,None,,,,,,,,,,,,,,,,,00025,001,2025-11-10_15h37.05.281,MST_task,2024.2.2,59.98825429984729,2025-11-10 15h37.09.648348 +0530,
,Objects\086a.jpg,69,0,69,,,,,,,f,2.511683300000186,0.2806492999998227,None,,,,,,,69,0,69,0,364.8103874000003,,,,,,,,,,,,,,,,,,,,,,,364.7939470000001,364.8103874000003,365.3103943000001,365.2938570000001,,,,,,,,,,,,,,,,,,,,,,,,,,365.30357010000034,365.3103943000001,365.3103943000001,365.3103943000001,368.29388830000016,indoor,f,2.511683300000186,0.2806492999998227,368.2939257000003,368.29393419999997,None,,,,,368.31031380000013,368.31031380000013,368.31031380000013,,,,,,,,,,00025,001,2025-11-10_15h37.05.281,MST_task,2024.2.2,59.98825429984729,2025-11-10 15h37.09.648348 +0530,
,Objects\133a.jpg,70,0,70,,,,,,,f,1.9338046000002578,0.2643097000000125,None,,,,,,,70,0,70,0,368.31031380000013,,,,,,,,,,,,,,,,,,,,,,,368.29398979999996,368.31031380000013,368.810293,368.79385120000006,,,,,,,,,,,,,,,,,,,,,,,,,,368.8042539000003,368.810293,368.810293,368.810293,371.79386460000023,shoe,f,1.9338046000002578,0.2643097000000125,371.79543760000024,371.79544880000003,None,,,,,371.81020209999997,371.81020209999997,371.81020209999997,,,,,,,,,,00025,001,2025-11-10_15h37.05.281,MST_task,2024.2.2,59.98825429984729,2025-11-10 15h37.09.648348 +0530,
,Objects\366a.jpg,71,0,71,,,,,,,f,2.184454299999743,0.27726190000021234,None,,,,,,,71,0,71,0,371.81020209999997,,,,,,,,,,,,,,,,,,,,,,,371.79550629999994,371.81020209999997,372.310254,372.29376279999997,,,,,,,,,,,,,,,,,,,,,,,,,,372.3016769000001,372.310254,372.310254,372.310254,375.2938068000003,shoe,f,2.184454299999743,0.27726190000021234,375.29384230000005,375.29385040000034,None,,,,,375.3101901,375.3101901,375.3101901,,,,,,,,,,00025,001,2025-11-10_15h37.05.281,MST_task,2024.2.2,59.98825429984729,2025-11-10 15h37.09.648348 +0530,
,Objects\375a.jpg,72,0,72,,,,,,,None,,,f,0.23805670000001555,None,,,,,72,0,72,0,375.3101901,,,,,,,,,,,,,,,,,,,,,,,375.29390980000016,375.3101901,375.8097296000001,375.7937826000002,,,,,,,,,,,,,,,,,,,,,,,,,,375.80468980000023,375.8097296000001,375.8097296000001,375.8097296000001,378.7937986000002,shoe,None,,,378.7938336000002,379.0603328000002,f,378.81008150000025,378.81008150000025,0.23805670000001555,None,378.81008150000025,378.81008150000025,378.81008150000025,,,,,,,,,,00025,001,2025-11-10_15h37.05.281,MST_task,2024.2.2,59.98825429984729,2025-11-10 15h37.09.648348 +0530,
,Objects\083a.jpg,73,0,73,,,,,,,f,0.9742260999996688,0.3136287000002085,None,,,,,,,73,0,73,0,379.07670380000036,,,,,,,,,,,,,,,,,,,,,,,379.0604013000002,379.07670380000036,379.5763202000003,379.56023630000027,,,,,,,,,,,,,,,,,,,,,,,,,,379.57123040000033,379.5763202000003,379.5763202000003,379.5763202000003,382.56024590000015,shoe,f,0.9742260999996688,0.3136287000002085,382.56028400000014,382.56029260000014,None,,,,,382.57666530000006,382.57666530000006,382.57666530000006,,,,,,,,,,00025,001,2025-11-10_15h37.05.281,MST_task,2024.2.2,59.98825429984729,2025-11-10 15h37.09.648348 +0530,
,Objects\244a.jpg,74,0,74,,,,,,,f,1.4218731000000844,0.2843473999996604,None,,,,,,,74,0,74,0,382.57666530000006,,,,,,,,,,,,,,,,,,,,,,,382.56034910000017,382.57666530000006,383.07661480000024,383.0601174000003,,,,,,,,,,,,,,,,,,,,,,,,,,383.0695208000002,383.07661480000024,383.07661480000024,383.07661480000024,386.0601577000002,shoe,f,1.4218731000000844,0.2843473999996604,386.0601947,386.0602024,None,,,,,386.0765951000003,386.0765951000003,386.0765951000003,,,,,,,,,,00025,001,2025-11-10_15h37.05.281,MST_task,2024.2.2,59.98825429984729,2025-11-10 15h37.09.648348 +0530,
,Objects\279a.jpg,75,0,75,,,,,,,j,2.913981899999726,None,None,,,,,,,75,0,75,0,386.0765951000003,,,,,,,,,,,,,,,,,,,,,,,386.0602578000003,386.0765951000003,386.5766219000002,386.56006800000023,,,,,,,,,,,,,,,,,,,,,,,,,,386.5713774000001,386.5766219000002,386.5766219000002,386.5766219000002,389.5600545000002,shoe,j,2.913981899999726,None,389.56008850000035,389.56009670000003,None,,,,,389.5765391,389.5765391,389.5765391,,,,,,,,,,00025,001,2025-11-10_15h37.05.281,MST_task,2024.2.2,59.98825429984729,2025-11-10 15h37.09.648348 +0530,
,Objects\188a.jpg,76,0,76,,,,,,,f,1.7525123000000349,0.3257842000002711,None,,,,,,,76,0,76,0,389.5765391,,,,,,,,,,,,,,,,,,,,,,,389.5601479000002,389.5765391,390.0764557000002,390.06004010000015,,,,,,,,,,,,,,,,,,,,,,,,,,390.06802940000034,390.0764557000002,390.0764557000002,390.0764557000002,393.0600340000001,shoe,f,1.7525123000000349,0.3257842000002711,393.06007120000004,393.06007950000003,None,,,,,393.0764271000003,393.0764271000003,393.0764271000003,,,,,,,,,,00025,001,2025-11-10_15h37.05.281,MST_task,2024.2.2,59.98825429984729,2025-11-10 15h37.09.648348 +0530,
,Objects\142a.jpg,77,0,77,,,,,,,f,1.7658986999999797,0.33246820000022126,None,,,,,,,77,0,77,0,393.0764271000003,,,,,,,,,,,,,,,,,,,,,,,393.0601721000003,393.0764271000003,393.57638270000007,393.5600051000001,,,,,,,,,,,,,,,,,,,,,,,,,,393.5690440000003,393.57638270000007,393.57638270000007,393.57638270000007,396.5601061000002,indoor,f,1.7658986999999797,0.33246820000022126,396.56128820000004,396.5613005,None,,,,,396.5763694000002,396.5763694000002,396.5763694000002,,,,,,,,,,00025,001,2025-11-10_15h37.05.281,MST_task,2024.2.2,59.98825429984729,2025-11-10 15h37.09.648348 +0530,
,Objects\252a.jpg,78,0,78,,,,,,,f,1.7312251000003016,0.49629589999995005,None,,,,,,,78,0,78,0,396.5763694000002,,,,,,,,,,,,,,,,,,,,,,,396.5613585000001,396.5763694000002,397.0763035,397.05992430000015,,,,,,,,,,,,,,,,,,,,,,,,,,397.06778580000037,397.0763035,397.0763035,397.0763035,400.0598815000003,indoor,f,1.7312251000003016,0.49629589999995005,400.0599194000001,400.0599274000001,None,,,,,400.0762801000001,400.0762801000001,400.0762801000001,,,,,,,,,,00025,001,2025-11-10_15h37.05.281,MST_task,2024.2.2,59.98825429984729,2025-11-10 15h37.09.648348 +0530,
,Objects\060a.jpg,79,0,79,,,,,,,f,2.0222168999998757,0.31215389999988474,None,,,,,,,79,0,79,0,400.0762801000001,,,,,,,,,,,,,,,,,,,,,,,400.0599873000001,400.0762801000001,400.57625499999995,400.55979700000034,,,,,,,,,,,,,,,,,,,,,,,,,,400.5678653,400.57625499999995,400.57625499999995,400.57625499999995,403.5597415000002,indoor,f,2.0222168999998757,0.31215389999988474,403.55977470000016,403.5597828,None,,,,,403.5762007000003,403.5762007000003,403.5762007000003,,,,,,,,,,00025,001,2025-11-10_15h37.05.281,MST_task,2024.2.2,59.98825429984729,2025-11-10 15h37.09.648348 +0530,
,Objects\301a.jpg,80,0,80,,,,,,,None,,,j,0.1718975000003411,None,,,,,80,0,80,0,403.5762007000003,,,,,,,,,,,,,,,,,,,,,,,403.55985469999996,403.5762007000003,404.0928498000003,404.0596716,,,,,,,,,,,,,,,,,,,,,,,,,,404.07988520000026,404.0928498000003,404.0928498000003,404.0928498000003,407.0761486000001,indoor,None,,,407.07618100000036,407.27650459999995,j,407.09278970000014,407.09278970000014,0.1718975000003411,None,,,,,,,,,,,,,00025,001,2025-11-10_15h37.05.281,MST_task,2024.2.2,59.98825429984729,2025-11-10 15h37.09.648348 +0530,
,Objects\146a.jpg,81,0,81,,,,,,,f,0.919897199999923,0.17427440000028582,None,,,,,,,81,0,81,0,407.2927775000003,,,,,,,,,,,,,,,,,,,,,,,407.2765714000002,407.2927775000003,407.792739,407.77626750000036,,,,,,,,,,,,,,,,,,,,,,,,,,407.7841720000001,407.792739,407.792739,407.792739,410.7763146000002,indoor,f,0.919897199999923,0.17427440000028582,410.7763772000003,410.7763855000003,None,,,,,410.79271080000035,410.79271080000035,410.79271080000035,,,,,,,,,,00025,001,2025-11-10_15h37.05.281,MST_task,2024.2.2,59.98825429984729,2025-11-10 15h37.09.648348 +0530,
,Objects\255a.jpg,82,0,82,,,,,,,f,2.4001625000000786,0.3476117999998678,None,,,,,,,82,0,82,0,410.79271080000035,,,,,,,,,,,,,,,,,,,,,,,410.77643960000023,410.79271080000035,411.2926602000002,411.27624300000025,,,,,,,,,,,,,,,,,,,,,,,,,,411.2867043000001,411.2926602000002,411.2926602000002,411.2926602000002,414.2762947000001,indoor,f,2.4001625000000786,0.3476117999998678,414.27633319999995,414.27634130000024,None,,,,,414.2926289000002,414.2926289000002,414.2926289000002,,,,,,,,,,00025,001,2025-11-10_15h37.05.281,MST_task,2024.2.2,59.98825429984729,2025-11-10 15h37.09.648348 +0530,
,Objects\088a.jpg,83,0,83,,,,,,,f,2.3415775999997095,0.5134970000003705,None,,,,,,,83,0,83,0,414.2926289000002,,,,,,,,,,,,,,,,,,,,,,,414.27639590000035,414.2926289000002,414.80928410000024,414.77624060000016,,,,,,,,,,,,,,,,,,,,,,,,,,414.78749340000013,414.80928410000024,414.80928410000024,414.80928410000024,417.79258600000003,indoor,f,2.3415775999997095,0.5134970000003705,417.7926238,417.7926332000002,None,,,,,,,,,,,,,,,,,00025,001,2025-11-10_15h37.05.281,MST_task,2024.2.2,59.98825429984729,2025-11-10 15h37.09.648348 +0530,
,Objects\166a.jpg,84,0,84,,,,,,,f,1.5350521999998819,0.3664723000001686,None,,,,,,,84,0,84,0,417.8092194000001,,,,,,,,,,,,,,,,,,,,,,,417.79268930000035,417.8092194000001,418.3091706,418.2928200000001,,,,,,,,,,,,,,,,,,,,,,,,,,418.30188610000005,418.3091706,418.3091706,418.3091706,421.29272340000034,shoe,f,1.5350521999998819,0.3664723000001686,421.29425400000036,421.29426460000013,None,,,,,421.30910300000005,421.30910300000005,421.30910300000005,,,,,,,,,,00025,001,2025-11-10_15h37.05.281,MST_task,2024.2.2,59.98825429984729,2025-11-10 15h37.09.648348 +0530,
,Objects\286a.jpg,85,0,85,,,,,,,f,1.3898309999999583,1.3532399000000623,None,,,,,,,85,0,85,0,421.30910300000005,,,,,,,,,,,,,,,,,,,,,,,421.29434949999995,421.30910300000005,421.8090986000002,421.79265680000026,,,,,,,,,,,,,,,,,,,,,,,,,,421.8024854,421.8090986000002,421.8090986000002,421.8090986000002,424.79266830000006,shoe,f,1.3898309999999583,1.3532399000000623,424.7927093000003,424.79271770000014,None,,,,,424.8090502,424.8090502,424.8090502,,,,,,,,,,00025,001,2025-11-10_15h37.05.281,MST_task,2024.2.2,59.98825429984729,2025-11-10 15h37.09.648348 +0530,
,Objects\274a.jpg,86,0,86,,,,,,,f,1.9897315999996863,0.28972569999996267,None,,,,,,,86,0,86,0,424.8090502,,,,,,,,,,,,,,,,,,,,,,,424.7927715999999,424.8090502,425.30904120000014,425.2926456,,,,,,,,,,,,,,,,,,,,,,,,,,425.3032688000003,425.30904120000014,425.30904120000014,425.30904120000014,428.2925561000002,shoe,f,1.9897315999996863,0.28972569999996267,428.2925894,428.2925974,None,,,,,428.30899880000015,428.30899880000015,428.30899880000015,,,,,,,,,,00025,001,2025-11-10_15h37.05.281,MST_task,2024.2.2,59.98825429984729,2025-11-10 15h37.09.648348 +0530,
,Objects\248a.jpg,87,0,87,,,,,,,f,1.7949085999998715,0.33993869999994786,None,,,,,,,87,0,87,0,428.30899880000015,,,,,,,,,,,,,,,,,,,,,,,428.29265090000035,428.30899880000015,428.8256056,428.79255809999995,,,,,,,,,,,,,,,,,,,,,,,,,,428.8067807000002,428.8256056,428.8256056,428.8256056,431.80894850000004,shoe,f,1.7949085999998715,0.33993869999994786,431.8090043000002,431.80901340000037,None,,,,,,,,,,,,,,,,,00025,001,2025-11-10_15h37.05.281,MST_task,2024.2.2,59.98825429984729,2025-11-10 15h37.09.648348 +0530,
,Objects\101a.jpg,88,0,88,,,,,,,None,,,j,0.1922951000001376,None,,,,,88,0,88,0,431.8255687000001,,,,,,,,,,,,,,,,,,,,,,,431.8090722000002,431.8255687000001,432.34226209999997,432.3090752000003,,,,,,,,,,,,,,,,,,,,,,,,,,432.3214014,432.34226209999997,432.34226209999997,432.34226209999997,435.3255145000003,shoe,None,,,435.32554640000035,435.54259530000036,j,435.3421636000003,435.3421636000003,0.1922951000001376,None,,,,,,,,,,,,,00025,001,2025-11-10_15h37.05.281,MST_task,2024.2.2,59.98825429984729,2025-11-10 15h37.09.648348 +0530,
,Objects\164a.jpg,89,0,89,,,,,,,f,1.5041494999995848,0.2676315000003342,None,,,,,,,89,0,89,0,435.5588272,,,,,,,,,,,,,,,,,,,,,,,435.5426559000002,435.5588272,436.0588065000002,436.04229780000014,,,,,,,,,,,,,,,,,,,,,,,,,,436.0500271000001,436.0588065000002,436.0588065000002,436.0588065000002,439.0424406000002,shoe,f,1.5041494999995848,0.2676315000003342,439.0424790000002,439.0424882000002,None,,,,,439.0587512000002,439.0587512000002,439.0587512000002,,,,,,,,,,00025,001,2025-11-10_15h37.05.281,MST_task,2024.2.2,59.98825429984729,2025-11-10 15h37.09.648348 +0530,
,Objects\005a.jpg,90,0,90,,,,,,,f,1.5095016999998734,0.34878329999992275,None,,,,,,,90,0,90,0,439.0587512000002,,,,,,,,,,,,,,,,,,,,,,,439.04257610000013,439.0587512000002,439.5587048000002,439.5423372,,,,,,,,,,,,,,,,,,,,,,,,,,439.54990810000027,439.5587048000002,439.5587048000002,439.5587048000002,442.5423495,shoe,f,1.5095016999998734,0.34878329999992275,442.5423859000002,442.5423943999999,None,,,,,442.55868250000003,442.55868250000003,442.55868250000003,,,,,,,,,,00025,001,2025-11-10_15h37.05.281,MST_task,2024.2.2,59.98825429984729,2025-11-10 15h37.09.648348 +0530,
,Objects\265a.jpg,91,0,91,,,,,,,None,,,j,0.03521539999974266,None,,,,,91,0,91,0,442.55868250000003,,,,,,,,,,,,,,,,,,,,,,,442.54248069999994,442.55868250000003,443.0920774000001,443.0421900000001,,,,,,,,,,,,,,,,,,,,,,,,,,443.0729487000003,443.0920774000001,443.0920774000001,443.0920774000001,446.05873870000005,indoor,None,,,446.0600604000001,446.1256569000002,j,446.07544000000007,446.07544000000007,0.03521539999974266,None,,,,,,,,,,,,,00025,001,2025-11-10_15h37.05.281,MST_task,2024.2.2,59.98825429984729,2025-11-10 15h37.09.648348 +0530,
,Objects\069a.jpg,92,0,92,,,,,,,j,2.350951399999758,0.20203099999980623,None,,,,,,,92,0,92,0,446.14206630000035,,,,,,,,,,,,,,,,,,,,,,,446.12571670000034,446.14206630000035,446.6420572000002,446.625458,,,,,,,,,,,,,,,,,,,,,,,,,,446.6359159000003,446.6420572000002,446.6420572000002,446.6420572000002,449.6255393000001,indoor,j,2.350951399999758,0.20203099999980623,449.625575,449.62558390000004,None,,,,,449.64194240000006,449.64194240000006,449.64194240000006,,,,,,,,,,00025,001,2025-11-10_15h37.05.281,MST_task,2024.2.2,59.98825429984729,2025-11-10 15h37.09.648348 +0530,
,Objects\020a.jpg,93,0,93,,,,,,,f,1.296412600000167,0.2223085999999057,None,,,,,,,93,0,93,0,449.64194240000006,,,,,,,,,,,,,,,,,,,,,,,449.6256416000001,449.64194240000006,450.1418727,450.1255188,,,,,,,,,,,,,,,,,,,,,,,,,,450.1331249,450.1418727,450.1418727,450.1418727,453.12541580000016,indoor,f,1.296412600000167,0.2223085999999057,453.1254503,453.1254584000003,None,,,,,453.1418633000003,453.1418633000003,453.1418633000003,,,,,,,,,,00025,001,2025-11-10_15h37.05.281,MST_task,2024.2.2,59.98825429984729,2025-11-10 15h37.09.648348 +0530,
,Objects\032a.jpg,94,0,94,,,,,,,j,1.1117678000000524,0.20105560000001788,None,,,,,,,94,0,94,0,453.1418633000003,,,,,,,,,,,,,,,,,,,,,,,453.12551120000035,453.1418633000003,453.64194110000017,453.62528740000016,,,,,,,,,,,,,,,,,,,,,,,,,,453.63312870000027,453.64194110000017,453.64194110000017,453.64194110000017,456.6253104000002,indoor,j,1.1117678000000524,0.20105560000001788,456.6253488000002,456.6253568000002,None,,,,,456.64181499999995,456.64181499999995,456.64181499999995,,,,,,,,,,00025,001,2025-11-10_15h37.05.281,MST_task,2024.2.2,59.98825429984729,2025-11-10 15h37.09.648348 +0530,
,Objects\140a.jpg,95,0,95,,,,,,,j,2.06335080000008,0.21730460000026142,None,,,,,,,95,0,95,0,456.64181499999995,,,,,,,,,,,,,,,,,,,,,,,456.6254164000002,456.64181499999995,457.14177580000023,457.12531400000034,,,,,,,,,,,,,,,,,,,,,,,,,,457.13263129999996,457.14177580000023,457.14177580000023,457.14177580000023,460.1252456000002,indoor,j,2.06335080000008,0.21730460000026142,460.12528040000007,460.12528850000035,None,,,,,460.14175380000006,460.14175380000006,460.14175380000006,,,,,,,,,,00025,001,2025-11-10_15h37.05.281,MST_task,2024.2.2,59.98825429984729,2025-11-10 15h37.09.648348 +0530,
,Objects\051a.jpg,96,0,96,,,,,,,f,2.5386132999997244,0.30477220000011584,None,,,,,,,96,0,96,0,460.14175380000006,,,,,,,,,,,,,,,,,,,,,,,460.12533870000016,460.14175380000006,460.64169059999995,460.62520410000025,,,,,,,,,,,,,,,,,,,,,,,,,,460.6327831000003,460.64169059999995,460.64169059999995,460.64169059999995,463.62527620000037,indoor,f,2.5386132999997244,0.30477220000011584,463.6253167,463.625325,None,,,,,463.64166650000016,463.64166650000016,463.64166650000016,,,,,,,,,,00025,001,2025-11-10_15h37.05.281,MST_task,2024.2.2,59.98825429984729,2025-11-10 15h37.09.648348 +0530,
,Objects\046a.jpg,97,0,97,,,,,,,None,,,f,0.4134429000000637,None,,,,,97,0,97,0,463.64166650000016,,,,,,,,,,,,,,,,,,,,,,,463.6253839000001,463.64166650000016,464.1416013000003,464.12522880000006,,,,,,,,,,,,,,,,,,,,,,,,,,464.13289970000005,464.1416013000003,464.1416013000003,464.1416013000003,467.1250825000002,indoor,None,,,467.12511280000035,467.55857920000017,f,467.1416426999999,467.1416426999999,0.4134429000000637,None,467.1416426999999,467.1416426999999,467.1416426999999,,,,,,,,,,00025,001,2025-11-10_15h37.05.281,MST_task,2024.2.2,59.98825429984729,2025-11-10 15h37.09.648348 +0530,
,Objects\168a.jpg,98,0,98,,,,,,,f,2.603041700000176,0.31068429999959335,None,,,,,,,98,0,98,0,467.57494540000016,,,,,,,,,,,,,,,,,,,,,,,467.55865170000015,467.57494540000016,468.0748633000003,468.05837640000027,,,,,,,,,,,,,,,,,,,,,,,,,,468.06749519999994,468.0748633000003,468.0748633000003,468.0748633000003,471.05843300000015,shoe,f,2.603041700000176,0.31068429999959335,471.0599652000001,471.05997620000016,None,,,,,471.0748013000002,471.0748013000002,471.0748013000002,,,,,,,,,,00025,001,2025-11-10_15h37.05.281,MST_task,2024.2.2,59.98825429984729,2025-11-10 15h37.09.648348 +0530,
,Objects\214a.jpg,99,0,99,,,,,,,f,2.1280431999998655,0.33612540000012814,None,,,,,,,99,0,99,0,471.0748013000002,,,,,,,,,,,,,,,,,,,,,,,471.0600604000001,471.0748013000002,471.57475790000035,471.5582773000001,,,,,,,,,,,,,,,,,,,,,,,,,,471.5658432,471.57475790000035,471.57475790000035,471.57475790000035,474.5582201000002,shoe,f,2.1280431999998655,0.33612540000012814,474.55825470000036,474.5582631000002,None,,,,,474.5746392000001,474.5746392000001,474.5746392000001,,,,,,,,,,00025,001,2025-11-10_15h37.05.281,MST_task,2024.2.2,59.98825429984729,2025-11-10 15h37.09.648348 +0530,
,Objects\218a.jpg,100,0,100,,,,,,,j,2.92965200000026,None,None,,,,,,,100,0,100,0,474.5746392000001,,,,,,,,,,,,,,,,,,,,,,,474.5583165000003,474.5746392000001,475.0746416000002,475.05824280000024,,,,,,,,,,,,,,,,,,,,,,,,,,475.0687204999999,475.0746416000002,475.0746416000002,475.0746416000002,478.0581086000002,shoe,j,2.92965200000026,None,478.05814280000004,478.0581509000003,None,,,,,478.07456460000003,478.07456460000003,478.07456460000003,,,,,,,,,,00025,001,2025-11-10_15h37.05.281,MST_task,2024.2.2,59.98825429984729,2025-11-10 15h37.09.648348 +0530,
,Objects\091a.jpg,101,0,101,,,,,,,j,1.4783685000002151,0.23461989999987054,None,,,,,,,101,0,101,0,478.07456460000003,,,,,,,,,,,,,,,,,,,,,,,478.05823439999995,478.07456460000003,478.5741369000002,478.55802770000037,,,,,,,,,,,,,,,,,,,,,,,,,,478.5691377000003,478.5741369000002,478.5741369000002,478.5741369000002,481.5580358000002,shoe,j,1.4783685000002151,0.23461989999987054,481.55807070000037,481.55807920000007,None,,,,,481.5744781000003,481.5744781000003,481.5744781000003,,,,,,,,,,00025,001,2025-11-10_15h37.05.281,MST_task,2024.2.2,59.98825429984729,2025-11-10 15h37.09.648348 +0530,
,Objects\080a.jpg,102,0,102,,,,,,,None,,,f,0.7077509999999165,None,,,,,102,0,102,0,481.5744781000003,,,,,,,,,,,,,,,,,,,,,,,481.55816360000017,481.5744781000003,482.0745035,482.0580732000003,,,,,,,,,,,,,,,,,,,,,,,,,,482.0657362000002,482.0745035,482.0745035,482.0745035,485.05795720000015,shoe,None,,,485.05799130000014,485.79149570000027,f,485.0744073999999,485.0744073999999,0.7077509999999165,None,485.0744073999999,485.0744073999999,485.0744073999999,,,,,,,,,,00025,001,2025-11-10_15h37.05.281,MST_task,2024.2.2,59.98825429984729,2025-11-10 15h37.09.648348 +0530,
,Objects\365a.jpg,103,0,103,,,,,,,f,2.3551204999998845,0.22942030000012892,None,,,,,,,103,0,103,0,485.80776630000037,,,,,,,,,,,,,,,,,,,,,,,485.7915744000002,485.80776630000037,486.3076751000003,486.2913106000001,,,,,,,,,,,,,,,,,,,,,,,,,,486.30181530000027,486.3076751000003,486.3076751000003,486.3076751000003,489.2912051000003,shoe,f,2.3551204999998845,0.22942030000012892,489.29123819999995,489.29124649999994,None,,,,,489.30764279999994,489.30764279999994,489.30764279999994,,,,,,,,,,00025,001,2025-11-10_15h37.05.281,MST_task,2024.2.2,59.98825429984729,2025-11-10 15h37.09.648348 +0530,
,Objects\306a.jpg,104,0,104,,,,,,,f,0.9202362000000903,0.21761740000010832,None,,,,,,,104,0,104,0,489.30764279999994,,,,,,,,,,,,,,,,,,,,,,,489.2912991000003,489.30764279999994,489.82429920000004,489.79111409999996,,,,,,,,,,,,,,,,,,,,,,,,,,489.80389890000015,489.82429920000004,489.82429920000004,489.82429920000004,492.8076146000003,shoe,f,0.9202362000000903,0.21761740000010832,492.80767860000014,492.8076877000003,None,,,,,,,,,,,,,,,,,00025,001,2025-11-10_15h37.05.281,MST_task,2024.2.2,59.98825429984729,2025-11-10 15h37.09.648348 +0530,
,Objects\117a.jpg,105,0,105,,,,,,,j,2.1096010999999635,0.19536809999999605,None,,,,,,,105,0,105,0,492.82423270000027,,,,,,,,,,,,,,,,,,,,,,,492.8077773,492.82423270000027,493.3409167,493.3078362000001,,,,,,,,,,,,,,,,,,,,,,,,,,493.3214734000003,493.3409167,493.3409167,493.3409167,496.3242131000002,indoor,j,2.1096010999999635,0.19536809999999605,496.3254823000002,496.3254942000003,None,,,,,,,,,,,,,,,,,00025,001,2025-11-10_15h37.05.281,MST_task,2024.2.2,59.98825429984729,2025-11-10 15h37.09.648348 +0530,
,Objects\179a.jpg,106,0,106,,,,,,,f,2.3081812000000355,0.23132110000005923,None,,,,,,,106,0,106,0,496.3407895,,,,,,,,,,,,,,,,,,,,,,,496.3255489000003,496.3407895,496.8407794,496.82437329999993,,,,,,,,,,,,,,,,,,,,,,,,,,496.83204449999994,496.8407794,496.8407794,496.8407794,499.82432770000014,indoor,f,2.3081812000000355,0.23132110000005923,499.82436140000027,499.82436989999997,None,,,,,499.8407787000001,499.8407787000001,499.8407787000001,,,,,,,,,,00025,001,2025-11-10_15h37.05.281,MST_task,2024.2.2,59.98825429984729,2025-11-10 15h37.09.648348 +0530,
,Objects\076a.jpg,107,0,107,,,,,,,j,2.147817099999884,0.161524499999814,None,,,,,,,107,0,107,0,499.8407787000001,,,,,,,,,,,,,,,,,,,,,,,499.82442560000027,499.8407787000001,500.3407231000001,500.3243493,,,,,,,,,,,,,,,,,,,,,,,,,,500.33180740000034,500.3407231000001,500.3407231000001,500.3407231000001,503.3242531000001,indoor,j,2.147817099999884,0.161524499999814,503.32428630000004,503.3242938000003,None,,,,,503.3406785000002,503.3406785000002,503.3406785000002,,,,,,,,,,00025,001,2025-11-10_15h37.05.281,MST_task,2024.2.2,59.98825429984729,2025-11-10 15h37.09.648348 +0530,
,Objects\175a.jpg,108,0,108,,,,,,,f,2.222155599999951,0.21016999999983454,None,,,,,,,108,0,108,0,503.3406785000002,,,,,,,,,,,,,,,,,,,,,,,503.32434760000024,503.3406785000002,503.84062470000026,503.82415990000027,,,,,,,,,,,,,,,,,,,,,,,,,,503.83195290000003,503.84062470000026,503.84062470000026,503.84062470000026,506.82414340000014,indoor,f,2.222155599999951,0.21016999999983454,506.82417840000016,506.8241869000003,None,,,,,506.84059530000013,506.84059530000013,506.84059530000013,,,,,,,,,,00025,001,2025-11-10_15h37.05.281,MST_task,2024.2.2,59.98825429984729,2025-11-10 15h37.09.648348 +0530,
,Objects\019a.jpg,109,0,109,,,,,,,None,,,f,0.13209600000027422,None,,,,,109,0,109,0,506.84059530000013,,,,,,,,,,,,,,,,,,,,,,,506.82424260000016,506.84059530000013,507.34054749999996,507.3240638000002,,,,,,,,,,,,,,,,,,,,,,,,,,507.3326360000001,507.34054749999996,507.34054749999996,507.34054749999996,510.32406530000026,indoor,None,,,510.3240974,510.47439600000007,f,510.3405246000002,510.3405246000002,0.13209600000027422,None,510.3405246000002,510.3405246000002,510.3405246000002,,,,,,,,,,00025,001,2025-11-10_15h37.05.281,MST_task,2024.2.2,59.98825429984729,2025-11-10 15h37.09.648348 +0530,
,Objects\053a.jpg,110,0,110,,,,,,,f,1.101601799999571,0.21518650000007256,None,,,,,,,110,0,110,0,510.4904813000003,,,,,,,,,,,,,,,,,,,,,,,510.4744621,510.4904813000003,510.9904756000001,510.9741366000003,,,,,,,,,,,,,,,,,,,,,,,,,,510.9819241,510.9904756000001,510.9904756000001,510.9904756000001,513.9740771000002,indoor,f,1.101601799999571,0.21518650000007256,513.9741125,513.9741213000002,None,,,,,513.9904033000003,513.9904033000003,513.9904033000003,,,,,,,,,,00025,001,2025-11-10_15h37.05.281,MST_task,2024.2.2,59.98825429984729,2025-11-10 15h37.09.648348 +0530,
,Objects\017a.jpg,111,0,111,,,,,,,f,2.1356636000000435,0.3411737000001267,None,,,,,,,111,0,111,0,513.9904033000003,,,,,,,,,,,,,,,,,,,,,,,513.9741749,513.9904033000003,514.4904386000003,514.4739210000002,,,,,,,,,,,,,,,,,,,,,,,,,,514.4816951000003,514.4904386000003,514.4904386000003,514.4904386000003,517.4739686000003,indoor,f,2.1356636000000435,0.3411737000001267,517.4740053,517.4740135000002,None,,,,,517.4903348000003,517.4903348000003,517.4903348000003,,,,,,,,,,00025,001,2025-11-10_15h37.05.281,MST_task,2024.2.2,59.98825429984729,2025-11-10 15h37.09.648348 +0530,
,Objects\355a.jpg,112,0,112,,,,,,,f,2.8761123999997835,None,None,,,,,,,112,0,112,0,517.4903348000003,,,,,,,,,,,,,,,,,,,,,,,517.4740664999999,517.4903348000003,518.0070721000002,517.9738191000001,,,,,,,,,,,,,,,,,,,,,,,,,,517.9865269000002,518.0070721000002,518.0070721000002,518.0070721000002,520.9903222000003,shoe,f,2.8761123999997835,None,520.991822,520.9918338000002,None,,,,,,,,,,,,,,,,,00025,001,2025-11-10_15h37.05.281,MST_task,2024.2.2,59.98825429984729,2025-11-10 15h37.09.648348 +0530,
,Objects\333a.jpg,113,0,113,,,,,,,f,1.7534443999998075,0.8009987000000365,None,,,,,,,113,0,113,0,521.0069153,,,,,,,,,,,,,,,,,,,,,,,520.9918872000003,521.0069153,521.5235647,521.4906153000002,,,,,,,,,,,,,,,,,,,,,,,,,,521.5017886,521.5235647,521.5235647,521.5235647,524.5068863000001,shoe,f,1.7534443999998075,0.8009987000000365,524.5069282,524.5069374,None,,,,,,,,,,,,,,,,,00025,001,2025-11-10_15h37.05.281,MST_task,2024.2.2,59.98825429984729,2025-11-10 15h37.09.648348 +0530,
,Objects\284a.jpg,114,0,114,,,,,,,None,,,f,1.4390964999997777,None,,,,,114,0,114,0,524.5235507000002,,,,,,,,,,,,,,,,,,,,,,,524.5069958000004,524.5235507000002,525.0233693,525.0070608000001,,,,,,,,,,,,,,,,,,,,,,,,,,525.0172910000001,525.0233693,525.0233693,525.0233693,528.0071407,shoe,None,,,528.0071744000002,529.4737744000004,f,528.0234509000002,528.0234509000002,1.4390964999997777,None,528.0234509000002,528.0234509000002,528.0234509000002,,,,,,,,,,00025,001,2025-11-10_15h37.05.281,MST_task,2024.2.2,59.98825429984729,2025-11-10 15h37.09.648348 +0530,
,Objects\090a.jpg,115,0,115,,,,,,,j,1.894412999999986,0.250729599999886,None,,,,,,,115,0,115,0,529.4900605000003,,,,,,,,,,,,,,,,,,,,,,,529.4738498000002,529.4900605000003,529.9896655000002,529.9736720999999,,,,,,,,,,,,,,,,,,,,,,,,,,529.9849573000001,529.9896655000002,529.9896655000002,529.9896655000002,532.9735875000001,shoe,j,1.894412999999986,0.250729599999886,532.9736299000001,532.9736388000001,None,,,,,532.9900166000002,532.9900166000002,532.9900166000002,,,,,,,,,,00025,001,2025-11-10_15h37.05.281,MST_task,2024.2.2,59.98825429984729,2025-11-10 15h37.09.648348 +0530,
,Objects\100a.jpg,116,0,116,,,,,,,f,2.604634199999964,0.2499337999997806,None,,,,,,,116,0,116,0,532.9900166000002,,,,,,,,,,,,,,,,,,,,,,,532.9736986000003,532.9900166000002,533.4899712000001,533.4735236000001,,,,,,,,,,,,,,,,,,,,,,,,,,533.4813716000003,533.4899712000001,533.4899712000001,533.4899712000001,536.4735995000001,shoe,f,2.604634199999964,0.2499337999997806,536.4736362000003,536.4736443000002,None,,,,,536.4900521,536.4900521,536.4900521,,,,,,,,,,00025,001,2025-11-10_15h37.05.281,MST_task,2024.2.2,59.98825429984729,2025-11-10 15h37.09.648348 +0530,
,Objects\357a.jpg,117,0,117,,,,,,,f,1.855116900000212,0.2173597000000882,None,,,,,,,117,0,117,0,536.4900521,,,,,,,,,,,,,,,,,,,,,,,536.4737036000001,536.4900521,536.9899869999999,536.9736534000003,,,,,,,,,,,,,,,,,,,,,,,,,,536.9815911000001,536.9899869999999,536.9899869999999,536.9899869999999,539.9735336000003,shoe,f,1.855116900000212,0.2173597000000882,539.9735751000003,539.9735840000003,None,,,,,539.9899554000003,539.9899554000003,539.9899554000003,,,,,,,,,,00025,001,2025-11-10_15h37.05.281,MST_task,2024.2.2,59.98825429984729,2025-11-10 15h37.09.648348 +0530,
,Objects\132a.jpg,118,0,118,,,,,,,f,1.4505285000000185,0.31595030000016777,None,,,,,,,118,0,118,0,539.9899554000003,,,,,,,,,,,,,,,,,,,,,,,539.9736437000001,539.9899554000003,540.4899116000001,540.4734665999999,,,,,,,,,,,,,,,,,,,,,,,,,,540.481362,540.4899116000001,540.4899116000001,540.4899116000001,543.4736207000001,shoe,f,1.4505285000000185,0.31595030000016777,543.4736538000002,543.4736618000002,None,,,,,543.4898524,543.4898524,543.4898524,,,,,,,,,,00025,001,2025-11-10_15h37.05.281,MST_task,2024.2.2,59.98825429984729,2025-11-10 15h37.09.648348 +0530,
,Objects\191a.jpg,119,0,119,,,,,,,None,,,j,2.3791062999998758,None,,,,,119,0,119,0,543.4898524,,,,,,,,,,,,,,,,,,,,,,,543.4737451000001,543.4898524,543.9898989000003,543.9733482000001,,,,,,,,,,,,,,,,,,,,,,,,,,543.9821735,543.9898989000003,543.9898989000003,543.9898989000003,546.9733226000003,indoor,None,,,546.9744357,549.3734058,j,546.9897920000003,546.9897920000003,2.3791062999998758,None,546.9897920000003,546.9897920000003,546.9897920000003,,,,,,,,,,00025,001,2025-11-10_15h37.05.281,MST_task,2024.2.2,59.98825429984729,2025-11-10 15h37.09.648348 +0530,
,Objects\350a.jpg,120,0,120,,,,,,,None,,,f,1.2921180000003005,None,,,,,120,0,120,0,549.3897765000002,,,,,,,,,,,,,,,,,,,,,,,549.3734814,549.3897765000002,549.9063691000001,549.8732255,,,,,,,,,,,,,,,,,,,,,,,,,,549.8857983000003,549.9063691000001,549.9063691000001,549.9063691000001,552.8896986,indoor,None,,,552.8897338000002,554.2065855999999,f,552.9063668000003,552.9063668000003,1.2921180000003005,None,,,,,,,,,,,,,00025,001,2025-11-10_15h37.05.281,MST_task,2024.2.2,59.98825429984729,2025-11-10 15h37.09.648348 +0530,
,Objects\031a.jpg,121,0,121,,,,,,,j,2.5532757000000856,0.22293619999982184,None,,,,,,,121,0,121,0,554.2230142000003,,,,,,,,,,,,,,,,,,,,,,,554.2066710000004,554.2230142000003,554.7396627000003,554.7064742000002,,,,,,,,,,,,,,,,,,,,,,,,,,554.7188742000003,554.7396627000003,554.7396627000003,554.7396627000003,557.7229105000001,indoor,j,2.5532757000000856,0.22293619999982184,557.7229534000003,557.7229633000002,None,,,,,,,,,,,,,,,,,00025,001,2025-11-10_15h37.05.281,MST_task,2024.2.2,59.98825429984729,2025-11-10 15h37.09.648348 +0530,
,Objects\152a.jpg,122,0,122,,,,,,,None,,,f,0.039448300000003655,None,,,,,122,0,122,0,557.7396035000002,,,,,,,,,,,,,,,,,,,,,,,557.7230336000002,557.7396035000002,558.2395224000002,558.2230481000001,,,,,,,,,,,,,,,,,,,,,,,,,,558.2306332000003,558.2395224000002,558.2395224000002,558.2395224000002,561.2230125000001,indoor,None,,,561.2230440000003,561.289769,f,561.2394789,561.2394789,0.039448300000003655,None,561.2394789,561.2394789,561.2394789,,,,,,,,,,00025,001,2025-11-10_15h37.05.281,MST_task,2024.2.2,59.98825429984729,2025-11-10 15h37.09.648348 +0530,
,Objects\171a.jpg,123,0,123,,,,,,,f,1.81326160000026,0.283394899999621,None,,,,,,,123,0,123,0,561.3061867000001,,,,,,,,,,,,,,,,,,,,,,,561.2898312000002,561.3061867000001,561.8061717,561.789604,,,,,,,,,,,,,,,,,,,,,,,,,,561.7974480000003,561.8061717,561.8061717,561.8061717,564.7898126,indoor,f,1.81326160000026,0.283394899999621,564.7898501,564.7898592000001,None,,,,,564.8060672000001,564.8060672000001,564.8060672000001,,,,,,,,,,00025,001,2025-11-10_15h37.05.281,MST_task,2024.2.2,59.98825429984729,2025-11-10 15h37.09.648348 +0530,
,Objects\360a.jpg,124,0,124,,,,,,,f,1.6467152999998689,0.30225049999990006,None,,,,,,,124,0,124,0,564.8060672000001,,,,,,,,,,,,,,,,,,,,,,,564.7899138000002,564.8060672000001,565.3056570000003,565.2896490000003,,,,,,,,,,,,,,,,,,,,,,,,,,565.3006176000004,565.3056570000003,565.3056570000003,565.3056570000003,568.2895612000002,indoor,f,1.6467152999998689,0.30225049999990006,568.2896009000001,568.2896096,None,,,,,568.3060307000001,568.3060307000001,568.3060307000001,,,,,,,,,,00025,001,2025-11-10_15h37.05.281,MST_task,2024.2.2,59.98825429984729,2025-11-10 15h37.09.648348 +0530,
,Objects\082a.jpg,125,0,125,,,,,,,j,1.9348061000000598,0.29993549999971947,None,,,,,,,125,0,125,0,568.3060307000001,,,,,,,,,,,,,,,,,,,,,,,568.289671,568.3060307000001,568.8055286000003,568.7894574000002,,,,,,,,,,,,,,,,,,,,,,,,,,568.8009193000003,568.8055286000003,568.8055286000003,568.8055286000003,571.7896462000003,indoor,j,1.9348061000000598,0.29993549999971947,571.7896858000004,571.7896949999999,None,,,,,571.8059549,571.8059549,571.8059549,,,,,,,,,,00025,001,2025-11-10_15h37.05.281,MST_task,2024.2.2,59.98825429984729,2025-11-10 15h37.09.648348 +0530,
,Objects\246a.jpg,126,0,126,,,,,,,f,1.9910119999999552,0.30772239999987505,None,,,,,,,126,0,126,0,571.8059549,,,,,,,,,,,,,,,,,,,,,,,571.7897532000002,571.8059549,572.3055025000003,572.2893868000001,,,,,,,,,,,,,,,,,,,,,,,,,,572.298929,572.3055025000003,572.3055025000003,572.3055025000003,575.2894742000003,shoe,f,1.9910119999999552,0.30772239999987505,575.2910733000003,575.2910855,None,,,,,575.3058136,575.3058136,575.3058136,,,,,,,,,,00025,001,2025-11-10_15h37.05.281,MST_task,2024.2.2,59.98825429984729,2025-11-10 15h37.09.648348 +0530,
,Objects\328a.jpg,127,0,127,,,,,,,f,2.669159099999888,None,None,,,,,,,127,0,127,0,575.3058136,,,,,,,,,,,,,,,,,,,,,,,575.2911422000002,575.3058136,575.8058281000003,575.7892907,,,,,,,,,,,,,,,,,,,,,,,,,,575.7971237000002,575.8058281000003,575.8058281000003,575.8058281000003,578.7895397000002,shoe,f,2.669159099999888,None,578.7895723000001,578.7895807,None,,,,,578.8057293000002,578.8057293000002,578.8057293000002,,,,,,,,,,00025,001,2025-11-10_15h37.05.281,MST_task,2024.2.2,59.98825429984729,2025-11-10 15h37.09.648348 +0530,
,Objects\042a.jpg,128,0,128,,,,,,,j,2.4071036999998796,0.29944049999994604,None,,,,,,,128,0,128,0,578.8057293000002,,,,,,,,,,,,,,,,,,,,,,,578.7896304999999,578.8057293000002,579.3057189000001,579.2893113,,,,,,,,,,,,,,,,,,,,,,,,,,579.2969807,579.3057189000001,579.3057189000001,579.3057189000001,582.2893283000003,shoe,j,2.4071036999998796,0.29944049999994604,582.2893646000002,582.2893732000002,None,,,,,582.3056615000005,582.3056615000005,582.3056615000005,,,,,,,,,,00025,001,2025-11-10_15h37.05.281,MST_task,2024.2.2,59.98825429984729,2025-11-10 15h37.09.648348 +0530,
,Objects\340a.jpg,129,0,129,,,,,,,None,,,f,1.199293700000453,None,,,,,129,0,129,0,582.3056615000005,,,,,,,,,,,,,,,,,,,,,,,582.2894317999999,582.3056615000005,582.8055912999998,582.7892124,,,,,,,,,,,,,,,,,,,,,,,,,,582.7993592000003,582.8055912999998,582.8055912999998,582.8055912999998,585.7892959999999,shoe,None,,,585.789331,587.0057899000003,f,585.8055780000004,585.8055780000004,1.199293700000453,None,585.8055780000004,585.8055780000004,585.8055780000004,,,,,,,,,,00025,001,2025-11-10_15h37.05.281,MST_task,2024.2.2,59.98825429984729,2025-11-10 15h37.09.648348 +0530,
,Objects\302a.jpg,130,0,130,,,,,,,f,1.7249484000003577,0.44438669999999547,None,,,,,,,130,0,130,0,587.0222524000001,,,,,,,,,,,,,,,,,,,,,,,587.0058637000002,587.0222524000001,587.5388944000006,587.5057801000003,,,,,,,,,,,,,,,,,,,,,,,,,,587.5171780000001,587.5388944000006,587.5388944000006,587.5388944000006,590.5221707000001,shoe,f,1.7249484000003577,0.44438669999999547,590.5222066000006,590.5222163999997,None,,,,,,,,,,,,,,,,,00025,001,2025-11-10_15h37.05.281,MST_task,2024.2.2,59.98825429984729,2025-11-10 15h37.09.648348 +0530,
,Objects\172a.jpg,131,0,131,,,,,,,j,2.648602299999766,None,None,,,,,,,131,0,131,0,590.5388321999999,,,,,,,,,,,,,,,,,,,,,,,590.5222893999999,590.5388321999999,591.0383749000002,591.0222814999997,,,,,,,,,,,,,,,,,,,,,,,,,,591.0330346000001,591.0383749000002,591.0383749000002,591.0383749000002,594.0223314000004,shoe,j,2.648602299999766,None,594.0223653000003,594.0223735,None,,,,,594.0386727000005,594.0386727000005,594.0386727000005,,,,,,,,,,00025,001,2025-11-10_15h37.05.281,MST_task,2024.2.2,59.98825429984729,2025-11-10 15h37.09.648348 +0530,
,Objects\295a.jpg,132,0,132,,,,,,,f,2.1347568000001047,0.42678259999956936,None,,,,,,,132,0,132,0,594.0386727000005,,,,,,,,,,,,,,,,,,,,,,,594.0224598000004,594.0386727000005,594.5382687000001,594.5221136999999,,,,,,,,,,,,,,,,,,,,,,,,,,594.5332785,594.5382687000001,594.5382687000001,594.5382687000001,597.5221594000004,shoe,f,2.1347568000001047,0.42678259999956936,597.5222002,597.5222097000005,None,,,,,597.5385965000005,597.5385965000005,597.5385965000005,,,,,,,,,,00025,001,2025-11-10_15h37.05.281,MST_task,2024.2.2,59.98825429984729,2025-11-10 15h37.09.648348 +0530,
,Objects\138a.jpg,133,0,133,,,,,,,j,2.6635513000001083,0.1738671000002796,None,,,,,,,133,0,133,0,597.5385965000005,,,,,,,,,,,,,,,,,,,,,,,597.5222992999998,597.5385965000005,598.0552165999998,598.0220360000003,,,,,,,,,,,,,,,,,,,,,,,,,,598.034028,598.0552165999998,598.0552165999998,598.0552165999998,601.0385487000003,indoor,j,2.6635513000001083,0.1738671000002796,601.0398731000005,601.0398851,None,,,,,,,,,,,,,,,,,00025,001,2025-11-10_15h37.05.281,MST_task,2024.2.2,59.98825429984729,2025-11-10 15h37.09.648348 +0530,
,Objects\068a.jpg,134,0,134,,,,,,,j,1.736169300000256,0.26147320000018226,None,,,,,,,134,0,134,0,601.0551477999998,,,,,,,,,,,,,,,,,,,,,,,601.0399438000004,601.0551477999998,601.5551400000004,601.5386705999999,,,,,,,,,,,,,,,,,,,,,,,,,,601.5464512999997,601.5551400000004,601.5551400000004,601.5551400000004,604.5386933999998,indoor,j,1.736169300000256,0.26147320000018226,604.5387265999998,604.5387349000002,None,,,,,604.5551390999999,604.5551390999999,604.5551390999999,,,,,,,,,,00025,001,2025-11-10_15h37.05.281,MST_task,2024.2.2,59.98825429984729,2025-11-10 15h37.09.648348 +0530,
,Objects\126a.jpg,135,0,135,,,,,,,None,,,j,0.2855305999992197,None,,,,,135,0,135,0,604.5551390999999,,,,,,,,,,,,,,,,,,,,,,,604.5387873999998,604.5551390999999,605.0550594000006,605.0385574000002,,,,,,,,,,,,,,,,,,,,,,,,,,605.0463703000005,605.0550594000006,605.0550594000006,605.0550594000006,608.0385956,indoor,None,,,608.0386269,608.3553078000004,j,608.0550256000006,608.0550256000006,0.2855305999992197,None,608.0550256000006,608.0550256000006,608.0550256000006,,,,,,,,,,00025,001,2025-11-10_15h37.05.281,MST_task,2024.2.2,59.98825429984729,2025-11-10 15h37.09.648348 +0530,
,Objects\054a.jpg,136,0,136,,,,,,,f,1.7772523000003275,0.3434254999992845,None,,,,,,,136,0,136,0,608.3717161000004,,,,,,,,,,,,,,,,,,,,,,,608.3553764999997,608.3717161000004,608.8716945000006,608.8552200000004,,,,,,,,,,,,,,,,,,,,,,,,,,608.8635537999999,608.8716945000006,608.8716945000006,608.8716945000006,611.8552059000003,indoor,f,1.7772523000003275,0.3434254999992845,611.8552416000002,611.8552503000001,None,,,,,611.8716134000006,611.8716134000006,611.8716134000006,,,,,,,,,,00025,001,2025-11-10_15h37.05.281,MST_task,2024.2.2,59.98825429984729,2025-11-10 15h37.09.648348 +0530,
,Objects\062a.jpg,137,0,137,,,,,,,j,1.8589206000006016,0.280419300000176,None,,,,,,,137,0,137,0,611.8716134000006,,,,,,,,,,,,,,,,,,,,,,,611.8553043000002,611.8716134000006,612.3711863999997,612.3550780000005,,,,,,,,,,,,,,,,,,,,,,,,,,612.3658068000004,612.3711863999997,612.3711863999997,612.3711863999997,615.3551302000005,indoor,j,1.8589206000006016,0.280419300000176,615.3551632999997,615.3551717999999,None,,,,,615.3715380000003,615.3715380000003,615.3715380000003,,,,,,,,,,00025,001,2025-11-10_15h37.05.281,MST_task,2024.2.2,59.98825429984729,2025-11-10 15h37.09.648348 +0530,
,Objects\014a.jpg,138,0,138,,,,,,,f,1.063753800000086,0.5740783000001102,None,,,,,,,138,0,138,0,615.3715380000003,,,,,,,,,,,,,,,,,,,,,,,615.3552243000004,615.3715380000003,615.8711221000003,615.8550353999999,,,,,,,,,,,,,,,,,,,,,,,,,,615.8645563,615.8711221000003,615.8711221000003,615.8711221000003,618.8549025000002,indoor,f,1.063753800000086,0.5740783000001102,618.8549370999999,618.8549461000002,None,,,,,618.8714613000002,618.8714613000002,618.8714613000002,,,,,,,,,,00025,001,2025-11-10_15h37.05.281,MST_task,2024.2.2,59.98825429984729,2025-11-10 15h37.09.648348 +0530,
,Objects\336a.jpg,139,0,139,,,,,,,f,1.2652274999991278,0.2942681000004086,None,,,,,,,139,0,139,0,618.8714613000002,,,,,,,,,,,,,,,,,,,,,,,618.8550024000006,618.8714613000002,619.3714280000004,619.3547972000006,,,,,,,,,,,,,,,,,,,,,,,,,,619.3659059000001,619.3714280000004,619.3714280000004,619.3714280000004,622.3549246000002,indoor,f,1.2652274999991278,0.2942681000004086,622.3549671000001,622.3549760000005,None,,,,,622.3713429999998,622.3713429999998,622.3713429999998,,,,,,,,,,00025,001,2025-11-10_15h37.05.281,MST_task,2024.2.2,59.98825429984729,2025-11-10 15h37.09.648348 +0530,
,Objects\094a.jpg,140,0,140,,,,,,,f,2.160684200000105,0.3021767000000182,None,,,,,,,140,0,140,0,622.3713429999998,,,,,,,,,,,,,,,,,,,,,,,622.3550327000003,622.3713429999998,622.8880018,622.8548695999998,,,,,,,,,,,,,,,,,,,,,,,,,,622.867424,622.8880018,622.8880018,622.8880018,625.8713288999998,shoe,f,2.160684200000105,0.3021767000000182,625.8728448000002,625.8728615,None,,,,,,,,,,,,,,,,,00025,001,2025-11-10_15h37.05.281,MST_task,2024.2.2,59.98825429984729,2025-11-10 15h37.09.648348 +0530,
,Objects\234a.jpg,141,0,141,,,,,,,None,,,j,0.12637829999948735,None,,,,,141,0,141,0,625.8879391,,,,,,,,,,,,,,,,,,,,,,,625.8729474000002,625.8879391,626.3879250999998,626.3714113000005,,,,,,,,,,,,,,,,,,,,,,,,,,626.3794945999998,626.3879250999998,626.3879250999998,626.3879250999998,629.3715844999997,shoe,None,,,629.3716138,629.5214904000004,j,629.3878884000005,629.3878884000005,0.12637829999948735,None,629.3878884000005,629.3878884000005,629.3878884000005,,,,,,,,,,00025,001,2025-11-10_15h37.05.281,MST_task,2024.2.2,59.98825429984729,2025-11-10 15h37.09.648348 +0530,
,Objects\226a.jpg,142,0,142,,,,,,,f,0.9423813000003065,0.3425675999997111,None,,,,,,,142,0,142,0,629.5379207000005,,,,,,,,,,,,,,,,,,,,,,,629.5215512000004,629.5379207000005,630.0378466000002,630.021393,,,,,,,,,,,,,,,,,,,,,,,,,,630.0321785000006,630.0378466000002,630.0378466000002,630.0378466000002,633.0214948000003,shoe,f,0.9423813000003065,0.3425675999997111,633.0215348000002,633.0215440000002,None,,,,,633.0378154999999,633.0378154999999,633.0378154999999,,,,,,,,,,00025,001,2025-11-10_15h37.05.281,MST_task,2024.2.2,59.98825429984729,2025-11-10 15h37.09.648348 +0530,
,Objects\001a.jpg,143,0,143,,,,,,,f,1.0411010999996506,0.35135020000052464,None,,,,,,,143,0,143,0,633.0378154999999,,,,,,,,,,,,,,,,,,,,,,,633.0216013999998,633.0378154999999,633.537773,633.5213902000005,,,,,,,,,,,,,,,,,,,,,,,,,,633.5323847,633.537773,633.537773,633.537773,636.5213291,shoe,f,1.0411010999996506,0.35135020000052464,636.5213646000002,636.5213734999998,None,,,,,636.5377291000004,636.5377291000004,636.5377291000004,,,,,,,,,,00025,001,2025-11-10_15h37.05.281,MST_task,2024.2.2,59.98825429984729,2025-11-10 15h37.09.648348 +0530,
,Objects\230a.jpg,144,0,144,,,,,,,j,1.2349080000003596,0.5414909999999509,None,,,,,,,144,0,144,0,636.5377291000004,,,,,,,,,,,,,,,,,,,,,,,636.521428,636.5377291000004,637.0377226999999,637.0213212999997,,,,,,,,,,,,,,,,,,,,,,,,,,637.0318723999999,637.0377226999999,637.0377226999999,637.0377226999999,640.0213844999998,shoe,j,1.2349080000003596,0.5414909999999509,640.0214238999997,640.0214335999999,None,,,,,640.0376617000002,640.0376617000002,640.0376617000002,,,,,,,,,,00025,001,2025-11-10_15h37.05.281,MST_task,2024.2.2,59.98825429984729,2025-11-10 15h37.09.648348 +0530,
,Objects\114a.jpg,145,0,145,,,,,,,f,1.2536215000000084,0.393528100000367,None,,,,,,,145,0,145,0,640.0376617000002,,,,,,,,,,,,,,,,,,,,,,,640.0215247000006,640.0376617000002,640.5372331999997,640.5211338999998,,,,,,,,,,,,,,,,,,,,,,,,,,640.5319420000005,640.5372331999997,640.5372331999997,640.5372331999997,643.5211600000002,shoe,f,1.2536215000000084,0.393528100000367,643.5211932000002,643.5212022000005,None,,,,,643.5375786000004,643.5375786000004,643.5375786000004,,,,,,,,,,00025,001,2025-11-10_15h37.05.281,MST_task,2024.2.2,59.98825429984729,2025-11-10 15h37.09.648348 +0530,
,Objects\260a.jpg,146,0,146,,,,,,,f,1.9714616999999635,0.3918634999999995,None,,,,,,,146,0,146,0,643.5375786000004,,,,,,,,,,,,,,,,,,,,,,,643.5212576000004,643.5375786000004,644.0371552000006,644.0210543000003,,,,,,,,,,,,,,,,,,,,,,,,,,644.0319697000004,644.0371552000006,644.0371552000006,644.0371552000006,647.0211971999997,shoe,f,1.9714616999999635,0.3918634999999995,647.0212345999998,647.0212436000002,None,,,,,647.0375063000001,647.0375063000001,647.0375063000001,,,,,,,,,,00025,001,2025-11-10_15h37.05.281,MST_task,2024.2.2,59.98825429984729,2025-11-10 15h37.09.648348 +0530,
,Objects\195a.jpg,147,0,147,,,,,,,None,,,j,0.4999814000002516,None,,,,,147,0,147,0,647.0375063000001,,,,,,,,,,,,,,,,,,,,,,,647.0213027,647.0375063000001,647.5541628000001,647.5209937999998,,,,,,,,,,,,,,,,,,,,,,,,,,647.5327852,647.5541628000001,647.5541628000001,647.5541628000001,650.537464,indoor,None,,,650.5389144999999,651.0545788,j,650.5540951000003,650.5540951000003,0.4999814000002516,None,,,,,,,,,,,,,00025,001,2025-11-10_15h37.05.281,MST_task,2024.2.2,59.98825429984729,2025-11-10 15h37.09.648348 +0530,
,Objects\078a.jpg,148,0,148,,,,,,,j,2.3299147000006997,0.27570549999927607,None,,,,,,,148,0,148,0,651.0707512999998,,,,,,,,,,,,,,,,,,,,,,,651.0546593999998,651.0707512999998,651.5706058000005,651.5542727000002,,,,,,,,,,,,,,,,,,,,,,,,,,651.5652913000004,651.5706058000005,651.5706058000005,651.5706058000005,654.5543533999999,indoor,j,2.3299147000006997,0.27570549999927607,654.5543861000006,654.5543949000003,None,,,,,654.5707972,654.5707972,654.5707972,,,,,,,,,,00025,001,2025-11-10_15h37.05.281,MST_task,2024.2.2,59.98825429984729,2025-11-10 15h37.09.648348 +0530,
,Objects\347a.jpg,149,0,149,,,,,,,f,1.767607400000088,0.3281792999996469,None,,,,,,,149,0,149,0,654.5707972,,,,,,,,,,,,,,,,,,,,,,,654.5544464000004,654.5707972,655.0707217999998,655.0542421999999,,,,,,,,,,,,,,,,,,,,,,,,,,655.0617431000001,655.0707217999998,655.0707217999998,655.0707217999998,658.0542252000005,indoor,f,1.767607400000088,0.3281792999996469,658.0542596000005,658.0542683000003,None,,,,,658.0706822000002,658.0706822000002,658.0706822000002,,,,,,,,,,00025,001,2025-11-10_15h37.05.281,MST_task,2024.2.2,59.98825429984729,2025-11-10 15h37.09.648348 +0530,
,Objects\363a.jpg,150,0,150,,,,,,,f,1.8101503999996567,0.4204741000003196,None,,,,,,,150,0,150,0,658.0706822000002,,,,,,,,,,,,,,,,,,,,,,,658.0543250000001,658.0706822000002,658.6040039,658.5542366,,,,,,,,,,,,,,,,,,,,,,,,,,658.5844205000003,658.6040039,658.6040039,658.6040039,661.5706084000003,indoor,f,1.8101503999996567,0.4204741000003196,661.5706441000002,661.5706533000002,None,,,,,,,,,,,,,,,,,00025,001,2025-11-10_15h37.05.281,MST_task,2024.2.2,59.98825429984729,2025-11-10 15h37.09.648348 +0530,
,Objects\342a.jpg,151,0,151,,,,,,,f,2.745364399999744,None,None,,,,,,,151,0,151,0,661.5872704000003,,,,,,,,,,,,,,,,,,,,,,,661.5707327,661.5872704000003,662.0872295999998,662.0707951000004,,,,,,,,,,,,,,,,,,,,,,,,,,662.0784174,662.0872295999998,662.0872295999998,662.0872295999998,665.0707952000002,indoor,f,2.745364399999744,None,665.0708301000004,665.070839,None,,,,,665.0873206000006,665.0873206000006,665.0873206000006,,,,,,,,,,00025,001,2025-11-10_15h37.05.281,MST_task,2024.2.2,59.98825429984729,2025-11-10 15h37.09.648348 +0530,
,Objects\297a.jpg,152,0,152,,,,,,,f,1.2050800000006348,0.30404019999969023,None,,,,,,,152,0,152,0,665.0873206000006,,,,,,,,,,,,,,,,,,,,,,,665.0708927000005,665.0873206000006,665.6038447999999,665.5706875000005,,,,,,,,,,,,,,,,,,,,,,,,,,665.5834304999998,665.6038447999999,665.6038447999999,665.6038447999999,668.5871525000002,indoor,f,1.2050800000006348,0.30404019999969023,668.5871913000001,668.5872006,None,,,,,,,,,,,,,,,,,00025,001,2025-11-10_15h37.05.281,MST_task,2024.2.2,59.98825429984729,2025-11-10 15h37.09.648348 +0530,
,Objects\380a.jpg,153,0,153,,,,,,,j,2.8834964999996373,None,None,,,,,,,153,0,153,0,668.6037937000001,,,,,,,,,,,,,,,,,,,,,,,668.5872827000003,668.6037937000001,669.103693,669.0872674000002,,,,,,,,,,,,,,,,,,,,,,,,,,669.0981118,669.103693,669.103693,669.103693,672.0872679000004,indoor,j,2.8834964999996373,None,672.0873013,672.0873100999997,None,,,,,672.1037101000002,672.1037101000002,672.1037101000002,,,,,,,,,,00025,001,2025-11-10_15h37.05.281,MST_task,2024.2.2,59.98825429984729,2025-11-10 15h37.09.648348 +0530,
,Objects\011a.jpg,154,0,154,,,,,,,f,1.3287941999997201,0.3878586999999243,None,,,,,,,154,0,154,0,672.1037101000002,,,,,,,,,,,,,,,,,,,,,,,672.0873625000004,672.1037101000002,672.6036791000006,672.5872624000003,,,,,,,,,,,,,,,,,,,,,,,,,,672.5982691999998,672.6036791000006,672.6036791000006,672.6036791000006,675.5872378000004,shoe,f,1.3287941999997201,0.3878586999999243,675.5887430000002,675.5887542,None,,,,,675.6037585000004,675.6037585000004,675.6037585000004,,,,,,,,,,00025,001,2025-11-10_15h37.05.281,MST_task,2024.2.2,59.98825429984729,2025-11-10 15h37.09.648348 +0530,
,Objects\208a.jpg,155,0,155,,,,,,,f,2.611837899999955,0.3245478999997431,None,,,,,,,155,0,155,0,675.6037585000004,,,,,,,,,,,,,,,,,,,,,,,675.5888124000003,675.6037585000004,676.1035528000002,676.0870844000001,,,,,,,,,,,,,,,,,,,,,,,,,,676.0980423999999,676.1035528000002,676.1035528000002,676.1035528000002,679.0871256999999,shoe,f,2.611837899999955,0.3245478999997431,679.0871632999997,679.0871723,None,,,,,679.1035515000003,679.1035515000003,679.1035515000003,,,,,,,,,,00025,001,2025-11-10_15h37.05.281,MST_task,2024.2.2,59.98825429984729,2025-11-10 15h37.09.648348 +0530,
,Objects\235a.jpg,156,0,156,,,,,,,f,2.9262909999997646,None,None,,,,,,,156,0,156,0,679.1035515000003,,,,,,,,,,,,,,,,,,,,,,,679.0872286000003,679.1035515000003,679.6036490000006,679.5870857999998,,,,,,,,,,,,,,,,,,,,,,,,,,679.5980466000001,679.6036490000006,679.6036490000006,679.6036490000006,682.5870752000001,shoe,f,2.9262909999997646,None,682.5871078999999,682.5871182999999,None,,,,,682.6035313000002,682.6035313000002,682.6035313000002,,,,,,,,,,00025,001,2025-11-10_15h37.05.281,MST_task,2024.2.2,59.98825429984729,2025-11-10 15h37.09.648348 +0530,
,Objects\238a.jpg,157,0,157,,,,,,,f,2.900513399999909,None,None,,,,,,,157,0,157,0,682.6035313000002,,,,,,,,,,,,,,,,,,,,,,,682.5871703000003,682.6035313000002,683.1030102000004,683.0869942999998,,,,,,,,,,,,,,,,,,,,,,,,,,683.0978590000004,683.1030102000004,683.1030102000004,683.1030102000004,686.0870320000004,shoe,f,2.900513399999909,None,686.0870666000001,686.0870804000006,None,,,,,686.1034065000003,686.1034065000003,686.1034065000003,,,,,,,,,,00025,001,2025-11-10_15h37.05.281,MST_task,2024.2.2,59.98825429984729,2025-11-10 15h37.09.648348 +0530,
,Objects\253a.jpg,158,0,158,,,,,,,f,1.3716186000001471,0.34019009999974514,None,,,,,,,158,0,158,0,686.1034065000003,,,,,,,,,,,,,,,,,,,,,,,686.0871352000004,686.1034065000003,686.6029378000003,686.5869327999999,,,,,,,,,,,,,,,,,,,,,,,,,,686.5979889999999,686.6029378000003,686.6029378000003,686.6029378000003,689.5869264000003,shoe,f,1.3716186000001471,0.34019009999974514,689.5869634000001,689.5869720999999,None,,,,,689.6033253000005,689.6033253000005,689.6033253000005,,,,,,,,,,00025,001,2025-11-10_15h37.05.281,MST_task,2024.2.2,59.98825429984729,2025-11-10 15h37.09.648348 +0530,
,Objects\317a.jpg,159,0,159,,,,,,,j,2.0376698999998553,0.36398689999987255,None,,,,,,,159,0,159,0,689.6033253000005,,,,,,,,,,,,,,,,,,,,,,,689.5870578000004,689.6033253000005,690.1033124000005,690.0869153000003,,,,,,,,,,,,,,,,,,,,,,,,,,690.0943724999997,690.1033124000005,690.1033124000005,690.1033124000005,693.0867962000002,shoe,j,2.0376698999998553,0.36398689999987255,693.0868304000005,693.0868388999997,None,,,,,693.1032033000001,693.1032033000001,693.1032033000001,,,,,,,,,,00025,001,2025-11-10_15h37.05.281,MST_task,2024.2.2,59.98825429984729,2025-11-10 15h37.09.648348 +0530,
,Objects\269a.jpg,160,0,160,,,,,,,None,,,f,0.05093670000042039,None,,,,,160,0,160,0,693.1032033000001,,,,,,,,,,,,,,,,,,,,,,,693.0869239000003,693.1032033000001,693.6028266000003,693.5867723000001,,,,,,,,,,,,,,,,,,,,,,,,,,693.5972259,693.6028266000003,693.6028266000003,693.6028266000003,696.5867288999998,shoe,None,,,696.5867587000002,696.6702474000003,f,696.6031719000002,696.6031719000002,0.05093670000042039,None,696.6031719000002,696.6031719000002,696.6031719000002,,,,,,,,,,00025,001,2025-11-10_15h37.05.281,MST_task,2024.2.2,59.98825429984729,2025-11-10 15h37.09.648348 +0530,
,Objects\170a.jpg,161,0,161,,,,,,,f,2.2015848000000915,0.4317756999998892,None,,,,,,,161,0,161,0,696.6864716999999,,,,,,,,,,,,,,,,,,,,,,,696.6703066999999,696.6864716999999,697.2031514,697.1700042000002,,,,,,,,,,,,,,,,,,,,,,,,,,697.1820902999998,697.2031514,697.2031514,697.2031514,700.1864239000006,indoor,f,2.2015848000000915,0.4317756999998892,700.1876645000002,700.1876763999999,None,,,,,,,,,,,,,,,,,00025,001,2025-11-10_15h37.05.281,MST_task,2024.2.2,59.98825429984729,2025-11-10 15h37.09.648348 +0530,
