Sl_no,image_path,thisN,thisTrialN,thisRepN,key_resp_5.keys,key_resp_5.rt,key_resp_5.duration,key_resp_7.keys,key_resp_7.rt,key_resp_7.duration,key_resp_9.keys,key_resp_9.rt,key_resp_9.duration,key_resp_8.keys,key_resp_8.rt,key_resp_8.duration,practice.thisRepN,practice.thisTrialN,practice.thisN,practice.thisIndex,trials.thisRepN,trials.thisTrialN,trials.thisN,trials.thisIndex,thisRow.t,notes,welcome_page.started,text.started,key_resp.started,welcome_page.stopped,key_resp.keys,key_resp.rt,key_resp.duration,instructions.started,ins.started,key_resp_2.started,instructions.stopped,key_resp_2.keys,key_resp_2.rt,key_resp_2.duration,objects_only_instruction.started,text_3.started,key_resp_3.started,objects_only_instruction.stopped,key_resp_3.keys,key_resp_3.rt,key_resp_3.duration,ISI.started,text_4.started,text_4.stopped,ISI.stopped,practice_block.started,image.started,key_resp_5.started,text_5.started,practice_block.stopped,practice.key_resp_5.keys,practice.key_resp_5.rt,practice.key_resp_5.duration,indoor_outdoor.started,indoor_outdoor.stopped,practice.key_resp_7.keys,image.stopped,key_resp_5.stopped,text_5.stopped,text_7.started,key_resp_7.started,practice.key_resp_7.rt,practice.key_resp_7.duration,practice_to_main.started,text_2.started,key_resp_4.started,practice_to_main.stopped,key_resp_4.keys,key_resp_4.rt,key_resp_4.duration,objects.started,image_2.started,text_9.started,key_resp_9.started,objects.stopped,category,trials.key_resp_9.keys,trials.key_resp_9.rt,trials.key_resp_9.duration,encoding_task.started,encoding_task.stopped,trials.key_resp_8.keys,image_2.stopped,text_9.stopped,key_resp_9.stopped,text_8.started,key_resp_8.started,trials.key_resp_8.rt,trials.key_resp_8.duration,end_experiment.started,text_6.started,key_resp_6.started,end_experiment.stopped,key_resp_6.keys,key_resp_6.rt,key_resp_6.duration,list_of_stimuli,encoding_task_accuracy,participant,session,date,expName,psychopyVersion,frameRate,expStart,
,,,,,,,,,,,,,,,,,,,,,,,,,,,0.00956899999982852,0.026090700000168,0.026090700000168,31.46058879999964,space,31.43202239999937,None,,,,,,,,,,,,,,,,,,,,,,,,,,,,,,,,,,,,,,,,,,,,,,,,,,,,,,,,,,,,,,,,,,,,,,,,00028,001,2025-11-14_19h03.32.428,MST_task,2024.2.2,59.999592002723574,2025-11-14 19h03.37.478925 +0530,
,,,,,,,,,,,,,,,,,,,,,,,,,,,,,,,,,,31.46062129999973,31.475482800000464,31.475482800000464,47.85881669999981,space,16.378855900000417,None,,,,,,,,,,,,,,,,,,,,,,,,,,,,,,,,,,,,,,,,,,,,,,,,,,,,,,,,,,,,,,,,,00028,001,2025-11-14_19h03.32.428,MST_task,2024.2.2,59.999592002723574,2025-11-14 19h03.37.478925 +0530,
,,,,,,,,,,,,,,,,,,,,,,,,,,,,,,,,,,,,,,,,,47.85884199999964,47.87518739999996,47.87518739999996,53.00875350000024,space,5.123740699999871,None,,,,,,,,,,,,,,,,,,,,,,,,,,,,,,,,,,,,,,,,,,,,,,,,,,,,,,,,,,00028,001,2025-11-14_19h03.32.428,MST_task,2024.2.2,59.999592002723574,2025-11-14 19h03.37.478925 +0530,
10,practice_images/182a.jpg,0,0,0,f,2.9192339000001084,None,None,,,,,,,,,0,0,0,9,,,,,53.02502730000015,,,,,,,,,,,,,,,,,,,,,,,53.01224040000034,53.02502730000015,53.54173600000013,53.50867300000027,53.52114400000028,53.54173600000013,53.54173600000013,53.54173600000013,56.52503669999987,f,2.9192339000001084,None,56.526180800000475,56.52619490000052,None,,,,,,,,,,,,,,,,,,,,,,,,,,,,,,,,,,,,,,,,,,,00028,001,2025-11-14_19h03.32.428,MST_task,2024.2.2,59.999592002723574,2025-11-14 19h03.37.478925 +0530,
8,practice_images/178a.jpg,1,1,0,f,0.898890699999356,0.1437954000002719,None,,,,,,,,,0,1,1,7,,,,,56.54161269999986,,,,,,,,,,,,,,,,,,,,,,,56.52625259999968,56.54161269999986,57.04160000000047,57.025198600000294,57.033962299999985,57.04160000000047,57.04160000000047,57.04160000000047,60.025016000000505,f,0.898890699999356,0.1437954000002719,60.02505259999998,60.025062400000024,None,60.04149740000048,60.04149740000048,60.04149740000048,,,,,,,,,,,,,,,,,,,,,,,,,,,,,,,,,,,,,,,,00028,001,2025-11-14_19h03.32.428,MST_task,2024.2.2,59.999592002723574,2025-11-14 19h03.37.478925 +0530,
9,practice_images/180a.jpg,2,2,0,j,2.583340700000008,0.1443937999993068,None,,,,,,,,,0,2,2,8,,,,,60.04149740000048,,,,,,,,,,,,,,,,,,,,,,,60.025115800000094,60.04149740000048,60.54143230000045,60.525118499999735,60.53302650000023,60.54143230000045,60.54143230000045,60.54143230000045,63.52487680000013,j,2.583340700000008,0.1443937999993068,63.52490529999977,63.52491410000039,None,63.54139889999988,63.54139889999988,63.54139889999988,,,,,,,,,,,,,,,,,,,,,,,,,,,,,,,,,,,,,,,,00028,001,2025-11-14_19h03.32.428,MST_task,2024.2.2,59.999592002723574,2025-11-14 19h03.37.478925 +0530,
5,practice_images/139a.jpg,3,3,0,f,1.6768894000006185,0.18181989999993675,None,,,,,,,,,0,3,3,4,,,,,63.54139889999988,,,,,,,,,,,,,,,,,,,,,,,63.52496350000001,63.54139889999988,64.04134799999974,64.02504760000011,64.0317243999998,64.04134799999974,64.04134799999974,64.04134799999974,67.02485359999991,f,1.6768894000006185,0.18181989999993675,67.02488760000051,67.02490080000007,None,67.04131710000001,67.04131710000001,67.04131710000001,,,,,,,,,,,,,,,,,,,,,,,,,,,,,,,,,,,,,,,,00028,001,2025-11-14_19h03.32.428,MST_task,2024.2.2,59.999592002723574,2025-11-14 19h03.37.478925 +0530,
2,practice_images/031a.jpg,4,4,0,f,2.892808900000091,None,None,,,,,,,,,0,4,4,1,,,,,67.04131710000001,,,,,,,,,,,,,,,,,,,,,,,67.02495379999982,67.04131710000001,67.54127479999988,67.52490769999986,67.5317640000003,67.54127479999988,67.54127479999988,67.54127479999988,70.52472920000037,f,2.892808900000091,None,70.52475669999967,70.52476600000045,None,70.54126900000028,70.54126900000028,70.54126900000028,,,,,,,,,,,,,,,,,,,,,,,,,,,,,,,,,,,,,,,,00028,001,2025-11-14_19h03.32.428,MST_task,2024.2.2,59.999592002723574,2025-11-14 19h03.37.478925 +0530,
1,practice_images/013a.jpg,5,5,0,None,,,j,0.01308100000005652,None,,,,,,,0,5,5,0,,,,,70.54126900000028,,,,,,,,,,,,,,,,,,,,,,,70.52481520000038,70.54126900000028,71.04120690000036,71.02475820000018,71.03382950000014,71.04120690000036,71.04120690000036,71.04120690000036,74.02465690000008,None,,,74.026159,74.05808419999994,j,74.04115679999995,74.04115679999995,74.04115679999995,74.04115679999995,74.04115679999995,0.01308100000005652,None,,,,,,,,,,,,,,,,,,,,,,,,,,,,,,,,,,,,00028,001,2025-11-14_19h03.32.428,MST_task,2024.2.2,59.999592002723574,2025-11-14 19h03.37.478925 +0530,
6,practice_images/158a.jpg,6,6,0,j,1.4667351999996754,0.14186849999987317,None,,,,,,,,,0,6,6,5,,,,,74.07450349999999,,,,,,,,,,,,,,,,,,,,,,,74.05814900000041,74.07450349999999,74.57446280000022,74.55804840000019,74.56480569999985,74.57446280000022,74.57446280000022,74.57446280000022,77.55791190000036,j,1.4667351999996754,0.14186849999987317,77.55794280000009,77.55795269999999,None,77.57442629999969,77.57442629999969,77.57442629999969,,,,,,,,,,,,,,,,,,,,,,,,,,,,,,,,,,,,,,,,00028,001,2025-11-14_19h03.32.428,MST_task,2024.2.2,59.999592002723574,2025-11-14 19h03.37.478925 +0530,
4,practice_images/002b.jpg,7,7,0,j,2.3580973999996786,0.16964150000057998,None,,,,,,,,,0,7,7,3,,,,,77.57442629999969,,,,,,,,,,,,,,,,,,,,,,,77.55800970000018,77.57442629999969,78.07438400000046,78.05792769999971,78.06479469999977,78.07438400000046,78.07438400000046,78.07438400000046,81.05787779999991,j,2.3580973999996786,0.16964150000057998,81.05791510000017,81.05792459999975,None,81.07433599999968,81.07433599999968,81.07433599999968,,,,,,,,,,,,,,,,,,,,,,,,,,,,,,,,,,,,,,,,00028,001,2025-11-14_19h03.32.428,MST_task,2024.2.2,59.999592002723574,2025-11-14 19h03.37.478925 +0530,
3,practice_images/037a.jpg,8,8,0,f,2.009880599999633,0.21436780000021827,None,,,,,,,,,0,8,8,2,,,,,81.07433599999968,,,,,,,,,,,,,,,,,,,,,,,81.0579759000002,81.07433599999968,81.57431470000029,81.55780289999984,81.56474150000031,81.57431470000029,81.57431470000029,81.57431470000029,84.55775259999973,f,2.009880599999633,0.21436780000021827,84.55778240000018,84.55779129999974,None,84.5742768,84.5742768,84.5742768,,,,,,,,,,,,,,,,,,,,,,,,,,,,,,,,,,,,,,,,00028,001,2025-11-14_19h03.32.428,MST_task,2024.2.2,59.999592002723574,2025-11-14 19h03.37.478925 +0530,
7,practice_images/166a.jpg,9,9,0,f,2.234417100000428,0.1746501999996326,None,,,,,,,,,0,9,9,6,,,,,84.5742768,,,,,,,,,,,,,,,,,,,,,,,84.5578446999998,84.5742768,85.07423819999985,85.05790940000043,85.06471130000045,85.07423819999985,85.07423819999985,85.07423819999985,88.05775429999994,f,2.234417100000428,0.1746501999996326,88.05778680000003,88.05779600000005,None,88.07420149999962,88.07420149999962,88.07420149999962,,,,,,,,,,,,,,,,,,,,,,,,,,,,,,,,,,,,,,,,00028,001,2025-11-14_19h03.32.428,MST_task,2024.2.2,59.999592002723574,2025-11-14 19h03.37.478925 +0530,
,,,,,,,,,,,,,,,,,,,,,,,,,,,,,,,,,,,,,,,,,,,,,,,,,,,,,,,,,,,,,,,,,,,,,,88.05783200000042,88.07420149999962,88.07420149999962,119.74059080000006,space,31.659992200000488,None,,,,,,,,,,,,,,,,,,,,,,,,,,,,,00028,001,2025-11-14_19h03.32.428,MST_task,2024.2.2,59.999592002723574,2025-11-14 19h03.37.478925 +0530,
,Objects\290a.jpg,0,0,0,,,,,,,j,0.9289374999998472,0.14014290000068286,None,,,,,,,0,0,0,0,119.75684280000041,,,,,,,,,,,,,,,,,,,,,,,119.74131159999979,119.75684280000041,120.27348600000005,120.24044839999988,,,,,,,,,,,,,,,,,,,,,,,,,,120.25448179999967,120.27348600000005,120.27348600000005,120.27348600000005,123.2568239000002,indoor,j,0.9289374999998472,0.14014290000068286,123.25803670000005,123.25805149999997,None,,,,,,,,,,,,,,,,,00028,001,2025-11-14_19h03.32.428,MST_task,2024.2.2,59.999592002723574,2025-11-14 19h03.37.478925 +0530,
,Objects\222a.jpg,1,0,1,,,,,,,j,2.218672100000731,0.18607389999942825,None,,,,,,,1,0,1,0,123.27347720000034,,,,,,,,,,,,,,,,,,,,,,,123.2581111999998,123.27347720000034,123.79008150000027,123.7569211,,,,,,,,,,,,,,,,,,,,,,,,,,123.7687906000001,123.79008150000027,123.79008150000027,123.79008150000027,126.77341720000004,indoor,j,2.218672100000731,0.18607389999942825,126.77345479999985,126.77346490000036,None,,,,,,,,,,,,,,,,,00028,001,2025-11-14_19h03.32.428,MST_task,2024.2.2,59.999592002723574,2025-11-14 19h03.37.478925 +0530,
,Objects\363a.jpg,2,0,2,,,,,,,f,0.9396747999999207,0.1581568999999945,None,,,,,,,2,0,2,0,126.78999930000009,,,,,,,,,,,,,,,,,,,,,,,126.77352229999997,126.78999930000009,127.30685480000011,127.27351629999976,,,,,,,,,,,,,,,,,,,,,,,,,,127.28502730000037,127.30685480000011,127.30685480000011,127.30685480000011,130.28998049999973,indoor,f,0.9396747999999207,0.1581568999999945,130.2901297999997,130.29014410000036,None,,,,,,,,,,,,,,,,,00028,001,2025-11-14_19h03.32.428,MST_task,2024.2.2,59.999592002723574,2025-11-14 19h03.37.478925 +0530,
,Objects\217a.jpg,3,0,3,,,,,,,f,0.8415773999995508,0.17365369999970426,None,,,,,,,3,0,3,0,130.30662510000002,,,,,,,,,,,,,,,,,,,,,,,130.2902036000005,130.30662510000002,130.82323540000016,130.79034930000034,,,,,,,,,,,,,,,,,,,,,,,,,,130.80155319999994,130.82323540000016,130.82323540000016,130.82323540000016,133.80658949999997,indoor,f,0.8415773999995508,0.17365369999970426,133.8066270999998,133.8066383000005,None,,,,,,,,,,,,,,,,,00028,001,2025-11-14_19h03.32.428,MST_task,2024.2.2,59.999592002723574,2025-11-14 19h03.37.478925 +0530,
,Objects\071a.jpg,4,0,4,,,,,,,j,0.7797487000007095,0.13033459999951447,None,,,,,,,4,0,4,0,133.8232162000004,,,,,,,,,,,,,,,,,,,,,,,133.80670050000026,133.8232162000004,134.32278610000049,134.3067774000001,,,,,,,,,,,,,,,,,,,,,,,,,,134.31755630000043,134.32278610000049,134.32278610000049,134.32278610000049,137.3066799999997,indoor,j,0.7797487000007095,0.13033459999951447,137.30671369999982,137.3067228,None,137.32314029999998,137.32314029999998,137.32314029999998,,,,,,,,,,,,,,00028,001,2025-11-14_19h03.32.428,MST_task,2024.2.2,59.999592002723574,2025-11-14 19h03.37.478925 +0530,
,Objects\095a.jpg,5,0,5,,,,,,,f,0.7091889000002993,0.18714270000054967,None,,,,,,,5,0,5,0,137.32314029999998,,,,,,,,,,,,,,,,,,,,,,,137.30677490000016,137.32314029999998,137.83979629999976,137.80657580000025,,,,,,,,,,,,,,,,,,,,,,,,,,137.82443779999994,137.83979629999976,137.83979629999976,137.83979629999976,140.82308660000035,indoor,f,0.7091889000002993,0.18714270000054967,140.82312340000044,140.82313309999972,None,,,,,,,,,,,,,,,,,00028,001,2025-11-14_19h03.32.428,MST_task,2024.2.2,59.999592002723574,2025-11-14 19h03.37.478925 +0530,
,Objects\158a.jpg,6,0,6,,,,,,,f,1.3858061999999336,0.18040340000061406,None,,,,,,,6,0,6,0,140.83972449999965,,,,,,,,,,,,,,,,,,,,,,,140.8231883999997,140.83972449999965,141.33973030000016,141.32321109999975,,,,,,,,,,,,,,,,,,,,,,,,,,141.3306779000004,141.33973030000016,141.33973030000016,141.33973030000016,144.32335039999998,indoor,f,1.3858061999999336,0.18040340000061406,144.32338720000007,144.32339609999963,None,144.33969390000038,144.33969390000038,144.33969390000038,,,,,,,,,,,,,,00028,001,2025-11-14_19h03.32.428,MST_task,2024.2.2,59.999592002723574,2025-11-14 19h03.37.478925 +0530,
,Objects\156a.jpg,7,0,7,,,,,,,f,0.9368935000002239,0.17449839999972028,None,,,,,,,7,0,7,0,144.33969390000038,,,,,,,,,,,,,,,,,,,,,,,144.32345030000033,144.33969390000038,144.85631449999983,144.82313799999974,,,,,,,,,,,,,,,,,,,,,,,,,,144.83705480000026,144.85631449999983,144.85631449999983,144.85631449999983,147.83965119999993,shoe,f,0.9368935000002239,0.17449839999972028,147.84125930000027,147.8412718999998,None,,,,,,,,,,,,,,,,,00028,001,2025-11-14_19h03.32.428,MST_task,2024.2.2,59.999592002723574,2025-11-14 19h03.37.478925 +0530,
,Objects\192a.jpg,8,0,8,,,,,,,f,1.677778600000238,0.1701017999994292,None,,,,,,,8,0,8,0,147.8562479000002,,,,,,,,,,,,,,,,,,,,,,,147.8413258999999,147.8562479000002,148.3562582000004,148.33980189999966,,,,,,,,,,,,,,,,,,,,,,,,,,148.3475715000004,148.3562582000004,148.3562582000004,148.3562582000004,151.33975420000024,shoe,f,1.677778600000238,0.1701017999994292,151.33979499999987,151.33980390000033,None,151.35620170000038,151.35620170000038,151.35620170000038,,,,,,,,,,,,,,00028,001,2025-11-14_19h03.32.428,MST_task,2024.2.2,59.999592002723574,2025-11-14 19h03.37.478925 +0530,
,Objects\034a.jpg,9,0,9,,,,,,,f,1.1499774000003526,0.16211610000027576,None,,,,,,,9,0,9,0,151.35620170000038,,,,,,,,,,,,,,,,,,,,,,,151.33985550000034,151.35620170000038,151.85613160000048,151.83965509999962,,,,,,,,,,,,,,,,,,,,,,,,,,151.84749980000015,151.85613160000048,151.85613160000048,151.85613160000048,154.83969220000017,shoe,f,1.1499774000003526,0.16211610000027576,154.8397299999997,154.83973950000018,None,154.85610160000033,154.85610160000033,154.85610160000033,,,,,,,,,,,,,,00028,001,2025-11-14_19h03.32.428,MST_task,2024.2.2,59.999592002723574,2025-11-14 19h03.37.478925 +0530,
,Objects\118a.jpg,10,0,10,,,,,,,f,1.2296183999997083,0.14327940000021044,None,,,,,,,10,0,10,0,154.85610160000033,,,,,,,,,,,,,,,,,,,,,,,154.83982130000004,154.85610160000033,155.3560705,155.33957939999982,,,,,,,,,,,,,,,,,,,,,,,,,,155.3474513000001,155.3560705,155.3560705,155.3560705,158.33959370000048,shoe,f,1.2296183999997083,0.14327940000021044,158.33962950000023,158.3396389999998,None,158.35602170000038,158.35602170000038,158.35602170000038,,,,,,,,,,,,,,00028,001,2025-11-14_19h03.32.428,MST_task,2024.2.2,59.999592002723574,2025-11-14 19h03.37.478925 +0530,
,Objects\110a.jpg,11,0,11,,,,,,,f,0.8949554000000717,0.18932259999928647,None,,,,,,,11,0,11,0,158.35602170000038,,,,,,,,,,,,,,,,,,,,,,,158.3396942999998,158.35602170000038,158.8560121999999,158.83948979999968,,,,,,,,,,,,,,,,,,,,,,,,,,158.8471387999998,158.8560121999999,158.8560121999999,158.8560121999999,161.83949910000047,shoe,f,0.8949554000000717,0.18932259999928647,161.8395343000002,161.8395429000002,None,161.8559479000005,161.8559479000005,161.8559479000005,,,,,,,,,,,,,,00028,001,2025-11-14_19h03.32.428,MST_task,2024.2.2,59.999592002723574,2025-11-14 19h03.37.478925 +0530,
,Objects\310a.jpg,12,0,12,,,,,,,f,0.8258988999996291,0.18699550000019372,None,,,,,,,12,0,12,0,161.8559479000005,,,,,,,,,,,,,,,,,,,,,,,161.83959680000044,161.8559479000005,162.35619599999973,162.33940499999972,,,,,,,,,,,,,,,,,,,,,,,,,,162.3498814000004,162.35619599999973,162.35619599999973,162.35619599999973,165.33946250000008,shoe,f,0.8258988999996291,0.18699550000019372,165.3395012000001,165.3395104000001,None,165.35582690000047,165.35582690000047,165.35582690000047,,,,,,,,,,,,,,00028,001,2025-11-14_19h03.32.428,MST_task,2024.2.2,59.999592002723574,2025-11-14 19h03.37.478925 +0530,
,Objects\145a.jpg,13,0,13,,,,,,,f,0.790620000000672,0.1539515999993455,None,,,,,,,13,0,13,0,165.35582690000047,,,,,,,,,,,,,,,,,,,,,,,165.33956899999976,165.35582690000047,165.8558248999998,165.83931380000013,,,,,,,,,,,,,,,,,,,,,,,,,,165.8501895999998,165.8558248999998,165.8558248999998,165.8558248999998,168.83936790000007,shoe,f,0.790620000000672,0.1539515999993455,168.8394030999998,168.8394116999998,None,168.85575859999972,168.85575859999972,168.85575859999972,,,,,,,,,,,,,,00028,001,2025-11-14_19h03.32.428,MST_task,2024.2.2,59.999592002723574,2025-11-14 19h03.37.478925 +0530,
,Objects\292a.jpg,14,0,14,,,,,,,f,0.8005290999999488,0.160374199999751,None,,,,,,,14,0,14,0,168.85575859999972,,,,,,,,,,,,,,,,,,,,,,,168.8394903999997,168.85575859999972,169.3557498,169.33927310000036,,,,,,,,,,,,,,,,,,,,,,,,,,169.35014190000038,169.3557498,169.3557498,169.3557498,172.3392902000005,indoor,f,0.8005290999999488,0.160374199999751,172.34042599999975,172.34043800000018,None,172.3557307000001,172.3557307000001,172.3557307000001,,,,,,,,,,,,,,00028,001,2025-11-14_19h03.32.428,MST_task,2024.2.2,59.999592002723574,2025-11-14 19h03.37.478925 +0530,
,Objects\027a.jpg,15,0,15,,,,,,,f,1.3429024999995818,0.17833930000051623,None,,,,,,,15,0,15,0,172.3557307000001,,,,,,,,,,,,,,,,,,,,,,,172.3404897999999,172.3557307000001,172.85529440000028,172.83919270000024,,,,,,,,,,,,,,,,,,,,,,,,,,172.85007140000016,172.85529440000028,172.85529440000028,172.85529440000028,175.8392485000004,indoor,f,1.3429024999995818,0.17833930000051623,175.8392845999997,175.83929760000046,None,175.85560330000044,175.85560330000044,175.85560330000044,,,,,,,,,,,,,,00028,001,2025-11-14_19h03.32.428,MST_task,2024.2.2,59.999592002723574,2025-11-14 19h03.37.478925 +0530,
,Objects\301a.jpg,16,0,16,,,,,,,j,1.0650604000002204,0.198281500000121,None,,,,,,,16,0,16,0,175.85560330000044,,,,,,,,,,,,,,,,,,,,,,,175.83934969999973,175.85560330000044,176.35560929999974,176.3392887,,,,,,,,,,,,,,,,,,,,,,,,,,176.34684949999973,176.35560929999974,176.35560929999974,176.35560929999974,179.3391311000005,indoor,j,1.0650604000002204,0.198281500000121,179.3391627000001,179.3391713000001,None,179.35556720000022,179.35556720000022,179.35556720000022,,,,,,,,,,,,,,00028,001,2025-11-14_19h03.32.428,MST_task,2024.2.2,59.999592002723574,2025-11-14 19h03.37.478925 +0530,
,Objects\164a.jpg,17,0,17,,,,,,,f,1.2462668000007397,0.15220699999917997,None,,,,,,,17,0,17,0,179.35556720000022,,,,,,,,,,,,,,,,,,,,,,,179.3392217999999,179.35556720000022,179.85555310000018,179.83903819999978,,,,,,,,,,,,,,,,,,,,,,,,,,179.84688040000037,179.85555310000018,179.85555310000018,179.85555310000018,182.83905070000037,indoor,f,1.2462668000007397,0.15220699999917997,182.83908369999972,182.83909229999972,None,182.85549100000026,182.85549100000026,182.85549100000026,,,,,,,,,,,,,,00028,001,2025-11-14_19h03.32.428,MST_task,2024.2.2,59.999592002723574,2025-11-14 19h03.37.478925 +0530,
,Objects\232a.jpg,18,0,18,,,,,,,j,1.6718252000000575,0.17222570000012638,None,,,,,,,18,0,18,0,182.85549100000026,,,,,,,,,,,,,,,,,,,,,,,182.83914350000032,182.85549100000026,183.37211039999966,183.33902500000022,,,,,,,,,,,,,,,,,,,,,,,,,,183.3513813999998,183.37211039999966,183.37211039999966,183.37211039999966,186.3555822999997,indoor,j,1.6718252000000575,0.17222570000012638,186.35561959999995,186.35562879999998,None,,,,,,,,,,,,,,,,,00028,001,2025-11-14_19h03.32.428,MST_task,2024.2.2,59.999592002723574,2025-11-14 19h03.37.478925 +0530,
,Objects\273a.jpg,19,0,19,,,,,,,j,1.4495006999995894,0.14637080000011338,None,,,,,,,19,0,19,0,186.37204639999982,,,,,,,,,,,,,,,,,,,,,,,186.35568500000045,186.37204639999982,186.88870270000007,186.85558649999984,,,,,,,,,,,,,,,,,,,,,,,,,,186.8676650999996,186.88870270000007,186.88870270000007,186.88870270000007,189.87214289999974,indoor,j,1.4495006999995894,0.14637080000011338,189.8721811000005,189.87219100000038,None,,,,,,,,,,,,,,,,,00028,001,2025-11-14_19h03.32.428,MST_task,2024.2.2,59.999592002723574,2025-11-14 19h03.37.478925 +0530,
,Objects\282a.jpg,20,0,20,,,,,,,j,1.0300023999998302,0.17353629999979603,None,,,,,,,20,0,20,0,189.88864060000014,,,,,,,,,,,,,,,,,,,,,,,189.87225339999986,189.88864060000014,190.38864889999968,190.3722256000001,,,,,,,,,,,,,,,,,,,,,,,,,,190.38024479999967,190.38864889999968,190.38864889999968,190.38864889999968,193.37213559999964,indoor,j,1.0300023999998302,0.17353629999979603,193.37216929999977,193.3721774000005,None,193.3885639,193.3885639,193.3885639,,,,,,,,,,,,,,00028,001,2025-11-14_19h03.32.428,MST_task,2024.2.2,59.999592002723574,2025-11-14 19h03.37.478925 +0530,
,Objects\266a.jpg,21,0,21,,,,,,,f,2.093752800000402,0.18622359999972105,None,,,,,,,21,0,21,0,193.3885639,,,,,,,,,,,,,,,,,,,,,,,193.3722286000002,193.3885639,193.90521760000047,193.87215000000015,,,,,,,,,,,,,,,,,,,,,,,,,,193.88486280000052,193.90521760000047,193.90521760000047,193.90521760000047,196.8885581000004,shoe,f,2.093752800000402,0.18622359999972105,196.8901581,196.89017570000033,None,,,,,,,,,,,,,,,,,00028,001,2025-11-14_19h03.32.428,MST_task,2024.2.2,59.999592002723574,2025-11-14 19h03.37.478925 +0530,
,Objects\030a.jpg,22,0,22,,,,,,,f,0.7202225999999428,0.17714929999965534,None,,,,,,,22,0,22,0,196.90515500000038,,,,,,,,,,,,,,,,,,,,,,,196.8902281999999,196.90515500000038,197.40519649999987,197.38865710000027,,,,,,,,,,,,,,,,,,,,,,,,,,197.39950150000004,197.40519649999987,197.40519649999987,197.40519649999987,200.3888035,shoe,f,0.7202225999999428,0.17714929999965534,200.38884400000006,200.38885329999994,None,200.4050887000003,200.4050887000003,200.4050887000003,,,,,,,,,,,,,,00028,001,2025-11-14_19h03.32.428,MST_task,2024.2.2,59.999592002723574,2025-11-14 19h03.37.478925 +0530,
,Objects\076a.jpg,23,0,23,,,,,,,f,1.3698017000006075,0.14123620000009396,None,,,,,,,23,0,23,0,200.4050887000003,,,,,,,,,,,,,,,,,,,,,,,200.38894570000048,200.4050887000003,200.90507359999992,200.88870469999983,,,,,,,,,,,,,,,,,,,,,,,,,,200.8967044000001,200.90507359999992,200.90507359999992,200.90507359999992,203.88859520000005,shoe,f,1.3698017000006075,0.14123620000009396,203.8886336000005,203.88864290000038,None,203.9050073999997,203.9050073999997,203.9050073999997,,,,,,,,,,,,,,00028,001,2025-11-14_19h03.32.428,MST_task,2024.2.2,59.999592002723574,2025-11-14 19h03.37.478925 +0530,
,Objects\244a.jpg,24,0,24,,,,,,,f,0.8887600999996721,0.1649224000002505,None,,,,,,,24,0,24,0,203.9050073999997,,,,,,,,,,,,,,,,,,,,,,,203.88872989999982,203.9050073999997,204.40499830000044,204.38863709999987,,,,,,,,,,,,,,,,,,,,,,,,,,204.39802849999978,204.40499830000044,204.40499830000044,204.40499830000044,207.38861840000027,shoe,f,0.8887600999996721,0.1649224000002505,207.38865749999968,207.38866659999985,None,207.4049576999996,207.4049576999996,207.4049576999996,,,,,,,,,,,,,,00028,001,2025-11-14_19h03.32.428,MST_task,2024.2.2,59.999592002723574,2025-11-14 19h03.37.478925 +0530,
,Objects\275a.jpg,25,0,25,,,,,,,f,2.4334437999996226,0.19426750000002357,None,,,,,,,25,0,25,0,207.4049576999996,,,,,,,,,,,,,,,,,,,,,,,207.3887249999998,207.4049576999996,207.9049216000003,207.88844880000033,,,,,,,,,,,,,,,,,,,,,,,,,,207.89869989999988,207.9049216000003,207.9049216000003,207.9049216000003,210.88852120000047,shoe,f,2.4334437999996226,0.19426750000002357,210.88856039999973,210.88857000000007,None,210.90490690000024,210.90490690000024,210.90490690000024,,,,,,,,,,,,,,00028,001,2025-11-14_19h03.32.428,MST_task,2024.2.2,59.999592002723574,2025-11-14 19h03.37.478925 +0530,
,Objects\211a.jpg,26,0,26,,,,,,,f,1.2501496000004408,0.16507000000001426,None,,,,,,,26,0,26,0,210.90490690000024,,,,,,,,,,,,,,,,,,,,,,,210.88862609999978,210.90490690000024,211.40485030000036,211.38835420000032,,,,,,,,,,,,,,,,,,,,,,,,,,211.39895799999977,211.40485030000036,211.40485030000036,211.40485030000036,214.3883705999997,shoe,f,1.2501496000004408,0.16507000000001426,214.38840979999986,214.38841880000018,None,214.4048072000005,214.4048072000005,214.4048072000005,,,,,,,,,,,,,,00028,001,2025-11-14_19h03.32.428,MST_task,2024.2.2,59.999592002723574,2025-11-14 19h03.37.478925 +0530,
,Objects\020a.jpg,27,0,27,,,,,,,f,1.0678373999999167,0.18616750000001048,None,,,,,,,27,0,27,0,214.4048072000005,,,,,,,,,,,,,,,,,,,,,,,214.38847439999972,214.4048072000005,214.90476779999972,214.88833009999962,,,,,,,,,,,,,,,,,,,,,,,,,,214.89899520000017,214.90476779999972,214.90476779999972,214.90476779999972,217.88835759999984,shoe,f,1.0678373999999167,0.18616750000001048,217.88839439999992,217.88840299999993,None,217.90475369999967,217.90475369999967,217.90475369999967,,,,,,,,,,,,,,00028,001,2025-11-14_19h03.32.428,MST_task,2024.2.2,59.999592002723574,2025-11-14 19h03.37.478925 +0530,
,Objects\241a.jpg,28,0,28,,,,,,,None,,,f,2.0433390999996845,None,,,,,28,0,28,0,217.90475369999967,,,,,,,,,,,,,,,,,,,,,,,217.88848640000015,217.90475369999967,218.40469250000024,218.3882392000005,,,,,,,,,,,,,,,,,,,,,,,,,,218.39669979999962,218.40469250000024,218.40469250000024,218.40469250000024,221.38838790000045,indoor,None,,,221.3896666999999,223.4548918999999,f,221.40463040000031,221.40463040000031,221.40463040000031,221.40463040000031,221.40463040000031,2.0433390999996845,None,,,,,,,,,,00028,001,2025-11-14_19h03.32.428,MST_task,2024.2.2,59.999592002723574,2025-11-14 19h03.37.478925 +0530,
,Objects\171a.jpg,29,0,29,,,,,,,f,1.4633051000000705,0.2022026000004189,None,,,,,,,29,0,29,0,223.47128460000022,,,,,,,,,,,,,,,,,,,,,,,223.45496569999978,223.47128460000022,223.97127340000043,223.95476010000039,,,,,,,,,,,,,,,,,,,,,,,,,,223.96210679999967,223.97127340000043,223.97127340000043,223.97127340000043,226.9547717000005,indoor,f,1.4633051000000705,0.2022026000004189,226.95481699999982,226.9548279999999,None,226.97120910000012,226.97120910000012,226.97120910000012,,,,,,,,,,,,,,00028,001,2025-11-14_19h03.32.428,MST_task,2024.2.2,59.999592002723574,2025-11-14 19h03.37.478925 +0530,
,Objects\161a.jpg,30,0,30,,,,,,,f,0.7554116000001159,0.23199829999975918,None,,,,,,,30,0,30,0,226.97120910000012,,,,,,,,,,,,,,,,,,,,,,,226.95488420000038,226.97120910000012,227.47117470000012,227.4546848,,,,,,,,,,,,,,,,,,,,,,,,,,227.4620235000002,227.47117470000012,227.47117470000012,227.47117470000012,230.45480020000014,indoor,f,0.7554116000001159,0.23199829999975918,230.4548353,230.45484380000016,None,230.4711428999999,230.4711428999999,230.4711428999999,,,,,,,,,,,,,,00028,001,2025-11-14_19h03.32.428,MST_task,2024.2.2,59.999592002723574,2025-11-14 19h03.37.478925 +0530,
,Objects\045a.jpg,31,0,31,,,,,,,f,1.4296999999996842,0.19798619999983202,None,,,,,,,31,0,31,0,230.4711428999999,,,,,,,,,,,,,,,,,,,,,,,230.45489950000047,230.4711428999999,230.97110580000026,230.95458729999973,,,,,,,,,,,,,,,,,,,,,,,,,,230.96246450000035,230.97110580000026,230.97110580000026,230.97110580000026,233.95458429999962,indoor,f,1.4296999999996842,0.19798619999983202,233.95461840000007,233.95462690000022,None,233.97108449999996,233.97108449999996,233.97108449999996,,,,,,,,,,,,,,00028,001,2025-11-14_19h03.32.428,MST_task,2024.2.2,59.999592002723574,2025-11-14 19h03.37.478925 +0530,
,Objects\249a.jpg,32,0,32,,,,,,,j,1.4136340000004566,0.2518787999997585,None,,,,,,,32,0,32,0,233.97108449999996,,,,,,,,,,,,,,,,,,,,,,,233.95467680000002,233.97108449999996,234.47063720000006,234.45449780000035,,,,,,,,,,,,,,,,,,,,,,,,,,234.4652861000004,234.47063720000006,234.47063720000006,234.47063720000006,237.45454530000006,indoor,j,1.4136340000004566,0.2518787999997585,237.45458059999964,237.45458899999994,None,237.4709469999998,237.4709469999998,237.4709469999998,,,,,,,,,,,,,,00028,001,2025-11-14_19h03.32.428,MST_task,2024.2.2,59.999592002723574,2025-11-14 19h03.37.478925 +0530,
,Objects\274a.jpg,33,0,33,,,,,,,f,1.4699759000004633,0.18121289999999135,None,,,,,,,33,0,33,0,237.4709469999998,,,,,,,,,,,,,,,,,,,,,,,237.45464319999974,237.4709469999998,237.97081570000046,237.95441990000018,,,,,,,,,,,,,,,,,,,,,,,,,,237.9648913000001,237.97081570000046,237.97081570000046,237.97081570000046,240.95447849999982,indoor,f,1.4699759000004633,0.18121289999999135,240.95451260000027,240.95452130000012,None,240.97086579999996,240.97086579999996,240.97086579999996,,,,,,,,,,,,,,00028,001,2025-11-14_19h03.32.428,MST_task,2024.2.2,59.999592002723574,2025-11-14 19h03.37.478925 +0530,
,Objects\215a.jpg,34,0,34,,,,,,,f,1.6834600000001956,0.2045109999999113,None,,,,,,,34,0,34,0,240.97086579999996,,,,,,,,,,,,,,,,,,,,,,,240.9545724999998,240.97086579999996,241.47089340000002,241.4543781000002,,,,,,,,,,,,,,,,,,,,,,,,,,241.4617315000005,241.47089340000002,241.47089340000002,241.47089340000002,244.45442809999986,indoor,f,1.6834600000001956,0.2045109999999113,244.4544616000003,244.45446960000027,None,244.47080540000024,244.47080540000024,244.47080540000024,,,,,,,,,,,,,,00028,001,2025-11-14_19h03.32.428,MST_task,2024.2.2,59.999592002723574,2025-11-14 19h03.37.478925 +0530,
,Objects\188a.jpg,35,0,35,,,,,,,f,1.0522405000001527,0.18230729999959294,None,,,,,,,35,0,35,0,244.47080540000024,,,,,,,,,,,,,,,,,,,,,,,244.4545207000001,244.47080540000024,244.9704066000004,244.95430709999982,,,,,,,,,,,,,,,,,,,,,,,,,,244.9648560000005,244.9704066000004,244.9704066000004,244.9704066000004,247.95457799999986,shoe,f,1.0522405000001527,0.18230729999959294,247.9561076,247.95611970000027,None,247.9707513000003,247.9707513000003,247.9707513000003,,,,,,,,,,,,,,00028,001,2025-11-14_19h03.32.428,MST_task,2024.2.2,59.999592002723574,2025-11-14 19h03.37.478925 +0530,
,Objects\006a.jpg,36,0,36,,,,,,,f,1.2438790999995035,0.1880434000004243,None,,,,,,,36,0,36,0,247.9707513000003,,,,,,,,,,,,,,,,,,,,,,,247.95620039999994,247.9707513000003,248.47073830000045,248.45422080000026,,,,,,,,,,,,,,,,,,,,,,,,,,248.46317329999965,248.47073830000045,248.47073830000045,248.47073830000045,251.45422280000003,shoe,f,1.2438790999995035,0.1880434000004243,251.45425669999986,251.45426510000016,None,251.47068109999964,251.47068109999964,251.47068109999964,,,,,,,,,,,,,,00028,001,2025-11-14_19h03.32.428,MST_task,2024.2.2,59.999592002723574,2025-11-14 19h03.37.478925 +0530,
,Objects\364a.jpg,37,0,37,,,,,,,f,1.4869572999996308,0.17836179999994783,None,,,,,,,37,0,37,0,251.47068109999964,,,,,,,,,,,,,,,,,,,,,,,251.4543174999999,251.47068109999964,251.98734010000044,251.95423740000024,,,,,,,,,,,,,,,,,,,,,,,,,,251.97032409999974,251.98734010000044,251.98734010000044,251.98734010000044,254.97066300000006,shoe,f,1.4869572999996308,0.17836179999994783,254.97070929999973,254.9707195000001,None,,,,,,,,,,,,,,,,,00028,001,2025-11-14_19h03.32.428,MST_task,2024.2.2,59.999592002723574,2025-11-14 19h03.37.478925 +0530,
,Objects\024a.jpg,38,0,38,,,,,,,f,0.8343464999998105,0.12173579999944195,None,,,,,,,38,0,38,0,254.9872359000001,,,,,,,,,,,,,,,,,,,,,,,254.9708074,254.9872359000001,255.48684810000032,255.47075490000043,,,,,,,,,,,,,,,,,,,,,,,,,,255.48183010000048,255.48684810000032,255.48684810000032,255.48684810000032,258.47076259999994,shoe,f,0.8343464999998105,0.12173579999944195,258.4707989999997,258.47080730000016,None,258.48716049999985,258.48716049999985,258.48716049999985,,,,,,,,,,,,,,00028,001,2025-11-14_19h03.32.428,MST_task,2024.2.2,59.999592002723574,2025-11-14 19h03.37.478925 +0530,
,Objects\248a.jpg,39,0,39,,,,,,,f,0.7823646999995617,0.17427020000013727,None,,,,,,,39,0,39,0,258.48716049999985,,,,,,,,,,,,,,,,,,,,,,,258.4708851000005,258.48716049999985,259.0038747999997,258.97066189999987,,,,,,,,,,,,,,,,,,,,,,,,,,258.98296329999994,259.0038747999997,259.0038747999997,259.0038747999997,261.9871756000002,shoe,f,0.7823646999995617,0.17427020000013727,261.9872138999999,261.9872242000001,None,,,,,,,,,,,,,,,,,00028,001,2025-11-14_19h03.32.428,MST_task,2024.2.2,59.999592002723574,2025-11-14 19h03.37.478925 +0530,
,Objects\040a.jpg,40,0,40,,,,,,,f,1.4695504999999685,0.14245579999987967,None,,,,,,,40,0,40,0,262.00374759999977,,,,,,,,,,,,,,,,,,,,,,,261.98728370000026,262.00374759999977,262.5037424000002,262.48727729999973,,,,,,,,,,,,,,,,,,,,,,,,,,262.49825450000026,262.5037424000002,262.5037424000002,262.5037424000002,265.4873741000001,shoe,f,1.4695504999999685,0.14245579999987967,265.4874104999999,265.4874190999999,None,265.50372419999985,265.50372419999985,265.50372419999985,,,,,,,,,,,,,,00028,001,2025-11-14_19h03.32.428,MST_task,2024.2.2,59.999592002723574,2025-11-14 19h03.37.478925 +0530,
,Objects\352a.jpg,41,0,41,,,,,,,f,1.1009407999999894,0.12631039999996574,None,,,,,,,41,0,41,0,265.50372419999985,,,,,,,,,,,,,,,,,,,,,,,265.48747209999965,265.50372419999985,266.0036667000004,265.9871936999998,,,,,,,,,,,,,,,,,,,,,,,,,,265.99722010000005,266.0036667000004,266.0036667000004,266.0036667000004,268.98720589999994,shoe,f,1.1009407999999894,0.12631039999996574,268.98723880000034,268.9872469000002,None,269.0036018999999,269.0036018999999,269.0036018999999,,,,,,,,,,,,,,00028,001,2025-11-14_19h03.32.428,MST_task,2024.2.2,59.999592002723574,2025-11-14 19h03.37.478925 +0530,
,Objects\018a.jpg,42,0,42,,,,,,,j,1.2599979000005987,0.20243799999934708,None,,,,,,,42,0,42,0,269.0036018999999,,,,,,,,,,,,,,,,,,,,,,,268.98729879999973,269.0036018999999,269.5202827000003,269.4871235999999,,,,,,,,,,,,,,,,,,,,,,,,,,269.4988863999997,269.5202827000003,269.5202827000003,269.5202827000003,272.50361280000016,indoor,j,1.2599979000005987,0.20243799999934708,272.50473150000016,272.50474459999987,None,,,,,,,,,,,,,,,,,00028,001,2025-11-14_19h03.32.428,MST_task,2024.2.2,59.999592002723574,2025-11-14 19h03.37.478925 +0530,
,Objects\063a.jpg,43,0,43,,,,,,,f,2.069829099999879,0.14997930000026827,None,,,,,,,43,0,43,0,272.52019889999974,,,,,,,,,,,,,,,,,,,,,,,272.50479780000023,272.52019889999974,273.0201812000005,273.00369430000046,,,,,,,,,,,,,,,,,,,,,,,,,,273.01113030000033,273.0201812000005,273.0201812000005,273.0201812000005,276.00383500000044,indoor,f,2.069829099999879,0.14997930000026827,276.00387130000036,276.0038798000005,None,276.02012170000035,276.02012170000035,276.02012170000035,,,,,,,,,,,,,,00028,001,2025-11-14_19h03.32.428,MST_task,2024.2.2,59.999592002723574,2025-11-14 19h03.37.478925 +0530,
,Objects\278a.jpg,44,0,44,,,,,,,f,1.0456312999995134,0.17944410000018252,None,,,,,,,44,0,44,0,276.02012170000035,,,,,,,,,,,,,,,,,,,,,,,276.0039317999999,276.02012170000035,276.5367693999997,276.5036772000003,,,,,,,,,,,,,,,,,,,,,,,,,,276.51579029999994,276.5367693999997,276.5367693999997,276.5367693999997,279.52012470000045,indoor,f,1.0456312999995134,0.17944410000018252,279.5201611000002,279.52017090000027,None,,,,,,,,,,,,,,,,,00028,001,2025-11-14_19h03.32.428,MST_task,2024.2.2,59.999592002723574,2025-11-14 19h03.37.478925 +0530,
,Objects\366a.jpg,45,0,45,,,,,,,j,1.1345240999999078,0.18539640000017243,None,,,,,,,45,0,45,0,279.53671010000016,,,,,,,,,,,,,,,,,,,,,,,279.520227,279.53671010000016,280.03658220000034,280.02017929999965,,,,,,,,,,,,,,,,,,,,,,,,,,280.03115660000003,280.03658220000034,280.03658220000034,280.03658220000034,283.0203349000003,indoor,j,1.1345240999999078,0.18539640000017243,283.0203754000004,283.0203846000004,None,283.03665420000016,283.03665420000016,283.03665420000016,,,,,,,,,,,,,,00028,001,2025-11-14_19h03.32.428,MST_task,2024.2.2,59.999592002723574,2025-11-14 19h03.37.478925 +0530,
,Objects\115a.jpg,46,0,46,,,,,,,f,1.5677064999999857,0.19856299999992189,None,,,,,,,46,0,46,0,283.03665420000016,,,,,,,,,,,,,,,,,,,,,,,283.0204402999998,283.03665420000016,283.5366406000003,283.5201718999997,,,,,,,,,,,,,,,,,,,,,,,,,,283.5281074000004,283.5366406000003,283.5366406000003,283.5366406000003,286.5202172999998,indoor,f,1.5677064999999857,0.19856299999992189,286.52025609999964,286.52026600000045,None,286.5365552000003,286.5365552000003,286.5365552000003,,,,,,,,,,,,,,00028,001,2025-11-14_19h03.32.428,MST_task,2024.2.2,59.999592002723574,2025-11-14 19h03.37.478925 +0530,
,Objects\052a.jpg,47,0,47,,,,,,,j,1.8940841000003275,0.19926719999966735,None,,,,,,,47,0,47,0,286.5365552000003,,,,,,,,,,,,,,,,,,,,,,,286.5203293000004,286.5365552000003,287.03659659999994,287.0200629000001,,,,,,,,,,,,,,,,,,,,,,,,,,287.0279250000003,287.03659659999994,287.03659659999994,287.03659659999994,290.0201069000004,indoor,j,1.8940841000003275,0.19926719999966735,290.02014059999965,290.0201493000004,None,290.03647720000026,290.03647720000026,290.03647720000026,,,,,,,,,,,,,,00028,001,2025-11-14_19h03.32.428,MST_task,2024.2.2,59.999592002723574,2025-11-14 19h03.37.478925 +0530,
,Objects\325a.jpg,48,0,48,,,,,,,f,1.1721005999997942,0.19346260000020266,None,,,,,,,48,0,48,0,290.03647720000026,,,,,,,,,,,,,,,,,,,,,,,290.02020019999964,290.03647720000026,290.53649640000003,290.5199929999999,,,,,,,,,,,,,,,,,,,,,,,,,,290.53034469999966,290.53649640000003,290.53649640000003,290.53649640000003,293.5199904000001,indoor,f,1.1721005999997942,0.19346260000020266,293.52002340000035,293.52003200000036,None,293.5364328000005,293.5364328000005,293.5364328000005,,,,,,,,,,,,,,00028,001,2025-11-14_19h03.32.428,MST_task,2024.2.2,59.999592002723574,2025-11-14 19h03.37.478925 +0530,
,Objects\287a.jpg,49,0,49,,,,,,,f,0.90672480000012,0.19537469999977475,None,,,,,,,49,0,49,0,293.5364328000005,,,,,,,,,,,,,,,,,,,,,,,293.5200845999998,293.5364328000005,294.03603699999985,294.01994639999975,,,,,,,,,,,,,,,,,,,,,,,,,,294.03184599999986,294.03603699999985,294.03603699999985,294.03603699999985,297.0201440000001,shoe,f,0.90672480000012,0.19537469999977475,297.0216921000001,297.0217040999996,None,297.0363610000004,297.0363610000004,297.0363610000004,,,,,,,,,,,,,,00028,001,2025-11-14_19h03.32.428,MST_task,2024.2.2,59.999592002723574,2025-11-14 19h03.37.478925 +0530,
,Objects\022a.jpg,50,0,50,,,,,,,f,0.7358148000002984,0.16626890000043204,None,,,,,,,50,0,50,0,297.0363610000004,,,,,,,,,,,,,,,,,,,,,,,297.0217638000004,297.0363610000004,297.5363446000001,297.51986860000034,,,,,,,,,,,,,,,,,,,,,,,,,,297.5308124000003,297.5363446000001,297.5363446000001,297.5363446000001,300.51984100000027,shoe,f,0.7358148000002984,0.16626890000043204,300.5198754000003,300.5198839000004,None,300.5362879000004,300.5362879000004,300.5362879000004,,,,,,,,,,,,,,00028,001,2025-11-14_19h03.32.428,MST_task,2024.2.2,59.999592002723574,2025-11-14 19h03.37.478925 +0530,
,Objects\220a.jpg,51,0,51,,,,,,,f,1.0601442999995925,0.22422690000075818,None,,,,,,,51,0,51,0,300.5362879000004,,,,,,,,,,,,,,,,,,,,,,,300.51993719999973,300.5362879000004,301.0362412000004,301.01984449999964,,,,,,,,,,,,,,,,,,,,,,,,,,301.0306842,301.0362412000004,301.0362412000004,301.0362412000004,304.01979610000035,shoe,f,1.0601442999995925,0.22422690000075818,304.0198347000005,304.0198435000002,None,304.0362143000002,304.0362143000002,304.0362143000002,,,,,,,,,,,,,,00028,001,2025-11-14_19h03.32.428,MST_task,2024.2.2,59.999592002723574,2025-11-14 19h03.37.478925 +0530,
,Objects\371a.jpg,52,0,52,,,,,,,j,0.8521212000005107,0.20789019999938319,None,,,,,,,52,0,52,0,304.0362143000002,,,,,,,,,,,,,,,,,,,,,,,304.0198972999997,304.0362143000002,304.5361726000001,304.5197343,,,,,,,,,,,,,,,,,,,,,,,,,,304.5277519000001,304.5361726000001,304.5361726000001,304.5361726000001,307.5196784999998,shoe,j,0.8521212000005107,0.20789019999938319,307.5197192000005,307.51972920000026,None,307.5361380000004,307.5361380000004,307.5361380000004,,,,,,,,,,,,,,00028,001,2025-11-14_19h03.32.428,MST_task,2024.2.2,59.999592002723574,2025-11-14 19h03.37.478925 +0530,
,Objects\065a.jpg,53,0,53,,,,,,,j,1.9864308000005622,0.2099275000000489,None,,,,,,,53,0,53,0,307.5361380000004,,,,,,,,,,,,,,,,,,,,,,,307.5198164000003,307.5361380000004,308.03610019999996,308.0196179000004,,,,,,,,,,,,,,,,,,,,,,,,,,308.03050299999995,308.03610019999996,308.03610019999996,308.03610019999996,311.01976300000024,shoe,j,1.9864308000005622,0.2099275000000489,311.01979889999984,311.019808,None,311.03605940000034,311.03605940000034,311.03605940000034,,,,,,,,,,,,,,00028,001,2025-11-14_19h03.32.428,MST_task,2024.2.2,59.999592002723574,2025-11-14 19h03.37.478925 +0530,
,Objects\092a.jpg,54,0,54,,,,,,,f,1.1466323000004195,0.16205989999980375,None,,,,,,,54,0,54,0,311.03605940000034,,,,,,,,,,,,,,,,,,,,,,,311.0198949000005,311.03605940000034,311.5360176000004,311.51963650000016,,,,,,,,,,,,,,,,,,,,,,,,,,311.5272852999997,311.5360176000004,311.5360176000004,311.5360176000004,314.5196042999996,shoe,f,1.1466323000004195,0.16205989999980375,314.51964399999997,314.51965310000014,None,314.53599529999974,314.53599529999974,314.53599529999974,,,,,,,,,,,,,,00028,001,2025-11-14_19h03.32.428,MST_task,2024.2.2,59.999592002723574,2025-11-14 19h03.37.478925 +0530,
,Objects\329a.jpg,55,0,55,,,,,,,f,1.0140681000002587,0.18621799999982613,None,,,,,,,55,0,55,0,314.53599529999974,,,,,,,,,,,,,,,,,,,,,,,314.5197354000002,314.53599529999974,315.03621060000023,315.01947219999965,,,,,,,,,,,,,,,,,,,,,,,,,,315.0294068000003,315.03621060000023,315.03621060000023,315.03621060000023,318.01950320000014,shoe,f,1.0140681000002587,0.18621799999982613,318.01953719999983,318.0195455000003,None,318.0359165,318.0359165,318.0359165,,,,,,,,,,,,,,00028,001,2025-11-14_19h03.32.428,MST_task,2024.2.2,59.999592002723574,2025-11-14 19h03.37.478925 +0530,
,Objects\067a.jpg,56,0,56,,,,,,,j,1.1378002000001288,0.17455419999987498,None,,,,,,,56,0,56,0,318.0359165,,,,,,,,,,,,,,,,,,,,,,,318.0196246000005,318.0359165,318.5525729000001,318.5195101999998,,,,,,,,,,,,,,,,,,,,,,,,,,318.5309741000001,318.5525729000001,318.5525729000001,318.5525729000001,321.53598669999974,indoor,j,1.1378002000001288,0.17455419999987498,321.53725250000025,321.5372650999998,None,,,,,,,,,,,,,,,,,00028,001,2025-11-14_19h03.32.428,MST_task,2024.2.2,59.999592002723574,2025-11-14 19h03.37.478925 +0530,
,Objects\330a.jpg,57,0,57,,,,,,,j,1.6042640999994546,0.17462630000045465,None,,,,,,,57,0,57,0,321.5524795000001,,,,,,,,,,,,,,,,,,,,,,,321.5373195000002,321.5524795000001,322.0520826000002,322.03608150000036,,,,,,,,,,,,,,,,,,,,,,,,,,322.04743580000013,322.0520826000002,322.0520826000002,322.0520826000002,325.0360059000004,indoor,j,1.6042640999994546,0.17462630000045465,325.03604019999966,325.0360485000001,None,325.0524267999999,325.0524267999999,325.0524267999999,,,,,,,,,,,,,,00028,001,2025-11-14_19h03.32.428,MST_task,2024.2.2,59.999592002723574,2025-11-14 19h03.37.478925 +0530,
,Objects\279a.jpg,58,0,58,,,,,,,f,1.6818834000005154,0.1904685999998037,None,,,,,,,58,0,58,0,325.0524267999999,,,,,,,,,,,,,,,,,,,,,,,325.0361018000003,325.0524267999999,325.55229340000005,325.53596840000046,,,,,,,,,,,,,,,,,,,,,,,,,,325.54684030000044,325.55229340000005,325.55229340000005,325.55229340000005,328.53592970000045,indoor,f,1.6818834000005154,0.1904685999998037,328.5359692000002,328.53597809999974,None,328.55235879999964,328.55235879999964,328.55235879999964,,,,,,,,,,,,,,00028,001,2025-11-14_19h03.32.428,MST_task,2024.2.2,59.999592002723574,2025-11-14 19h03.37.478925 +0530,
,Objects\367a.jpg,59,0,59,,,,,,,f,1.5701672000004692,0.174974900000052,None,,,,,,,59,0,59,0,328.55235879999964,,,,,,,,,,,,,,,,,,,,,,,328.53602880000017,328.55235879999964,329.0523430000003,329.03585099999964,,,,,,,,,,,,,,,,,,,,,,,,,,329.0456729999996,329.0523430000003,329.0523430000003,329.0523430000003,332.0359883000001,indoor,f,1.5701672000004692,0.174974900000052,332.03602649999993,332.03603569999996,None,332.0522778000004,332.0522778000004,332.0522778000004,,,,,,,,,,,,,,00028,001,2025-11-14_19h03.32.428,MST_task,2024.2.2,59.999592002723574,2025-11-14 19h03.37.478925 +0530,
,Objects\326a.jpg,60,0,60,,,,,,,f,1.2812298999997438,0.1688616000001275,None,,,,,,,60,0,60,0,332.0522778000004,,,,,,,,,,,,,,,,,,,,,,,332.0360958000001,332.0522778000004,332.5689376,332.5358202999996,,,,,,,,,,,,,,,,,,,,,,,,,,332.5480198000005,332.5689376,332.5689376,332.5689376,335.5522367000003,indoor,f,1.2812298999997438,0.1688616000001275,335.5522708999997,335.55228069999976,None,,,,,,,,,,,,,,,,,00028,001,2025-11-14_19h03.32.428,MST_task,2024.2.2,59.999592002723574,2025-11-14 19h03.37.478925 +0530,
,Objects\193a.jpg,61,0,61,,,,,,,f,1.8353974999999991,0.1545499000003474,None,,,,,,,61,0,61,0,335.5688621999998,,,,,,,,,,,,,,,,,,,,,,,335.5523368000004,335.5688621999998,336.0688405000001,336.0524284000003,,,,,,,,,,,,,,,,,,,,,,,,,,336.0604376000001,336.0688405000001,336.0688405000001,336.0688405000001,339.05249410000033,indoor,f,1.8353974999999991,0.1545499000003474,339.0525306999998,339.0525438000004,None,339.06878159999997,339.06878159999997,339.06878159999997,,,,,,,,,,,,,,00028,001,2025-11-14_19h03.32.428,MST_task,2024.2.2,59.999592002723574,2025-11-14 19h03.37.478925 +0530,
,Objects\100a.jpg,62,0,62,,,,,,,f,0.9944456000002901,0.20967279999968014,None,,,,,,,62,0,62,0,339.06878159999997,,,,,,,,,,,,,,,,,,,,,,,339.05259959999967,339.06878159999997,339.5687439000003,339.55234610000025,,,,,,,,,,,,,,,,,,,,,,,,,,339.55985109999983,339.5687439000003,339.5687439000003,339.5687439000003,342.5524174000002,indoor,f,0.9944456000002901,0.20967279999968014,342.5524542000003,342.5524631999997,None,342.5687211000004,342.5687211000004,342.5687211000004,,,,,,,,,,,,,,00028,001,2025-11-14_19h03.32.428,MST_task,2024.2.2,59.999592002723574,2025-11-14 19h03.37.478925 +0530,
,Objects\160a.jpg,63,0,63,,,,,,,f,0.9550563000002512,0.19261240000014368,None,,,,,,,63,0,63,0,342.5687211000004,,,,,,,,,,,,,,,,,,,,,,,342.5525195,342.5687211000004,343.06873840000026,343.0521641000005,,,,,,,,,,,,,,,,,,,,,,,,,,343.0613323999996,343.06873840000026,343.06873840000026,343.06873840000026,346.05225580000024,shoe,f,0.9550563000002512,0.19261240000014368,346.05377169999974,346.0537838,None,346.06864289999976,346.06864289999976,346.06864289999976,,,,,,,,,,,,,,00028,001,2025-11-14_19h03.32.428,MST_task,2024.2.2,59.999592002723574,2025-11-14 19h03.37.478925 +0530,
,Objects\359a.jpg,64,0,64,,,,,,,f,0.8534323999992921,0.18963930000063556,None,,,,,,,64,0,64,0,346.06864289999976,,,,,,,,,,,,,,,,,,,,,,,346.05383809999967,346.06864289999976,346.58530690000043,346.55228369999986,,,,,,,,,,,,,,,,,,,,,,,,,,346.56366460000027,346.58530690000043,346.58530690000043,346.58530690000043,349.5687522999997,shoe,f,0.8534323999992921,0.18963930000063556,349.5687919000002,349.56880139999976,None,,,,,,,,,,,,,,,,,00028,001,2025-11-14_19h03.32.428,MST_task,2024.2.2,59.999592002723574,2025-11-14 19h03.37.478925 +0530,
,Objects\354a.jpg,65,0,65,,,,,,,f,1.9554490000000442,0.3927829999993264,None,,,,,,,65,0,65,0,349.58523460000015,,,,,,,,,,,,,,,,,,,,,,,349.568859,349.58523460000015,350.0853262999999,350.0687619999999,,,,,,,,,,,,,,,,,,,,,,,,,,350.0782627999997,350.0853262999999,350.0853262999999,350.0853262999999,353.06883050000033,shoe,f,1.9554490000000442,0.3927829999993264,353.06887069999993,353.06888009999966,None,353.0851611999997,353.0851611999997,353.0851611999997,,,,,,,,,,,,,,00028,001,2025-11-14_19h03.32.428,MST_task,2024.2.2,59.999592002723574,2025-11-14 19h03.37.478925 +0530,
,Objects\060a.jpg,66,0,66,,,,,,,f,1.4342568000001847,0.1977124000004551,None,,,,,,,66,0,66,0,353.0851611999997,,,,,,,,,,,,,,,,,,,,,,,353.06897000000026,353.0851611999997,353.58474529999967,353.56868289999966,,,,,,,,,,,,,,,,,,,,,,,,,,353.5797266999998,353.58474529999967,353.58474529999967,353.58474529999967,356.5686305999998,shoe,f,1.4342568000001847,0.1977124000004551,356.56866739999987,356.5686764000002,None,356.5850793999998,356.5850793999998,356.5850793999998,,,,,,,,,,,,,,00028,001,2025-11-14_19h03.32.428,MST_task,2024.2.2,59.999592002723574,2025-11-14 19h03.37.478925 +0530,
,Objects\189a.jpg,67,0,67,,,,,,,j,1.1651164999993853,0.18854600000031496,None,,,,,,,67,0,67,0,356.5850793999998,,,,,,,,,,,,,,,,,,,,,,,356.5687329000002,356.5850793999998,357.0850796000004,357.0686652000004,,,,,,,,,,,,,,,,,,,,,,,,,,357.07649219999985,357.0850796000004,357.0850796000004,357.0850796000004,360.06857219999983,shoe,j,1.1651164999993853,0.18854600000031496,360.06860640000014,360.06861480000043,None,360.08500790000016,360.08500790000016,360.08500790000016,,,,,,,,,,,,,,00028,001,2025-11-14_19h03.32.428,MST_task,2024.2.2,59.999592002723574,2025-11-14 19h03.37.478925 +0530,
,Objects\214a.jpg,68,0,68,,,,,,,f,1.367159599999468,0.17060380000020814,None,,,,,,,68,0,68,0,360.08500790000016,,,,,,,,,,,,,,,,,,,,,,,360.0686943999999,360.08500790000016,360.5849975000001,360.56848830000035,,,,,,,,,,,,,,,,,,,,,,,,,,360.5759694999997,360.5849975000001,360.5849975000001,360.5849975000001,363.5684376999998,shoe,f,1.367159599999468,0.17060380000020814,363.56847000000016,363.56847879999987,None,363.5849268000002,363.5849268000002,363.5849268000002,,,,,,,,,,,,,,00028,001,2025-11-14_19h03.32.428,MST_task,2024.2.2,59.999592002723574,2025-11-14 19h03.37.478925 +0530,
,Objects\293a.jpg,69,0,69,,,,,,,f,1.042415400000209,0.26101399999970454,None,,,,,,,69,0,69,0,363.5849268000002,,,,,,,,,,,,,,,,,,,,,,,363.5685312000005,363.5849268000002,364.0845092999998,364.06852009999966,,,,,,,,,,,,,,,,,,,,,,,,,,364.07840620000025,364.0845092999998,364.0845092999998,364.0845092999998,367.068448,shoe,f,1.042415400000209,0.26101399999970454,367.0684822000003,367.0684914000003,None,367.08485050000036,367.08485050000036,367.08485050000036,,,,,,,,,,,,,,00028,001,2025-11-14_19h03.32.428,MST_task,2024.2.2,59.999592002723574,2025-11-14 19h03.37.478925 +0530,
,Objects\147a.jpg,70,0,70,,,,,,,f,0.9669608000003791,0.21377440000014758,None,,,,,,,70,0,70,0,367.08485050000036,,,,,,,,,,,,,,,,,,,,,,,367.0685437000002,367.08485050000036,367.6014763000003,367.5683747000003,,,,,,,,,,,,,,,,,,,,,,,,,,367.5817717,367.6014763000003,367.6014763000003,367.6014763000003,370.58480510000027,indoor,f,0.9669608000003791,0.21377440000014758,370.58597740000005,370.58598900000015,None,,,,,,,,,,,,,,,,,00028,001,2025-11-14_19h03.32.428,MST_task,2024.2.2,59.999592002723574,2025-11-14 19h03.37.478925 +0530,
,Objects\150a.jpg,71,0,71,,,,,,,j,1.6650458999993134,0.22048130000075616,None,,,,,,,71,0,71,0,370.6014763000003,,,,,,,,,,,,,,,,,,,,,,,370.5860482999997,370.6014763000003,371.10146689999965,371.0849573000005,,,,,,,,,,,,,,,,,,,,,,,,,,371.09343199999967,371.10146689999965,371.10146689999965,371.10146689999965,374.0849323000002,indoor,j,1.6650458999993134,0.22048130000075616,374.0849645999997,374.08497350000016,None,374.1014060999996,374.1014060999996,374.1014060999996,,,,,,,,,,,,,,00028,001,2025-11-14_19h03.32.428,MST_task,2024.2.2,59.999592002723574,2025-11-14 19h03.37.478925 +0530,
,Objects\163a.jpg,72,0,72,,,,,,,j,0.8097118999994564,0.16988800000035553,None,,,,,,,72,0,72,0,374.1014060999996,,,,,,,,,,,,,,,,,,,,,,,374.0850270000001,374.1014060999996,374.60138480000023,374.58486150000044,,,,,,,,,,,,,,,,,,,,,,,,,,374.5924715000001,374.60138480000023,374.60138480000023,374.60138480000023,377.58484709999993,indoor,j,0.8097118999994564,0.16988800000035553,377.5848794000003,377.58488769999985,None,377.6012947999998,377.6012947999998,377.6012947999998,,,,,,,,,,,,,,00028,001,2025-11-14_19h03.32.428,MST_task,2024.2.2,59.999592002723574,2025-11-14 19h03.37.478925 +0530,
,Objects\032a.jpg,73,0,73,,,,,,,j,0.8827889000003779,0.19070120000014867,None,,,,,,,73,0,73,0,377.6012947999998,,,,,,,,,,,,,,,,,,,,,,,377.58493780000026,377.6012947999998,378.1012717000003,378.0850065000004,,,,,,,,,,,,,,,,,,,,,,,,,,378.09256110000024,378.1012717000003,378.1012717000003,378.1012717000003,381.08477330000005,indoor,j,0.8827889000003779,0.19070120000014867,381.0848130000004,381.0848216000004,None,381.1012179999998,381.1012179999998,381.1012179999998,,,,,,,,,,,,,,00028,001,2025-11-14_19h03.32.428,MST_task,2024.2.2,59.999592002723574,2025-11-14 19h03.37.478925 +0530,
,Objects\306a.jpg,74,0,74,,,,,,,f,1.5052891999994245,0.1619261000005281,None,,,,,,,74,0,74,0,381.1012179999998,,,,,,,,,,,,,,,,,,,,,,,381.08487270000023,381.1012179999998,381.6012040000005,381.58469870000044,,,,,,,,,,,,,,,,,,,,,,,,,,381.59517119999964,381.6012040000005,381.6012040000005,381.6012040000005,384.5847506,indoor,f,1.5052891999994245,0.1619261000005281,384.5847855000002,384.5847936,None,384.6011079,384.6011079,384.6011079,,,,,,,,,,,,,,00028,001,2025-11-14_19h03.32.428,MST_task,2024.2.2,59.999592002723574,2025-11-14 19h03.37.478925 +0530,
,Objects\010a.jpg,75,0,75,,,,,,,f,1.3596100000004299,0.16222540000035224,None,,,,,,,75,0,75,0,384.6011079,,,,,,,,,,,,,,,,,,,,,,,384.58484920000046,384.6011079,385.1010653000003,385.0846438999997,,,,,,,,,,,,,,,,,,,,,,,,,,385.09532020000006,385.1010653000003,385.1010653000003,385.1010653000003,388.08480690000033,indoor,f,1.3596100000004299,0.16222540000035224,388.0848468000004,388.0848563999998,None,388.10103419999996,388.10103419999996,388.10103419999996,,,,,,,,,,,,,,00028,001,2025-11-14_19h03.32.428,MST_task,2024.2.2,59.999592002723574,2025-11-14 19h03.37.478925 +0530,
,Objects\374a.jpg,76,0,76,,,,,,,f,1.8628825000005236,0.18845479999981762,None,,,,,,,76,0,76,0,388.10103419999996,,,,,,,,,,,,,,,,,,,,,,,388.08491520000007,388.10103419999996,388.61769559999993,388.58456000000024,,,,,,,,,,,,,,,,,,,,,,,,,,388.59593060000043,388.61769559999993,388.61769559999993,388.61769559999993,391.60101269999996,indoor,f,1.8628825000005236,0.18845479999981762,391.6010489999999,391.6010589999996,None,,,,,,,,,,,,,,,,,00028,001,2025-11-14_19h03.32.428,MST_task,2024.2.2,59.999592002723574,2025-11-14 19h03.37.478925 +0530,
,Objects\037a.jpg,77,0,77,,,,,,,f,0.8724356000002444,0.17779389999941486,None,,,,,,,77,0,77,0,391.6176599999999,,,,,,,,,,,,,,,,,,,,,,,391.6011214,391.6176599999999,392.1342807000001,392.1011011999999,,,,,,,,,,,,,,,,,,,,,,,,,,392.11351730000024,392.1342807000001,392.1342807000001,392.1342807000001,395.1176839999998,shoe,f,0.8724356000002444,0.17779389999941486,395.1193017000005,395.1193137,None,,,,,,,,,,,,,,,,,00028,001,2025-11-14_19h03.32.428,MST_task,2024.2.2,59.999592002723574,2025-11-14 19h03.37.478925 +0530,
,Objects\358a.jpg,78,0,78,,,,,,,j,2.5232005999996545,0.15656160000071395,None,,,,,,,78,0,78,0,395.1342588999996,,,,,,,,,,,,,,,,,,,,,,,395.11939450000045,395.1342588999996,395.65090839999993,395.61786519999987,,,,,,,,,,,,,,,,,,,,,,,,,,395.62875729999996,395.65090839999993,395.65090839999993,395.65090839999993,398.63423799999964,shoe,j,2.5232005999996545,0.15656160000071395,398.6344046000004,398.63441690000036,None,,,,,,,,,,,,,,,,,00028,001,2025-11-14_19h03.32.428,MST_task,2024.2.2,59.999592002723574,2025-11-14 19h03.37.478925 +0530,
,Objects\353a.jpg,79,0,79,,,,,,,f,1.1545333000003666,0.18552389999968,None,,,,,,,79,0,79,0,398.6508853000005,,,,,,,,,,,,,,,,,,,,,,,398.6344734000004,398.6508853000005,399.15042040000026,399.1344310000004,,,,,,,,,,,,,,,,,,,,,,,,,,399.1441597000003,399.15042040000026,399.15042040000026,399.15042040000026,402.13438789999964,shoe,f,1.1545333000003666,0.18552389999968,402.1344227999998,402.13443110000026,None,402.15076390000013,402.15076390000013,402.15076390000013,,,,,,,,,,,,,,00028,001,2025-11-14_19h03.32.428,MST_task,2024.2.2,59.999592002723574,2025-11-14 19h03.37.478925 +0530,
,Objects\296a.jpg,80,0,80,,,,,,,j,1.43983180000032,0.15212129999963508,None,,,,,,,80,0,80,0,402.15076390000013,,,,,,,,,,,,,,,,,,,,,,,402.13448320000043,402.15076390000013,402.6503472000004,402.6342500999999,,,,,,,,,,,,,,,,,,,,,,,,,,402.6444551000004,402.6503472000004,402.6503472000004,402.6503472000004,405.63423930000044,shoe,j,1.43983180000032,0.15212129999963508,405.63427299999967,405.63428190000013,None,405.65069250000033,405.65069250000033,405.65069250000033,,,,,,,,,,,,,,00028,001,2025-11-14_19h03.32.428,MST_task,2024.2.2,59.999592002723574,2025-11-14 19h03.37.478925 +0530,
,Objects\285a.jpg,81,0,81,,,,,,,f,1.3845038999997996,0.155351200000041,None,,,,,,,81,0,81,0,405.65069250000033,,,,,,,,,,,,,,,,,,,,,,,405.6343366000001,405.65069250000033,406.1502720999997,406.1342874000002,,,,,,,,,,,,,,,,,,,,,,,,,,406.14529800000037,406.1502720999997,406.1502720999997,406.1502720999997,409.1342830000003,shoe,f,1.3845038999997996,0.155351200000041,409.1343171999997,409.1343257999997,None,409.15062169999965,409.15062169999965,409.15062169999965,,,,,,,,,,,,,,00028,001,2025-11-14_19h03.32.428,MST_task,2024.2.2,59.999592002723574,2025-11-14 19h03.37.478925 +0530,
,Objects\105a.jpg,82,0,82,,,,,,,f,0.7674563000000489,0.1742672999998831,None,,,,,,,82,0,82,0,409.15062169999965,,,,,,,,,,,,,,,,,,,,,,,409.13437820000036,409.15062169999965,409.6506123999998,409.63404939999964,,,,,,,,,,,,,,,,,,,,,,,,,,409.6414506000001,409.6506123999998,409.6506123999998,409.6506123999998,412.63410190000013,shoe,f,0.7674563000000489,0.1742672999998831,412.63413990000026,412.63414900000043,None,412.6505411999997,412.6505411999997,412.6505411999997,,,,,,,,,,,,,,00028,001,2025-11-14_19h03.32.428,MST_task,2024.2.2,59.999592002723574,2025-11-14 19h03.37.478925 +0530,
,Objects\083a.jpg,83,0,83,,,,,,,f,0.6456084000001283,0.1585282999994888,None,,,,,,,83,0,83,0,412.6505411999997,,,,,,,,,,,,,,,,,,,,,,,412.6342045000001,412.6505411999997,413.1504979000001,413.1340790000004,,,,,,,,,,,,,,,,,,,,,,,,,,413.1417798000002,413.1504979000001,413.1504979000001,413.1504979000001,416.13416770000003,shoe,f,0.6456084000001283,0.1585282999994888,416.1342064999999,416.13421610000023,None,416.15043609999975,416.15043609999975,416.15043609999975,,,,,,,,,,,,,,00028,001,2025-11-14_19h03.32.428,MST_task,2024.2.2,59.999592002723574,2025-11-14 19h03.37.478925 +0530,
,Objects\250a.jpg,84,0,84,,,,,,,j,0.8932244000006904,0.14547189999939292,None,,,,,,,84,0,84,0,416.15043609999975,,,,,,,,,,,,,,,,,,,,,,,416.1342751000002,416.15043609999975,416.65042509999967,416.6340233000001,,,,,,,,,,,,,,,,,,,,,,,,,,416.64507239999966,416.65042509999967,416.65042509999967,416.65042509999967,419.63393710000037,indoor,j,0.8932244000006904,0.14547189999939292,419.6350902000004,419.6351016999997,None,419.6503552000004,419.6503552000004,419.6503552000004,,,,,,,,,,,,,,00028,001,2025-11-14_19h03.32.428,MST_task,2024.2.2,59.999592002723574,2025-11-14 19h03.37.478925 +0530,
,Objects\378a.jpg,85,0,85,,,,,,,j,1.2025033999998413,0.14180099999975937,None,,,,,,,85,0,85,0,419.6503552000004,,,,,,,,,,,,,,,,,,,,,,,419.6351562,419.6503552000004,420.1504365999999,420.1338390000001,,,,,,,,,,,,,,,,,,,,,,,,,,420.14484939999966,420.1504365999999,420.1504365999999,420.1504365999999,423.1338777000001,indoor,j,1.2025033999998413,0.14180099999975937,423.13391649999994,423.13392790000034,None,423.15028129999973,423.15028129999973,423.15028129999973,,,,,,,,,,,,,,00028,001,2025-11-14_19h03.32.428,MST_task,2024.2.2,59.999592002723574,2025-11-14 19h03.37.478925 +0530,
,Objects\350a.jpg,86,0,86,,,,,,,j,1.0501887999998871,0.22238430000015796,None,,,,,,,86,0,86,0,423.15028129999973,,,,,,,,,,,,,,,,,,,,,,,423.1339865,423.15028129999973,423.64988770000036,423.63385670000025,,,,,,,,,,,,,,,,,,,,,,,,,,423.6449966,423.64988770000036,423.64988770000036,423.64988770000036,426.6338314000004,indoor,j,1.0501887999998871,0.22238430000015796,426.63386960000025,426.63387909999983,None,426.6502390000005,426.6502390000005,426.6502390000005,,,,,,,,,,,,,,00028,001,2025-11-14_19h03.32.428,MST_task,2024.2.2,59.999592002723574,2025-11-14 19h03.37.478925 +0530,
,Objects\090a.jpg,87,0,87,,,,,,,j,0.7621709999993982,0.19390830000065762,None,,,,,,,87,0,87,0,426.6502390000005,,,,,,,,,,,,,,,,,,,,,,,426.63393710000037,426.6502390000005,427.1501949000003,427.1336965999999,,,,,,,,,,,,,,,,,,,,,,,,,,427.14500599999974,427.1501949000003,427.1501949000003,427.1501949000003,430.13370159999977,indoor,j,0.7621709999993982,0.19390830000065762,430.1337349000005,430.13374339999973,None,430.15016970000033,430.15016970000033,430.15016970000033,,,,,,,,,,,,,,00028,001,2025-11-14_19h03.32.428,MST_task,2024.2.2,59.999592002723574,2025-11-14 19h03.37.478925 +0530,
,Objects\042a.jpg,88,0,88,,,,,,,f,1.5305127000001448,0.21386249999977736,None,,,,,,,88,0,88,0,430.15016970000033,,,,,,,,,,,,,,,,,,,,,,,430.13379410000016,430.15016970000033,430.6501341000003,430.6336320999999,,,,,,,,,,,,,,,,,,,,,,,,,,430.64246699999967,430.6501341000003,430.6501341000003,430.6501341000003,433.63370360000044,indoor,f,1.5305127000001448,0.21386249999977736,433.6337355000005,433.6337441000005,None,433.6500895999998,433.6500895999998,433.6500895999998,,,,,,,,,,,,,,00028,001,2025-11-14_19h03.32.428,MST_task,2024.2.2,59.999592002723574,2025-11-14 19h03.37.478925 +0530,
,Objects\113a.jpg,89,0,89,,,,,,,f,2.2454781000005823,0.1885441999993418,None,,,,,,,89,0,89,0,433.6500895999998,,,,,,,,,,,,,,,,,,,,,,,433.63379480000003,433.6500895999998,434.1500455000005,434.13354510000045,,,,,,,,,,,,,,,,,,,,,,,,,,434.1423139999997,434.1500455000005,434.1500455000005,434.1500455000005,437.1335614999998,indoor,f,2.2454781000005823,0.1885441999993418,437.13359969999965,437.1336103000003,None,437.15004299999964,437.15004299999964,437.15004299999964,,,,,,,,,,,,,,00028,001,2025-11-14_19h03.32.428,MST_task,2024.2.2,59.999592002723574,2025-11-14 19h03.37.478925 +0530,
,Objects\106a.jpg,90,0,90,,,,,,,f,1.9066152999994301,0.19026930000018183,None,,,,,,,90,0,90,0,437.15004299999964,,,,,,,,,,,,,,,,,,,,,,,437.13366419999966,437.15004299999964,437.6499689000002,437.6334858,,,,,,,,,,,,,,,,,,,,,,,,,,437.64097409999977,437.6499689000002,437.6499689000002,437.6499689000002,440.6334889,indoor,f,1.9066152999994301,0.19026930000018183,440.63352719999966,440.63353780000034,None,440.6499377,440.6499377,440.6499377,,,,,,,,,,,,,,00028,001,2025-11-14_19h03.32.428,MST_task,2024.2.2,59.999592002723574,2025-11-14 19h03.37.478925 +0530,
,Objects\104a.jpg,91,0,91,,,,,,,f,0.9167125999993004,0.16118720000031317,None,,,,,,,91,0,91,0,440.6499377,,,,,,,,,,,,,,,,,,,,,,,440.6335936000005,440.6499377,441.14991610000015,441.1334217000003,,,,,,,,,,,,,,,,,,,,,,,,,,441.1422971000002,441.14991610000015,441.14991610000015,441.14991610000015,444.13370399999985,shoe,f,0.9167125999993004,0.16118720000031317,444.1352354999999,444.1352474000005,None,444.1498425,444.1498425,444.1498425,,,,,,,,,,,,,,00028,001,2025-11-14_19h03.32.428,MST_task,2024.2.2,59.999592002723574,2025-11-14 19h03.37.478925 +0530,
,Objects\112a.jpg,92,0,92,,,,,,,f,1.0992443000004641,0.15975389999948675,None,,,,,,,92,0,92,0,444.1498425,,,,,,,,,,,,,,,,,,,,,,,444.1353374999999,444.1498425,444.64981929999976,444.6333174000001,,,,,,,,,,,,,,,,,,,,,,,,,,444.6407701999997,444.64981929999976,444.64981929999976,444.64981929999976,447.63334699999996,shoe,f,1.0992443000004641,0.15975389999948675,447.6333845999998,447.6333940000004,None,447.64978880000035,447.64978880000035,447.64978880000035,,,,,,,,,,,,,,00028,001,2025-11-14_19h03.32.428,MST_task,2024.2.2,59.999592002723574,2025-11-14 19h03.37.478925 +0530,
,Objects\225a.jpg,93,0,93,,,,,,,f,0.8191561000003276,0.16178579999996145,None,,,,,,,93,0,93,0,447.64978880000035,,,,,,,,,,,,,,,,,,,,,,,447.6334490999998,447.64978880000035,448.1497483000003,448.1332530999998,,,,,,,,,,,,,,,,,,,,,,,,,,448.14094360000036,448.1497483000003,448.1497483000003,448.1497483000003,451.13328490000004,shoe,f,0.8191561000003276,0.16178579999996145,451.13331819999985,451.1333267,None,451.14971160000005,451.14971160000005,451.14971160000005,,,,,,,,,,,,,,00028,001,2025-11-14_19h03.32.428,MST_task,2024.2.2,59.999592002723574,2025-11-14 19h03.37.478925 +0530,
,Objects\226a.jpg,94,0,94,,,,,,,f,0.7951161000000866,0.1853095000005851,None,,,,,,,94,0,94,0,451.14971160000005,,,,,,,,,,,,,,,,,,,,,,,451.13337839999986,451.14971160000005,451.6497132000004,451.6332164000005,,,,,,,,,,,,,,,,,,,,,,,,,,451.64348450000034,451.6497132000004,451.6497132000004,451.6497132000004,454.63323500000024,shoe,f,0.7951161000000866,0.1853095000005851,454.6332693000004,454.63327779999963,None,454.6496425000005,454.6496425000005,454.6496425000005,,,,,,,,,,,,,,00028,001,2025-11-14_19h03.32.428,MST_task,2024.2.2,59.999592002723574,2025-11-14 19h03.37.478925 +0530,
,Objects\300a.jpg,95,0,95,,,,,,,f,1.1326005999999325,0.17437299999983225,None,,,,,,,95,0,95,0,454.6496425000005,,,,,,,,,,,,,,,,,,,,,,,454.6333303000001,454.6496425000005,455.14963830000033,455.1332063,,,,,,,,,,,,,,,,,,,,,,,,,,455.14361519999966,455.14963830000033,455.14963830000033,455.14963830000033,458.1331141999999,shoe,f,1.1326005999999325,0.17437299999983225,458.1331497000001,458.1331577000001,None,458.1495676000004,458.1495676000004,458.1495676000004,,,,,,,,,,,,,,00028,001,2025-11-14_19h03.32.428,MST_task,2024.2.2,59.999592002723574,2025-11-14 19h03.37.478925 +0530,
,Objects\344a.jpg,96,0,96,,,,,,,j,1.1949665000001914,0.23285089999990305,None,,,,,,,96,0,96,0,458.1495676000004,,,,,,,,,,,,,,,,,,,,,,,458.13320980000026,458.1495676000004,458.64913290000004,458.63302620000013,,,,,,,,,,,,,,,,,,,,,,,,,,458.6432367999996,458.64913290000004,458.64913290000004,458.64913290000004,461.63307580000037,shoe,j,1.1949665000001914,0.23285089999990305,461.63310960000035,461.6331178999999,None,461.64955780000037,461.64955780000037,461.64955780000037,,,,,,,,,,,,,,00028,001,2025-11-14_19h03.32.428,MST_task,2024.2.2,59.999592002723574,2025-11-14 19h03.37.478925 +0530,
,Objects\237a.jpg,97,0,97,,,,,,,f,1.69328779999978,0.16460319999987405,None,,,,,,,97,0,97,0,461.64955780000037,,,,,,,,,,,,,,,,,,,,,,,461.63316940000004,461.64955780000037,462.1661476999998,462.13305860000037,,,,,,,,,,,,,,,,,,,,,,,,,,462.14420100000007,462.1661476999998,462.1661476999998,462.1661476999998,465.14943029999995,shoe,f,1.69328779999978,0.16460319999987405,465.14946789999976,465.14947779999966,None,,,,,,,,,,,,,,,,,00028,001,2025-11-14_19h03.32.428,MST_task,2024.2.2,59.999592002723574,2025-11-14 19h03.37.478925 +0530,
,Objects\130a.jpg,98,0,98,,,,,,,f,1.7313254999999117,0.18864700000085577,None,,,,,,,98,0,98,0,465.1660772000005,,,,,,,,,,,,,,,,,,,,,,,465.14953400000013,465.1660772000005,,465.64957400000003,,,,,,,,,,,,,,,,,,,,,,,,,,465.6615260999997,465.68273990000034,465.68273990000034,465.68273990000034,468.6660313000002,indoor,f,1.7313254999999117,0.18864700000085577,468.6671841999996,468.6671965000005,None,,,,,,,,,,,,,,,,,00028,001,2025-11-14_19h03.32.428,MST_task,2024.2.2,59.999592002723574,2025-11-14 19h03.37.478925 +0530,
,Objects\114a.jpg,99,0,99,,,,,,,j,2.339886800000386,0.2106047999996008,None,,,,,,,99,0,99,0,468.68263769999976,,,,,,,,,,,,,,,,,,,,,,,468.66724989999966,468.68263769999976,469.1826670999999,469.16614110000046,,,,,,,,,,,,,,,,,,,,,,,,,,469.1735798999998,469.1826670999999,469.1826670999999,469.1826670999999,472.16630239999995,indoor,j,2.339886800000386,0.2106047999996008,472.1663346000005,472.16634350000004,None,472.18259409999973,472.18259409999973,472.18259409999973,,,,,,,,,,,,,,00028,001,2025-11-14_19h03.32.428,MST_task,2024.2.2,59.999592002723574,2025-11-14 19h03.37.478925 +0530,
,Objects\376a.jpg,100,0,100,,,,,,,j,1.0100227000002633,0.19169909999982337,None,,,,,,,100,0,100,0,472.18259409999973,,,,,,,,,,,,,,,,,,,,,,,472.1663959999996,472.18259409999973,472.68254530000013,472.66618930000004,,,,,,,,,,,,,,,,,,,,,,,,,,472.67355810000026,472.68254530000013,472.68254530000013,472.68254530000013,475.66607810000005,indoor,j,1.0100227000002633,0.19169909999982337,475.6661101999998,475.6661184000004,None,475.68254290000004,475.68254290000004,475.68254290000004,,,,,,,,,,,,,,00028,001,2025-11-14_19h03.32.428,MST_task,2024.2.2,59.999592002723574,2025-11-14 19h03.37.478925 +0530,
,Objects\315a.jpg,101,0,101,,,,,,,f,1.9318100999998933,0.16579749999982596,None,,,,,,,101,0,101,0,475.68254290000004,,,,,,,,,,,,,,,,,,,,,,,475.6661700000004,475.68254290000004,476.18251710000004,476.16607509999994,,,,,,,,,,,,,,,,,,,,,,,,,,476.17611360000046,476.18251710000004,476.18251710000004,476.18251710000004,479.16600970000036,indoor,f,1.9318100999998933,0.16579749999982596,479.16604129999996,479.16604949999964,None,479.1824588999998,479.1824588999998,479.1824588999998,,,,,,,,,,,,,,00028,001,2025-11-14_19h03.32.428,MST_task,2024.2.2,59.999592002723574,2025-11-14 19h03.37.478925 +0530,
,Objects\041a.jpg,102,0,102,,,,,,,j,1.0225571000000855,0.20224159999997937,None,,,,,,,102,0,102,0,479.1824588999998,,,,,,,,,,,,,,,,,,,,,,,479.1660988000003,479.1824588999998,479.6820170000001,479.6658819000004,,,,,,,,,,,,,,,,,,,,,,,,,,479.6763023000003,479.6820170000001,479.6820170000001,479.6820170000001,482.6659300000001,indoor,j,1.0225571000000855,0.20224159999997937,482.6659620999999,482.66597040000033,None,482.68236650000017,482.68236650000017,482.68236650000017,,,,,,,,,,,,,,00028,001,2025-11-14_19h03.32.428,MST_task,2024.2.2,59.999592002723574,2025-11-14 19h03.37.478925 +0530,
,Objects\132a.jpg,103,0,103,,,,,,,j,1.2252195000000938,0.1893318000002182,None,,,,,,,103,0,103,0,482.68236650000017,,,,,,,,,,,,,,,,,,,,,,,482.66602200000034,482.68236650000017,483.1823623,483.16586929999994,,,,,,,,,,,,,,,,,,,,,,,,,,483.17353770000045,483.1823623,483.1823623,483.1823623,486.1660466000003,indoor,j,1.2252195000000938,0.1893318000002182,486.1660827000005,486.1660915000002,None,486.18230419999963,486.18230419999963,486.18230419999963,,,,,,,,,,,,,,00028,001,2025-11-14_19h03.32.428,MST_task,2024.2.2,59.999592002723574,2025-11-14 19h03.37.478925 +0530,
,Objects\159a.jpg,104,0,104,,,,,,,f,1.003546599999936,0.16062270000020362,None,,,,,,,104,0,104,0,486.18230419999963,,,,,,,,,,,,,,,,,,,,,,,486.1661457,486.18230419999963,486.68230740000035,486.66600480000034,,,,,,,,,,,,,,,,,,,,,,,,,,486.6734841999996,486.68230740000035,486.68230740000035,486.68230740000035,489.6657597000003,indoor,f,1.003546599999936,0.16062270000020362,489.6657919999998,489.6658002000004,None,489.68222179999975,489.68222179999975,489.68222179999975,,,,,,,,,,,,,,00028,001,2025-11-14_19h03.32.428,MST_task,2024.2.2,59.999592002723574,2025-11-14 19h03.37.478925 +0530,
,Objects\146a.jpg,105,0,105,,,,,,,f,1.1965414999995119,0.18606550000004063,None,,,,,,,105,0,105,0,489.68222179999975,,,,,,,,,,,,,,,,,,,,,,,489.6658521999998,489.68222179999975,490.1821845000004,490.1656499999999,,,,,,,,,,,,,,,,,,,,,,,,,,490.1745679000005,490.1821845000004,490.1821845000004,490.1821845000004,493.1658067999997,shoe,f,1.1965414999995119,0.18606550000004063,493.1673029000003,493.16731510000045,None,493.18215359999976,493.18215359999976,493.18215359999976,,,,,,,,,,,,,,00028,001,2025-11-14_19h03.32.428,MST_task,2024.2.2,59.999592002723574,2025-11-14 19h03.37.478925 +0530,
,Objects\240a.jpg,106,0,106,,,,,,,f,2.3104051999998774,0.1488961000004565,None,,,,,,,106,0,106,0,493.18215359999976,,,,,,,,,,,,,,,,,,,,,,,493.16737060000014,493.18215359999976,493.6987943000004,493.6655679000005,,,,,,,,,,,,,,,,,,,,,,,,,,493.6779312999997,493.6987943000004,493.6987943000004,493.6987943000004,496.6820865999998,shoe,f,2.3104051999998774,0.1488961000004565,496.68212180000046,496.6821313999999,None,,,,,,,,,,,,,,,,,00028,001,2025-11-14_19h03.32.428,MST_task,2024.2.2,59.999592002723574,2025-11-14 19h03.37.478925 +0530,
,Objects\272a.jpg,107,0,107,,,,,,,f,1.7348532000005434,0.18984420000015234,None,,,,,,,107,0,107,0,496.69873929999994,,,,,,,,,,,,,,,,,,,,,,,496.68218609999985,496.69873929999994,497.2153747000002,497.18221079999967,,,,,,,,,,,,,,,,,,,,,,,,,,497.19914320000044,497.2153747000002,497.2153747000002,497.2153747000002,500.1987187000004,shoe,f,1.7348532000005434,0.18984420000015234,500.1987546999999,500.1987648000004,None,,,,,,,,,,,,,,,,,00028,001,2025-11-14_19h03.32.428,MST_task,2024.2.2,59.999592002723574,2025-11-14 19h03.37.478925 +0530,
,Objects\239a.jpg,108,0,108,,,,,,,f,1.7180775000006179,0.20151329999953305,None,,,,,,,108,0,108,0,500.2153159999998,,,,,,,,,,,,,,,,,,,,,,,500.19886140000017,500.2153159999998,500.7149357999997,500.69887649999964,,,,,,,,,,,,,,,,,,,,,,,,,,500.7092149,500.7149357999997,500.7149357999997,500.7149357999997,503.69882080000025,shoe,f,1.7180775000006179,0.20151329999953305,503.6988540000002,503.6988624000005,None,503.7152427000001,503.7152427000001,503.7152427000001,,,,,,,,,,,,,,00028,001,2025-11-14_19h03.32.428,MST_task,2024.2.2,59.999592002723574,2025-11-14 19h03.37.478925 +0530,
,Objects\200a.jpg,109,0,109,,,,,,,f,2.087402799999836,0.1196628999996392,None,,,,,,,109,0,109,0,503.7152427000001,,,,,,,,,,,,,,,,,,,,,,,503.6989168,503.7152427000001,504.2152446,504.19872920000034,,,,,,,,,,,,,,,,,,,,,,,,,,504.2082682999999,504.2152446,504.2152446,504.2152446,507.1987527000001,shoe,f,2.087402799999836,0.1196628999996392,507.1987836999997,507.19879219999984,None,507.21516989999964,507.21516989999964,507.21516989999964,,,,,,,,,,,,,,00028,001,2025-11-14_19h03.32.428,MST_task,2024.2.2,59.999592002723574,2025-11-14 19h03.37.478925 +0530,
,Objects\190a.jpg,110,0,110,,,,,,,f,1.1133212999993702,0.16398020000087854,None,,,,,,,110,0,110,0,507.21516989999964,,,,,,,,,,,,,,,,,,,,,,,507.1988435000003,507.21516989999964,507.71475350000037,507.6986582999998,,,,,,,,,,,,,,,,,,,,,,,,,,507.70870130000003,507.71475350000037,507.71475350000037,507.71475350000037,510.6986198000004,shoe,f,1.1133212999993702,0.16398020000087854,510.69865480000044,510.69866340000044,None,510.71510169999965,510.71510169999965,510.71510169999965,,,,,,,,,,,,,,00028,001,2025-11-14_19h03.32.428,MST_task,2024.2.2,59.999592002723574,2025-11-14 19h03.37.478925 +0530,
,Objects\079a.jpg,111,0,111,,,,,,,j,1.3210565999997925,0.18271900000036112,None,,,,,,,111,0,111,0,510.71510169999965,,,,,,,,,,,,,,,,,,,,,,,510.6987154999997,510.71510169999965,511.21521029999985,511.1986302000005,,,,,,,,,,,,,,,,,,,,,,,,,,511.2061782999999,511.21521029999985,511.21521029999985,511.21521029999985,514.1986698999999,shoe,j,1.3210565999997925,0.18271900000036112,514.1987053000003,514.1987136999996,None,514.2151082999999,514.2151082999999,514.2151082999999,,,,,,,,,,,,,,00028,001,2025-11-14_19h03.32.428,MST_task,2024.2.2,59.999592002723574,2025-11-14 19h03.37.478925 +0530,
,Objects\050a.jpg,112,0,112,,,,,,,j,2.422222099999999,0.16913579999982176,None,,,,,,,112,0,112,0,514.2151082999999,,,,,,,,,,,,,,,,,,,,,,,514.1987926000002,514.2151082999999,514.7150731000002,514.6985568999999,,,,,,,,,,,,,,,,,,,,,,,,,,514.707512,514.7150731000002,514.7150731000002,514.7150731000002,517.6986167000005,indoor,j,2.422222099999999,0.16913579999982176,517.6997490000003,517.6997601000003,None,517.7149919000003,517.7149919000003,517.7149919000003,,,,,,,,,,,,,,00028,001,2025-11-14_19h03.32.428,MST_task,2024.2.2,59.999592002723574,2025-11-14 19h03.37.478925 +0530,
,Objects\143a.jpg,113,0,113,,,,,,,j,1.3459241000000475,0.15088219999961439,None,,,,,,,113,0,113,0,517.7149919000003,,,,,,,,,,,,,,,,,,,,,,,517.6998137999999,517.7149919000003,518.2150116000003,518.1984715999997,,,,,,,,,,,,,,,,,,,,,,,,,,518.2060855999998,518.2150116000003,518.2150116000003,518.2150116000003,521.1987000999998,indoor,j,1.3459241000000475,0.15088219999961439,521.1987367000002,521.1987459000002,None,521.2148981,521.2148981,521.2148981,,,,,,,,,,,,,,00028,001,2025-11-14_19h03.32.428,MST_task,2024.2.2,59.999592002723574,2025-11-14 19h03.37.478925 +0530,
,Objects\233a.jpg,114,0,114,,,,,,,j,1.6609017000000676,0.1768729000004896,None,,,,,,,114,0,114,0,521.2148981,,,,,,,,,,,,,,,,,,,,,,,521.1988022000005,521.2148981,521.7149184999998,521.6984775000001,,,,,,,,,,,,,,,,,,,,,,,,,,521.7085233999996,521.7149184999998,521.7149184999998,521.7149184999998,524.6983939000002,indoor,j,1.6609017000000676,0.1768729000004896,524.6984302000001,524.6984387000002,None,524.7148625,524.7148625,524.7148625,,,,,,,,,,,,,,00028,001,2025-11-14_19h03.32.428,MST_task,2024.2.2,59.999592002723574,2025-11-14 19h03.37.478925 +0530,
,Objects\183a.jpg,115,0,115,,,,,,,f,1.4294245999999475,0.1519762999996601,None,,,,,,,115,0,115,0,524.7148625,,,,,,,,,,,,,,,,,,,,,,,524.6984911,524.7148625,525.2148365000003,525.1983442999999,,,,,,,,,,,,,,,,,,,,,,,,,,525.2091201000003,525.2148365000003,525.2148365000003,525.2148365000003,528.1984684999998,indoor,f,1.4294245999999475,0.1519762999996601,528.1985096999997,528.1985188999997,None,528.2147937,528.2147937,528.2147937,,,,,,,,,,,,,,00028,001,2025-11-14_19h03.32.428,MST_task,2024.2.2,59.999592002723574,2025-11-14 19h03.37.478925 +0530,
,Objects\126a.jpg,116,0,116,,,,,,,f,2.1722129999998288,0.18949739999970916,None,,,,,,,116,0,116,0,528.2147937,,,,,,,,,,,,,,,,,,,,,,,528.1985758999999,528.2147937,528.7147882999998,528.6982655000002,,,,,,,,,,,,,,,,,,,,,,,,,,528.7060303999997,528.7147882999998,528.7147882999998,528.7147882999998,531.6984420999997,indoor,f,2.1722129999998288,0.18949739999970916,531.6984776999998,531.6984862999998,None,531.7147353999999,531.7147353999999,531.7147353999999,,,,,,,,,,,,,,00028,001,2025-11-14_19h03.32.428,MST_task,2024.2.2,59.999592002723574,2025-11-14 19h03.37.478925 +0530,
,Objects\080a.jpg,117,0,117,,,,,,,f,1.2595532000004823,0.16874779999943712,None,,,,,,,117,0,117,0,531.7147353999999,,,,,,,,,,,,,,,,,,,,,,,531.6985383000001,531.7147353999999,532.2146675000004,532.1983270999999,,,,,,,,,,,,,,,,,,,,,,,,,,532.2056783999997,532.2146675000004,532.2146675000004,532.2146675000004,535.1982751000005,indoor,f,1.2595532000004823,0.16874779999943712,535.1983092999999,535.1983177000002,None,535.2146598999998,535.2146598999998,535.2146598999998,,,,,,,,,,,,,,00028,001,2025-11-14_19h03.32.428,MST_task,2024.2.2,59.999592002723574,2025-11-14 19h03.37.478925 +0530,
,Objects\167a.jpg,118,0,118,,,,,,,f,2.3243603000000803,0.20120159999987663,None,,,,,,,118,0,118,0,535.2146598999998,,,,,,,,,,,,,,,,,,,,,,,535.1983697000005,535.2146598999998,535.7146124000001,535.6981377000002,,,,,,,,,,,,,,,,,,,,,,,,,,535.7057885000004,535.7146124000001,535.7146124000001,535.7146124000001,538.6980783999998,indoor,f,2.3243603000000803,0.20120159999987663,538.6981137000002,538.6981226999997,None,538.7144896999998,538.7144896999998,538.7144896999998,,,,,,,,,,,,,,00028,001,2025-11-14_19h03.32.428,MST_task,2024.2.2,59.999592002723574,2025-11-14 19h03.37.478925 +0530,
,Objects\185a.jpg,119,0,119,,,,,,,f,1.9944847999995545,0.18565610000041488,None,,,,,,,119,0,119,0,538.7144896999998,,,,,,,,,,,,,,,,,,,,,,,538.6981747999998,538.7144896999998,539.2144533999999,539.1979505999998,,,,,,,,,,,,,,,,,,,,,,,,,,539.2074259999999,539.2144533999999,539.2144533999999,539.2144533999999,542.1981679,shoe,f,1.9944847999995545,0.18565610000041488,542.1996950000002,542.1997070999996,None,542.2144230000004,542.2144230000004,542.2144230000004,,,,,,,,,,,,,,00028,001,2025-11-14_19h03.32.428,MST_task,2024.2.2,59.999592002723574,2025-11-14 19h03.37.478925 +0530,
,Objects\328a.jpg,120,0,120,,,,,,,f,1.1140922000004139,0.18194339999990916,None,,,,,,,120,0,120,0,542.2144230000004,,,,,,,,,,,,,,,,,,,,,,,542.1997923999998,542.2144230000004,542.7143791999997,542.6979509000003,,,,,,,,,,,,,,,,,,,,,,,,,,542.7056012000003,542.7143791999997,542.7143791999997,542.7143791999997,545.6979526000005,shoe,f,1.1140922000004139,0.18194339999990916,545.6979842999999,545.6979928999999,None,545.7143477,545.7143477,545.7143477,,,,,,,,,,,,,,00028,001,2025-11-14_19h03.32.428,MST_task,2024.2.2,59.999592002723574,2025-11-14 19h03.37.478925 +0530,
,Objects\243a.jpg,121,0,121,,,,,,,f,1.1232624999993277,0.18181640000057087,None,,,,,,,121,0,121,0,545.7143477,,,,,,,,,,,,,,,,,,,,,,,545.6980438,545.7143477,546.2143032000004,546.1978678000005,,,,,,,,,,,,,,,,,,,,,,,,,,546.2083025000002,546.2143032000004,546.2143032000004,546.2143032000004,549.1978676999997,shoe,f,1.1232624999993277,0.18181640000057087,549.1979043000001,549.1979141000002,None,549.2142746999998,549.2142746999998,549.2142746999998,,,,,,,,,,,,,,00028,001,2025-11-14_19h03.32.428,MST_task,2024.2.2,59.999592002723574,2025-11-14 19h03.37.478925 +0530,
,Objects\208a.jpg,122,0,122,,,,,,,f,1.6879333000006227,0.22361819999969157,None,,,,,,,122,0,122,0,549.2142746999998,,,,,,,,,,,,,,,,,,,,,,,549.1979683,549.2142746999998,549.7142229000001,549.6978184,,,,,,,,,,,,,,,,,,,,,,,,,,549.7072322000004,549.7142229000001,549.7142229000001,549.7142229000001,552.6979216,shoe,f,1.6879333000006227,0.22361819999969157,552.6979569000005,552.6979661000005,None,552.7142093000002,552.7142093000002,552.7142093000002,,,,,,,,,,,,,,00028,001,2025-11-14_19h03.32.428,MST_task,2024.2.2,59.999592002723574,2025-11-14 19h03.37.478925 +0530,
,Objects\221a.jpg,123,0,123,,,,,,,j,1.580914600000142,0.1900099999993472,None,,,,,,,123,0,123,0,552.7142093000002,,,,,,,,,,,,,,,,,,,,,,,552.6980192000001,552.7142093000002,553.2141555999997,553.1977653000004,,,,,,,,,,,,,,,,,,,,,,,,,,553.2089446999998,553.2141555999997,553.2141555999997,553.2141555999997,556.1977684000003,shoe,j,1.580914600000142,0.1900099999993472,556.1978053000003,556.1978147,None,556.2141449000001,556.2141449000001,556.2141449000001,,,,,,,,,,,,,,00028,001,2025-11-14_19h03.32.428,MST_task,2024.2.2,59.999592002723574,2025-11-14 19h03.37.478925 +0530,
,Objects\346a.jpg,124,0,124,,,,,,,j,0.917734599999676,0.16373340000063763,None,,,,,,,124,0,124,0,556.2141449000001,,,,,,,,,,,,,,,,,,,,,,,556.1978669999999,556.2141449000001,556.7307770999996,556.6975800999999,,,,,,,,,,,,,,,,,,,,,,,,,,556.7096300000003,556.7307770999996,556.7307770999996,556.7307770999996,559.7141160000001,shoe,j,0.917734599999676,0.16373340000063763,559.7141520000005,559.7141615999999,None,,,,,,,,,,,,,,,,,00028,001,2025-11-14_19h03.32.428,MST_task,2024.2.2,59.999592002723574,2025-11-14 19h03.37.478925 +0530,
,Objects\336a.jpg,125,0,125,,,,,,,f,0.8232093999995413,0.1618573000005199,None,,,,,,,125,0,125,0,559.7307238000003,,,,,,,,,,,,,,,,,,,,,,,559.7142463999999,559.7307238000003,560.2473539000002,560.2143016,,,,,,,,,,,,,,,,,,,,,,,,,,560.2264451000001,560.2473539000002,560.2473539000002,560.2473539000002,563.2306705000001,shoe,f,0.8232093999995413,0.1618573000005199,563.2307219000004,563.2307315999997,None,,,,,,,,,,,,,,,,,00028,001,2025-11-14_19h03.32.428,MST_task,2024.2.2,59.999592002723574,2025-11-14 19h03.37.478925 +0530,
,Objects\049a.jpg,126,0,126,,,,,,,f,1.58477590000075,0.17017789999954402,None,,,,,,,126,0,126,0,563.2472981999999,,,,,,,,,,,,,,,,,,,,,,,563.2307897000001,563.2472981999999,563.7639151000003,563.7307792000001,,,,,,,,,,,,,,,,,,,,,,,,,,563.7425228000002,563.7639151000003,563.7639151000003,563.7639151000003,566.7472401000005,indoor,f,1.58477590000075,0.17017789999954402,566.7483627000001,566.7483745,None,,,,,,,,,,,,,,,,,00028,001,2025-11-14_19h03.32.428,MST_task,2024.2.2,59.999592002723574,2025-11-14 19h03.37.478925 +0530,
,Objects\023a.jpg,127,0,127,,,,,,,f,1.4510496000002604,0.1862890000002153,None,,,,,,,127,0,127,0,566.7639896999999,,,,,,,,,,,,,,,,,,,,,,,566.7484284000002,566.7639896999999,567.2638448999996,567.2474395999998,,,,,,,,,,,,,,,,,,,,,,,,,,567.2546345000001,567.2638448999996,567.2638448999996,567.2638448999996,570.2475132,indoor,f,1.4510496000002604,0.1862890000002153,570.2475482999998,570.2475569999997,None,570.2638147999996,570.2638147999996,570.2638147999996,,,,,,,,,,,,,,00028,001,2025-11-14_19h03.32.428,MST_task,2024.2.2,59.999592002723574,2025-11-14 19h03.37.478925 +0530,
,Objects\068a.jpg,128,0,128,,,,,,,j,1.11271300000044,0.13169529999959195,None,,,,,,,128,0,128,0,570.2638147999996,,,,,,,,,,,,,,,,,,,,,,,570.2476115999998,570.2638147999996,570.7637706000005,570.7473135,,,,,,,,,,,,,,,,,,,,,,,,,,570.7548660000002,570.7637706000005,570.7637706000005,570.7637706000005,573.7474324000004,indoor,j,1.11271300000044,0.13169529999959195,573.7474719000002,573.7474819999998,None,573.7637333000002,573.7637333000002,573.7637333000002,,,,,,,,,,,,,,00028,001,2025-11-14_19h03.32.428,MST_task,2024.2.2,59.999592002723574,2025-11-14 19h03.37.478925 +0530,
,Objects\135a.jpg,129,0,129,,,,,,,j,0.9761177000000316,0.19760310000037862,None,,,,,,,129,0,129,0,573.7637333000002,,,,,,,,,,,,,,,,,,,,,,,573.7475406000003,573.7637333000002,574.2803965000003,574.2472344999996,,,,,,,,,,,,,,,,,,,,,,,,,,574.2638327000004,574.2803965000003,574.2803965000003,574.2803965000003,577.2636721999997,indoor,j,0.9761177000000316,0.19760310000037862,577.2637064999999,577.2637161000002,None,,,,,,,,,,,,,,,,,00028,001,2025-11-14_19h03.32.428,MST_task,2024.2.2,59.999592002723574,2025-11-14 19h03.37.478925 +0530,
,Objects\009a.jpg,130,0,130,,,,,,,f,0.9791549999999916,0.18162260000008246,None,,,,,,,130,0,130,0,577.2803333000002,,,,,,,,,,,,,,,,,,,,,,,577.2637715000001,577.2803333000002,577.7802849999998,577.7638956999999,,,,,,,,,,,,,,,,,,,,,,,,,,577.7714735999998,577.7802849999998,577.7802849999998,577.7802849999998,580.7638313999996,indoor,f,0.9791549999999916,0.18162260000008246,580.7638653000004,580.7638741000001,None,580.7802517,580.7802517,580.7802517,,,,,,,,,,,,,,00028,001,2025-11-14_19h03.32.428,MST_task,2024.2.2,59.999592002723574,2025-11-14 19h03.37.478925 +0530,
,Objects\382a.jpg,131,0,131,,,,,,,j,1.624451599999702,0.13549570000031963,None,,,,,,,131,0,131,0,580.7802517,,,,,,,,,,,,,,,,,,,,,,,580.7639281000002,580.7802517,581.2802105000001,581.2638626999997,,,,,,,,,,,,,,,,,,,,,,,,,,581.2746632999997,581.2802105000001,581.2802105000001,581.2802105000001,584.2638420000003,indoor,j,1.624451599999702,0.13549570000031963,584.2638784999999,584.2638870999999,None,584.2801967000005,584.2801967000005,584.2801967000005,,,,,,,,,,,,,,00028,001,2025-11-14_19h03.32.428,MST_task,2024.2.2,59.999592002723574,2025-11-14 19h03.37.478925 +0530,
,Objects\138a.jpg,132,0,132,,,,,,,j,0.6764373000005435,0.14613939999981085,None,,,,,,,132,0,132,0,584.2801967000005,,,,,,,,,,,,,,,,,,,,,,,584.2639379000002,584.2801967000005,584.7801356999998,584.7636491000003,,,,,,,,,,,,,,,,,,,,,,,,,,584.7743126000005,584.7801356999998,584.7801356999998,584.7801356999998,587.7636475999998,indoor,j,0.6764373000005435,0.14613939999981085,587.7636794,587.7636879000001,None,587.7801251999999,587.7801251999999,587.7801251999999,,,,,,,,,,,,,,00028,001,2025-11-14_19h03.32.428,MST_task,2024.2.2,59.999592002723574,2025-11-14 19h03.37.478925 +0530,
,Objects\234a.jpg,133,0,133,,,,,,,j,1.2640455999999176,0.17053559999931167,None,,,,,,,133,0,133,0,587.7801251999999,,,,,,,,,,,,,,,,,,,,,,,587.7637408,587.7801251999999,588.2801028000003,588.2637162000001,,,,,,,,,,,,,,,,,,,,,,,,,,588.2732169999999,588.2801028000003,588.2801028000003,588.2801028000003,591.2636860000002,shoe,j,1.2640455999999176,0.17053559999931167,591.2652036999998,591.2652152000001,None,591.2800365000003,591.2800365000003,591.2800365000003,,,,,,,,,,,,,,00028,001,2025-11-14_19h03.32.428,MST_task,2024.2.2,59.999592002723574,2025-11-14 19h03.37.478925 +0530,
,Objects\229a.jpg,134,0,134,,,,,,,f,0.9804858999996213,0.19981300000017654,None,,,,,,,134,0,134,0,591.2800365000003,,,,,,,,,,,,,,,,,,,,,,,591.2652684000004,591.2800365000003,591.7800052000002,591.7636554000001,,,,,,,,,,,,,,,,,,,,,,,,,,591.7747449999997,591.7800052000002,591.7800052000002,591.7800052000002,594.7636150999997,shoe,f,0.9804858999996213,0.19981300000017654,594.7636497000003,594.7636586999997,None,594.7799587999998,594.7799587999998,594.7799587999998,,,,,,,,,,,,,,00028,001,2025-11-14_19h03.32.428,MST_task,2024.2.2,59.999592002723574,2025-11-14 19h03.37.478925 +0530,
,Objects\172a.jpg,135,0,135,,,,,,,j,1.3469121999996787,0.19343300000036834,None,,,,,,,135,0,135,0,594.7799587999998,,,,,,,,,,,,,,,,,,,,,,,594.7637160000004,594.7799587999998,595.2799774000005,595.2634859,,,,,,,,,,,,,,,,,,,,,,,,,,595.2745129000004,595.2799774000005,595.2799774000005,595.2799774000005,598.2634189,shoe,j,1.3469121999996787,0.19343300000036834,598.2634545999999,598.2634635000004,None,598.2798902000004,598.2798902000004,598.2798902000004,,,,,,,,,,,,,,00028,001,2025-11-14_19h03.32.428,MST_task,2024.2.2,59.999592002723574,2025-11-14 19h03.37.478925 +0530,
,Objects\264a.jpg,136,0,136,,,,,,,f,0.8364503000002514,0.15866170000026614,None,,,,,,,136,0,136,0,598.2798902000004,,,,,,,,,,,,,,,,,,,,,,,598.2635430999999,598.2798902000004,598.7798867000001,598.7634988999998,,,,,,,,,,,,,,,,,,,,,,,,,,598.7735767000004,598.7798867000001,598.7798867000001,598.7798867000001,601.7633607999996,shoe,f,0.8364503000002514,0.15866170000026614,601.7633916000004,601.7634005999998,None,601.7798075999999,601.7798075999999,601.7798075999999,,,,,,,,,,,,,,00028,001,2025-11-14_19h03.32.428,MST_task,2024.2.2,59.999592002723574,2025-11-14 19h03.37.478925 +0530,
,Objects\270a.jpg,137,0,137,,,,,,,j,1.0685977000002822,0.20365940000010596,None,,,,,,,137,0,137,0,601.7798075999999,,,,,,,,,,,,,,,,,,,,,,,601.7634508000001,601.7798075999999,602.2798150999997,602.2633167000004,,,,,,,,,,,,,,,,,,,,,,,,,,602.2728382000005,602.2798150999997,602.2798150999997,602.2798150999997,605.2632961999998,shoe,j,1.0685977000002822,0.20365940000010596,605.2633293999997,605.2633378999999,None,605.2797324000003,605.2797324000003,605.2797324000003,,,,,,,,,,,,,,00028,001,2025-11-14_19h03.32.428,MST_task,2024.2.2,59.999592002723574,2025-11-14 19h03.37.478925 +0530,
,Objects\082a.jpg,138,0,138,,,,,,,j,1.5169452000000092,0.15823630000068079,None,,,,,,,138,0,138,0,605.2797324000003,,,,,,,,,,,,,,,,,,,,,,,605.2633893000002,605.2797324000003,605.7797520000004,605.7632810000005,,,,,,,,,,,,,,,,,,,,,,,,,,605.7730981000004,605.7797520000004,605.7797520000004,605.7797520000004,608.7633711999997,shoe,j,1.5169452000000092,0.15823630000068079,608.7634078000001,608.7634168000004,None,608.7796783000003,608.7796783000003,608.7796783000003,,,,,,,,,,,,,,00028,001,2025-11-14_19h03.32.428,MST_task,2024.2.2,59.999592002723574,2025-11-14 19h03.37.478925 +0530,
,Objects\001a.jpg,139,0,139,,,,,,,f,2.5030501999999615,0.16186520000064775,None,,,,,,,139,0,139,0,608.7796783000003,,,,,,,,,,,,,,,,,,,,,,,608.7635016000004,608.7796783000003,609.2796494000004,609.2631916,,,,,,,,,,,,,,,,,,,,,,,,,,609.2708171000004,609.2796494000004,609.2796494000004,609.2796494000004,612.2632427999997,shoe,f,2.5030501999999615,0.16186520000064775,612.2632749000004,612.2632838,None,612.2795767999996,612.2795767999996,612.2795767999996,,,,,,,,,,,,,,00028,001,2025-11-14_19h03.32.428,MST_task,2024.2.2,59.999592002723574,2025-11-14 19h03.37.478925 +0530,
,Objects\334a.jpg,140,0,140,,,,,,,f,1.4430522000002384,0.1320040999999037,None,,,,,,,140,0,140,0,612.2795767999996,,,,,,,,,,,,,,,,,,,,,,,612.2633357000004,612.2795767999996,612.7795796,612.7631492999999,,,,,,,,,,,,,,,,,,,,,,,,,,612.7716272999996,612.7795796,612.7795796,612.7795796,615.7630409000003,indoor,f,1.4430522000002384,0.1320040999999037,615.7642019000004,615.7642139,None,615.7795355999997,615.7795355999997,615.7795355999997,,,,,,,,,,,,,,00028,001,2025-11-14_19h03.32.428,MST_task,2024.2.2,59.999592002723574,2025-11-14 19h03.37.478925 +0530,
,Objects\295a.jpg,141,0,141,,,,,,,j,2.6426352999997107,0.19014530000004015,None,,,,,,,141,0,141,0,615.7795355999997,,,,,,,,,,,,,,,,,,,,,,,615.7642687999996,615.7795355999997,616.2961204000003,616.2630046000004,,,,,,,,,,,,,,,,,,,,,,,,,,616.2739572,616.2961204000003,616.2961204000003,616.2961204000003,619.2794488,indoor,j,2.6426352999997107,0.19014530000004015,619.2794954999999,619.2795053999998,None,,,,,,,,,,,,,,,,,00028,001,2025-11-14_19h03.32.428,MST_task,2024.2.2,59.999592002723574,2025-11-14 19h03.37.478925 +0530,
,Objects\108a.jpg,142,0,142,,,,,,,j,0.9875331999992341,0.1327900000005684,None,,,,,,,142,0,142,0,619.2960914000005,,,,,,,,,,,,,,,,,,,,,,,619.2795597000004,619.2960914000005,619.8127125999999,619.7796503999998,,,,,,,,,,,,,,,,,,,,,,,,,,619.7921292000001,619.8127125999999,619.8127125999999,619.8127125999999,622.7961254000002,indoor,j,0.9875331999992341,0.1327900000005684,622.7961765,622.7961875000001,None,,,,,,,,,,,,,,,,,00028,001,2025-11-14_19h03.32.428,MST_task,2024.2.2,59.999592002723574,2025-11-14 19h03.37.478925 +0530,
,Objects\218a.jpg,143,0,143,,,,,,,j,2.2964845999995305,0.15883230000054027,None,,,,,,,143,0,143,0,622.8126898,,,,,,,,,,,,,,,,,,,,,,,622.7962610000004,622.8126898,623.3122596000003,623.296147,,,,,,,,,,,,,,,,,,,,,,,,,,623.3075249000003,623.3122596000003,623.3122596000003,623.3122596000003,626.2961218999999,indoor,j,2.2964845999995305,0.15883230000054027,626.2961556,626.2961647000002,None,626.3126201000005,626.3126201000005,626.3126201000005,,,,,,,,,,,,,,00028,001,2025-11-14_19h03.32.428,MST_task,2024.2.2,59.999592002723574,2025-11-14 19h03.37.478925 +0530,
,Objects\053a.jpg,144,0,144,,,,,,,f,0.8101713000005475,0.19845799999984592,None,,,,,,,144,0,144,0,626.3126201000005,,,,,,,,,,,,,,,,,,,,,,,626.2962225000001,626.3126201000005,626.8121797000003,626.7961599999999,,,,,,,,,,,,,,,,,,,,,,,,,,626.8070447,626.8121797000003,626.8121797000003,626.8121797000003,629.7961183999996,indoor,f,0.8101713000005475,0.19845799999984592,629.7961543000001,629.7961646000003,None,629.8125338999998,629.8125338999998,629.8125338999998,,,,,,,,,,,,,,00028,001,2025-11-14_19h03.32.428,MST_task,2024.2.2,59.999592002723574,2025-11-14 19h03.37.478925 +0530,
,Objects\372a.jpg,145,0,145,,,,,,,j,1.103643500000544,0.1984628000000157,None,,,,,,,145,0,145,0,629.8125338999998,,,,,,,,,,,,,,,,,,,,,,,629.7962189999998,629.8125338999998,630.3124975000001,630.2961022,,,,,,,,,,,,,,,,,,,,,,,,,,630.3066587000003,630.3124975000001,630.3124975000001,630.3124975000001,633.2961232999996,indoor,j,1.103643500000544,0.1984628000000157,633.2961616000002,633.2961716999998,None,633.3124569000001,633.3124569000001,633.3124569000001,,,,,,,,,,,,,,00028,001,2025-11-14_19h03.32.428,MST_task,2024.2.2,59.999592002723574,2025-11-14 19h03.37.478925 +0530,
,Objects\078a.jpg,146,0,146,,,,,,,j,1.2520947999992131,0.1685739000004105,None,,,,,,,146,0,146,0,633.3124569000001,,,,,,,,,,,,,,,,,,,,,,,633.2962275,633.3124569000001,633.8120316000004,633.7959897000001,,,,,,,,,,,,,,,,,,,,,,,,,,633.8069321000003,633.8120316000004,633.8120316000004,633.8120316000004,636.7960143999999,indoor,j,1.2520947999992131,0.1685739000004105,636.7960480000002,636.7960568999997,None,636.8123790999998,636.8123790999998,636.8123790999998,,,,,,,,,,,,,,00028,001,2025-11-14_19h03.32.428,MST_task,2024.2.2,59.999592002723574,2025-11-14 19h03.37.478925 +0530,
,Objects\129a.jpg,147,0,147,,,,,,,f,0.9663070000005973,0.17406889999983832,None,,,,,,,147,0,147,0,636.8123790999998,,,,,,,,,,,,,,,,,,,,,,,636.7961078999997,636.8123790999998,637.3119635000003,637.2958225000002,,,,,,,,,,,,,,,,,,,,,,,,,,637.3052526000001,637.3119635000003,637.3119635000003,637.3119635000003,640.2962128999998,shoe,f,0.9663070000005973,0.17406889999983832,640.2977094999997,640.2977214000002,None,640.3122716999997,640.3122716999997,640.3122716999997,,,,,,,,,,,,,,00028,001,2025-11-14_19h03.32.428,MST_task,2024.2.2,59.999592002723574,2025-11-14 19h03.37.478925 +0530,
,Objects\195a.jpg,148,0,148,,,,,,,j,1.8359893000006196,0.11457219999920198,None,,,,,,,148,0,148,0,640.3122716999997,,,,,,,,,,,,,,,,,,,,,,,640.2978019000002,640.3122716999997,640.8122659999999,640.7958299000002,,,,,,,,,,,,,,,,,,,,,,,,,,640.8065385,640.8122659999999,640.8122659999999,640.8122659999999,643.7958298000003,shoe,j,1.8359893000006196,0.11457219999920198,643.795865,643.7958740000004,None,643.8121953,643.8121953,643.8121953,,,,,,,,,,,,,,00028,001,2025-11-14_19h03.32.428,MST_task,2024.2.2,59.999592002723574,2025-11-14 19h03.37.478925 +0530,
,Objects\259a.jpg,149,0,149,,,,,,,f,2.1317700999998124,0.169787499999984,None,,,,,,,149,0,149,0,643.8121953,,,,,,,,,,,,,,,,,,,,,,,643.7959277,643.8121953,644.3288352,644.2956848000003,,,,,,,,,,,,,,,,,,,,,,,,,,644.3078574000001,644.3288352,644.3288352,644.3288352,647.3121535,shoe,f,2.1317700999998124,0.169787499999984,647.3121891999999,647.3121991999997,None,,,,,,,,,,,,,,,,,00028,001,2025-11-14_19h03.32.428,MST_task,2024.2.2,59.999592002723574,2025-11-14 19h03.37.478925 +0530,
,Objects\058a.jpg,150,0,150,,,,,,,f,2.2776450000001205,0.15883130000020174,None,,,,,,,150,0,150,0,647.3288250000005,,,,,,,,,,,,,,,,,,,,,,,647.3122586999998,647.3288250000005,647.8454365999996,647.8124249000002,,,,,,,,,,,,,,,,,,,,,,,,,,647.8233565999999,647.8454365999996,647.8454365999996,647.8454365999996,650.8287517999997,shoe,f,2.2776450000001205,0.15883130000020174,650.8287878000001,650.8287972999997,None,,,,,,,,,,,,,,,,,00028,001,2025-11-14_19h03.32.428,MST_task,2024.2.2,59.999592002723574,2025-11-14 19h03.37.478925 +0530,
,Objects\046a.jpg,151,0,151,,,,,,,f,2.1888324000001376,0.1618793999996342,None,,,,,,,151,0,151,0,650.8454103000004,,,,,,,,,,,,,,,,,,,,,,,650.8288531999997,650.8454103000004,651.3454038,651.3288957000004,,,,,,,,,,,,,,,,,,,,,,,,,,651.3364197999999,651.3454038,651.3454038,651.3454038,654.3288699000004,shoe,f,2.1888324000001376,0.1618793999996342,654.3289028999998,654.3289125000001,None,654.3453354000003,654.3453354000003,654.3453354000003,,,,,,,,,,,,,,00028,001,2025-11-14_19h03.32.428,MST_task,2024.2.2,59.999592002723574,2025-11-14 19h03.37.478925 +0530,
,Objects\319a.jpg,152,0,152,,,,,,,f,1.0399047000000792,0.17366089999995893,None,,,,,,,152,0,152,0,654.3453354000003,,,,,,,,,,,,,,,,,,,,,,,654.3289654999999,654.3453354000003,654.8449151000004,654.8289505000002,,,,,,,,,,,,,,,,,,,,,,,,,,654.8391774000002,654.8449151000004,654.8449151000004,654.8449151000004,657.8289092000005,shoe,f,1.0399047000000792,0.17366089999995893,657.8289433,657.8289513,None,657.8452614999997,657.8452614999997,657.8452614999997,,,,,,,,,,,,,,00028,001,2025-11-14_19h03.32.428,MST_task,2024.2.2,59.999592002723574,2025-11-14 19h03.37.478925 +0530,
,Objects\210a.jpg,153,0,153,,,,,,,f,0.6959116999996695,0.1970867999998518,None,,,,,,,153,0,153,0,657.8452614999997,,,,,,,,,,,,,,,,,,,,,,,657.8290373,657.8452614999997,658.3451997000002,658.3287428000003,,,,,,,,,,,,,,,,,,,,,,,,,,658.3389355999998,658.3451997000002,658.3451997000002,658.3451997000002,661.3287406,shoe,f,0.6959116999996695,0.1970867999998518,661.3287779000002,661.3287876000004,None,661.3452051000004,661.3452051000004,661.3452051000004,,,,,,,,,,,,,,00028,001,2025-11-14_19h03.32.428,MST_task,2024.2.2,59.999592002723574,2025-11-14 19h03.37.478925 +0530,
,Objects\340a.jpg,154,0,154,,,,,,,f,1.5296971999996458,0.1861666000004334,None,,,,,,,154,0,154,0,661.3452051000004,,,,,,,,,,,,,,,,,,,,,,,661.3288519999996,661.3452051000004,661.8451445999999,661.8287146000002,,,,,,,,,,,,,,,,,,,,,,,,,,661.8397974,661.8451445999999,661.8451445999999,661.8451445999999,664.8286791,indoor,f,1.5296971999996458,0.1861666000004334,664.8297981000005,664.8298095999999,None,664.8450724000004,664.8450724000004,664.8450724000004,,,,,,,,,,,,,,00028,001,2025-11-14_19h03.32.428,MST_task,2024.2.2,59.999592002723574,2025-11-14 19h03.37.478925 +0530,
,Objects\044a.jpg,155,0,155,,,,,,,j,1.0941246000002138,0.18757389999973384,None,,,,,,,155,0,155,0,664.8450724000004,,,,,,,,,,,,,,,,,,,,,,,664.8298634000002,664.8450724000004,665.3450648999997,665.3285162000002,,,,,,,,,,,,,,,,,,,,,,,,,,665.3386615,665.3450648999997,665.3450648999997,665.3450648999997,668.3287391000003,indoor,j,1.0941246000002138,0.18757389999973384,668.3287751999997,668.3287843999997,None,668.3449966999997,668.3449966999997,668.3449966999997,,,,,,,,,,,,,,00028,001,2025-11-14_19h03.32.428,MST_task,2024.2.2,59.999592002723574,2025-11-14 19h03.37.478925 +0530,
,Objects\134a.jpg,156,0,156,,,,,,,j,1.2479313999992883,0.14542880000044534,None,,,,,,,156,0,156,0,668.3449966999997,,,,,,,,,,,,,,,,,,,,,,,668.3288430000002,668.3449966999997,668.8450235999999,668.8285646000004,,,,,,,,,,,,,,,,,,,,,,,,,,668.8358783000003,668.8450235999999,668.8450235999999,668.8450235999999,671.8285840999997,indoor,j,1.2479313999992883,0.14542880000044534,671.8286245999998,671.8286343,None,671.8449209999999,671.8449209999999,671.8449209999999,,,,,,,,,,,,,,00028,001,2025-11-14_19h03.32.428,MST_task,2024.2.2,59.999592002723574,2025-11-14 19h03.37.478925 +0530,
,Objects\223a.jpg,157,0,157,,,,,,,j,0.9051334999994651,0.21844120000059775,None,,,,,,,157,0,157,0,671.8449209999999,,,,,,,,,,,,,,,,,,,,,,,671.8286897999997,671.8449209999999,672.3449185,672.3284645000003,,,,,,,,,,,,,,,,,,,,,,,,,,672.3360056000001,672.3449185,672.3449185,672.3449185,675.3284487999999,indoor,j,0.9051334999994651,0.21844120000059775,675.3284818000002,675.3284904000002,None,675.3448508000001,675.3448508000001,675.3448508000001,,,,,,,,,,,,,,00028,001,2025-11-14_19h03.32.428,MST_task,2024.2.2,59.999592002723574,2025-11-14 19h03.37.478925 +0530,
,Objects\084a.jpg,158,0,158,,,,,,,f,0.9796931999999288,0.19799280000006547,None,,,,,,,158,0,158,0,675.3448508000001,,,,,,,,,,,,,,,,,,,,,,,675.3285472999996,675.3448508000001,675.8448730999999,675.8284716999997,,,,,,,,,,,,,,,,,,,,,,,,,,675.8361575999998,675.8448730999999,675.8448730999999,675.8448730999999,678.8284744000002,indoor,f,0.9796931999999288,0.19799280000006547,678.8285096999998,678.8285187000001,None,678.8447993999998,678.8447993999998,678.8447993999998,,,,,,,,,,,,,,00028,001,2025-11-14_19h03.32.428,MST_task,2024.2.2,59.999592002723574,2025-11-14 19h03.37.478925 +0530,
