Sl_no,image_path,thisN,thisTrialN,thisRepN,key_resp_5.keys,key_resp_7.keys,key_resp_7.rt,key_resp_7.duration,key_resp_9.keys,key_resp_9.rt,key_resp_9.duration,key_resp_8.keys,key_resp_8.rt,key_resp_8.duration,practice.thisRepN,practice.thisTrialN,practice.thisN,practice.thisIndex,trials.thisRepN,trials.thisTrialN,trials.thisN,trials.thisIndex,thisRow.t,notes,welcome_page.started,text.started,key_resp.started,welcome_page.stopped,key_resp.keys,key_resp.rt,key_resp.duration,instructions.started,ins.started,key_resp_2.started,instructions.stopped,key_resp_2.keys,key_resp_2.rt,key_resp_2.duration,objects_only_instruction.started,text_3.started,key_resp_3.started,objects_only_instruction.stopped,key_resp_3.keys,key_resp_3.rt,key_resp_3.duration,ISI.started,text_4.started,text_4.stopped,ISI.stopped,practice_block.started,image.started,key_resp_5.started,text_5.started,image.stopped,key_resp_5.stopped,text_5.stopped,practice_block.stopped,practice.key_resp_5.keys,indoor_outdoor.started,text_7.started,key_resp_7.started,indoor_outdoor.stopped,practice.key_resp_7.keys,practice.key_resp_7.rt,practice.key_resp_7.duration,practice_to_main.started,text_2.started,key_resp_4.started,practice_to_main.stopped,key_resp_4.keys,key_resp_4.rt,key_resp_4.duration,objects.started,image_2.started,text_9.started,key_resp_9.started,image_2.stopped,text_9.stopped,key_resp_9.stopped,objects.stopped,category,trials.key_resp_9.keys,trials.key_resp_9.rt,trials.key_resp_9.duration,encoding_task.started,encoding_task.stopped,trials.key_resp_8.keys,text_8.started,key_resp_8.started,trials.key_resp_8.rt,trials.key_resp_8.duration,end_experiment.started,text_6.started,key_resp_6.started,end_experiment.stopped,key_resp_6.keys,key_resp_6.rt,key_resp_6.duration,list_of_stimuli,encoding_task_accuracy,participant,session,date,expName,psychopyVersion,frameRate,expStart,
,,,,,,,,,,,,,,,,,,,,,,,,,0.008209299994632602,0.02479519999178592,0.02479519999178592,18.959252100001322,space,18.920260999992024,None,,,,,,,,,,,,,,,,,,,,,,,,,,,,,,,,,,,,,,,,,,,,,,,,,,,,,,,,,,,,,,,,,,,,,,00024,001,2025-11-09_18h45.42.464,MST_task,2024.2.2,60.00762097000655,2025-11-09 18h45.47.149530 +0530,
,,,,,,,,,,,,,,,,,,,,,,,,,,,,,,,,18.959284999989904,18.974441400001524,18.974441400001524,43.507480899992515,space,24.518586699996376,None,,,,,,,,,,,,,,,,,,,,,,,,,,,,,,,,,,,,,,,,,,,,,,,,,,,,,,,,,,,,,,,00024,001,2025-11-09_18h45.42.464,MST_task,2024.2.2,60.00762097000655,2025-11-09 18h45.47.149530 +0530,
,,,,,,,,,,,,,,,,,,,,,,,,,,,,,,,,,,,,,,,43.507512700001826,43.52382659999421,43.52382659999421,58.20720619999338,space,14.682294699989143,None,,,,,,,,,,,,,,,,,,,,,,,,,,,,,,,,,,,,,,,,,,,,,,,,,,,,,,,,00024,001,2025-11-09_18h45.42.464,MST_task,2024.2.2,60.00762097000655,2025-11-09 18h45.47.149530 +0530,
7,practice_images/166a.jpg,0,0,0,None,j,5.82910119999724,None,,,,,,,0,0,0,6,,,,,58.22351929999422,,,,,,,,,,,,,,,,,,,,,,,58.21325819999038,58.22351929999422,58.72349249999388,58.707027099997504,58.71351400000276,58.72349249999388,58.72349249999388,58.72349249999388,61.72346480000124,61.72346480000124,61.72346480000124,61.70710549999785,None,61.708215399994515,61.72346480000124,61.72346480000124,67.55704689999402,j,5.82910119999724,None,,,,,,,,,,,,,,,,,,,,,,,,,,,,,,,,,,,,00024,001,2025-11-09_18h45.42.464,MST_task,2024.2.2,60.00762097000655,2025-11-09 18h45.47.149530 +0530,
4,practice_images/002b.jpg,1,1,0,None,j,3.3902653999975882,None,,,,,,,0,1,1,3,,,,,67.57332650000171,,,,,,,,,,,,,,,,,,,,,,,67.55714059999445,67.57332650000171,68.07328119999147,68.0568373999995,68.05842889999622,68.07328119999147,68.07328119999147,68.07328119999147,71.07325479999417,71.07325479999417,71.07325479999417,71.05677670000296,None,71.05680789999315,71.07325479999417,71.07325479999417,74.47354009999253,j,3.3902653999975882,None,,,,,,,,,,,,,,,,,,,,,,,,,,,,,,,,,,,,00024,001,2025-11-09_18h45.42.464,MST_task,2024.2.2,60.00762097000655,2025-11-09 18h45.47.149530 +0530,
3,practice_images/037a.jpg,2,2,0,None,f,2.229325599997537,None,,,,,,,0,2,2,2,,,,,74.48984239999845,,,,,,,,,,,,,,,,,,,,,,,74.47362289999728,74.48984239999845,74.989831400002,74.97332869999809,74.97464030000265,74.989831400002,74.989831400002,74.989831400002,77.98983900000167,77.98983900000167,77.98983900000167,77.9733156000002,None,77.97334699999192,77.98983900000167,77.98983900000167,80.22346559999278,f,2.229325599997537,None,,,,,,,,,,,,,,,,,,,,,,,,,,,,,,,,,,,,00024,001,2025-11-09_18h45.42.464,MST_task,2024.2.2,60.00762097000655,2025-11-09 18h45.47.149530 +0530,
5,practice_images/139a.jpg,3,3,0,None,j,2.915391100003035,None,,,,,,,0,3,3,4,,,,,80.23970330000157,,,,,,,,,,,,,,,,,,,,,,,80.22353699999803,80.23970330000157,80.7396960999904,80.72324569999182,80.72450139999273,80.7396960999904,80.7396960999904,80.7396960999904,83.73964449999039,83.73964449999039,83.73964449999039,83.72317820000171,None,83.72320969999419,83.73964449999039,83.73964449999039,86.65663009999844,j,2.915391100003035,None,,,,,,,,,,,,,,,,,,,,,,,,,,,,,,,,,,,,00024,001,2025-11-09_18h45.42.464,MST_task,2024.2.2,60.00762097000655,2025-11-09 18h45.47.149530 +0530,
2,practice_images/031a.jpg,4,4,0,None,f,2.408751700000721,None,,,,,,,0,4,4,1,,,,,86.67291470000055,,,,,,,,,,,,,,,,,,,,,,,86.65670710000268,86.67291470000055,87.1728759999969,87.1564817000035,87.15783309999097,87.1728759999969,87.1728759999969,87.1728759999969,90.17283349999343,90.17283349999343,90.17283349999343,90.15631069999654,None,90.1563438000012,90.17283349999343,90.17283349999343,92.5897862999991,f,2.408751700000721,None,,,,,,,,,,,,,,,,,,,,,,,,,,,,,,,,,,,,00024,001,2025-11-09_18h45.42.464,MST_task,2024.2.2,60.00762097000655,2025-11-09 18h45.47.149530 +0530,
9,practice_images/180a.jpg,5,5,0,None,j,1.4994487000076333,None,,,,,,,0,5,5,8,,,,,92.60611849999987,,,,,,,,,,,,,,,,,,,,,,,92.58987060000072,92.60611849999987,93.10607019999588,93.08965989999706,93.09301779999805,93.10607019999588,93.10607019999588,93.10607019999588,96.10606429999461,96.10606429999461,96.10606429999461,96.08960079999815,None,96.09112329999334,96.10606429999461,96.10606429999461,97.60630030000175,j,1.4994487000076333,None,,,,,,,,,,,,,,,,,,,,,,,,,,,,,,,,,,,,00024,001,2025-11-09_18h45.42.464,MST_task,2024.2.2,60.00762097000655,2025-11-09 18h45.47.149530 +0530,
6,practice_images/158a.jpg,6,6,0,None,j,4.5259781000058865,None,,,,,,,0,6,6,5,,,,,97.62267630000133,,,,,,,,,,,,,,,,,,,,,,,97.60637399999541,97.62267630000133,98.12265879999904,98.10621060000267,98.10748700000113,98.12265879999904,98.12265879999904,98.12265879999904,101.12262199999532,101.12262199999532,101.12262199999532,101.10612029999902,None,101.10615589999361,101.12262199999532,101.12262199999532,105.65613170000142,j,4.5259781000058865,None,,,,,,,,,,,,,,,,,,,,,,,,,,,,,,,,,,,,00024,001,2025-11-09_18h45.42.464,MST_task,2024.2.2,60.00762097000655,2025-11-09 18h45.47.149530 +0530,
8,practice_images/178a.jpg,7,7,0,None,f,2.4842805999942357,None,,,,,,,0,7,7,7,,,,,105.67250200000126,,,,,,,,,,,,,,,,,,,,,,,105.65620450000279,105.67250200000126,106.17248660000041,106.1559913999954,106.15739839999878,106.17248660000041,106.17248660000041,106.17248660000041,109.17242029999034,109.17242029999034,109.17242029999034,109.15609589999076,None,109.15612919999694,109.17242029999034,109.17242029999034,111.6727283999935,f,2.4842805999942357,None,,,,,,,,,,,,,,,,,,,,,,,,,,,,,,,,,,,,00024,001,2025-11-09_18h45.42.464,MST_task,2024.2.2,60.00762097000655,2025-11-09 18h45.47.149530 +0530,
10,practice_images/182a.jpg,8,8,0,None,f,2.4218938999983948,None,,,,,,,0,8,8,9,,,,,111.6890274999896,,,,,,,,,,,,,,,,,,,,,,,111.67279739999503,111.6890274999896,112.18902589999198,112.17274599999655,112.17402510000102,112.18902589999198,112.18902589999198,112.18902589999198,115.18895539999357,115.18895539999357,115.18895539999357,115.17241970000032,None,115.17245009999897,115.18895539999357,115.18895539999357,117.6226367999916,f,2.4218938999983948,None,,,,,,,,,,,,,,,,,,,,,,,,,,,,,,,,,,,,00024,001,2025-11-09_18h45.42.464,MST_task,2024.2.2,60.00762097000655,2025-11-09 18h45.47.149530 +0530,
1,practice_images/013a.jpg,9,9,0,None,j,1.1158387000032235,None,,,,,,,0,9,9,0,,,,,117.63890730000276,,,,,,,,,,,,,,,,,,,,,,,117.62271759999567,117.63890730000276,118.13885859999573,118.12247019998904,118.1238175999897,118.13885859999573,118.13885859999573,118.13885859999573,121.13882189999276,121.13882189999276,121.13882189999276,121.1223600999947,None,121.12238709999656,121.13882189999276,121.13882189999276,122.25587809999706,j,1.1158387000032235,None,,,,,,,,,,,,,,,,,,,,,,,,,,,,,,,,,,,,00024,001,2025-11-09_18h45.42.464,MST_task,2024.2.2,60.00762097000655,2025-11-09 18h45.47.149530 +0530,
,,,,,,,,,,,,,,,,,,,,,,,,,,,,,,,,,,,,,,,,,,,,,,,,,,,,,,,,,,,,,,,,,,122.25593089999165,122.27213749999646,122.27213749999646,188.22121190000325,space,65.9470694999909,None,,,,,,,,,,,,,,,,,,,,,,,,,,,,,00024,001,2025-11-09_18h45.42.464,MST_task,2024.2.2,60.00762097000655,2025-11-09 18h45.47.149530 +0530,
,Objects\217a.jpg,0,0,0,,,,,f,1.4592604999925243,0.15774470000178553,None,,,,,,,0,0,0,0,188.23743809999723,,,,,,,,,,,,,,,,,,,,,,,188.2220027000003,188.23743809999723,188.73759969999082,188.72090899999603,,,,,,,,,,,,,,,,,,,,,,,,188.7281937999942,188.73759969999082,188.73759969999082,188.73759969999082,191.737255,191.737255,191.737255,191.7208607999928,indoor,f,1.4592604999925243,0.15774470000178553,191.72205039999972,191.72206289999303,None,,,,,,,,,,,,,,00024,001,2025-11-09_18h45.42.464,MST_task,2024.2.2,60.00762097000655,2025-11-09 18h45.47.149530 +0530,
,Objects\302a.jpg,1,0,1,,,,,f,1.9282753000006778,0.16946699999971315,None,,,,,,,1,0,1,0,191.737255,,,,,,,,,,,,,,,,,,,,,,,191.72211580000294,191.737255,192.23748070000147,192.22077179999906,,,,,,,,,,,,,,,,,,,,,,,,192.22593439999036,192.23748070000147,192.23748070000147,192.23748070000147,195.23721379999188,195.23721379999188,195.23721379999188,195.22081709999475,indoor,f,1.9282753000006778,0.16946699999971315,195.22085589999915,195.22086499999568,None,,,,,,,,,,,,,,00024,001,2025-11-09_18h45.42.464,MST_task,2024.2.2,60.00762097000655,2025-11-09 18h45.47.149530 +0530,
,Objects\049a.jpg,2,0,2,,,,,None,,,j,2.5843785000033677,None,,,,,2,0,2,0,195.23721379999188,,,,,,,,,,,,,,,,,,,,,,,195.22092300000077,195.23721379999188,195.7371667999978,195.72074119999888,,,,,,,,,,,,,,,,,,,,,,,,195.72591049999755,195.7371667999978,195.7371667999978,195.7371667999978,198.73714559999644,198.73714559999644,198.73714559999644,198.72067759999481,indoor,None,,,198.7207086999988,201.337346100001,j,198.73714559999644,198.73714559999644,2.5843785000033677,None,,,,,,,,,,00024,001,2025-11-09_18h45.42.464,MST_task,2024.2.2,60.00762097000655,2025-11-09 18h45.47.149530 +0530,
,Objects\122a.jpg,3,0,3,,,,,None,,,f,0.1530979999952251,None,,,,,3,0,3,0,201.35377940000035,,,,,,,,,,,,,,,,,,,,,,,201.33742509999138,201.35377940000035,201.85372509999434,201.83720969999558,,,,,,,,,,,,,,,,,,,,,,,,201.8481243999995,201.85372509999434,201.85372509999434,201.85372509999434,204.85369959998934,204.85369959998934,204.85369959998934,204.8372659000015,indoor,None,,,204.83730439998908,205.02061310000136,f,204.85369959998934,204.85369959998934,0.1530979999952251,None,,,,,,,,,,00024,001,2025-11-09_18h45.42.464,MST_task,2024.2.2,60.00762097000655,2025-11-09 18h45.47.149530 +0530,
,Objects\372a.jpg,4,0,4,,,,,None,,,j,0.025900199994794093,None,,,,,4,0,4,0,205.03699909998977,,,,,,,,,,,,,,,,,,,,,,,205.02067630000238,205.03699909998977,205.5370011999912,205.5206058999902,,,,,,,,,,,,,,,,,,,,,,,,205.5262725999928,205.5370011999912,205.5370011999912,205.5370011999912,208.53693259999272,208.53693259999272,208.53693259999272,208.52048059999652,indoor,None,,,208.52051489999576,208.57052079999994,j,208.53693259999272,208.53693259999272,0.025900199994794093,None,,,,,,,,,,00024,001,2025-11-09_18h45.42.464,MST_task,2024.2.2,60.00762097000655,2025-11-09 18h45.47.149530 +0530,
,Objects\020a.jpg,5,0,5,,,,,j,1.6343715000111843,0.14290079999773297,None,,,,,,,5,0,5,0,208.58692529999826,,,,,,,,,,,,,,,,,,,,,,,208.57058329999563,208.58692529999826,209.0868860999908,209.0703738000011,,,,,,,,,,,,,,,,,,,,,,,,209.07570529999794,209.0868860999908,209.0868860999908,209.0868860999908,212.0868485999963,212.0868485999963,212.0868485999963,212.0704274000018,indoor,j,1.6343715000111843,0.14290079999773297,212.07046289999562,212.07047439999587,None,,,,,,,,,,,,,,00024,001,2025-11-09_18h45.42.464,MST_task,2024.2.2,60.00762097000655,2025-11-09 18h45.47.149530 +0530,
,Objects\022a.jpg,6,0,6,,,,,f,1.8097446000028867,0.1684868999873288,None,,,,,,,6,0,6,0,212.0868485999963,,,,,,,,,,,,,,,,,,,,,,,212.0705267000012,212.0868485999963,212.58679790000315,212.57046599999012,,,,,,,,,,,,,,,,,,,,,,,,212.57957819999137,212.58679790000315,212.58679790000315,212.58679790000315,215.58676769999147,215.58676769999147,215.58676769999147,215.5705098000035,indoor,f,1.8097446000028867,0.1684868999873288,215.57054800000333,215.57055629999377,None,,,,,,,,,,,,,,00024,001,2025-11-09_18h45.42.464,MST_task,2024.2.2,60.00762097000655,2025-11-09 18h45.47.149530 +0530,
,Objects\063a.jpg,7,0,7,,,,,f,2.5479406000085874,0.18646450000233017,None,,,,,,,7,0,7,0,215.58676769999147,,,,,,,,,,,,,,,,,,,,,,,215.5706119999959,215.58676769999147,216.08672359999036,216.07033019998926,,,,,,,,,,,,,,,,,,,,,,,,216.0746763999923,216.08672359999036,216.08672359999036,216.08672359999036,219.08669369999552,219.08669369999552,219.08669369999552,219.07024549999915,shoe,f,2.5479406000085874,0.18646450000233017,219.07172569999238,219.0717372999934,None,,,,,,,,,,,,,,00024,001,2025-11-09_18h45.42.464,MST_task,2024.2.2,60.00762097000655,2025-11-09 18h45.47.149530 +0530,
,Objects\337a.jpg,8,0,8,,,,,None,,,f,1.4223057000053814,None,,,,,8,0,8,0,219.08669369999552,,,,,,,,,,,,,,,,,,,,,,,219.07181449999916,219.08669369999552,219.5866682999913,219.5701740999939,,,,,,,,,,,,,,,,,,,,,,,,219.58120919999783,219.5866682999913,219.5866682999913,219.5866682999913,222.58661929999653,222.58661929999653,222.58661929999653,222.57019719999516,shoe,None,,,222.57022919999145,224.0202403000003,f,222.58661929999653,222.58661929999653,1.4223057000053814,None,,,,,,,,,,00024,001,2025-11-09_18h45.42.464,MST_task,2024.2.2,60.00762097000655,2025-11-09 18h45.47.149530 +0530,
,Objects\094a.jpg,9,0,9,,,,,f,2.3925982999935513,0.14226520000374876,None,,,,,,,9,0,9,0,224.036603799992,,,,,,,,,,,,,,,,,,,,,,,224.02031320000242,224.036603799992,224.5365568999987,224.52006349999283,,,,,,,,,,,,,,,,,,,,,,,,224.53110130000277,224.5365568999987,224.5365568999987,224.5365568999987,227.5364808000013,227.5364808000013,227.5364808000013,227.52005700000154,shoe,f,2.3925982999935513,0.14226520000374876,227.5200926999969,227.5201015999919,None,,,,,,,,,,,,,,00024,001,2025-11-09_18h45.42.464,MST_task,2024.2.2,60.00762097000655,2025-11-09 18h45.47.149530 +0530,
,Objects\058a.jpg,10,0,10,,,,,None,,,f,1.2466432999935932,None,,,,,10,0,10,0,227.5364808000013,,,,,,,,,,,,,,,,,,,,,,,227.52018779999344,227.5364808000013,228.0365310999914,228.01997769999434,,,,,,,,,,,,,,,,,,,,,,,,228.02206719999958,228.0365310999914,228.0365310999914,228.0365310999914,231.03643300000113,231.03643300000113,231.03643300000113,231.01998099999037,shoe,None,,,231.02001789999485,232.28679329999432,f,231.03643300000113,231.03643300000113,1.2466432999935932,None,,,,,,,,,,00024,001,2025-11-09_18h45.42.464,MST_task,2024.2.2,60.00762097000655,2025-11-09 18h45.47.149530 +0530,
,Objects\188a.jpg,11,0,11,,,,,f,1.9115340000134893,0.17668829999456648,None,,,,,,,11,0,11,0,232.3030807999894,,,,,,,,,,,,,,,,,,,,,,,232.28686529998959,232.3030807999894,232.8030335999938,232.78653969999868,,,,,,,,,,,,,,,,,,,,,,,,232.7886920000019,232.8030335999938,232.8030335999938,232.8030335999938,235.80300269999134,235.80300269999134,235.80300269999134,235.78659679999691,shoe,f,1.9115340000134893,0.17668829999456648,235.78663259999303,235.7866412000003,None,,,,,,,,,,,,,,00024,001,2025-11-09_18h45.42.464,MST_task,2024.2.2,60.00762097000655,2025-11-09 18h45.47.149530 +0530,
,Objects\091a.jpg,12,0,12,,,,,j,2.748059799996554,0.11062720000336412,None,,,,,,,12,0,12,0,235.80300269999134,,,,,,,,,,,,,,,,,,,,,,,235.7867217000021,235.80300269999134,236.3029521999997,236.28655039999285,,,,,,,,,,,,,,,,,,,,,,,,236.2943161000003,236.3029521999997,236.3029521999997,236.3029521999997,239.3029119999992,239.3029119999992,239.3029119999992,239.28647130000172,shoe,j,2.748059799996554,0.11062720000336412,239.28651049999462,239.28651890000037,None,,,,,,,,,,,,,,00024,001,2025-11-09_18h45.42.464,MST_task,2024.2.2,60.00762097000655,2025-11-09 18h45.47.149530 +0530,
,Objects\068a.jpg,13,0,13,,,,,None,,,j,19.145400199995493,None,,,,,13,0,13,0,239.3029119999992,,,,,,,,,,,,,,,,,,,,,,,239.28659839999455,239.3029119999992,239.80288180000207,239.786477799993,,,,,,,,,,,,,,,,,,,,,,,,239.78850670000247,239.80288180000207,239.80288180000207,239.80288180000207,242.80285100000037,242.80285100000037,242.80285100000037,242.78643439999723,shoe,None,,,242.7864724999963,261.952715899999,j,242.80285100000037,242.80285100000037,19.145400199995493,None,,,,,,,,,,00024,001,2025-11-09_18h45.42.464,MST_task,2024.2.2,60.00762097000655,2025-11-09 18h45.47.149530 +0530,
,Objects\211a.jpg,14,0,14,,,,,None,,,f,1.5737938999955077,None,,,,,14,0,14,0,261.969099199996,,,,,,,,,,,,,,,,,,,,,,,261.9528022000013,261.969099199996,262.4690555999987,262.4525774999929,,,,,,,,,,,,,,,,,,,,,,,,262.4586710000003,262.4690555999987,262.4690555999987,262.4690555999987,265.469022499994,265.469022499994,265.469022499994,265.45260920000146,indoor,None,,,265.45376849999593,267.0527183999948,f,265.469022499994,265.469022499994,1.5737938999955077,None,,,,,,,,,,00024,001,2025-11-09_18h45.42.464,MST_task,2024.2.2,60.00762097000655,2025-11-09 18h45.47.149530 +0530,
,Objects\270a.jpg,15,0,15,,,,,j,1.8297206999995979,0.15057610000076238,None,,,,,,,15,0,15,0,267.0689852999931,,,,,,,,,,,,,,,,,,,,,,,267.0527895999985,267.0689852999931,267.56894509999256,267.5525168000022,,,,,,,,,,,,,,,,,,,,,,,,267.5561750999914,267.56894509999256,267.56894509999256,267.56894509999256,270.56891929999983,270.56891929999983,270.56891929999983,270.5524948999955,indoor,j,1.8297206999995979,0.15057610000076238,270.55253619998985,270.5525456000032,None,,,,,,,,,,,,,,00024,001,2025-11-09_18h45.42.464,MST_task,2024.2.2,60.00762097000655,2025-11-09 18h45.47.149530 +0530,
,Objects\353a.jpg,16,0,16,,,,,f,1.1649193999910494,0.1282472000020789,None,,,,,,,16,0,16,0,270.56891929999983,,,,,,,,,,,,,,,,,,,,,,,270.5526009000023,270.56891929999983,271.068494799998,271.05244559999846,,,,,,,,,,,,,,,,,,,,,,,,271.0641856000002,271.068494799998,271.068494799998,271.068494799998,274.06883459999517,274.06883459999517,274.06883459999517,274.05249360000016,indoor,f,1.1649193999910494,0.1282472000020789,274.0525297999993,274.05253800000355,None,,,,,,,,,,,,,,00024,001,2025-11-09_18h45.42.464,MST_task,2024.2.2,60.00762097000655,2025-11-09 18h45.47.149530 +0530,
,Objects\134a.jpg,17,0,17,,,,,j,1.23674910000409,0.13445680000586435,None,,,,,,,17,0,17,0,274.06883459999517,,,,,,,,,,,,,,,,,,,,,,,274.0525908999989,274.06883459999517,274.58549050000147,274.5523162000027,,,,,,,,,,,,,,,,,,,,,,,,274.5646742999961,274.58549050000147,274.58549050000147,274.58549050000147,,,,277.5688381999935,indoor,j,1.23674910000409,0.13445680000586435,277.56887629999255,277.56888549998985,None,,,,,,,,,,,,,,00024,001,2025-11-09_18h45.42.464,MST_task,2024.2.2,60.00762097000655,2025-11-09 18h45.47.149530 +0530,
,Objects\246a.jpg,18,0,18,,,,,f,2.5676734000007855,0.18562429999292362,None,,,,,,,18,0,18,0,277.585456300003,,,,,,,,,,,,,,,,,,,,,,,277.5689451999933,277.585456300003,278.0853808999964,278.06891269999323,,,,,,,,,,,,,,,,,,,,,,,,278.07083939999575,278.0853808999964,278.0853808999964,278.0853808999964,281.0853466999979,281.0853466999979,281.0853466999979,281.0688957999955,indoor,f,2.5676734000007855,0.18562429999292362,281.0689304999978,281.06893899998977,None,,,,,,,,,,,,,,00024,001,2025-11-09_18h45.42.464,MST_task,2024.2.2,60.00762097000655,2025-11-09 18h45.47.149530 +0530,
,Objects\336a.jpg,19,0,19,,,,,f,1.3753295999922557,0.1661452999978792,None,,,,,,,19,0,19,0,281.0853466999979,,,,,,,,,,,,,,,,,,,,,,,281.06899259999045,281.0853466999979,281.5853102999972,281.5689141999901,,,,,,,,,,,,,,,,,,,,,,,,281.5799738999922,281.5853102999972,281.5853102999972,281.5853102999972,284.5852782000002,284.5852782000002,284.5852782000002,284.56890369999746,indoor,f,1.3753295999922557,0.1661452999978792,284.56893929999205,284.5689473999955,None,,,,,,,,,,,,,,00024,001,2025-11-09_18h45.42.464,MST_task,2024.2.2,60.00762097000655,2025-11-09 18h45.47.149530 +0530,
,Objects\042a.jpg,20,0,20,,,,,j,2.001507099994342,0.14179150000563823,None,,,,,,,20,0,20,0,284.5852782000002,,,,,,,,,,,,,,,,,,,,,,,284.56900170000154,284.5852782000002,285.0852251000033,285.0687787999923,,,,,,,,,,,,,,,,,,,,,,,,285.07406319999427,285.0852251000033,285.0852251000033,285.0852251000033,288.0851917999971,288.0851917999971,288.0851917999971,288.06878770000185,indoor,j,2.001507099994342,0.14179150000563823,288.0688264999917,288.06883469999593,None,,,,,,,,,,,,,,00024,001,2025-11-09_18h45.42.464,MST_task,2024.2.2,60.00762097000655,2025-11-09 18h45.47.149530 +0530,
,Objects\332a.jpg,21,0,21,,,,,None,,,j,0.020848000000114553,None,,,,,21,0,21,0,288.0851917999971,,,,,,,,,,,,,,,,,,,,,,,288.06888789999357,288.0851917999971,288.6018261999998,288.5687399000017,,,,,,,,,,,,,,,,,,,,,,,,288.58105019999493,288.6018261999998,288.6018261999998,288.6018261999998,,,,291.5851429000031,shoe,None,,,291.58676409999316,291.6354551999975,j,291.6017559000029,291.6017559000029,0.020848000000114553,None,,,,,,,,,,00024,001,2025-11-09_18h45.42.464,MST_task,2024.2.2,60.00762097000655,2025-11-09 18h45.47.149530 +0530,
,Objects\093a.jpg,22,0,22,,,,,j,2.5788966000109212,0.15435019999858923,None,,,,,,,22,0,22,0,291.6517868999945,,,,,,,,,,,,,,,,,,,,,,,291.6355157999933,291.6517868999945,292.1517388999928,292.135297300003,,,,,,,,,,,,,,,,,,,,,,,,292.14048419999017,292.1517388999928,292.1517388999928,292.1517388999928,295.15169980000064,295.15169980000064,295.15169980000064,295.13527579999936,shoe,j,2.5788966000109212,0.15435019999858923,295.13531559999683,295.1353243999911,None,,,,,,,,,,,,,,00024,001,2025-11-09_18h45.42.464,MST_task,2024.2.2,60.00762097000655,2025-11-09 18h45.47.149530 +0530,
,Objects\036a.jpg,23,0,23,,,,,f,2.042477900002268,0.15903439999965485,None,,,,,,,23,0,23,0,295.15169980000064,,,,,,,,,,,,,,,,,,,,,,,295.13537760000327,295.15169980000064,295.65166579998913,295.6351789999899,,,,,,,,,,,,,,,,,,,,,,,,295.64322269998956,295.65166579998913,295.65166579998913,295.65166579998913,298.6516053999949,298.6516053999949,298.6516053999949,298.635268500002,shoe,f,2.042477900002268,0.15903439999965485,298.6353067000018,298.635315099993,None,,,,,,,,,,,,,,00024,001,2025-11-09_18h45.42.464,MST_task,2024.2.2,60.00762097000655,2025-11-09 18h45.47.149530 +0530,
,Objects\189a.jpg,24,0,24,,,,,j,0.8436936999933096,0.12801490000856575,None,,,,,,,24,0,24,0,298.6516053999949,,,,,,,,,,,,,,,,,,,,,,,298.6353667999938,298.6516053999949,299.15159290000156,299.1351020000002,,,,,,,,,,,,,,,,,,,,,,,,299.13728729999275,299.15159290000156,299.15159290000156,299.15159290000156,302.1515705999918,302.1515705999918,302.1515705999918,302.1351515999995,shoe,j,0.8436936999933096,0.12801490000856575,302.13519099999394,302.1351999000035,None,,,,,,,,,,,,,,00024,001,2025-11-09_18h45.42.464,MST_task,2024.2.2,60.00762097000655,2025-11-09 18h45.47.149530 +0530,
,Objects\263a.jpg,25,0,25,,,,,None,,,j,4.483850800010259,None,,,,,25,0,25,0,302.1515705999918,,,,,,,,,,,,,,,,,,,,,,,302.1352860999905,302.1515705999918,302.6515164000011,302.6350284999935,,,,,,,,,,,,,,,,,,,,,,,,302.64057609999145,302.6515164000011,302.6515164000011,302.6515164000011,305.65148089999275,305.65148089999275,305.65148089999275,305.63505070000247,shoe,None,,,305.6350850000017,310.1516449999908,j,305.65148089999275,305.65148089999275,4.483850800010259,None,,,,,,,,,,00024,001,2025-11-09_18h45.42.464,MST_task,2024.2.2,60.00762097000655,2025-11-09 18h45.47.149530 +0530,
,Objects\371a.jpg,26,0,26,,,,,j,1.2391057000058936,0.16606179998780135,None,,,,,,,26,0,26,0,310.1680114999908,,,,,,,,,,,,,,,,,,,,,,,310.1517480999901,310.1680114999908,310.66800609999336,310.65151630000037,,,,,,,,,,,,,,,,,,,,,,,,310.66201049998926,310.66800609999336,310.66800609999336,310.66800609999336,313.6679757999955,313.6679757999955,313.6679757999955,313.65153659999487,shoe,j,1.2391057000058936,0.16606179998780135,313.65157909999834,313.6515883999964,None,,,,,,,,,,,,,,00024,001,2025-11-09_18h45.42.464,MST_task,2024.2.2,60.00762097000655,2025-11-09 18h45.47.149530 +0530,
,Objects\232a.jpg,27,0,27,,,,,None,,,j,6.011556600002223,None,,,,,27,0,27,0,313.6679757999955,,,,,,,,,,,,,,,,,,,,,,,313.65167459999793,313.6679757999955,314.1679252999893,314.15149689999816,,,,,,,,,,,,,,,,,,,,,,,,314.1568041999999,314.1679252999893,314.1679252999893,314.1679252999893,317.1678907000023,317.1678907000023,317.1678907000023,317.1514850999956,shoe,None,,,317.1515180999995,323.1848333999951,j,317.1678907000023,317.1678907000023,6.011556600002223,None,,,,,,,,,,00024,001,2025-11-09_18h45.42.464,MST_task,2024.2.2,60.00762097000655,2025-11-09 18h45.47.149530 +0530,
,Objects\021a.jpg,28,0,28,,,,,None,,,j,3.0263757999928202,None,,,,,28,0,28,0,323.2011276999983,,,,,,,,,,,,,,,,,,,,,,,323.18492099999276,323.2011276999983,323.70105489999696,323.68454180000117,,,,,,,,,,,,,,,,,,,,,,,,323.6907918999932,323.70105489999696,323.70105489999696,323.70105489999696,326.7009895999945,326.7009895999945,326.7009895999945,326.6846016999916,indoor,None,,,326.6857611000014,329.7346436999942,j,326.7009895999945,326.7009895999945,3.0263757999928202,None,,,,,,,,,,00024,001,2025-11-09_18h45.42.464,MST_task,2024.2.2,60.00762097000655,2025-11-09 18h45.47.149530 +0530,
,Objects\328a.jpg,29,0,29,,,,,f,0.8617188000062015,0.1787893000000622,None,,,,,,,29,0,29,0,329.7509624999948,,,,,,,,,,,,,,,,,,,,,,,329.7347221999953,329.7509624999948,330.25091799999063,330.2345367999951,,,,,,,,,,,,,,,,,,,,,,,,330.23656109999865,330.25091799999063,330.25091799999063,330.25091799999063,333.25087579998944,333.25087579998944,333.25087579998944,333.23442019999493,indoor,f,0.8617188000062015,0.1787893000000622,333.23446120000153,333.23447029999807,None,,,,,,,,,,,,,,00024,001,2025-11-09_18h45.42.464,MST_task,2024.2.2,60.00762097000655,2025-11-09 18h45.47.149530 +0530,
,Objects\029a.jpg,30,0,30,,,,,None,,,f,1.4978696999896783,None,,,,,30,0,30,0,333.25087579998944,,,,,,,,,,,,,,,,,,,,,,,333.234527099994,333.25087579998944,333.75085850000323,333.734389499994,,,,,,,,,,,,,,,,,,,,,,,,333.7363634999929,333.75085850000323,333.75085850000323,333.75085850000323,336.75080219999654,336.75080219999654,336.75080219999654,336.7343636000005,indoor,None,,,336.7344000000012,338.251116200001,f,336.75080219999654,336.75080219999654,1.4978696999896783,None,,,,,,,,,,00024,001,2025-11-09_18h45.42.464,MST_task,2024.2.2,60.00762097000655,2025-11-09 18h45.47.149530 +0530,
,Objects\143a.jpg,31,0,31,,,,,None,,,j,2.352033000002848,None,,,,,31,0,31,0,338.26743599999463,,,,,,,,,,,,,,,,,,,,,,,338.2511877999932,338.26743599999463,338.767397299991,338.7509333999915,,,,,,,,,,,,,,,,,,,,,,,,338.75326179999684,338.767397299991,338.767397299991,338.767397299991,341.7673606000026,341.7673606000026,341.7673606000026,341.7509408999904,indoor,None,,,341.75097670000105,344.13424879999366,j,341.7673606000026,341.7673606000026,2.352033000002848,None,,,,,,,,,,00024,001,2025-11-09_18h45.42.464,MST_task,2024.2.2,60.00762097000655,2025-11-09 18h45.47.149530 +0530,
,Objects\290a.jpg,32,0,32,,,,,j,1.1424058999982662,0.1459259999974165,None,,,,,,,32,0,32,0,344.1506306999945,,,,,,,,,,,,,,,,,,,,,,,344.1343302000023,344.1506306999945,344.6506328999967,344.6342016999988,,,,,,,,,,,,,,,,,,,,,,,,344.6392882999935,344.6506328999967,344.6506328999967,344.6506328999967,347.6505671999912,347.6505671999912,347.6505671999912,347.6340945999982,indoor,j,1.1424058999982662,0.1459259999974165,347.63413910000236,347.6341481999989,None,,,,,,,,,,,,,,00024,001,2025-11-09_18h45.42.464,MST_task,2024.2.2,60.00762097000655,2025-11-09 18h45.47.149530 +0530,
,Objects\280a.jpg,33,0,33,,,,,None,,,j,0.056646099998033606,None,,,,,33,0,33,0,347.6505671999912,,,,,,,,,,,,,,,,,,,,,,,347.6342069999955,347.6505671999912,348.1505795999983,348.1340701000008,,,,,,,,,,,,,,,,,,,,,,,,348.13928089999536,348.1505795999983,348.1505795999983,348.1505795999983,351.1504891999939,351.1504891999939,351.1504891999939,351.1340168000024,indoor,None,,,351.1340485999972,351.2175355999934,j,351.1504891999939,351.1504891999939,0.056646099998033606,None,,,,,,,,,,00024,001,2025-11-09_18h45.42.464,MST_task,2024.2.2,60.00762097000655,2025-11-09 18h45.47.149530 +0530,
,Objects\081a.jpg,34,0,34,,,,,f,1.4555275000020629,0.19758809999621008,None,,,,,,,34,0,34,0,351.2337891999923,,,,,,,,,,,,,,,,,,,,,,,351.2176002999913,351.2337891999923,351.73378019999654,351.7173160999955,,,,,,,,,,,,,,,,,,,,,,,,351.7194931999984,351.73378019999654,351.73378019999654,351.73378019999654,354.7337244999944,354.7337244999944,354.7337244999944,354.7173333999963,indoor,f,1.4555275000020629,0.19758809999621008,354.7173708999908,354.71737949999806,None,,,,,,,,,,,,,,00024,001,2025-11-09_18h45.42.464,MST_task,2024.2.2,60.00762097000655,2025-11-09 18h45.47.149530 +0530,
,Objects\165a.jpg,35,0,35,,,,,f,1.871189500001492,0.21022989999619313,None,,,,,,,35,0,35,0,354.7337244999944,,,,,,,,,,,,,,,,,,,,,,,354.7174318999896,354.7337244999944,355.2337084000028,355.2172156000015,,,,,,,,,,,,,,,,,,,,,,,,355.22095960000297,355.2337084000028,355.2337084000028,355.2337084000028,358.2336728999944,358.2336728999944,358.2336728999944,358.21744559999206,shoe,f,1.871189500001492,0.21022989999619313,358.21898910000164,358.21900040000037,None,,,,,,,,,,,,,,00024,001,2025-11-09_18h45.42.464,MST_task,2024.2.2,60.00762097000655,2025-11-09 18h45.47.149530 +0530,
,Objects\273a.jpg,36,0,36,,,,,j,0.8609830000059446,0.17440079999505542,None,,,,,,,36,0,36,0,358.2336728999944,,,,,,,,,,,,,,,,,,,,,,,358.21908059999987,358.2336728999944,358.7336646999902,358.71717380000337,,,,,,,,,,,,,,,,,,,,,,,,358.7193813999911,358.7336646999902,358.7336646999902,358.7336646999902,361.7336241000012,361.7336241000012,361.7336241000012,361.7171663999907,shoe,j,0.8609830000059446,0.17440079999505542,361.7172050999943,361.71721360000083,None,,,,,,,,,,,,,,00024,001,2025-11-09_18h45.42.464,MST_task,2024.2.2,60.00762097000655,2025-11-09 18h45.47.149530 +0530,
,Objects\015a.jpg,37,0,37,,,,,f,1.4296716000098968,0.1819227999949362,None,,,,,,,37,0,37,0,361.7336241000012,,,,,,,,,,,,,,,,,,,,,,,361.7172683999961,361.7336241000012,362.23356039999635,362.21712669999397,,,,,,,,,,,,,,,,,,,,,,,,362.219397199995,362.23356039999635,362.23356039999635,362.23356039999635,365.23353149999457,365.23353149999457,365.23353149999457,365.21704599999066,shoe,f,1.4296716000098968,0.1819227999949362,365.21711269998923,365.2171219000011,None,,,,,,,,,,,,,,00024,001,2025-11-09_18h45.42.464,MST_task,2024.2.2,60.00762097000655,2025-11-09 18h45.47.149530 +0530,
,Objects\203a.jpg,38,0,38,,,,,None,,,j,4.199829100005445,None,,,,,38,0,38,0,365.23353149999457,,,,,,,,,,,,,,,,,,,,,,,365.21720800000185,365.23353149999457,365.73348650000116,365.7170589000016,,,,,,,,,,,,,,,,,,,,,,,,365.7239169999957,365.73348650000116,365.73348650000116,365.73348650000116,368.73344460000226,368.73344460000226,368.73344460000226,368.71702070000174,shoe,None,,,368.71705209999345,372.93381390000286,j,368.73344460000226,368.73344460000226,4.199829100005445,None,,,,,,,,,,00024,001,2025-11-09_18h45.42.464,MST_task,2024.2.2,60.00762097000655,2025-11-09 18h45.47.149530 +0530,
,Objects\023a.jpg,39,0,39,,,,,f,0.868703899992397,0.15454650000901893,None,,,,,,,39,0,39,0,372.950036299997,,,,,,,,,,,,,,,,,,,,,,,372.9338882000011,372.950036299997,373.45000789999904,373.4335063999897,,,,,,,,,,,,,,,,,,,,,,,,373.43863999999303,373.45000789999904,373.45000789999904,373.45000789999904,376.4499469000002,376.4499469000002,376.4499469000002,376.4334993999946,shoe,f,0.868703899992397,0.15454650000901893,376.4335369999899,376.43354559999716,None,,,,,,,,,,,,,,00024,001,2025-11-09_18h45.42.464,MST_task,2024.2.2,60.00762097000655,2025-11-09 18h45.47.149530 +0530,
,Objects\056a.jpg,40,0,40,,,,,None,,,f,1.1207963000051677,None,,,,,40,0,40,0,376.4499469000002,,,,,,,,,,,,,,,,,,,,,,,376.43359839999175,376.4499469000002,376.94989930000156,376.93347289999656,,,,,,,,,,,,,,,,,,,,,,,,376.9356159000017,376.94989930000156,376.94989930000156,376.94989930000156,379.9498661999969,379.9498661999969,379.9498661999969,379.93344739999156,shoe,None,,,379.93348189999233,381.08351309999125,f,379.9498661999969,379.9498661999969,1.1207963000051677,None,,,,,,,,,,00024,001,2025-11-09_18h45.42.464,MST_task,2024.2.2,60.00762097000655,2025-11-09 18h45.47.149530 +0530,
,Objects\172a.jpg,41,0,41,,,,,j,0.7247460000071442,0.18989939999300987,None,,,,,,,41,0,41,0,381.0998436999944,,,,,,,,,,,,,,,,,,,,,,,381.0835900999955,381.0998436999944,381.59986319999734,381.58335879999504,,,,,,,,,,,,,,,,,,,,,,,,381.58546119999664,381.59986319999734,381.59986319999734,381.59986319999734,384.5997317000001,384.5997317000001,384.5997317000001,384.58335319999605,shoe,j,0.7247460000071442,0.18989939999300987,384.58339539999724,384.5834048999968,None,,,,,,,,,,,,,,00024,001,2025-11-09_18h45.42.464,MST_task,2024.2.2,60.00762097000655,2025-11-09 18h45.47.149530 +0530,
,Objects\322a.jpg,42,0,42,,,,,f,0.8248624999978347,0.18967170000541955,None,,,,,,,42,0,42,0,384.5997317000001,,,,,,,,,,,,,,,,,,,,,,,384.58349520000047,384.5997317000001,385.1163962999999,385.0832642000023,,,,,,,,,,,,,,,,,,,,,,,,385.0974770999892,385.1163962999999,385.1163962999999,385.1163962999999,,,,388.099721999999,indoor,f,0.8248624999978347,0.18967170000541955,388.10093859999324,388.1009505999973,None,,,,,,,,,,,,,,00024,001,2025-11-09_18h45.42.464,MST_task,2024.2.2,60.00762097000655,2025-11-09 18h45.47.149530 +0530,
,Objects\370a.jpg,43,0,43,,,,,f,1.4828751000022748,0.15360059999511577,None,,,,,,,43,0,43,0,388.11632319999626,,,,,,,,,,,,,,,,,,,,,,,388.10100460000103,388.11632319999626,388.6163502999989,388.59982489999675,,,,,,,,,,,,,,,,,,,,,,,,388.6054465999914,388.6163502999989,388.6163502999989,388.6163502999989,391.616277299996,391.616277299996,391.616277299996,391.5998038999969,indoor,f,1.4828751000022748,0.15360059999511577,391.59984680000343,391.5998582000029,None,,,,,,,,,,,,,,00024,001,2025-11-09_18h45.42.464,MST_task,2024.2.2,60.00762097000655,2025-11-09 18h45.47.149530 +0530,
,Objects\330a.jpg,44,0,44,,,,,j,1.8464941999991424,0.1620686999958707,None,,,,,,,44,0,44,0,391.616277299996,,,,,,,,,,,,,,,,,,,,,,,391.59991759998957,391.616277299996,392.11623689999396,392.09980050000013,,,,,,,,,,,,,,,,,,,,,,,,392.1052350999962,392.11623689999396,392.11623689999396,392.11623689999396,395.1161962999904,395.1161962999904,395.1161962999904,395.09978389999014,indoor,j,1.8464941999991424,0.1620686999958707,395.09982289999607,395.09983209999336,None,,,,,,,,,,,,,,00024,001,2025-11-09_18h45.42.464,MST_task,2024.2.2,60.00762097000655,2025-11-09 18h45.47.149530 +0530,
,Objects\249a.jpg,45,0,45,,,,,f,0.9278927999985171,0.16668419999768957,None,,,,,,,45,0,45,0,395.1161962999904,,,,,,,,,,,,,,,,,,,,,,,395.0998869000032,395.1161962999904,395.63284569999087,395.59964030000265,,,,,,,,,,,,,,,,,,,,,,,,395.61154889999307,395.63284569999087,395.63284569999087,395.63284569999087,,,,398.6161526999931,indoor,f,0.9278927999985171,0.16668419999768957,398.6161882000015,398.6161973999988,None,,,,,,,,,,,,,,00024,001,2025-11-09_18h45.42.464,MST_task,2024.2.2,60.00762097000655,2025-11-09 18h45.47.149530 +0530,
,Objects\355a.jpg,46,0,46,,,,,f,1.4451195000001462,0.17052319999493193,None,,,,,,,46,0,46,0,398.632800899999,,,,,,,,,,,,,,,,,,,,,,,398.6162597999937,398.632800899999,399.14942390000215,399.11623359999794,,,,,,,,,,,,,,,,,,,,,,,,399.1268846000021,399.14942390000215,399.14942390000215,399.14942390000215,,,,402.1327781,indoor,f,1.4451195000001462,0.17052319999493193,402.13281549999374,402.1328244000033,None,,,,,,,,,,,,,,00024,001,2025-11-09_18h45.42.464,MST_task,2024.2.2,60.00762097000655,2025-11-09 18h45.47.149530 +0530,
,Objects\069a.jpg,47,0,47,,,,,j,0.8892488999990746,0.15058729999873322,None,,,,,,,47,0,47,0,402.1493844999932,,,,,,,,,,,,,,,,,,,,,,,402.1328872000013,402.1493844999932,402.64934099999664,402.6328596999956,,,,,,,,,,,,,,,,,,,,,,,,402.6380897999916,402.64934099999664,402.64934099999664,402.64934099999664,405.64930489999824,405.64930489999824,405.64930489999824,405.63290509999206,indoor,j,0.8892488999990746,0.15058729999873322,405.63294119999046,405.63294919999316,None,,,,,,,,,,,,,,00024,001,2025-11-09_18h45.42.464,MST_task,2024.2.2,60.00762097000655,2025-11-09 18h45.47.149530 +0530,
,Objects\228a.jpg,48,0,48,,,,,None,,,f,0.8218043999950169,None,,,,,48,0,48,0,405.64930489999824,,,,,,,,,,,,,,,,,,,,,,,405.6330014999985,405.64930489999824,406.14926609999384,406.13288789999206,,,,,,,,,,,,,,,,,,,,,,,,406.1352099999931,406.14926609999384,406.14926609999384,406.14926609999384,409.1492326000007,409.1492326000007,409.1492326000007,409.1328155999945,indoor,None,,,409.1328540999966,409.982940899994,f,409.1492326000007,409.1492326000007,0.8218043999950169,None,,,,,,,,,,00024,001,2025-11-09_18h45.42.464,MST_task,2024.2.2,60.00762097000655,2025-11-09 18h45.47.149530 +0530,
,Objects\019a.jpg,49,0,49,,,,,None,,,f,4.18042279999645,None,,,,,49,0,49,0,409.99921639999957,,,,,,,,,,,,,,,,,,,,,,,409.9830204000027,409.99921639999957,410.49917260000075,410.48274979999405,,,,,,,,,,,,,,,,,,,,,,,,410.4865579000034,410.49917260000075,410.49917260000075,410.49917260000075,413.49910739999905,413.49910739999905,413.49910739999905,413.4827737000014,shoe,None,,,413.4842531999893,417.6827578999946,f,413.49910739999905,413.49910739999905,4.18042279999645,None,,,,,,,,,,00024,001,2025-11-09_18h45.42.464,MST_task,2024.2.2,60.00762097000655,2025-11-09 18h45.47.149530 +0530,
,Objects\115a.jpg,50,0,50,,,,,f,0.8034781999886036,0.13281150000693742,None,,,,,,,50,0,50,0,417.6990511999902,,,,,,,,,,,,,,,,,,,,,,,417.6828441999969,417.6990511999902,418.1989983999956,418.1825297000032,,,,,,,,,,,,,,,,,,,,,,,,418.18481219999376,418.1989983999956,418.1989983999956,418.1989983999956,421.1989723000006,421.1989723000006,421.1989723000006,421.18255430000136,shoe,f,0.8034781999886036,0.13281150000693742,421.1825892999914,421.1825979999994,None,,,,,,,,,,,,,,00024,001,2025-11-09_18h45.42.464,MST_task,2024.2.2,60.00762097000655,2025-11-09 18h45.47.149530 +0530,
,Objects\354a.jpg,51,0,51,,,,,f,2.0778293999901507,0.17834500000753906,None,,,,,,,51,0,51,0,421.1989723000006,,,,,,,,,,,,,,,,,,,,,,,421.18268459998944,421.1989723000006,421.69893289999163,421.68244550000236,,,,,,,,,,,,,,,,,,,,,,,,421.6867798000021,421.69893289999163,421.69893289999163,421.69893289999163,424.6988937999995,424.6988937999995,424.6988937999995,424.6824540999951,shoe,f,2.0778293999901507,0.17834500000753906,424.68248909999966,424.6824975999916,None,,,,,,,,,,,,,,00024,001,2025-11-09_18h45.42.464,MST_task,2024.2.2,60.00762097000655,2025-11-09 18h45.47.149530 +0530,
,Objects\230a.jpg,52,0,52,,,,,j,1.410870400010026,0.15585949999513105,None,,,,,,,52,0,52,0,424.6988937999995,,,,,,,,,,,,,,,,,,,,,,,424.6825785999972,424.6988937999995,425.1988505999907,425.18238259998907,,,,,,,,,,,,,,,,,,,,,,,,425.1869558999897,425.1988505999907,425.1988505999907,425.1988505999907,428.19881370000076,428.19881370000076,428.19881370000076,428.18236619999516,shoe,j,1.410870400010026,0.15585949999513105,428.18240109999897,428.18240959999093,None,,,,,,,,,,,,,,00024,001,2025-11-09_18h45.42.464,MST_task,2024.2.2,60.00762097000655,2025-11-09 18h45.47.149530 +0530,
,Objects\130a.jpg,53,0,53,,,,,j,1.6438917000050424,0.1825163000030443,None,,,,,,,53,0,53,0,428.19881370000076,,,,,,,,,,,,,,,,,,,,,,,428.1824865999952,428.19881370000076,428.6987759999902,428.68230679999397,,,,,,,,,,,,,,,,,,,,,,,,428.68735729999025,428.6987759999902,428.6987759999902,428.6987759999902,431.6987732999987,431.6987732999987,431.6987732999987,431.68229159999464,shoe,j,1.6438917000050424,0.1825163000030443,431.6823289000022,431.6823372999934,None,,,,,,,,,,,,,,00024,001,2025-11-09_18h45.42.464,MST_task,2024.2.2,60.00762097000655,2025-11-09 18h45.47.149530 +0530,
,Objects\032a.jpg,54,0,54,,,,,j,2.3087199999863515,0.1700810000038473,None,,,,,,,54,0,54,0,431.6987732999987,,,,,,,,,,,,,,,,,,,,,,,431.68238980000024,431.6987732999987,432.19872129999567,432.1823047999933,,,,,,,,,,,,,,,,,,,,,,,,432.19047479999426,432.19872129999567,432.19872129999567,432.19872129999567,435.1986756999977,435.1986756999977,435.1986756999977,435.18223659999785,shoe,j,2.3087199999863515,0.1700810000038473,435.18227079999633,435.1822786999983,None,,,,,,,,,,,,,,00024,001,2025-11-09_18h45.42.464,MST_task,2024.2.2,60.00762097000655,2025-11-09 18h45.47.149530 +0530,
,Objects\254a.jpg,55,0,55,,,,,j,1.281049900004291,0.1493588000012096,None,,,,,,,55,0,55,0,435.1986756999977,,,,,,,,,,,,,,,,,,,,,,,435.18235649999406,435.1986756999977,435.6986554999894,435.6821474000026,,,,,,,,,,,,,,,,,,,,,,,,435.6876545999985,435.6986554999894,435.6986554999894,435.6986554999894,438.69858899999235,438.69858899999235,438.69858899999235,438.6821503999963,shoe,j,1.281049900004291,0.1493588000012096,438.6821843999933,438.6821925999975,None,,,,,,,,,,,,,,00024,001,2025-11-09_18h45.42.464,MST_task,2024.2.2,60.00762097000655,2025-11-09 18h45.47.149530 +0530,
,Objects\192a.jpg,56,0,56,,,,,f,1.0049863000022015,0.18141859999741428,None,,,,,,,56,0,56,0,438.69858899999235,,,,,,,,,,,,,,,,,,,,,,,438.68227540000225,438.69858899999235,439.19857339999,439.18216799999936,,,,,,,,,,,,,,,,,,,,,,,,439.18847999999707,439.19857339999,439.19857339999,439.19857339999,442.1984794000018,442.1984794000018,442.1984794000018,442.1820669000008,indoor,f,1.0049863000022015,0.18141859999741428,442.1832963999914,442.18330779999087,None,,,,,,,,,,,,,,00024,001,2025-11-09_18h45.42.464,MST_task,2024.2.2,60.00762097000655,2025-11-09 18h45.47.149530 +0530,
,Objects\054a.jpg,57,0,57,,,,,j,1.1066265999979805,0.14559129999543075,None,,,,,,,57,0,57,0,442.1984794000018,,,,,,,,,,,,,,,,,,,,,,,442.1833629999892,442.1984794000018,442.698504999993,442.68201409999165,,,,,,,,,,,,,,,,,,,,,,,,442.6841962999897,442.698504999993,442.698504999993,442.698504999993,445.6984403999959,445.6984403999959,445.6984403999959,445.68196129999706,indoor,j,1.1066265999979805,0.14559129999543075,445.68199689999165,445.6820050999959,None,,,,,,,,,,,,,,00024,001,2025-11-09_18h45.42.464,MST_task,2024.2.2,60.00762097000655,2025-11-09 18h45.47.149530 +0530,
,Objects\276a.jpg,58,0,58,,,,,None,,,f,1.5770386000076542,None,,,,,58,0,58,0,445.6984403999959,,,,,,,,,,,,,,,,,,,,,,,445.68205869999656,445.6984403999959,446.1983934000018,446.1818745999917,,,,,,,,,,,,,,,,,,,,,,,,446.1904969000025,446.1983934000018,446.1983934000018,446.1983934000018,449.1983312999946,449.1983312999946,449.1983312999946,449.1819182999898,indoor,None,,,449.1819545999897,450.7820936999924,f,449.1983312999946,449.1983312999946,1.5770386000076542,None,,,,,,,,,,00024,001,2025-11-09_18h45.42.464,MST_task,2024.2.2,60.00762097000655,2025-11-09 18h45.47.149530 +0530,
,Objects\116a.jpg,59,0,59,,,,,f,0.8268104000017047,0.16983869999239687,None,,,,,,,59,0,59,0,450.7982975999912,,,,,,,,,,,,,,,,,,,,,,,450.7821733000019,450.7982975999912,451.2983131999936,451.28186019998975,,,,,,,,,,,,,,,,,,,,,,,,451.2838989000011,451.2983131999936,451.2983131999936,451.2983131999936,454.2982204,454.2982204,454.2982204,454.28184519999195,indoor,f,0.8268104000017047,0.16983869999239687,454.2818804999988,454.2818893999938,None,,,,,,,,,,,,,,00024,001,2025-11-09_18h45.42.464,MST_task,2024.2.2,60.00762097000655,2025-11-09 18h45.47.149530 +0530,
,Objects\101a.jpg,60,0,60,,,,,None,,,j,1.086989800009178,None,,,,,60,0,60,0,454.2982204,,,,,,,,,,,,,,,,,,,,,,,454.2819432999968,454.2982204,454.798209200002,454.7817894999898,,,,,,,,,,,,,,,,,,,,,,,,454.78383469999244,454.798209200002,454.798209200002,454.798209200002,457.7981470999948,457.7981470999948,457.7981470999948,457.7817958999949,indoor,None,,,457.78183120000176,458.89848969999,j,457.7981470999948,457.7981470999948,1.086989800009178,None,,,,,,,,,,00024,001,2025-11-09_18h45.42.464,MST_task,2024.2.2,60.00762097000655,2025-11-09 18h45.47.149530 +0530,
,Objects\132a.jpg,61,0,61,,,,,f,0.7001012999971863,0.1863729000033345,None,,,,,,,61,0,61,0,458.9148465000035,,,,,,,,,,,,,,,,,,,,,,,458.898563499999,458.9148465000035,459.4148120000027,459.39828329999,,,,,,,,,,,,,,,,,,,,,,,,459.4003471000033,459.4148120000027,459.4148120000027,459.4148120000027,462.4147362999938,462.4147362999938,462.4147362999938,462.3983046999929,indoor,f,0.7001012999971863,0.1863729000033345,462.3983525999938,462.3983612000011,None,,,,,,,,,,,,,,00024,001,2025-11-09_18h45.42.464,MST_task,2024.2.2,60.00762097000655,2025-11-09 18h45.47.149530 +0530,
,Objects\233a.jpg,62,0,62,,,,,f,1.1000605000008363,0.16111159999854863,None,,,,,,,62,0,62,0,462.4147362999938,,,,,,,,,,,,,,,,,,,,,,,462.3984186000016,462.4147362999938,462.914704099996,462.8982137999992,,,,,,,,,,,,,,,,,,,,,,,,462.90307759999996,462.914704099996,462.914704099996,462.914704099996,465.91465069999686,465.91465069999686,465.91465069999686,465.8982513999945,indoor,f,1.1000605000008363,0.16111159999854863,465.89828690000286,465.8982954999956,None,,,,,,,,,,,,,,00024,001,2025-11-09_18h45.42.464,MST_task,2024.2.2,60.00762097000655,2025-11-09 18h45.47.149530 +0530,
,Objects\292a.jpg,63,0,63,,,,,j,2.5619949999963865,0.16619649999483954,None,,,,,,,63,0,63,0,465.91465069999686,,,,,,,,,,,,,,,,,,,,,,,465.8983501999901,465.91465069999686,466.4146227000019,466.3981570999895,,,,,,,,,,,,,,,,,,,,,,,,466.4041043000034,466.4146227000019,466.4146227000019,466.4146227000019,469.4146061999927,469.4146061999927,469.4146061999927,469.3982649999962,shoe,j,2.5619949999963865,0.16619649999483954,469.3997568999912,469.39976809998916,None,,,,,,,,,,,,,,00024,001,2025-11-09_18h45.42.464,MST_task,2024.2.2,60.00762097000655,2025-11-09 18h45.47.149530 +0530,
,Objects\083a.jpg,64,0,64,,,,,f,0.7102447000070242,0.19790079999074806,None,,,,,,,64,0,64,0,469.4146061999927,,,,,,,,,,,,,,,,,,,,,,,469.3998217999906,469.4146061999927,469.9145475999976,469.8981486999983,,,,,,,,,,,,,,,,,,,,,,,,469.9038092999981,469.9145475999976,469.9145475999976,469.9145475999976,472.91451159999997,472.91451159999997,472.91451159999997,472.8980518000026,shoe,f,0.7102447000070242,0.19790079999074806,472.8980856999988,472.89809409999,None,,,,,,,,,,,,,,00024,001,2025-11-09_18h45.42.464,MST_task,2024.2.2,60.00762097000655,2025-11-09 18h45.47.149530 +0530,
,Objects\216a.jpg,65,0,65,,,,,f,1.3753804000007221,0.16482159998849966,None,,,,,,,65,0,65,0,472.91451159999997,,,,,,,,,,,,,,,,,,,,,,,472.89814769999066,472.91451159999997,473.4144728999963,473.3980698999949,,,,,,,,,,,,,,,,,,,,,,,,473.4001511999959,473.4144728999963,473.4144728999963,473.4144728999963,476.4144418999931,476.4144418999931,476.4144418999931,476.39799029999995,shoe,f,1.3753804000007221,0.16482159998849966,476.3980254999915,476.3980332999927,None,,,,,,,,,,,,,,00024,001,2025-11-09_18h45.42.464,MST_task,2024.2.2,60.00762097000655,2025-11-09 18h45.47.149530 +0530,
,Objects\014a.jpg,66,0,66,,,,,f,0.7545801000087522,0.19556870000087656,None,,,,,,,66,0,66,0,476.4144418999931,,,,,,,,,,,,,,,,,,,,,,,476.39808630000334,476.4144418999931,476.9143991000019,476.8978894000029,,,,,,,,,,,,,,,,,,,,,,,,476.90007859999605,476.9143991000019,476.9143991000019,476.9143991000019,479.9143672999926,479.9143672999926,479.9143672999926,479.8979571999953,shoe,f,0.7545801000087522,0.19556870000087656,479.8979934999952,479.8980029999948,None,,,,,,,,,,,,,,00024,001,2025-11-09_18h45.42.464,MST_task,2024.2.2,60.00762097000655,2025-11-09 18h45.47.149530 +0530,
,Objects\133a.jpg,67,0,67,,,,,None,,,j,0.4163760999945225,None,,,,,67,0,67,0,479.9143672999926,,,,,,,,,,,,,,,,,,,,,,,479.89809249999234,479.9143672999926,480.4143458999897,480.3979229999968,,,,,,,,,,,,,,,,,,,,,,,,480.40019239998946,480.4143458999897,480.4143458999897,480.4143458999897,483.41427529999055,483.41427529999055,483.41427529999055,483.39787760000036,shoe,None,,,483.3979074999952,483.83131989999674,j,483.41427529999055,483.41427529999055,0.4163760999945225,None,,,,,,,,,,00024,001,2025-11-09_18h45.42.464,MST_task,2024.2.2,60.00762097000655,2025-11-09 18h45.47.149530 +0530,
,Objects\316a.jpg,68,0,68,,,,,f,2.5369928000000073,0.20152620000590105,None,,,,,,,68,0,68,0,483.84761119999166,,,,,,,,,,,,,,,,,,,,,,,483.8313985999994,483.84761119999166,484.36424549999356,484.3310763999907,,,,,,,,,,,,,,,,,,,,,,,,484.3425669999997,484.36424549999356,484.36424549999356,484.36424549999356,,,,487.34759140000097,shoe,f,2.5369928000000073,0.20152620000590105,487.3476401999942,487.34764979999454,None,,,,,,,,,,,,,,00024,001,2025-11-09_18h45.42.464,MST_task,2024.2.2,60.00762097000655,2025-11-09 18h45.47.149530 +0530,
,Objects\282a.jpg,69,0,69,,,,,j,1.841000799991889,0.19235910000861622,None,,,,,,,69,0,69,0,487.3642017999955,,,,,,,,,,,,,,,,,,,,,,,487.3477053999959,487.3642017999955,487.8641610999912,487.84763639999437,,,,,,,,,,,,,,,,,,,,,,,,487.8532358999946,487.8641610999912,487.8641610999912,487.8641610999912,490.86409399998956,490.86409399998956,490.86409399998956,490.84771419999015,shoe,j,1.841000799991889,0.19235910000861622,490.8477492999955,490.84775790000276,None,,,,,,,,,,,,,,00024,001,2025-11-09_18h45.42.464,MST_task,2024.2.2,60.00762097000655,2025-11-09 18h45.47.149530 +0530,
,Objects\082a.jpg,70,0,70,,,,,j,2.702520099992398,0.13416770000185352,None,,,,,,,70,0,70,0,490.86409399998956,,,,,,,,,,,,,,,,,,,,,,,490.84781510000175,490.86409399998956,491.3641654999956,491.34760519998963,,,,,,,,,,,,,,,,,,,,,,,,491.3508997000026,491.3641654999956,491.3641654999956,491.3641654999956,494.3640205999982,494.3640205999982,494.3640205999982,494.3476293999993,indoor,j,2.702520099992398,0.13416770000185352,494.3487590000004,494.34877029999916,None,,,,,,,,,,,,,,00024,001,2025-11-09_18h45.42.464,MST_task,2024.2.2,60.00762097000655,2025-11-09 18h45.47.149530 +0530,
,Objects\161a.jpg,71,0,71,,,,,f,1.1833902999933343,0.14994580000347923,None,,,,,,,71,0,71,0,494.3640205999982,,,,,,,,,,,,,,,,,,,,,,,494.34882069999003,494.3640205999982,494.86400899999717,494.84758989998954,,,,,,,,,,,,,,,,,,,,,,,,494.8553788999998,494.86400899999717,494.86400899999717,494.86400899999717,497.86394440000004,497.86394440000004,497.86394440000004,497.84757589999936,indoor,f,1.1833902999933343,0.14994580000347923,497.84760929999175,497.84761779999826,None,,,,,,,,,,,,,,00024,001,2025-11-09_18h45.42.464,MST_task,2024.2.2,60.00762097000655,2025-11-09 18h45.47.149530 +0530,
,Objects\177a.jpg,72,0,72,,,,,j,1.1952152000012575,0.16231410000182223,None,,,,,,,72,0,72,0,497.86394440000004,,,,,,,,,,,,,,,,,,,,,,,497.84767390000343,497.86394440000004,498.36393249999674,498.34746099999757,,,,,,,,,,,,,,,,,,,,,,,,498.34937919999356,498.36393249999674,498.36393249999674,498.36393249999674,501.3639028000034,501.3639028000034,501.3639028000034,501.3474838999973,indoor,j,1.1952152000012575,0.16231410000182223,501.3475210000033,501.34753040000214,None,,,,,,,,,,,,,,00024,001,2025-11-09_18h45.42.464,MST_task,2024.2.2,60.00762097000655,2025-11-09 18h45.47.149530 +0530,
,Objects\016a.jpg,73,0,73,,,,,f,1.10956540000916,0.14150459998927545,None,,,,,,,73,0,73,0,501.3639028000034,,,,,,,,,,,,,,,,,,,,,,,501.3475877000019,501.3639028000034,501.8638512999896,501.8474292000028,,,,,,,,,,,,,,,,,,,,,,,,501.84936089999974,501.8638512999896,501.8638512999896,501.8638512999896,504.8638204000017,504.8638204000017,504.8638204000017,504.8473696000001,indoor,f,1.10956540000916,0.14150459998927545,504.84740579999925,504.84741499999654,None,,,,,,,,,,,,,,00024,001,2025-11-09_18h45.42.464,MST_task,2024.2.2,60.00762097000655,2025-11-09 18h45.47.149530 +0530,
,Objects\295a.jpg,74,0,74,,,,,f,1.3152577000000747,0.15784010000061244,None,,,,,,,74,0,74,0,504.8638204000017,,,,,,,,,,,,,,,,,,,,,,,504.8474690000003,504.8638204000017,505.3637791999936,505.3473326999956,,,,,,,,,,,,,,,,,,,,,,,,505.3524478999898,505.3637791999936,505.3637791999936,505.3637791999936,508.363749199998,508.363749199998,508.363749199998,508.3472982999956,indoor,f,1.3152577000000747,0.15784010000061244,508.34733170000254,508.34733979999146,None,,,,,,,,,,,,,,00024,001,2025-11-09_18h45.42.464,MST_task,2024.2.2,60.00762097000655,2025-11-09 18h45.47.149530 +0530,
,Objects\077a.jpg,75,0,75,,,,,j,1.403126199991675,0.17842330000712536,None,,,,,,,75,0,75,0,508.363749199998,,,,,,,,,,,,,,,,,,,,,,,508.34739249999984,508.363749199998,508.8637028999947,508.8472846999939,,,,,,,,,,,,,,,,,,,,,,,,508.85238719999325,508.8637028999947,508.8637028999947,508.8637028999947,511.8636728999991,511.8636728999991,511.8636728999991,511.84737499999756,indoor,j,1.403126199991675,0.17842330000712536,511.84741639999265,511.8474254999892,None,,,,,,,,,,,,,,00024,001,2025-11-09_18h45.42.464,MST_task,2024.2.2,60.00762097000655,2025-11-09 18h45.47.149530 +0530,
,Objects\343a.jpg,76,0,76,,,,,None,,,f,0.9170928000094136,None,,,,,76,0,76,0,511.8636728999991,,,,,,,,,,,,,,,,,,,,,,,511.8474877999979,511.8636728999991,512.363629799991,512.3472426999942,,,,,,,,,,,,,,,,,,,,,,,,512.3504782999953,512.363629799991,512.363629799991,512.363629799991,515.3636006000015,515.3636006000015,515.3636006000015,515.3471530999959,indoor,None,,,515.3471913999965,516.2971975999972,f,515.3636006000015,515.3636006000015,0.9170928000094136,None,,,,,,,,,,00024,001,2025-11-09_18h45.42.464,MST_task,2024.2.2,60.00762097000655,2025-11-09 18h45.47.149530 +0530,
,Objects\150a.jpg,77,0,77,,,,,None,,,j,1.3832406000001356,None,,,,,77,0,77,0,516.3135915000021,,,,,,,,,,,,,,,,,,,,,,,516.2972760999983,516.3135915000021,516.8135290999926,516.7970123999985,,,,,,,,,,,,,,,,,,,,,,,,516.8037379000016,516.8135290999926,516.8135290999926,516.8135290999926,519.8134636000032,519.8134636000032,519.8134636000032,519.7971921999997,shoe,None,,,519.7987794999935,521.1972577999986,j,519.8134636000032,519.8134636000032,1.3832406000001356,None,,,,,,,,,,00024,001,2025-11-09_18h45.42.464,MST_task,2024.2.2,60.00762097000655,2025-11-09 18h45.47.149530 +0530,
,Objects\007a.jpg,78,0,78,,,,,f,1.631361099993228,0.15533350000623614,None,,,,,,,78,0,78,0,521.2134530999901,,,,,,,,,,,,,,,,,,,,,,,521.1973368999898,521.2134530999901,521.7134723999916,521.6970201999939,,,,,,,,,,,,,,,,,,,,,,,,521.6993693999975,521.7134723999916,521.7134723999916,521.7134723999916,524.7133681999985,524.7133681999985,524.7133681999985,524.6971304000035,shoe,f,1.631361099993228,0.15533350000623614,524.6971712999948,524.6971795999998,None,,,,,,,,,,,,,,00024,001,2025-11-09_18h45.42.464,MST_task,2024.2.2,60.00762097000655,2025-11-09 18h45.47.149530 +0530,
,Objects\187a.jpg,79,0,79,,,,,f,0.8398220000090078,0.17740039998898283,None,,,,,,,79,0,79,0,524.7133681999985,,,,,,,,,,,,,,,,,,,,,,,524.6972397999925,524.7133681999985,525.2133501999924,525.1969424999988,,,,,,,,,,,,,,,,,,,,,,,,525.199045100002,525.2133501999924,525.2133501999924,525.2133501999924,528.213288599989,528.213288599989,528.213288599989,528.1968906999973,shoe,f,0.8398220000090078,0.17740039998898283,528.1969263999927,528.1969344999961,None,,,,,,,,,,,,,,00024,001,2025-11-09_18h45.42.464,MST_task,2024.2.2,60.00762097000655,2025-11-09 18h45.47.149530 +0530,
,Objects\303a.jpg,80,0,80,,,,,j,2.55191389999527,0.15521080000326037,None,,,,,,,80,0,80,0,528.213288599989,,,,,,,,,,,,,,,,,,,,,,,528.1970164999948,528.213288599989,528.7134503999987,528.6969074999943,,,,,,,,,,,,,,,,,,,,,,,,528.7054086999997,528.7134503999987,528.7134503999987,528.7134503999987,531.7132425000018,531.7132425000018,531.7132425000018,531.6968306999916,shoe,j,2.55191389999527,0.15521080000326037,531.6968701000005,531.6968792999978,None,,,,,,,,,,,,,,00024,001,2025-11-09_18h45.42.464,MST_task,2024.2.2,60.00762097000655,2025-11-09 18h45.47.149530 +0530,
,Objects\112a.jpg,81,0,81,,,,,f,1.4717348999984097,0.19388800000888295,None,,,,,,,81,0,81,0,531.7132425000018,,,,,,,,,,,,,,,,,,,,,,,531.6969360999938,531.7132425000018,532.2131961999985,532.1967285999999,,,,,,,,,,,,,,,,,,,,,,,,532.2025961999898,532.2131961999985,532.2131961999985,532.2131961999985,535.2131665999914,535.2131665999914,535.2131665999914,535.1967049999948,shoe,f,1.4717348999984097,0.19388800000888295,535.1967385000025,535.1967468999937,None,,,,,,,,,,,,,,00024,001,2025-11-09_18h45.42.464,MST_task,2024.2.2,60.00762097000655,2025-11-09 18h45.47.149530 +0530,
,Objects\040a.jpg,82,0,82,,,,,f,1.137865900003817,0.1975691999978153,None,,,,,,,82,0,82,0,535.2131665999914,,,,,,,,,,,,,,,,,,,,,,,535.1968053000019,535.2131665999914,535.7131217999995,535.6966408000008,,,,,,,,,,,,,,,,,,,,,,,,535.6988494999969,535.7131217999995,535.7131217999995,535.7131217999995,538.7131025999988,538.7131025999988,538.7131025999988,538.6966430999892,shoe,f,1.137865900003817,0.1975691999978153,538.69667569999,538.6966833999904,None,,,,,,,,,,,,,,00024,001,2025-11-09_18h45.42.464,MST_task,2024.2.2,60.00762097000655,2025-11-09 18h45.47.149530 +0530,
,Objects\098a.jpg,83,0,83,,,,,f,2.156310399994254,0.1573869999992894,None,,,,,,,83,0,83,0,538.7131025999988,,,,,,,,,,,,,,,,,,,,,,,538.6967364000011,538.7131025999988,539.2130458999891,539.1965974999912,,,,,,,,,,,,,,,,,,,,,,,,539.198664399999,539.2130458999891,539.2130458999891,539.2130458999891,542.2130162999965,542.2130162999965,542.2130162999965,542.1965704999893,shoe,f,2.156310399994254,0.1573869999992894,542.1966059999977,542.1966144000035,None,,,,,,,,,,,,,,00024,001,2025-11-09_18h45.42.464,MST_task,2024.2.2,60.00762097000655,2025-11-09 18h45.47.149530 +0530,
,Objects\231a.jpg,84,0,84,,,,,j,0.8131411000067601,0.18993589999445248,None,,,,,,,84,0,84,0,542.2130162999965,,,,,,,,,,,,,,,,,,,,,,,542.1966984000028,542.2130162999965,542.729944199993,542.6965273999958,,,,,,,,,,,,,,,,,,,,,,,,542.7092870999913,542.729944199993,542.729944199993,542.729944199993,,,,545.7129347000009,indoor,j,0.8131411000067601,0.18993589999445248,545.7140757000016,545.7140875999903,None,,,,,,,,,,,,,,00024,001,2025-11-09_18h45.42.464,MST_task,2024.2.2,60.00762097000655,2025-11-09 18h45.47.149530 +0530,
,Objects\004a.jpg,85,0,85,,,,,j,2.745458500008681,0.18181099998764694,None,,,,,,,85,0,85,0,545.7296062999958,,,,,,,,,,,,,,,,,,,,,,,545.7141414999933,545.7296062999958,546.2462309999974,546.2130431999976,,,,,,,,,,,,,,,,,,,,,,,,546.2252099000034,546.2462309999974,546.2462309999974,546.2462309999974,,,,549.2295558999904,indoor,j,2.745458500008681,0.18181099998764694,549.2295920000033,549.2296124999993,None,,,,,,,,,,,,,,00024,001,2025-11-09_18h45.42.464,MST_task,2024.2.2,60.00762097000655,2025-11-09 18h45.47.149530 +0530,
,Objects\191a.jpg,86,0,86,,,,,f,1.9923904000024777,0.19006889998854604,None,,,,,,,86,0,86,0,549.246158599999,,,,,,,,,,,,,,,,,,,,,,,549.2296686999907,549.246158599999,549.7461817000003,549.7297160000016,,,,,,,,,,,,,,,,,,,,,,,,549.7317470999988,549.7461817000003,549.7461817000003,549.7461817000003,552.7461239999975,552.7461239999975,552.7461239999975,552.7297443999996,indoor,f,1.9923904000024777,0.19006889998854604,552.7297797999927,552.7297879999969,None,,,,,,,,,,,,,,00024,001,2025-11-09_18h45.42.464,MST_task,2024.2.2,60.00762097000655,2025-11-09 18h45.47.149530 +0530,
,Objects\106a.jpg,87,0,87,,,,,f,2.494560499995714,0.1523033999983454,None,,,,,,,87,0,87,0,552.7461239999975,,,,,,,,,,,,,,,,,,,,,,,552.7298420000006,552.7461239999975,553.2460801999987,553.2295971999993,,,,,,,,,,,,,,,,,,,,,,,,553.2315296000015,553.2460801999987,553.2460801999987,553.2460801999987,556.2460422000004,556.2460422000004,556.2460422000004,556.2296191999922,indoor,f,2.494560499995714,0.1523033999983454,556.2296606000018,556.2296691999945,None,,,,,,,,,,,,,,00024,001,2025-11-09_18h45.42.464,MST_task,2024.2.2,60.00762097000655,2025-11-09 18h45.47.149530 +0530,
,Objects\089a.jpg,88,0,88,,,,,j,1.0692579000024125,0.20767229999182746,None,,,,,,,88,0,88,0,556.2460422000004,,,,,,,,,,,,,,,,,,,,,,,556.2297244999936,556.2460422000004,556.7459967999894,556.7295184999966,,,,,,,,,,,,,,,,,,,,,,,,556.7317083999951,556.7459967999894,556.7459967999894,556.7459967999894,559.7459701999906,559.7459701999906,559.7459701999906,559.7295109999977,indoor,j,1.0692579000024125,0.20767229999182746,559.7295467999938,559.7295551999996,None,,,,,,,,,,,,,,00024,001,2025-11-09_18h45.42.464,MST_task,2024.2.2,60.00762097000655,2025-11-09 18h45.47.149530 +0530,
,Objects\329a.jpg,89,0,89,,,,,f,1.5527548999962164,0.20209010000689887,None,,,,,,,89,0,89,0,559.7459701999906,,,,,,,,,,,,,,,,,,,,,,,559.7296118999948,559.7459701999906,560.2459240000026,560.2295423000032,,,,,,,,,,,,,,,,,,,,,,,,560.2400870999991,560.2459240000026,560.2459240000026,560.2459240000026,563.2458841999905,563.2458841999905,563.2458841999905,563.2295000000013,indoor,f,1.5527548999962164,0.20209010000689887,563.2295402000018,563.2295487999945,None,,,,,,,,,,,,,,00024,001,2025-11-09_18h45.42.464,MST_task,2024.2.2,60.00762097000655,2025-11-09 18h45.47.149530 +0530,
,Objects\087a.jpg,90,0,90,,,,,None,,,j,0.1289656000008108,None,,,,,90,0,90,0,563.2458841999905,,,,,,,,,,,,,,,,,,,,,,,563.2296036999905,563.2458841999905,563.7458565999987,563.7294121000014,,,,,,,,,,,,,,,,,,,,,,,,563.7400565999997,563.7458565999987,563.7458565999987,563.7458565999987,566.7458197999949,566.7458197999949,566.7458197999949,566.7294168999942,indoor,None,,,566.7294467999891,566.8794656999962,j,566.7458197999949,566.7458197999949,0.1289656000008108,None,,,,,,,,,,00024,001,2025-11-09_18h45.42.464,MST_task,2024.2.2,60.00762097000655,2025-11-09 18h45.47.149530 +0530,
,Objects\140a.jpg,91,0,91,,,,,j,1.013456699991366,0.20471020000695717,None,,,,,,,91,0,91,0,566.8958085999911,,,,,,,,,,,,,,,,,,,,,,,566.8795259000035,566.8958085999911,567.3953929999989,567.3793795999954,,,,,,,,,,,,,,,,,,,,,,,,567.3888379999989,567.3953929999989,567.3953929999989,567.3953929999989,570.395700699999,570.395700699999,570.395700699999,570.3796921999892,shoe,j,1.013456699991366,0.20471020000695717,570.3812439999892,570.3812564999971,None,,,,,,,,,,,,,,00024,001,2025-11-09_18h45.42.464,MST_task,2024.2.2,60.00762097000655,2025-11-09 18h45.47.149530 +0530,
,Objects\376a.jpg,92,0,92,,,,,j,1.0298285000026226,0.19347909999487456,None,,,,,,,92,0,92,0,570.395700699999,,,,,,,,,,,,,,,,,,,,,,,570.3813114999939,570.395700699999,570.89573009999,570.8791619999975,,,,,,,,,,,,,,,,,,,,,,,,570.8812387999933,570.89573009999,570.89573009999,570.89573009999,573.8956450999976,573.8956450999976,573.8956450999976,573.87939799999,shoe,j,1.0298285000026226,0.19347909999487456,573.8794325999916,573.8794407999958,None,,,,,,,,,,,,,,00024,001,2025-11-09_18h45.42.464,MST_task,2024.2.2,60.00762097000655,2025-11-09 18h45.47.149530 +0530,
,Objects\155a.jpg,93,0,93,,,,,f,0.9033283999888226,0.22252200001094025,None,,,,,,,93,0,93,0,573.8956450999976,,,,,,,,,,,,,,,,,,,,,,,573.8794976999925,573.8956450999976,574.3956554000033,574.3790809999919,,,,,,,,,,,,,,,,,,,,,,,,574.3811254000029,574.3956554000033,574.3956554000033,574.3956554000033,577.3955552999978,577.3955552999978,577.3955552999978,577.3791675999964,shoe,f,0.9033283999888226,0.22252200001094025,577.3792029999895,577.3792109999922,None,,,,,,,,,,,,,,00024,001,2025-11-09_18h45.42.464,MST_task,2024.2.2,60.00762097000655,2025-11-09 18h45.47.149530 +0530,
,Objects\152a.jpg,94,0,94,,,,,f,1.0459488999913447,0.19749050000973511,None,,,,,,,94,0,94,0,577.3955552999978,,,,,,,,,,,,,,,,,,,,,,,577.3792895999941,577.3955552999978,577.8955369999894,577.8790579999913,,,,,,,,,,,,,,,,,,,,,,,,577.8811627999967,577.8955369999894,577.8955369999894,577.8955369999894,580.895483100001,580.895483100001,580.895483100001,580.879102699997,shoe,f,1.0459488999913447,0.19749050000973511,580.8791359000024,580.8791444999952,None,,,,,,,,,,,,,,00024,001,2025-11-09_18h45.42.464,MST_task,2024.2.2,60.00762097000655,2025-11-09 18h45.47.149530 +0530,
,Objects\197a.jpg,95,0,95,,,,,j,0.8010815000016009,0.18701559999317396,None,,,,,,,95,0,95,0,580.895483100001,,,,,,,,,,,,,,,,,,,,,,,580.8792229999963,580.895483100001,581.3954820999934,581.3789563000028,,,,,,,,,,,,,,,,,,,,,,,,581.381032099991,581.3954820999934,581.3954820999934,581.3954820999934,584.3954305999941,584.3954305999941,584.3954305999941,584.3789836999931,shoe,j,0.8010815000016009,0.18701559999317396,584.3790208999999,584.3790292999911,None,,,,,,,,,,,,,,00024,001,2025-11-09_18h45.42.464,MST_task,2024.2.2,60.00762097000655,2025-11-09 18h45.47.149530 +0530,
,Objects\033a.jpg,96,0,96,,,,,f,2.260164999999688,0.2011858000041684,None,,,,,,,96,0,96,0,584.3954305999941,,,,,,,,,,,,,,,,,,,,,,,584.3791195999947,584.3954305999941,584.8954062999983,584.8789096999972,,,,,,,,,,,,,,,,,,,,,,,,584.8811904000031,584.8954062999983,584.8954062999983,584.8954062999983,587.8953664000001,587.8953664000001,587.8953664000001,587.8788780000032,shoe,f,2.260164999999688,0.2011858000041684,587.8789127999917,587.8789232999989,None,,,,,,,,,,,,,,00024,001,2025-11-09_18h45.42.464,MST_task,2024.2.2,60.00762097000655,2025-11-09 18h45.47.149530 +0530,
,Objects\183a.jpg,97,0,97,,,,,j,0.8280329999979585,0.18925450000097044,None,,,,,,,97,0,97,0,587.8953664000001,,,,,,,,,,,,,,,,,,,,,,,587.8789792000025,587.8953664000001,588.3953127999994,588.3788283999893,,,,,,,,,,,,,,,,,,,,,,,,588.3869945999904,588.3953127999994,588.3953127999994,588.3953127999994,591.3952804,591.3952804,591.3952804,591.3788461999939,shoe,j,0.8280329999979585,0.18925450000097044,591.3788866999967,591.3788957999932,None,,,,,,,,,,,,,,00024,001,2025-11-09_18h45.42.464,MST_task,2024.2.2,60.00762097000655,2025-11-09 18h45.47.149530 +0530,
,Objects\305a.jpg,98,0,98,,,,,None,,,j,2.590389100005268,None,,,,,98,0,98,0,591.3952804,,,,,,,,,,,,,,,,,,,,,,,591.378985000003,591.3952804,591.8952489999938,591.8787434999977,,,,,,,,,,,,,,,,,,,,,,,,591.881632699995,591.8952489999938,591.8952489999938,591.8952489999938,594.8952338999952,594.8952338999952,594.8952338999952,594.8788092999894,indoor,None,,,594.879941799998,597.4954195000028,j,594.8952338999952,594.8952338999952,2.590389100005268,None,,,,,,,,,,00024,001,2025-11-09_18h45.42.464,MST_task,2024.2.2,60.00762097000655,2025-11-09 18h45.47.149530 +0530,
,Objects\304a.jpg,99,0,99,,,,,f,0.9268587000115076,0.1687482999986969,None,,,,,,,99,0,99,0,597.5118176999968,,,,,,,,,,,,,,,,,,,,,,,597.4954962999909,597.5118176999968,598.0117733999941,597.9953709999972,,,,,,,,,,,,,,,,,,,,,,,,598.0012567999947,598.0117733999941,598.0117733999941,598.0117733999941,601.0117390999949,601.0117390999949,601.0117390999949,600.9952769999945,indoor,f,0.9268587000115076,0.1687482999986969,600.9953098999977,600.9953181000019,None,,,,,,,,,,,,,,00024,001,2025-11-09_18h45.42.464,MST_task,2024.2.2,60.00762097000655,2025-11-09 18h45.47.149530 +0530,
,Objects\135a.jpg,100,0,100,,,,,f,1.3395256000076188,0.18756629999552388,None,,,,,,,100,0,100,0,601.0117390999949,,,,,,,,,,,,,,,,,,,,,,,600.9953690999973,601.0117390999949,601.5116936999984,601.4952888999978,,,,,,,,,,,,,,,,,,,,,,,,601.5062738999986,601.5116936999984,601.5116936999984,601.5116936999984,604.5116649999982,604.5116649999982,604.5116649999982,604.4951901000022,indoor,f,1.3395256000076188,0.18756629999552388,604.4952253999945,604.495233499998,None,,,,,,,,,,,,,,00024,001,2025-11-09_18h45.42.464,MST_task,2024.2.2,60.00762097000655,2025-11-09 18h45.47.149530 +0530,
,Objects\345a.jpg,101,0,101,,,,,f,2.355449900001986,0.18963029999576975,None,,,,,,,101,0,101,0,604.5116649999982,,,,,,,,,,,,,,,,,,,,,,,604.495285099998,604.5116649999982,605.0116613999999,604.9951693999901,,,,,,,,,,,,,,,,,,,,,,,,605.0040462000034,605.0116613999999,605.0116613999999,605.0116613999999,608.0116178000026,608.0116178000026,608.0116178000026,607.9951205999969,indoor,f,2.355449900001986,0.18963029999576975,607.9951689000009,607.9951769999898,None,,,,,,,,,,,,,,00024,001,2025-11-09_18h45.42.464,MST_task,2024.2.2,60.00762097000655,2025-11-09 18h45.47.149530 +0530,
,Objects\238a.jpg,102,0,102,,,,,j,0.8854216000036104,0.17447990000073332,None,,,,,,,102,0,102,0,608.0116178000026,,,,,,,,,,,,,,,,,,,,,,,607.995236799994,608.0116178000026,608.5115461999958,608.4951204999961,,,,,,,,,,,,,,,,,,,,,,,,608.5004135999916,608.5115461999958,608.5115461999958,608.5115461999958,611.5115157999971,611.5115157999971,611.5115157999971,611.4950777999911,indoor,j,0.8854216000036104,0.17447990000073332,611.4951169999986,611.4951253999898,None,,,,,,,,,,,,,,00024,001,2025-11-09_18h45.42.464,MST_task,2024.2.2,60.00762097000655,2025-11-09 18h45.47.149530 +0530,
,Objects\377a.jpg,103,0,103,,,,,j,2.045530899995356,0.16597640000691172,None,,,,,,,103,0,103,0,611.5115157999971,,,,,,,,,,,,,,,,,,,,,,,611.4951787000027,611.5115157999971,612.0114733999944,611.9951274999912,,,,,,,,,,,,,,,,,,,,,,,,611.9993908999895,612.0114733999944,612.0114733999944,612.0114733999944,615.0114396999998,615.0114396999998,615.0114396999998,614.9950239000027,indoor,j,2.045530899995356,0.16597640000691172,614.9950606999919,614.9950690999976,None,,,,,,,,,,,,,,00024,001,2025-11-09_18h45.42.464,MST_task,2024.2.2,60.00762097000655,2025-11-09 18h45.47.149530 +0530,
,Objects\326a.jpg,104,0,104,,,,,f,2.95412419999775,None,None,,,,,,,104,0,104,0,615.0114396999998,,,,,,,,,,,,,,,,,,,,,,,614.9951205999969,615.0114396999998,615.5113993999985,615.4949294999969,,,,,,,,,,,,,,,,,,,,,,,,615.5016456000012,615.5113993999985,615.5113993999985,615.5113993999985,618.5113687999983,618.5113687999983,618.5113687999983,618.4949153999914,indoor,f,2.95412419999775,None,618.4949551000027,618.4949639999977,None,,,,,,,,,,,,,,00024,001,2025-11-09_18h45.42.464,MST_task,2024.2.2,60.00762097000655,2025-11-09 18h45.47.149530 +0530,
,Objects\200a.jpg,105,0,105,,,,,j,1.4633751000073971,0.194329399993876,None,,,,,,,105,0,105,0,618.5113687999983,,,,,,,,,,,,,,,,,,,,,,,618.4950171999953,618.5113687999983,619.0113172999991,618.9949227000034,,,,,,,,,,,,,,,,,,,,,,,,619.0003177000035,619.0113172999991,619.0113172999991,619.0113172999991,622.0112705999927,622.0112705999927,622.0112705999927,621.9949565999996,shoe,j,1.4633751000073971,0.194329399993876,621.9964875000005,621.9964985999977,None,,,,,,,,,,,,,,00024,001,2025-11-09_18h45.42.464,MST_task,2024.2.2,60.00762097000655,2025-11-09 18h45.47.149530 +0530,
,Objects\027a.jpg,106,0,106,,,,,j,2.4847357999969972,0.14870769999106415,None,,,,,,,106,0,106,0,622.0112705999927,,,,,,,,,,,,,,,,,,,,,,,621.9965495999932,622.0112705999927,622.5279098000028,622.4947753000015,,,,,,,,,,,,,,,,,,,,,,,,622.5072472000029,622.5279098000028,622.5279098000028,622.5279098000028,,,,625.511222599991,shoe,j,2.4847357999969972,0.14870769999106415,625.5112565000018,625.5112655999983,None,,,,,,,,,,,,,,00024,001,2025-11-09_18h45.42.464,MST_task,2024.2.2,60.00762097000655,2025-11-09 18h45.47.149530 +0530,
,Objects\099a.jpg,107,0,107,,,,,None,,,j,1.573850400003721,None,,,,,107,0,107,0,625.5278774999897,,,,,,,,,,,,,,,,,,,,,,,625.5113243999949,625.5278774999897,626.027837200003,626.0113547999936,,,,,,,,,,,,,,,,,,,,,,,,626.0137455999939,626.027837200003,626.027837200003,626.027837200003,629.0277999999962,629.0277999999962,629.0277999999962,629.0113730000012,shoe,None,,,629.0114076000027,630.6114833000029,j,629.0277999999962,629.0277999999962,1.573850400003721,None,,,,,,,,,,00024,001,2025-11-09_18h45.42.464,MST_task,2024.2.2,60.00762097000655,2025-11-09 18h45.47.149530 +0530,
,Objects\319a.jpg,108,0,108,,,,,f,0.6915903000044636,0.1579928999999538,None,,,,,,,108,0,108,0,630.6277699999919,,,,,,,,,,,,,,,,,,,,,,,630.6115564999927,630.6277699999919,631.1277547999925,631.1112433999951,,,,,,,,,,,,,,,,,,,,,,,,631.1159533000027,631.1277547999925,631.1277547999925,631.1277547999925,634.1277679999912,634.1277679999912,634.1277679999912,634.1112589999975,shoe,f,0.6915903000044636,0.1579928999999538,634.1112962999905,634.1113052000001,None,,,,,,,,,,,,,,00024,001,2025-11-09_18h45.42.464,MST_task,2024.2.2,60.00762097000655,2025-11-09 18h45.47.149530 +0530,
,Objects\059a.jpg,109,0,109,,,,,j,0.8517547999945236,0.18996879999758676,None,,,,,,,109,0,109,0,634.1277679999912,,,,,,,,,,,,,,,,,,,,,,,634.1113849999965,634.1277679999912,634.6276562999992,634.6112496999995,,,,,,,,,,,,,,,,,,,,,,,,634.6167098000005,634.6276562999992,634.6276562999992,634.6276562999992,637.6276115999935,637.6276115999935,637.6276115999935,637.6112097000005,shoe,j,0.8517547999945236,0.18996879999758676,637.6112457999989,637.6112545999931,None,,,,,,,,,,,,,,00024,001,2025-11-09_18h45.42.464,MST_task,2024.2.2,60.00762097000655,2025-11-09 18h45.47.149530 +0530,
,Objects\384a.jpg,110,0,110,,,,,f,2.8050883000105387,0.15476160000253003,None,,,,,,,110,0,110,0,637.6276115999935,,,,,,,,,,,,,,,,,,,,,,,637.6113403999916,637.6276115999935,638.1275705000007,638.1111180000007,,,,,,,,,,,,,,,,,,,,,,,,638.1140084999934,638.1275705000007,638.1275705000007,638.1275705000007,641.1275374999968,641.1275374999968,641.1275374999968,641.1111044999998,shoe,f,2.8050883000105387,0.15476160000253003,641.1111392000021,641.1111474999925,None,,,,,,,,,,,,,,00024,001,2025-11-09_18h45.42.464,MST_task,2024.2.2,60.00762097000655,2025-11-09 18h45.47.149530 +0530,
,Objects\190a.jpg,111,0,111,,,,,f,0.7078153999900678,0.18950870000116993,None,,,,,,,111,0,111,0,641.1275374999968,,,,,,,,,,,,,,,,,,,,,,,641.1112018999993,641.1275374999968,641.6274911999935,641.6110889999982,,,,,,,,,,,,,,,,,,,,,,,,641.6132122999988,641.6274911999935,641.6274911999935,641.6274911999935,644.6274725999974,644.6274725999974,644.6274725999974,644.6110366999928,shoe,f,0.7078153999900678,0.18950870000116993,644.6110694999952,644.6110775999987,None,,,,,,,,,,,,,,00024,001,2025-11-09_18h45.42.464,MST_task,2024.2.2,60.00762097000655,2025-11-09 18h45.47.149530 +0530,
,Objects\243a.jpg,112,0,112,,,,,f,1.8914621000003535,0.15825520000362303,None,,,,,,,112,0,112,0,644.6274725999974,,,,,,,,,,,,,,,,,,,,,,,644.6111288999964,644.6274725999974,645.1274319999939,645.1109427999909,,,,,,,,,,,,,,,,,,,,,,,,645.1170637999894,645.1274319999939,645.1274319999939,645.1274319999939,648.1274464000016,648.1274464000016,648.1274464000016,648.1109060000017,indoor,f,1.8914621000003535,0.15825520000362303,648.1120993999939,648.1121105999919,None,,,,,,,,,,,,,,00024,001,2025-11-09_18h45.42.464,MST_task,2024.2.2,60.00762097000655,2025-11-09 18h45.47.149530 +0530,
,Objects\057a.jpg,113,0,113,,,,,f,1.7091674999974202,0.16610210000362713,None,,,,,,,113,0,113,0,648.1274464000016,,,,,,,,,,,,,,,,,,,,,,,648.1121679999924,648.1274464000016,648.627368299989,648.6108277000021,,,,,,,,,,,,,,,,,,,,,,,,648.6159018000035,648.627368299989,648.627368299989,648.627368299989,651.6273071000032,651.6273071000032,651.6273071000032,651.6108679000026,indoor,f,1.7091674999974202,0.16610210000362713,651.6109022000019,651.6109109999961,None,,,,,,,,,,,,,,00024,001,2025-11-09_18h45.42.464,MST_task,2024.2.2,60.00762097000655,2025-11-09 18h45.47.149530 +0530,
,Objects\310a.jpg,114,0,114,,,,,f,2.1133407000015723,0.1783648999989964,None,,,,,,,114,0,114,0,651.6273071000032,,,,,,,,,,,,,,,,,,,,,,,651.6109658999922,651.6273071000032,652.1272659999959,652.1108132999943,,,,,,,,,,,,,,,,,,,,,,,,652.1156151999894,652.1272659999959,652.1272659999959,652.1272659999959,655.1272079999908,655.1272079999908,655.1272079999908,655.1108160000003,indoor,f,2.1133407000015723,0.1783648999989964,655.110852999991,655.1108615999983,None,,,,,,,,,,,,,,00024,001,2025-11-09_18h45.42.464,MST_task,2024.2.2,60.00762097000655,2025-11-09 18h45.47.149530 +0530,
,Objects\120a.jpg,115,0,115,,,,,f,1.2607530999957817,0.1847254000022076,None,,,,,,,115,0,115,0,655.1272079999908,,,,,,,,,,,,,,,,,,,,,,,655.1109163999936,655.1272079999908,655.6271937999991,655.6107466999965,,,,,,,,,,,,,,,,,,,,,,,,655.6161802999995,655.6271937999991,655.6271937999991,655.6271937999991,658.6271250999998,658.6271250999998,658.6271250999998,658.6107382999908,indoor,f,1.2607530999957817,0.1847254000022076,658.6107737999992,658.6107824999926,None,,,,,,,,,,,,,,00024,001,2025-11-09_18h45.42.464,MST_task,2024.2.2,60.00762097000655,2025-11-09 18h45.47.149530 +0530,
,Objects\103a.jpg,116,0,116,,,,,j,1.5499765999993542,0.17786120000528172,None,,,,,,,116,0,116,0,658.6271250999998,,,,,,,,,,,,,,,,,,,,,,,658.6108368999994,658.6271250999998,659.1271721999947,659.1106310000032,,,,,,,,,,,,,,,,,,,,,,,,659.1128662999981,659.1271721999947,659.1271721999947,659.1271721999947,662.1270578999975,662.1270578999975,662.1270578999975,662.1106551999983,indoor,j,1.5499765999993542,0.17786120000528172,662.1106938000012,662.1107029999985,None,,,,,,,,,,,,,,00024,001,2025-11-09_18h45.42.464,MST_task,2024.2.2,60.00762097000655,2025-11-09 18h45.47.149530 +0530,
,Objects\227a.jpg,117,0,117,,,,,f,1.432116900003166,0.2022564000071725,None,,,,,,,117,0,117,0,662.1270578999975,,,,,,,,,,,,,,,,,,,,,,,662.1107619999966,662.1270578999975,662.6270709999953,662.6105647999939,,,,,,,,,,,,,,,,,,,,,,,,662.615372699991,662.6270709999953,662.6270709999953,662.6270709999953,665.6269744000019,665.6269744000019,665.6269744000019,665.6105743999942,indoor,f,1.432116900003166,0.2022564000071725,665.6106143999932,665.6106224999967,None,,,,,,,,,,,,,,00024,001,2025-11-09_18h45.42.464,MST_task,2024.2.2,60.00762097000655,2025-11-09 18h45.47.149530 +0530,
,Objects\018a.jpg,118,0,118,,,,,None,,,f,0.772368899997673,None,,,,,118,0,118,0,665.6269744000019,,,,,,,,,,,,,,,,,,,,,,,665.6106756999943,665.6269744000019,666.1269650000031,666.1104811999976,,,,,,,,,,,,,,,,,,,,,,,,666.1128689999896,666.1269650000031,666.1269650000031,666.1269650000031,669.1269429999957,669.1269429999957,669.1269429999957,669.1105910999904,indoor,None,,,669.110623799992,669.9106649000023,f,669.1269429999957,669.1269429999957,0.772368899997673,None,,,,,,,,,,00024,001,2025-11-09_18h45.42.464,MST_task,2024.2.2,60.00762097000655,2025-11-09 18h45.47.149530 +0530,
,Objects\213a.jpg,119,0,119,,,,,f,0.886111300002085,0.19789690000470728,None,,,,,,,119,0,119,0,669.9269207000034,,,,,,,,,,,,,,,,,,,,,,,669.9107415000035,669.9269207000034,670.426873599994,670.4103946999967,,,,,,,,,,,,,,,,,,,,,,,,670.4173505999934,670.426873599994,670.426873599994,670.426873599994,673.4268059000024,673.4268059000024,673.4268059000024,673.4105240999925,shoe,f,0.886111300002085,0.19789690000470728,673.4120924000017,673.4121047999943,None,,,,,,,,,,,,,,00024,001,2025-11-09_18h45.42.464,MST_task,2024.2.2,60.00762097000655,2025-11-09 18h45.47.149530 +0530,
,Objects\360a.jpg,120,0,120,,,,,f,1.0511036999960197,0.20885189999535214,None,,,,,,,120,0,120,0,673.4268059000024,,,,,,,,,,,,,,,,,,,,,,,673.412161100001,673.4268059000024,673.926795899999,673.9103200999962,,,,,,,,,,,,,,,,,,,,,,,,673.9153374000016,673.926795899999,673.926795899999,673.926795899999,676.9267669999972,676.9267669999972,676.9267669999972,676.9102965999919,shoe,f,1.0511036999960197,0.20885189999535214,676.9103310999926,676.9103395999991,None,,,,,,,,,,,,,,00024,001,2025-11-09_18h45.42.464,MST_task,2024.2.2,60.00762097000655,2025-11-09 18h45.47.149530 +0530,
,Objects\209a.jpg,121,0,121,,,,,f,1.913938199999393,0.13935569999739528,None,,,,,,,121,0,121,0,676.9267669999972,,,,,,,,,,,,,,,,,,,,,,,676.9103914000007,676.9267669999972,677.4267257999891,677.4103107999981,,,,,,,,,,,,,,,,,,,,,,,,677.4151829999901,677.4267257999891,677.4267257999891,677.4267257999891,680.4266871,680.4266871,680.4266871,680.4103175999917,shoe,f,1.913938199999393,0.13935569999739528,680.4103561999946,680.4103650999896,None,,,,,,,,,,,,,,00024,001,2025-11-09_18h45.42.464,MST_task,2024.2.2,60.00762097000655,2025-11-09 18h45.47.149530 +0530,
,Objects\096a.jpg,122,0,122,,,,,None,,,f,2.4209135999990394,None,,,,,122,0,122,0,680.4266871,,,,,,,,,,,,,,,,,,,,,,,680.4104245999915,680.4266871,680.9266746999929,680.9102304999979,,,,,,,,,,,,,,,,,,,,,,,,680.9158079999906,680.9266746999929,680.9266746999929,680.9266746999929,683.9266054999898,683.9266054999898,683.9266054999898,683.9101889000012,shoe,None,,,683.910223999992,686.3602288999973,f,683.9266054999898,683.9266054999898,2.4209135999990394,None,,,,,,,,,,00024,001,2025-11-09_18h45.42.464,MST_task,2024.2.2,60.00762097000655,2025-11-09 18h45.47.149530 +0530,
,Objects\073a.jpg,123,0,123,,,,,f,0.8727547000016784,0.1989943999942625,None,,,,,,,123,0,123,0,686.3765907999914,,,,,,,,,,,,,,,,,,,,,,,686.3603036999993,686.3765907999914,686.8765582999913,686.8602056999953,,,,,,,,,,,,,,,,,,,,,,,,686.8624364999996,686.8765582999913,686.8765582999913,686.8765582999913,689.8764473999909,689.8764473999909,689.8764473999909,689.8600554000004,shoe,f,0.8727547000016784,0.1989943999942625,689.8600914999988,689.8601015000022,None,,,,,,,,,,,,,,00024,001,2025-11-09_18h45.42.464,MST_task,2024.2.2,60.00762097000655,2025-11-09 18h45.47.149530 +0530,
,Objects\117a.jpg,124,0,124,,,,,None,,,f,0.004525100011960603,None,,,,,124,0,124,0,689.8764473999909,,,,,,,,,,,,,,,,,,,,,,,689.860182599994,689.8764473999909,690.3764629999932,690.3599744999956,,,,,,,,,,,,,,,,,,,,,,,,690.3622254999937,690.3764629999932,690.3764629999932,690.3764629999932,693.3763795999985,693.3763795999985,693.3763795999985,693.3600564999942,shoe,None,,,693.3600939000025,693.3934082999913,f,693.3763795999985,693.3763795999985,0.004525100011960603,None,,,,,,,,,,00024,001,2025-11-09_18h45.42.464,MST_task,2024.2.2,60.00762097000655,2025-11-09 18h45.47.149530 +0530,
,Objects\379a.jpg,125,0,125,,,,,j,0.6919678999984171,0.19539250001253095,None,,,,,,,125,0,125,0,693.409739900002,,,,,,,,,,,,,,,,,,,,,,,693.3934741999983,693.409739900002,693.9093212000007,693.8932776000001,,,,,,,,,,,,,,,,,,,,,,,,693.90266349999,693.9093212000007,693.9093212000007,693.9093212000007,696.9096763999987,696.9096763999987,696.9096763999987,696.8932177999959,shoe,j,0.6919678999984171,0.19539250001253095,696.8932518999936,696.8932605000009,None,,,,,,,,,,,,,,00024,001,2025-11-09_18h45.42.464,MST_task,2024.2.2,60.00762097000655,2025-11-09 18h45.47.149530 +0530,
,Objects\061a.jpg,126,0,126,,,,,None,,,j,0.4234693000034895,None,,,,,126,0,126,0,696.9096763999987,,,,,,,,,,,,,,,,,,,,,,,696.893344600001,696.9096763999987,697.4094956999907,697.3931878000003,,,,,,,,,,,,,,,,,,,,,,,,697.4021811999992,697.4094956999907,697.4094956999907,697.4094956999907,700.4095585000032,700.4095585000032,700.4095585000032,700.3931269000022,indoor,None,,,700.3943075999996,700.8431864000013,j,700.4095585000032,700.4095585000032,0.4234693000034895,None,,,,,,,,,,00024,001,2025-11-09_18h45.42.464,MST_task,2024.2.2,60.00762097000655,2025-11-09 18h45.47.149530 +0530,
,Objects\118a.jpg,127,0,127,,,,,f,0.8310148000018671,0.16226620000088587,None,,,,,,,127,0,127,0,700.8595824999938,,,,,,,,,,,,,,,,,,,,,,,700.8432520999922,700.8595824999938,701.3595385999943,701.3431084999902,,,,,,,,,,,,,,,,,,,,,,,,701.3454520999949,701.3595385999943,701.3595385999943,701.3595385999943,704.3595055999904,704.3595055999904,704.3595055999904,704.3430679000012,indoor,f,0.8310148000018671,0.16226620000088587,704.3431049999926,704.3431140999892,None,,,,,,,,,,,,,,00024,001,2025-11-09_18h45.42.464,MST_task,2024.2.2,60.00762097000655,2025-11-09 18h45.47.149530 +0530,
,Objects\168a.jpg,128,0,128,,,,,None,,,f,2.187447499993141,None,,,,,128,0,128,0,704.3595055999904,,,,,,,,,,,,,,,,,,,,,,,704.3431713000027,704.3595055999904,704.8594565999956,704.8429663999996,,,,,,,,,,,,,,,,,,,,,,,,704.850688999999,704.8594565999956,704.8594565999956,704.8594565999956,707.8594257999939,707.8594257999939,707.8594257999939,707.8430516999942,indoor,None,,,707.8430851000012,710.0596657999995,f,707.8594257999939,707.8594257999939,2.187447499993141,None,,,,,,,,,,00024,001,2025-11-09_18h45.42.464,MST_task,2024.2.2,60.00762097000655,2025-11-09 18h45.47.149530 +0530,
,Objects\341a.jpg,129,0,129,,,,,None,,,j,3.8691165000054752,None,,,,,129,0,129,0,710.0760415999976,,,,,,,,,,,,,,,,,,,,,,,710.0597389999893,710.0760415999976,710.5760018000001,710.5596346999955,,,,,,,,,,,,,,,,,,,,,,,,710.5619233999896,710.5760018000001,710.5760018000001,710.5760018000001,713.5759683999931,713.5759683999931,713.5759683999931,713.5596188999916,indoor,None,,,713.5596536999947,717.4595677999896,j,713.5759683999931,713.5759683999931,3.8691165000054752,None,,,,,,,,,,00024,001,2025-11-09_18h45.42.464,MST_task,2024.2.2,60.00762097000655,2025-11-09 18h45.47.149530 +0530,
,Objects\104a.jpg,130,0,130,,,,,f,0.9074318999919342,0.18212409999978263,None,,,,,,,130,0,130,0,717.4758841000003,,,,,,,,,,,,,,,,,,,,,,,717.459646599993,717.4758841000003,717.9758405999892,717.9593571000005,,,,,,,,,,,,,,,,,,,,,,,,717.9613019999961,717.9758405999892,717.9758405999892,717.9758405999892,720.9758097000013,720.9758097000013,720.9758097000013,720.9594224999892,indoor,f,0.9074318999919342,0.18212409999978263,720.959463399995,720.9594737000007,None,,,,,,,,,,,,,,00024,001,2025-11-09_18h45.42.464,MST_task,2024.2.2,60.00762097000655,2025-11-09 18h45.47.149530 +0530,
,Objects\105a.jpg,131,0,131,,,,,f,1.2553317000129027,0.16945859999395907,None,,,,,,,131,0,131,0,720.9758097000013,,,,,,,,,,,,,,,,,,,,,,,720.9595294000028,720.9758097000013,721.475873000003,721.4593662999978,,,,,,,,,,,,,,,,,,,,,,,,721.4614838999987,721.475873000003,721.475873000003,721.475873000003,724.4757361999946,724.4757361999946,724.4757361999946,724.4593119999918,indoor,f,1.2553317000129027,0.16945859999395907,724.4593546999968,724.4593644999986,None,,,,,,,,,,,,,,00024,001,2025-11-09_18h45.42.464,MST_task,2024.2.2,60.00762097000655,2025-11-09 18h45.47.149530 +0530,
,Objects\121a.jpg,132,0,132,,,,,f,2.9074677000025986,None,None,,,,,,,132,0,132,0,724.4757361999946,,,,,,,,,,,,,,,,,,,,,,,724.4594205999892,724.4757361999946,724.9756888999982,724.9592915999965,,,,,,,,,,,,,,,,,,,,,,,,724.9672341999976,724.9756888999982,724.9756888999982,724.9756888999982,727.9756849999976,727.9756849999976,727.9756849999976,727.9592206999951,indoor,f,2.9074677000025986,None,727.959257399998,727.9592657999892,None,,,,,,,,,,,,,,00024,001,2025-11-09_18h45.42.464,MST_task,2024.2.2,60.00762097000655,2025-11-09 18h45.47.149530 +0530,
,Objects\274a.jpg,133,0,133,,,,,f,1.7513337999989744,0.21427229999972042,None,,,,,,,133,0,133,0,727.9756849999976,,,,,,,,,,,,,,,,,,,,,,,727.9593163999962,727.9756849999976,728.475649400003,728.4591956999939,,,,,,,,,,,,,,,,,,,,,,,,728.4627502999938,728.475649400003,728.475649400003,728.475649400003,731.4755544999935,731.4755544999935,731.4755544999935,731.4592836999946,shoe,f,1.7513337999989744,0.21427229999972042,731.4608684999985,731.4608823000017,None,,,,,,,,,,,,,,00024,001,2025-11-09_18h45.42.464,MST_task,2024.2.2,60.00762097000655,2025-11-09 18h45.47.149530 +0530,
,Objects\047a.jpg,134,0,134,,,,,f,0.8801663000049302,0.1420185000024503,None,,,,,,,134,0,134,0,731.4755544999935,,,,,,,,,,,,,,,,,,,,,,,731.4609361999901,731.4755544999935,731.9751836999931,731.959239799995,,,,,,,,,,,,,,,,,,,,,,,,731.9689226999908,731.9751836999931,731.9751836999931,731.9751836999931,734.9755071999971,734.9755071999971,734.9755071999971,734.959105899994,shoe,f,0.8801663000049302,0.1420185000024503,734.959139300001,734.9591477999929,None,,,,,,,,,,,,,,00024,001,2025-11-09_18h45.42.464,MST_task,2024.2.2,60.00762097000655,2025-11-09 18h45.47.149530 +0530,
,Objects\092a.jpg,135,0,135,,,,,f,1.1541044000041438,0.1741875000006985,None,,,,,,,135,0,135,0,734.9755071999971,,,,,,,,,,,,,,,,,,,,,,,734.9592331000022,734.9755071999971,735.4754049999901,735.4590176999918,,,,,,,,,,,,,,,,,,,,,,,,735.468077700003,735.4754049999901,735.4754049999901,735.4754049999901,738.4754293000005,738.4754293000005,738.4754293000005,738.459002299991,shoe,f,1.1541044000041438,0.1741875000006985,738.4590396999993,738.4590480999905,None,,,,,,,,,,,,,,00024,001,2025-11-09_18h45.42.464,MST_task,2024.2.2,60.00762097000655,2025-11-09 18h45.47.149530 +0530,
,Objects\180a.jpg,136,0,136,,,,,f,2.102173799998127,0.1696455000055721,None,,,,,,,136,0,136,0,738.4754293000005,,,,,,,,,,,,,,,,,,,,,,,738.459133700002,738.4754293000005,738.9753841999918,738.9589781999966,,,,,,,,,,,,,,,,,,,,,,,,738.9614350999909,738.9753841999918,738.9753841999918,738.9753841999918,741.9753590999899,741.9753590999899,741.9753590999899,741.9589069999929,shoe,f,2.102173799998127,0.1696455000055721,741.958945499995,741.9589559000015,None,,,,,,,,,,,,,,00024,001,2025-11-09_18h45.42.464,MST_task,2024.2.2,60.00762097000655,2025-11-09 18h45.47.149530 +0530,
,Objects\382a.jpg,137,0,137,,,,,None,,,f,1.9025432000053115,None,,,,,137,0,137,0,741.9753590999899,,,,,,,,,,,,,,,,,,,,,,,741.9590117999905,741.9753590999899,742.4753346999933,742.458845000001,,,,,,,,,,,,,,,,,,,,,,,,742.4643830999994,742.4753346999933,742.4753346999933,742.4753346999933,745.4752764000004,745.4752764000004,745.4752764000004,745.4587948999979,shoe,None,,,745.4588291999971,747.392207500001,f,745.4752764000004,745.4752764000004,1.9025432000053115,None,,,,,,,,,,00024,001,2025-11-09_18h45.42.464,MST_task,2024.2.2,60.00762097000655,2025-11-09 18h45.47.149530 +0530,
,Objects\352a.jpg,138,0,138,,,,,f,1.4384319999953732,0.17772050001076423,None,,,,,,,138,0,138,0,747.4085743999894,,,,,,,,,,,,,,,,,,,,,,,747.3922825999907,747.4085743999894,747.9085385999933,747.8921323999966,,,,,,,,,,,,,,,,,,,,,,,,747.896459999989,747.9085385999933,747.9085385999933,747.9085385999933,750.9084951999976,750.9084951999976,750.9084951999976,750.8920412000007,shoe,f,1.4384319999953732,0.17772050001076423,750.8920786999952,750.8920885999978,None,,,,,,,,,,,,,,00024,001,2025-11-09_18h45.42.464,MST_task,2024.2.2,60.00762097000655,2025-11-09 18h45.47.149530 +0530,
,Objects\171a.jpg,139,0,139,,,,,j,0.780603000006522,0.17851519999385346,None,,,,,,,139,0,139,0,750.9084951999976,,,,,,,,,,,,,,,,,,,,,,,750.8921467999899,750.9084951999976,751.4084683999972,751.3920190999925,,,,,,,,,,,,,,,,,,,,,,,,751.3972110999894,751.4084683999972,751.4084683999972,751.4084683999972,754.4084762999992,754.4084762999992,754.4084762999992,754.3919705000008,shoe,j,0.780603000006522,0.17851519999385346,754.3920129000035,754.3920224999893,None,,,,,,,,,,,,,,00024,001,2025-11-09_18h45.42.464,MST_task,2024.2.2,60.00762097000655,2025-11-09 18h45.47.149530 +0530,
,Objects\079a.jpg,140,0,140,,,,,j,1.4485509999940405,0.16211250000924338,None,,,,,,,140,0,140,0,754.4084762999992,,,,,,,,,,,,,,,,,,,,,,,754.3921146999928,754.4084762999992,754.9083965000027,754.8919072999997,,,,,,,,,,,,,,,,,,,,,,,,754.8952528999944,754.9083965000027,754.9083965000027,754.9083965000027,757.9083415999921,757.9083415999921,757.9083415999921,757.8918963999895,indoor,j,1.4485509999940405,0.16211250000924338,757.8930223999923,757.8930344999972,None,,,,,,,,,,,,,,00024,001,2025-11-09_18h45.42.464,MST_task,2024.2.2,60.00762097000655,2025-11-09 18h45.47.149530 +0530,
,Objects\075a.jpg,141,0,141,,,,,f,1.1171756999974605,0.18202690000180155,None,,,,,,,141,0,141,0,757.9083415999921,,,,,,,,,,,,,,,,,,,,,,,757.893087199991,757.9083415999921,758.4083183999901,758.3918386000005,,,,,,,,,,,,,,,,,,,,,,,,758.3936978999991,758.4083183999901,758.4083183999901,758.4083183999901,761.4082894000021,761.4082894000021,761.4082894000021,761.3918080000003,indoor,f,1.1171756999974605,0.18202690000180155,761.3918496999977,761.391859299998,None,,,,,,,,,,,,,,00024,001,2025-11-09_18h45.42.464,MST_task,2024.2.2,60.00762097000655,2025-11-09 18h45.47.149530 +0530,
,Objects\215a.jpg,142,0,142,,,,,f,0.7929335000080755,0.1982988999952795,None,,,,,,,142,0,142,0,761.4082894000021,,,,,,,,,,,,,,,,,,,,,,,761.3919194999908,761.4082894000021,761.908245899991,761.8917835000029,,,,,,,,,,,,,,,,,,,,,,,,761.8938205000013,761.908245899991,761.908245899991,761.908245899991,764.9082246000035,764.9082246000035,764.9082246000035,764.8918087999918,indoor,f,0.7929335000080755,0.1982988999952795,764.8918485999893,764.8918577000004,None,,,,,,,,,,,,,,00024,001,2025-11-09_18h45.42.464,MST_task,2024.2.2,60.00762097000655,2025-11-09 18h45.47.149530 +0530,
,Objects\275a.jpg,143,0,143,,,,,f,2.6004346999980044,0.16832489999069367,None,,,,,,,143,0,143,0,764.9082246000035,,,,,,,,,,,,,,,,,,,,,,,764.8919161999947,764.9082246000035,765.4081734999927,765.3917348999967,,,,,,,,,,,,,,,,,,,,,,,,765.3965567999985,765.4081734999927,765.4081734999927,765.4081734999927,768.4081111999985,768.4081111999985,768.4081111999985,768.3916742000001,indoor,f,2.6004346999980044,0.16832489999069367,768.3917087000009,768.3917173999944,None,,,,,,,,,,,,,,00024,001,2025-11-09_18h45.42.464,MST_task,2024.2.2,60.00762097000655,2025-11-09 18h45.47.149530 +0530,
,Objects\185a.jpg,144,0,144,,,,,f,1.4666658000060124,0.18178519999491982,None,,,,,,,144,0,144,0,768.4081111999985,,,,,,,,,,,,,,,,,,,,,,,768.3917699000012,768.4081111999985,768.9080898999964,768.8916331999935,,,,,,,,,,,,,,,,,,,,,,,,768.8968534000014,768.9080898999964,768.9080898999964,768.9080898999964,771.9080453999923,771.9080453999923,771.9080453999923,771.8916746000032,indoor,f,1.4666658000060124,0.18178519999491982,771.8917165000021,771.8917251999956,None,,,,,,,,,,,,,,00024,001,2025-11-09_18h45.42.464,MST_task,2024.2.2,60.00762097000655,2025-11-09 18h45.47.149530 +0530,
,Objects\202a.jpg,145,0,145,,,,,f,0.924302000013995,0.1929311999992933,None,,,,,,,145,0,145,0,771.9080453999923,,,,,,,,,,,,,,,,,,,,,,,771.8917782999924,771.9080453999923,772.4080022999988,772.3914891000022,,,,,,,,,,,,,,,,,,,,,,,,772.3958155,772.4080022999988,772.4080022999988,772.4080022999988,775.4079499999934,775.4079499999934,775.4079499999934,775.3915351999894,indoor,f,0.924302000013995,0.1929311999992933,775.3915725999977,775.3915809000027,None,,,,,,,,,,,,,,00024,001,2025-11-09_18h45.42.464,MST_task,2024.2.2,60.00762097000655,2025-11-09 18h45.47.149530 +0530,
,Objects\269a.jpg,146,0,146,,,,,f,2.4949114000046393,0.19806249999965075,None,,,,,,,146,0,146,0,775.4079499999934,,,,,,,,,,,,,,,,,,,,,,,775.3916349999927,775.4079499999934,775.9079267999914,775.8915228999977,,,,,,,,,,,,,,,,,,,,,,,,775.9026203999965,775.9079267999914,775.9079267999914,775.9079267999914,778.90785589999,778.90785589999,778.90785589999,778.8914599999989,indoor,f,2.4949114000046393,0.19806249999965075,778.8914967000019,778.8915051999938,None,,,,,,,,,,,,,,00024,001,2025-11-09_18h45.42.464,MST_task,2024.2.2,60.00762097000655,2025-11-09 18h45.47.149530 +0530,
,Objects\234a.jpg,147,0,147,,,,,j,0.9289257000054931,0.1338668999960646,None,,,,,,,147,0,147,0,778.90785589999,,,,,,,,,,,,,,,,,,,,,,,778.8915566999931,778.90785589999,779.407847800001,779.3913699999976,,,,,,,,,,,,,,,,,,,,,,,,779.3984521999955,779.407847800001,779.407847800001,779.407847800001,782.4078127999965,782.4078127999965,782.4078127999965,782.3916115000029,shoe,j,0.9289257000054931,0.1338668999960646,782.3931497000012,782.3931612000015,None,,,,,,,,,,,,,,00024,001,2025-11-09_18h45.42.464,MST_task,2024.2.2,60.00762097000655,2025-11-09 18h45.47.149530 +0530,
,Objects\037a.jpg,148,0,148,,,,,f,0.7073067000019364,0.17810499999905005,None,,,,,,,148,0,148,0,782.4078127999965,,,,,,,,,,,,,,,,,,,,,,,782.3932139999961,782.4078127999965,782.9077852999908,782.8913070999988,,,,,,,,,,,,,,,,,,,,,,,,782.8937939000025,782.9077852999908,782.9077852999908,782.9077852999908,785.9077392000036,785.9077392000036,785.9077392000036,785.8912773999909,shoe,f,0.7073067000019364,0.17810499999905005,785.8913166999992,785.8913262999995,None,,,,,,,,,,,,,,00024,001,2025-11-09_18h45.42.464,MST_task,2024.2.2,60.00762097000655,2025-11-09 18h45.47.149530 +0530,
,Objects\375a.jpg,149,0,149,,,,,f,1.1417967000015778,0.15709819999756292,None,,,,,,,149,0,149,0,785.9077392000036,,,,,,,,,,,,,,,,,,,,,,,785.8914131999918,785.9077392000036,786.4076934999903,786.3912101000024,,,,,,,,,,,,,,,,,,,,,,,,786.396227499994,786.4076934999903,786.4076934999903,786.4076934999903,789.4076623000001,789.4076623000001,789.4076623000001,789.3912239999918,shoe,f,1.1417967000015778,0.15709819999756292,789.3912586999941,789.3912673000013,None,,,,,,,,,,,,,,00024,001,2025-11-09_18h45.42.464,MST_task,2024.2.2,60.00762097000655,2025-11-09 18h45.47.149530 +0530,
,Objects\039a.jpg,150,0,150,,,,,None,,,j,0.9300030000013066,None,,,,,150,0,150,0,789.4076623000001,,,,,,,,,,,,,,,,,,,,,,,789.3913226000004,789.4076623000001,789.9076167000021,789.8911396999902,,,,,,,,,,,,,,,,,,,,,,,,789.8964212999999,789.9076167000021,789.9076167000021,789.9076167000021,792.9075824999891,792.9075824999891,792.9075824999891,792.8911533999926,shoe,None,,,792.8911880999949,793.8411305999907,j,792.9075824999891,792.9075824999891,0.9300030000013066,None,,,,,,,,,,00024,001,2025-11-09_18h45.42.464,MST_task,2024.2.2,60.00762097000655,2025-11-09 18h45.47.149530 +0530,
,Objects\212a.jpg,151,0,151,,,,,j,1.3036472999956459,0.17402279999805614,None,,,,,,,151,0,151,0,793.8575781999971,,,,,,,,,,,,,,,,,,,,,,,793.8412354000029,793.8575781999971,794.3575239999918,794.3410091999976,,,,,,,,,,,,,,,,,,,,,,,,794.3470722999919,794.3575239999918,794.3575239999918,794.3575239999918,797.3574882999965,797.3574882999965,797.3574882999965,797.3410250000015,shoe,j,1.3036472999956459,0.17402279999805614,797.3410642999952,797.3410737999948,None,,,,,,,,,,,,,,00024,001,2025-11-09_18h45.42.464,MST_task,2024.2.2,60.00762097000655,2025-11-09 18h45.47.149530 +0530,
,Objects\334a.jpg,152,0,152,,,,,None,,,j,1.5586907000106294,None,,,,,152,0,152,0,797.3574882999965,,,,,,,,,,,,,,,,,,,,,,,797.3411288999923,797.3574882999965,797.8574896999926,797.840939200003,,,,,,,,,,,,,,,,,,,,,,,,797.8462793999934,797.8574896999926,797.8574896999926,797.8574896999926,800.8573880999902,800.8573880999902,800.8573880999902,800.8409885000001,shoe,None,,,800.8410188999987,802.4243289000005,j,800.8573880999902,800.8573880999902,1.5586907000106294,None,,,,,,,,,,00024,001,2025-11-09_18h45.42.464,MST_task,2024.2.2,60.00762097000655,2025-11-09 18h45.47.149530 +0530,
,Objects\206a.jpg,153,0,153,,,,,j,0.8846775000129128,0.17777319999004249,None,,,,,,,153,0,153,0,802.4407167000027,,,,,,,,,,,,,,,,,,,,,,,802.424400399992,802.4407167000027,802.940666399998,802.9242909000022,,,,,,,,,,,,,,,,,,,,,,,,802.928986999992,802.940666399998,802.940666399998,802.940666399998,805.9406368999917,805.9406368999917,805.9406368999917,805.9241613999911,shoe,j,0.8846775000129128,0.17777319999004249,805.9242062999983,805.9242154999956,None,,,,,,,,,,,,,,00024,001,2025-11-09_18h45.42.464,MST_task,2024.2.2,60.00762097000655,2025-11-09 18h45.47.149530 +0530,
,Objects\194a.jpg,154,0,154,,,,,f,0.8001256999996258,0.18667280000227038,None,,,,,,,154,0,154,0,805.9406368999917,,,,,,,,,,,,,,,,,,,,,,,805.9242716000008,805.9406368999917,806.4405985999911,806.4241159999947,,,,,,,,,,,,,,,,,,,,,,,,806.4298504000035,806.4405985999911,806.4405985999911,806.4405985999911,809.4405666999955,809.4405666999955,809.4405666999955,809.4240856999968,indoor,f,0.8001256999996258,0.18667280000227038,809.4252834999934,809.4252948999929,None,,,,,,,,,,,,,,00024,001,2025-11-09_18h45.42.464,MST_task,2024.2.2,60.00762097000655,2025-11-09 18h45.47.149530 +0530,
,Objects\223a.jpg,155,0,155,,,,,j,1.2426152000116417,0.17811699998856056,None,,,,,,,155,0,155,0,809.4405666999955,,,,,,,,,,,,,,,,,,,,,,,809.4253497000027,809.4405666999955,809.9405218000029,809.9240512999968,,,,,,,,,,,,,,,,,,,,,,,,809.9292016999971,809.9405218000029,809.9405218000029,809.9405218000029,812.9404912000027,812.9404912000027,812.9404912000027,812.9240531999967,indoor,j,1.2426152000116417,0.17811699998856056,812.9240866999899,812.9240951999964,None,,,,,,,,,,,,,,00024,001,2025-11-09_18h45.42.464,MST_task,2024.2.2,60.00762097000655,2025-11-09 18h45.47.149530 +0530,
,Objects\066a.jpg,156,0,156,,,,,f,2.022230500006117,0.17790799999784213,None,,,,,,,156,0,156,0,812.9404912000027,,,,,,,,,,,,,,,,,,,,,,,812.924147400001,812.9404912000027,813.4404503999976,813.4239973999938,,,,,,,,,,,,,,,,,,,,,,,,813.4341798999958,813.4404503999976,813.4404503999976,813.4404503999976,816.4404039999936,816.4404039999936,816.4404039999936,816.4239787999977,indoor,f,2.022230500006117,0.17790799999784213,816.4240162999922,816.4240245999972,None,,,,,,,,,,,,,,00024,001,2025-11-09_18h45.42.464,MST_task,2024.2.2,60.00762097000655,2025-11-09 18h45.47.149530 +0530,
,Objects\260a.jpg,157,0,157,,,,,None,,,f,0.4676319999998668,None,,,,,157,0,157,0,816.4404039999936,,,,,,,,,,,,,,,,,,,,,,,816.4240764999995,816.4404039999936,816.9570379999932,816.9239948000031,,,,,,,,,,,,,,,,,,,,,,,,816.9361487999995,816.9570379999932,816.9570379999932,816.9570379999932,,,,819.9403634999908,indoor,None,,,819.9403978999908,820.4407159999973,f,819.9570015999925,819.9570015999925,0.4676319999998668,None,,,,,,,,,,00024,001,2025-11-09_18h45.42.464,MST_task,2024.2.2,60.00762097000655,2025-11-09 18h45.47.149530 +0530,
