Sl_no,image_path,thisN,thisTrialN,thisRepN,key_resp_5.keys,key_resp_7.keys,key_resp_7.rt,key_resp_7.duration,key_resp_5.rt,key_resp_5.duration,key_resp_9.keys,key_resp_9.rt,key_resp_9.duration,key_resp_8.keys,key_resp_8.rt,key_resp_8.duration,practice.thisRepN,practice.thisTrialN,practice.thisN,practice.thisIndex,trials.thisRepN,trials.thisTrialN,trials.thisN,trials.thisIndex,thisRow.t,notes,welcome_page.started,text.started,key_resp.started,welcome_page.stopped,key_resp.keys,key_resp.rt,key_resp.duration,instructions.started,ins.started,key_resp_2.started,instructions.stopped,key_resp_2.keys,key_resp_2.rt,key_resp_2.duration,objects_only_instruction.started,text_3.started,key_resp_3.started,objects_only_instruction.stopped,key_resp_3.keys,key_resp_3.rt,key_resp_3.duration,ISI.started,text_4.started,text_4.stopped,ISI.stopped,practice_block.started,image.started,key_resp_5.started,text_5.started,image.stopped,key_resp_5.stopped,text_5.stopped,practice_block.stopped,practice.key_resp_5.keys,indoor_outdoor.started,text_7.started,key_resp_7.started,indoor_outdoor.stopped,practice.key_resp_7.keys,practice.key_resp_7.rt,practice.key_resp_7.duration,practice.key_resp_5.rt,practice.key_resp_5.duration,practice_to_main.started,text_2.started,key_resp_4.started,practice_to_main.stopped,key_resp_4.keys,key_resp_4.rt,key_resp_4.duration,objects.started,image_2.started,text_9.started,key_resp_9.started,image_2.stopped,text_9.stopped,key_resp_9.stopped,objects.stopped,category,trials.key_resp_9.keys,trials.key_resp_9.rt,trials.key_resp_9.duration,encoding_task.started,encoding_task.stopped,trials.key_resp_8.keys,text_8.started,key_resp_8.started,trials.key_resp_8.rt,trials.key_resp_8.duration,end_experiment.started,text_6.started,key_resp_6.started,end_experiment.stopped,key_resp_6.keys,key_resp_6.rt,key_resp_6.duration,list_of_stimuli,encoding_task_accuracy,participant,session,date,expName,psychopyVersion,frameRate,expStart,
,,,,,,,,,,,,,,,,,,,,,,,,,,,0.018616899993503466,0.035224299994297326,0.035224299994297326,11.036656099997344,space,10.992828399990685,None,,,,,,,,,,,,,,,,,,,,,,,,,,,,,,,,,,,,,,,,,,,,,,,,,,,,,,,,,,,,,,,,,,,,,,,,00022,001,2025-11-09_11h49.42.417,MST_task,2024.2.2,60.000132003041756,2025-11-09 11h49.51.061559 +0530,
,,,,,,,,,,,,,,,,,,,,,,,,,,,,,,,,,,11.03668399999151,11.051580999992439,11.051580999992439,28.718236799992155,space,17.650575399995432,None,,,,,,,,,,,,,,,,,,,,,,,,,,,,,,,,,,,,,,,,,,,,,,,,,,,,,,,,,,,,,,,,,00022,001,2025-11-09_11h49.42.417,MST_task,2024.2.2,60.000132003041756,2025-11-09 11h49.51.061559 +0530,
,,,,,,,,,,,,,,,,,,,,,,,,,,,,,,,,,,,,,,,,,28.718268600001466,28.734540599994943,28.734540599994943,35.451398899997,space,6.713686599992798,None,,,,,,,,,,,,,,,,,,,,,,,,,,,,,,,,,,,,,,,,,,,,,,,,,,,,,,,,,,00022,001,2025-11-09_11h49.42.417,MST_task,2024.2.2,60.000132003041756,2025-11-09 11h49.51.061559 +0530,
8,practice_images/178a.jpg,0,0,0,None,f,0.12933159999374766,None,,,,,,,,,0,0,0,7,,,,,35.467730499993195,,,,,,,,,,,,,,,,,,,,,,,35.4547290999908,35.467730499993195,35.967716300001484,35.95124329999089,35.958105600002455,35.967716300001484,35.967716300001484,35.967716300001484,38.967696399995475,38.967696399995475,38.967696399995475,38.95119330000307,None,38.95238160000008,38.967696399995475,38.967696399995475,39.10137049999321,f,0.12933159999374766,None,,,,,,,,,,,,,,,,,,,,,,,,,,,,,,,,,,,,,,00022,001,2025-11-09_11h49.42.417,MST_task,2024.2.2,60.000132003041756,2025-11-09 11h49.51.061559 +0530,
4,practice_images/002b.jpg,1,1,0,f,None,,,2.093140199998743,0.125616599994828,,,,,,,0,1,1,3,,,,,39.11768169999414,,,,,,,,,,,,,,,,,,,,,,,39.10143270000117,39.11768169999414,39.617671999993036,39.601164099993184,39.6026123999909,39.617671999993036,39.617671999993036,39.617671999993036,42.6175760999904,42.6175760999904,42.6175760999904,42.60108209999453,f,42.601135999997496,,,42.601145499997074,None,,,2.093140199998743,0.125616599994828,,,,,,,,,,,,,,,,,,,,,,,,,,,,,,,,,,,,00022,001,2025-11-09_11h49.42.417,MST_task,2024.2.2,60.000132003041756,2025-11-09 11h49.51.061559 +0530,
3,practice_images/037a.jpg,2,2,0,f,None,,,1.3292722999904072,0.11957470000197645,,,,,,,0,2,2,2,,,,,42.6175760999904,,,,,,,,,,,,,,,,,,,,,,,42.601198299991665,42.6175760999904,43.1176090999943,43.10127990000183,43.10264399999869,43.1176090999943,43.1176090999943,43.1176090999943,46.117509599993355,46.117509599993355,46.117509599993355,46.10104729999148,f,46.10108649999893,,,46.10109640000155,None,,,1.3292722999904072,0.11957470000197645,,,,,,,,,,,,,,,,,,,,,,,,,,,,,,,,,,,,00022,001,2025-11-09_11h49.42.417,MST_task,2024.2.2,60.000132003041756,2025-11-09 11h49.51.061559 +0530,
6,practice_images/158a.jpg,3,3,0,j,None,,,1.4984561000019312,0.13740089999919292,,,,,,,0,3,3,5,,,,,46.117509599993355,,,,,,,,,,,,,,,,,,,,,,,46.101160399994114,46.117509599993355,46.61755679998896,46.60102560000087,46.6023034999962,46.61755679998896,46.61755679998896,46.61755679998896,49.617460699999356,49.617460699999356,49.617460699999356,49.60098129999824,j,49.60102200000256,,,49.60103239999444,None,,,1.4984561000019312,0.13740089999919292,,,,,,,,,,,,,,,,,,,,,,,,,,,,,,,,,,,,00022,001,2025-11-09_11h49.42.417,MST_task,2024.2.2,60.000132003041756,2025-11-09 11h49.51.061559 +0530,
10,practice_images/182a.jpg,4,4,0,f,None,,,1.027323600006639,0.1272634999913862,,,,,,,0,4,4,9,,,,,49.617460699999356,,,,,,,,,,,,,,,,,,,,,,,49.601100300002145,49.617460699999356,50.11744209998869,50.10102380000171,50.102258599989,50.11744209998869,50.11744209998869,50.11744209998869,53.11738460000197,53.11738460000197,53.11738460000197,53.100852099989424,f,53.10088569999789,,,53.10089400000288,None,,,1.027323600006639,0.1272634999913862,,,,,,,,,,,,,,,,,,,,,,,,,,,,,,,,,,,,00022,001,2025-11-09_11h49.42.417,MST_task,2024.2.2,60.000132003041756,2025-11-09 11h49.51.061559 +0530,
1,practice_images/013a.jpg,5,5,0,j,None,,,1.833515599995735,0.14519030001247302,,,,,,,0,5,5,0,,,,,53.11738460000197,,,,,,,,,,,,,,,,,,,,,,,53.10094720000052,53.11738460000197,53.61734070000239,53.600843899999745,53.60430649999762,53.61734070000239,53.61734070000239,53.61734070000239,56.61727809999138,56.61727809999138,56.61727809999138,56.60078209999483,j,56.602358999996795,,,56.60237029999553,None,,,1.833515599995735,0.14519030001247302,,,,,,,,,,,,,,,,,,,,,,,,,,,,,,,,,,,,00022,001,2025-11-09_11h49.42.417,MST_task,2024.2.2,60.000132003041756,2025-11-09 11h49.51.061559 +0530,
7,practice_images/166a.jpg,6,6,0,j,None,,,1.5512326000025496,0.15214279999781866,,,,,,,0,6,6,6,,,,,56.61727809999138,,,,,,,,,,,,,,,,,,,,,,,56.60242589999689,56.61727809999138,57.1172624000028,57.10086669999873,57.10231859999476,57.1172624000028,57.1172624000028,57.1172624000028,60.11722179999924,60.11722179999924,60.11722179999924,60.10074179999356,j,60.100777100000414,,,60.10078629999771,None,,,1.5512326000025496,0.15214279999781866,,,,,,,,,,,,,,,,,,,,,,,,,,,,,,,,,,,,00022,001,2025-11-09_11h49.42.417,MST_task,2024.2.2,60.000132003041756,2025-11-09 11h49.51.061559 +0530,
9,practice_images/180a.jpg,7,7,0,j,None,,,0.9231347000022652,0.15400309998949524,,,,,,,0,7,7,8,,,,,60.11722179999924,,,,,,,,,,,,,,,,,,,,,,,60.10084489999281,60.11722179999924,60.617199000000255,60.600748999990174,60.602066299994476,60.617199000000255,60.617199000000255,60.617199000000255,63.61717709999357,63.61717709999357,63.61717709999357,63.60066179999558,j,63.60069769999245,,,63.600707599995076,None,,,0.9231347000022652,0.15400309998949524,,,,,,,,,,,,,,,,,,,,,,,,,,,,,,,,,,,,00022,001,2025-11-09_11h49.42.417,MST_task,2024.2.2,60.000132003041756,2025-11-09 11h49.51.061559 +0530,
5,practice_images/139a.jpg,8,8,0,j,None,,,1.4889518999989377,0.13690139999380335,,,,,,,0,8,8,4,,,,,63.61717709999357,,,,,,,,,,,,,,,,,,,,,,,63.600762499991106,63.61717709999357,64.11711079999804,64.1006475000031,64.1018624999997,64.11711079999804,64.11711079999804,64.11711079999804,67.11707939999178,67.11707939999178,67.11707939999178,67.1005681999959,j,67.10060449999582,,,67.1006139999954,None,,,1.4889518999989377,0.13690139999380335,,,,,,,,,,,,,,,,,,,,,,,,,,,,,,,,,,,,00022,001,2025-11-09_11h49.42.417,MST_task,2024.2.2,60.000132003041756,2025-11-09 11h49.51.061559 +0530,
2,practice_images/031a.jpg,9,9,0,f,None,,,1.4258764999976847,0.25366469999426045,,,,,,,0,9,9,1,,,,,67.11707939999178,,,,,,,,,,,,,,,,,,,,,,,67.10066859998915,67.11707939999178,67.61704689999169,67.60055389998888,67.60186529999191,67.61704689999169,67.61704689999169,67.61704689999169,70.61700119999296,70.61700119999296,70.61700119999296,70.60049029999936,f,70.60053759999573,,,70.60054649999074,None,,,1.4258764999976847,0.25366469999426045,,,,,,,,,,,,,,,,,,,,,,,,,,,,,,,,,,,,00022,001,2025-11-09_11h49.42.417,MST_task,2024.2.2,60.000132003041756,2025-11-09 11h49.51.061559 +0530,
,,,,,,,,,,,,,,,,,,,,,,,,,,,,,,,,,,,,,,,,,,,,,,,,,,,,,,,,,,,,,,,,,,,,,,70.60058119999303,70.61700119999296,70.61700119999296,102.09995819999313,space,31.469608299987158,None,,,,,,,,,,,,,,,,,,,,,,,,,,,,,00022,001,2025-11-09_11h49.42.417,MST_task,2024.2.2,60.000132003041756,2025-11-09 11h49.51.061559 +0530,
,Objects\299a.jpg,0,0,0,,,,,,,j,1.2843906000052812,0.27960779999557417,None,,,,,,,0,0,0,0,102.11630409999634,,,,,,,,,,,,,,,,,,,,,,,102.10068129999854,102.11630409999634,102.61628889999702,102.59980489998998,,,,,,,,,,,,,,,,,,,,,,,,,,102.60671189999266,102.61628889999702,102.61628889999702,102.61628889999702,105.61628049999126,105.61628049999126,105.61628049999126,105.59988029999658,indoor,j,1.2843906000052812,0.27960779999557417,105.60111119999783,105.60112339998886,None,,,,,,,,,,,,,,00022,001,2025-11-09_11h49.42.417,MST_task,2024.2.2,60.000132003041756,2025-11-09 11h49.51.061559 +0530,
,Objects\198a.jpg,1,0,1,,,,,,,f,1.324508399993647,0.17935269999725278,None,,,,,,,1,0,1,0,105.61628049999126,,,,,,,,,,,,,,,,,,,,,,,105.60117979999632,105.61628049999126,106.11648219999915,106.09985919999599,,,,,,,,,,,,,,,,,,,,,,,,,,106.10528899999917,106.11648219999915,106.11648219999915,106.11648219999915,109.11615309999615,109.11615309999615,109.11615309999615,109.09974819999479,indoor,f,1.324508399993647,0.17935269999725278,109.09978409999167,109.09979219999514,None,,,,,,,,,,,,,,00022,001,2025-11-09_11h49.42.417,MST_task,2024.2.2,60.000132003041756,2025-11-09 11h49.51.061559 +0530,
,Objects\201a.jpg,2,0,2,,,,,,,f,1.150097800011281,0.15871709999919403,None,,,,,,,2,0,2,0,109.11615309999615,,,,,,,,,,,,,,,,,,,,,,,109.0998455999943,109.11615309999615,109.61659789999248,109.5997134999925,,,,,,,,,,,,,,,,,,,,,,,,,,109.60498629999347,109.61659789999248,109.61659789999248,109.61659789999248,112.61610749999818,112.61610749999818,112.61610749999818,112.59965910000028,indoor,f,1.150097800011281,0.15871709999919403,112.59969229999115,112.59970059999614,None,,,,,,,,,,,,,,00022,001,2025-11-09_11h49.42.417,MST_task,2024.2.2,60.000132003041756,2025-11-09 11h49.51.061559 +0530,
,Objects\057a.jpg,3,0,3,,,,,,,f,1.0119129000086104,0.17423569998936728,None,,,,,,,3,0,3,0,112.61610749999818,,,,,,,,,,,,,,,,,,,,,,,112.59975549999217,112.61610749999818,113.11606600000232,113.099581699993,,,,,,,,,,,,,,,,,,,,,,,,,,113.10491319998982,113.11606600000232,113.11606600000232,113.11606600000232,116.11603869999817,116.11603869999817,116.11603869999817,116.09959459998936,indoor,f,1.0119129000086104,0.17423569998936728,116.09963559999596,116.09964429998945,None,,,,,,,,,,,,,,00022,001,2025-11-09_11h49.42.417,MST_task,2024.2.2,60.000132003041756,2025-11-09 11h49.51.061559 +0530,
,Objects\110a.jpg,4,0,4,,,,,,,j,1.1199866000097245,0.19202999999106396,None,,,,,,,4,0,4,0,116.11603869999817,,,,,,,,,,,,,,,,,,,,,,,116.0997015999892,116.11603869999817,116.61598940000113,116.59952289999637,,,,,,,,,,,,,,,,,,,,,,,,,,116.60176369998953,116.61598940000113,116.61598940000113,116.61598940000113,119.61596939999436,119.61596939999436,119.61596939999436,119.59953269999824,indoor,j,1.1199866000097245,0.19202999999106396,119.59957169998961,119.5995808000007,None,,,,,,,,,,,,,,00022,001,2025-11-09_11h49.42.417,MST_task,2024.2.2,60.000132003041756,2025-11-09 11h49.51.061559 +0530,
,Objects\183a.jpg,5,0,5,,,,,,,f,0.9182443999889074,0.15787930000806227,None,,,,,,,5,0,5,0,119.61596939999436,,,,,,,,,,,,,,,,,,,,,,,119.59963559999596,119.61596939999436,120.11597620000248,120.09949959999358,,,,,,,,,,,,,,,,,,,,,,,,,,120.10191299999133,120.11597620000248,120.11597620000248,120.11597620000248,123.11588469998969,123.11588469998969,123.11588469998969,123.09939899999881,indoor,f,0.9182443999889074,0.15787930000806227,123.0994389999978,123.09944769999129,None,,,,,,,,,,,,,,00022,001,2025-11-09_11h49.42.417,MST_task,2024.2.2,60.000132003041756,2025-11-09 11h49.51.061559 +0530,
,Objects\284a.jpg,6,0,6,,,,,,,j,1.4449394999974174,0.1819961000001058,None,,,,,,,6,0,6,0,123.11588469998969,,,,,,,,,,,,,,,,,,,,,,,123.09950309999113,123.11588469998969,123.61583429999882,123.5994428999984,,,,,,,,,,,,,,,,,,,,,,,,,,123.6042027999938,123.61583429999882,123.61583429999882,123.61583429999882,126.61580269999104,126.61580269999104,126.61580269999104,126.59939339999983,indoor,j,1.4449394999974174,0.1819961000001058,126.59942939999746,126.59943819999171,None,,,,,,,,,,,,,,00022,001,2025-11-09_11h49.42.417,MST_task,2024.2.2,60.000132003041756,2025-11-09 11h49.51.061559 +0530,
,Objects\317a.jpg,7,0,7,,,,,,,j,2.0162602999917,0.15017580000858288,None,,,,,,,7,0,7,0,126.61580269999104,,,,,,,,,,,,,,,,,,,,,,,126.59949179999239,126.61580269999104,127.11576069999137,127.0994337000011,,,,,,,,,,,,,,,,,,,,,,,,,,127.10707159999583,127.11576069999137,127.11576069999137,127.11576069999137,130.11569720000261,130.11569720000261,130.11569720000261,130.09941929999331,shoe,j,2.0162602999917,0.15017580000858288,130.10096049999993,130.10097179999866,None,,,,,,,,,,,,,,00022,001,2025-11-09_11h49.42.417,MST_task,2024.2.2,60.000132003041756,2025-11-09 11h49.51.061559 +0530,
,Objects\232a.jpg,8,0,8,,,,,,,f,1.0188004999945406,0.16610069999296684,None,,,,,,,8,0,8,0,130.11569720000261,,,,,,,,,,,,,,,,,,,,,,,130.1010513999936,130.11569720000261,130.6156925999967,130.5992483000009,,,,,,,,,,,,,,,,,,,,,,,,,,130.60439149999002,130.6156925999967,130.6156925999967,130.6156925999967,133.615659099989,133.615659099989,133.615659099989,133.599258000002,shoe,f,1.0188004999945406,0.16610069999296684,133.5992944999889,133.59930269999313,None,,,,,,,,,,,,,,00022,001,2025-11-09_11h49.42.417,MST_task,2024.2.2,60.000132003041756,2025-11-09 11h49.51.061559 +0530,
,Objects\352a.jpg,9,0,9,,,,,,,f,1.3834405999950832,0.1314423000003444,None,,,,,,,9,0,9,0,133.615659099989,,,,,,,,,,,,,,,,,,,,,,,133.5993565999961,133.615659099989,134.11561029999575,134.09924929999397,,,,,,,,,,,,,,,,,,,,,,,,,,134.1037953999912,134.11561029999575,134.11561029999575,134.11561029999575,137.11557999999786,137.11557999999786,137.11557999999786,137.0991806999955,shoe,f,1.3834405999950832,0.1314423000003444,137.09922199998982,137.0992314999894,None,,,,,,,,,,,,,,00022,001,2025-11-09_11h49.42.417,MST_task,2024.2.2,60.000132003041756,2025-11-09 11h49.51.061559 +0530,
,Objects\343a.jpg,10,0,10,,,,,,,f,1.073508799992851,0.16135540000686888,None,,,,,,,10,0,10,0,137.11557999999786,,,,,,,,,,,,,,,,,,,,,,,137.09929079998983,137.11557999999786,137.61554459999024,137.5990679999959,,,,,,,,,,,,,,,,,,,,,,,,,,137.60210999999254,137.61554459999024,137.61554459999024,137.61554459999024,140.61550929999794,140.61550929999794,140.61550929999794,140.59910449999734,shoe,f,1.073508799992851,0.16135540000686888,140.5991476999916,140.5991570999904,None,,,,,,,,,,,,,,00022,001,2025-11-09_11h49.42.417,MST_task,2024.2.2,60.000132003041756,2025-11-09 11h49.51.061559 +0530,
,Objects\077a.jpg,11,0,11,,,,,,,j,1.1469441000081133,0.16663880000123754,None,,,,,,,11,0,11,0,140.61550929999794,,,,,,,,,,,,,,,,,,,,,,,140.59921580000082,140.61550929999794,141.11545810000098,141.09897900000215,,,,,,,,,,,,,,,,,,,,,,,,,,141.1041292000009,141.11545810000098,141.11545810000098,141.11545810000098,144.11544039999717,144.11544039999717,144.11544039999717,144.09910829999717,shoe,j,1.1469441000081133,0.16663880000123754,144.09914829999616,144.09915759999421,None,,,,,,,,,,,,,,00022,001,2025-11-09_11h49.42.417,MST_task,2024.2.2,60.000132003041756,2025-11-09 11h49.51.061559 +0530,
,Objects\061a.jpg,12,0,12,,,,,,,j,1.2567356999934418,0.1742489000025671,None,,,,,,,12,0,12,0,144.11544039999717,,,,,,,,,,,,,,,,,,,,,,,144.09924650000175,144.11544039999717,144.61539279999852,144.59892289999698,,,,,,,,,,,,,,,,,,,,,,,,,,144.60097269999096,144.61539279999852,144.61539279999852,144.61539279999852,147.61535680000088,147.61535680000088,147.61535680000088,147.59891909999715,shoe,j,1.2567356999934418,0.1742489000025671,147.59895230000257,147.59896039999148,None,,,,,,,,,,,,,,00022,001,2025-11-09_11h49.42.417,MST_task,2024.2.2,60.000132003041756,2025-11-09 11h49.51.061559 +0530,
,Objects\025a.jpg,13,0,13,,,,,,,j,1.392160600007628,0.16854069998953491,None,,,,,,,13,0,13,0,147.61535680000088,,,,,,,,,,,,,,,,,,,,,,,147.59903879999183,147.61535680000088,148.1153529000003,148.09885999999824,,,,,,,,,,,,,,,,,,,,,,,,,,148.10109879999072,148.1153529000003,148.1153529000003,148.1153529000003,151.11527639999986,151.11527639999986,151.11527639999986,151.09894939999504,shoe,j,1.392160600007628,0.16854069998953491,151.09898480000265,151.0989935999969,None,,,,,,,,,,,,,,00022,001,2025-11-09_11h49.42.417,MST_task,2024.2.2,60.000132003041756,2025-11-09 11h49.51.061559 +0530,
,Objects\339a.jpg,14,0,14,,,,,,,j,2.0101873999956297,0.14936809999926481,None,,,,,,,14,0,14,0,151.11527639999986,,,,,,,,,,,,,,,,,,,,,,,151.09907679999014,151.11527639999986,151.63195409999753,151.59878580000077,,,,,,,,,,,,,,,,,,,,,,,,,,151.6247061000031,151.63195409999753,151.63195409999753,151.63195409999753,,,,154.61526340000273,indoor,j,2.0101873999956297,0.14936809999926481,154.61642619999475,154.61643729999196,None,,,,,,,,,,,,,,00022,001,2025-11-09_11h49.42.417,MST_task,2024.2.2,60.000132003041756,2025-11-09 11h49.51.061559 +0530,
,Objects\176a.jpg,15,0,15,,,,,,,j,0.9542469999869354,0.15025570000580046,None,,,,,,,15,0,15,0,154.63184079999337,,,,,,,,,,,,,,,,,,,,,,,154.61649309999484,154.63184079999337,155.13183449998905,155.1154574999964,,,,,,,,,,,,,,,,,,,,,,,,,,155.12087050000264,155.13183449998905,155.13183449998905,155.13183449998905,158.13183859999117,158.13183859999117,158.13183859999117,158.11545620000106,indoor,j,0.9542469999869354,0.15025570000580046,158.11549470000318,158.11550349999743,None,,,,,,,,,,,,,,00022,001,2025-11-09_11h49.42.417,MST_task,2024.2.2,60.000132003041756,2025-11-09 11h49.51.061559 +0530,
,Objects\192a.jpg,16,0,16,,,,,,,j,1.2665964999905555,0.15465660000336356,None,,,,,,,16,0,16,0,158.13183859999117,,,,,,,,,,,,,,,,,,,,,,,158.11556079999718,158.13183859999117,158.63175559999945,158.61526539998886,,,,,,,,,,,,,,,,,,,,,,,,,,158.61745409999276,158.63175559999945,158.63175559999945,158.63175559999945,161.63172479999776,161.63172479999776,161.63172479999776,161.6152596000029,indoor,j,1.2665964999905555,0.15465660000336356,161.61529560000054,161.61530449999555,None,,,,,,,,,,,,,,00022,001,2025-11-09_11h49.42.417,MST_task,2024.2.2,60.000132003041756,2025-11-09 11h49.51.061559 +0530,
,Objects\278a.jpg,17,0,17,,,,,,,f,0.9782760000089183,0.1585206999880029,None,,,,,,,17,0,17,0,161.63172479999776,,,,,,,,,,,,,,,,,,,,,,,161.615360900003,161.63172479999776,162.13172889999987,162.11522019999393,,,,,,,,,,,,,,,,,,,,,,,,,,162.12147719999484,162.13172889999987,162.13172889999987,162.13172889999987,165.13164359999064,165.13164359999064,165.13164359999064,165.11523429999943,indoor,f,0.9782760000089183,0.1585206999880029,165.1152759999968,165.1152856999979,None,,,,,,,,,,,,,,00022,001,2025-11-09_11h49.42.417,MST_task,2024.2.2,60.000132003041756,2025-11-09 11h49.51.061559 +0530,
,Objects\018a.jpg,18,0,18,,,,,,,j,0.9053725999983726,0.12455069999850821,None,,,,,,,18,0,18,0,165.13164359999064,,,,,,,,,,,,,,,,,,,,,,,165.1153462999937,165.13164359999064,165.631607000003,165.6152013999963,,,,,,,,,,,,,,,,,,,,,,,,,,165.62065469998925,165.631607000003,165.631607000003,165.631607000003,168.6315820000018,168.6315820000018,168.6315820000018,168.61512159999984,indoor,j,0.9053725999983726,0.12455069999850821,168.61515709999367,168.61516560000018,None,,,,,,,,,,,,,,00022,001,2025-11-09_11h49.42.417,MST_task,2024.2.2,60.000132003041756,2025-11-09 11h49.51.061559 +0530,
,Objects\135a.jpg,19,0,19,,,,,,,j,1.22143460001098,0.17376059999514837,None,,,,,,,19,0,19,0,168.6315820000018,,,,,,,,,,,,,,,,,,,,,,,168.6152185999963,168.6315820000018,169.13157579999825,169.1151486000017,,,,,,,,,,,,,,,,,,,,,,,,,,169.11711659999855,169.13157579999825,169.13157579999825,169.13157579999825,172.13147169999138,172.13147169999138,172.13147169999138,172.1150687999907,indoor,j,1.22143460001098,0.17376059999514837,172.11510359999374,172.11511230000178,None,,,,,,,,,,,,,,00022,001,2025-11-09_11h49.42.417,MST_task,2024.2.2,60.000132003041756,2025-11-09 11h49.51.061559 +0530,
,Objects\026a.jpg,20,0,20,,,,,,,j,1.2495048999990104,0.17733199999202043,None,,,,,,,20,0,20,0,172.13147169999138,,,,,,,,,,,,,,,,,,,,,,,172.1151669999963,172.13147169999138,172.6314934999973,172.61493090000295,,,,,,,,,,,,,,,,,,,,,,,,,,172.61689299999853,172.6314934999973,172.6314934999973,172.6314934999973,175.6314282999956,175.6314282999956,175.6314282999956,175.61500119999982,indoor,j,1.2495048999990104,0.17733199999202043,175.6150359000021,175.6150440999918,None,,,,,,,,,,,,,,00022,001,2025-11-09_11h49.42.417,MST_task,2024.2.2,60.000132003041756,2025-11-09 11h49.51.061559 +0530,
,Objects\378a.jpg,21,0,21,,,,,,,j,1.4374754000018584,0.15711289999308065,None,,,,,,,21,0,21,0,175.6314282999956,,,,,,,,,,,,,,,,,,,,,,,175.61509710000246,175.6314282999956,176.13137879999704,176.11490210000193,,,,,,,,,,,,,,,,,,,,,,,,,,176.11878569998953,176.13137879999704,176.13137879999704,176.13137879999704,179.1313594999956,179.1313594999956,179.1313594999956,179.1150226999889,shoe,j,1.4374754000018584,0.15711289999308065,179.11655409999366,179.1165650999901,None,,,,,,,,,,,,,,00022,001,2025-11-09_11h49.42.417,MST_task,2024.2.2,60.000132003041756,2025-11-09 11h49.51.061559 +0530,
,Objects\305a.jpg,22,0,22,,,,,,,f,2.095392000002903,0.16607459999795537,None,,,,,,,22,0,22,0,179.1313594999956,,,,,,,,,,,,,,,,,,,,,,,179.11662010000146,179.1313594999956,179.63130899998941,179.61483239999507,,,,,,,,,,,,,,,,,,,,,,,,,,179.61686749999353,179.63130899998941,179.63130899998941,179.63130899998941,182.63124349999998,182.63124349999998,182.63124349999998,182.61488209999516,shoe,f,2.095392000002903,0.16607459999795537,182.61492089999956,182.6149296999938,None,,,,,,,,,,,,,,00022,001,2025-11-09_11h49.42.417,MST_task,2024.2.2,60.000132003041756,2025-11-09 11h49.51.061559 +0530,
,Objects\279a.jpg,23,0,23,,,,,,,j,0.9867758999898797,0.1461134000128368,None,,,,,,,23,0,23,0,182.63124349999998,,,,,,,,,,,,,,,,,,,,,,,182.61498449998908,182.63124349999998,183.1312404999917,183.11477220000234,,,,,,,,,,,,,,,,,,,,,,,,,,183.11687769999844,183.1312404999917,183.1312404999917,183.1312404999917,186.13119679999363,186.13119679999363,186.13119679999363,186.11485929999617,shoe,j,0.9867758999898797,0.1461134000128368,186.11489299999084,186.1149013999966,None,,,,,,,,,,,,,,00022,001,2025-11-09_11h49.42.417,MST_task,2024.2.2,60.000132003041756,2025-11-09 11h49.51.061559 +0530,
,Objects\359a.jpg,24,0,24,,,,,,,f,1.3753348000027472,0.19035179998900276,None,,,,,,,24,0,24,0,186.13119679999363,,,,,,,,,,,,,,,,,,,,,,,186.11495360000117,186.13119679999363,186.63115780000226,186.61468139999488,,,,,,,,,,,,,,,,,,,,,,,,,,186.6207296999928,186.63115780000226,186.63115780000226,186.63115780000226,189.63112799999362,189.63112799999362,189.63112799999362,189.61470029999327,shoe,f,1.3753348000027472,0.19035179998900276,189.6147450999997,189.6147551000031,None,,,,,,,,,,,,,,00022,001,2025-11-09_11h49.42.417,MST_task,2024.2.2,60.000132003041756,2025-11-09 11h49.51.061559 +0530,
,Objects\207a.jpg,25,0,25,,,,,,,f,1.6737011999939568,0.16529170000285376,None,,,,,,,25,0,25,0,189.63112799999362,,,,,,,,,,,,,,,,,,,,,,,189.6148172999965,189.63112799999362,190.13116199999058,190.11478279999574,,,,,,,,,,,,,,,,,,,,,,,,,,190.1200744999951,190.13116199999058,190.13116199999058,190.13116199999058,193.13105329999235,193.13105329999235,193.13105329999235,193.11460039998929,shoe,f,1.6737011999939568,0.16529170000285376,193.11463379999623,193.11464210000122,None,,,,,,,,,,,,,,00022,001,2025-11-09_11h49.42.417,MST_task,2024.2.2,60.000132003041756,2025-11-09 11h49.51.061559 +0530,
,Objects\189a.jpg,26,0,26,,,,,,,j,0.9795582999940962,0.18217630000435747,None,,,,,,,26,0,26,0,193.13105329999235,,,,,,,,,,,,,,,,,,,,,,,193.11469279999437,193.13105329999235,193.63102980000258,193.6145286999963,,,,,,,,,,,,,,,,,,,,,,,,,,193.61998940000194,193.63102980000258,193.63102980000258,193.63102980000258,196.63097919999564,196.63097919999564,196.63097919999564,196.61453439999605,shoe,j,0.9795582999940962,0.18217630000435747,196.61456960000214,196.6145780999941,None,,,,,,,,,,,,,,00022,001,2025-11-09_11h49.42.417,MST_task,2024.2.2,60.000132003041756,2025-11-09 11h49.51.061559 +0530,
,Objects\366a.jpg,27,0,27,,,,,,,f,1.7118839000031585,0.16979119999450631,None,,,,,,,27,0,27,0,196.63097919999564,,,,,,,,,,,,,,,,,,,,,,,196.61466199999268,196.63097919999564,197.13094039999123,197.11448689999816,,,,,,,,,,,,,,,,,,,,,,,,,,197.1166782999935,197.13094039999123,197.13094039999123,197.13094039999123,200.13099009999132,200.13099009999132,200.13099009999132,200.11464819998946,shoe,f,1.7118839000031585,0.16979119999450631,200.1146907999937,200.11470029999327,None,,,,,,,,,,,,,,00022,001,2025-11-09_11h49.42.417,MST_task,2024.2.2,60.000132003041756,2025-11-09 11h49.51.061559 +0530,
,Objects\155a.jpg,28,0,28,,,,,,,f,2.001380899993819,0.178508500001044,None,,,,,,,28,0,28,0,200.13099009999132,,,,,,,,,,,,,,,,,,,,,,,200.11475890000293,200.13099009999132,200.6309573999897,200.61444829999527,,,,,,,,,,,,,,,,,,,,,,,,,,200.61768119999033,200.6309573999897,200.6309573999897,200.6309573999897,203.63086900000053,203.63086900000053,203.63086900000053,203.61439629999222,indoor,f,2.001380899993819,0.178508500001044,203.61554780000006,203.61555869999574,None,,,,,,,,,,,,,,00022,001,2025-11-09_11h49.42.417,MST_task,2024.2.2,60.000132003041756,2025-11-09 11h49.51.061559 +0530,
,Objects\047a.jpg,29,0,29,,,,,,,f,1.6452533999981824,0.18687160000263248,None,,,,,,,29,0,29,0,203.63086900000053,,,,,,,,,,,,,,,,,,,,,,,203.6156132999895,203.63086900000053,204.1308119000023,204.11429679999128,,,,,,,,,,,,,,,,,,,,,,,,,,204.11628659999405,204.1308119000023,204.1308119000023,204.1308119000023,207.1307555999956,207.1307555999956,207.1307555999956,207.1143502999912,indoor,f,1.6452533999981824,0.18687160000263248,207.11438709999493,207.11439639999298,None,,,,,,,,,,,,,,00022,001,2025-11-09_11h49.42.417,MST_task,2024.2.2,60.000132003041756,2025-11-09 11h49.51.061559 +0530,
,Objects\148a.jpg,30,0,30,,,,,,,f,2.2122672999976203,0.19906479999190196,None,,,,,,,30,0,30,0,207.1307555999956,,,,,,,,,,,,,,,,,,,,,,,207.11445699998876,207.1307555999956,207.630705699994,207.61425210000016,,,,,,,,,,,,,,,,,,,,,,,,,,207.6164826000022,207.630705699994,207.630705699994,207.630705699994,210.63071159999527,210.63071159999527,210.63071159999527,210.61427289999847,indoor,f,2.2122672999976203,0.19906479999190196,210.61430950000067,210.6143185999972,None,,,,,,,,,,,,,,00022,001,2025-11-09_11h49.42.417,MST_task,2024.2.2,60.000132003041756,2025-11-09 11h49.51.061559 +0530,
,Objects\260a.jpg,31,0,31,,,,,,,f,1.458267199996044,0.2046775000053458,None,,,,,,,31,0,31,0,210.63071159999527,,,,,,,,,,,,,,,,,,,,,,,210.61437339999247,210.63071159999527,211.13064560000203,211.11425440000312,,,,,,,,,,,,,,,,,,,,,,,,,,211.11891319999995,211.13064560000203,211.13064560000203,211.13064560000203,214.13059799998882,214.13059799998882,214.13059799998882,214.11419469999964,indoor,f,1.458267199996044,0.2046775000053458,214.1142387,214.11424779999652,None,,,,,,,,,,,,,,00022,001,2025-11-09_11h49.42.417,MST_task,2024.2.2,60.000132003041756,2025-11-09 11h49.51.061559 +0530,
,Objects\088a.jpg,32,0,32,,,,,,,f,1.0161951999907615,0.2015006000001449,None,,,,,,,32,0,32,0,214.13059799998882,,,,,,,,,,,,,,,,,,,,,,,214.11430760000076,214.13059799998882,214.63054879999254,214.61408829998982,,,,,,,,,,,,,,,,,,,,,,,,,,214.6192568999977,214.63054879999254,214.63054879999254,214.63054879999254,217.63051979999,217.63051979999,217.63051979999,217.61408669999219,indoor,f,1.0161951999907615,0.2015006000001449,217.61412359999667,217.61413170000014,None,,,,,,,,,,,,,,00022,001,2025-11-09_11h49.42.417,MST_task,2024.2.2,60.000132003041756,2025-11-09 11h49.51.061559 +0530,
,Objects\300a.jpg,33,0,33,,,,,,,j,2.1835640000062995,0.2235997999960091,None,,,,,,,33,0,33,0,217.63051979999,,,,,,,,,,,,,,,,,,,,,,,217.61418750000303,217.63051979999,218.13049599999795,218.11400989998947,,,,,,,,,,,,,,,,,,,,,,,,,,218.11903529999836,218.13049599999795,218.13049599999795,218.13049599999795,221.13048100000015,221.13048100000015,221.13048100000015,221.11407519999193,indoor,j,2.1835640000062995,0.2235997999960091,221.11410999999498,221.11411789999693,None,,,,,,,,,,,,,,00022,001,2025-11-09_11h49.42.417,MST_task,2024.2.2,60.000132003041756,2025-11-09 11h49.51.061559 +0530,
,Objects\246a.jpg,34,0,34,,,,,,,f,1.7545648999948753,0.1733313000004273,None,,,,,,,34,0,34,0,221.13048100000015,,,,,,,,,,,,,,,,,,,,,,,221.11417049999,221.13048100000015,221.63043779999134,221.6139761999948,,,,,,,,,,,,,,,,,,,,,,,,,,221.61915839998983,221.63043779999134,221.63043779999134,221.63043779999134,224.63038059999235,224.63038059999235,224.63038059999235,224.6139114999969,indoor,f,1.7545648999948753,0.1733313000004273,224.61394949999521,224.61395839999022,None,,,,,,,,,,,,,,00022,001,2025-11-09_11h49.42.417,MST_task,2024.2.2,60.000132003041756,2025-11-09 11h49.51.061559 +0530,
,Objects\107a.jpg,35,0,35,,,,,,,j,1.5384656000096584,0.1983602999971481,None,,,,,,,35,0,35,0,224.63038059999235,,,,,,,,,,,,,,,,,,,,,,,224.6140175999899,224.63038059999235,225.13036969999666,225.11402159999125,,,,,,,,,,,,,,,,,,,,,,,,,,225.1176495999971,225.13036969999666,225.13036969999666,225.13036969999666,228.13030479999725,228.13030479999725,228.13030479999725,228.1140749999904,shoe,j,1.5384656000096584,0.1983602999971481,228.11554420000175,228.11555499999668,None,,,,,,,,,,,,,,00022,001,2025-11-09_11h49.42.417,MST_task,2024.2.2,60.000132003041756,2025-11-09 11h49.51.061559 +0530,
,Objects\251a.jpg,36,0,36,,,,,,,f,1.1259858000121312,0.1894387999927858,None,,,,,,,36,0,36,0,228.13030479999725,,,,,,,,,,,,,,,,,,,,,,,228.11563649999152,228.13030479999725,228.63029619998997,228.61375979999139,,,,,,,,,,,,,,,,,,,,,,,,,,228.61776709998958,228.63029619998997,228.63029619998997,228.63029619998997,231.6302510999958,231.6302510999958,231.6302510999958,231.61389219999546,shoe,f,1.1259858000121312,0.1894387999927858,231.61392540000088,231.61393389999284,None,,,,,,,,,,,,,,00022,001,2025-11-09_11h49.42.417,MST_task,2024.2.2,60.000132003041756,2025-11-09 11h49.51.061559 +0530,
,Objects\202a.jpg,37,0,37,,,,,,,f,1.534402000004775,0.16565739999350626,None,,,,,,,37,0,37,0,231.6302510999958,,,,,,,,,,,,,,,,,,,,,,,231.6139877999958,231.6302510999958,232.13021469999512,232.113666499994,,,,,,,,,,,,,,,,,,,,,,,,,,232.11635689999093,232.13021469999512,232.13021469999512,232.13021469999512,235.13012889999663,235.13012889999663,235.13012889999663,235.11371549998876,shoe,f,1.534402000004775,0.16565739999350626,235.1137510999979,235.11375969999062,None,,,,,,,,,,,,,,00022,001,2025-11-09_11h49.42.417,MST_task,2024.2.2,60.000132003041756,2025-11-09 11h49.51.061559 +0530,
,Objects\173a.jpg,38,0,38,,,,,,,f,1.6064878000033787,0.18425900000147521,None,,,,,,,38,0,38,0,235.13012889999663,,,,,,,,,,,,,,,,,,,,,,,235.1138146000012,235.13012889999663,235.63009849999798,235.61371049999434,,,,,,,,,,,,,,,,,,,,,,,,,,235.61916979998932,235.63009849999798,235.63009849999798,235.63009849999798,238.63003669999307,238.63003669999307,238.63003669999307,238.61365749999823,shoe,f,1.6064878000033787,0.18425900000147521,238.61369399999967,238.6137022999901,None,,,,,,,,,,,,,,00022,001,2025-11-09_11h49.42.417,MST_task,2024.2.2,60.000132003041756,2025-11-09 11h49.51.061559 +0530,
,Objects\372a.jpg,39,0,39,,,,,,,j,1.8343616999918595,0.1868094000092242,None,,,,,,,39,0,39,0,238.63003669999307,,,,,,,,,,,,,,,,,,,,,,,238.6137824999896,238.63003669999307,239.1300343999901,239.11370069999248,,,,,,,,,,,,,,,,,,,,,,,,,,239.11889859999064,239.1300343999901,239.1300343999901,239.1300343999901,242.12996659999772,242.12996659999772,242.12996659999772,242.11367150000297,shoe,j,1.8343616999918595,0.1868094000092242,242.11370560000069,242.11371379999036,None,,,,,,,,,,,,,,00022,001,2025-11-09_11h49.42.417,MST_task,2024.2.2,60.000132003041756,2025-11-09 11h49.51.061559 +0530,
,Objects\266a.jpg,40,0,40,,,,,,,f,1.5910599999915576,0.13745059999928344,None,,,,,,,40,0,40,0,242.12996659999772,,,,,,,,,,,,,,,,,,,,,,,242.1137699999963,242.12996659999772,242.62994980000076,242.6135867999983,,,,,,,,,,,,,,,,,,,,,,,,,,242.61909860000014,242.62994980000076,242.62994980000076,242.62994980000076,245.6299255999911,245.6299255999911,245.6299255999911,245.61354069999652,shoe,f,1.5910599999915576,0.13745059999928344,245.6135787999956,245.61358740000287,None,,,,,,,,,,,,,,00022,001,2025-11-09_11h49.42.417,MST_task,2024.2.2,60.000132003041756,2025-11-09 11h49.51.061559 +0530,
,Objects\141a.jpg,41,0,41,,,,,,,j,1.250016499994672,0.1429290999949444,None,,,,,,,41,0,41,0,245.6299255999911,,,,,,,,,,,,,,,,,,,,,,,245.61364519999188,245.6299255999911,246.12987900000007,246.11354229999415,,,,,,,,,,,,,,,,,,,,,,,,,,246.11893909999344,246.12987900000007,246.12987900000007,246.12987900000007,249.12984829999914,249.12984829999914,249.12984829999914,249.11351979999745,shoe,j,1.250016499994672,0.1429290999949444,249.1135590999911,249.11356769999838,None,,,,,,,,,,,,,,00022,001,2025-11-09_11h49.42.417,MST_task,2024.2.2,60.000132003041756,2025-11-09 11h49.51.061559 +0530,
,Objects\342a.jpg,42,0,42,,,,,,,f,2.164964299998246,0.17727329999615904,None,,,,,,,42,0,42,0,249.12984829999914,,,,,,,,,,,,,,,,,,,,,,,249.11362329999974,249.12984829999914,249.62979639999685,249.61344879999524,,,,,,,,,,,,,,,,,,,,,,,,,,249.61644179999712,249.62979639999685,249.62979639999685,249.62979639999685,252.6297659999982,252.6297659999982,252.6297659999982,252.61348590000125,indoor,f,2.164964299998246,0.17727329999615904,252.6146868999931,252.61469809999107,None,,,,,,,,,,,,,,00022,001,2025-11-09_11h49.42.417,MST_task,2024.2.2,60.000132003041756,2025-11-09 11h49.51.061559 +0530,
,Objects\154a.jpg,43,0,43,,,,,,,f,1.9812947000027634,0.20509950000268873,None,,,,,,,43,0,43,0,252.6297659999982,,,,,,,,,,,,,,,,,,,,,,,252.6147529000009,252.6297659999982,253.12973089999286,253.1132682999887,,,,,,,,,,,,,,,,,,,,,,,,,,253.11552039999515,253.12973089999286,253.12973089999286,253.12973089999286,256.12969950000115,256.12969950000115,256.12969950000115,256.1133617000014,indoor,f,1.9812947000027634,0.20509950000268873,256.11340570000175,256.1134149999998,None,,,,,,,,,,,,,,00022,001,2025-11-09_11h49.42.417,MST_task,2024.2.2,60.000132003041756,2025-11-09 11h49.51.061559 +0530,
,Objects\152a.jpg,44,0,44,,,,,,,f,1.9435056999936933,0.19332800000847783,None,,,,,,,44,0,44,0,256.12969950000115,,,,,,,,,,,,,,,,,,,,,,,256.11347650000243,256.12969950000115,256.6296503999911,256.61335279999184,,,,,,,,,,,,,,,,,,,,,,,,,,256.6157011000032,256.6296503999911,256.6296503999911,256.6296503999911,259.62962320000224,259.62962320000224,259.62962320000224,259.6133046999894,indoor,f,1.9435056999936933,0.19332800000847783,259.61334409999836,259.61335299999337,None,,,,,,,,,,,,,,00022,001,2025-11-09_11h49.42.417,MST_task,2024.2.2,60.000132003041756,2025-11-09 11h49.51.061559 +0530,
,Objects\146a.jpg,45,0,45,,,,,,,j,2.081112399988342,0.211790800007293,None,,,,,,,45,0,45,0,259.62962320000224,,,,,,,,,,,,,,,,,,,,,,,259.61341150000226,259.62962320000224,260.12957330000063,260.1132338999887,,,,,,,,,,,,,,,,,,,,,,,,,,260.1152774999937,260.12957330000063,260.12957330000063,260.12957330000063,263.1295720999915,263.1295720999915,263.1295720999915,263.1132790999982,indoor,j,2.081112399988342,0.211790800007293,263.1133151999966,263.1133237000031,None,,,,,,,,,,,,,,00022,001,2025-11-09_11h49.42.417,MST_task,2024.2.2,60.000132003041756,2025-11-09 11h49.51.061559 +0530,
,Objects\005a.jpg,46,0,46,,,,,,,f,1.1653004000108922,0.189883999992162,None,,,,,,,46,0,46,0,263.1295720999915,,,,,,,,,,,,,,,,,,,,,,,263.1133770000015,263.1295720999915,263.62950249999994,263.6131800000003,,,,,,,,,,,,,,,,,,,,,,,,,,263.6153423999931,263.62950249999994,263.62950249999994,263.62950249999994,266.6294763999904,266.6294763999904,266.6294763999904,266.61307389999274,indoor,f,1.1653004000108922,0.189883999992162,266.6131095000019,266.61311819999537,None,,,,,,,,,,,,,,00022,001,2025-11-09_11h49.42.417,MST_task,2024.2.2,60.000132003041756,2025-11-09 11h49.51.061559 +0530,
,Objects\188a.jpg,47,0,47,,,,,,,f,1.2121040000056382,0.20080859999870881,None,,,,,,,47,0,47,0,266.6294763999904,,,,,,,,,,,,,,,,,,,,,,,266.6131733999937,266.6294763999904,267.1294981999963,267.1130759999942,,,,,,,,,,,,,,,,,,,,,,,,,,267.11506250000093,267.1294981999963,267.1294981999963,267.1294981999963,270.1293934999994,270.1293934999994,270.1293934999994,270.11296699999366,indoor,f,1.2121040000056382,0.20080859999870881,270.11300119999214,270.1130097999994,None,,,,,,,,,,,,,,00022,001,2025-11-09_11h49.42.417,MST_task,2024.2.2,60.000132003041756,2025-11-09 11h49.51.061559 +0530,
,Objects\262a.jpg,48,0,48,,,,,,,j,1.5707372999895597,0.17401290000998415,None,,,,,,,48,0,48,0,270.1293934999994,,,,,,,,,,,,,,,,,,,,,,,270.1130620999902,270.1293934999994,270.62934879999375,270.61288659999263,,,,,,,,,,,,,,,,,,,,,,,,,,270.6174396999995,270.62934879999375,270.62934879999375,270.62934879999375,273.629322599998,273.629322599998,273.629322599998,273.6129302999907,indoor,j,1.5707372999895597,0.17401290000998415,273.61296849999053,273.6129774000001,None,,,,,,,,,,,,,,00022,001,2025-11-09_11h49.42.417,MST_task,2024.2.2,60.000132003041756,2025-11-09 11h49.51.061559 +0530,
,Objects\204a.jpg,49,0,49,,,,,,,f,2.743196800001897,0.1743434999953024,None,,,,,,,49,0,49,0,273.629322599998,,,,,,,,,,,,,,,,,,,,,,,273.61303469999984,273.629322599998,274.1292761999939,274.11287539999466,,,,,,,,,,,,,,,,,,,,,,,,,,274.1197359999933,274.1292761999939,274.1292761999939,274.1292761999939,277.1292075999954,277.1292075999954,277.1292075999954,277.11305220000213,shoe,f,2.743196800001897,0.1743434999953024,277.11452960000315,277.11454049999884,None,,,,,,,,,,,,,,00022,001,2025-11-09_11h49.42.417,MST_task,2024.2.2,60.000132003041756,2025-11-09 11h49.51.061559 +0530,
,Objects\247a.jpg,50,0,50,,,,,,,f,2.14171830000123,0.1695620999962557,None,,,,,,,50,0,50,0,277.1292075999954,,,,,,,,,,,,,,,,,,,,,,,277.1145972999948,277.1292075999954,277.62921259998984,277.6128115999891,,,,,,,,,,,,,,,,,,,,,,,,,,277.61800550000044,277.62921259998984,277.62921259998984,277.62921259998984,280.62917390000075,280.62917390000075,280.62917390000075,280.61274549999507,shoe,f,2.14171830000123,0.1695620999962557,280.61277949999203,280.6127880999993,None,,,,,,,,,,,,,,00022,001,2025-11-09_11h49.42.417,MST_task,2024.2.2,60.000132003041756,2025-11-09 11h49.51.061559 +0530,
,Objects\261a.jpg,51,0,51,,,,,,,f,1.2952903999976115,0.17422430000442546,None,,,,,,,51,0,51,0,280.62917390000075,,,,,,,,,,,,,,,,,,,,,,,280.61284210000304,280.62917390000075,281.1291299000004,281.11275580000074,,,,,,,,,,,,,,,,,,,,,,,,,,281.11808010000095,281.1291299000004,281.1291299000004,281.1291299000004,284.12909539999964,284.12909539999964,284.12909539999964,284.11274139999296,shoe,f,1.2952903999976115,0.17422430000442546,284.1127795999928,284.1127884000016,None,,,,,,,,,,,,,,00022,001,2025-11-09_11h49.42.417,MST_task,2024.2.2,60.000132003041756,2025-11-09 11h49.51.061559 +0530,
,Objects\191a.jpg,52,0,52,,,,,,,f,1.5456655000016326,0.1738106999982847,None,,,,,,,52,0,52,0,284.12909539999964,,,,,,,,,,,,,,,,,,,,,,,284.1128411999962,284.12909539999964,284.62909409998974,284.61268669999845,,,,,,,,,,,,,,,,,,,,,,,,,,284.6178555999941,284.62909409998974,284.62909409998974,284.62909409998974,287.6290231000021,287.6290231000021,287.6290231000021,287.61270469999,shoe,f,1.5456655000016326,0.1738106999982847,287.6127387000015,287.6127468999912,None,,,,,,,,,,,,,,00022,001,2025-11-09_11h49.42.417,MST_task,2024.2.2,60.000132003041756,2025-11-09 11h49.51.061559 +0530,
,Objects\286a.jpg,53,0,53,,,,,,,j,1.3171361999993678,0.15006289999291766,None,,,,,,,53,0,53,0,287.6290231000021,,,,,,,,,,,,,,,,,,,,,,,287.61283179999737,287.6290231000021,288.12902139998914,288.1125936000026,,,,,,,,,,,,,,,,,,,,,,,,,,288.11672499999986,288.12902139998914,288.12902139998914,288.12902139998914,291.12894409999717,291.12894409999717,291.12894409999717,291.1125248000026,shoe,j,1.3171361999993678,0.15006289999291766,291.1125577999919,291.11256599999615,None,,,,,,,,,,,,,,00022,001,2025-11-09_11h49.42.417,MST_task,2024.2.2,60.000132003041756,2025-11-09 11h49.51.061559 +0530,
,Objects\087a.jpg,54,0,54,,,,,,,j,1.3218084999971325,0.1459715000091819,None,,,,,,,54,0,54,0,291.12894409999717,,,,,,,,,,,,,,,,,,,,,,,291.1126202000014,291.12894409999717,291.62893749999057,291.61241940000036,,,,,,,,,,,,,,,,,,,,,,,,,,291.6172583000007,291.62893749999057,291.62893749999057,291.62893749999057,294.628867899999,294.628867899999,294.628867899999,294.6124256999901,shoe,j,1.3218084999971325,0.1459715000091819,294.6124639999907,294.61247419999563,None,,,,,,,,,,,,,,00022,001,2025-11-09_11h49.42.417,MST_task,2024.2.2,60.000132003041756,2025-11-09 11h49.51.061559 +0530,
,Objects\131a.jpg,55,0,55,,,,,,,f,1.5238975000102073,0.1532252999895718,None,,,,,,,55,0,55,0,294.628867899999,,,,,,,,,,,,,,,,,,,,,,,294.6125647000008,294.628867899999,295.1288668999914,295.1123133999936,,,,,,,,,,,,,,,,,,,,,,,,,,295.11457969999174,295.1288668999914,295.1288668999914,295.1288668999914,298.1287951999984,298.1287951999984,298.1287951999984,298.1124015999958,shoe,f,1.5238975000102073,0.1532252999895718,298.11243899998954,298.11244830000214,None,,,,,,,,,,,,,,00022,001,2025-11-09_11h49.42.417,MST_task,2024.2.2,60.000132003041756,2025-11-09 11h49.51.061559 +0530,
,Objects\292a.jpg,56,0,56,,,,,,,j,1.9118816999980481,0.13764229998923838,None,,,,,,,56,0,56,0,298.1287951999984,,,,,,,,,,,,,,,,,,,,,,,298.1125061999919,298.1287951999984,298.6287816999975,298.6123523999995,,,,,,,,,,,,,,,,,,,,,,,,,,298.61740199998894,298.6287816999975,298.6287816999975,298.6287816999975,301.6286851999903,301.6286851999903,301.6286851999903,301.61241859999427,indoor,j,1.9118816999980481,0.13764229998923838,301.61363419999543,301.6136455999949,None,,,,,,,,,,,,,,00022,001,2025-11-09_11h49.42.417,MST_task,2024.2.2,60.000132003041756,2025-11-09 11h49.51.061559 +0530,
,Objects\195a.jpg,57,0,57,,,,,,,j,2.681318899994949,0.16306649999751244,None,,,,,,,57,0,57,0,301.6286851999903,,,,,,,,,,,,,,,,,,,,,,,301.6137002000032,301.6286851999903,302.12868119998893,302.1122272999928,,,,,,,,,,,,,,,,,,,,,,,,,,302.1174284000008,302.12868119998893,302.12868119998893,302.12868119998893,305.12861119999434,305.12861119999434,305.12861119999434,305.11223020000034,indoor,j,2.681318899994949,0.16306649999751244,305.11226499998884,305.11227319999307,None,,,,,,,,,,,,,,00022,001,2025-11-09_11h49.42.417,MST_task,2024.2.2,60.000132003041756,2025-11-09 11h49.51.061559 +0530,
,Objects\358a.jpg,58,0,58,,,,,,,f,1.3779565000004368,0.10986909999337513,None,,,,,,,58,0,58,0,305.12861119999434,,,,,,,,,,,,,,,,,,,,,,,305.1123280000029,305.12861119999434,305.6286009000032,305.6121468999918,,,,,,,,,,,,,,,,,,,,,,,,,,305.61739089999173,305.6286009000032,305.6286009000032,305.6286009000032,308.6285717999999,308.6285717999999,308.6285717999999,308.61223210000026,indoor,f,1.3779565000004368,0.10986909999337513,308.61226939999324,308.612278399989,None,,,,,,,,,,,,,,00022,001,2025-11-09_11h49.42.417,MST_task,2024.2.2,60.000132003041756,2025-11-09 11h49.51.061559 +0530,
,Objects\220a.jpg,59,0,59,,,,,,,j,1.3761597999982769,0.15667290000419598,None,,,,,,,59,0,59,0,308.6285717999999,,,,,,,,,,,,,,,,,,,,,,,308.6123327999958,308.6285717999999,309.12852790000034,309.11203699999896,,,,,,,,,,,,,,,,,,,,,,,,,,309.1174042999919,309.12852790000034,309.12852790000034,309.12852790000034,312.12848909999593,312.12848909999593,312.12848909999593,312.1121870999923,indoor,j,1.3761597999982769,0.15667290000419598,312.11222159999306,312.1122299999988,None,,,,,,,,,,,,,,00022,001,2025-11-09_11h49.42.417,MST_task,2024.2.2,60.000132003041756,2025-11-09 11h49.51.061559 +0530,
,Objects\052a.jpg,60,0,60,,,,,,,j,1.975713200008613,0.14596680000249762,None,,,,,,,60,0,60,0,312.12848909999593,,,,,,,,,,,,,,,,,,,,,,,312.1122864999925,312.12848909999593,312.6284495,312.61194029999024,,,,,,,,,,,,,,,,,,,,,,,,,,312.61671580000257,312.6284495,312.6284495,312.6284495,315.62842239999736,315.62842239999736,315.62842239999736,315.6120563000004,indoor,j,1.975713200008613,0.14596680000249762,315.6120981999993,315.6121079000004,None,,,,,,,,,,,,,,00022,001,2025-11-09_11h49.42.417,MST_task,2024.2.2,60.000132003041756,2025-11-09 11h49.51.061559 +0530,
,Objects\355a.jpg,61,0,61,,,,,,,j,1.4486462000058964,0.14919189999636728,None,,,,,,,61,0,61,0,315.62842239999736,,,,,,,,,,,,,,,,,,,,,,,315.61216299999796,315.62842239999736,316.1283800999954,316.11186720000114,,,,,,,,,,,,,,,,,,,,,,,,,,316.1170538000006,316.1283800999954,316.1283800999954,316.1283800999954,319.12834250000014,319.12834250000014,319.12834250000014,319.11189410000225,indoor,j,1.4486462000058964,0.14919189999636728,319.11192889999074,319.11193739999726,None,,,,,,,,,,,,,,00022,001,2025-11-09_11h49.42.417,MST_task,2024.2.2,60.000132003041756,2025-11-09 11h49.51.061559 +0530,
,Objects\288a.jpg,62,0,62,,,,,,,f,1.2474023000104353,0.17791810000198893,None,,,,,,,62,0,62,0,319.12834250000014,,,,,,,,,,,,,,,,,,,,,,,319.1119956999901,319.12834250000014,319.64496879999933,319.61194219999015,,,,,,,,,,,,,,,,,,,,,,,,,,319.637103999994,319.64496879999933,319.64496879999933,319.64496879999933,,,,322.6283274000016,indoor,f,1.2474023000104353,0.17791810000198893,322.6283678999898,322.62837749999017,None,,,,,,,,,,,,,,00022,001,2025-11-09_11h49.42.417,MST_task,2024.2.2,60.000132003041756,2025-11-09 11h49.51.061559 +0530,
,Objects\373a.jpg,63,0,63,,,,,,,j,1.6117784999951255,0.1616251000086777,None,,,,,,,63,0,63,0,322.6450083999953,,,,,,,,,,,,,,,,,,,,,,,322.6284391999943,322.6450083999953,323.1448929999897,323.1284158999915,,,,,,,,,,,,,,,,,,,,,,,,,,323.1347093999939,323.1448929999897,323.1448929999897,323.1448929999897,326.14486580000084,326.14486580000084,326.14486580000084,326.12855449999915,shoe,j,1.6117784999951255,0.1616251000086777,326.1301300999912,326.1301409000007,None,,,,,,,,,,,,,,00022,001,2025-11-09_11h49.42.417,MST_task,2024.2.2,60.000132003041756,2025-11-09 11h49.51.061559 +0530,
,Objects\226a.jpg,64,0,64,,,,,,,f,1.5712838000035845,0.1461120000021765,None,,,,,,,64,0,64,0,326.14486580000084,,,,,,,,,,,,,,,,,,,,,,,326.13022710000223,326.14486580000084,326.64482119999593,326.62830899999244,,,,,,,,,,,,,,,,,,,,,,,,,,326.6330653999903,326.64482119999593,326.64482119999593,326.64482119999593,329.64481869999145,329.64481869999145,329.64481869999145,329.628455099999,shoe,f,1.5712838000035845,0.1461120000021765,329.62849289999576,329.62850120000076,None,,,,,,,,,,,,,,00022,001,2025-11-09_11h49.42.417,MST_task,2024.2.2,60.000132003041756,2025-11-09 11h49.51.061559 +0530,
,Objects\124a.jpg,65,0,65,,,,,,,j,1.4574391000060132,0.14220499999646563,None,,,,,,,65,0,65,0,329.64481869999145,,,,,,,,,,,,,,,,,,,,,,,329.6285579999967,329.64481869999145,330.1447397000011,330.1283846000006,,,,,,,,,,,,,,,,,,,,,,,,,,330.133714999989,330.1447397000011,330.1447397000011,330.1447397000011,333.1447122999962,333.1447122999962,333.1447122999962,333.12831729999743,shoe,j,1.4574391000060132,0.14220499999646563,333.1283570999949,333.1283676000021,None,,,,,,,,,,,,,,00022,001,2025-11-09_11h49.42.417,MST_task,2024.2.2,60.000132003041756,2025-11-09 11h49.51.061559 +0530,
,Objects\267a.jpg,66,0,66,,,,,,,j,1.6079024000064237,0.16243060000124387,None,,,,,,,66,0,66,0,333.1447122999962,,,,,,,,,,,,,,,,,,,,,,,333.1284546999959,333.1447122999962,333.64466659999744,333.6283223999926,,,,,,,,,,,,,,,,,,,,,,,,,,333.63398159999633,333.64466659999744,333.64466659999744,333.64466659999744,336.64464079999016,336.64464079999016,336.64464079999016,336.6282193999941,shoe,j,1.6079024000064237,0.16243060000124387,336.62825369999337,336.62826250000217,None,,,,,,,,,,,,,,00022,001,2025-11-09_11h49.42.417,MST_task,2024.2.2,60.000132003041756,2025-11-09 11h49.51.061559 +0530,
,Objects\075a.jpg,67,0,67,,,,,,,f,2.3778786000038963,0.1619139999966137,None,,,,,,,67,0,67,0,336.64464079999016,,,,,,,,,,,,,,,,,,,,,,,336.62834139999177,336.64464079999016,337.1445878999948,337.1282069000008,,,,,,,,,,,,,,,,,,,,,,,,,,337.13329389999853,337.1445878999948,337.1445878999948,337.1445878999948,340.1445657000004,340.1445657000004,340.1445657000004,340.12815409999166,shoe,f,2.3778786000038963,0.1619139999966137,340.12819149999996,340.1282005999965,None,,,,,,,,,,,,,,00022,001,2025-11-09_11h49.42.417,MST_task,2024.2.2,60.000132003041756,2025-11-09 11h49.51.061559 +0530,
,Objects\211a.jpg,68,0,68,,,,,,,None,,,f,0.471867399988696,None,,,,,68,0,68,0,340.1445657000004,,,,,,,,,,,,,,,,,,,,,,,340.1282954999915,340.1445657000004,340.6445526999887,340.6280568999937,,,,,,,,,,,,,,,,,,,,,,,,,,340.6328297,340.6445526999887,340.6445526999887,340.6445526999887,343.6444926999975,343.6444926999975,343.6444926999975,343.6280964999896,shoe,None,,,343.6281258999952,344.12823679999565,f,343.6444926999975,343.6444926999975,0.471867399988696,None,,,,,,,,,,00022,001,2025-11-09_11h49.42.417,MST_task,2024.2.2,60.000132003041756,2025-11-09 11h49.51.061559 +0530,
,Objects\374a.jpg,69,0,69,,,,,,,f,1.403973099993891,0.1858088000008138,None,,,,,,,69,0,69,0,344.1444993999903,,,,,,,,,,,,,,,,,,,,,,,344.12831509999523,344.1444993999903,344.64443119999487,344.62803829999757,,,,,,,,,,,,,,,,,,,,,,,,,,344.63350640000135,344.64443119999487,344.64443119999487,344.64443119999487,347.6444027999969,347.6444027999969,347.6444027999969,347.62799890000315,shoe,f,1.403973099993891,0.1858088000008138,347.6280349000008,347.628043299992,None,,,,,,,,,,,,,,00022,001,2025-11-09_11h49.42.417,MST_task,2024.2.2,60.000132003041756,2025-11-09 11h49.51.061559 +0530,
,Objects\140a.jpg,70,0,70,,,,,,,f,2.4266421000065748,0.16182839999964926,None,,,,,,,70,0,70,0,347.6444027999969,,,,,,,,,,,,,,,,,,,,,,,347.6281219999946,347.6444027999969,348.14436099999875,348.127903399989,,,,,,,,,,,,,,,,,,,,,,,,,,348.134289900001,348.14436099999875,348.14436099999875,348.14436099999875,351.14435849999427,351.14435849999427,351.14435849999427,351.12795399999595,indoor,f,2.4266421000065748,0.16182839999964926,351.12923419999424,351.1292467000021,None,,,,,,,,,,,,,,00022,001,2025-11-09_11h49.42.417,MST_task,2024.2.2,60.000132003041756,2025-11-09 11h49.51.061559 +0530,
,Objects\104a.jpg,71,0,71,,,,,,,j,2.0489631999953417,0.19644509999488946,None,,,,,,,71,0,71,0,351.14435849999427,,,,,,,,,,,,,,,,,,,,,,,351.1293078000017,351.14435849999427,351.6443067999935,351.6278825999907,,,,,,,,,,,,,,,,,,,,,,,,,,351.62990659999195,351.6443067999935,351.6443067999935,351.6443067999935,354.6443162999931,354.6443162999931,354.6443162999931,354.627816799999,indoor,j,2.0489631999953417,0.19644509999488946,354.6278527999966,354.6278603999963,None,,,,,,,,,,,,,,00022,001,2025-11-09_11h49.42.417,MST_task,2024.2.2,60.000132003041756,2025-11-09 11h49.51.061559 +0530,
,Objects\117a.jpg,72,0,72,,,,,,,j,1.8877429999993183,0.21633660000225063,None,,,,,,,72,0,72,0,354.6443162999931,,,,,,,,,,,,,,,,,,,,,,,354.6279141999985,354.6443162999931,355.14431639999384,355.1279349999968,,,,,,,,,,,,,,,,,,,,,,,,,,355.13015959999757,355.14431639999384,355.14431639999384,355.14431639999384,358.1441744999902,358.1441744999902,358.1441744999902,358.1277379999956,indoor,j,1.8877429999993183,0.21633660000225063,358.12777639999695,358.1277859999973,None,,,,,,,,,,,,,,00022,001,2025-11-09_11h49.42.417,MST_task,2024.2.2,60.000132003041756,2025-11-09 11h49.51.061559 +0530,
,Objects\092a.jpg,73,0,73,,,,,,,None,,,j,1.6783729000017047,None,,,,,73,0,73,0,358.1441744999902,,,,,,,,,,,,,,,,,,,,,,,358.12784210000245,358.1441744999902,358.64413570000033,358.62765689998923,,,,,,,,,,,,,,,,,,,,,,,,,,358.62974140000006,358.64413570000033,358.64413570000033,358.64413570000033,361.644103899991,361.644103899991,361.644103899991,361.6276732999977,indoor,None,,,361.62770399999863,363.3278028999921,j,361.644103899991,361.644103899991,1.6783729000017047,None,,,,,,,,,,00022,001,2025-11-09_11h49.42.417,MST_task,2024.2.2,60.000132003041756,2025-11-09 11h49.51.061559 +0530,
,Objects\171a.jpg,74,0,74,,,,,,,f,1.546459600009257,0.15398930000083055,None,,,,,,,74,0,74,0,363.34407530000317,,,,,,,,,,,,,,,,,,,,,,,363.3278788000025,363.34407530000317,363.8440937999985,363.82761159999063,,,,,,,,,,,,,,,,,,,,,,,,,,363.829636399998,363.8440937999985,363.8440937999985,363.8440937999985,366.8439864999964,366.8439864999964,366.8439864999964,366.8275766000006,indoor,f,1.546459600009257,0.15398930000083055,366.8276119999937,366.82762060000096,None,,,,,,,,,,,,,,00022,001,2025-11-09_11h49.42.417,MST_task,2024.2.2,60.000132003041756,2025-11-09 11h49.51.061559 +0530,
,Objects\383a.jpg,75,0,75,,,,,,,f,2.2487200000032317,0.17009889999462757,None,,,,,,,75,0,75,0,366.8439864999964,,,,,,,,,,,,,,,,,,,,,,,366.82767529999546,366.8439864999964,367.3439396999893,367.3276244000008,,,,,,,,,,,,,,,,,,,,,,,,,,367.3325610000029,367.3439396999893,367.3439396999893,367.3439396999893,370.343878899992,370.343878899992,370.343878899992,370.3275194000016,indoor,f,2.2487200000032317,0.17009889999462757,370.3275522999902,370.32755989998986,None,,,,,,,,,,,,,,00022,001,2025-11-09_11h49.42.417,MST_task,2024.2.2,60.000132003041756,2025-11-09 11h49.51.061559 +0530,
,Objects\367a.jpg,76,0,76,,,,,,,f,1.3944014999869978,0.14234900000155903,None,,,,,,,76,0,76,0,370.343878899992,,,,,,,,,,,,,,,,,,,,,,,370.3276121999952,370.343878899992,370.8438642999972,370.8274431999889,,,,,,,,,,,,,,,,,,,,,,,,,,370.8317992999946,370.8438642999972,370.8438642999972,370.8438642999972,373.84382639999967,373.84382639999967,373.84382639999967,373.82743720000144,indoor,f,1.3944014999869978,0.14234900000155903,373.8274736000021,373.82748189999256,None,,,,,,,,,,,,,,00022,001,2025-11-09_11h49.42.417,MST_task,2024.2.2,60.000132003041756,2025-11-09 11h49.51.061559 +0530,
,Objects\091a.jpg,77,0,77,,,,,,,j,1.2610255000035977,0.1424570999952266,None,,,,,,,77,0,77,0,373.84382639999967,,,,,,,,,,,,,,,,,,,,,,,373.8275341999979,373.84382639999967,374.34379739999713,374.3273409999965,,,,,,,,,,,,,,,,,,,,,,,,,,374.3342219999904,374.34379739999713,374.34379739999713,374.34379739999713,377.34376989999146,377.34376989999146,377.34376989999146,377.32747609999205,shoe,j,1.2610255000035977,0.1424570999952266,377.32902170000307,377.32903310000256,None,,,,,,,,,,,,,,00022,001,2025-11-09_11h49.42.417,MST_task,2024.2.2,60.000132003041756,2025-11-09 11h49.51.061559 +0530,
,Objects\331a.jpg,78,0,78,,,,,,,None,,,j,1.7303325000102632,None,,,,,78,0,78,0,377.34376989999146,,,,,,,,,,,,,,,,,,,,,,,377.32911500000046,377.34376989999146,377.8437908999913,377.82745189999696,,,,,,,,,,,,,,,,,,,,,,,,,,377.8325748999923,377.8437908999913,377.8437908999913,377.8437908999913,380.8436950000032,380.8436950000032,380.8436950000032,380.82727480000176,shoe,None,,,380.82731539999077,382.5773238999973,j,380.8436950000032,380.8436950000032,1.7303325000102632,None,,,,,,,,,,00022,001,2025-11-09_11h49.42.417,MST_task,2024.2.2,60.000132003041756,2025-11-09 11h49.51.061559 +0530,
,Objects\033a.jpg,79,0,79,,,,,,,f,1.7545724999945378,0.14628080000693444,None,,,,,,,79,0,79,0,382.59365339999204,,,,,,,,,,,,,,,,,,,,,,,382.5773984999978,382.59365339999204,383.09360670000024,383.0772360999981,,,,,,,,,,,,,,,,,,,,,,,,,,383.0822382999904,383.09360670000024,383.09360670000024,383.09360670000024,386.09357679999084,386.09357679999084,386.09357679999084,386.07716499999515,shoe,f,1.7545724999945378,0.14628080000693444,386.0772070999956,386.0772159999906,None,,,,,,,,,,,,,,00022,001,2025-11-09_11h49.42.417,MST_task,2024.2.2,60.000132003041756,2025-11-09 11h49.51.061559 +0530,
,Objects\236a.jpg,80,0,80,,,,,,,f,2.503064499993343,0.15511720000358764,None,,,,,,,80,0,80,0,386.09357679999084,,,,,,,,,,,,,,,,,,,,,,,386.0772711999889,386.09357679999084,386.59357029999956,386.5772022000019,,,,,,,,,,,,,,,,,,,,,,,,,,386.58387159999984,386.59357029999956,386.59357029999956,386.59357029999956,389.59350239999185,389.59350239999185,389.59350239999185,389.57706009999674,shoe,f,2.503064499993343,0.15511720000358764,389.5771004999988,389.5771093999938,None,,,,,,,,,,,,,,00022,001,2025-11-09_11h49.42.417,MST_task,2024.2.2,60.000132003041756,2025-11-09 11h49.51.061559 +0530,
,Objects\181a.jpg,81,0,81,,,,,,,j,1.9010879999987083,0.1128830000088783,None,,,,,,,81,0,81,0,389.59350239999185,,,,,,,,,,,,,,,,,,,,,,,389.57716960000107,389.59350239999185,390.093486400001,390.07708479999565,,,,,,,,,,,,,,,,,,,,,,,,,,390.0824738999945,390.093486400001,390.093486400001,390.093486400001,393.09342459999607,393.09342459999607,393.09342459999607,393.07700289999775,shoe,j,1.9010879999987083,0.1128830000088783,393.07703849999234,393.07704750000266,None,,,,,,,,,,,,,,00022,001,2025-11-09_11h49.42.417,MST_task,2024.2.2,60.000132003041756,2025-11-09 11h49.51.061559 +0530,
,Objects\068a.jpg,82,0,82,,,,,,,j,1.870749399997294,0.10226110000803601,None,,,,,,,82,0,82,0,393.09342459999607,,,,,,,,,,,,,,,,,,,,,,,393.0771020999964,393.09342459999607,393.59342879999895,393.57687079999596,,,,,,,,,,,,,,,,,,,,,,,,,,393.57891329999256,393.59342879999895,393.59342879999895,393.59342879999895,396.5933532999916,396.5933532999916,396.5933532999916,396.57704869999725,shoe,j,1.870749399997294,0.10226110000803601,396.57708589998947,396.5770984999981,None,,,,,,,,,,,,,,00022,001,2025-11-09_11h49.42.417,MST_task,2024.2.2,60.000132003041756,2025-11-09 11h49.51.061559 +0530,
,Objects\297a.jpg,83,0,83,,,,,,,f,2.176420200004941,0.1409014999953797,None,,,,,,,83,0,83,0,396.5933532999916,,,,,,,,,,,,,,,,,,,,,,,396.5771553999948,396.5933532999916,397.0933343999932,397.07693519999157,,,,,,,,,,,,,,,,,,,,,,,,,,397.0838061999966,397.0933343999932,397.0933343999932,397.0933343999932,400.09323559999757,400.09323559999757,400.09323559999757,400.0768410000019,shoe,f,2.176420200004941,0.1409014999953797,400.07687469999655,400.0768829000008,None,,,,,,,,,,,,,,00022,001,2025-11-09_11h49.42.417,MST_task,2024.2.2,60.000132003041756,2025-11-09 11h49.51.061559 +0530,
,Objects\168a.jpg,84,0,84,,,,,,,j,2.1988008999906015,0.14629129999957513,None,,,,,,,84,0,84,0,400.09323559999757,,,,,,,,,,,,,,,,,,,,,,,400.0769366000022,400.09323559999757,400.5932415999996,400.57669929999975,,,,,,,,,,,,,,,,,,,,,,,,,,400.5828468999971,400.5932415999996,400.5932415999996,400.5932415999996,403.5931677999906,403.5931677999906,403.5931677999906,403.5769092999981,indoor,j,2.1988008999906015,0.14629129999957513,403.5780734,403.5780836999911,None,,,,,,,,,,,,,,00022,001,2025-11-09_11h49.42.417,MST_task,2024.2.2,60.000132003041756,2025-11-09 11h49.51.061559 +0530,
,Objects\010a.jpg,85,0,85,,,,,,,f,1.567651699995622,0.14916190000076313,None,,,,,,,85,0,85,0,403.5931677999906,,,,,,,,,,,,,,,,,,,,,,,403.5781602999923,403.5931677999906,404.0931961000024,404.0767771999963,,,,,,,,,,,,,,,,,,,,,,,,,,404.07895850000205,404.0931961000024,404.0931961000024,404.0931961000024,407.09309559999383,407.09309559999383,407.09309559999383,407.07676949999586,indoor,f,1.567651699995622,0.14916190000076313,407.0768054999935,407.07681339999544,None,,,,,,,,,,,,,,00022,001,2025-11-09_11h49.42.417,MST_task,2024.2.2,60.000132003041756,2025-11-09 11h49.51.061559 +0530,
,Objects\222a.jpg,86,0,86,,,,,,,j,1.6874940000125207,0.14959229998930823,None,,,,,,,86,0,86,0,407.09309559999383,,,,,,,,,,,,,,,,,,,,,,,407.0768656,407.09309559999383,407.5930847999989,407.5766724999994,,,,,,,,,,,,,,,,,,,,,,,,,,407.58201440000266,407.5930847999989,407.5930847999989,407.5930847999989,410.59301729999424,410.59301729999424,410.59301729999424,410.5766411999939,indoor,j,1.6874940000125207,0.14959229998930823,410.5766767000023,410.5766845999897,None,,,,,,,,,,,,,,00022,001,2025-11-09_11h49.42.417,MST_task,2024.2.2,60.000132003041756,2025-11-09 11h49.51.061559 +0530,
,Objects\259a.jpg,87,0,87,,,,,,,j,0.8819907999859424,0.12113500000850763,None,,,,,,,87,0,87,0,410.59301729999424,,,,,,,,,,,,,,,,,,,,,,,410.5767418000032,410.59301729999424,411.09300449999864,411.07652209998923,,,,,,,,,,,,,,,,,,,,,,,,,,411.08349559998896,411.09300449999864,411.09300449999864,411.09300449999864,414.0929843999911,414.0929843999911,414.0929843999911,414.07660469999246,indoor,j,0.8819907999859424,0.12113500000850763,414.0766450999945,414.07665350000025,None,,,,,,,,,,,,,,00022,001,2025-11-09_11h49.42.417,MST_task,2024.2.2,60.000132003041756,2025-11-09 11h49.51.061559 +0530,
,Objects\167a.jpg,88,0,88,,,,,,,f,1.252109199995175,0.16984299999603536,None,,,,,,,88,0,88,0,414.0929843999911,,,,,,,,,,,,,,,,,,,,,,,414.07671069999924,414.0929843999911,414.59293069998967,414.57644869999785,,,,,,,,,,,,,,,,,,,,,,,,,,414.5818438999995,414.59293069998967,414.59293069998967,414.59293069998967,417.59290899999905,417.59290899999905,417.59290899999905,417.57657559998916,indoor,f,1.252109199995175,0.16984299999603536,417.57661160000134,417.57662019999407,None,,,,,,,,,,,,,,00022,001,2025-11-09_11h49.42.417,MST_task,2024.2.2,60.000132003041756,2025-11-09 11h49.51.061559 +0530,
,Objects\384a.jpg,89,0,89,,,,,,,f,2.612042599997949,0.15000839999993332,None,,,,,,,89,0,89,0,417.59290899999905,,,,,,,,,,,,,,,,,,,,,,,417.5766753999924,417.59290899999905,418.09285109999473,418.07637519999116,,,,,,,,,,,,,,,,,,,,,,,,,,418.07917799999996,418.09285109999473,418.09285109999473,418.09285109999473,421.09281960000226,421.09281960000226,421.09281960000226,421.0763764000003,indoor,f,2.612042599997949,0.15000839999993332,421.0764122999972,421.0764202999999,None,,,,,,,,,,,,,,00022,001,2025-11-09_11h49.42.417,MST_task,2024.2.2,60.000132003041756,2025-11-09 11h49.51.061559 +0530,
,Objects\230a.jpg,90,0,90,,,,,,,j,0.8513204000046244,0.16219659999478608,None,,,,,,,90,0,90,0,421.09281960000226,,,,,,,,,,,,,,,,,,,,,,,421.0764734999975,421.09281960000226,421.5928156000009,421.57642079998914,,,,,,,,,,,,,,,,,,,,,,,,,,421.5813305999909,421.5928156000009,421.5928156000009,421.5928156000009,424.5927559999982,424.5927559999982,424.5927559999982,424.57628889998887,indoor,j,0.8513204000046244,0.16219659999478608,424.5763242999965,424.57633239999996,None,,,,,,,,,,,,,,00022,001,2025-11-09_11h49.42.417,MST_task,2024.2.2,60.000132003041756,2025-11-09 11h49.51.061559 +0530,
,Objects\256a.jpg,91,0,91,,,,,,,f,2.4861245999927633,0.13031110000156332,None,,,,,,,91,0,91,0,424.5927559999982,,,,,,,,,,,,,,,,,,,,,,,424.5763903999905,424.5927559999982,425.0927006999991,425.076353299999,,,,,,,,,,,,,,,,,,,,,,,,,,425.08336560000316,425.0927006999991,425.0927006999991,425.0927006999991,428.09264069999335,428.09264069999335,428.09264069999335,428.07652429999143,shoe,f,2.4861245999927633,0.13031110000156332,428.078099499995,428.0781108999945,None,,,,,,,,,,,,,,00022,001,2025-11-09_11h49.42.417,MST_task,2024.2.2,60.000132003041756,2025-11-09 11h49.51.061559 +0530,
,Objects\029a.jpg,92,0,92,,,,,,,f,1.0358410000044387,0.09238539999932982,None,,,,,,,92,0,92,0,428.09264069999335,,,,,,,,,,,,,,,,,,,,,,,428.07816579999053,428.09264069999335,428.59262450000097,428.5761582999985,,,,,,,,,,,,,,,,,,,,,,,,,,428.58140229999844,428.59262450000097,428.59262450000097,428.59262450000097,431.5926247000025,431.5926247000025,431.5926247000025,431.5762059999979,shoe,f,1.0358410000044387,0.09238539999932982,431.5762432999909,431.57625139999436,None,,,,,,,,,,,,,,00022,001,2025-11-09_11h49.42.417,MST_task,2024.2.2,60.000132003041756,2025-11-09 11h49.51.061559 +0530,
,Objects\199a.jpg,93,0,93,,,,,,,f,1.2660528999986127,0.11779760000354145,None,,,,,,,93,0,93,0,431.5926247000025,,,,,,,,,,,,,,,,,,,,,,,431.57633669998904,431.5926247000025,432.09255879999546,432.0761085999984,,,,,,,,,,,,,,,,,,,,,,,,,,432.0805443999998,432.09255879999546,432.09255879999546,432.09255879999546,435.09254499999224,435.09254499999224,435.09254499999224,435.0761044999963,shoe,f,1.2660528999986127,0.11779760000354145,435.0761402999924,435.0761485999974,None,,,,,,,,,,,,,,00022,001,2025-11-09_11h49.42.417,MST_task,2024.2.2,60.000132003041756,2025-11-09 11h49.51.061559 +0530,
,Objects\225a.jpg,94,0,94,,,,,,,f,0.9324340000021039,0.12745299999369308,None,,,,,,,94,0,94,0,435.09254499999224,,,,,,,,,,,,,,,,,,,,,,,435.0762029999896,435.09254499999224,435.5924742999923,435.57606819999637,,,,,,,,,,,,,,,,,,,,,,,,,,435.5808837999939,435.5924742999923,435.5924742999923,435.5924742999923,438.5924498999957,438.5924498999957,438.5924498999957,438.57601199999044,shoe,f,0.9324340000021039,0.12745299999369308,438.57604669999273,438.5760556000023,None,,,,,,,,,,,,,,00022,001,2025-11-09_11h49.42.417,MST_task,2024.2.2,60.000132003041756,2025-11-09 11h49.51.061559 +0530,
,Objects\350a.jpg,95,0,95,,,,,,,j,1.604585600012797,0.15797999998903833,None,,,,,,,95,0,95,0,438.5924498999957,,,,,,,,,,,,,,,,,,,,,,,438.5761102999968,438.5924498999957,439.0924004999979,439.0760677999933,,,,,,,,,,,,,,,,,,,,,,,,,,439.0813705999899,439.0924004999979,439.0924004999979,439.0924004999979,442.09237269998994,442.09237269998994,442.09237269998994,442.0759052999929,shoe,j,1.604585600012797,0.15797999998903833,442.0759403999982,442.0759487999894,None,,,,,,,,,,,,,,00022,001,2025-11-09_11h49.42.417,MST_task,2024.2.2,60.000132003041756,2025-11-09 11h49.51.061559 +0530,
,Objects\304a.jpg,96,0,96,,,,,,,f,1.9421431999944616,0.11990259999583941,None,,,,,,,96,0,96,0,442.09237269998994,,,,,,,,,,,,,,,,,,,,,,,442.0760023999901,442.09237269998994,442.5923358,442.5758679999999,,,,,,,,,,,,,,,,,,,,,,,,,,442.58233299999847,442.5923358,442.5923358,442.5923358,445.592289799999,445.592289799999,445.592289799999,445.5758211999928,shoe,f,1.9421431999944616,0.11990259999583941,445.57585569999355,445.57586519999313,None,,,,,,,,,,,,,,00022,001,2025-11-09_11h49.42.417,MST_task,2024.2.2,60.000132003041756,2025-11-09 11h49.51.061559 +0530,
,Objects\224a.jpg,97,0,97,,,,,,,f,2.2643612999963807,0.13411469999118708,None,,,,,,,97,0,97,0,445.592289799999,,,,,,,,,,,,,,,,,,,,,,,445.5759457999957,445.592289799999,446.0922611999995,446.07599990000017,,,,,,,,,,,,,,,,,,,,,,,,,,446.0801161999989,446.0922611999995,446.0922611999995,446.0922611999995,449.0922251000011,449.0922251000011,449.0922251000011,449.07576409999456,shoe,f,2.2643612999963807,0.13411469999118708,449.0757981999923,449.0758066999988,None,,,,,,,,,,,,,,00022,001,2025-11-09_11h49.42.417,MST_task,2024.2.2,60.000132003041756,2025-11-09 11h49.51.061559 +0530,
,Objects\244a.jpg,98,0,98,,,,,,,f,1.4959174000105122,0.12819350000063423,None,,,,,,,98,0,98,0,449.0922251000011,,,,,,,,,,,,,,,,,,,,,,,449.07586079998873,449.0922251000011,449.5922293999902,449.57578489999287,,,,,,,,,,,,,,,,,,,,,,,,,,449.5802306999976,449.5922293999902,449.5922293999902,449.5922293999902,452.5921227999934,452.5921227999934,452.5921227999934,452.5756984999898,indoor,f,1.4959174000105122,0.12819350000063423,452.57690580000053,452.57691639999393,None,,,,,,,,,,,,,,00022,001,2025-11-09_11h49.42.417,MST_task,2024.2.2,60.000132003041756,2025-11-09 11h49.51.061559 +0530,
,Objects\120a.jpg,99,0,99,,,,,,,f,0.7802358999906573,0.14659370000299532,None,,,,,,,99,0,99,0,452.5921227999934,,,,,,,,,,,,,,,,,,,,,,,452.57697090000147,452.5921227999934,453.09214229999634,453.0756454999937,,,,,,,,,,,,,,,,,,,,,,,,,,453.0811029999895,453.09214229999634,453.09214229999634,453.09214229999634,456.09213699999964,456.09213699999964,456.09213699999964,456.07571299999836,indoor,f,0.7802358999906573,0.14659370000299532,456.07574879999447,456.075757300001,None,,,,,,,,,,,,,,00022,001,2025-11-09_11h49.42.417,MST_task,2024.2.2,60.000132003041756,2025-11-09 11h49.51.061559 +0530,
,Objects\159a.jpg,100,0,100,,,,,,,f,0.7266268999956083,0.13836589999846183,None,,,,,,,100,0,100,0,456.09213699999964,,,,,,,,,,,,,,,,,,,,,,,456.0758124999993,456.09213699999964,456.59203439998964,456.57560539999395,,,,,,,,,,,,,,,,,,,,,,,,,,456.5777806999977,456.59203439998964,456.59203439998964,456.59203439998964,459.59200879999844,459.59200879999844,459.59200879999844,459.5755311999965,indoor,f,0.7266268999956083,0.13836589999846183,459.57556759999716,459.5755760000029,None,,,,,,,,,,,,,,00022,001,2025-11-09_11h49.42.417,MST_task,2024.2.2,60.000132003041756,2025-11-09 11h49.51.061559 +0530,
,Objects\149a.jpg,101,0,101,,,,,,,f,0.818085400009295,0.14202030000160448,None,,,,,,,101,0,101,0,459.59200879999844,,,,,,,,,,,,,,,,,,,,,,,459.5756304999959,459.59200879999844,460.09199239999,460.0755117999943,,,,,,,,,,,,,,,,,,,,,,,,,,460.07748139998876,460.09199239999,460.09199239999,460.09199239999,463.0918912999914,463.0918912999914,463.0918912999914,463.07550069999706,indoor,f,0.818085400009295,0.14202030000160448,463.07553929999995,463.07554819999496,None,,,,,,,,,,,,,,00022,001,2025-11-09_11h49.42.417,MST_task,2024.2.2,60.000132003041756,2025-11-09 11h49.51.061559 +0530,
,Objects\130a.jpg,102,0,102,,,,,,,f,0.7924019000056433,0.13129730000218842,None,,,,,,,102,0,102,0,463.0918912999914,,,,,,,,,,,,,,,,,,,,,,,463.0756066000031,463.0918912999914,463.59192059999623,463.57539499999257,,,,,,,,,,,,,,,,,,,,,,,,,,463.5775389999908,463.59192059999623,463.59192059999623,463.59192059999623,466.5918180000008,466.5918180000008,466.5918180000008,466.57564509999065,indoor,f,0.7924019000056433,0.13129730000218842,466.5756853999919,466.5756936999969,None,,,,,,,,,,,,,,00022,001,2025-11-09_11h49.42.417,MST_task,2024.2.2,60.000132003041756,2025-11-09 11h49.51.061559 +0530,
,Objects\338a.jpg,103,0,103,,,,,,,f,0.6964726000005612,0.14861709999968298,None,,,,,,,103,0,103,0,466.5918180000008,,,,,,,,,,,,,,,,,,,,,,,466.5757520999905,466.5918180000008,467.09181199999875,467.07548129999486,,,,,,,,,,,,,,,,,,,,,,,,,,467.0803770999919,467.09181199999875,467.09181199999875,467.09181199999875,470.09174599999096,470.09174599999096,470.09174599999096,470.07532530000026,indoor,f,0.6964726000005612,0.14861709999968298,470.0753590999957,470.0753670999984,None,,,,,,,,,,,,,,00022,001,2025-11-09_11h49.42.417,MST_task,2024.2.2,60.000132003041756,2025-11-09 11h49.51.061559 +0530,
,Objects\064a.jpg,104,0,104,,,,,,,j,2.2663036000012653,0.12686060000851285,None,,,,,,,104,0,104,0,470.09174599999096,,,,,,,,,,,,,,,,,,,,,,,470.07541949998995,470.09174599999096,470.5917419999896,470.57543749999604,,,,,,,,,,,,,,,,,,,,,,,,,,470.5807547000004,470.5917419999896,470.5917419999896,470.5917419999896,473.5917272999941,473.5917272999941,473.5917272999941,473.57546880000154,indoor,j,2.2663036000012653,0.12686060000851285,473.5755036999908,473.5755117999943,None,,,,,,,,,,,,,,00022,001,2025-11-09_11h49.42.417,MST_task,2024.2.2,60.000132003041756,2025-11-09 11h49.51.061559 +0530,
,Objects\044a.jpg,105,0,105,,,,,,,f,2.5384075000038138,0.10390610000467859,None,,,,,,,105,0,105,0,473.5917272999941,,,,,,,,,,,,,,,,,,,,,,,473.5755661000003,473.5917272999941,474.09165909999865,474.07530569999653,,,,,,,,,,,,,,,,,,,,,,,,,,474.0787619999901,474.09165909999865,474.09165909999865,474.09165909999865,477.0916261999955,477.0916261999955,477.0916261999955,477.0752893000026,shoe,f,2.5384075000038138,0.10390610000467859,477.0768420999957,477.0768536999967,None,,,,,,,,,,,,,,00022,001,2025-11-09_11h49.42.417,MST_task,2024.2.2,60.000132003041756,2025-11-09 11h49.51.061559 +0530,
,Objects\002a.jpg,106,0,106,,,,,,,f,1.3945146999903955,0.14239269999961834,None,,,,,,,106,0,106,0,477.0916261999955,,,,,,,,,,,,,,,,,,,,,,,477.07690990000265,477.0916261999955,477.5915813000029,477.5751287000021,,,,,,,,,,,,,,,,,,,,,,,,,,477.5772364000004,477.5915813000029,477.5915813000029,477.5915813000029,480.5915539999987,480.5915539999987,480.5915539999987,480.57524549998925,shoe,f,1.3945146999903955,0.14239269999961834,480.5752844999952,480.57529310000245,None,,,,,,,,,,,,,,00022,001,2025-11-09_11h49.42.417,MST_task,2024.2.2,60.000132003041756,2025-11-09 11h49.51.061559 +0530,
,Objects\090a.jpg,107,0,107,,,,,,,j,1.3505851999943843,0.14809560000139754,None,,,,,,,107,0,107,0,480.5915539999987,,,,,,,,,,,,,,,,,,,,,,,480.5753826,480.5915539999987,481.1081715999899,481.0750463000004,,,,,,,,,,,,,,,,,,,,,,,,,,481.08844749999116,481.1081715999899,481.1081715999899,481.1081715999899,,,,484.09163830000034,shoe,j,1.3505851999943843,0.14809560000139754,484.09167549999256,484.09168469998986,None,,,,,,,,,,,,,,00022,001,2025-11-09_11h49.42.417,MST_task,2024.2.2,60.000132003041756,2025-11-09 11h49.51.061559 +0530,
,Objects\106a.jpg,108,0,108,,,,,,,f,1.5663467999984277,0.14154070000222418,None,,,,,,,108,0,108,0,484.1081058999989,,,,,,,,,,,,,,,,,,,,,,,484.09174319999875,484.1081058999989,484.60809369999333,484.5916472999961,,,,,,,,,,,,,,,,,,,,,,,,,,484.5937144999916,484.60809369999333,484.60809369999333,484.60809369999333,487.6080795000016,487.6080795000016,487.6080795000016,487.5917851999984,shoe,f,1.5663467999984277,0.14154070000222418,487.59182359999977,487.591832399994,None,,,,,,,,,,,,,,00022,001,2025-11-09_11h49.42.417,MST_task,2024.2.2,60.000132003041756,2025-11-09 11h49.51.061559 +0530,
,Objects\216a.jpg,109,0,109,,,,,,,f,1.1401556999917375,0.1104990000021644,None,,,,,,,109,0,109,0,487.6080795000016,,,,,,,,,,,,,,,,,,,,,,,487.59191719999944,487.6080795000016,488.10803069999383,488.0916329000029,,,,,,,,,,,,,,,,,,,,,,,,,,488.0937372999906,488.10803069999383,488.10803069999383,488.10803069999383,491.10803649999434,491.10803649999434,491.10803649999434,491.09158860000025,shoe,f,1.1401556999917375,0.1104990000021644,491.09162369999103,491.09163219999755,None,,,,,,,,,,,,,,00022,001,2025-11-09_11h49.42.417,MST_task,2024.2.2,60.000132003041756,2025-11-09 11h49.51.061559 +0530,
,Objects\030a.jpg,110,0,110,,,,,,,f,1.267196700006025,0.1403180000052089,None,,,,,,,110,0,110,0,491.10803649999434,,,,,,,,,,,,,,,,,,,,,,,491.09168659998977,491.10803649999434,491.6079433999985,491.591634299999,,,,,,,,,,,,,,,,,,,,,,,,,,491.5936723999912,491.6079433999985,491.6079433999985,491.6079433999985,494.6079105999961,494.6079105999961,494.6079105999961,494.5915795999899,shoe,f,1.267196700006025,0.1403180000052089,494.5916196999897,494.59162969999306,None,,,,,,,,,,,,,,00022,001,2025-11-09_11h49.42.417,MST_task,2024.2.2,60.000132003041756,2025-11-09 11h49.51.061559 +0530,
,Objects\076a.jpg,111,0,111,,,,,,,f,1.2626056000008248,0.1540755000023637,None,,,,,,,111,0,111,0,494.6079105999961,,,,,,,,,,,,,,,,,,,,,,,494.59172240000044,494.6079105999961,495.1078802999982,495.09150090000185,,,,,,,,,,,,,,,,,,,,,,,,,,495.09355890000006,495.1078802999982,495.1078802999982,495.1078802999982,498.1078370999894,498.1078370999894,498.1078370999894,498.09141269999964,shoe,f,1.2626056000008248,0.1540755000023637,498.09144579998974,498.0914535999909,None,,,,,,,,,,,,,,00022,001,2025-11-09_11h49.42.417,MST_task,2024.2.2,60.000132003041756,2025-11-09 11h49.51.061559 +0530,
,Objects\322a.jpg,112,0,112,,,,,,,j,2.3286165000026813,0.14989190000051167,None,,,,,,,112,0,112,0,498.1078370999894,,,,,,,,,,,,,,,,,,,,,,,498.0915393999894,498.1078370999894,498.6077968999889,498.5914245000022,,,,,,,,,,,,,,,,,,,,,,,,,,498.5975049999979,498.6077968999889,498.6077968999889,498.6077968999889,501.6077967000019,501.6077967000019,501.6077967000019,501.5913644999964,indoor,j,2.3286165000026813,0.14989190000051167,501.5924723999924,501.5924835999904,None,,,,,,,,,,,,,,00022,001,2025-11-09_11h49.42.417,MST_task,2024.2.2,60.000132003041756,2025-11-09 11h49.51.061559 +0530,
,Objects\003a.jpg,113,0,113,,,,,,,j,1.1113561999954982,0.14169679999758955,None,,,,,,,113,0,113,0,501.6077967000019,,,,,,,,,,,,,,,,,,,,,,,501.5925378999964,501.6077967000019,502.1077237999998,502.0913189999992,,,,,,,,,,,,,,,,,,,,,,,,,,502.0968098000012,502.1077237999998,502.1077237999998,502.1077237999998,505.1077793000004,505.1077793000004,505.1077793000004,505.0912728999974,indoor,j,1.1113561999954982,0.14169679999758955,505.09131009998964,505.0913184999954,None,,,,,,,,,,,,,,00022,001,2025-11-09_11h49.42.417,MST_task,2024.2.2,60.000132003041756,2025-11-09 11h49.51.061559 +0530,
,Objects\070a.jpg,114,0,114,,,,,,,f,0.8261913000023924,0.16941659999429248,None,,,,,,,114,0,114,0,505.1077793000004,,,,,,,,,,,,,,,,,,,,,,,505.09137300000293,505.1077793000004,505.60764899999776,505.5912288999971,,,,,,,,,,,,,,,,,,,,,,,,,,505.5936015999905,505.60764899999776,505.60764899999776,505.60764899999776,508.6076170000015,508.6076170000015,508.6076170000015,508.5912926000019,indoor,f,0.8261913000023924,0.16941659999429248,508.59132919998956,508.59133799999836,None,,,,,,,,,,,,,,00022,001,2025-11-09_11h49.42.417,MST_task,2024.2.2,60.000132003041756,2025-11-09 11h49.51.061559 +0530,
,Objects\379a.jpg,115,0,115,,,,,,,f,1.158580700008315,0.14037629999802448,None,,,,,,,115,0,115,0,508.6076170000015,,,,,,,,,,,,,,,,,,,,,,,508.59139219998906,508.6076170000015,509.1075764999987,509.09115480000037,,,,,,,,,,,,,,,,,,,,,,,,,,509.09347700000217,509.1075764999987,509.1075764999987,509.1075764999987,512.10752949999,512.10752949999,512.10752949999,512.0910915999993,indoor,f,1.158580700008315,0.14037629999802448,512.0911283000023,512.0911366999935,None,,,,,,,,,,,,,,00022,001,2025-11-09_11h49.42.417,MST_task,2024.2.2,60.000132003041756,2025-11-09 11h49.51.061559 +0530,
,Objects\179a.jpg,116,0,116,,,,,,,f,0.7975386000034632,0.16596870000648778,None,,,,,,,116,0,116,0,512.10752949999,,,,,,,,,,,,,,,,,,,,,,,512.091191200001,512.10752949999,512.6074989999906,512.591049900002,,,,,,,,,,,,,,,,,,,,,,,,,,512.5931197999889,512.6074989999906,512.6074989999906,512.6074989999906,515.6074681000027,515.6074681000027,515.6074681000027,515.5910378999979,indoor,f,0.7975386000034632,0.16596870000648778,515.5910746000009,515.591082400002,None,,,,,,,,,,,,,,00022,001,2025-11-09_11h49.42.417,MST_task,2024.2.2,60.000132003041756,2025-11-09 11h49.51.061559 +0530,
,Objects\193a.jpg,117,0,117,,,,,,,f,1.9250802000024123,0.14172529999632388,None,,,,,,,117,0,117,0,515.6074681000027,,,,,,,,,,,,,,,,,,,,,,,515.5911371999973,515.6074681000027,516.1074532999919,516.090999299995,,,,,,,,,,,,,,,,,,,,,,,,,,516.093266099997,516.1074532999919,516.1074532999919,516.1074532999919,519.107486199995,519.107486199995,519.107486199995,519.0910259999946,indoor,f,1.9250802000024123,0.14172529999632388,519.0910583999939,519.0910663999966,None,,,,,,,,,,,,,,00022,001,2025-11-09_11h49.42.417,MST_task,2024.2.2,60.000132003041756,2025-11-09 11h49.51.061559 +0530,
,Objects\205a.jpg,118,0,118,,,,,,,f,1.4571942999900784,0.14992920000804588,None,,,,,,,118,0,118,0,519.107486199995,,,,,,,,,,,,,,,,,,,,,,,519.0911188000027,519.107486199995,519.6074382999941,519.5909638000012,,,,,,,,,,,,,,,,,,,,,,,,,,519.5958802999958,519.6074382999941,519.6074382999941,519.6074382999941,522.6074251999962,522.6074251999962,522.6074251999962,522.5909514999948,indoor,f,1.4571942999900784,0.14992920000804588,522.5909871999902,522.590996400002,None,,,,,,,,,,,,,,00022,001,2025-11-09_11h49.42.417,MST_task,2024.2.2,60.000132003041756,2025-11-09 11h49.51.061559 +0530,
,Objects\293a.jpg,119,0,119,,,,,,,f,1.7287688000069465,0.15453669999260455,None,,,,,,,119,0,119,0,522.6074251999962,,,,,,,,,,,,,,,,,,,,,,,522.5910493999982,522.6074251999962,523.1074360999919,523.0908976999926,,,,,,,,,,,,,,,,,,,,,,,,,,523.0964486000012,523.1074360999919,523.1074360999919,523.1074360999919,526.1073035000009,526.1073035000009,526.1073035000009,526.091093199997,shoe,f,1.7287688000069465,0.15453669999260455,526.0926196999935,526.0926304000022,None,,,,,,,,,,,,,,00022,001,2025-11-09_11h49.42.417,MST_task,2024.2.2,60.000132003041756,2025-11-09 11h49.51.061559 +0530,
,Objects\197a.jpg,120,0,120,,,,,,,j,1.4240699000074528,0.14578160000382923,None,,,,,,,120,0,120,0,526.1073035000009,,,,,,,,,,,,,,,,,,,,,,,526.0926840000029,526.1073035000009,526.607345299999,526.5910489999951,,,,,,,,,,,,,,,,,,,,,,,,,,526.5965004999889,526.607345299999,526.607345299999,526.607345299999,529.6072464000026,529.6072464000026,529.6072464000026,529.5908401999914,shoe,j,1.4240699000074528,0.14578160000382923,529.5908743999898,529.5908847999963,None,,,,,,,,,,,,,,00022,001,2025-11-09_11h49.42.417,MST_task,2024.2.2,60.000132003041756,2025-11-09 11h49.51.061559 +0530,
,Objects\377a.jpg,121,0,121,,,,,,,j,2.0718807999946875,0.15718969999579713,None,,,,,,,121,0,121,0,529.6072464000026,,,,,,,,,,,,,,,,,,,,,,,529.5909649999958,529.6072464000026,530.1072750000021,530.0907170999999,,,,,,,,,,,,,,,,,,,,,,,,,,530.0949615999998,530.1072750000021,530.1072750000021,530.1072750000021,533.1071757999889,533.1071757999889,533.1071757999889,533.0906969999924,shoe,j,2.0718807999946875,0.15718969999579713,533.090730099997,533.0907386999897,None,,,,,,,,,,,,,,00022,001,2025-11-09_11h49.42.417,MST_task,2024.2.2,60.000132003041756,2025-11-09 11h49.51.061559 +0530,
,Objects\381a.jpg,122,0,122,,,,,,,j,2.103745100001106,0.108325999986846,None,,,,,,,122,0,122,0,533.1071757999889,,,,,,,,,,,,,,,,,,,,,,,533.0908217999968,533.1071757999889,533.6071646999917,533.5906302999938,,,,,,,,,,,,,,,,,,,,,,,,,,533.5953713999916,533.6071646999917,533.6071646999917,533.6071646999917,536.6070725000027,536.6070725000027,536.6070725000027,536.5907282999979,shoe,j,2.103745100001106,0.108325999986846,536.5907654999901,536.5907738999958,None,,,,,,,,,,,,,,00022,001,2025-11-09_11h49.42.417,MST_task,2024.2.2,60.000132003041756,2025-11-09 11h49.51.061559 +0530,
,Objects\071a.jpg,123,0,123,,,,,,,j,1.4534965999919223,0.0844346000085352,None,,,,,,,123,0,123,0,536.6070725000027,,,,,,,,,,,,,,,,,,,,,,,536.5908654999948,536.6070725000027,537.1070796999993,537.0905278999999,,,,,,,,,,,,,,,,,,,,,,,,,,537.0957926999981,537.1070796999993,537.1070796999993,537.1070796999993,540.1069946999924,540.1069946999924,540.1069946999924,540.0905995999929,shoe,j,1.4534965999919223,0.0844346000085352,540.0906341999944,540.0906424999994,None,,,,,,,,,,,,,,00022,001,2025-11-09_11h49.42.417,MST_task,2024.2.2,60.000132003041756,2025-11-09 11h49.51.061559 +0530,
,Objects\105a.jpg,124,0,124,,,,,,,f,1.1822840000095312,0.14252080000005662,None,,,,,,,124,0,124,0,540.1069946999924,,,,,,,,,,,,,,,,,,,,,,,540.0907216999913,540.1069946999924,540.6069812999922,540.5904988999973,,,,,,,,,,,,,,,,,,,,,,,,,,540.592713799997,540.6069812999922,540.6069812999922,540.6069812999922,543.6069229999994,543.6069229999994,543.6069229999994,543.5905282000022,shoe,f,1.1822840000095312,0.14252080000005662,543.5905630999914,543.5905763999908,None,,,,,,,,,,,,,,00022,001,2025-11-09_11h49.42.417,MST_task,2024.2.2,60.000132003041756,2025-11-09 11h49.51.061559 +0530,
,Objects\114a.jpg,125,0,125,,,,,,,f,0.8455170999950496,0.14380600000731647,None,,,,,,,125,0,125,0,543.6069229999994,,,,,,,,,,,,,,,,,,,,,,,543.590633499989,543.6069229999994,544.1069141999906,544.0904011999955,,,,,,,,,,,,,,,,,,,,,,,,,,544.0926578999934,544.1069141999906,544.1069141999906,544.1069141999906,547.1068743999931,547.1068743999931,547.1068743999931,547.0904512999987,shoe,f,0.8455170999950496,0.14380600000731647,547.0904861000017,547.0904966999951,None,,,,,,,,,,,,,,00022,001,2025-11-09_11h49.42.417,MST_task,2024.2.2,60.000132003041756,2025-11-09 11h49.51.061559 +0530,
,Objects\097a.jpg,126,0,126,,,,,,,j,1.9751523000013549,0.15229270000418182,None,,,,,,,126,0,126,0,547.1068743999931,,,,,,,,,,,,,,,,,,,,,,,547.0905531999888,547.1068743999931,547.6068446999998,547.5903304999956,,,,,,,,,,,,,,,,,,,,,,,,,,547.5934632999997,547.6068446999998,547.6068446999998,547.6068446999998,550.606844199996,550.606844199996,550.606844199996,550.5903496999963,indoor,j,1.9751523000013549,0.15229270000418182,550.5914866999956,550.591497699992,None,,,,,,,,,,,,,,00022,001,2025-11-09_11h49.42.417,MST_task,2024.2.2,60.000132003041756,2025-11-09 11h49.51.061559 +0530,
,Objects\011a.jpg,127,0,127,,,,,,,f,1.2483118999953149,0.1572505999938585,None,,,,,,,127,0,127,0,550.606844199996,,,,,,,,,,,,,,,,,,,,,,,550.5915518999973,550.606844199996,551.1067823999911,551.0903643999918,,,,,,,,,,,,,,,,,,,,,,,,,,551.0923461999919,551.1067823999911,551.1067823999911,551.1067823999911,554.1067275999958,554.1067275999958,554.1067275999958,554.0902844999946,indoor,f,1.2483118999953149,0.1572505999938585,554.0903240999905,554.0903323999955,None,,,,,,,,,,,,,,00022,001,2025-11-09_11h49.42.417,MST_task,2024.2.2,60.000132003041756,2025-11-09 11h49.51.061559 +0530,
,Objects\214a.jpg,128,0,128,,,,,,,f,1.4530701000039699,0.1604910000023665,None,,,,,,,128,0,128,0,554.1067275999958,,,,,,,,,,,,,,,,,,,,,,,554.0903871999908,554.1067275999958,554.6066916999989,554.5901760999986,,,,,,,,,,,,,,,,,,,,,,,,,,554.5923970000003,554.6066916999989,554.6066916999989,554.6066916999989,557.6066557000013,557.6066557000013,557.6066557000013,557.5901981999923,indoor,f,1.4530701000039699,0.1604910000023665,557.5902407999965,557.5902489,None,,,,,,,,,,,,,,00022,001,2025-11-09_11h49.42.417,MST_task,2024.2.2,60.000132003041756,2025-11-09 11h49.51.061559 +0530,
,Objects\089a.jpg,129,0,129,,,,,,,f,1.322022399996058,0.14546459999110084,None,,,,,,,129,0,129,0,557.6066557000013,,,,,,,,,,,,,,,,,,,,,,,557.5903071999928,557.6066557000013,558.1066234000027,558.0902064999973,,,,,,,,,,,,,,,,,,,,,,,,,,558.0921402999957,558.1066234000027,558.1066234000027,558.1066234000027,561.106613099997,561.106613099997,561.106613099997,561.0901199999935,indoor,f,1.322022399996058,0.14546459999110084,561.0901531999989,561.0901614000031,None,,,,,,,,,,,,,,00022,001,2025-11-09_11h49.42.417,MST_task,2024.2.2,60.000132003041756,2025-11-09 11h49.51.061559 +0530,
,Objects\327a.jpg,130,0,130,,,,,,,j,1.569760900005349,0.19376989999727812,None,,,,,,,130,0,130,0,561.106613099997,,,,,,,,,,,,,,,,,,,,,,,561.0902192999929,561.106613099997,561.606609800001,561.5900570999947,,,,,,,,,,,,,,,,,,,,,,,,,,561.5955279999907,561.606609800001,561.606609800001,561.606609800001,564.606584299996,564.606584299996,564.606584299996,564.5900710999995,indoor,j,1.569760900005349,0.19376989999727812,564.5901053999987,564.5901138999907,None,,,,,,,,,,,,,,00022,001,2025-11-09_11h49.42.417,MST_task,2024.2.2,60.000132003041756,2025-11-09 11h49.51.061559 +0530,
,Objects\073a.jpg,131,0,131,,,,,,,f,1.0279254000051878,0.18239940000057686,None,,,,,,,131,0,131,0,564.606584299996,,,,,,,,,,,,,,,,,,,,,,,564.5901669000013,564.606584299996,565.1064769999939,565.0899831999996,,,,,,,,,,,,,,,,,,,,,,,,,,565.0949640999897,565.1064769999939,565.1064769999939,565.1064769999939,568.1065174999967,568.1065174999967,568.1065174999967,568.0900448000029,indoor,f,1.0279254000051878,0.18239940000057686,568.0900825999997,568.0900907999894,None,,,,,,,,,,,,,,00022,001,2025-11-09_11h49.42.417,MST_task,2024.2.2,60.000132003041756,2025-11-09 11h49.51.061559 +0530,
,Objects\272a.jpg,132,0,132,,,,,,,j,2.1981519000109984,0.18563449999783188,None,,,,,,,132,0,132,0,568.1065174999967,,,,,,,,,,,,,,,,,,,,,,,568.0901472999976,568.1065174999967,568.6064493000013,568.5898828999925,,,,,,,,,,,,,,,,,,,,,,,,,,568.5939332999988,568.6064493000013,568.6064493000013,568.6064493000013,571.6063616000029,571.6063616000029,571.6063616000029,571.5899036999908,indoor,j,2.1981519000109984,0.18563449999783188,571.5899386999954,571.5899472000019,None,,,,,,,,,,,,,,00022,001,2025-11-09_11h49.42.417,MST_task,2024.2.2,60.000132003041756,2025-11-09 11h49.51.061559 +0530,
,Objects\274a.jpg,133,0,133,,,,,,,j,2.245384499998181,0.16276039999502245,None,,,,,,,133,0,133,0,571.6063616000029,,,,,,,,,,,,,,,,,,,,,,,571.5900009999896,571.6063616000029,572.1069858999981,572.0899464999966,,,,,,,,,,,,,,,,,,,,,,,,,,572.0962568999967,572.1069858999981,572.1069858999981,572.1069858999981,575.1062725999946,575.1062725999946,575.1062725999946,575.0899906999985,shoe,j,2.245384499998181,0.16276039999502245,575.0915628999937,575.0915741999925,None,,,,,,,,,,,,,,00022,001,2025-11-09_11h49.42.417,MST_task,2024.2.2,60.000132003041756,2025-11-09 11h49.51.061559 +0530,
,Objects\054a.jpg,134,0,134,,,,,,,j,1.971914599998854,0.16266579998773523,None,,,,,,,134,0,134,0,575.1062725999946,,,,,,,,,,,,,,,,,,,,,,,575.0916287,575.1062725999946,575.6062499999971,575.5898027999938,,,,,,,,,,,,,,,,,,,,,,,,,,575.5921180000005,575.6062499999971,575.6062499999971,575.6062499999971,578.606197999994,578.606197999994,578.606197999994,578.5897480999993,shoe,j,1.971914599998854,0.16266579998773523,578.5897811000032,578.5897892999928,None,,,,,,,,,,,,,,00022,001,2025-11-09_11h49.42.417,MST_task,2024.2.2,60.000132003041756,2025-11-09 11h49.51.061559 +0530,
,Objects\361a.jpg,135,0,135,,,,,,,j,1.329951700012316,0.16758939999272116,None,,,,,,,135,0,135,0,578.606197999994,,,,,,,,,,,,,,,,,,,,,,,578.5898764000012,578.606197999994,579.1061553999898,579.089648299996,,,,,,,,,,,,,,,,,,,,,,,,,,579.0921142000007,579.1061553999898,579.1061553999898,579.1061553999898,582.1061289999925,582.1061289999925,582.1061289999925,582.089687300002,shoe,j,1.329951700012316,0.16758939999272116,582.0897205999936,582.0897293000016,None,,,,,,,,,,,,,,00022,001,2025-11-09_11h49.42.417,MST_task,2024.2.2,60.000132003041756,2025-11-09 11h49.51.061559 +0530,
,Objects\017a.jpg,136,0,136,,,,,,,f,1.4345796999987215,0.13043780000589322,None,,,,,,,136,0,136,0,582.1061289999925,,,,,,,,,,,,,,,,,,,,,,,582.0898152000009,582.1061289999925,582.6061132000032,582.5895978999906,,,,,,,,,,,,,,,,,,,,,,,,,,582.5916311999899,582.6061132000032,582.6061132000032,582.6061132000032,585.6060457999993,585.6060457999993,585.6060457999993,585.5895961999922,shoe,f,1.4345796999987215,0.13043780000589322,585.5896280000015,585.5896359999897,None,,,,,,,,,,,,,,00022,001,2025-11-09_11h49.42.417,MST_task,2024.2.2,60.000132003041756,2025-11-09 11h49.51.061559 +0530,
,Objects\375a.jpg,137,0,137,,,,,,,f,1.8449523000017507,0.18993169999157544,None,,,,,,,137,0,137,0,585.6060457999993,,,,,,,,,,,,,,,,,,,,,,,585.5896894999896,585.6060457999993,586.1060406999895,586.0896041999949,,,,,,,,,,,,,,,,,,,,,,,,,,586.0943670999986,586.1060406999895,586.1060406999895,586.1060406999895,589.105983100002,589.105983100002,589.105983100002,589.0895803000021,shoe,f,1.8449523000017507,0.18993169999157544,589.0896160999982,589.0896242000017,None,,,,,,,,,,,,,,00022,001,2025-11-09_11h49.42.417,MST_task,2024.2.2,60.000132003041756,2025-11-09 11h49.51.061559 +0530,
,Objects\313a.jpg,138,0,138,,,,,,,f,2.8728115999983856,None,None,,,,,,,138,0,138,0,589.105983100002,,,,,,,,,,,,,,,,,,,,,,,589.089676699994,589.105983100002,589.6059662999905,589.5894744999969,,,,,,,,,,,,,,,,,,,,,,,,,,589.5945903999964,589.6059662999905,589.6059662999905,589.6059662999905,592.6058892000001,592.6058892000001,592.6058892000001,592.5894626999943,shoe,f,2.8728115999983856,None,592.5894946999906,592.5895025999926,None,,,,,,,,,,,,,,00022,001,2025-11-09_11h49.42.417,MST_task,2024.2.2,60.000132003041756,2025-11-09 11h49.51.061559 +0530,
,Objects\132a.jpg,139,0,139,,,,,,,f,1.2332978999911575,0.15309790000901558,None,,,,,,,139,0,139,0,592.6058892000001,,,,,,,,,,,,,,,,,,,,,,,592.5895519999904,592.6058892000001,593.105896699999,593.0895387999917,,,,,,,,,,,,,,,,,,,,,,,,,,593.0915372000018,593.105896699999,593.105896699999,593.105896699999,596.1058287999913,596.1058287999913,596.1058287999913,596.0893553999922,shoe,f,1.2332978999911575,0.15309790000901558,596.0893881999946,596.0893961999973,None,,,,,,,,,,,,,,00022,001,2025-11-09_11h49.42.417,MST_task,2024.2.2,60.000132003041756,2025-11-09 11h49.51.061559 +0530,
,Objects\116a.jpg,140,0,140,,,,,,,f,1.670069900006638,0.13301360000332352,None,,,,,,,140,0,140,0,596.1058287999913,,,,,,,,,,,,,,,,,,,,,,,596.0894782999967,596.1058287999913,596.6058093999891,596.589355899996,,,,,,,,,,,,,,,,,,,,,,,,,,596.5924344999949,596.6058093999891,596.6058093999891,596.6058093999891,599.605750799994,599.605750799994,599.605750799994,599.5893806999957,indoor,f,1.670069900006638,0.13301360000332352,599.5905288999929,599.5905425999954,None,,,,,,,,,,,,,,00022,001,2025-11-09_11h49.42.417,MST_task,2024.2.2,60.000132003041756,2025-11-09 11h49.51.061559 +0530,
,Objects\365a.jpg,141,0,141,,,,,,,f,1.9980092000041623,0.14912119999644347,None,,,,,,,141,0,141,0,599.605750799994,,,,,,,,,,,,,,,,,,,,,,,599.5905982999975,599.605750799994,600.105708499992,600.0893613999942,,,,,,,,,,,,,,,,,,,,,,,,,,600.0938798999996,600.105708499992,600.105708499992,600.105708499992,603.1056420999957,603.1056420999957,603.1056420999957,603.0892580999935,indoor,f,1.9980092000041623,0.14912119999644347,603.0892958999902,603.0893049000006,None,,,,,,,,,,,,,,00022,001,2025-11-09_11h49.42.417,MST_task,2024.2.2,60.000132003041756,2025-11-09 11h49.51.061559 +0530,
,Objects\007a.jpg,142,0,142,,,,,,,f,1.3856250999961048,0.12575920000381302,None,,,,,,,142,0,142,0,603.1056420999957,,,,,,,,,,,,,,,,,,,,,,,603.0893612999935,603.1056420999957,603.6056325999962,603.5891867000028,,,,,,,,,,,,,,,,,,,,,,,,,,603.5943205999938,603.6056325999962,603.6056325999962,603.6056325999962,606.6055916999903,606.6055916999903,606.6055916999903,606.5891524999897,indoor,f,1.3856250999961048,0.12575920000381302,606.5891891999927,606.5891976999992,None,,,,,,,,,,,,,,00022,001,2025-11-09_11h49.42.417,MST_task,2024.2.2,60.000132003041756,2025-11-09 11h49.51.061559 +0530,
,Objects\126a.jpg,143,0,143,,,,,,,j,1.8208149000129197,0.12205799999355804,None,,,,,,,143,0,143,0,606.6055916999903,,,,,,,,,,,,,,,,,,,,,,,606.5892505999946,606.6055916999903,607.1055622999993,607.0890689999942,,,,,,,,,,,,,,,,,,,,,,,,,,607.0912446000002,607.1055622999993,607.1055622999993,607.1055622999993,610.1055651999923,610.1055651999923,610.1055651999923,610.089089999994,indoor,j,1.8208149000129197,0.12205799999355804,610.0891238999902,610.0891362999973,None,,,,,,,,,,,,,,00022,001,2025-11-09_11h49.42.417,MST_task,2024.2.2,60.000132003041756,2025-11-09 11h49.51.061559 +0530,
,Objects\382a.jpg,144,0,144,,,,,,,j,1.6251649000041652,0.1736819999932777,None,,,,,,,144,0,144,0,610.1055651999923,,,,,,,,,,,,,,,,,,,,,,,610.0891915999964,610.1055651999923,610.6054801999999,610.589250399993,,,,,,,,,,,,,,,,,,,,,,,,,,610.5944639999943,610.6054801999999,610.6054801999999,610.6054801999999,613.6054547999956,613.6054547999956,613.6054547999956,613.5890248999931,indoor,j,1.6251649000041652,0.1736819999932777,613.5890606999892,613.5890685999912,None,,,,,,,,,,,,,,00022,001,2025-11-09_11h49.42.417,MST_task,2024.2.2,60.000132003041756,2025-11-09 11h49.51.061559 +0530,
,Objects\158a.jpg,145,0,145,,,,,,,f,1.5111680999980308,0.15032259999134112,None,,,,,,,145,0,145,0,613.6054547999956,,,,,,,,,,,,,,,,,,,,,,,613.5891220999911,613.6054547999956,614.1054003999889,614.0889344000025,,,,,,,,,,,,,,,,,,,,,,,,,,614.0940585999924,614.1054003999889,614.1054003999889,614.1054003999889,617.1053702999925,617.1053702999925,617.1053702999925,617.0889167999994,indoor,f,1.5111680999980308,0.15032259999134112,617.0889638999943,617.0889720999985,None,,,,,,,,,,,,,,00022,001,2025-11-09_11h49.42.417,MST_task,2024.2.2,60.000132003041756,2025-11-09 11h49.51.061559 +0530,
,Objects\369a.jpg,146,0,146,,,,,,,f,1.23142199999711,0.14161619999504182,None,,,,,,,146,0,146,0,617.1053702999925,,,,,,,,,,,,,,,,,,,,,,,617.089031999989,617.1053702999925,617.6053369000001,617.58893849999,,,,,,,,,,,,,,,,,,,,,,,,,,617.5907535000006,617.6053369000001,617.6053369000001,617.6053369000001,620.6052977999934,620.6052977999934,620.6052977999934,620.5888961000019,indoor,f,1.23142199999711,0.14161619999504182,620.5889319999987,620.5889404999907,None,,,,,,,,,,,,,,00022,001,2025-11-09_11h49.42.417,MST_task,2024.2.2,60.000132003041756,2025-11-09 11h49.51.061559 +0530,
,Objects\275a.jpg,147,0,147,,,,,,,f,1.8874779999896418,0.1575245999993058,None,,,,,,,147,0,147,0,620.6052977999934,,,,,,,,,,,,,,,,,,,,,,,620.5889975999889,620.6052977999934,621.1052498999925,621.0888645999948,,,,,,,,,,,,,,,,,,,,,,,,,,621.0952786999987,621.1052498999925,621.1052498999925,621.1052498999925,624.105187299996,624.105187299996,624.105187299996,624.0890295999998,shoe,f,1.8874779999896418,0.1575245999993058,624.0905675999966,624.090583199999,None,,,,,,,,,,,,,,00022,001,2025-11-09_11h49.42.417,MST_task,2024.2.2,60.000132003041756,2025-11-09 11h49.51.061559 +0530,
,Objects\122a.jpg,148,0,148,,,,,,,f,1.3497488000139128,0.16146109999681357,None,,,,,,,148,0,148,0,624.105187299996,,,,,,,,,,,,,,,,,,,,,,,624.0906366999989,624.105187299996,624.6051917000004,624.5887853000022,,,,,,,,,,,,,,,,,,,,,,,,,,624.5936857999914,624.6051917000004,624.6051917000004,624.6051917000004,627.6051502999908,627.6051502999908,627.6051502999908,627.5887956999941,shoe,f,1.3497488000139128,0.16146109999681357,627.5888316999917,627.5888401999982,None,,,,,,,,,,,,,,00022,001,2025-11-09_11h49.42.417,MST_task,2024.2.2,60.000132003041756,2025-11-09 11h49.51.061559 +0530,
,Objects\190a.jpg,149,0,149,,,,,,,f,1.6273849999997765,0.14592249999986961,None,,,,,,,149,0,149,0,627.6051502999908,,,,,,,,,,,,,,,,,,,,,,,627.5888964999904,627.6051502999908,628.1051106999948,628.0886215999926,,,,,,,,,,,,,,,,,,,,,,,,,,628.0907028999936,628.1051106999948,628.1051106999948,628.1051106999948,631.1050678999891,631.1050678999891,631.1050678999891,631.0888699999923,shoe,f,1.6273849999997765,0.14592249999986961,631.0889082999929,631.0889169000002,None,,,,,,,,,,,,,,00022,001,2025-11-09_11h49.42.417,MST_task,2024.2.2,60.000132003041756,2025-11-09 11h49.51.061559 +0530,
,Objects\212a.jpg,150,0,150,,,,,,,j,1.3525679000013042,0.15266849999898113,None,,,,,,,150,0,150,0,631.1050678999891,,,,,,,,,,,,,,,,,,,,,,,631.0889715999947,631.1050678999891,631.6050304999953,631.5885749000008,,,,,,,,,,,,,,,,,,,,,,,,,,631.5944363000017,631.6050304999953,631.6050304999953,631.6050304999953,634.6049964999984,634.6049964999984,634.6049964999984,634.5886746999895,shoe,j,1.3525679000013042,0.15266849999898113,634.5887097999948,634.5887176999968,None,,,,,,,,,,,,,,00022,001,2025-11-09_11h49.42.417,MST_task,2024.2.2,60.000132003041756,2025-11-09 11h49.51.061559 +0530,
,Objects\194a.jpg,151,0,151,,,,,,,f,1.0013211000041338,0.1584242999961134,None,,,,,,,151,0,151,0,634.6049964999984,,,,,,,,,,,,,,,,,,,,,,,634.5887746999942,634.6049964999984,635.1049015999888,635.0885039999994,,,,,,,,,,,,,,,,,,,,,,,,,,635.0931795999932,635.1049015999888,635.1049015999888,635.1049015999888,638.1048803000012,638.1048803000012,638.1048803000012,638.0885767,shoe,f,1.0013211000041338,0.1584242999961134,638.0886214999919,638.0886304000014,None,,,,,,,,,,,,,,00022,001,2025-11-09_11h49.42.417,MST_task,2024.2.2,60.000132003041756,2025-11-09 11h49.51.061559 +0530,
,Objects\235a.jpg,152,0,152,,,,,,,f,1.273438600008376,0.15393879999464843,None,,,,,,,152,0,152,0,638.1048803000012,,,,,,,,,,,,,,,,,,,,,,,638.0886905999942,638.1048803000012,638.6048142999934,638.588462499989,,,,,,,,,,,,,,,,,,,,,,,,,,638.5939427999983,638.6048142999934,638.6048142999934,638.6048142999934,641.6047589999944,641.6047589999944,641.6047589999944,641.588497299992,shoe,f,1.273438600008376,0.15393879999464843,641.5885356999934,641.5885449999914,None,,,,,,,,,,,,,,00022,001,2025-11-09_11h49.42.417,MST_task,2024.2.2,60.000132003041756,2025-11-09 11h49.51.061559 +0530,
,Objects\295a.jpg,153,0,153,,,,,,,f,1.2813886000076309,0.16264749999390915,None,,,,,,,153,0,153,0,641.6047589999944,,,,,,,,,,,,,,,,,,,,,,,641.5886056000018,641.6047589999944,642.1047218000022,642.0882569999958,,,,,,,,,,,,,,,,,,,,,,,,,,642.0934503000026,642.1047218000022,642.1047218000022,642.1047218000022,645.1046950000018,645.1046950000018,645.1046950000018,645.0883705000015,shoe,f,1.2813886000076309,0.16264749999390915,645.0884136999957,645.08842249999,None,,,,,,,,,,,,,,00022,001,2025-11-09_11h49.42.417,MST_task,2024.2.2,60.000132003041756,2025-11-09 11h49.51.061559 +0530,
,Objects\113a.jpg,154,0,154,,,,,,,f,2.1727526000031503,0.14536840000073425,None,,,,,,,154,0,154,0,645.1046950000018,,,,,,,,,,,,,,,,,,,,,,,645.0885116999998,645.1046950000018,645.604317099991,645.588275999995,,,,,,,,,,,,,,,,,,,,,,,,,,645.5991872000013,645.604317099991,645.604317099991,645.604317099991,648.6045845999906,648.6045845999906,648.6045845999906,648.5882466999901,indoor,f,2.1727526000031503,0.14536840000073425,648.5894435999944,648.5894583999907,None,,,,,,,,,,,,,,00022,001,2025-11-09_11h49.42.417,MST_task,2024.2.2,60.000132003041756,2025-11-09 11h49.51.061559 +0530,
