Sl_no,image_path,thisN,thisTrialN,thisRepN,key_resp_5.keys,key_resp_7.keys,key_resp_7.rt,key_resp_7.duration,key_resp_5.rt,key_resp_5.duration,key_resp_9.keys,key_resp_8.keys,key_resp_8.rt,key_resp_8.duration,key_resp_9.rt,key_resp_9.duration,practice.thisRepN,practice.thisTrialN,practice.thisN,trials.thisRepN,trials.thisTrialN,trials.thisN,thisRow.t,notes,welcome_page.started,text.started,key_resp.started,welcome_page.stopped,key_resp.keys,key_resp.rt,key_resp.duration,instructions.started,ins.started,key_resp_2.started,instructions.stopped,key_resp_2.keys,key_resp_2.rt,key_resp_2.duration,objects_only_instruction.started,text_3.started,key_resp_3.started,objects_only_instruction.stopped,key_resp_3.keys,key_resp_3.rt,key_resp_3.duration,ISI.started,text_4.started,text_4.stopped,ISI.stopped,practice_block.started,image.started,key_resp_5.started,text_5.started,image.stopped,key_resp_5.stopped,text_5.stopped,practice_block.stopped,practice.key_resp_5.keys,indoor_outdoor.started,text_7.started,key_resp_7.started,indoor_outdoor.stopped,practice.key_resp_7.keys,practice.key_resp_7.rt,practice.key_resp_7.duration,practice.key_resp_5.rt,practice.key_resp_5.duration,practice_to_main.started,text_2.started,key_resp_4.started,practice_to_main.stopped,key_resp_4.keys,key_resp_4.rt,key_resp_4.duration,objects.started,image_2.started,text_9.started,key_resp_9.started,image_2.stopped,text_9.stopped,key_resp_9.stopped,objects.stopped,category,trials.key_resp_9.keys,encoding_task.started,text_8.started,key_resp_8.started,encoding_task.stopped,trials.key_resp_8.keys,trials.key_resp_8.rt,trials.key_resp_8.duration,trials.key_resp_9.rt,trials.key_resp_9.duration,end_experiment.started,text_6.started,key_resp_6.started,end_experiment.stopped,key_resp_6.keys,key_resp_6.rt,key_resp_6.duration,list_of_stimuli,encoding_task_accuracy,participant,session,date,expName,psychopyVersion,frameRate,expStart,
,,,,,,,,,,,,,,,,,,,,,,,,,0.001269000000320375,0.0027639000036288053,0.0027639000036288053,454.42015340000216,space,454.4049178999994,None,,,,,,,,,,,,,,,,,,,,,,,,,,,,,,,,,,,,,,,,,,,,,,,,,,,,,,,,,,,,,,,,,,,,,,,,00035,001,2026-01-16_14h49.08.296,MST_task,2024.2.0,59.850708391916186,2026-01-16 14h49.17.409456 +0530,
,,,,,,,,,,,,,,,,,,,,,,,,,,,,,,,,454.42019649999565,454.43441610000446,454.43441610000446,491.70151089999126,space,37.25382419998641,None,,,,,,,,,,,,,,,,,,,,,,,,,,,,,,,,,,,,,,,,,,,,,,,,,,,,,,,,,,,,,,,,,00035,001,2026-01-16_14h49.08.296,MST_task,2024.2.0,59.850708391916186,2026-01-16 14h49.17.409456 +0530,
,,,,,,,,,,,,,,,,,,,,,,,,,,,,,,,,,,,,,,,491.7015436000074,491.7178844999871,491.7178844999871,504.61816149999504,space,12.89018550000037,None,,,,,,,,,,,,,,,,,,,,,,,,,,,,,,,,,,,,,,,,,,,,,,,,,,,,,,,,,,00035,001,2026-01-16_14h49.08.296,MST_task,2024.2.0,59.850708391916186,2026-01-16 14h49.17.409456 +0530,
3,practice_images/037a.jpg,0,0,1,None,f,3.4814266999892425,None,,,,,,,,,1,0,0,,,,504.63422370000626,,,,,,,,,,,,,,,,,,,,,,,504.6223511999997,504.63422370000626,505.1346802999906,505.11794540000847,505.1239518999937,505.1346802999906,505.1346802999906,505.1346802999906,508.13422710000305,508.13422710000305,508.13422710000305,508.118030099984,None,508.11970579999615,508.13422710000305,508.13422710000305,511.618198799988,f,3.4814266999892425,None,,,,,,,,,,,,,,,,,,,,,,,,,,,,,,,,,,,,,,00035,001,2026-01-16_14h49.08.296,MST_task,2024.2.0,59.850708391916186,2026-01-16 14h49.17.409456 +0530,
10,practice_images/182a.jpg,1,1,1,f,None,,,1.7229695999994874,0.1023758000228554,,,,,,,1,1,1,,,,511.63422139998875,,,,,,,,,,,,,,,,,,,,,,,511.6182855000079,511.63422139998875,512.1344042999845,512.1178508999874,512.1195717999944,512.1344042999845,512.1344042999845,512.1344042999845,515.1342807000037,515.1342807000037,515.1342807000037,515.1182366999856,f,515.1182761999953,,,515.118289200007,None,,,1.7229695999994874,0.1023758000228554,,,,,,,,,,,,,,,,,,,,,,,,,,,,,,,,,,,,00035,001,2026-01-16_14h49.08.296,MST_task,2024.2.0,59.850708391916186,2026-01-16 14h49.17.409456 +0530,
4,practice_images/002b.jpg,2,2,1,None,f,6.541544000006979,None,,,,,,,,,1,2,2,,,,515.1342807000037,,,,,,,,,,,,,,,,,,,,,,,515.1183511999843,515.1342807000037,515.6343213999935,515.6181824000087,515.6199074999895,515.6343213999935,515.6343213999935,515.6343213999935,518.6342907999933,518.6342907999933,518.6342907999933,518.61804880001,None,518.6180823000032,518.6342907999933,518.6342907999933,525.1848210000026,f,6.541544000006979,None,,,,,,,,,,,,,,,,,,,,,,,,,,,,,,,,,,,,,,00035,001,2026-01-16_14h49.08.296,MST_task,2024.2.0,59.850708391916186,2026-01-16 14h49.17.409456 +0530,
9,practice_images/180a.jpg,3,3,1,f,None,,,0.8914343999931589,0.150912100012647,,,,,,,1,3,3,,,,525.2010678999941,,,,,,,,,,,,,,,,,,,,,,,525.1849126000016,525.2010678999941,525.7013857999991,525.6844347000006,525.6861411999853,525.7013857999991,525.7013857999991,525.7013857999991,528.7010172999871,528.7010172999871,528.7010172999871,528.6846157000109,f,528.6846532000054,,,528.6846659999865,None,,,0.8914343999931589,0.150912100012647,,,,,,,,,,,,,,,,,,,,,,,,,,,,,,,,,,,,00035,001,2026-01-16_14h49.08.296,MST_task,2024.2.0,59.850708391916186,2026-01-16 14h49.17.409456 +0530,
6,practice_images/158a.jpg,4,4,1,j,None,,,1.7505724999937229,0.15998389999731444,,,,,,,1,4,4,,,,528.7010172999871,,,,,,,,,,,,,,,,,,,,,,,528.6847323999973,528.7010172999871,529.2011739999871,529.1845345000038,529.1858924000117,529.2011739999871,529.2011739999871,529.2011739999871,532.2010196000047,532.2010196000047,532.2010196000047,532.184725500003,j,532.1847654999874,,,532.1847783999983,None,,,1.7505724999937229,0.15998389999731444,,,,,,,,,,,,,,,,,,,,,,,,,,,,,,,,,,,,00035,001,2026-01-16_14h49.08.296,MST_task,2024.2.0,59.850708391916186,2026-01-16 14h49.17.409456 +0530,
8,practice_images/178a.jpg,5,5,1,None,f,6.3796681000094395,None,,,,,,,,,1,5,5,,,,532.2010196000047,,,,,,,,,,,,,,,,,,,,,,,532.1848413000116,532.2010196000047,532.7011799000029,532.6844604999933,532.6891166999994,532.7011799000029,532.7011799000029,532.7011799000029,535.7011149000027,535.7011149000027,535.7011149000027,535.684866800002,None,535.687059799995,535.7011149000027,535.7011149000027,542.0849056000006,f,6.3796681000094395,None,,,,,,,,,,,,,,,,,,,,,,,,,,,,,,,,,,,,,,00035,001,2026-01-16_14h49.08.296,MST_task,2024.2.0,59.850708391916186,2026-01-16 14h49.17.409456 +0530,
7,practice_images/166a.jpg,6,6,1,None,j,0.6789526999928057,None,,,,,,,,,1,6,6,,,,542.1010931000055,,,,,,,,,,,,,,,,,,,,,,,542.0849893999984,542.1010931000055,542.6013202999893,542.5846883000049,542.5863076999958,542.6013202999893,542.6013202999893,542.6013202999893,545.6011017000128,545.6011017000128,545.6011017000128,545.5849319999979,None,545.5849688999879,545.6011017000128,545.6011017000128,546.2852133999986,j,0.6789526999928057,None,,,,,,,,,,,,,,,,,,,,,,,,,,,,,,,,,,,,,,00035,001,2026-01-16_14h49.08.296,MST_task,2024.2.0,59.850708391916186,2026-01-16 14h49.17.409456 +0530,
5,practice_images/139a.jpg,7,7,1,None,j,0.7511667000071611,None,,,,,,,,,1,7,7,,,,546.3011362999969,,,,,,,,,,,,,,,,,,,,,,,546.2853018000023,546.3011362999969,546.8012985000096,546.7846374000073,546.7863273000112,546.8012985000096,546.8012985000096,546.8012985000096,549.8011153000116,549.8011153000116,549.8011153000116,549.7848655999987,None,549.7848996999965,549.8011153000116,549.8011153000116,550.5682409000001,j,0.7511667000071611,None,,,,,,,,,,,,,,,,,,,,,,,,,,,,,,,,,,,,,,00035,001,2026-01-16_14h49.08.296,MST_task,2024.2.0,59.850708391916186,2026-01-16 14h49.17.409456 +0530,
2,practice_images/031a.jpg,8,8,1,None,f,1.3236968999844976,None,,,,,,,,,1,8,8,,,,550.5843687999877,,,,,,,,,,,,,,,,,,,,,,,550.5683271999878,550.5843687999877,551.0845076999976,551.0680316000071,551.069634399988,551.0845076999976,551.0845076999976,551.0845076999976,554.0844407000113,554.0844407000113,554.0844407000113,554.0681040000054,None,554.0681382000039,554.0844407000113,554.0844407000113,555.4184675999859,f,1.3236968999844976,None,,,,,,,,,,,,,,,,,,,,,,,,,,,,,,,,,,,,,,00035,001,2026-01-16_14h49.08.296,MST_task,2024.2.0,59.850708391916186,2026-01-16 14h49.17.409456 +0530,
1,practice_images/013a.jpg,9,9,1,None,j,0.7294570000085514,None,,,,,,,,,1,9,9,,,,555.4344915999973,,,,,,,,,,,,,,,,,,,,,,,555.4185531999974,555.4344915999973,555.9345584000112,555.9182201999938,555.9200121999893,555.9345584000112,555.9345584000112,555.9345584000112,558.9344571999973,558.9344571999973,558.9344571999973,558.9182542999915,None,558.9182888999931,558.9344571999973,558.9344571999973,559.6682335000078,j,0.7294570000085514,None,,,,,,,,,,,,,,,,,,,,,,,,,,,,,,,,,,,,,,00035,001,2026-01-16_14h49.08.296,MST_task,2024.2.0,59.850708391916186,2026-01-16 14h49.17.409456 +0530,
,,,,,,,,,,,,,,,,,,,,,,,,,,,,,,,,,,,,,,,,,,,,,,,,,,,,,,,,,,,,,,,,,,,,559.6683030999848,559.684540599992,559.684540599992,613.3346823999891,space,53.635770399996545,None,,,,,,,,,,,,,,,,,,,,,,,,,,,,,00035,001,2026-01-16_14h49.08.296,MST_task,2024.2.0,59.850708391916186,2026-01-16 14h49.17.409456 +0530,
,Objects\068a.jpg,0,0,1,,,,,,,None,f,0.23727329997927882,None,,,,,,1,0,0,613.3510105999885,,,,,,,,,,,,,,,,,,,,,,,613.3353425000096,613.3510105999885,613.8512303000025,613.8343865000061,,,,,,,,,,,,,,,,,,,,,,,,,,613.841296300001,613.8512303000025,613.8512303000025,613.8512303000025,616.8510319000052,616.8510319000052,616.8510319000052,616.8348173999984,shoe,None,616.8371318999853,616.8510319000052,616.8510319000052,617.1015069999848,f,0.23727329997927882,None,,,,,,,,,,,,00035,001,2026-01-16_14h49.08.296,MST_task,2024.2.0,59.850708391916186,2026-01-16 14h49.17.409456 +0530,
,Objects\224a.jpg,1,0,2,,,,,,,None,f,2.550366400013445,None,,,,,,2,0,1,617.1177077000029,,,,,,,,,,,,,,,,,,,,,,,617.1015960999939,617.1177077000029,617.6181512000039,617.6016031999898,,,,,,,,,,,,,,,,,,,,,,,,,,617.6128490999981,617.6181512000039,617.6181512000039,617.6181512000039,620.6177031999978,620.6177031999978,620.6177031999978,620.601569099992,shoe,None,620.6016092000064,620.6177031999978,620.6177031999978,623.1846184000024,f,2.550366400013445,None,,,,,,,,,,,,00035,001,2026-01-16_14h49.08.296,MST_task,2024.2.0,59.850708391916186,2026-01-16 14h49.17.409456 +0530,
,Objects\025a.jpg,2,0,3,,,,,,,j,None,,,2.482724999979837,0.056002199999056756,,,,3,0,2,623.2009961000003,,,,,,,,,,,,,,,,,,,,,,,623.1847056999977,623.2009961000003,623.7014168000023,623.6845579000073,,,,,,,,,,,,,,,,,,,,,,,,,,623.6881001000002,623.7014168000023,623.7014168000023,623.7014168000023,626.7010365999886,626.7010365999886,626.7010365999886,626.6848908000102,shoe,j,626.684937699989,,,626.6849507000006,None,,,2.482724999979837,0.056002199999056756,,,,,,,,,,00035,001,2026-01-16_14h49.08.296,MST_task,2024.2.0,59.850708391916186,2026-01-16 14h49.17.409456 +0530,
,Objects\280a.jpg,3,0,4,,,,,,,j,None,,,2.7751581000047736,0.14302099999622442,,,,4,0,3,626.7010365999886,,,,,,,,,,,,,,,,,,,,,,,626.6850425000011,626.7010365999886,627.2013111000124,627.1845705999876,,,,,,,,,,,,,,,,,,,,,,,,,,627.187200299988,627.2013111000124,627.2013111000124,627.2013111000124,630.2010463000042,630.2010463000042,630.2010463000042,630.1847662999935,shoe,j,630.1848133000021,,,630.1848263999855,None,,,2.7751581000047736,0.14302099999622442,,,,,,,,,,00035,001,2026-01-16_14h49.08.296,MST_task,2024.2.0,59.850708391916186,2026-01-16 14h49.17.409456 +0530,
,Objects\322a.jpg,4,0,5,,,,,,,f,None,,,1.9466503000003286,0.16799929999979213,,,,5,0,4,630.2010463000042,,,,,,,,,,,,,,,,,,,,,,,630.1848917999887,630.2010463000042,630.7015175999841,630.6844720999943,,,,,,,,,,,,,,,,,,,,,,,,,,630.6878358999966,630.7015175999841,630.7015175999841,630.7015175999841,633.701214700006,633.701214700006,633.701214700006,633.684900799999,shoe,f,633.6849448999856,,,633.6849572999927,None,,,1.9466503000003286,0.16799929999979213,,,,,,,,,,00035,001,2026-01-16_14h49.08.296,MST_task,2024.2.0,59.850708391916186,2026-01-16 14h49.17.409456 +0530,
,Objects\380a.jpg,5,0,6,,,,,,,None,j,1.0789660000009462,None,,,,,,6,0,5,633.701214700006,,,,,,,,,,,,,,,,,,,,,,,633.6850211000128,633.701214700006,634.2014540999953,634.1845417000004,,,,,,,,,,,,,,,,,,,,,,,,,,634.1877378000063,634.2014540999953,634.2014540999953,634.2014540999953,637.201084100001,637.201084100001,637.201084100001,637.1851431000105,shoe,None,637.1851892000122,637.201084100001,637.201084100001,638.2846881999867,j,1.0789660000009462,None,,,,,,,,,,,,00035,001,2026-01-16_14h49.08.296,MST_task,2024.2.0,59.850708391916186,2026-01-16 14h49.17.409456 +0530,
,Objects\340a.jpg,6,0,7,,,,,,,f,None,,,2.846051800006535,None,,,,7,0,6,638.3010725000058,,,,,,,,,,,,,,,,,,,,,,,638.284774300002,638.3010725000058,638.8014446999878,638.7845296000014,,,,,,,,,,,,,,,,,,,,,,,,,,638.7872256000119,638.8014446999878,638.8014446999878,638.8014446999878,641.8010503000114,641.8010503000114,641.8010503000114,641.7849084000045,shoe,f,641.7849521999888,,,641.7849653000012,None,,,2.846051800006535,None,,,,,,,,,,00035,001,2026-01-16_14h49.08.296,MST_task,2024.2.0,59.850708391916186,2026-01-16 14h49.17.409456 +0530,
,Objects\384a.jpg,7,0,8,,,,,,,None,f,1.0271990000037476,None,,,,,,8,0,7,641.8010503000114,,,,,,,,,,,,,,,,,,,,,,,641.7850267000031,641.8010503000114,642.3011630999972,642.2846241999941,,,,,,,,,,,,,,,,,,,,,,,,,,642.2910346999997,642.3011630999972,642.3011630999972,642.3011630999972,645.3011014999938,645.3011014999938,645.3011014999938,645.2846615999879,indoor,None,645.2863263000036,645.3011014999938,645.3011014999938,646.334703600005,f,1.0271990000037476,None,,,,,,,,,,,,00035,001,2026-01-16_14h49.08.296,MST_task,2024.2.0,59.850708391916186,2026-01-16 14h49.17.409456 +0530,
,Objects\134a.jpg,8,0,9,,,,,,,f,None,,,2.1573746999783907,0.1432875000173226,,,,9,0,8,646.3510527999897,,,,,,,,,,,,,,,,,,,,,,,646.3347894999897,646.3510527999897,646.8512520999939,646.8346828999929,,,,,,,,,,,,,,,,,,,,,,,,,,646.8461217999866,646.8512520999939,646.8512520999939,646.8512520999939,649.8510389000003,649.8510389000003,649.8510389000003,649.8347820999916,indoor,f,649.8348269000126,,,649.8348394999921,None,,,2.1573746999783907,0.1432875000173226,,,,,,,,,,00035,001,2026-01-16_14h49.08.296,MST_task,2024.2.0,59.850708391916186,2026-01-16 14h49.17.409456 +0530,
,Objects\021a.jpg,9,0,10,,,,,,,f,None,,,1.9207595000043511,0.11202939998474903,,,,10,0,9,649.8510389000003,,,,,,,,,,,,,,,,,,,,,,,649.8349142000079,649.8510389000003,650.351197299984,650.3345331999881,,,,,,,,,,,,,,,,,,,,,,,,,,650.3369322000071,650.351197299984,650.351197299984,650.351197299984,653.3511376999959,653.3511376999959,653.3511376999959,653.3350039999932,indoor,f,653.3350479000073,,,653.3350605999876,None,,,1.9207595000043511,0.11202939998474903,,,,,,,,,,00035,001,2026-01-16_14h49.08.296,MST_task,2024.2.0,59.850708391916186,2026-01-16 14h49.17.409456 +0530,
,Objects\084a.jpg,10,0,11,,,,,,,f,None,,,1.9165376999881119,0.16849310000543483,,,,11,0,10,653.3511376999959,,,,,,,,,,,,,,,,,,,,,,,653.3351268999977,653.3511376999959,653.8513442999974,653.8346629999869,,,,,,,,,,,,,,,,,,,,,,,,,,653.8372946000018,653.8513442999974,653.8513442999974,653.8513442999974,656.8511593999865,656.8511593999865,656.8511593999865,656.834990000003,indoor,f,656.8350344999926,,,656.835046799999,None,,,1.9165376999881119,0.16849310000543483,,,,,,,,,,00035,001,2026-01-16_14h49.08.296,MST_task,2024.2.0,59.850708391916186,2026-01-16 14h49.17.409456 +0530,
,Objects\367a.jpg,11,0,12,,,,,,,f,None,,,1.559790700004669,0.1679825999890454,,,,12,0,11,656.8511593999865,,,,,,,,,,,,,,,,,,,,,,,656.8351100999862,656.8511593999865,657.3516653999977,657.3347424000094,,,,,,,,,,,,,,,,,,,,,,,,,,657.3450521999912,657.3516653999977,657.3516653999977,657.3516653999977,660.3512343000039,660.3512343000039,660.3512343000039,660.3353055999905,indoor,f,660.3353528000007,,,660.3353654000093,None,,,1.559790700004669,0.1679825999890454,,,,,,,,,,00035,001,2026-01-16_14h49.08.296,MST_task,2024.2.0,59.850708391916186,2026-01-16 14h49.17.409456 +0530,
,Objects\160a.jpg,12,0,13,,,,,,,j,None,,,2.4767265999980737,0.1281267000013031,,,,13,0,12,660.3512343000039,,,,,,,,,,,,,,,,,,,,,,,660.3354304000095,660.3512343000039,660.8515418999887,660.8346537000034,,,,,,,,,,,,,,,,,,,,,,,,,,660.8379308999865,660.8515418999887,660.8515418999887,660.8515418999887,663.8511384000012,663.8511384000012,663.8511384000012,663.834909600002,indoor,j,663.8349538999901,,,663.8349663999979,None,,,2.4767265999980737,0.1281267000013031,,,,,,,,,,00035,001,2026-01-16_14h49.08.296,MST_task,2024.2.0,59.850708391916186,2026-01-16 14h49.17.409456 +0530,
,Objects\241a.jpg,13,0,14,,,,,,,f,None,,,1.8644310999952722,0.13708159999805503,,,,14,0,13,663.8511384000012,,,,,,,,,,,,,,,,,,,,,,,663.8350322000042,663.8511384000012,664.3513257000013,664.3346524999943,,,,,,,,,,,,,,,,,,,,,,,,,,664.3440632999991,664.3513257000013,664.3513257000013,664.3513257000013,667.351248299994,667.351248299994,667.351248299994,667.3350228999916,indoor,f,667.3350681999873,,,667.3350812999997,None,,,1.8644310999952722,0.13708159999805503,,,,,,,,,,00035,001,2026-01-16_14h49.08.296,MST_task,2024.2.0,59.850708391916186,2026-01-16 14h49.17.409456 +0530,
,Objects\171a.jpg,14,0,15,,,,,,,None,j,0.8122479999728967,None,,,,,,15,0,14,667.351248299994,,,,,,,,,,,,,,,,,,,,,,,667.3351451999915,667.351248299994,667.8513232000114,667.834769100009,,,,,,,,,,,,,,,,,,,,,,,,,,667.8395077000023,667.8513232000114,667.8513232000114,667.8513232000114,670.8512128999864,670.8512128999864,670.8512128999864,670.835064599989,shoe,None,670.8371852000128,670.8512128999864,670.8512128999864,671.6684107999899,j,0.8122479999728967,None,,,,,,,,,,,,00035,001,2026-01-16_14h49.08.296,MST_task,2024.2.0,59.850708391916186,2026-01-16 14h49.17.409456 +0530,
,Objects\262a.jpg,15,0,16,,,,,,,None,f,0.19903570000315085,None,,,,,,16,0,15,671.6844871999929,,,,,,,,,,,,,,,,,,,,,,,671.6685309000022,671.6844871999929,672.184798000002,672.1680656000099,,,,,,,,,,,,,,,,,,,,,,,,,,672.1711124999856,672.184798000002,672.184798000002,672.184798000002,675.1844288999855,675.1844288999855,675.1844288999855,675.168857200013,shoe,None,675.1688954999845,675.1844288999855,675.1844288999855,675.384841799998,f,0.19903570000315085,None,,,,,,,,,,,,00035,001,2026-01-16_14h49.08.296,MST_task,2024.2.0,59.850708391916186,2026-01-16 14h49.17.409456 +0530,
,Objects\317a.jpg,16,0,17,,,,,,,j,None,,,1.3069792999885976,0.1350281999912113,,,,17,0,16,675.4011589000002,,,,,,,,,,,,,,,,,,,,,,,675.3849264000019,675.4011589000002,675.9015933999908,675.8846604999853,,,,,,,,,,,,,,,,,,,,,,,,,,675.8880510999879,675.9015933999908,675.9015933999908,675.9015933999908,678.901139900001,678.901139900001,678.901139900001,678.8850869000016,shoe,j,678.8851322999981,,,678.8851447000052,None,,,1.3069792999885976,0.1350281999912113,,,,,,,,,,00035,001,2026-01-16_14h49.08.296,MST_task,2024.2.0,59.850708391916186,2026-01-16 14h49.17.409456 +0530,
,Objects\136a.jpg,17,0,18,,,,,,,f,None,,,1.574048100010259,0.16096989999641664,,,,18,0,17,678.901139900001,,,,,,,,,,,,,,,,,,,,,,,678.8852408000093,678.901139900001,679.4013694000023,679.3846878999902,,,,,,,,,,,,,,,,,,,,,,,,,,679.3871529999888,679.4013694000023,679.4013694000023,679.4013694000023,682.4011429999955,682.4011429999955,682.4011429999955,682.385048600001,shoe,f,682.3850918000098,,,682.3851039999863,None,,,1.574048100010259,0.16096989999641664,,,,,,,,,,00035,001,2026-01-16_14h49.08.296,MST_task,2024.2.0,59.850708391916186,2026-01-16 14h49.17.409456 +0530,
,Objects\049a.jpg,18,0,19,,,,,,,j,None,,,1.6908239000185858,0.1430255000013858,,,,19,0,18,682.4011429999955,,,,,,,,,,,,,,,,,,,,,,,682.3851983000059,682.4011429999955,682.9015227000054,682.8847247000085,,,,,,,,,,,,,,,,,,,,,,,,,,682.8938280000002,682.9015227000054,682.9015227000054,682.9015227000054,685.9010893999948,685.9010893999948,685.9010893999948,685.8850326999964,shoe,j,685.8850761000067,,,685.885087600007,None,,,1.6908239000185858,0.1430255000013858,,,,,,,,,,00035,001,2026-01-16_14h49.08.296,MST_task,2024.2.0,59.850708391916186,2026-01-16 14h49.17.409456 +0530,
,Objects\115a.jpg,19,0,20,,,,,,,f,None,,,1.6140758000256028,0.16071909997845069,,,,20,0,19,685.9010893999948,,,,,,,,,,,,,,,,,,,,,,,685.8851525000064,685.9010893999948,686.4013635999872,686.3847472000052,,,,,,,,,,,,,,,,,,,,,,,,,,686.387272699998,686.4013635999872,686.4013635999872,686.4013635999872,689.4011926999956,689.4011926999956,689.4011926999956,689.3849387000082,shoe,f,689.3849839000031,,,689.3849965000118,None,,,1.6140758000256028,0.16071909997845069,,,,,,,,,,00035,001,2026-01-16_14h49.08.296,MST_task,2024.2.0,59.850708391916186,2026-01-16 14h49.17.409456 +0530,
,Objects\126a.jpg,20,0,21,,,,,,,j,None,,,1.6264520000258926,0.1279614999948535,,,,21,0,20,689.4011926999956,,,,,,,,,,,,,,,,,,,,,,,689.3850928999891,689.4011926999956,689.9014128000126,689.8847085000016,,,,,,,,,,,,,,,,,,,,,,,,,,689.8873774000094,689.9014128000126,689.9014128000126,689.9014128000126,692.901268799993,692.901268799993,692.901268799993,692.8850509999902,shoe,j,692.8850958000112,,,692.885109099996,None,,,1.6264520000258926,0.1279614999948535,,,,,,,,,,00035,001,2026-01-16_14h49.08.296,MST_task,2024.2.0,59.850708391916186,2026-01-16 14h49.17.409456 +0530,
,Objects\288a.jpg,21,0,22,,,,,,,None,f,0.28656440001213923,None,,,,,,22,0,21,692.901268799993,,,,,,,,,,,,,,,,,,,,,,,692.8851725999848,692.901268799993,693.4015850999858,693.3847382999957,,,,,,,,,,,,,,,,,,,,,,,,,,693.3896367000125,693.4015850999858,693.4015850999858,693.4015850999858,696.4010929999931,696.4010929999931,696.4010929999931,696.3850502999849,indoor,None,696.387080799992,696.4010929999931,696.4010929999931,696.7015585000045,f,0.28656440001213923,None,,,,,,,,,,,,00035,001,2026-01-16_14h49.08.296,MST_task,2024.2.0,59.850708391916186,2026-01-16 14h49.17.409456 +0530,
,Objects\285a.jpg,22,0,23,,,,,,,None,f,0.03758679999737069,None,,,,,,23,0,22,696.7177804000094,,,,,,,,,,,,,,,,,,,,,,,696.7016539000033,696.7177804000094,697.218297799991,697.2014166000008,,,,,,,,,,,,,,,,,,,,,,,,,,697.2051039999933,697.218297799991,697.218297799991,697.218297799991,700.217868000007,700.217868000007,700.217868000007,700.2018531000067,indoor,None,700.2018929999904,700.217868000007,700.217868000007,700.2683599999873,f,0.03758679999737069,None,,,,,,,,,,,,00035,001,2026-01-16_14h49.08.296,MST_task,2024.2.0,59.850708391916186,2026-01-16 14h49.17.409456 +0530,
,Objects\050a.jpg,23,0,24,,,,,,,j,None,,,1.4080227999947965,0.16785880000679754,,,,24,0,23,700.2844246999884,,,,,,,,,,,,,,,,,,,,,,,700.2684398000129,700.2844246999884,700.7844395999855,700.7681359999988,,,,,,,,,,,,,,,,,,,,,,,,,,700.7707054000057,700.7844395999855,700.7844395999855,700.7844395999855,703.7844141999958,703.7844141999958,703.7844141999958,703.768756800011,indoor,j,703.7688018000044,,,703.7688151999901,None,,,1.4080227999947965,0.16785880000679754,,,,,,,,,,00035,001,2026-01-16_14h49.08.296,MST_task,2024.2.0,59.850708391916186,2026-01-16 14h49.17.409456 +0530,
,Objects\234a.jpg,24,0,25,,,,,,,None,f,0.6518098999804351,None,,,,,,25,0,24,703.7844141999958,,,,,,,,,,,,,,,,,,,,,,,703.7688793000125,703.7844141999958,704.2846702999959,704.2681713000056,,,,,,,,,,,,,,,,,,,,,,,,,,704.2711199999903,704.2846702999959,704.2846702999959,704.2846702999959,707.2845195000118,707.2845195000118,707.2845195000118,707.2684046000068,indoor,None,707.2684464000049,707.2845195000118,707.2845195000118,707.9518633999978,f,0.6518098999804351,None,,,,,,,,,,,,00035,001,2026-01-16_14h49.08.296,MST_task,2024.2.0,59.850708391916186,2026-01-16 14h49.17.409456 +0530,
,Objects\236a.jpg,25,0,26,,,,,,,None,j,7.284379100019578,None,,,,,,26,0,25,707.9678762000112,,,,,,,,,,,,,,,,,,,,,,,707.951957000012,707.9678762000112,708.4682925000088,708.4514259999851,,,,,,,,,,,,,,,,,,,,,,,,,,708.4547148999991,708.4682925000088,708.4682925000088,708.4682925000088,711.4678955000127,711.4678955000127,711.4678955000127,711.451753500005,indoor,None,711.4517960000085,711.4678955000127,711.4678955000127,718.7683330999862,j,7.284379100019578,None,,,,,,,,,,,,00035,001,2026-01-16_14h49.08.296,MST_task,2024.2.0,59.850708391916186,2026-01-16 14h49.17.409456 +0530,
,Objects\341a.jpg,26,0,27,,,,,,,None,f,0.5712025000248104,None,,,,,,27,0,26,718.7842410999874,,,,,,,,,,,,,,,,,,,,,,,718.7684245000128,718.7842410999874,719.284633800009,719.2679697999847,,,,,,,,,,,,,,,,,,,,,,,,,,719.2717589999957,719.284633800009,719.284633800009,719.284633800009,722.2843570999976,722.2843570999976,722.2843570999976,722.2682109999878,indoor,None,722.2682517000067,722.2843570999976,722.2843570999976,722.8681678999856,f,0.5712025000248104,None,,,,,,,,,,,,00035,001,2026-01-16_14h49.08.296,MST_task,2024.2.0,59.850708391916186,2026-01-16 14h49.17.409456 +0530,
,Objects\305a.jpg,27,0,28,,,,,,,None,f,1.15120960000786,None,,,,,,28,0,27,722.8842903999903,,,,,,,,,,,,,,,,,,,,,,,722.8682547000062,722.8842903999903,723.3844204999914,723.3680190999876,,,,,,,,,,,,,,,,,,,,,,,,,,723.3706275000004,723.3844204999914,723.3844204999914,723.3844204999914,726.3843518999929,726.3843518999929,726.3843518999929,726.3681974000065,indoor,None,726.368241499993,726.3843518999929,726.3843518999929,727.5515079000033,f,1.15120960000786,None,,,,,,,,,,,,00035,001,2026-01-16_14h49.08.296,MST_task,2024.2.0,59.850708391916186,2026-01-16 14h49.17.409456 +0530,
,Objects\033a.jpg,28,0,29,,,,,,,None,f,2.6925225000013597,None,,,,,,29,0,28,727.5676759000053,,,,,,,,,,,,,,,,,,,,,,,727.551593799988,727.5676759000053,728.0679112999933,728.051312399999,,,,,,,,,,,,,,,,,,,,,,,,,,728.0563988999929,728.0679112999933,728.0679112999933,728.0679112999933,731.0678337999852,731.0678337999852,731.0678337999852,731.05191010001,shoe,None,731.0541834000032,731.0678337999852,731.0678337999852,733.7681634000037,f,2.6925225000013597,None,,,,,,,,,,,,00035,001,2026-01-16_14h49.08.296,MST_task,2024.2.0,59.850708391916186,2026-01-16 14h49.17.409456 +0530,
,Objects\253a.jpg,29,0,30,,,,,,,f,None,,,1.1717779000173323,0.16799959997297265,,,,30,0,29,733.7843441999867,,,,,,,,,,,,,,,,,,,,,,,733.7685995000065,733.7843441999867,734.2845596999978,734.2680010999902,,,,,,,,,,,,,,,,,,,,,,,,,,734.270841599995,734.2845596999978,734.2845596999978,734.2845596999978,737.2843028999923,737.2843028999923,737.2843028999923,737.2684585000097,shoe,f,737.2685078000068,,,737.2685214999947,None,,,1.1717779000173323,0.16799959997297265,,,,,,,,,,00035,001,2026-01-16_14h49.08.296,MST_task,2024.2.0,59.850708391916186,2026-01-16 14h49.17.409456 +0530,
,Objects\356a.jpg,30,0,31,,,,,,,f,None,,,1.902788800012786,0.12000679998891428,,,,31,0,30,737.2843028999923,,,,,,,,,,,,,,,,,,,,,,,737.2686329999997,737.2843028999923,737.7847452999849,737.7679844000086,,,,,,,,,,,,,,,,,,,,,,,,,,737.7716604000016,737.7847452999849,737.7847452999849,737.7847452999849,740.7842696000007,740.7842696000007,740.7842696000007,740.7683148999931,shoe,f,740.7683630000101,,,740.768375899992,None,,,1.902788800012786,0.12000679998891428,,,,,,,,,,00035,001,2026-01-16_14h49.08.296,MST_task,2024.2.0,59.850708391916186,2026-01-16 14h49.17.409456 +0530,
,Objects\107a.jpg,31,0,32,,,,,,,j,None,,,1.8277995000244118,0.1352783000038471,,,,32,0,31,740.7842696000007,,,,,,,,,,,,,,,,,,,,,,,740.7684513000131,740.7842696000007,741.2846443000017,741.2680860999972,,,,,,,,,,,,,,,,,,,,,,,,,,741.2713099000102,741.2846443000017,741.2846443000017,741.2846443000017,744.2843538000016,744.2843538000016,744.2843538000016,744.2683612999972,shoe,j,744.2684061999898,,,744.268418599997,None,,,1.8277995000244118,0.1352783000038471,,,,,,,,,,00035,001,2026-01-16_14h49.08.296,MST_task,2024.2.0,59.850708391916186,2026-01-16 14h49.17.409456 +0530,
,Objects\019a.jpg,32,0,33,,,,,,,None,j,1.5432685999840032,None,,,,,,33,0,32,744.2843538000016,,,,,,,,,,,,,,,,,,,,,,,744.268517199991,744.2843538000016,744.7845547999896,744.7679936999921,,,,,,,,,,,,,,,,,,,,,,,,,,744.7783660999849,744.7845547999896,744.7845547999896,744.7845547999896,747.7842937000096,747.7842937000096,747.7842937000096,747.7682935000048,shoe,None,747.7683323000092,747.7842937000096,747.7842937000096,749.3347160000121,j,1.5432685999840032,None,,,,,,,,,,,,00035,001,2026-01-16_14h49.08.296,MST_task,2024.2.0,59.850708391916186,2026-01-16 14h49.17.409456 +0530,
,Objects\216a.jpg,33,0,34,,,,,,,None,f,0.6453605999995489,None,,,,,,34,0,33,749.3510749999841,,,,,,,,,,,,,,,,,,,,,,,749.3348025000014,749.3510749999841,749.8513280999905,749.8345467000036,,,,,,,,,,,,,,,,,,,,,,,,,,749.8375435000053,749.8513280999905,749.8513280999905,749.8513280999905,752.8510360000073,752.8510360000073,752.8510360000073,752.834898000001,shoe,None,752.8349377000122,752.8510360000073,752.8510360000073,753.5015690999862,f,0.6453605999995489,None,,,,,,,,,,,,00035,001,2026-01-16_14h49.08.296,MST_task,2024.2.0,59.850708391916186,2026-01-16 14h49.17.409456 +0530,
,Objects\319a.jpg,34,0,35,,,,,,,f,None,,,2.9583513000106905,None,,,,35,0,34,753.5177414999926,,,,,,,,,,,,,,,,,,,,,,,753.5016554000031,753.5177414999926,754.0181495999859,754.0015883999877,,,,,,,,,,,,,,,,,,,,,,,,,,754.0042546000041,754.0181495999859,754.0181495999859,754.0181495999859,757.0177485999884,757.0177485999884,757.0177485999884,757.0018315000052,shoe,f,757.0018808000023,,,757.0018948999932,None,,,2.9583513000106905,None,,,,,,,,,,00035,001,2026-01-16_14h49.08.296,MST_task,2024.2.0,59.850708391916186,2026-01-16 14h49.17.409456 +0530,
,Objects\229a.jpg,35,0,36,,,,,,,None,j,1.1219722999958321,None,,,,,,36,0,35,757.0177485999884,,,,,,,,,,,,,,,,,,,,,,,757.00200149999,757.0177485999884,757.5180775999906,757.5012479999859,,,,,,,,,,,,,,,,,,,,,,,,,,757.5062939999916,757.5180775999906,757.5180775999906,757.5180775999906,760.5177486999892,760.5177486999892,760.5177486999892,760.5015622999927,indoor,None,760.503278499993,760.5177486999892,760.5177486999892,761.651431700011,j,1.1219722999958321,None,,,,,,,,,,,,00035,001,2026-01-16_14h49.08.296,MST_task,2024.2.0,59.850708391916186,2026-01-16 14h49.17.409456 +0530,
,Objects\281a.jpg,36,0,37,,,,,,,f,None,,,2.153336399991531,0.15813520000665449,,,,37,0,36,761.6677901000076,,,,,,,,,,,,,,,,,,,,,,,761.6515190000064,761.6677901000076,762.1681021999975,762.1513852000062,,,,,,,,,,,,,,,,,,,,,,,,,,762.154566000012,762.1681021999975,762.1681021999975,762.1681021999975,765.1677883999946,765.1677883999946,765.1677883999946,765.1518137000094,indoor,f,765.1518632000079,,,765.1518764999928,None,,,2.153336399991531,0.15813520000665449,,,,,,,,,,00035,001,2026-01-16_14h49.08.296,MST_task,2024.2.0,59.850708391916186,2026-01-16 14h49.17.409456 +0530,
,Objects\044a.jpg,37,0,38,,,,,,,None,j,0.06817140002385713,None,,,,,,38,0,37,765.1677883999946,,,,,,,,,,,,,,,,,,,,,,,765.1519448999898,765.1677883999946,765.6680663999869,765.651274200005,,,,,,,,,,,,,,,,,,,,,,,,,,765.6547695999907,765.6680663999869,765.6680663999869,765.6680663999869,768.6677600000112,768.6677600000112,768.6677600000112,768.6515341000049,indoor,None,768.6515733000124,768.6677600000112,768.6677600000112,768.7514260000025,j,0.06817140002385713,None,,,,,,,,,,,,00035,001,2026-01-16_14h49.08.296,MST_task,2024.2.0,59.850708391916186,2026-01-16 14h49.17.409456 +0530,
,Objects\352a.jpg,38,0,39,,,,,,,f,None,,,1.771714600006817,0.13599819998489693,,,,39,0,38,768.7677469000046,,,,,,,,,,,,,,,,,,,,,,,768.751510800008,768.7677469000046,769.2680973999959,769.251305599988,,,,,,,,,,,,,,,,,,,,,,,,,,769.2621713000117,769.2680973999959,769.2680973999959,769.2680973999959,772.2677484999876,772.2677484999876,772.2677484999876,772.251545999985,indoor,f,772.2515947000065,,,772.2516075999883,None,,,1.771714600006817,0.13599819998489693,,,,,,,,,,00035,001,2026-01-16_14h49.08.296,MST_task,2024.2.0,59.850708391916186,2026-01-16 14h49.17.409456 +0530,
,Objects\358a.jpg,39,0,40,,,,,,,j,None,,,2.911450200015679,None,,,,40,0,39,772.2677484999876,,,,,,,,,,,,,,,,,,,,,,,772.2516729999916,772.2677484999876,772.7680922999862,772.7513512999867,,,,,,,,,,,,,,,,,,,,,,,,,,772.7546803999867,772.7680922999862,772.7680922999862,772.7680922999862,775.7679142999987,775.7679142999987,775.7679142999987,775.751721699984,indoor,j,775.7517659000005,,,775.751778100006,None,,,2.911450200015679,None,,,,,,,,,,00035,001,2026-01-16_14h49.08.296,MST_task,2024.2.0,59.850708391916186,2026-01-16 14h49.17.409456 +0530,
,Objects\185a.jpg,40,0,41,,,,,,,None,f,1.2277823999756947,None,,,,,,41,0,40,775.7679142999987,,,,,,,,,,,,,,,,,,,,,,,775.7518421999994,775.7679142999987,776.2682780000032,776.2514211999951,,,,,,,,,,,,,,,,,,,,,,,,,,776.2619653999864,776.2682780000032,776.2682780000032,776.2682780000032,779.267903400003,779.267903400003,779.267903400003,779.2517733999994,indoor,None,779.2518112999969,779.267903400003,779.267903400003,780.5016178000078,f,1.2277823999756947,None,,,,,,,,,,,,00035,001,2026-01-16_14h49.08.296,MST_task,2024.2.0,59.850708391916186,2026-01-16 14h49.17.409456 +0530,
,Objects\117a.jpg,41,0,42,,,,,,,None,j,0.5417249000165612,None,,,,,,42,0,41,780.517818399996,,,,,,,,,,,,,,,,,,,,,,,780.501715099992,780.517818399996,781.0180213999993,781.0015586999943,,,,,,,,,,,,,,,,,,,,,,,,,,781.0115630000073,781.0180213999993,781.0180213999993,781.0180213999993,784.0177565999911,784.0177565999911,784.0177565999911,784.0017153999943,indoor,None,784.0017589000054,784.0177565999911,784.0177565999911,784.5682527000026,j,0.5417249000165612,None,,,,,,,,,,,,00035,001,2026-01-16_14h49.08.296,MST_task,2024.2.0,59.850708391916186,2026-01-16 14h49.17.409456 +0530,
,Objects\125a.jpg,42,0,43,,,,,,,j,None,,,2.1310724999930244,0.09571699998923577,,,,43,0,42,784.5844246000051,,,,,,,,,,,,,,,,,,,,,,,784.5683405000018,784.5844246000051,785.084841200005,785.0681498000049,,,,,,,,,,,,,,,,,,,,,,,,,,785.0732943000039,785.084841200005,785.084841200005,785.084841200005,788.084460699989,788.084460699989,788.084460699989,788.0685629000072,shoe,j,788.0707044999872,,,788.0707224000071,None,,,2.1310724999930244,0.09571699998923577,,,,,,,,,,00035,001,2026-01-16_14h49.08.296,MST_task,2024.2.0,59.850708391916186,2026-01-16 14h49.17.409456 +0530,
,Objects\230a.jpg,43,0,44,,,,,,,j,None,,,1.054701200017007,0.1440635999897495,,,,44,0,43,788.084460699989,,,,,,,,,,,,,,,,,,,,,,,788.0708229999873,788.084460699989,788.5849425999913,788.5681436999876,,,,,,,,,,,,,,,,,,,,,,,,,,788.5712506000127,788.5849425999913,788.5849425999913,788.5849425999913,791.5844330000109,791.5844330000109,791.5844330000109,791.568428700004,shoe,j,791.5684715000098,,,791.5684836999862,None,,,1.054701200017007,0.1440635999897495,,,,,,,,,,00035,001,2026-01-16_14h49.08.296,MST_task,2024.2.0,59.850708391916186,2026-01-16 14h49.17.409456 +0530,
,Objects\205a.jpg,44,0,45,,,,,,,j,None,,,1.2594201999891084,0.12000360002275556,,,,45,0,44,791.5844330000109,,,,,,,,,,,,,,,,,,,,,,,791.568577500002,791.5844330000109,792.0848937999981,792.0683057999995,,,,,,,,,,,,,,,,,,,,,,,,,,792.0716679999896,792.0848937999981,792.0848937999981,792.0848937999981,795.0845766999992,795.0845766999992,795.0845766999992,795.0683747000003,shoe,j,795.0684216000082,,,795.0684335000115,None,,,1.2594201999891084,0.12000360002275556,,,,,,,,,,00035,001,2026-01-16_14h49.08.296,MST_task,2024.2.0,59.850708391916186,2026-01-16 14h49.17.409456 +0530,
,Objects\152a.jpg,45,0,46,,,,,,,None,f,0.10333549999631941,None,,,,,,46,0,45,795.0845766999992,,,,,,,,,,,,,,,,,,,,,,,795.0684968999994,795.0845766999992,795.5849597000051,795.5681583000114,,,,,,,,,,,,,,,,,,,,,,,,,,795.5716422999976,795.5849597000051,795.5849597000051,795.5849597000051,798.5845603999915,798.5845603999915,798.5845603999915,798.5683560000034,shoe,None,798.5683957999863,798.5845603999915,798.5845603999915,798.7015223999915,f,0.10333549999631941,None,,,,,,,,,,,,00035,001,2026-01-16_14h49.08.296,MST_task,2024.2.0,59.850708391916186,2026-01-16 14h49.17.409456 +0530,
,Objects\308a.jpg,46,0,47,,,,,,,f,None,,,1.3094041000003926,0.1599935000122059,,,,47,0,46,798.7178636000026,,,,,,,,,,,,,,,,,,,,,,,798.7016372999933,798.7178636000026,799.2181362000119,799.2015232999984,,,,,,,,,,,,,,,,,,,,,,,,,,799.2110761000076,799.2181362000119,799.2181362000119,799.2181362000119,802.2178688000131,802.2178688000131,802.2178688000131,802.2016544000071,shoe,f,802.2017026999965,,,802.2017155000067,None,,,1.3094041000003926,0.1599935000122059,,,,,,,,,,00035,001,2026-01-16_14h49.08.296,MST_task,2024.2.0,59.850708391916186,2026-01-16 14h49.17.409456 +0530,
,Objects\345a.jpg,47,0,48,,,,,,,f,None,,,1.8732621000090148,0.14497639998444356,,,,48,0,47,802.2178688000131,,,,,,,,,,,,,,,,,,,,,,,802.2017801000038,802.2178688000131,802.7181794999924,802.7014955999912,,,,,,,,,,,,,,,,,,,,,,,,,,802.7106268999923,802.7181794999924,802.7181794999924,802.7181794999924,805.7177971999918,805.7177971999918,805.7177971999918,805.7019004999893,shoe,f,805.7019516,,,805.7019652999879,None,,,1.8732621000090148,0.14497639998444356,,,,,,,,,,00035,001,2026-01-16_14h49.08.296,MST_task,2024.2.0,59.850708391916186,2026-01-16 14h49.17.409456 +0530,
,Objects\140a.jpg,48,0,49,,,,,,,f,None,,,2.253469200019026,0.088900000002468,,,,49,0,48,805.7177971999918,,,,,,,,,,,,,,,,,,,,,,,805.7020329000079,805.7177971999918,806.2179452999844,806.2013526000082,,,,,,,,,,,,,,,,,,,,,,,,,,806.2104901999992,806.2179452999844,806.2179452999844,806.2179452999844,809.2177773999865,809.2177773999865,809.2177773999865,809.2015824000118,shoe,f,809.2016262999969,,,809.201638700004,None,,,2.253469200019026,0.088900000002468,,,,,,,,,,00035,001,2026-01-16_14h49.08.296,MST_task,2024.2.0,59.850708391916186,2026-01-16 14h49.17.409456 +0530,
,Objects\183a.jpg,49,0,50,,,,,,,f,None,,,2.5621848000155296,0.13603609998244792,,,,50,0,49,809.2177773999865,,,,,,,,,,,,,,,,,,,,,,,809.201702899998,809.2177773999865,809.7179954999883,809.7014064000105,,,,,,,,,,,,,,,,,,,,,,,,,,809.7055963999883,809.7179954999883,809.7179954999883,809.7179954999883,812.7177707999945,812.7177707999945,812.7177707999945,812.7016462000029,indoor,f,812.7033023000113,,,812.7033213000104,None,,,2.5621848000155296,0.13603609998244792,,,,,,,,,,00035,001,2026-01-16_14h49.08.296,MST_task,2024.2.0,59.850708391916186,2026-01-16 14h49.17.409456 +0530,
,Objects\083a.jpg,50,0,51,,,,,,,None,j,1.510036299994681,None,,,,,,51,0,50,812.7177707999945,,,,,,,,,,,,,,,,,,,,,,,812.7033907999867,812.7177707999945,813.2179599000083,813.2014097000065,,,,,,,,,,,,,,,,,,,,,,,,,,813.2039254000119,813.2179599000083,813.2179599000083,813.2179599000083,816.2177807000116,816.2177807000116,816.2177807000116,816.2016386000032,indoor,None,816.2016805000021,816.2177807000116,816.2177807000116,817.7347560999915,j,1.510036299994681,None,,,,,,,,,,,,00035,001,2026-01-16_14h49.08.296,MST_task,2024.2.0,59.850708391916186,2026-01-16 14h49.17.409456 +0530,
,Objects\143a.jpg,51,0,52,,,,,,,j,None,,,1.4613568000204396,0.14289379998808727,,,,52,0,51,817.7510641000117,,,,,,,,,,,,,,,,,,,,,,,817.7348466000112,817.7510641000117,,818.235053899989,,,,,,,,,,,,,,,,,,,,,,,,,,818.2379345000081,818.2513824999915,818.2513824999915,818.2513824999915,821.2510824000055,821.2510824000055,821.2510824000055,821.2349471999914,indoor,j,821.2349942000001,,,821.2350058000011,None,,,1.4613568000204396,0.14289379998808727,,,,,,,,,,00035,001,2026-01-16_14h49.08.296,MST_task,2024.2.0,59.850708391916186,2026-01-16 14h49.17.409456 +0530,
,Objects\039a.jpg,52,0,53,,,,,,,j,None,,,0.784466799988877,0.15303410001797602,,,,53,0,52,821.2510824000055,,,,,,,,,,,,,,,,,,,,,,,821.2350747000019,821.2510824000055,821.7512763999985,821.7348569000023,,,,,,,,,,,,,,,,,,,,,,,,,,821.7374982000038,821.7512763999985,821.7512763999985,821.7512763999985,824.7511101999844,824.7511101999844,824.7511101999844,824.7349729000125,indoor,j,824.7350182000082,,,824.7350308999885,None,,,0.784466799988877,0.15303410001797602,,,,,,,,,,00035,001,2026-01-16_14h49.08.296,MST_task,2024.2.0,59.850708391916186,2026-01-16 14h49.17.409456 +0530,
,Objects\204a.jpg,53,0,54,,,,,,,j,None,,,1.0282067999942228,0.1289561000012327,,,,54,0,53,824.7511101999844,,,,,,,,,,,,,,,,,,,,,,,824.7350971999986,824.7511101999844,825.2512811000051,825.2346373999899,,,,,,,,,,,,,,,,,,,,,,,,,,825.2369959999924,825.2512811000051,825.2512811000051,825.2512811000051,828.2511295999866,828.2511295999866,828.2511295999866,828.2348139999958,indoor,j,828.23485909999,,,828.2348716999986,None,,,1.0282067999942228,0.1289561000012327,,,,,,,,,,00035,001,2026-01-16_14h49.08.296,MST_task,2024.2.0,59.850708391916186,2026-01-16 14h49.17.409456 +0530,
,Objects\378a.jpg,54,0,55,,,,,,,j,None,,,1.3370237000053748,0.15913539999746718,,,,55,0,54,828.2511295999866,,,,,,,,,,,,,,,,,,,,,,,828.2349359999935,828.2511295999866,828.7512699000072,828.7345644999878,,,,,,,,,,,,,,,,,,,,,,,,,,828.7374872000073,828.7512699000072,828.7512699000072,828.7512699000072,831.7510425999935,831.7510425999935,831.7510425999935,831.7349697999889,indoor,j,831.7351085999981,,,831.7351227999898,None,,,1.3370237000053748,0.15913539999746718,,,,,,,,,,00035,001,2026-01-16_14h49.08.296,MST_task,2024.2.0,59.850708391916186,2026-01-16 14h49.17.409456 +0530,
,Objects\339a.jpg,55,0,56,,,,,,,j,None,,,2.0919922000030056,0.1611599000170827,,,,56,0,55,831.7510425999935,,,,,,,,,,,,,,,,,,,,,,,831.7351886999968,831.7510425999935,832.2515160999901,832.2346256999881,,,,,,,,,,,,,,,,,,,,,,,,,,832.2376151999924,832.2515160999901,832.2515160999901,832.2515160999901,835.251111599995,835.251111599995,835.251111599995,835.2349396999925,indoor,j,835.2349834000051,,,835.2349956000107,None,,,2.0919922000030056,0.1611599000170827,,,,,,,,,,00035,001,2026-01-16_14h49.08.296,MST_task,2024.2.0,59.850708391916186,2026-01-16 14h49.17.409456 +0530,
,Objects\161a.jpg,56,0,57,,,,,,,f,None,,,1.8967068000056315,0.10391209999215789,,,,57,0,56,835.251111599995,,,,,,,,,,,,,,,,,,,,,,,835.2350608000124,835.251111599995,835.7515466999903,835.7346459999972,,,,,,,,,,,,,,,,,,,,,,,,,,835.7489910000004,835.7515466999903,835.7515466999903,835.7515466999903,838.7511077999952,838.7511077999952,838.7511077999952,838.7351517000061,shoe,f,838.737300400011,,,838.7373190000071,None,,,1.8967068000056315,0.10391209999215789,,,,,,,,,,00035,001,2026-01-16_14h49.08.296,MST_task,2024.2.0,59.850708391916186,2026-01-16 14h49.17.409456 +0530,
,Objects\146a.jpg,57,0,58,,,,,,,None,j,1.0925937999854796,None,,,,,,58,0,57,838.7511077999952,,,,,,,,,,,,,,,,,,,,,,,838.7373879000079,838.7511077999952,839.2513667999883,839.2348100999952,,,,,,,,,,,,,,,,,,,,,,,,,,839.2376612999942,839.2513667999883,839.2513667999883,839.2513667999883,842.2510599000088,842.2510599000088,842.2510599000088,842.2349774999893,shoe,None,842.2350160999922,842.2510599000088,842.2510599000088,843.35147709999,j,1.0925937999854796,None,,,,,,,,,,,,00035,001,2026-01-16_14h49.08.296,MST_task,2024.2.0,59.850708391916186,2026-01-16 14h49.17.409456 +0530,
,Objects\054a.jpg,58,0,59,,,,,,,None,j,0.8525351000134833,None,,,,,,59,0,58,843.36780919999,,,,,,,,,,,,,,,,,,,,,,,843.3515644999861,843.36780919999,843.8679686000105,843.851327899989,,,,,,,,,,,,,,,,,,,,,,,,,,843.8544843999844,843.8679686000105,843.8679686000105,843.8679686000105,846.8677470000111,846.8677470000111,846.8677470000111,846.8517172999855,shoe,None,846.8517554999853,846.8677470000111,846.8677470000111,847.7346968000056,j,0.8525351000134833,None,,,,,,,,,,,,00035,001,2026-01-16_14h49.08.296,MST_task,2024.2.0,59.850708391916186,2026-01-16 14h49.17.409456 +0530,
,Objects\006a.jpg,59,0,60,,,,,,,None,f,0.5178188999998383,None,,,,,,60,0,59,847.7510577999929,,,,,,,,,,,,,,,,,,,,,,,847.7348162999842,847.7510577999929,848.2512693000026,848.2346730999998,,,,,,,,,,,,,,,,,,,,,,,,,,848.2374925999902,848.2512693000026,848.2512693000026,848.2512693000026,851.2511268999951,851.2511268999951,851.2511268999951,851.2347739000106,shoe,None,851.2348091999884,851.2511268999951,851.2511268999951,851.7847785000049,f,0.5178188999998383,None,,,,,,,,,,,,00035,001,2026-01-16_14h49.08.296,MST_task,2024.2.0,59.850708391916186,2026-01-16 14h49.17.409456 +0530,
,Objects\067a.jpg,60,0,61,,,,,,,None,j,2.6823926999932155,None,,,,,,61,0,60,851.8010403999942,,,,,,,,,,,,,,,,,,,,,,,851.7848769999982,851.8010403999942,852.3013740000024,852.284545100003,,,,,,,,,,,,,,,,,,,,,,,,,,852.2872294000117,852.3013740000024,852.3013740000024,852.3013740000024,855.3011117999849,855.3011117999849,855.3011117999849,855.2850162000104,shoe,None,855.2850579000078,855.3011117999849,855.3011117999849,857.9849922999856,j,2.6823926999932155,None,,,,,,,,,,,,00035,001,2026-01-16_14h49.08.296,MST_task,2024.2.0,59.850708391916186,2026-01-16 14h49.17.409456 +0530,
,Objects\085a.jpg,61,0,62,,,,,,,None,j,1.0836741999955848,None,,,,,,62,0,61,858.0011062000121,,,,,,,,,,,,,,,,,,,,,,,857.985079200007,858.0011062000121,858.5012850000057,858.4846139999863,,,,,,,,,,,,,,,,,,,,,,,,,,858.487964400003,858.5012850000057,858.5012850000057,858.5012850000057,861.5010555000044,861.5010555000044,861.5010555000044,861.4849912000063,shoe,None,861.4850298000092,861.5010555000044,861.5010555000044,862.6014656999905,j,1.0836741999955848,None,,,,,,,,,,,,00035,001,2026-01-16_14h49.08.296,MST_task,2024.2.0,59.850708391916186,2026-01-16 14h49.17.409456 +0530,
,Objects\207a.jpg,62,0,63,,,,,,,j,None,,,2.9218430000182707,None,,,,63,0,62,862.6178186000034,,,,,,,,,,,,,,,,,,,,,,,862.6015831000113,862.6178186000034,863.1183588999847,863.1014623999945,,,,,,,,,,,,,,,,,,,,,,,,,,863.1066760999965,863.1183588999847,863.1183588999847,863.1183588999847,866.1177912999992,866.1177912999992,866.1177912999992,866.101903200004,shoe,j,866.1019650000089,,,866.1019788999984,None,,,2.9218430000182707,None,,,,,,,,,,00035,001,2026-01-16_14h49.08.296,MST_task,2024.2.0,59.850708391916186,2026-01-16 14h49.17.409456 +0530,
,Objects\350a.jpg,63,0,64,,,,,,,j,None,,,2.909444100019755,None,,,,64,0,63,866.1177912999992,,,,,,,,,,,,,,,,,,,,,,,866.1020468999923,866.1177912999992,866.618186000007,866.601365599985,,,,,,,,,,,,,,,,,,,,,,,,,,866.6064032999857,866.618186000007,866.618186000007,866.618186000007,869.6178004000103,869.6178004000103,869.6178004000103,869.6016079999972,indoor,j,869.6032263000088,,,869.6032456000103,None,,,2.909444100019755,None,,,,,,,,,,00035,001,2026-01-16_14h49.08.296,MST_task,2024.2.0,59.850708391916186,2026-01-16 14h49.17.409456 +0530,
,Objects\333a.jpg,64,0,65,,,,,,,f,None,,,1.4656642000190914,0.14482650000718422,,,,65,0,64,869.6178004000103,,,,,,,,,,,,,,,,,,,,,,,869.6033247000014,869.6178004000103,870.1181836999895,870.101348199998,,,,,,,,,,,,,,,,,,,,,,,,,,870.1064933000016,870.1181836999895,870.1181836999895,870.1181836999895,873.1177806000051,873.1177806000051,873.1177806000051,873.1015489000129,indoor,f,873.1015923999948,,,873.1016041999974,None,,,1.4656642000190914,0.14482650000718422,,,,,,,,,,00035,001,2026-01-16_14h49.08.296,MST_task,2024.2.0,59.850708391916186,2026-01-16 14h49.17.409456 +0530,
,Objects\038a.jpg,65,0,66,,,,,,,f,None,,,1.2216754000110086,0.14465920001384802,,,,66,0,65,873.1177806000051,,,,,,,,,,,,,,,,,,,,,,,873.1016692999983,873.1177806000051,873.6180085999949,873.6013604000036,,,,,,,,,,,,,,,,,,,,,,,,,,873.6041300999932,873.6180085999949,873.6180085999949,873.6180085999949,876.6177234000061,876.6177234000061,876.6177234000061,876.6016762999934,indoor,f,876.6017204000091,,,876.6017319000093,None,,,1.2216754000110086,0.14465920001384802,,,,,,,,,,00035,001,2026-01-16_14h49.08.296,MST_task,2024.2.0,59.850708391916186,2026-01-16 14h49.17.409456 +0530,
,Objects\090a.jpg,66,0,67,,,,,,,j,None,,,2.1217488999827765,0.12000379999517463,,,,67,0,66,876.6177234000061,,,,,,,,,,,,,,,,,,,,,,,876.6017955999996,876.6177234000061,877.1179654999869,877.101361500012,,,,,,,,,,,,,,,,,,,,,,,,,,877.1061307000055,877.1179654999869,877.1179654999869,877.1179654999869,880.1178289999953,880.1178289999953,880.1178289999953,880.10157910001,indoor,j,880.1016226999927,,,880.101634199993,None,,,2.1217488999827765,0.12000379999517463,,,,,,,,,,00035,001,2026-01-16_14h49.08.296,MST_task,2024.2.0,59.850708391916186,2026-01-16 14h49.17.409456 +0530,
,Objects\287a.jpg,67,0,68,,,,,,,None,j,7.135264400014421,None,,,,,,68,0,67,880.1178289999953,,,,,,,,,,,,,,,,,,,,,,,880.1016967000032,880.1178289999953,880.618132100004,880.601296000008,,,,,,,,,,,,,,,,,,,,,,,,,,880.6044209999964,880.618132100004,880.618132100004,880.618132100004,883.6177989999996,883.6177989999996,883.6177989999996,883.6015874999866,indoor,None,883.6016271999979,883.6177989999996,883.6177989999996,890.7682150999899,j,7.135264400014421,None,,,,,,,,,,,,00035,001,2026-01-16_14h49.08.296,MST_task,2024.2.0,59.850708391916186,2026-01-16 14h49.17.409456 +0530,
,Objects\362a.jpg,68,0,69,,,,,,,j,None,,,1.3388833000208251,0.10503209999296814,,,,69,0,68,890.7842209000082,,,,,,,,,,,,,,,,,,,,,,,890.7683063999866,890.7842209000082,891.2847341999877,891.2680238999892,,,,,,,,,,,,,,,,,,,,,,,,,,891.2710297000012,891.2847341999877,891.2847341999877,891.2847341999877,894.2843539000023,894.2843539000023,894.2843539000023,894.2685153000057,indoor,j,894.2685647000035,,,894.2685782999906,None,,,1.3388833000208251,0.10503209999296814,,,,,,,,,,00035,001,2026-01-16_14h49.08.296,MST_task,2024.2.0,59.850708391916186,2026-01-16 14h49.17.409456 +0530,
,Objects\237a.jpg,69,0,70,,,,,,,j,None,,,1.9365423000126611,0.13536230000318028,,,,70,0,69,894.2843539000023,,,,,,,,,,,,,,,,,,,,,,,894.2686479999975,894.2843539000023,894.7848669000086,894.7681580999924,,,,,,,,,,,,,,,,,,,,,,,,,,894.772142700007,894.7848669000086,894.7848669000086,894.7848669000086,897.7844968999852,897.7844968999852,897.7844968999852,897.7684848000063,indoor,j,897.768527200009,,,897.768539599987,None,,,1.9365423000126611,0.13536230000318028,,,,,,,,,,00035,001,2026-01-16_14h49.08.296,MST_task,2024.2.0,59.850708391916186,2026-01-16 14h49.17.409456 +0530,
,Objects\147a.jpg,70,0,71,,,,,,,None,f,2.098833200027002,None,,,,,,71,0,70,897.7844968999852,,,,,,,,,,,,,,,,,,,,,,,897.7686035000079,897.7844968999852,898.2850154000043,898.2681291000044,,,,,,,,,,,,,,,,,,,,,,,,,,898.274059599993,898.2850154000043,898.2850154000043,898.2850154000043,901.2846396999958,901.2846396999958,901.2846396999958,901.2685476999904,shoe,None,901.2715170999872,901.2846396999958,901.2846396999958,903.3851584999938,f,2.098833200027002,None,,,,,,,,,,,,00035,001,2026-01-16_14h49.08.296,MST_task,2024.2.0,59.850708391916186,2026-01-16 14h49.17.409456 +0530,
,Objects\298a.jpg,71,0,72,,,,,,,j,None,,,1.72276810000767,0.14335769999888726,,,,72,0,71,903.4011077999894,,,,,,,,,,,,,,,,,,,,,,,903.3852520000073,903.4011077999894,903.9015271000098,903.8849014999869,,,,,,,,,,,,,,,,,,,,,,,,,,903.8881469999906,903.9015271000098,903.9015271000098,903.9015271000098,906.9012914999912,906.9012914999912,906.9012914999912,906.8851218000054,shoe,j,906.885165899992,,,906.8851789000037,None,,,1.72276810000767,0.14335769999888726,,,,,,,,,,00035,001,2026-01-16_14h49.08.296,MST_task,2024.2.0,59.850708391916186,2026-01-16 14h49.17.409456 +0530,
,Objects\381a.jpg,72,0,73,,,,,,,None,f,6.158699100022204,None,,,,,,73,0,72,906.9012914999912,,,,,,,,,,,,,,,,,,,,,,,906.8852419999894,906.9012914999912,907.4017787000048,907.3847853000043,,,,,,,,,,,,,,,,,,,,,,,,,,907.3964892000076,907.4017787000048,907.4017787000048,907.4017787000048,910.401257599995,910.401257599995,910.401257599995,910.3849251999927,shoe,None,910.3849632999918,910.401257599995,910.401257599995,916.5683556000004,f,6.158699100022204,None,,,,,,,,,,,,00035,001,2026-01-16_14h49.08.296,MST_task,2024.2.0,59.850708391916186,2026-01-16 14h49.17.409456 +0530,
,Objects\284a.jpg,73,0,74,,,,,,,None,f,0.1558608999766875,None,,,,,,74,0,73,916.5845618000021,,,,,,,,,,,,,,,,,,,,,,,916.5684765999904,916.5845618000021,917.0849123999942,917.068071799993,,,,,,,,,,,,,,,,,,,,,,,,,,917.0709879999922,917.0849123999942,917.0849123999942,917.0849123999942,920.0844899000076,920.0844899000076,920.0844899000076,920.0687207999872,shoe,None,920.0687623000122,920.0844899000076,920.0844899000076,920.2518195000011,f,0.1558608999766875,None,,,,,,,,,,,,00035,001,2026-01-16_14h49.08.296,MST_task,2024.2.0,59.850708391916186,2026-01-16 14h49.17.409456 +0530,
,Objects\371a.jpg,74,0,75,,,,,,,j,None,,,1.2717271999863442,0.1449094999989029,,,,75,0,74,920.2679086999851,,,,,,,,,,,,,,,,,,,,,,,920.2519013999845,920.2679086999851,920.7682961999963,920.7514754000003,,,,,,,,,,,,,,,,,,,,,,,,,,920.7547998999944,920.7682961999963,920.7682961999963,920.7682961999963,923.7678596999904,923.7678596999904,923.7678596999904,923.751803799998,shoe,j,923.7518466000038,,,923.7518590000109,None,,,1.2717271999863442,0.1449094999989029,,,,,,,,,,00035,001,2026-01-16_14h49.08.296,MST_task,2024.2.0,59.850708391916186,2026-01-16 14h49.17.409456 +0530,
,Objects\130a.jpg,75,0,76,,,,,,,None,j,1.2696337999950629,None,,,,,,76,0,75,923.7678596999904,,,,,,,,,,,,,,,,,,,,,,,923.7519559999928,923.7678596999904,924.2682525000127,924.2514516999945,,,,,,,,,,,,,,,,,,,,,,,,,,924.2552000999858,924.2682525000127,924.2682525000127,924.2682525000127,927.2678846000053,927.2678846000053,927.2678846000053,927.2517862000095,shoe,None,927.2518222999934,927.2678846000053,927.2678846000053,928.5517803000112,j,1.2696337999950629,None,,,,,,,,,,,,00035,001,2026-01-16_14h49.08.296,MST_task,2024.2.0,59.850708391916186,2026-01-16 14h49.17.409456 +0530,
,Objects\051a.jpg,76,0,77,,,,,,,None,j,0.9885125999862794,None,,,,,,77,0,76,928.5678430999978,,,,,,,,,,,,,,,,,,,,,,,928.5518661999959,928.5678430999978,929.0680758999952,929.0514491999929,,,,,,,,,,,,,,,,,,,,,,,,,,929.0541636999988,929.0680758999952,929.0680758999952,929.0680758999952,932.0678855000006,932.0678855000006,932.0678855000006,932.0516864999954,shoe,None,932.0517237999884,932.0678855000006,932.0678855000006,933.0683394999942,j,0.9885125999862794,None,,,,,,,,,,,,00035,001,2026-01-16_14h49.08.296,MST_task,2024.2.0,59.850708391916186,2026-01-16 14h49.17.409456 +0530,
,Objects\071a.jpg,77,0,78,,,,,,,None,j,0.8870670000032987,None,,,,,,78,0,77,933.084654300008,,,,,,,,,,,,,,,,,,,,,,,933.0684372000105,933.084654300008,933.5846737000102,933.5681664999865,,,,,,,,,,,,,,,,,,,,,,,,,,933.5726772999915,933.5846737000102,933.5846737000102,933.5846737000102,936.5844999999972,936.5844999999972,936.5844999999972,936.568323399988,indoor,None,936.5699823999894,936.5844999999972,936.5844999999972,937.485093700001,j,0.8870670000032987,None,,,,,,,,,,,,00035,001,2026-01-16_14h49.08.296,MST_task,2024.2.0,59.850708391916186,2026-01-16 14h49.17.409456 +0530,
,Objects\245a.jpg,78,0,79,,,,,,,j,None,,,2.5421715000120457,0.1279987999878358,,,,79,0,78,937.5012365999864,,,,,,,,,,,,,,,,,,,,,,,937.4851809999964,937.5012365999864,938.0015338000085,937.9847444999905,,,,,,,,,,,,,,,,,,,,,,,,,,937.9960175000015,938.0015338000085,938.0015338000085,938.0015338000085,941.001262500009,941.001262500009,941.001262500009,940.9850651999877,indoor,j,940.985107799992,,,940.9851207000029,None,,,2.5421715000120457,0.1279987999878358,,,,,,,,,,00035,001,2026-01-16_14h49.08.296,MST_task,2024.2.0,59.850708391916186,2026-01-16 14h49.17.409456 +0530,
,Objects\301a.jpg,79,0,80,,,,,,,None,f,2.5709075999911875,None,,,,,,80,0,79,941.001262500009,,,,,,,,,,,,,,,,,,,,,,,940.9851855000015,941.001262500009,941.5014933999919,941.4846999000001,,,,,,,,,,,,,,,,,,,,,,,,,,941.4872031999985,941.5014933999919,941.5014933999919,941.5014933999919,944.5012729000009,944.5012729000009,944.5012729000009,944.485110699985,indoor,None,944.4851489999855,944.5012729000009,944.5012729000009,947.0849484000064,f,2.5709075999911875,None,,,,,,,,,,,,00035,001,2026-01-16_14h49.08.296,MST_task,2024.2.0,59.850708391916186,2026-01-16 14h49.17.409456 +0530,
,Objects\009a.jpg,80,0,81,,,,,,,f,None,,,2.3903397000103723,0.17609659998561256,,,,81,0,80,947.1012634999934,,,,,,,,,,,,,,,,,,,,,,,947.0850335999858,947.1012634999934,947.6013978999981,947.5847933999903,,,,,,,,,,,,,,,,,,,,,,,,,,947.5951202999859,947.6013978999981,947.6013978999981,947.6013978999981,950.6012428000104,950.6012428000104,950.6012428000104,950.5850777000014,indoor,f,950.5851220999903,,,950.5851346999989,None,,,2.3903397000103723,0.17609659998561256,,,,,,,,,,00035,001,2026-01-16_14h49.08.296,MST_task,2024.2.0,59.850708391916186,2026-01-16 14h49.17.409456 +0530,
,Objects\191a.jpg,81,0,82,,,,,,,None,j,0.49060580000514165,None,,,,,,82,0,81,950.6012428000104,,,,,,,,,,,,,,,,,,,,,,,950.5851978999854,950.6012428000104,951.1014313999913,951.0847627999901,,,,,,,,,,,,,,,,,,,,,,,,,,951.0871143999975,951.1014313999913,951.1014313999913,951.1014313999913,954.1011572999996,954.1011572999996,954.1011572999996,954.084803500009,indoor,None,954.0848416000081,954.1011572999996,954.1011572999996,954.6015345999913,j,0.49060580000514165,None,,,,,,,,,,,,00035,001,2026-01-16_14h49.08.296,MST_task,2024.2.0,59.850708391916186,2026-01-16 14h49.17.409456 +0530,
,Objects\026a.jpg,82,0,83,,,,,,,j,None,,,1.5542888000200037,0.15999630000442266,,,,83,0,82,954.617803000001,,,,,,,,,,,,,,,,,,,,,,,954.6016242000042,954.617803000001,955.1179555999988,955.1014492000104,,,,,,,,,,,,,,,,,,,,,,,,,,955.1057559000037,955.1179555999988,955.1179555999988,955.1179555999988,958.1178126999876,958.1178126999876,958.1178126999876,958.1016073999926,indoor,j,958.101651200006,,,958.1016632000101,None,,,1.5542888000200037,0.15999630000442266,,,,,,,,,,00035,001,2026-01-16_14h49.08.296,MST_task,2024.2.0,59.850708391916186,2026-01-16 14h49.17.409456 +0530,
,Objects\270a.jpg,83,0,84,,,,,,,j,None,,,1.1340040999930352,0.11952770000789315,,,,84,0,83,958.1178126999876,,,,,,,,,,,,,,,,,,,,,,,958.1017282000103,958.1178126999876,958.6181745000067,958.6013897999946,,,,,,,,,,,,,,,,,,,,,,,,,,958.6114068999887,958.6181745000067,958.6181745000067,958.6181745000067,961.6178287999937,961.6178287999937,961.6178287999937,961.6017465000041,indoor,j,961.6017903999891,,,961.6018025999947,None,,,1.1340040999930352,0.11952770000789315,,,,,,,,,,00035,001,2026-01-16_14h49.08.296,MST_task,2024.2.0,59.850708391916186,2026-01-16 14h49.17.409456 +0530,
,Objects\109a.jpg,84,0,85,,,,,,,f,None,,,1.666192200005753,0.17498300000443123,,,,85,0,84,961.6178287999937,,,,,,,,,,,,,,,,,,,,,,,961.6018692000071,961.6178287999937,962.1186514000001,962.1014432999946,,,,,,,,,,,,,,,,,,,,,,,,,,962.1161027000053,962.1186514000001,962.1186514000001,962.1186514000001,965.1178131999914,965.1178131999914,965.1178131999914,965.1018096999906,shoe,f,965.1059073999932,,,965.1059261999908,None,,,1.666192200005753,0.17498300000443123,,,,,,,,,,00035,001,2026-01-16_14h49.08.296,MST_task,2024.2.0,59.850708391916186,2026-01-16 14h49.17.409456 +0530,
,Objects\360a.jpg,85,0,86,,,,,,,None,f,2.9024732999969274,None,,,,,,86,0,85,965.1178131999914,,,,,,,,,,,,,,,,,,,,,,,965.10602810001,965.1178131999914,965.6182285000104,965.6013769999845,,,,,,,,,,,,,,,,,,,,,,,,,,965.6041813000047,965.6182285000104,965.6182285000104,965.6182285000104,968.6177556999901,968.6177556999901,968.6177556999901,968.6016872999899,shoe,None,968.601723300002,968.6177556999901,968.6177556999901,971.5347403000051,f,2.9024732999969274,None,,,,,,,,,,,,00035,001,2026-01-16_14h49.08.296,MST_task,2024.2.0,59.850708391916186,2026-01-16 14h49.17.409456 +0530,
,Objects\046a.jpg,86,0,87,,,,,,,f,None,,,2.860826900025131,None,,,,87,0,86,971.5511728000129,,,,,,,,,,,,,,,,,,,,,,,971.5348250000097,971.5511728000129,972.0515136999893,972.034600199986,,,,,,,,,,,,,,,,,,,,,,,,,,972.0376608000079,972.0515136999893,972.0515136999893,972.0515136999893,975.0511453000072,975.0511453000072,975.0511453000072,975.0348019000085,shoe,f,975.0348448999866,,,975.0348574999953,None,,,2.860826900025131,None,,,,,,,,,,00035,001,2026-01-16_14h49.08.296,MST_task,2024.2.0,59.850708391916186,2026-01-16 14h49.17.409456 +0530,
,Objects\164a.jpg,87,0,88,,,,,,,f,None,,,2.5842955999833066,0.1440178000193555,,,,88,0,87,975.0511453000072,,,,,,,,,,,,,,,,,,,,,,,975.0349212999863,975.0511453000072,975.5513145999867,975.5347509999992,,,,,,,,,,,,,,,,,,,,,,,,,,975.5442116000049,975.5513145999867,975.5513145999867,975.5513145999867,978.5511402999982,978.5511402999982,978.5511402999982,978.5349214999878,shoe,f,978.5349695000041,,,978.5349811000051,None,,,2.5842955999833066,0.1440178000193555,,,,,,,,,,00035,001,2026-01-16_14h49.08.296,MST_task,2024.2.0,59.850708391916186,2026-01-16 14h49.17.409456 +0530,
,Objects\087a.jpg,88,0,89,,,,,,,j,None,,,1.8763153000036255,0.15197150001768023,,,,89,0,88,978.5511402999982,,,,,,,,,,,,,,,,,,,,,,,978.53507730001,978.5511402999982,979.0513247000054,979.034574499994,,,,,,,,,,,,,,,,,,,,,,,,,,979.0370133999968,979.0513247000054,979.0513247000054,979.0513247000054,982.0511822999979,982.0511822999979,982.0511822999979,982.0347811999964,shoe,j,982.0348234999983,,,982.0348355000024,None,,,1.8763153000036255,0.15197150001768023,,,,,,,,,,00035,001,2026-01-16_14h49.08.296,MST_task,2024.2.0,59.850708391916186,2026-01-16 14h49.17.409456 +0530,
,Objects\255a.jpg,89,0,90,,,,,,,None,f,2.617649199994048,None,,,,,,90,0,89,982.0511822999979,,,,,,,,,,,,,,,,,,,,,,,982.0349321000103,982.0511822999979,982.5515396000119,982.5345726000087,,,,,,,,,,,,,,,,,,,,,,,,,,982.5378309999942,982.5515396000119,982.5515396000119,982.5515396000119,985.5511740999937,985.5511740999937,985.5511740999937,985.5347851999977,shoe,None,985.5348228999937,985.5511740999937,985.5511740999937,988.1849755999865,f,2.617649199994048,None,,,,,,,,,,,,00035,001,2026-01-16_14h49.08.296,MST_task,2024.2.0,59.850708391916186,2026-01-16 14h49.17.409456 +0530,
,Objects\365a.jpg,90,0,91,,,,,,,f,None,,,2.018645000003744,0.16041370001039468,,,,91,0,90,988.2011220999993,,,,,,,,,,,,,,,,,,,,,,,988.1850660000055,988.2011220999993,988.7015137000126,988.6850028999906,,,,,,,,,,,,,,,,,,,,,,,,,,988.6948316000053,988.7015137000126,988.7015137000126,988.7015137000126,991.7010859999864,991.7010859999864,991.7010859999864,991.684886300005,shoe,f,991.6849284000054,,,991.6849414999888,None,,,2.018645000003744,0.16041370001039468,,,,,,,,,,00035,001,2026-01-16_14h49.08.296,MST_task,2024.2.0,59.850708391916186,2026-01-16 14h49.17.409456 +0530,
,Objects\311a.jpg,91,0,92,,,,,,,j,None,,,1.4149267000029795,1.0556929000013042,,,,92,0,91,991.7010859999864,,,,,,,,,,,,,,,,,,,,,,,991.6850034999952,991.7010859999864,992.2015111999935,992.1846570000052,,,,,,,,,,,,,,,,,,,,,,,,,,992.1900364999892,992.2015111999935,992.2015111999935,992.2015111999935,995.2011379000032,995.2011379000032,995.2011379000032,995.184886300005,indoor,j,995.1868487999891,,,995.186867100012,None,,,1.4149267000029795,1.0556929000013042,,,,,,,,,,00035,001,2026-01-16_14h49.08.296,MST_task,2024.2.0,59.850708391916186,2026-01-16 14h49.17.409456 +0530,
,Objects\337a.jpg,92,0,93,,,,,,,f,None,,,2.0660521000099834,0.13744779999251477,,,,93,0,92,995.2011379000032,,,,,,,,,,,,,,,,,,,,,,,995.1869361999852,995.2011379000032,995.7015270999982,995.6848147999845,,,,,,,,,,,,,,,,,,,,,,,,,,995.6881214999885,995.7015270999982,995.7015270999982,995.7015270999982,998.701152900001,998.701152900001,998.701152900001,998.6848713000072,indoor,f,998.68491489999,,,998.684926899994,None,,,2.0660521000099834,0.13744779999251477,,,,,,,,,,00035,001,2026-01-16_14h49.08.296,MST_task,2024.2.0,59.850708391916186,2026-01-16 14h49.17.409456 +0530,
,Objects\272a.jpg,93,0,94,,,,,,,j,None,,,1.7989669000089634,0.15997039998183027,,,,94,0,93,998.701152900001,,,,,,,,,,,,,,,,,,,,,,,998.6849917999934,998.701152900001,999.2015501999995,999.1846489000018,,,,,,,,,,,,,,,,,,,,,,,,,,999.196197799989,999.2015501999995,999.2015501999995,999.2015501999995,1002.2011271000083,1002.2011271000083,1002.2011271000083,1002.1850510000077,indoor,j,1002.1850939999858,,,1002.1851056999876,None,,,1.7989669000089634,0.15997039998183027,,,,,,,,,,00035,001,2026-01-16_14h49.08.296,MST_task,2024.2.0,59.850708391916186,2026-01-16 14h49.17.409456 +0530,
,Objects\113a.jpg,94,0,95,,,,,,,None,f,4.506974599993555,None,,,,,,95,0,94,1002.2011271000083,,,,,,,,,,,,,,,,,,,,,,,1002.1851724000007,1002.2011271000083,1002.7019546999945,1002.6849916999927,,,,,,,,,,,,,,,,,,,,,,,,,,1002.688472400012,1002.7019546999945,1002.7019546999945,1002.7019546999945,1005.7011712999956,1005.7011712999956,1005.7011712999956,1005.684879700013,indoor,None,1005.6849166000029,1005.7011712999956,1005.7011712999956,1010.2182271000056,f,4.506974599993555,None,,,,,,,,,,,,00035,001,2026-01-16_14h49.08.296,MST_task,2024.2.0,59.850708391916186,2026-01-16 14h49.17.409456 +0530,
,Objects\212a.jpg,95,0,96,,,,,,,j,None,,,1.2648288999916986,0.13690750001114793,,,,96,0,95,1010.2343632999982,,,,,,,,,,,,,,,,,,,,,,,1010.2183140999987,1010.2343632999982,1010.7348141999973,1010.7180058000085,,,,,,,,,,,,,,,,,,,,,,,,,,1010.7211224999919,1010.7348141999973,1010.7348141999973,1010.7348141999973,1013.7345318000007,1013.7345318000007,1013.7345318000007,1013.7185931999993,indoor,j,1013.7186485999846,,,1013.7186618999986,None,,,1.2648288999916986,0.13690750001114793,,,,,,,,,,00035,001,2026-01-16_14h49.08.296,MST_task,2024.2.0,59.850708391916186,2026-01-16 14h49.17.409456 +0530,
,Objects\256a.jpg,96,0,97,,,,,,,None,j,2.205594099999871,None,,,,,,97,0,96,1013.7345318000007,,,,,,,,,,,,,,,,,,,,,,,1013.7187288999849,1013.7345318000007,1014.2349925999879,1014.2182092999865,,,,,,,,,,,,,,,,,,,,,,,,,,1014.2212284000125,1014.2349925999879,1014.2349925999879,1014.2349925999879,1017.234580999997,1017.234580999997,1017.234580999997,1017.2183817999903,indoor,None,1017.2184192999848,1017.234580999997,1017.234580999997,1019.4515804999974,j,2.205594099999871,None,,,,,,,,,,,,00035,001,2026-01-16_14h49.08.296,MST_task,2024.2.0,59.850708391916186,2026-01-16 14h49.17.409456 +0530,
,Objects\379a.jpg,97,0,98,,,,,,,f,None,,,1.2479996999900322,0.1369708999991417,,,,98,0,97,1019.4679273999936,,,,,,,,,,,,,,,,,,,,,,,1019.4516658000066,1019.4679273999936,1019.9682960000064,1019.9514340999885,,,,,,,,,,,,,,,,,,,,,,,,,,1019.9543823999993,1019.9682960000064,1019.9682960000064,1019.9682960000064,1022.9678714000038,1022.9678714000038,1022.9678714000038,1022.9517561999965,indoor,f,1022.9517980999954,,,1022.9518108000048,None,,,1.2479996999900322,0.1369708999991417,,,,,,,,,,00035,001,2026-01-16_14h49.08.296,MST_task,2024.2.0,59.850708391916186,2026-01-16 14h49.17.409456 +0530,
,Objects\211a.jpg,98,0,99,,,,,,,j,None,,,2.1072037999983877,0.13594860001467168,,,,99,0,98,1022.9678714000038,,,,,,,,,,,,,,,,,,,,,,,1022.9518743999943,1022.9678714000038,1023.4684019999986,1023.4515555000107,,,,,,,,,,,,,,,,,,,,,,,,,,1023.4573600000003,1023.4684019999986,1023.4684019999986,1023.4684019999986,1026.467878800002,1026.467878800002,1026.467878800002,1026.451979800011,shoe,j,1026.4543002999853,,,1026.4543171999976,None,,,2.1072037999983877,0.13594860001467168,,,,,,,,,,00035,001,2026-01-16_14h49.08.296,MST_task,2024.2.0,59.850708391916186,2026-01-16 14h49.17.409456 +0530,
,Objects\197a.jpg,99,0,100,,,,,,,None,j,2.015558699989924,None,,,,,,100,0,99,1026.467878800002,,,,,,,,,,,,,,,,,,,,,,,1026.4543851999915,1026.467878800002,1026.9683427999844,1026.9514644999872,,,,,,,,,,,,,,,,,,,,,,,,,,1026.9547426000063,1026.9683427999844,1026.9683427999844,1026.9683427999844,1029.967995599989,1029.967995599989,1029.967995599989,1029.9518596999987,shoe,None,1029.9518969999917,1029.967995599989,1029.967995599989,1031.984975200001,j,2.015558699989924,None,,,,,,,,,,,,00035,001,2026-01-16_14h49.08.296,MST_task,2024.2.0,59.850708391916186,2026-01-16 14h49.17.409456 +0530,
,Objects\316a.jpg,100,0,101,,,,,,,None,j,1.0342500999977347,None,,,,,,101,0,100,1032.0012652000005,,,,,,,,,,,,,,,,,,,,,,,1031.9850967999955,1032.0012652000005,1032.5016505999956,1032.484757600003,,,,,,,,,,,,,,,,,,,,,,,,,,1032.4876812000002,1032.5016505999956,1032.5016505999956,1032.5016505999956,1035.5012803999998,1035.5012803999998,1035.5012803999998,1035.4851415999874,shoe,None,1035.485177399998,1035.5012803999998,1035.5012803999998,1036.55175459999,j,1.0342500999977347,None,,,,,,,,,,,,00035,001,2026-01-16_14h49.08.296,MST_task,2024.2.0,59.850708391916186,2026-01-16 14h49.17.409456 +0530,
,Objects\076a.jpg,101,0,102,,,,,,,None,f,0.5395655000174884,None,,,,,,102,0,101,1036.5679769999988,,,,,,,,,,,,,,,,,,,,,,,1036.5518416000123,1036.5679769999988,1037.0684167,1037.0516196000099,,,,,,,,,,,,,,,,,,,,,,,,,,1037.0619621000078,1037.0684167,1037.0684167,1037.0684167,1040.067989400006,1040.067989400006,1040.067989400006,1040.0519809999969,shoe,None,1040.052023199998,1040.067989400006,1040.067989400006,1040.6183060999901,f,0.5395655000174884,None,,,,,,,,,,,,00035,001,2026-01-16_14h49.08.296,MST_task,2024.2.0,59.850708391916186,2026-01-16 14h49.17.409456 +0530,
,Objects\079a.jpg,102,0,103,,,,,,,None,j,None,None,,,,,,103,0,102,1040.6344951000065,,,,,,,,,,,,,,,,,,,,,,,1040.6184261000017,1040.6344951000065,1041.1348257999925,1041.1181091000035,,,,,,,,,,,,,,,,,,,,,,,,,,1041.1277949000068,1041.1348257999925,1041.1348257999925,1041.1348257999925,1044.1346639000112,1044.1346639000112,1044.1346639000112,1044.118640700006,shoe,None,1044.118681299995,1044.1346639000112,1044.1346639000112,1044.2516737999977,j,None,None,,,,,,,,,,,,00035,001,2026-01-16_14h49.08.296,MST_task,2024.2.0,59.850708391916186,2026-01-16 14h49.17.409456 +0530,
,Objects\374a.jpg,103,0,104,,,,,,,None,f,1.8722586000221781,None,,,,,,104,0,103,1044.2679354999855,,,,,,,,,,,,,,,,,,,,,,,1044.2517940000107,1044.2679354999855,1044.7684015000123,1044.7515362999984,,,,,,,,,,,,,,,,,,,,,,,,,,1044.7547550000018,1044.7684015000123,1044.7684015000123,1044.7684015000123,1047.7679362999916,1047.7679362999916,1047.7679362999916,1047.7519662000122,shoe,None,1047.7520091999904,1047.7679362999916,1047.7679362999916,1049.6516808999877,f,1.8722586000221781,None,,,,,,,,,,,,00035,001,2026-01-16_14h49.08.296,MST_task,2024.2.0,59.850708391916186,2026-01-16 14h49.17.409456 +0530,
,Objects\369a.jpg,104,0,105,,,,,,,None,f,0.6155259999795817,None,,,,,,105,0,104,1049.6678619000013,,,,,,,,,,,,,,,,,,,,,,,1049.651822899992,1049.6678619000013,1050.1683641999844,1050.1515198000125,,,,,,,,,,,,,,,,,,,,,,,,,,1050.154938199994,1050.1683641999844,1050.1683641999844,1050.1683641999844,1053.1679642999952,1053.1679642999952,1053.1679642999952,1053.1516856999951,shoe,None,1053.151727599994,1053.1679642999952,1053.1679642999952,1053.7849964000052,f,0.6155259999795817,None,,,,,,,,,,,,00035,001,2026-01-16_14h49.08.296,MST_task,2024.2.0,59.850708391916186,2026-01-16 14h49.17.409456 +0530,
,Objects\062a.jpg,105,0,106,,,,,,,None,j,0.7153810999880079,None,,,,,,106,0,105,1053.8012787000043,,,,,,,,,,,,,,,,,,,,,,,1053.78511170001,1053.8012787000043,1054.3013396000024,1054.2845980999991,,,,,,,,,,,,,,,,,,,,,,,,,,1054.295573499985,1054.3013396000024,1054.3013396000024,1054.3013396000024,1057.3013006999972,1057.3013006999972,1057.3013006999972,1057.2850766000047,indoor,None,1057.286693800008,1057.3013006999972,1057.3013006999972,1058.0182857000036,j,0.7153810999880079,None,,,,,,,,,,,,00035,001,2026-01-16_14h49.08.296,MST_task,2024.2.0,59.850708391916186,2026-01-16 14h49.17.409456 +0530,
,Objects\347a.jpg,106,0,107,,,,,,,f,None,,,2.08873560000211,0.13609879999421537,,,,107,0,106,1058.0345946000016,,,,,,,,,,,,,,,,,,,,,,,1058.0183727999975,1058.0345946000016,1058.5348358000047,1058.5185159000102,,,,,,,,,,,,,,,,,,,,,,,,,,1058.5213295999856,1058.5348358000047,1058.5348358000047,1058.5348358000047,1061.5345764000085,1061.5345764000085,1061.5345764000085,1061.5183371999883,indoor,f,1061.5183818000078,,,1061.5183945999888,None,,,2.08873560000211,0.13609879999421537,,,,,,,,,,00035,001,2026-01-16_14h49.08.296,MST_task,2024.2.0,59.850708391916186,2026-01-16 14h49.17.409456 +0530,
,Objects\028a.jpg,107,0,108,,,,,,,f,None,,,2.7740392000123393,0.1108959999983199,,,,108,0,107,1061.5345764000085,,,,,,,,,,,,,,,,,,,,,,,1061.5184601999936,1061.5345764000085,1062.0347420999897,1062.0183243000065,,,,,,,,,,,,,,,,,,,,,,,,,,1062.0280048999994,1062.0347420999897,1062.0347420999897,1062.0347420999897,1065.0344946999976,1065.0344946999976,1065.0344946999976,1065.0184551999846,indoor,f,1065.0185032000009,,,1065.0185159000102,None,,,2.7740392000123393,0.1108959999983199,,,,,,,,,,00035,001,2026-01-16_14h49.08.296,MST_task,2024.2.0,59.850708391916186,2026-01-16 14h49.17.409456 +0530,
,Objects\092a.jpg,108,0,109,,,,,,,None,f,3.769483699987177,None,,,,,,109,0,108,1065.0344946999976,,,,,,,,,,,,,,,,,,,,,,,1065.018582699995,1065.0344946999976,1065.5347226999875,1065.5181179000065,,,,,,,,,,,,,,,,,,,,,,,,,,1065.5208563999913,1065.5347226999875,1065.5347226999875,1065.5347226999875,1068.5345842000097,1068.5345842000097,1068.5345842000097,1068.5183811000024,indoor,None,1068.5184188999992,1068.5345842000097,1068.5345842000097,1072.3182840000081,f,3.769483699987177,None,,,,,,,,,,,,00035,001,2026-01-16_14h49.08.296,MST_task,2024.2.0,59.850708391916186,2026-01-16 14h49.17.409456 +0530,
,Objects\101a.jpg,109,0,110,,,,,,,j,None,,,1.7658846999984235,0.10417559999041259,,,,110,0,109,1072.3344605999882,,,,,,,,,,,,,,,,,,,,,,,1072.318375200004,1072.3344605999882,1072.8346149999998,1072.8181415,,,,,,,,,,,,,,,,,,,,,,,,,,1072.8209708000068,1072.8346149999998,1072.8346149999998,1072.8346149999998,,,,1075.8184114999895,indoor,j,1075.8184538999922,,,1075.8184669000038,None,,,1.7658846999984235,0.10417559999041259,,,,,,,,,,00035,001,2026-01-16_14h49.08.296,MST_task,2024.2.0,59.850708391916186,2026-01-16 14h49.17.409456 +0530,
,Objects\112a.jpg,110,0,111,,,,,,,f,None,,,1.5776624999998603,0.11134649999439716,,,,111,0,110,1075.8344344999932,,,,,,,,,,,,,,,,,,,,,,,1075.818533099984,1075.8344344999932,1076.3346705999866,1076.318066000007,,,,,,,,,,,,,,,,,,,,,,,,,,1076.3206236000115,1076.3346705999866,1076.3346705999866,1076.3346705999866,1079.3344289000088,1079.3344289000088,1079.3344289000088,1079.3184597000072,indoor,f,1079.3185035999923,,,1079.3185159999994,None,,,1.5776624999998603,0.11134649999439716,,,,,,,,,,00035,001,2026-01-16_14h49.08.296,MST_task,2024.2.0,59.850708391916186,2026-01-16 14h49.17.409456 +0530,
,Objects\198a.jpg,111,0,112,,,,,,,f,None,,,2.8140002000145614,None,,,,112,0,111,1079.3344289000088,,,,,,,,,,,,,,,,,,,,,,,1079.3185796999896,1079.3344289000088,1079.834578799986,1079.8180154000001,,,,,,,,,,,,,,,,,,,,,,,,,,1079.8200925999845,1079.834578799986,1079.834578799986,1079.834578799986,1082.8343555000029,1082.8343555000029,1082.8343555000029,1082.8184819000016,indoor,f,1082.8185243000044,,,1082.8185366000107,None,,,2.8140002000145614,None,,,,,,,,,,00035,001,2026-01-16_14h49.08.296,MST_task,2024.2.0,59.850708391916186,2026-01-16 14h49.17.409456 +0530,
,Objects\036a.jpg,112,0,113,,,,,,,None,f,0.6414538999961223,None,,,,,,113,0,112,1082.8343555000029,,,,,,,,,,,,,,,,,,,,,,,1082.818597800011,1082.8343555000029,1083.3346200000087,1083.318002999993,,,,,,,,,,,,,,,,,,,,,,,,,,1083.3228006999998,1083.3346200000087,1083.3346200000087,1083.3346200000087,1086.3343905000074,1086.3343905000074,1086.3343905000074,1086.3183959999878,shoe,None,1086.3206215999962,1086.3343905000074,1086.3343905000074,1086.984932499996,f,0.6414538999961223,None,,,,,,,,,,,,00035,001,2026-01-16_14h49.08.296,MST_task,2024.2.0,59.850708391916186,2026-01-16 14h49.17.409456 +0530,
,Objects\221a.jpg,113,0,114,,,,,,,j,None,,,1.4346353000146337,0.1439873999916017,,,,114,0,113,1087.0011088000028,,,,,,,,,,,,,,,,,,,,,,,1086.9850186000112,1087.0011088000028,1087.5016106000112,1087.4846667000093,,,,,,,,,,,,,,,,,,,,,,,,,,1087.4879699999874,1087.5016106000112,1087.5016106000112,1087.5016106000112,1090.5011221999885,1090.5011221999885,1090.5011221999885,1090.4851377999876,shoe,j,1090.4851836999878,,,1090.4851977000071,None,,,1.4346353000146337,0.1439873999916017,,,,,,,,,,00035,001,2026-01-16_14h49.08.296,MST_task,2024.2.0,59.850708391916186,2026-01-16 14h49.17.409456 +0530,
,Objects\011a.jpg,114,0,115,,,,,,,f,None,,,2.3829727999982424,0.15203980001388118,,,,115,0,114,1090.5011221999885,,,,,,,,,,,,,,,,,,,,,,,1090.4852643999911,1090.5011221999885,1091.0015203999938,1090.9845896000043,,,,,,,,,,,,,,,,,,,,,,,,,,1090.9879291999969,1091.0015203999938,1091.0015203999938,1091.0015203999938,1094.001251300011,1094.001251300011,1094.001251300011,1093.9851670000062,shoe,f,1093.985213100008,,,1093.985225499986,None,,,2.3829727999982424,0.15203980001388118,,,,,,,,,,00035,001,2026-01-16_14h49.08.296,MST_task,2024.2.0,59.850708391916186,2026-01-16 14h49.17.409456 +0530,
,Objects\196a.jpg,115,0,116,,,,,,,None,f,0.7391108000010718,None,,,,,,116,0,115,1094.001251300011,,,,,,,,,,,,,,,,,,,,,,,1093.9852925000014,1094.001251300011,1094.5014230000088,1094.4846427000011,,,,,,,,,,,,,,,,,,,,,,,,,,1094.4884975999885,1094.5014230000088,1094.5014230000088,1094.5014230000088,1097.5011996999965,1097.5011996999965,1097.5011996999965,1097.4848503000103,shoe,None,1097.484888600011,1097.5011996999965,1097.5011996999965,1098.251679899986,f,0.7391108000010718,None,,,,,,,,,,,,00035,001,2026-01-16_14h49.08.296,MST_task,2024.2.0,59.850708391916186,2026-01-16 14h49.17.409456 +0530,
,Objects\188a.jpg,116,0,117,,,,,,,f,None,,,2.024328300001798,0.1359793999872636,,,,117,0,116,1098.2678368999914,,,,,,,,,,,,,,,,,,,,,,,1098.2517674000119,1098.2678368999914,1098.7681190999865,1098.7514699999883,,,,,,,,,,,,,,,,,,,,,,,,,,1098.7619198999892,1098.7681190999865,1098.7681190999865,1098.7681190999865,1101.767852399993,1101.767852399993,1101.767852399993,1101.7517754999863,shoe,f,1101.7518214999873,,,1101.7518339999951,None,,,2.024328300001798,0.1359793999872636,,,,,,,,,,00035,001,2026-01-16_14h49.08.296,MST_task,2024.2.0,59.850708391916186,2026-01-16 14h49.17.409456 +0530,
,Objects\097a.jpg,117,0,118,,,,,,,None,j,1.1078405000152998,None,,,,,,118,0,117,1101.767852399993,,,,,,,,,,,,,,,,,,,,,,,1101.751928999991,1101.767852399993,1102.26814629999,1102.251480100007,,,,,,,,,,,,,,,,,,,,,,,,,,1102.2540568000113,1102.26814629999,1102.26814629999,1102.26814629999,1105.267803099996,1105.267803099996,1105.267803099996,1105.2518363999843,shoe,None,1105.2518737000064,1105.267803099996,1105.267803099996,1106.3848291999893,j,1.1078405000152998,None,,,,,,,,,,,,00035,001,2026-01-16_14h49.08.296,MST_task,2024.2.0,59.850708391916186,2026-01-16 14h49.17.409456 +0530,
,Objects\070a.jpg,118,0,119,,,,,,,f,None,,,1.9227371000160929,0.1290205999976024,,,,119,0,118,1106.4011853999982,,,,,,,,,,,,,,,,,,,,,,,1106.3849157000077,1106.4011853999982,1106.9014314000087,1106.8846935000038,,,,,,,,,,,,,,,,,,,,,,,,,,1106.8950008999964,1106.9014314000087,1106.9014314000087,1106.9014314000087,1109.9011481000052,1109.9011481000052,1109.9011481000052,1109.8849891999853,shoe,f,1109.8850340000063,,,1109.8850463999843,None,,,1.9227371000160929,0.1290205999976024,,,,,,,,,,00035,001,2026-01-16_14h49.08.296,MST_task,2024.2.0,59.850708391916186,2026-01-16 14h49.17.409456 +0530,
,Objects\177a.jpg,119,0,120,,,,,,,j,None,,,2.25550870000734,0.11153649998595938,,,,120,0,119,1109.9011481000052,,,,,,,,,,,,,,,,,,,,,,,1109.8851095999999,1109.9011481000052,1110.4013418999966,1110.3846740000008,,,,,,,,,,,,,,,,,,,,,,,,,,1110.388574599987,1110.4013418999966,1110.4013418999966,1110.4013418999966,1113.4011878999881,1113.4011878999881,1113.4011878999881,1113.384907700005,indoor,j,1113.3865676999849,,,1113.3865850000002,None,,,2.25550870000734,0.11153649998595938,,,,,,,,,,00035,001,2026-01-16_14h49.08.296,MST_task,2024.2.0,59.850708391916186,2026-01-16 14h49.17.409456 +0530,
,Objects\069a.jpg,120,0,121,,,,,,,j,None,,,1.4584748000197578,0.15263089997461066,,,,121,0,120,1113.4011878999881,,,,,,,,,,,,,,,,,,,,,,,1113.3866562999901,1113.4011878999881,1113.9013684999954,1113.8846352999972,,,,,,,,,,,,,,,,,,,,,,,,,,1113.887347699987,1113.9013684999954,1113.9013684999954,1113.9013684999954,1116.901188799995,1116.901188799995,1116.901188799995,1116.8848954999994,indoor,j,1116.8849391000113,,,1116.8849514999893,None,,,1.4584748000197578,0.15263089997461066,,,,,,,,,,00035,001,2026-01-16_14h49.08.296,MST_task,2024.2.0,59.850708391916186,2026-01-16 14h49.17.409456 +0530,
,Objects\065a.jpg,121,0,122,,,,,,,j,None,,,2.8307652999938,None,,,,122,0,121,1116.901188799995,,,,,,,,,,,,,,,,,,,,,,,1116.8850176999986,1116.901188799995,1117.4014278000104,1117.3847690999974,,,,,,,,,,,,,,,,,,,,,,,,,,1117.387185200001,1117.4014278000104,1117.4014278000104,1117.4014278000104,1120.4011897000019,1120.4011897000019,1120.4011897000019,1120.3848834999953,indoor,j,1120.384925899998,,,1120.3849378000014,None,,,2.8307652999938,None,,,,,,,,,,00035,001,2026-01-16_14h49.08.296,MST_task,2024.2.0,59.850708391916186,2026-01-16 14h49.17.409456 +0530,
,Objects\151a.jpg,122,0,123,,,,,,,j,None,,,1.842791800008854,0.12798469999688677,,,,123,0,122,1120.4011897000019,,,,,,,,,,,,,,,,,,,,,,,1120.3850009999878,1120.4011897000019,1120.901460699999,1120.8848242000095,,,,,,,,,,,,,,,,,,,,,,,,,,1120.8874167999893,1120.901460699999,1120.901460699999,1120.901460699999,1123.901132900006,1123.901132900006,1123.901132900006,1123.8850005999848,indoor,j,1123.8850428999867,,,1123.8850549999916,None,,,1.842791800008854,0.12798469999688677,,,,,,,,,,00035,001,2026-01-16_14h49.08.296,MST_task,2024.2.0,59.850708391916186,2026-01-16 14h49.17.409456 +0530,
,Objects\014a.jpg,123,0,124,,,,,,,f,None,,,2.406398100021761,0.16924989997642115,,,,124,0,123,1123.901132900006,,,,,,,,,,,,,,,,,,,,,,,1123.8851238999923,1123.901132900006,1124.4014353000093,1124.3847141999868,,,,,,,,,,,,,,,,,,,,,,,,,,1124.3966998000105,1124.4014353000093,1124.4014353000093,1124.4014353000093,1127.401204099995,1127.401204099995,1127.401204099995,1127.3850623999897,indoor,f,1127.3851046999916,,,1127.385116999998,None,,,2.406398100021761,0.16924989997642115,,,,,,,,,,00035,001,2026-01-16_14h49.08.296,MST_task,2024.2.0,59.850708391916186,2026-01-16 14h49.17.409456 +0530,
,Objects\165a.jpg,124,0,125,,,,,,,f,None,,,2.650311999983387,0.1681129000207875,,,,125,0,124,1127.401204099995,,,,,,,,,,,,,,,,,,,,,,,1127.3851815999951,1127.401204099995,1127.9013396000082,1127.884620500001,,,,,,,,,,,,,,,,,,,,,,,,,,1127.886979700008,1127.9013396000082,1127.9013396000082,1127.9013396000082,1130.901252999989,1130.901252999989,1130.901252999989,1130.8851035000116,indoor,f,1130.8851498999866,,,1130.8851622999937,None,,,2.650311999983387,0.1681129000207875,,,,,,,,,,00035,001,2026-01-16_14h49.08.296,MST_task,2024.2.0,59.850708391916186,2026-01-16 14h49.17.409456 +0530,
,Objects\167a.jpg,125,0,126,,,,,,,f,None,,,2.311020199995255,0.1760157000098843,,,,126,0,125,1130.901252999989,,,,,,,,,,,,,,,,,,,,,,,1130.8852279999992,1130.901252999989,1131.4014036000008,1131.3846810999967,,,,,,,,,,,,,,,,,,,,,,,,,,1131.3872158000013,1131.4014036000008,1131.4014036000008,1131.4014036000008,1134.4013022999861,1134.4013022999861,1134.4013022999861,1134.3849828999955,indoor,f,1134.385024599993,,,1134.3850362999947,None,,,2.311020199995255,0.1760157000098843,,,,,,,,,,00035,001,2026-01-16_14h49.08.296,MST_task,2024.2.0,59.850708391916186,2026-01-16 14h49.17.409456 +0530,
,Objects\064a.jpg,126,0,127,,,,,,,j,None,,,1.650021099980222,0.1368854000174906,,,,127,0,126,1134.4013022999861,,,,,,,,,,,,,,,,,,,,,,,1134.385101699998,1134.4013022999861,1134.9014811000088,1134.8847864000127,,,,,,,,,,,,,,,,,,,,,,,,,,1134.8895797999867,1134.9014811000088,1134.9014811000088,1134.9014811000088,1137.9013657000032,1137.9013657000032,1137.9013657000032,1137.8853059000103,shoe,j,1137.8875012999924,,,1137.8875194999855,None,,,1.650021099980222,0.1368854000174906,,,,,,,,,,00035,001,2026-01-16_14h49.08.296,MST_task,2024.2.0,59.850708391916186,2026-01-16 14h49.17.409456 +0530,
,Objects\114a.jpg,127,0,128,,,,,,,None,f,1.3350334000133444,None,,,,,,128,0,127,1137.9013657000032,,,,,,,,,,,,,,,,,,,,,,,1137.8876227999863,1137.9013657000032,1138.4015236000123,1138.3848149999976,,,,,,,,,,,,,,,,,,,,,,,,,,1138.3875153000117,1138.4015236000123,1138.4015236000123,1138.4015236000123,1141.4013919999998,1141.4013919999998,1141.4013919999998,1141.3851528000087,shoe,None,1141.3851891999948,1141.4013919999998,1141.4013919999998,1142.7517099000106,f,1.3350334000133444,None,,,,,,,,,,,,00035,001,2026-01-16_14h49.08.296,MST_task,2024.2.0,59.850708391916186,2026-01-16 14h49.17.409456 +0530,
,Objects\260a.jpg,128,0,129,,,,,,,None,j,2.25249129999429,None,,,,,,129,0,128,1142.7679691000085,,,,,,,,,,,,,,,,,,,,,,,1142.7517957999953,1142.7679691000085,1143.2683781000087,1143.251538499986,,,,,,,,,,,,,,,,,,,,,,,,,,1143.2548643999908,1143.2683781000087,1143.2683781000087,1143.2683781000087,1146.2679886000114,1146.2679886000114,1146.2679886000114,1146.2518189999973,shoe,None,1146.2518589000101,1146.2679886000114,1146.2679886000114,1148.5349187999964,j,2.25249129999429,None,,,,,,,,,,,,00035,001,2026-01-16_14h49.08.296,MST_task,2024.2.0,59.850708391916186,2026-01-16 14h49.17.409456 +0530,
,Objects\001a.jpg,129,0,130,,,,,,,None,f,1.028552799980389,None,,,,,,130,0,129,1148.5511997999856,,,,,,,,,,,,,,,,,,,,,,,1148.5350143999967,1148.5511997999856,1149.0517063000007,1149.0349988999951,,,,,,,,,,,,,,,,,,,,,,,,,,1149.0450941000017,1149.0517063000007,1149.0517063000007,1149.0517063000007,1152.0513460999937,1152.0513460999937,1152.0513460999937,1152.035046600009,shoe,None,1152.0350901999918,1152.0513460999937,1152.0513460999937,1153.0850554000062,f,1.028552799980389,None,,,,,,,,,,,,00035,001,2026-01-16_14h49.08.296,MST_task,2024.2.0,59.850708391916186,2026-01-16 14h49.17.409456 +0530,
,Objects\325a.jpg,130,0,131,,,,,,,None,f,1.7749522000085562,None,,,,,,131,0,130,1153.1014895999979,,,,,,,,,,,,,,,,,,,,,,,1153.085144200013,1153.1014895999979,1153.6017180999916,1153.5846773000085,,,,,,,,,,,,,,,,,,,,,,,,,,1153.594657300011,1153.6017180999916,1153.6017180999916,1153.6017180999916,1156.6013161999872,1156.6013161999872,1156.6013161999872,1156.585006999987,shoe,None,1156.5850474000035,1156.6013161999872,1156.6013161999872,1158.3849833999993,f,1.7749522000085562,None,,,,,,,,,,,,00035,001,2026-01-16_14h49.08.296,MST_task,2024.2.0,59.850708391916186,2026-01-16 14h49.17.409456 +0530,
,Objects\008a.jpg,131,0,132,,,,,,,f,None,,,1.8983270000026096,0.17600340000353754,,,,132,0,131,1158.401261299994,,,,,,,,,,,,,,,,,,,,,,,1158.3850662999903,1158.401261299994,1158.9017406000057,1158.884847600013,,,,,,,,,,,,,,,,,,,,,,,,,,1158.8884352000023,1158.9017406000057,1158.9017406000057,1158.9017406000057,1161.9012476000062,1161.9012476000062,1161.9012476000062,1161.8852310999937,shoe,f,1161.8852762999886,,,1161.8852897000033,None,,,1.8983270000026096,0.17600340000353754,,,,,,,,,,00035,001,2026-01-16_14h49.08.296,MST_task,2024.2.0,59.850708391916186,2026-01-16 14h49.17.409456 +0530,
,Objects\075a.jpg,132,0,133,,,,,,,f,None,,,1.1426859000057448,0.14452900001197122,,,,133,0,132,1161.9012476000062,,,,,,,,,,,,,,,,,,,,,,,1161.8853862000105,1161.9012476000062,1162.4015562999994,1162.3848424000025,,,,,,,,,,,,,,,,,,,,,,,,,,1162.3877601999848,1162.4015562999994,1162.4015562999994,1162.4015562999994,1165.4012211000081,1165.4012211000081,1165.4012211000081,1165.3851246999984,shoe,f,1165.3851718000078,,,1165.3851847999904,None,,,1.1426859000057448,0.14452900001197122,,,,,,,,,,00035,001,2026-01-16_14h49.08.296,MST_task,2024.2.0,59.850708391916186,2026-01-16 14h49.17.409456 +0530,
,Objects\121a.jpg,133,0,134,,,,,,,None,j,0.8507400000235066,None,,,,,,134,0,133,1165.4012211000081,,,,,,,,,,,,,,,,,,,,,,,1165.3852858000027,1165.4012211000081,1165.9015390999848,1165.884620900004,,,,,,,,,,,,,,,,,,,,,,,,,,1165.8887886999873,1165.9015390999848,1165.9015390999848,1165.9015390999848,1168.9012465999986,1168.9012465999986,1168.9012465999986,1168.8849335999985,indoor,None,1168.8865416999906,1168.9012465999986,1168.9012465999986,1169.7683095000102,j,0.8507400000235066,None,,,,,,,,,,,,00035,001,2026-01-16_14h49.08.296,MST_task,2024.2.0,59.850708391916186,2026-01-16 14h49.17.409456 +0530,
,Objects\059a.jpg,134,0,135,,,,,,,f,None,,,2.4834342999965884,0.12009370001032948,,,,135,0,134,1169.7844707999902,,,,,,,,,,,,,,,,,,,,,,,1169.7683954999957,1169.7844707999902,1170.2846978000016,1170.2681458999868,,,,,,,,,,,,,,,,,,,,,,,,,,1170.2711848999897,1170.2846978000016,1170.2846978000016,1170.2846978000016,1173.2843894000107,1173.2843894000107,1173.2843894000107,1173.2684294999926,indoor,f,1173.2684726000007,,,1173.2684848000063,None,,,2.4834342999965884,0.12009370001032948,,,,,,,,,,00035,001,2026-01-16_14h49.08.296,MST_task,2024.2.0,59.850708391916186,2026-01-16 14h49.17.409456 +0530,
,Objects\219a.jpg,135,0,136,,,,,,,f,None,,,2.38426900000195,0.15080779997515492,,,,136,0,135,1173.2843894000107,,,,,,,,,,,,,,,,,,,,,,,1173.2685605000006,1173.2843894000107,1173.7845437999931,1173.7681037999864,,,,,,,,,,,,,,,,,,,,,,,,,,1173.7708359000098,1173.7845437999931,1173.7845437999931,1173.7845437999931,1176.7843720999954,1176.7843720999954,1176.7843720999954,1176.7683814000047,indoor,f,1176.7684233000036,,,1176.7684357000107,None,,,2.38426900000195,0.15080779997515492,,,,,,,,,,00035,001,2026-01-16_14h49.08.296,MST_task,2024.2.0,59.850708391916186,2026-01-16 14h49.17.409456 +0530,
,Objects\040a.jpg,136,0,137,,,,,,,f,None,,,0.9154089999792632,0.16757350001716986,,,,137,0,136,1176.7843720999954,,,,,,,,,,,,,,,,,,,,,,,1176.7685104999982,1176.7843720999954,1177.2846022000012,1177.2681034000125,,,,,,,,,,,,,,,,,,,,,,,,,,1177.2705159999896,1177.2846022000012,1177.2846022000012,1177.2846022000012,1180.284450600011,1180.284450600011,1180.284450600011,1180.2688631000055,indoor,f,1180.2689040999976,,,1180.2689188999939,None,,,0.9154089999792632,0.16757350001716986,,,,,,,,,,00035,001,2026-01-16_14h49.08.296,MST_task,2024.2.0,59.850708391916186,2026-01-16 14h49.17.409456 +0530,
,Objects\077a.jpg,137,0,138,,,,,,,j,None,,,1.4150541999842972,0.12000779999652877,,,,138,0,137,1180.284450600011,,,,,,,,,,,,,,,,,,,,,,,1180.268981000001,1180.284450600011,1180.784713800007,1180.7682047999988,,,,,,,,,,,,,,,,,,,,,,,,,,1180.7790311999852,1180.784713800007,1180.784713800007,1180.784713800007,1183.7844071,1183.7844071,1183.7844071,1183.7684026999923,indoor,j,1183.7684449999942,,,1183.7684567999968,None,,,1.4150541999842972,0.12000779999652877,,,,,,,,,,00035,001,2026-01-16_14h49.08.296,MST_task,2024.2.0,59.850708391916186,2026-01-16 14h49.17.409456 +0530,
,Objects\375a.jpg,138,0,139,,,,,,,f,None,,,2.0683450999786146,0.1434286000148859,,,,139,0,138,1183.7844071,,,,,,,,,,,,,,,,,,,,,,,1183.7685206999886,1183.7844071,1184.284903599997,1184.26812220001,,,,,,,,,,,,,,,,,,,,,,,,,,1184.2712592000025,1184.284903599997,1184.284903599997,1184.284903599997,1187.2846273999894,1187.2846273999894,1187.2846273999894,1187.2683909999905,indoor,f,1187.2684392000083,,,1187.2684507000085,None,,,2.0683450999786146,0.1434286000148859,,,,,,,,,,00035,001,2026-01-16_14h49.08.296,MST_task,2024.2.0,59.850708391916186,2026-01-16 14h49.17.409456 +0530,
,Objects\259a.jpg,139,0,140,,,,,,,j,None,,,1.1987245999916922,0.15231580002000555,,,,140,0,139,1187.2846273999894,,,,,,,,,,,,,,,,,,,,,,,1187.2685151000042,1187.2846273999894,1187.784868399991,1187.768235399999,,,,,,,,,,,,,,,,,,,,,,,,,,1187.777757600008,1187.784868399991,1187.784868399991,1187.784868399991,1190.78440579999,1190.78440579999,1190.78440579999,1190.7684383000014,indoor,j,1190.768480800005,,,1190.7684933000128,None,,,1.1987245999916922,0.15231580002000555,,,,,,,,,,00035,001,2026-01-16_14h49.08.296,MST_task,2024.2.0,59.850708391916186,2026-01-16 14h49.17.409456 +0530,
,Objects\122a.jpg,140,0,141,,,,,,,None,f,1.7794181999925058,None,,,,,,141,0,140,1190.78440579999,,,,,,,,,,,,,,,,,,,,,,,1190.7685578000091,1190.78440579999,1191.2849160000042,1191.2682486000122,,,,,,,,,,,,,,,,,,,,,,,,,,1191.2811026000127,1191.2849160000042,1191.2849160000042,1191.2849160000042,1194.2844884000078,1194.2844884000078,1194.2844884000078,1194.2684602999943,shoe,None,1194.2709246999875,1194.2844884000078,1194.2844884000078,1196.068550099997,f,1.7794181999925058,None,,,,,,,,,,,,00035,001,2026-01-16_14h49.08.296,MST_task,2024.2.0,59.850708391916186,2026-01-16 14h49.17.409456 +0530,
,Objects\303a.jpg,141,0,142,,,,,,,j,None,,,1.6635369999858085,0.12784530001226813,,,,142,0,141,1196.0844148999895,,,,,,,,,,,,,,,,,,,,,,,1196.068640499987,1196.0844148999895,1196.5848132999963,1196.5681189000024,,,,,,,,,,,,,,,,,,,,,,,,,,1196.5733351999952,1196.5848132999963,1196.5848132999963,1196.5848132999963,1199.5844449999859,1199.5844449999859,1199.5844449999859,1199.5684150999878,shoe,j,1199.5684574999905,,,1199.568470099999,None,,,1.6635369999858085,0.12784530001226813,,,,,,,,,,00035,001,2026-01-16_14h49.08.296,MST_task,2024.2.0,59.850708391916186,2026-01-16 14h49.17.409456 +0530,
,Objects\364a.jpg,142,0,143,,,,,,,f,None,,,1.0035818000033032,0.11148099999991246,,,,143,0,142,1199.5844449999859,,,,,,,,,,,,,,,,,,,,,,,1199.5685344999947,1199.5844449999859,1200.0848915000097,1200.0681681999995,,,,,,,,,,,,,,,,,,,,,,,,,,1200.070833100006,1200.0848915000097,1200.0848915000097,1200.0848915000097,1203.0844340999902,1203.0844340999902,1203.0844340999902,1203.0684894000005,shoe,f,1203.068536900013,,,1203.0685497999948,None,,,1.0035818000033032,0.11148099999991246,,,,,,,,,,00035,001,2026-01-16_14h49.08.296,MST_task,2024.2.0,59.850708391916186,2026-01-16 14h49.17.409456 +0530,
,Objects\276a.jpg,143,0,144,,,,,,,None,f,0.4633464000071399,None,,,,,,144,0,143,1203.0844340999902,,,,,,,,,,,,,,,,,,,,,,,1203.0686510000087,1203.0844340999902,1203.584719800012,1203.5680405999883,,,,,,,,,,,,,,,,,,,,,,,,,,1203.5713983000023,1203.584719800012,1203.584719800012,1203.584719800012,1206.5844844999956,1206.5844844999956,1206.5844844999956,1206.5684006999945,shoe,None,1206.5684404000058,1206.5844844999956,1206.5844844999956,1207.0515973999863,f,0.4633464000071399,None,,,,,,,,,,,,00035,001,2026-01-16_14h49.08.296,MST_task,2024.2.0,59.850708391916186,2026-01-16 14h49.17.409456 +0530,
,Objects\035a.jpg,144,0,145,,,,,,,None,f,0.10461150002083741,None,,,,,,145,0,144,1207.0678753000102,,,,,,,,,,,,,,,,,,,,,,,1207.0516841000062,1207.0678753000102,1207.568043200008,1207.5515528999968,,,,,,,,,,,,,,,,,,,,,,,,,,1207.5540473999863,1207.568043200008,1207.568043200008,1207.568043200008,1210.5679051000043,1210.5679051000043,1210.5679051000043,1210.5516445999965,shoe,None,1210.5516818999895,1210.5679051000043,1210.5679051000043,1210.684810900013,f,0.10461150002083741,None,,,,,,,,,,,,00035,001,2026-01-16_14h49.08.296,MST_task,2024.2.0,59.850708391916186,2026-01-16 14h49.17.409456 +0530,
,Objects\226a.jpg,145,0,146,,,,,,,f,None,,,2.41466519999085,0.1519671000132803,,,,146,0,145,1210.7012154000113,,,,,,,,,,,,,,,,,,,,,,,1210.6848927999963,1210.7012154000113,1211.2016049000085,1211.1846673999971,,,,,,,,,,,,,,,,,,,,,,,,,,1211.1879676000099,1211.2016049000085,1211.2016049000085,1211.2016049000085,1214.2012940999994,1214.2012940999994,1214.2012940999994,1214.1852672999958,shoe,f,1214.1853129999945,,,1214.185326100007,None,,,2.41466519999085,0.1519671000132803,,,,,,,,,,00035,001,2026-01-16_14h49.08.296,MST_task,2024.2.0,59.850708391916186,2026-01-16 14h49.17.409456 +0530,
,Objects\153a.jpg,146,0,147,,,,,,,None,f,1.8199049000104424,None,,,,,,147,0,146,1214.2012940999994,,,,,,,,,,,,,,,,,,,,,,,1214.185391899984,1214.2012940999994,1214.7016034999979,1214.6847203999932,,,,,,,,,,,,,,,,,,,,,,,,,,1214.6882602999976,1214.7016034999979,1214.7016034999979,1214.7016034999979,1217.7012196999858,1217.7012196999858,1217.7012196999858,1217.6850411999912,shoe,None,1217.685078200011,1217.7012196999858,1217.7012196999858,1219.534887899994,f,1.8199049000104424,None,,,,,,,,,,,,00035,001,2026-01-16_14h49.08.296,MST_task,2024.2.0,59.850708391916186,2026-01-16 14h49.17.409456 +0530,
,Objects\228a.jpg,147,0,148,,,,,,,None,f,1.918017099989811,None,,,,,,148,0,147,1219.5512252000044,,,,,,,,,,,,,,,,,,,,,,,1219.5349769000022,1219.5512252000044,1220.051397400006,1220.0347823000047,,,,,,,,,,,,,,,,,,,,,,,,,,1220.0396708000044,1220.051397400006,1220.051397400006,1220.051397400006,1223.0511866000015,1223.0511866000015,1223.0511866000015,1223.0348495999933,indoor,None,1223.0364899999986,1223.0511866000015,1223.0511866000015,1224.9848311000096,f,1.918017099989811,None,,,,,,,,,,,,00035,001,2026-01-16_14h49.08.296,MST_task,2024.2.0,59.850708391916186,2026-01-16 14h49.17.409456 +0530,
,Objects\286a.jpg,148,0,149,,,,,,,None,f,0.698877699993318,None,,,,,,149,0,148,1225.001219800004,,,,,,,,,,,,,,,,,,,,,,,1224.9849182000034,1225.001219800004,1225.501667500008,1225.4847192000016,,,,,,,,,,,,,,,,,,,,,,,,,,1225.4874965999916,1225.501667500008,1225.501667500008,1225.501667500008,1228.5012697000057,1228.5012697000057,1228.5012697000057,1228.4850390999927,indoor,None,1228.4850789000047,1228.5012697000057,1228.5012697000057,1229.2017902999942,f,0.698877699993318,None,,,,,,,,,,,,00035,001,2026-01-16_14h49.08.296,MST_task,2024.2.0,59.850708391916186,2026-01-16 14h49.17.409456 +0530,
,Objects\278a.jpg,149,0,150,,,,,,,f,None,,,1.0261335000104737,0.16800020000664517,,,,150,0,149,1229.2178844999871,,,,,,,,,,,,,,,,,,,,,,,1229.2018835000054,1229.2178844999871,1229.7182595999911,1229.7015086000029,,,,,,,,,,,,,,,,,,,,,,,,,,1229.7051679999859,1229.7182595999911,1229.7182595999911,1229.7182595999911,1232.717913600005,1232.717913600005,1232.717913600005,1232.7019459999865,indoor,f,1232.7019941000035,,,1232.7020064000099,None,,,1.0261335000104737,0.16800020000664517,,,,,,,,,,00035,001,2026-01-16_14h49.08.296,MST_task,2024.2.0,59.850708391916186,2026-01-16 14h49.17.409456 +0530,
,Objects\306a.jpg,150,0,151,,,,,,,f,None,,,1.605940199980978,0.12736410001525655,,,,151,0,150,1232.717913600005,,,,,,,,,,,,,,,,,,,,,,,1232.7020726999908,1232.717913600005,1233.2183214999968,1233.201670999988,,,,,,,,,,,,,,,,,,,,,,,,,,1233.2049814999918,1233.2183214999968,1233.2183214999968,1233.2183214999968,1236.2178780999966,1236.2178780999966,1236.2178780999966,1236.201753500005,indoor,f,1236.2017957000062,,,1236.2018080999842,None,,,1.605940199980978,0.12736410001525655,,,,,,,,,,00035,001,2026-01-16_14h49.08.296,MST_task,2024.2.0,59.850708391916186,2026-01-16 14h49.17.409456 +0530,
,Objects\111a.jpg,151,0,152,,,,,,,None,f,1.5625010000076145,None,,,,,,152,0,151,1236.2178780999966,,,,,,,,,,,,,,,,,,,,,,,1236.2018723000074,1236.2178780999966,1236.7183177999977,1236.7015523999871,,,,,,,,,,,,,,,,,,,,,,,,,,1236.7045149999904,1236.7183177999977,1236.7183177999977,1236.7183177999977,1239.71790280001,1239.71790280001,1239.71790280001,1239.7016876999987,indoor,None,1239.7017254999955,1239.71790280001,1239.71790280001,1241.2848371999862,f,1.5625010000076145,None,,,,,,,,,,,,00035,001,2026-01-16_14h49.08.296,MST_task,2024.2.0,59.850708391916186,2026-01-16 14h49.17.409456 +0530,
,Objects\194a.jpg,152,0,153,,,,,,,None,f,0.5828238999820314,None,,,,,,153,0,152,1241.3012082999921,,,,,,,,,,,,,,,,,,,,,,,1241.2849248999846,1241.3012082999921,1241.8015637999924,1241.7847252000065,,,,,,,,,,,,,,,,,,,,,,,,,,1241.7958048,1241.8015637999924,1241.8015637999924,1241.8015637999924,1244.8011680000054,1244.8011680000054,1244.8011680000054,1244.7849279000075,indoor,None,1244.7849769000022,1244.8011680000054,1244.8011680000054,1245.3847631000099,f,0.5828238999820314,None,,,,,,,,,,,,00035,001,2026-01-16_14h49.08.296,MST_task,2024.2.0,59.850708391916186,2026-01-16 14h49.17.409456 +0530,
,Objects\290a.jpg,153,0,154,,,,,,,j,None,,,1.8184907999821007,0.12844760000007227,,,,154,0,153,1245.4011524000089,,,,,,,,,,,,,,,,,,,,,,,1245.3848540000035,1245.4011524000089,1245.9016708999989,1245.8847790999862,,,,,,,,,,,,,,,,,,,,,,,,,,1245.8877647999907,1245.9016708999989,1245.9016708999989,1245.9016708999989,1248.9011831000098,1248.9011831000098,1248.9011831000098,1248.8851450000075,indoor,j,1248.885189099994,,,1248.8852014000004,None,,,1.8184907999821007,0.12844760000007227,,,,,,,,,,00035,001,2026-01-16_14h49.08.296,MST_task,2024.2.0,59.850708391916186,2026-01-16 14h49.17.409456 +0530,
,Objects\179a.jpg,154,0,155,,,,,,,f,None,,,2.502042400010396,0.111980699992273,,,,155,0,154,1248.9011831000098,,,,,,,,,,,,,,,,,,,,,,,1248.8852662999998,1248.9011831000098,1249.401625700004,1249.384771299985,,,,,,,,,,,,,,,,,,,,,,,,,,1249.3903483999893,1249.401625700004,1249.401625700004,1249.401625700004,1252.401214499987,1252.401214499987,1252.401214499987,1252.385312600003,shoe,f,1252.387526800012,,,1252.3875448000035,None,,,2.502042400010396,0.111980699992273,,,,,,,,,,00035,001,2026-01-16_14h49.08.296,MST_task,2024.2.0,59.850708391916186,2026-01-16 14h49.17.409456 +0530,
,Objects\133a.jpg,155,0,156,,,,,,,j,None,,,1.6502075000025798,0.14574420001008548,,,,156,0,155,1252.401214499987,,,,,,,,,,,,,,,,,,,,,,,1252.3876650999882,1252.401214499987,1252.9014009000093,1252.8847216999857,,,,,,,,,,,,,,,,,,,,,,,,,,1252.8876144000096,1252.9014009000093,1252.9014009000093,1252.9014009000093,1255.9013303999964,1255.9013303999964,1255.9013303999964,1255.885205700004,shoe,j,1255.8852469999983,,,1255.8852593000047,None,,,1.6502075000025798,0.14574420001008548,,,,,,,,,,00035,001,2026-01-16_14h49.08.296,MST_task,2024.2.0,59.850708391916186,2026-01-16 14h49.17.409456 +0530,
