thisN,thisTrialN,thisRepN,key_resp_3.keys,key_resp_3.rt,key_resp_3.duration,trials.thisRepN,trials.thisTrialN,trials.thisN,thisRow.t,notes,intro_page.started,text.started,key_resp.started,intro_page.stopped,key_resp.keys,key_resp.rt,key_resp.duration,instructions.started,text_2.started,key_resp_2.started,instructions.stopped,key_resp_2.keys,key_resp_2.rt,key_resp_2.duration,demo1.started,image_1.started,image_2.started,text_7.started,key_resp_6.started,text_9.started,demo1.stopped,key_resp_6.keys,key_resp_6.rt,key_resp_6.duration,demo3.started,image_5.started,image_6.started,text_11.started,text_12.started,key_resp_8.started,demo3.stopped,key_resp_8.keys,key_resp_8.rt,key_resp_8.duration,demo_conclusion.started,text_13.started,key_resp_9.started,demo_conclusion.stopped,key_resp_9.keys,key_resp_9.rt,key_resp_9.duration,start_test.started,text_6.started,key_resp_5.started,start_test.stopped,key_resp_5.keys,key_resp_5.rt,key_resp_5.duration,ISI.started,text_4.started,ISI.stopped,routine_1.started,image.started,text_3.started,key_resp_3.started,routine_1.stopped,image_path,position_of_stimuli,trials.key_resp_3.keys,trials.key_resp_3.rt,trials.key_resp_3.duration,text_4.stopped,End_page.started,text_5.started,key_resp_4.started,End_page.stopped,key_resp_4.keys,key_resp_4.rt,key_resp_4.duration,participant,session,date,expName,psychopyVersion,frameRate,expStart,
,,,,,,,,,,,0.0017637000128161162,0.0034558000043034554,0.0034558000043034554,3.9542706000065664,space,3.9424778999964474,None,,,,,,,,,,,,,,,,,,,,,,,,,,,,,,,,,,,,,,,,,,,,,,,,,,,,,,,,,,,,,,,00034,001,2026-01-16_13h12.28.236,MST_test,2024.2.0,60.87016333315027,2026-01-16 13h12.39.333172 +0530,
,,,,,,,,,,,,,,,,,,3.954301800011308,3.968993500006036,3.968993500006036,19.65284120000433,space,15.672759000008227,None,,,,,,,,,,,,,,,,,,,,,,,,,,,,,,,,,,,,,,,,,,,,,,,,,,,,,,,,00034,001,2026-01-16_13h12.28.236,MST_test,2024.2.0,60.87016333315027,2026-01-16 13h12.39.333172 +0530,
,,,,,,,,,,,,,,,,,,,,,,,,,19.652866500007804,19.66939030001231,19.66939030001231,19.66939030001231,19.66939030001231,19.66939030001231,26.26974020000489,space,6.596416600004886,None,,,,,,,,,,,,,,,,,,,,,,,,,,,,,,,,,,,,,,,,,,,,,,00034,001,2026-01-16_13h12.28.236,MST_test,2024.2.0,60.87016333315027,2026-01-16 13h12.39.333172 +0530,
,,,,,,,,,,,,,,,,,,,,,,,,,,,,,,,,,,,26.26976840000134,26.28606720000971,26.28606720000971,26.28606720000971,26.28606720000971,26.28606720000971,28.0030531000084,space,1.707539099996211,None,,,,,,,,,,,,,,,,,,,,,,,,,,,,,,,,,,,,00034,001,2026-01-16_13h12.28.236,MST_test,2024.2.0,60.87016333315027,2026-01-16 13h12.39.333172 +0530,
,,,,,,,,,,,,,,,,,,,,,,,,,,,,,,,,,,,,,,,,,,,,,28.003080200011027,28.019079600009718,28.019079600009718,105.80293460001121,space,77.77454639998905,None,,,,,,,,,,,,,,,,,,,,,,,,,,,,,00034,001,2026-01-16_13h12.28.236,MST_test,2024.2.0,60.87016333315027,2026-01-16 13h12.39.333172 +0530,
,,,,,,,,,,,,,,,,,,,,,,,,,,,,,,,,,,,,,,,,,,,,,,,,,,,,105.80296770000132,105.82300250000844,105.82300250000844,117.55263990000822,space,11.722123499988811,None,,,,,,,,,,,,,,,,,,,,,,00034,001,2026-01-16_13h12.28.236,MST_test,2024.2.0,60.87016333315027,2026-01-16 13h12.39.333172 +0530,
0,0,1,n,3.5629883999936283,None,1,0,0,117.5689635000017,,,,,,,,,,,,,,,,,,,,,,,,,,,,,,,,,,,,,,,,,,,,,,,,,,117.55609070000355,117.5689635000017,118.05338730000949,118.06806570000481,118.07017910000286,118.07017910000286,118.07017910000286,121.63611510000192,Foils\f6.jpg,none,n,3.5629883999936283,None,,,,,,,,,00034,001,2026-01-16_13h12.28.236,MST_test,2024.2.0,60.87016333315027,2026-01-16 13h12.39.333172 +0530,
1,0,2,s,2.5367890000052284,None,2,0,1,121.65229440000257,,,,,,,,,,,,,,,,,,,,,,,,,,,,,,,,,,,,,,,,,,,,,,,,,,121.63621609999973,121.65229440000257,122.13578500000585,122.13909020001302,122.15265520001412,122.15265520001412,122.15265520001412,124.70315440000559,Objects\354a.jpg,mid,s,2.5367890000052284,None,122.15265520001412,,,,,,,,00034,001,2026-01-16_13h12.28.236,MST_test,2024.2.0,60.87016333315027,2026-01-16 13h12.39.333172 +0530,
2,0,3,s,2.0141514999995707,None,3,0,2,124.71896800000104,,,,,,,,,,,,,,,,,,,,,,,,,,,,,,,,,,,,,,,,,,,,,,,,,,124.70325700000103,124.71896800000104,125.2025857000117,125.21299700000964,125.21943390001252,125.21943390001252,125.21943390001252,127.23614350000571,Objects\105b.jpg,mid,s,2.0141514999995707,None,125.21943390001252,,,,,,,,00034,001,2026-01-16_13h12.28.236,MST_test,2024.2.0,60.87016333315027,2026-01-16 13h12.39.333172 +0530,
3,0,4,n,9.62412160000531,None,4,0,3,127.25229920000129,,,,,,,,,,,,,,,,,,,,,,,,,,,,,,,,,,,,,,,,,,,,,,,,,,127.23623440001393,127.25229920000129,127.7356637000048,127.74556790001225,127.7528328000044,127.7528328000044,127.7528328000044,137.38613320000877,Objects\211b.jpg,mid,n,9.62412160000531,None,127.7528328000044,,,,,,,,00034,001,2026-01-16_13h12.28.236,MST_test,2024.2.0,60.87016333315027,2026-01-16 13h12.39.333172 +0530,
4,0,5,s,33.13050040000235,None,5,0,4,137.40225040000223,,,,,,,,,,,,,,,,,,,,,,,,,,,,,,,,,,,,,,,,,,,,,,,,,,137.38622570000007,137.40225040000223,137.8858532000013,137.89740350001375,137.90279700000247,137.90279700000247,137.90279700000247,171.03616030000558,Objects\262a.jpg,post,s,33.13050040000235,None,137.90279700000247,,,,,,,,00034,001,2026-01-16_13h12.28.236,MST_test,2024.2.0,60.87016333315027,2026-01-16 13h12.39.333172 +0530,
5,0,6,n,4.464788299999782,None,6,0,5,171.05232630000683,,,,,,,,,,,,,,,,,,,,,,,,,,,,,,,,,,,,,,,,,,,,,,,,,,171.0362606000126,171.05232630000683,171.53571700000612,171.54748120000295,171.55274420000205,171.55274420000205,171.55274420000205,176.01967680000234,Foils\093b.jpg,none,n,4.464788299999782,None,171.55274420000205,,,,,,,,00034,001,2026-01-16_13h12.28.236,MST_test,2024.2.0,60.87016333315027,2026-01-16 13h12.39.333172 +0530,
6,0,7,n,2.0578593999962322,None,7,0,6,176.03547190000245,,,,,,,,,,,,,,,,,,,,,,,,,,,,,,,,,,,,,,,,,,,,,,,,,,176.01976700000523,176.03547190000245,176.5193178000045,176.52218040000298,176.53572950001399,176.53572950001399,176.53572950001399,178.60302890000457,Objects\163a.jpg,post,n,2.0578593999962322,None,176.53572950001399,,,,,,,,00034,001,2026-01-16_13h12.28.236,MST_test,2024.2.0,60.87016333315027,2026-01-16 13h12.39.333172 +0530,
7,0,8,n,1.7229381000070134,None,8,0,7,178.61899050000648,,,,,,,,,,,,,,,,,,,,,,,,,,,,,,,,,,,,,,,,,,,,,,,,,,178.6031256000133,178.61899050000648,179.10258390000672,179.11217930000566,179.1191528000054,179.1191528000054,179.1191528000054,180.8529261000076,Foils\090a.jpg,none,n,1.7229381000070134,None,179.1191528000054,,,,,,,,00034,001,2026-01-16_13h12.28.236,MST_test,2024.2.0,60.87016333315027,2026-01-16 13h12.39.333172 +0530,
8,0,9,s,2.832455099996878,None,9,0,8,180.8689638000069,,,,,,,,,,,,,,,,,,,,,,,,,,,,,,,,,,,,,,,,,,,,,,,,,,180.8530213000049,180.8689638000069,181.35256910001044,181.36211580000236,181.36921080001048,181.36921080001048,181.36921080001048,184.20294380000269,Objects\005b.jpg,pre,s,2.832455099996878,None,181.36921080001048,,,,,,,,00034,001,2026-01-16_13h12.28.236,MST_test,2024.2.0,60.87016333315027,2026-01-16 13h12.39.333172 +0530,
9,0,10,o,3.377978400007123,None,10,0,9,184.21896040000138,,,,,,,,,,,,,,,,,,,,,,,,,,,,,,,,,,,,,,,,,,,,,,,,,,184.20303290001175,184.21896040000138,184.70276750001358,184.71208409999963,184.7192592000065,184.7192592000065,184.7192592000065,188.1027916000021,Foils\066a.jpg,none,o,3.377978400007123,None,184.7192592000065,,,,,,,,00034,001,2026-01-16_13h12.28.236,MST_test,2024.2.0,60.87016333315027,2026-01-16 13h12.39.333172 +0530,
10,0,11,s,3.814277099998435,None,11,0,10,188.1189638000069,,,,,,,,,,,,,,,,,,,,,,,,,,,,,,,,,,,,,,,,,,,,,,,,,,188.1028798000043,188.1189638000069,188.60257360000105,188.6130300000077,188.6194581000018,188.6194581000018,188.6194581000018,192.43608910001058,Objects\357b.jpg,mid,s,3.814277099998435,None,188.6194581000018,,,,,,,,00034,001,2026-01-16_13h12.28.236,MST_test,2024.2.0,60.87016333315027,2026-01-16 13h12.39.333172 +0530,
11,0,12,n,1.5043730000033975,None,12,0,11,192.45230090001132,,,,,,,,,,,,,,,,,,,,,,,,,,,,,,,,,,,,,,,,,,,,,,,,,,192.43617910001194,192.45230090001132,192.93575950000377,192.94652260000294,192.95269270001154,192.95269270001154,192.95269270001154,194.46974020000198,Objects\059b.jpg,post,n,1.5043730000033975,None,192.95269270001154,,,,,,,,00034,001,2026-01-16_13h12.28.236,MST_test,2024.2.0,60.87016333315027,2026-01-16 13h12.39.333172 +0530,
12,0,13,s,1.8873007999936817,None,13,0,12,194.48551280000538,,,,,,,,,,,,,,,,,,,,,,,,,,,,,,,,,,,,,,,,,,,,,,,,,,194.46983510001155,194.48551280000538,194.96922070000437,194.9718806000019,194.9857752000098,194.9857752000098,194.9857752000098,196.88610320001317,Objects\039a.jpg,pre,s,1.8873007999936817,None,194.9857752000098,,,,,,,,00034,001,2026-01-16_13h12.28.236,MST_test,2024.2.0,60.87016333315027,2026-01-16 13h12.39.333172 +0530,
13,0,14,n,3.9743613000027835,None,14,0,13,196.90226700001222,,,,,,,,,,,,,,,,,,,,,,,,,,,,,,,,,,,,,,,,,,,,,,,,,,196.88619290001225,196.90226700001222,197.3858140000084,197.38969290000387,197.4026995000022,197.4026995000022,197.4026995000022,201.38633459999983,Objects\254a.jpg,post,n,3.9743613000027835,None,197.4026995000022,,,,,,,,00034,001,2026-01-16_13h12.28.236,MST_test,2024.2.0,60.87016333315027,2026-01-16 13h12.39.333172 +0530,
14,0,15,n,2.0191905999963637,None,15,0,14,201.40233310000622,,,,,,,,,,,,,,,,,,,,,,,,,,,,,,,,,,,,,,,,,,,,,,,,,,201.386427800011,201.40233310000622,201.885804000005,201.8977978000039,201.90269490001083,201.90269490001083,201.90269490001083,203.93613400000322,Objects\137b.jpg,post,n,2.0191905999963637,None,201.90269490001083,,,,,,,,00034,001,2026-01-16_13h12.28.236,MST_test,2024.2.0,60.87016333315027,2026-01-16 13h12.39.333172 +0530,
15,0,16,s,3.4446463999920525,None,16,0,15,203.95230110001285,,,,,,,,,,,,,,,,,,,,,,,,,,,,,,,,,,,,,,,,,,,,,,,,,,203.93622310001228,203.95230110001285,204.4358227000048,204.4382891000132,204.4525147000095,204.4525147000095,204.4525147000095,207.90277020000212,Objects\017a.jpg,mid,s,3.4446463999920525,None,204.4525147000095,,,,,,,,00034,001,2026-01-16_13h12.28.236,MST_test,2024.2.0,60.87016333315027,2026-01-16 13h12.39.333172 +0530,
16,0,17,o,1.3032101000135299,None,17,0,16,207.91892130000633,,,,,,,,,,,,,,,,,,,,,,,,,,,,,,,,,,,,,,,,,,,,,,,,,,207.9028582000028,207.91892130000633,208.40255350001098,208.4049085000006,208.41911290001008,208.41911290001008,208.41911290001008,209.73608680001053,Objects\253a.jpg,mid,o,1.3032101000135299,None,208.41911290001008,,,,,,,,00034,001,2026-01-16_13h12.28.236,MST_test,2024.2.0,60.87016333315027,2026-01-16 13h12.39.333172 +0530,
17,0,18,o,1.6125111000001198,None,18,0,17,209.7522988000128,,,,,,,,,,,,,,,,,,,,,,,,,,,,,,,,,,,,,,,,,,,,,,,,,,209.7361790000141,209.7522988000128,210.23581670000567,210.245219000004,210.25273700000253,210.25273700000253,210.25273700000253,211.8698485000059,Objects\264b.jpg,mid,o,1.6125111000001198,None,210.25273700000253,,,,,,,,00034,001,2026-01-16_13h12.28.236,MST_test,2024.2.0,60.87016333315027,2026-01-16 13h12.39.333172 +0530,
18,0,19,o,1.1362118999968516,None,19,0,18,211.8858392000111,,,,,,,,,,,,,,,,,,,,,,,,,,,,,,,,,,,,,,,,,,,,,,,,,,211.8699428000109,211.8858392000111,212.36950150001212,212.37223660000018,212.3859655000124,212.3859655000124,212.3859655000124,213.53631000001042,Objects\273a.jpg,pre,o,1.1362118999968516,None,212.3859655000124,,,,,,,,00034,001,2026-01-16_13h12.28.236,MST_test,2024.2.0,60.87016333315027,2026-01-16 13h12.39.333172 +0530,
19,0,20,s,2.4369564000080572,None,20,0,19,213.55233900000167,,,,,,,,,,,,,,,,,,,,,,,,,,,,,,,,,,,,,,,,,,,,,,,,,,213.53639870000188,213.55233900000167,214.0359751000069,214.045266000001,214.05264730000636,214.05264730000636,214.05264730000636,216.50296910000907,Objects\168b.jpg,pre,s,2.4369564000080572,None,214.05264730000636,,,,,,,,00034,001,2026-01-16_13h12.28.236,MST_test,2024.2.0,60.87016333315027,2026-01-16 13h12.39.333172 +0530,
20,0,21,s,4.750392699992517,None,21,0,20,216.5190975000005,,,,,,,,,,,,,,,,,,,,,,,,,,,,,,,,,,,,,,,,,,,,,,,,,,216.50305850000586,216.5190975000005,217.00265750000835,217.01222440000856,217.0192931000056,217.0192931000056,217.0192931000056,221.7862032000121,Objects\145b.jpg,post,s,4.750392699992517,None,217.0192931000056,,,,,,,,00034,001,2026-01-16_13h12.28.236,MST_test,2024.2.0,60.87016333315027,2026-01-16 13h12.39.333172 +0530,
21,0,22,n,2.651952300002449,None,22,0,21,221.80243370000971,,,,,,,,,,,,,,,,,,,,,,,,,,,,,,,,,,,,,,,,,,,,,,,,,,221.78629610000644,221.80243370000971,222.28592320000462,222.29581080000207,222.30261610000161,222.30261610000161,222.30261610000161,224.96974030000274,Objects\186b.jpg,pre,n,2.651952300002449,None,222.30261610000161,,,,,,,,00034,001,2026-01-16_13h12.28.236,MST_test,2024.2.0,60.87016333315027,2026-01-16 13h12.39.333172 +0530,
22,0,23,o,1.4278403000062099,None,23,0,22,224.98565970000345,,,,,,,,,,,,,,,,,,,,,,,,,,,,,,,,,,,,,,,,,,,,,,,,,,224.96983130001172,224.98565970000345,225.46932770000421,225.47876520000864,225.48588980000932,225.48588980000932,225.48588980000932,226.91974150000897,Objects\142b.jpg,mid,o,1.4278403000062099,None,225.48588980000932,,,,,,,,00034,001,2026-01-16_13h12.28.236,MST_test,2024.2.0,60.87016333315027,2026-01-16 13h12.39.333172 +0530,
23,0,24,o,2.6290122000064002,None,24,0,23,226.935733300008,,,,,,,,,,,,,,,,,,,,,,,,,,,,,,,,,,,,,,,,,,,,,,,,,,226.91983620000246,226.935733300008,227.41936640000495,227.42910450001364,227.4359933000087,227.4359933000087,227.4359933000087,230.0695790000027,Objects\329b.jpg,pre,o,2.6290122000064002,None,227.4359933000087,,,,,,,,00034,001,2026-01-16_13h12.28.236,MST_test,2024.2.0,60.87016333315027,2026-01-16 13h12.39.333172 +0530,
24,0,25,n,2.2391668999916874,None,25,0,24,230.08564780000597,,,,,,,,,,,,,,,,,,,,,,,,,,,,,,,,,,,,,,,,,,,,,,,,,,230.0696733000077,230.08564780000597,230.56940200000827,230.57921820000047,230.58609330000763,230.58609330000763,230.58609330000763,232.83613550000882,Objects\368a.jpg,mid,n,2.2391668999916874,None,230.58609330000763,,,,,,,,00034,001,2026-01-16_13h12.28.236,MST_test,2024.2.0,60.87016333315027,2026-01-16 13h12.39.333172 +0530,
25,0,26,n,1.0649711000005482,None,26,0,25,232.85232800000813,,,,,,,,,,,,,,,,,,,,,,,,,,,,,,,,,,,,,,,,,,,,,,,,,,232.83622540000943,232.85232800000813,233.33598090001033,233.34600460001093,233.35282750001352,233.35282750001352,233.35282750001352,234.41963280001073,Foils\097a.jpg,none,n,1.0649711000005482,None,233.35282750001352,,,,,,,,00034,001,2026-01-16_13h12.28.236,MST_test,2024.2.0,60.87016333315027,2026-01-16 13h12.39.333172 +0530,
26,0,27,s,6.153732400009176,None,27,0,26,234.43570600000385,,,,,,,,,,,,,,,,,,,,,,,,,,,,,,,,,,,,,,,,,,,,,,,,,,234.41973850000068,234.43570600000385,234.91935060000105,234.92881940001098,234.93592350000108,234.93592350000108,234.93592350000108,241.10309899999993,Objects\219b.jpg,pre,s,6.153732400009176,None,234.93592350000108,,,,,,,,00034,001,2026-01-16_13h12.28.236,MST_test,2024.2.0,60.87016333315027,2026-01-16 13h12.39.333172 +0530,
27,0,28,o,1.7420562000042992,None,28,0,27,241.11918970000988,,,,,,,,,,,,,,,,,,,,,,,,,,,,,,,,,,,,,,,,,,,,,,,,,,241.10319050001272,241.11918970000988,241.60273400000005,241.60557530001097,241.61952750000637,241.61952750000637,241.61952750000637,243.36967220000224,Objects\371a.jpg,post,o,1.7420562000042992,None,241.61952750000637,,,,,,,,00034,001,2026-01-16_13h12.28.236,MST_test,2024.2.0,60.87016333315027,2026-01-16 13h12.39.333172 +0530,
28,0,29,o,0.9310844999999972,None,29,0,28,243.38562749999983,,,,,,,,,,,,,,,,,,,,,,,,,,,,,,,,,,,,,,,,,,,,,,,,,,243.3697613000113,243.38562749999983,243.86934070001007,243.87901710000006,243.88609620000352,243.88609620000352,243.88609620000352,244.81967920000898,Objects\300b.jpg,post,o,0.9310844999999972,None,243.88609620000352,,,,,,,,00034,001,2026-01-16_13h12.28.236,MST_test,2024.2.0,60.87016333315027,2026-01-16 13h12.39.333172 +0530,
29,0,30,o,0.8415477000089595,None,30,0,29,244.83576250000624,,,,,,,,,,,,,,,,,,,,,,,,,,,,,,,,,,,,,,,,,,,,,,,,,,244.81976840000425,244.83576250000624,245.3192335000058,245.32279790000757,245.33606410000357,245.33606410000357,245.33606410000357,246.1863480000029,Objects\131a.jpg,mid,o,0.8415477000089595,None,245.33606410000357,,,,,,,,00034,001,2026-01-16_13h12.28.236,MST_test,2024.2.0,60.87016333315027,2026-01-16 13h12.39.333172 +0530,
30,0,31,s,2.3468598000035854,None,31,0,30,246.20239550000406,,,,,,,,,,,,,,,,,,,,,,,,,,,,,,,,,,,,,,,,,,,,,,,,,,246.18643880001036,246.20239550000406,246.6857263000129,246.69544980001228,246.70257420001144,246.70257420001144,246.70257420001144,249.05288900001324,Objects\053b.jpg,mid,s,2.3468598000035854,None,246.70257420001144,,,,,,,,00034,001,2026-01-16_13h12.28.236,MST_test,2024.2.0,60.87016333315027,2026-01-16 13h12.39.333172 +0530,
31,0,32,s,1.9447605000023032,None,32,0,31,249.06912980000197,,,,,,,,,,,,,,,,,,,,,,,,,,,,,,,,,,,,,,,,,,,,,,,,,,249.05297860001156,249.06912980000197,249.55264010000974,249.56263370001398,249.56943380000303,249.56943380000303,249.56943380000303,251.51992600000813,Objects\299a.jpg,mid,s,1.9447605000023032,None,249.56943380000303,,,,,,,,00034,001,2026-01-16_13h12.28.236,MST_test,2024.2.0,60.87016333315027,2026-01-16 13h12.39.333172 +0530,
32,0,33,n,1.3409657000011066,None,33,0,32,251.53574530000333,,,,,,,,,,,,,,,,,,,,,,,,,,,,,,,,,,,,,,,,,,,,,,,,,,251.52001580000797,251.53574530000333,252.01932900000247,252.02882710000267,252.0360614000092,252.0360614000092,252.0360614000092,253.3863546000066,Objects\373a.jpg,mid,n,1.3409657000011066,None,252.0360614000092,,,,,,,,00034,001,2026-01-16_13h12.28.236,MST_test,2024.2.0,60.87016333315027,2026-01-16 13h12.39.333172 +0530,
33,0,34,s,3.490327299994533,None,34,0,33,253.402362000008,,,,,,,,,,,,,,,,,,,,,,,,,,,,,,,,,,,,,,,,,,,,,,,,,,253.38644470000872,253.402362000008,253.8859972000064,253.89635480000288,253.90276810000069,253.90276810000069,253.90276810000069,257.40303620000486,Objects\366a.jpg,post,s,3.490327299994533,None,253.90276810000069,,,,,,,,00034,001,2026-01-16_13h12.28.236,MST_test,2024.2.0,60.87016333315027,2026-01-16 13h12.39.333172 +0530,
34,0,35,n,1.6339975000009872,None,35,0,34,257.4190981000138,,,,,,,,,,,,,,,,,,,,,,,,,,,,,,,,,,,,,,,,,,,,,,,,,,257.4031522000005,257.4190981000138,257.90263500000583,257.9136858000129,257.91941150001367,257.91941150001367,257.91941150001367,259.5696641000104,Objects\108b.jpg,pre,n,1.6339975000009872,None,257.91941150001367,,,,,,,,00034,001,2026-01-16_13h12.28.236,MST_test,2024.2.0,60.87016333315027,2026-01-16 13h12.39.333172 +0530,
35,0,36,o,1.092626099998597,None,36,0,35,259.5857601000025,,,,,,,,,,,,,,,,,,,,,,,,,,,,,,,,,,,,,,,,,,,,,,,,,,259.5697550000041,259.5857601000025,260.06928740000876,260.07200260000536,260.0861142000067,260.0861142000067,260.0861142000067,261.18622490001144,Objects\024a.jpg,post,o,1.092626099998597,None,260.0861142000067,,,,,,,,00034,001,2026-01-16_13h12.28.236,MST_test,2024.2.0,60.87016333315027,2026-01-16 13h12.39.333172 +0530,
36,0,37,o,1.0580619999964256,None,37,0,36,261.20243430000846,,,,,,,,,,,,,,,,,,,,,,,,,,,,,,,,,,,,,,,,,,,,,,,,,,261.1863127000106,261.20243430000846,261.6859342000098,261.68847920000553,261.7028732000035,261.7028732000035,261.7028732000035,262.769643800013,Objects\362a.jpg,pre,o,1.0580619999964256,None,261.7028732000035,,,,,,,,00034,001,2026-01-16_13h12.28.236,MST_test,2024.2.0,60.87016333315027,2026-01-16 13h12.39.333172 +0530,
37,0,38,o,0.7629173000023002,None,38,0,37,262.7857262000034,,,,,,,,,,,,,,,,,,,,,,,,,,,,,,,,,,,,,,,,,,,,,,,,,,262.7697337000136,262.7857262000034,263.26930800000264,263.2721050000109,263.286038700011,263.286038700011,263.286038700011,264.05302950000623,Objects\143a.jpg,mid,o,0.7629173000023002,None,263.286038700011,,,,,,,,00034,001,2026-01-16_13h12.28.236,MST_test,2024.2.0,60.87016333315027,2026-01-16 13h12.39.333172 +0530,
38,0,39,o,0.6882610000029672,None,39,0,38,264.06902190000983,,,,,,,,,,,,,,,,,,,,,,,,,,,,,,,,,,,,,,,,,,,,,,,,,,264.0531187000015,264.06902190000983,264.5526622000034,264.56174720000126,264.5692337000073,264.5692337000073,264.5692337000073,265.2696687000134,Objects\171b.jpg,post,o,0.6882610000029672,None,264.5692337000073,,,,,,,,00034,001,2026-01-16_13h12.28.236,MST_test,2024.2.0,60.87016333315027,2026-01-16 13h12.39.333172 +0530,
39,0,40,n,1.4081354000081774,None,40,0,39,265.28560670001025,,,,,,,,,,,,,,,,,,,,,,,,,,,,,,,,,,,,,,,,,,,,,,,,,,265.2697576000064,265.28560670001025,265.76934120000806,265.77872300001036,265.7859970999998,265.7859970999998,265.7859970999998,267.20297350001056,Foils\082a.jpg,none,n,1.4081354000081774,None,265.7859970999998,,,,,,,,00034,001,2026-01-16_13h12.28.236,MST_test,2024.2.0,60.87016333315027,2026-01-16 13h12.39.333172 +0530,
40,0,41,n,1.4105475999967894,None,41,0,40,267.21908310000435,,,,,,,,,,,,,,,,,,,,,,,,,,,,,,,,,,,,,,,,,,,,,,,,,,267.20313259999966,267.21908310000435,267.70270300000266,267.71214110001165,267.7192489000008,267.7192489000008,267.7192489000008,269.13621880000574,Foils\010a.jpg,none,n,1.4105475999967894,None,267.7192489000008,,,,,,,,00034,001,2026-01-16_13h12.28.236,MST_test,2024.2.0,60.87016333315027,2026-01-16 13h12.39.333172 +0530,
41,0,42,s,1.9169107000052463,None,42,0,41,269.1524305000057,,,,,,,,,,,,,,,,,,,,,,,,,,,,,,,,,,,,,,,,,,,,,,,,,,269.1363096000132,269.1524305000057,269.63600510000833,269.6451798000053,269.6526332000067,269.6526332000067,269.6526332000067,271.5860015000071,Objects\049b.jpg,post,s,1.9169107000052463,None,269.6526332000067,,,,,,,,00034,001,2026-01-16_13h12.28.236,MST_test,2024.2.0,60.87016333315027,2026-01-16 13h12.39.333172 +0530,
42,0,43,s,3.92281639999419,None,43,0,42,271.6022914000059,,,,,,,,,,,,,,,,,,,,,,,,,,,,,,,,,,,,,,,,,,,,,,,,,,271.5860956000106,271.6022914000059,272.0858961000049,272.09632930000953,272.10269790000166,272.10269790000166,272.10269790000166,276.0360481000098,Objects\330b.jpg,post,s,3.92281639999419,None,272.10269790000166,,,,,,,,00034,001,2026-01-16_13h12.28.236,MST_test,2024.2.0,60.87016333315027,2026-01-16 13h12.39.333172 +0530,
43,0,44,n,2.464587100010249,None,44,0,43,276.05230850000225,,,,,,,,,,,,,,,,,,,,,,,,,,,,,,,,,,,,,,,,,,,,,,,,,,276.0361382000119,276.05230850000225,276.53580460000376,276.546233400004,276.5526986000041,276.5526986000041,276.5526986000041,279.0196273000038,Foils\009a.jpg,none,n,2.464587100010249,None,276.5526986000041,,,,,,,,00034,001,2026-01-16_13h12.28.236,MST_test,2024.2.0,60.87016333315027,2026-01-16 13h12.39.333172 +0530,
44,0,45,n,1.7453562000009697,None,45,0,44,279.03552740000305,,,,,,,,,,,,,,,,,,,,,,,,,,,,,,,,,,,,,,,,,,,,,,,,,,279.01972000001115,279.03552740000305,279.5193993000139,279.5281849000021,279.5357565000013,279.5357565000013,279.5357565000013,281.2862102000072,Objects\161b.jpg,pre,n,1.7453562000009697,None,279.5357565000013,,,,,,,,00034,001,2026-01-16_13h12.28.236,MST_test,2024.2.0,60.87016333315027,2026-01-16 13h12.39.333172 +0530,
45,0,46,n,1.055186199999298,None,46,0,45,281.3022794000135,,,,,,,,,,,,,,,,,,,,,,,,,,,,,,,,,,,,,,,,,,,,,,,,,,281.28629780000483,281.3022794000135,281.7858477000118,281.7956367000006,281.8026034000068,281.8026034000068,281.8026034000068,282.86947430000873,Objects\341a.jpg,mid,n,1.055186199999298,None,281.8026034000068,,,,,,,,00034,001,2026-01-16_13h12.28.236,MST_test,2024.2.0,60.87016333315027,2026-01-16 13h12.39.333172 +0530,
46,0,47,n,1.4712456999986898,None,47,0,46,282.8855057000037,,,,,,,,,,,,,,,,,,,,,,,,,,,,,,,,,,,,,,,,,,,,,,,,,,282.86957240001357,282.8855057000037,283.3694191000104,283.37893270001223,283.3858881000051,283.3858881000051,283.3858881000051,284.86958720000985,Foils\017a.jpg,none,n,1.4712456999986898,None,283.3858881000051,,,,,,,,00034,001,2026-01-16_13h12.28.236,MST_test,2024.2.0,60.87016333315027,2026-01-16 13h12.39.333172 +0530,
47,0,48,n,1.4712960999895586,None,48,0,47,284.88560590001,,,,,,,,,,,,,,,,,,,,,,,,,,,,,,,,,,,,,,,,,,,,,,,,,,284.86967630000436,284.88560590001,285.3691637000011,285.3787646000128,285.38575560000027,285.38575560000027,285.38575560000027,286.86953190001077,Foils\033a.jpg,none,n,1.4712960999895586,None,285.38575560000027,,,,,,,,00034,001,2026-01-16_13h12.28.236,MST_test,2024.2.0,60.87016333315027,2026-01-16 13h12.39.333172 +0530,
48,0,49,o,1.1831309999979567,None,49,0,48,286.88560070001404,,,,,,,,,,,,,,,,,,,,,,,,,,,,,,,,,,,,,,,,,,,,,,,,,,286.8696270000073,286.88560070001404,287.3692616000044,287.37280380001175,287.3859599000134,287.3859599000134,287.3859599000134,288.5697530000034,Objects\240a.jpg,pre,o,1.1831309999979567,None,287.3859599000134,,,,,,,,00034,001,2026-01-16_13h12.28.236,MST_test,2024.2.0,60.87016333315027,2026-01-16 13h12.39.333172 +0530,
49,0,50,o,1.1553807000018423,None,50,0,49,288.585493400009,,,,,,,,,,,,,,,,,,,,,,,,,,,,,,,,,,,,,,,,,,,,,,,,,,288.5698418000102,288.585493400009,289.0691755000007,289.072338900005,289.085934200004,289.085934200004,289.085934200004,290.2530362000107,Objects\162a.jpg,mid,o,1.1553807000018423,None,289.085934200004,,,,,,,,00034,001,2026-01-16_13h12.28.236,MST_test,2024.2.0,60.87016333315027,2026-01-16 13h12.39.333172 +0530,
50,0,51,n,2.0241273999999976,None,51,0,50,290.2689703000069,,,,,,,,,,,,,,,,,,,,,,,,,,,,,,,,,,,,,,,,,,,,,,,,,,290.2531400000007,290.2689703000069,290.7525966000103,290.76136750000296,290.7692215999996,290.7692215999996,290.7692215999996,292.80285770000773,Objects\056a.jpg,pre,n,2.0241273999999976,None,290.7692215999996,,,,,,,,00034,001,2026-01-16_13h12.28.236,MST_test,2024.2.0,60.87016333315027,2026-01-16 13h12.39.333172 +0530,
51,0,52,o,1.1218559999979334,None,52,0,51,292.8189946000057,,,,,,,,,,,,,,,,,,,,,,,,,,,,,,,,,,,,,,,,,,,,,,,,,,292.80294730000605,292.8189946000057,293.3025761000026,293.3048758000077,293.3191969000036,293.3191969000036,293.3191969000036,294.45281290001003,Objects\313a.jpg,pre,o,1.1218559999979334,None,293.3191969000036,,,,,,,,00034,001,2026-01-16_13h12.28.236,MST_test,2024.2.0,60.87016333315027,2026-01-16 13h12.39.333172 +0530,
52,0,53,s,4.688165900006425,None,53,0,52,294.46896630000265,,,,,,,,,,,,,,,,,,,,,,,,,,,,,,,,,,,,,,,,,,,,,,,,,,294.45290560000285,294.46896630000265,294.9525825000019,294.9617125000077,294.96927620000497,294.96927620000497,294.96927620000497,299.66969130000507,Foils\065a.jpg,none,s,4.688165900006425,None,294.96927620000497,,,,,,,,00034,001,2026-01-16_13h12.28.236,MST_test,2024.2.0,60.87016333315027,2026-01-16 13h12.39.333172 +0530,
53,0,54,s,5.98337139999785,None,54,0,53,299.6855390000128,,,,,,,,,,,,,,,,,,,,,,,,,,,,,,,,,,,,,,,,,,,,,,,,,,299.66978400001244,299.6855390000128,300.1692344000039,300.1791852000024,300.18573340000876,300.18573340000876,300.18573340000876,306.16977570000745,Objects\034b.jpg,mid,s,5.98337139999785,None,300.18573340000876,,,,,,,,00034,001,2026-01-16_13h12.28.236,MST_test,2024.2.0,60.87016333315027,2026-01-16 13h12.39.333172 +0530,
54,0,55,s,2.0511933999950998,None,55,0,54,306.1855954000057,,,,,,,,,,,,,,,,,,,,,,,,,,,,,,,,,,,,,,,,,,,,,,,,,,306.1698686000018,306.1855954000057,306.66929670001264,306.67889580001065,306.6858692000096,306.6858692000096,306.6858692000096,308.7530540000007,Objects\028b.jpg,mid,s,2.0511933999950998,None,306.6858692000096,,,,,,,,00034,001,2026-01-16_13h12.28.236,MST_test,2024.2.0,60.87016333315027,2026-01-16 13h12.39.333172 +0530,
55,0,56,n,2.7878457000042545,None,56,0,55,308.7690680000087,,,,,,,,,,,,,,,,,,,,,,,,,,,,,,,,,,,,,,,,,,,,,,,,,,308.75314380000054,308.7690680000087,309.2525878000015,309.26250670000445,309.26936640001077,309.26936640001077,309.26936640001077,312.0695795000065,Objects\258b.jpg,mid,n,2.7878457000042545,None,309.26936640001077,,,,,,,,00034,001,2026-01-16_13h12.28.236,MST_test,2024.2.0,60.87016333315027,2026-01-16 13h12.39.333172 +0530,
56,0,57,n,1.631180199998198,None,57,0,56,312.08556760000647,,,,,,,,,,,,,,,,,,,,,,,,,,,,,,,,,,,,,,,,,,,,,,,,,,312.06966960000864,312.08556760000647,312.5692035000102,312.5791820000013,312.58602370000153,312.58602370000153,312.58602370000153,314.21958010000526,Objects\307a.jpg,pre,n,1.631180199998198,None,312.58602370000153,,,,,,,,00034,001,2026-01-16_13h12.28.236,MST_test,2024.2.0,60.87016333315027,2026-01-16 13h12.39.333172 +0530,
57,0,58,n,0.7865291000052821,None,58,0,57,314.2355349000136,,,,,,,,,,,,,,,,,,,,,,,,,,,,,,,,,,,,,,,,,,,,,,,,,,314.219668500009,314.2355349000136,314.71924520000175,314.7287542000122,314.73574320001353,314.73574320001353,314.73574320001353,315.53614560001006,Foils\058a.jpg,none,n,0.7865291000052821,None,314.73574320001353,,,,,,,,00034,001,2026-01-16_13h12.28.236,MST_test,2024.2.0,60.87016333315027,2026-01-16 13h12.39.333172 +0530,
58,0,59,o,1.1005691000027582,None,59,0,58,315.5523106000037,,,,,,,,,,,,,,,,,,,,,,,,,,,,,,,,,,,,,,,,,,,,,,,,,,315.53624610000406,315.5523106000037,316.03582010000537,316.0393703000009,316.0528467000113,316.0528467000113,316.0528467000113,317.16984960000264,Objects\217a.jpg,pre,o,1.1005691000027582,None,316.0528467000113,,,,,,,,00034,001,2026-01-16_13h12.28.236,MST_test,2024.2.0,60.87016333315027,2026-01-16 13h12.39.333172 +0530,
59,0,60,o,2.1711211999936495,None,60,0,59,317.18565660000604,,,,,,,,,,,,,,,,,,,,,,,,,,,,,,,,,,,,,,,,,,,,,,,,,,317.16994470001373,317.18565660000604,317.6691986000078,317.67982850001135,317.68610780000745,317.68610780000745,317.68610780000745,319.86966210001265,Objects\269b.jpg,pre,o,2.1711211999936495,None,317.68610780000745,,,,,,,,00034,001,2026-01-16_13h12.28.236,MST_test,2024.2.0,60.87016333315027,2026-01-16 13h12.39.333172 +0530,
60,0,61,n,3.087128400002257,None,61,0,60,319.88554970000405,,,,,,,,,,,,,,,,,,,,,,,,,,,,,,,,,,,,,,,,,,,,,,,,,,319.86975240000174,319.88554970000405,320.3692305000004,320.37224810000043,320.385966700007,320.385966700007,320.385966700007,323.48643730000185,Objects\010a.jpg,post,n,3.087128400002257,None,320.385966700007,,,,,,,,00034,001,2026-01-16_13h12.28.236,MST_test,2024.2.0,60.87016333315027,2026-01-16 13h12.39.333172 +0530,
61,0,62,s,1.4866834999993443,None,62,0,61,323.50227170001017,,,,,,,,,,,,,,,,,,,,,,,,,,,,,,,,,,,,,,,,,,,,,,,,,,323.48652600000787,323.50227170001017,323.9859035000118,323.99567590000515,324.002570800003,324.002570800003,324.002570800003,325.5029351000121,Objects\177b.jpg,pre,s,1.4866834999993443,None,324.002570800003,,,,,,,,00034,001,2026-01-16_13h12.28.236,MST_test,2024.2.0,60.87016333315027,2026-01-16 13h12.39.333172 +0530,
62,0,63,o,2.382398400004604,None,63,0,62,325.51895420000073,,,,,,,,,,,,,,,,,,,,,,,,,,,,,,,,,,,,,,,,,,,,,,,,,,325.5030231000128,325.51895420000073,326.0025699000107,326.00533130000986,326.0193300000101,326.0193300000101,326.0193300000101,328.4030469999998,Objects\296a.jpg,pre,o,2.382398400004604,None,326.0193300000101,,,,,,,,00034,001,2026-01-16_13h12.28.236,MST_test,2024.2.0,60.87016333315027,2026-01-16 13h12.39.333172 +0530,
63,0,64,s,2.2100209000054747,None,64,0,63,328.41894260000845,,,,,,,,,,,,,,,,,,,,,,,,,,,,,,,,,,,,,,,,,,,,,,,,,,328.40313660001266,328.41894260000845,328.9027022000082,328.9123115000111,328.9193917000084,328.9193917000084,328.9193917000084,331.1364082000073,Objects\112b.jpg,mid,s,2.2100209000054747,None,328.9193917000084,,,,,,,,00034,001,2026-01-16_13h12.28.236,MST_test,2024.2.0,60.87016333315027,2026-01-16 13h12.39.333172 +0530,
64,0,65,n,1.6048469000088517,None,65,0,64,331.15256980000413,,,,,,,,,,,,,,,,,,,,,,,,,,,,,,,,,,,,,,,,,,,,,,,,,,331.1364976000041,331.15256980000413,331.63605590000225,331.64569410000695,331.6526784000016,331.6526784000016,331.6526784000016,333.26990290000685,Foils\086a.jpg,none,n,1.6048469000088517,None,331.6526784000016,,,,,,,,00034,001,2026-01-16_13h12.28.236,MST_test,2024.2.0,60.87016333315027,2026-01-16 13h12.39.333172 +0530,
65,0,66,s,1.3997909999889089,None,66,0,65,333.2857939000096,,,,,,,,,,,,,,,,,,,,,,,,,,,,,,,,,,,,,,,,,,,,,,,,,,333.2700041000062,333.2857939000096,333.76928770000814,333.7715953000006,333.7859998000058,333.7859998000058,333.7859998000058,335.18643640000664,Objects\364a.jpg,pre,s,1.3997909999889089,None,333.7859998000058,,,,,,,,00034,001,2026-01-16_13h12.28.236,MST_test,2024.2.0,60.87016333315027,2026-01-16 13h12.39.333172 +0530,
66,0,67,n,1.6906620999943698,None,67,0,66,335.20244490000186,,,,,,,,,,,,,,,,,,,,,,,,,,,,,,,,,,,,,,,,,,,,,,,,,,335.186523700002,335.20244490000186,335.68610440001066,335.6948693000013,335.7028175000014,335.7028175000014,335.7028175000014,337.4030632000067,Foils\f5.jpg,none,n,1.6906620999943698,None,335.7028175000014,,,,,,,,00034,001,2026-01-16_13h12.28.236,MST_test,2024.2.0,60.87016333315027,2026-01-16 13h12.39.333172 +0530,
67,0,68,s,5.249405900001875,None,68,0,67,337.41911830000754,,,,,,,,,,,,,,,,,,,,,,,,,,,,,,,,,,,,,,,,,,,,,,,,,,337.40315250000276,337.41911830000754,337.90270520000195,337.91273770001135,337.9195851000113,337.9195851000113,337.9195851000113,343.169664800007,Objects\038b.jpg,post,s,5.249405900001875,None,337.9195851000113,,,,,,,,00034,001,2026-01-16_13h12.28.236,MST_test,2024.2.0,60.87016333315027,2026-01-16 13h12.39.333172 +0530,
68,0,69,n,2.8672664999903645,None,69,0,68,343.18575950000377,,,,,,,,,,,,,,,,,,,,,,,,,,,,,,,,,,,,,,,,,,,,,,,,,,343.1697553000122,343.18575950000377,343.6694153999997,343.680268000011,343.68616160000965,343.68616160000965,343.68616160000965,346.569854500005,Objects\377b.jpg,pre,n,2.8672664999903645,None,343.68616160000965,,,,,,,,00034,001,2026-01-16_13h12.28.236,MST_test,2024.2.0,60.87016333315027,2026-01-16 13h12.39.333172 +0530,
69,0,70,s,3.4591947000008076,None,70,0,69,346.5858189999999,,,,,,,,,,,,,,,,,,,,,,,,,,,,,,,,,,,,,,,,,,,,,,,,,,346.5699440000026,346.5858189999999,347.06941150000785,347.07273060000443,347.0861877999996,347.0861877999996,347.0861877999996,350.5529422000109,Objects\033a.jpg,post,s,3.4591947000008076,None,347.0861877999996,,,,,,,,00034,001,2026-01-16_13h12.28.236,MST_test,2024.2.0,60.87016333315027,2026-01-16 13h12.39.333172 +0530,
70,0,71,s,2.0197225000010803,None,71,0,70,350.56915200001094,,,,,,,,,,,,,,,,,,,,,,,,,,,,,,,,,,,,,,,,,,,,,,,,,,350.5530321000115,350.56915200001094,351.0526554000098,351.0621325000102,351.0693792000093,351.0693792000093,351.0693792000093,353.1030293000076,Objects\107b.jpg,pre,s,2.0197225000010803,None,351.0693792000093,,,,,,,,00034,001,2026-01-16_13h12.28.236,MST_test,2024.2.0,60.87016333315027,2026-01-16 13h12.39.333172 +0530,
71,0,72,n,0.9496293999982299,None,72,0,71,353.11910570001055,,,,,,,,,,,,,,,,,,,,,,,,,,,,,,,,,,,,,,,,,,,,,,,,,,353.10313170000154,353.11910570001055,353.6027114000026,353.61201620000065,353.6194325000106,353.6194325000106,353.6194325000106,354.5697324000066,Objects\068b.jpg,mid,n,0.9496293999982299,None,353.6194325000106,,,,,,,,00034,001,2026-01-16_13h12.28.236,MST_test,2024.2.0,60.87016333315027,2026-01-16 13h12.39.333172 +0530,
72,0,73,s,2.004016999999294,None,73,0,72,354.5857827,,,,,,,,,,,,,,,,,,,,,,,,,,,,,,,,,,,,,,,,,,,,,,,,,,354.56982320001407,354.5857827,355.0693634000054,355.0793313000031,355.0860235,355.0860235,355.0860235,357.1030116000038,Objects\237b.jpg,post,s,2.004016999999294,None,355.0860235,,,,,,,,00034,001,2026-01-16_13h12.28.236,MST_test,2024.2.0,60.87016333315027,2026-01-16 13h12.39.333172 +0530,
73,0,74,n,0.9657855999976164,None,74,0,73,357.11912410000514,,,,,,,,,,,,,,,,,,,,,,,,,,,,,,,,,,,,,,,,,,,,,,,,,,357.10310080001364,357.11912410000514,357.6026533000113,357.6131636000064,357.6194828000007,357.6194828000007,357.6194828000007,358.58635690000665,Objects\255a.jpg,mid,n,0.9657855999976164,None,357.6194828000007,,,,,,,,00034,001,2026-01-16_13h12.28.236,MST_test,2024.2.0,60.87016333315027,2026-01-16 13h12.39.333172 +0530,
74,0,75,s,1.530311200011056,None,75,0,74,358.6023974000127,,,,,,,,,,,,,,,,,,,,,,,,,,,,,,,,,,,,,,,,,,,,,,,,,,358.5864472000103,358.6023974000127,359.0862194000074,359.0963826000079,359.102899000005,359.102899000005,359.102899000005,360.6362121000129,Objects\138a.jpg,pre,s,1.530311200011056,None,359.102899000005,,,,,,,,00034,001,2026-01-16_13h12.28.236,MST_test,2024.2.0,60.87016333315027,2026-01-16 13h12.39.333172 +0530,
75,0,76,n,1.5698006000020541,None,76,0,75,360.6524499000079,,,,,,,,,,,,,,,,,,,,,,,,,,,,,,,,,,,,,,,,,,,,,,,,,,360.6363093000109,360.6524499000079,361.136118600014,361.14666560001206,361.1528183000046,361.1528183000046,361.1528183000046,362.73609150000266,Objects\315b.jpg,post,n,1.5698006000020541,None,361.1528183000046,,,,,,,,00034,001,2026-01-16_13h12.28.236,MST_test,2024.2.0,60.87016333315027,2026-01-16 13h12.39.333172 +0530,
76,0,77,n,1.4212875999946846,None,77,0,76,362.7523715000134,,,,,,,,,,,,,,,,,,,,,,,,,,,,,,,,,,,,,,,,,,,,,,,,,,362.736186500013,362.7523715000134,363.23601450001297,363.24662410000747,363.2528284,363.2528284,363.2528284,364.686426100001,Objects\259b.jpg,mid,n,1.4212875999946846,None,363.2528284,,,,,,,,00034,001,2026-01-16_13h12.28.236,MST_test,2024.2.0,60.87016333315027,2026-01-16 13h12.39.333172 +0530,
77,0,78,s,1.3508140000049025,None,78,0,77,364.7024594000104,,,,,,,,,,,,,,,,,,,,,,,,,,,,,,,,,,,,,,,,,,,,,,,,,,364.68651680000767,364.7024594000104,365.18614880001405,365.1892353000003,365.20283120000386,365.20283120000386,365.20283120000386,366.5696670000034,Objects\281a.jpg,post,s,1.3508140000049025,None,365.20283120000386,,,,,,,,00034,001,2026-01-16_13h12.28.236,MST_test,2024.2.0,60.87016333315027,2026-01-16 13h12.39.333172 +0530,
78,0,79,s,2.227036099997349,None,79,0,78,366.58569360000547,,,,,,,,,,,,,,,,,,,,,,,,,,,,,,,,,,,,,,,,,,,,,,,,,,366.56975650000095,366.58569360000547,367.06932990001224,367.07186809999985,367.0860900000116,367.0860900000116,367.0860900000116,369.3196750000061,Objects\292a.jpg,mid,s,2.227036099997349,None,367.0860900000116,,,,,,,,00034,001,2026-01-16_13h12.28.236,MST_test,2024.2.0,60.87016333315027,2026-01-16 13h12.39.333172 +0530,
79,0,80,s,4.517019899998559,None,80,0,79,369.33576860000903,,,,,,,,,,,,,,,,,,,,,,,,,,,,,,,,,,,,,,,,,,,,,,,,,,369.31976940001186,369.33576860000903,369.81930220000504,369.8291953000007,369.8360982000013,369.8360982000013,369.8360982000013,374.3696448000119,Objects\029b.jpg,mid,s,4.517019899998559,None,369.8360982000013,,,,,,,,00034,001,2026-01-16_13h12.28.236,MST_test,2024.2.0,60.87016333315027,2026-01-16 13h12.39.333172 +0530,
80,0,81,n,1.651584199993522,None,81,0,80,374.3857766000001,,,,,,,,,,,,,,,,,,,,,,,,,,,,,,,,,,,,,,,,,,,,,,,,,,374.3697394000046,374.3857766000001,374.8693978000083,374.8798931000056,374.886029900008,374.886029900008,374.886029900008,376.5533928000077,Foils\073a.jpg,none,n,1.651584199993522,None,374.886029900008,,,,,,,,00034,001,2026-01-16_13h12.28.236,MST_test,2024.2.0,60.87016333315027,2026-01-16 13h12.39.333172 +0530,
81,0,82,o,1.044484599988209,None,82,0,81,376.56918980000773,,,,,,,,,,,,,,,,,,,,,,,,,,,,,,,,,,,,,,,,,,,,,,,,,,376.5534898000042,376.56918980000773,377.05270620000374,377.0552983000089,377.0693431000109,377.0693431000109,377.0693431000109,378.1195565000089,Objects\298a.jpg,mid,o,1.044484599988209,None,377.0693431000109,,,,,,,,00034,001,2026-01-16_13h12.28.236,MST_test,2024.2.0,60.87016333315027,2026-01-16 13h12.39.333172 +0530,
82,0,83,s,1.1255092000064906,None,83,0,82,378.13576970000577,,,,,,,,,,,,,,,,,,,,,,,,,,,,,,,,,,,,,,,,,,,,,,,,,,378.1196478000056,378.13576970000577,378.61954330001026,378.6303947000124,378.6357444000023,378.6357444000023,378.6357444000023,379.7696980000037,Objects\166b.jpg,post,s,1.1255092000064906,None,378.6357444000023,,,,,,,,00034,001,2026-01-16_13h12.28.236,MST_test,2024.2.0,60.87016333315027,2026-01-16 13h12.39.333172 +0530,
83,0,84,s,1.9874465000029886,None,84,0,83,379.78583900000376,,,,,,,,,,,,,,,,,,,,,,,,,,,,,,,,,,,,,,,,,,,,,,,,,,379.7697882000066,379.78583900000376,380.2693561000051,380.27952420001384,380.2858236000029,380.2858236000029,380.2858236000029,382.28637900001195,Objects\113b.jpg,post,s,1.9874465000029886,None,380.2858236000029,,,,,,,,00034,001,2026-01-16_13h12.28.236,MST_test,2024.2.0,60.87016333315027,2026-01-16 13h12.39.333172 +0530,
84,0,85,n,1.2383233000000473,None,85,0,84,382.30241920000117,,,,,,,,,,,,,,,,,,,,,,,,,,,,,,,,,,,,,,,,,,,,,,,,,,382.28646730000037,382.30241920000117,382.786039300001,382.7951455000002,382.8028369000094,382.8028369000094,382.8028369000094,384.05292870000994,Objects\272b.jpg,post,n,1.2383233000000473,None,382.8028369000094,,,,,,,,00034,001,2026-01-16_13h12.28.236,MST_test,2024.2.0,60.87016333315027,2026-01-16 13h12.39.333172 +0530,
85,0,86,n,1.447721000004094,None,86,0,85,384.06913620000705,,,,,,,,,,,,,,,,,,,,,,,,,,,,,,,,,,,,,,,,,,,,,,,,,,384.05301950000285,384.06913620000705,384.5527049000084,384.5628168000112,384.56949630001327,384.56949630001327,384.56949630001327,386.0197596000071,Foils\113a.jpg,none,n,1.447721000004094,None,384.56949630001327,,,,,,,,00034,001,2026-01-16_13h12.28.236,MST_test,2024.2.0,60.87016333315027,2026-01-16 13h12.39.333172 +0530,
86,0,87,n,1.681057800000417,None,87,0,86,386.0358031000069,,,,,,,,,,,,,,,,,,,,,,,,,,,,,,,,,,,,,,,,,,,,,,,,,,386.01985010001226,386.0358031000069,386.51936280001246,386.5292926000111,386.53599530000065,386.53599530000065,386.53599530000065,388.2196377000073,Objects\282b.jpg,mid,n,1.681057800000417,None,386.53599530000065,,,,,,,,00034,001,2026-01-16_13h12.28.236,MST_test,2024.2.0,60.87016333315027,2026-01-16 13h12.39.333172 +0530,
87,0,88,o,1.4170500000036554,None,88,0,87,388.2358038000093,,,,,,,,,,,,,,,,,,,,,,,,,,,,,,,,,,,,,,,,,,,,,,,,,,388.2197385000036,388.2358038000093,388.71937830001116,388.7290146000014,388.7361888000014,388.7361888000014,388.7361888000014,390.169768000007,Objects\260b.jpg,pre,o,1.4170500000036554,None,388.7361888000014,,,,,,,,00034,001,2026-01-16_13h12.28.236,MST_test,2024.2.0,60.87016333315027,2026-01-16 13h12.39.333172 +0530,
88,0,89,s,2.7476966999965953,None,89,0,88,390.1857926000084,,,,,,,,,,,,,,,,,,,,,,,,,,,,,,,,,,,,,,,,,,,,,,,,,,390.1698555000039,390.1857926000084,390.66947010000877,390.6796516000031,390.68589740000607,390.68589740000607,390.68589740000607,393.43611720000627,Objects\146b.jpg,mid,s,2.7476966999965953,None,390.68589740000607,,,,,,,,00034,001,2026-01-16_13h12.28.236,MST_test,2024.2.0,60.87016333315027,2026-01-16 13h12.39.333172 +0530,
89,0,90,n,1.0006739999953425,None,90,0,89,393.45236060000025,,,,,,,,,,,,,,,,,,,,,,,,,,,,,,,,,,,,,,,,,,,,,,,,,,393.4362062,393.45236060000025,393.93584530000226,393.9445351000031,393.95257970000966,393.95257970000966,393.95257970000966,394.96975410000596,Foils\098a.jpg,none,n,1.0006739999953425,None,393.95257970000966,,,,,,,,00034,001,2026-01-16_13h12.28.236,MST_test,2024.2.0,60.87016333315027,2026-01-16 13h12.39.333172 +0530,
90,0,91,n,1.3238413999933982,None,91,0,90,394.9855530000059,,,,,,,,,,,,,,,,,,,,,,,,,,,,,,,,,,,,,,,,,,,,,,,,,,394.9698437000043,394.9855530000059,395.4692240000004,395.47821770000155,395.4859582000063,395.4859582000063,395.4859582000063,396.8194923000119,Foils\f7.jpg,none,n,1.3238413999933982,None,395.4859582000063,,,,,,,,00034,001,2026-01-16_13h12.28.236,MST_test,2024.2.0,60.87016333315027,2026-01-16 13h12.39.333172 +0530,
91,0,92,n,1.3617606000043452,None,92,0,91,396.8355503000057,,,,,,,,,,,,,,,,,,,,,,,,,,,,,,,,,,,,,,,,,,,,,,,,,,396.819584900004,396.8355503000057,397.31919010001,397.3293593000126,397.3360316000035,397.3360316000035,397.3360316000035,398.70300330000464,Objects\014b.jpg,mid,n,1.3617606000043452,None,397.3360316000035,,,,,,,,00034,001,2026-01-16_13h12.28.236,MST_test,2024.2.0,60.87016333315027,2026-01-16 13h12.39.333172 +0530,
92,0,93,o,3.0463935999869136,None,93,0,92,398.71896600000036,,,,,,,,,,,,,,,,,,,,,,,,,,,,,,,,,,,,,,,,,,,,,,,,,,398.70309070000076,398.71896600000036,399.20264330001373,399.2056234000047,399.2193901999999,399.2193901999999,399.2193901999999,402.2695647000073,Objects\314a.jpg,mid,o,3.0463935999869136,None,399.2193901999999,,,,,,,,00034,001,2026-01-16_13h12.28.236,MST_test,2024.2.0,60.87016333315027,2026-01-16 13h12.39.333172 +0530,
93,0,94,s,1.8640058000019053,None,94,0,93,402.28553740000643,,,,,,,,,,,,,,,,,,,,,,,,,,,,,,,,,,,,,,,,,,,,,,,,,,402.2696597000031,402.28553740000643,402.7693876000121,402.7796287000092,402.7859268000029,402.7859268000029,402.7859268000029,404.6529698000086,Objects\218b.jpg,pre,s,1.8640058000019053,None,402.7859268000029,,,,,,,,00034,001,2026-01-16_13h12.28.236,MST_test,2024.2.0,60.87016333315027,2026-01-16 13h12.39.333172 +0530,
94,0,95,s,1.1920776999904774,None,95,0,94,404.6689891000133,,,,,,,,,,,,,,,,,,,,,,,,,,,,,,,,,,,,,,,,,,,,,,,,,,404.6530594000069,404.6689891000133,405.1526389000064,405.1555103000137,405.1693970000051,405.1693970000051,405.1693970000051,406.36962910000875,Objects\035a.jpg,post,s,1.1920776999904774,None,405.1693970000051,,,,,,,,00034,001,2026-01-16_13h12.28.236,MST_test,2024.2.0,60.87016333315027,2026-01-16 13h12.39.333172 +0530,
95,0,96,n,0.8512296999979299,None,96,0,95,406.3855567000137,,,,,,,,,,,,,,,,,,,,,,,,,,,,,,,,,,,,,,,,,,,,,,,,,,406.3697245000076,406.3855567000137,406.8694292,406.879064400011,406.8858487000107,406.8858487000107,406.8858487000107,407.7529213000089,Objects\031b.jpg,post,n,0.8512296999979299,None,406.8858487000107,,,,,,,,00034,001,2026-01-16_13h12.28.236,MST_test,2024.2.0,60.87016333315027,2026-01-16 13h12.39.333172 +0530,
96,0,97,s,1.8531125000008615,None,97,0,96,407.76906520000193,,,,,,,,,,,,,,,,,,,,,,,,,,,,,,,,,,,,,,,,,,,,,,,,,,407.7530115000118,407.76906520000193,408.2526293000119,408.26223800001026,408.2692648000084,408.2692648000084,408.2692648000084,410.1361736000108,Foils\050a.jpg,none,s,1.8531125000008615,None,408.2692648000084,,,,,,,,00034,001,2026-01-16_13h12.28.236,MST_test,2024.2.0,60.87016333315027,2026-01-16 13h12.39.333172 +0530,
97,0,98,o,1.3650726000050781,None,98,0,97,410.1523956000019,,,,,,,,,,,,,,,,,,,,,,,,,,,,,,,,,,,,,,,,,,,,,,,,,,410.1362766000093,410.1523956000019,410.635841100011,410.63891640001384,410.6526995000022,410.6526995000022,410.6526995000022,412.0196619000053,Objects\319a.jpg,mid,o,1.3650726000050781,None,410.6526995000022,,,,,,,,00034,001,2026-01-16_13h12.28.236,MST_test,2024.2.0,60.87016333315027,2026-01-16 13h12.39.333172 +0530,
98,0,99,n,1.3295982999989064,None,99,0,98,412.0354876000056,,,,,,,,,,,,,,,,,,,,,,,,,,,,,,,,,,,,,,,,,,,,,,,,,,412.01975120000134,412.0354876000056,412.5193166000099,412.529658000014,412.53608680001344,412.53608680001344,412.53608680001344,413.8696055000037,Objects\128b.jpg,post,n,1.3295982999989064,None,412.53608680001344,,,,,,,,00034,001,2026-01-16_13h12.28.236,MST_test,2024.2.0,60.87016333315027,2026-01-16 13h12.39.333172 +0530,
99,0,100,o,1.2632698999950662,None,100,0,99,413.8855997000064,,,,,,,,,,,,,,,,,,,,,,,,,,,,,,,,,,,,,,,,,,,,,,,,,,413.86969720000343,413.8855997000064,414.3695746000012,414.3724394000019,414.3858226000011,414.3858226000011,414.3858226000011,415.65284940000856,Objects\126a.jpg,post,o,1.2632698999950662,None,414.3858226000011,,,,,,,,00034,001,2026-01-16_13h12.28.236,MST_test,2024.2.0,60.87016333315027,2026-01-16 13h12.39.333172 +0530,
100,0,101,n,1.0327362999960314,None,101,0,100,415.66896010001074,,,,,,,,,,,,,,,,,,,,,,,,,,,,,,,,,,,,,,,,,,,,,,,,,,415.65293880000536,415.66896010001074,416.1527575000073,416.1628102000104,416.1692442000058,416.1692442000058,416.1692442000058,417.2030905000138,Objects\185b.jpg,pre,n,1.0327362999960314,None,416.1692442000058,,,,,,,,00034,001,2026-01-16_13h12.28.236,MST_test,2024.2.0,60.87016333315027,2026-01-16 13h12.39.333172 +0530,
101,0,102,s,1.7777276999986498,None,102,0,101,417.21906140001374,,,,,,,,,,,,,,,,,,,,,,,,,,,,,,,,,,,,,,,,,,,,,,,,,,417.20317890000297,417.21906140001374,417.70262890000595,417.7124669000041,417.719385400007,417.719385400007,417.719385400007,419.5029079000087,Objects\284b.jpg,post,s,1.7777276999986498,None,417.719385400007,,,,,,,,00034,001,2026-01-16_13h12.28.236,MST_test,2024.2.0,60.87016333315027,2026-01-16 13h12.39.333172 +0530,
102,0,103,o,2.7826147000014316,None,103,0,102,419.5190423000022,,,,,,,,,,,,,,,,,,,,,,,,,,,,,,,,,,,,,,,,,,,,,,,,,,419.50299750000704,419.5190423000022,420.00257290000445,420.00542820000555,420.0193330000038,420.0193330000038,420.0193330000038,422.8029727000103,Objects\125a.jpg,post,o,2.7826147000014316,None,420.0193330000038,,,,,,,,00034,001,2026-01-16_13h12.28.236,MST_test,2024.2.0,60.87016333315027,2026-01-16 13h12.39.333172 +0530,
103,0,104,s,1.585419600000023,None,104,0,103,422.8190624000126,,,,,,,,,,,,,,,,,,,,,,,,,,,,,,,,,,,,,,,,,,,,,,,,,,422.8030637000047,422.8190624000126,423.30287120000867,423.31329879999976,423.3196893000131,423.3196893000131,423.3196893000131,424.9196135000093,Objects\293b.jpg,mid,s,1.585419600000023,None,423.3196893000131,,,,,,,,00034,001,2026-01-16_13h12.28.236,MST_test,2024.2.0,60.87016333315027,2026-01-16 13h12.39.333172 +0530,
104,0,105,n,1.9733110000088345,None,105,0,104,424.9355760000035,,,,,,,,,,,,,,,,,,,,,,,,,,,,,,,,,,,,,,,,,,,,,,,,,,424.9197045000037,424.9355760000035,425.41930360000697,425.4291771999997,425.4360471000109,425.4360471000109,425.4360471000109,427.41970690000744,Foils\101b.jpg,none,n,1.9733110000088345,None,425.4360471000109,,,,,,,,00034,001,2026-01-16_13h12.28.236,MST_test,2024.2.0,60.87016333315027,2026-01-16 13h12.39.333172 +0530,
105,0,106,n,1.401262899991707,None,106,0,105,427.4355760000035,,,,,,,,,,,,,,,,,,,,,,,,,,,,,,,,,,,,,,,,,,,,,,,,,,427.4198044000077,427.4355760000035,427.91922270000214,427.9294937000086,427.935845,427.935845,427.935845,429.35292130000016,Foils\002a.jpg,none,n,1.401262899991707,None,427.935845,,,,,,,,00034,001,2026-01-16_13h12.28.236,MST_test,2024.2.0,60.87016333315027,2026-01-16 13h12.39.333172 +0530,
106,0,107,n,3.308347300000605,None,107,0,106,429.36906790001376,,,,,,,,,,,,,,,,,,,,,,,,,,,,,,,,,,,,,,,,,,,,,,,,,,429.35305440000957,429.36906790001376,429.85260880000715,429.86183470000105,429.86923820000084,429.86923820000084,429.86923820000084,433.18627980000747,Objects\181a.jpg,post,n,3.308347300000605,None,429.86923820000084,,,,,,,,00034,001,2026-01-16_13h12.28.236,MST_test,2024.2.0,60.87016333315027,2026-01-16 13h12.39.333172 +0530,
107,0,108,s,1.0195906000008108,None,108,0,107,433.20239500000025,,,,,,,,,,,,,,,,,,,,,,,,,,,,,,,,,,,,,,,,,,,,,,,,,,433.1863830000075,433.20239500000025,433.6858607000031,433.68911890000163,433.7027905000141,433.7027905000141,433.7027905000141,434.73620160001155,Objects\288a.jpg,mid,s,1.0195906000008108,None,433.7027905000141,,,,,,,,00034,001,2026-01-16_13h12.28.236,MST_test,2024.2.0,60.87016333315027,2026-01-16 13h12.39.333172 +0530,
108,0,109,n,0.9483820000023115,None,109,0,108,434.7524076000118,,,,,,,,,,,,,,,,,,,,,,,,,,,,,,,,,,,,,,,,,,,,,,,,,,434.7363028000109,434.7524076000118,435.2358372000017,435.24617800000124,435.25276970000414,435.25276970000414,435.25276970000414,436.20286170000327,Foils\042a.jpg,none,n,0.9483820000023115,None,435.25276970000414,,,,,,,,00034,001,2026-01-16_13h12.28.236,MST_test,2024.2.0,60.87016333315027,2026-01-16 13h12.39.333172 +0530,
109,0,110,n,0.8426271000062115,None,110,0,109,436.2189863000094,,,,,,,,,,,,,,,,,,,,,,,,,,,,,,,,,,,,,,,,,,,,,,,,,,436.20295360000455,436.2189863000094,436.7025760000106,436.7118085000111,436.719210700001,436.719210700001,436.719210700001,437.5694943000126,Objects\026a.jpg,post,n,0.8426271000062115,None,436.719210700001,,,,,,,,00034,001,2026-01-16_13h12.28.236,MST_test,2024.2.0,60.87016333315027,2026-01-16 13h12.39.333172 +0530,
110,0,111,n,1.243072299999767,None,111,0,110,437.58556320000207,,,,,,,,,,,,,,,,,,,,,,,,,,,,,,,,,,,,,,,,,,,,,,,,,,437.5695859000116,437.58556320000207,438.06932080000115,438.0727210000041,438.0860579,438.0860579,438.0860579,439.336329800004,Objects\220a.jpg,mid,n,1.243072299999767,None,438.0860579,,,,,,,,00034,001,2026-01-16_13h12.28.236,MST_test,2024.2.0,60.87016333315027,2026-01-16 13h12.39.333172 +0530,
111,0,112,o,1.1806365999946138,None,112,0,111,439.3523947000067,,,,,,,,,,,,,,,,,,,,,,,,,,,,,,,,,,,,,,,,,,,,,,,,,,439.3365010000125,439.3523947000067,439.83579830000235,439.8388938999997,439.8527064000082,439.8527064000082,439.8527064000082,441.03616210000473,Objects\182a.jpg,post,o,1.1806365999946138,None,439.8527064000082,,,,,,,,00034,001,2026-01-16_13h12.28.236,MST_test,2024.2.0,60.87016333315027,2026-01-16 13h12.39.333172 +0530,
112,0,113,s,1.7846903999889037,None,113,0,112,441.0523896000086,,,,,,,,,,,,,,,,,,,,,,,,,,,,,,,,,,,,,,,,,,,,,,,,,,441.0362531999999,441.0523896000086,441.535807200009,441.54663090000395,441.5526356000046,441.5526356000046,441.5526356000046,443.3528873000032,Objects\179b.jpg,pre,s,1.7846903999889037,None,441.5526356000046,,,,,,,,00034,001,2026-01-16_13h12.28.236,MST_test,2024.2.0,60.87016333315027,2026-01-16 13h12.39.333172 +0530,
113,0,114,n,0.820489899997483,None,114,0,113,443.3690720000013,,,,,,,,,,,,,,,,,,,,,,,,,,,,,,,,,,,,,,,,,,,,,,,,,,443.3529760000092,443.3690720000013,443.8525520000112,443.8620477000077,443.8693324000051,443.8693324000051,443.8693324000051,444.70296110000345,Objects\148b.jpg,pre,n,0.820489899997483,None,443.8693324000051,,,,,,,,00034,001,2026-01-16_13h12.28.236,MST_test,2024.2.0,60.87016333315027,2026-01-16 13h12.39.333172 +0530,
114,0,115,n,1.8070711999898776,None,115,0,114,444.718970300004,,,,,,,,,,,,,,,,,,,,,,,,,,,,,,,,,,,,,,,,,,,,,,,,,,444.70304860000033,444.718970300004,445.20261200000823,445.21197600000596,445.21926440000243,445.21926440000243,445.21926440000243,447.0361920000141,Objects\050b.jpg,post,n,1.8070711999898776,None,445.21926440000243,,,,,,,,00034,001,2026-01-16_13h12.28.236,MST_test,2024.2.0,60.87016333315027,2026-01-16 13h12.39.333172 +0530,
115,0,116,s,1.8333318999939365,None,116,0,115,447.0523794000037,,,,,,,,,,,,,,,,,,,,,,,,,,,,,,,,,,,,,,,,,,,,,,,,,,447.03629270000965,447.0523794000037,447.5358941000013,447.5453412000061,447.5525747000065,447.5525747000065,447.5525747000065,449.40284340000653,Foils\049a.jpg,none,s,1.8333318999939365,None,447.5525747000065,,,,,,,,00034,001,2026-01-16_13h12.28.236,MST_test,2024.2.0,60.87016333315027,2026-01-16 13h12.39.333172 +0530,
116,0,117,s,1.242051299996092,None,117,0,116,449.4190416000056,,,,,,,,,,,,,,,,,,,,,,,,,,,,,,,,,,,,,,,,,,,,,,,,,,449.40294189999986,449.4190416000056,449.90272920001007,449.90530730001046,449.9194247000123,449.9194247000123,449.9194247000123,451.1697586000082,Objects\210a.jpg,pre,s,1.242051299996092,None,449.9194247000123,,,,,,,,00034,001,2026-01-16_13h12.28.236,MST_test,2024.2.0,60.87016333315027,2026-01-16 13h12.39.333172 +0530,
117,0,118,s,1.7318349999986822,None,118,0,117,451.185833200012,,,,,,,,,,,,,,,,,,,,,,,,,,,,,,,,,,,,,,,,,,,,,,,,,,451.1698491999996,451.185833200012,451.66941550000047,451.6726381000044,451.6859199000028,451.6859199000028,451.6859199000028,453.4198010000109,Objects\103a.jpg,pre,s,1.7318349999986822,None,451.6859199000028,,,,,,,,00034,001,2026-01-16_13h12.28.236,MST_test,2024.2.0,60.87016333315027,2026-01-16 13h12.39.333172 +0530,
118,0,119,s,1.2253731999953743,None,119,0,118,453.43567050001,,,,,,,,,,,,,,,,,,,,,,,,,,,,,,,,,,,,,,,,,,,,,,,,,,453.4198948000121,453.43567050001,453.9194395000086,453.9219041000033,453.93578650000563,453.93578650000563,453.93578650000563,455.16972520000127,Objects\020a.jpg,pre,s,1.2253731999953743,None,453.93578650000563,,,,,,,,00034,001,2026-01-16_13h12.28.236,MST_test,2024.2.0,60.87016333315027,2026-01-16 13h12.39.333172 +0530,
119,0,120,s,2.172159699999611,None,120,0,119,455.18580920000386,,,,,,,,,,,,,,,,,,,,,,,,,,,,,,,,,,,,,,,,,,,,,,,,,,455.16981350000424,455.18580920000386,455.6693787000113,455.67886230000295,455.6859406000003,455.6859406000003,455.6859406000003,457.8696709000069,Objects\180b.jpg,mid,s,2.172159699999611,None,455.6859406000003,,,,,,,,00034,001,2026-01-16_13h12.28.236,MST_test,2024.2.0,60.87016333315027,2026-01-16 13h12.39.333172 +0530,
120,0,121,s,0.8957699000020511,None,121,0,120,457.88584270000865,,,,,,,,,,,,,,,,,,,,,,,,,,,,,,,,,,,,,,,,,,,,,,,,,,457.8697649000096,457.88584270000865,458.3694103000016,458.37893460001214,458.3858969000139,458.3858969000139,458.3858969000139,459.28622840000025,Objects\130b.jpg,pre,s,0.8957699000020511,None,458.3858969000139,,,,,,,,00034,001,2026-01-16_13h12.28.236,MST_test,2024.2.0,60.87016333315027,2026-01-16 13h12.39.333172 +0530,
121,0,122,n,0.8943725999997696,None,122,0,121,459.3024924000056,,,,,,,,,,,,,,,,,,,,,,,,,,,,,,,,,,,,,,,,,,,,,,,,,,459.2863204000023,459.3024924000056,459.7861172000121,459.7958607000037,459.80267900000035,459.80267900000035,459.80267900000035,460.7031078,Foils\018a.jpg,none,n,0.8943725999997696,None,459.80267900000035,,,,,,,,00034,001,2026-01-16_13h12.28.236,MST_test,2024.2.0,60.87016333315027,2026-01-16 13h12.39.333172 +0530,
122,0,123,n,0.9505038999923272,None,123,0,122,460.7191295000084,,,,,,,,,,,,,,,,,,,,,,,,,,,,,,,,,,,,,,,,,,,,,,,,,,460.70319810000365,460.7191295000084,461.20270160000655,461.21212940000987,461.21933200000785,461.21933200000785,461.21933200000785,462.1863738000102,Objects\165b.jpg,pre,n,0.9505038999923272,None,461.21933200000785,,,,,,,,00034,001,2026-01-16_13h12.28.236,MST_test,2024.2.0,60.87016333315027,2026-01-16 13h12.39.333172 +0530,
123,0,124,s,1.594425199989928,None,124,0,123,462.2024344000092,,,,,,,,,,,,,,,,,,,,,,,,,,,,,,,,,,,,,,,,,,,,,,,,,,462.18646580001223,462.2024344000092,462.6860577000043,462.6959657000116,462.7029072000005,462.7029072000005,462.7029072000005,464.3029508000036,Objects\353b.jpg,mid,s,1.594425199989928,None,462.7029072000005,,,,,,,,00034,001,2026-01-16_13h12.28.236,MST_test,2024.2.0,60.87016333315027,2026-01-16 13h12.39.333172 +0530,
124,0,125,n,1.4855855999921914,None,125,0,124,464.31918010000663,,,,,,,,,,,,,,,,,,,,,,,,,,,,,,,,,,,,,,,,,,,,,,,,,,464.30304080000496,464.31918010000663,464.80280800000764,464.8134934000118,464.8194598000118,464.8194598000118,464.8194598000118,466.3196244999999,Foils\081a.jpg,none,n,1.4855855999921914,None,464.8194598000118,,,,,,,,00034,001,2026-01-16_13h12.28.236,MST_test,2024.2.0,60.87016333315027,2026-01-16 13h12.39.333172 +0530,
125,0,126,n,1.309167499988689,None,126,0,125,466.33581120001327,,,,,,,,,,,,,,,,,,,,,,,,,,,,,,,,,,,,,,,,,,,,,,,,,,466.31971429999976,466.33581120001327,466.8193542000081,466.829249500006,466.83604840000044,466.83604840000044,466.83604840000044,468.1529962000059,Foils\121a.jpg,none,n,1.309167499988689,None,466.83604840000044,,,,,,,,00034,001,2026-01-16_13h12.28.236,MST_test,2024.2.0,60.87016333315027,2026-01-16 13h12.39.333172 +0530,
126,0,127,n,0.7251471000054153,None,127,0,126,468.1690743000072,,,,,,,,,,,,,,,,,,,,,,,,,,,,,,,,,,,,,,,,,,,,,,,,,,468.15308640000876,468.1690743000072,468.65275180000754,468.6621865000052,468.66938270001265,468.66938270001265,468.66938270001265,469.4030494000035,Foils\020b.jpg,none,n,0.7251471000054153,None,468.66938270001265,,,,,,,,00034,001,2026-01-16_13h12.28.236,MST_test,2024.2.0,60.87016333315027,2026-01-16 13h12.39.333172 +0530,
127,0,128,s,1.0580716999975266,None,128,0,127,469.41917400000966,,,,,,,,,,,,,,,,,,,,,,,,,,,,,,,,,,,,,,,,,,,,,,,,,,469.40313970000716,469.41917400000966,469.90269680001074,469.9049331000133,469.91937410000537,469.91937410000537,469.91937410000537,470.9864094000077,Objects\274a.jpg,pre,s,1.0580716999975266,None,469.91937410000537,,,,,,,,00034,001,2026-01-16_13h12.28.236,MST_test,2024.2.0,60.87016333315027,2026-01-16 13h12.39.333172 +0530,
128,0,129,o,1.2913877999963006,None,129,0,128,471.00246070000867,,,,,,,,,,,,,,,,,,,,,,,,,,,,,,,,,,,,,,,,,,,,,,,,,,470.9864996000106,471.00246070000867,471.4860824000061,471.4886525000038,471.5027068000054,471.5027068000054,471.5027068000054,472.8030859999999,Objects\061a.jpg,mid,o,1.2913877999963006,None,471.5027068000054,,,,,,,,00034,001,2026-01-16_13h12.28.236,MST_test,2024.2.0,60.87016333315027,2026-01-16 13h12.39.333172 +0530,
129,0,130,n,0.7780071000015596,None,130,0,129,472.81911170000967,,,,,,,,,,,,,,,,,,,,,,,,,,,,,,,,,,,,,,,,,,,,,,,,,,472.8031748000067,472.81911170000967,473.3028224000009,473.3122904000047,473.3192396000086,473.3192396000086,473.3192396000086,474.10293620001175,Objects\004b.jpg,mid,n,0.7780071000015596,None,473.3192396000086,,,,,,,,00034,001,2026-01-16_13h12.28.236,MST_test,2024.2.0,60.87016333315027,2026-01-16 13h12.39.333172 +0530,
130,0,131,n,0.8065812999993796,None,131,0,130,474.11915510000836,,,,,,,,,,,,,,,,,,,,,,,,,,,,,,,,,,,,,,,,,,,,,,,,,,474.1030260000116,474.11915510000836,474.6026944000041,474.61253120000765,474.61924890000955,474.61924890000955,474.61924890000955,475.4361935000052,Objects\156a.jpg,pre,n,0.8065812999993796,None,474.61924890000955,,,,,,,,00034,001,2026-01-16_13h12.28.236,MST_test,2024.2.0,60.87016333315027,2026-01-16 13h12.39.333172 +0530,
131,0,132,n,0.752799200010486,None,132,0,131,475.4525210000138,,,,,,,,,,,,,,,,,,,,,,,,,,,,,,,,,,,,,,,,,,,,,,,,,,475.4362811000028,475.4525210000138,475.93603120000625,475.9457606000069,475.9526093000022,475.9526093000022,475.9526093000022,476.71979510001256,Objects\036a.jpg,mid,n,0.752799200010486,None,475.9526093000022,,,,,,,,00034,001,2026-01-16_13h12.28.236,MST_test,2024.2.0,60.87016333315027,2026-01-16 13h12.39.333172 +0530,
132,0,133,n,0.7257474999933038,None,133,0,132,476.7357752000098,,,,,,,,,,,,,,,,,,,,,,,,,,,,,,,,,,,,,,,,,,,,,,,,,,476.7198841000063,476.7357752000098,477.21944080000685,477.2285273000016,477.23594880000746,477.23594880000746,477.23594880000746,477.969729000004,Foils\074a.jpg,none,n,0.7257474999933038,None,477.23594880000746,,,,,,,,00034,001,2026-01-16_13h12.28.236,MST_test,2024.2.0,60.87016333315027,2026-01-16 13h12.39.333172 +0530,
133,0,134,s,1.2835931000008713,None,134,0,133,477.98571960000845,,,,,,,,,,,,,,,,,,,,,,,,,,,,,,,,,,,,,,,,,,,,,,,,,,477.9698180000123,477.98571960000845,478.4696247000102,478.472167800006,478.48586590000195,478.48586590000195,478.48586590000195,479.7863314000133,Objects\204a.jpg,pre,s,1.2835931000008713,None,478.48586590000195,,,,,,,,00034,001,2026-01-16_13h12.28.236,MST_test,2024.2.0,60.87016333315027,2026-01-16 13h12.39.333172 +0530,
134,0,135,n,0.6506169000058435,None,135,0,134,479.80246240001,,,,,,,,,,,,,,,,,,,,,,,,,,,,,,,,,,,,,,,,,,,,,,,,,,479.7864331000019,479.80246240001,480.28589120000834,480.2957791000081,480.30264950000856,480.30264950000856,480.30264950000856,480.9696952000086,Objects\060b.jpg,pre,n,0.6506169000058435,None,480.30264950000856,,,,,,,,00034,001,2026-01-16_13h12.28.236,MST_test,2024.2.0,60.87016333315027,2026-01-16 13h12.39.333172 +0530,
135,0,136,o,0.9958073000016157,None,136,0,135,480.98582920001354,,,,,,,,,,,,,,,,,,,,,,,,,,,,,,,,,,,,,,,,,,,,,,,,,,480.96978680000757,480.98582920001354,481.4693352000031,481.47158460000355,481.48580100000254,481.48580100000254,481.48580100000254,482.48608070000773,Objects\380a.jpg,pre,o,0.9958073000016157,None,481.48580100000254,,,,,,,,00034,001,2026-01-16_13h12.28.236,MST_test,2024.2.0,60.87016333315027,2026-01-16 13h12.39.333172 +0530,
136,0,137,s,1.5584414999902947,None,137,0,136,482.50238390000595,,,,,,,,,,,,,,,,,,,,,,,,,,,,,,,,,,,,,,,,,,,,,,,,,,482.4861697000015,482.50238390000595,482.9858219000016,482.9882598000113,483.002616400001,483.002616400001,483.002616400001,484.56962300000305,Objects\041a.jpg,pre,s,1.5584414999902947,None,483.002616400001,,,,,,,,00034,001,2026-01-16_13h12.28.236,MST_test,2024.2.0,60.87016333315027,2026-01-16 13h12.39.333172 +0530,
137,0,138,s,1.0679431000025943,None,138,0,137,484.58566580001207,,,,,,,,,,,,,,,,,,,,,,,,,,,,,,,,,,,,,,,,,,,,,,,,,,484.5697121000121,484.58566580001207,485.06929080000555,485.0718855000014,485.0858874000114,485.0858874000114,485.0858874000114,486.16954450000776,Objects\042a.jpg,mid,s,1.0679431000025943,None,485.0858874000114,,,,,,,,00034,001,2026-01-16_13h12.28.236,MST_test,2024.2.0,60.87016333315027,2026-01-16 13h12.39.333172 +0530,
138,0,139,s,0.8034288999915589,None,139,0,138,486.1855552000052,,,,,,,,,,,,,,,,,,,,,,,,,,,,,,,,,,,,,,,,,,,,,,,,,,486.1696374000021,486.1855552000052,486.66929980000714,486.67476320000424,486.68588660001114,486.68588660001114,486.68588660001114,487.50287290000415,Objects\227a.jpg,post,s,0.8034288999915589,None,486.68588660001114,,,,,,,,00034,001,2026-01-16_13h12.28.236,MST_test,2024.2.0,60.87016333315027,2026-01-16 13h12.39.333172 +0530,
139,0,140,s,1.0873645999963628,None,140,0,139,487.519063300002,,,,,,,,,,,,,,,,,,,,,,,,,,,,,,,,,,,,,,,,,,,,,,,,,,487.5029622000002,487.519063300002,488.00266170001123,488.0123800000001,488.0192773000017,488.0192773000017,488.0192773000017,489.1196447000111,Objects\002b.jpg,pre,s,1.0873645999963628,None,488.0192773000017,,,,,,,,00034,001,2026-01-16_13h12.28.236,MST_test,2024.2.0,60.87016333315027,2026-01-16 13h12.39.333172 +0530,
140,0,141,s,0.7185527999972692,None,141,0,140,489.1355648000026,,,,,,,,,,,,,,,,,,,,,,,,,,,,,,,,,,,,,,,,,,,,,,,,,,489.1197377000062,489.1355648000026,489.6193090000015,489.62401490000775,489.63592700001027,489.63592700001027,489.63592700001027,490.3697508000041,Objects\324a.jpg,post,s,0.7185527999972692,None,489.63592700001027,,,,,,,,00034,001,2026-01-16_13h12.28.236,MST_test,2024.2.0,60.87016333315027,2026-01-16 13h12.39.333172 +0530,
141,0,142,n,1.1389544999983627,None,142,0,141,490.3856203000032,,,,,,,,,,,,,,,,,,,,,,,,,,,,,,,,,,,,,,,,,,,,,,,,,,490.3698432000092,490.3856203000032,490.8693425000092,490.8801372000016,490.8860654000018,490.8860654000018,490.8860654000018,492.03622069999983,Objects\346b.jpg,post,n,1.1389544999983627,None,490.8860654000018,,,,,,,,00034,001,2026-01-16_13h12.28.236,MST_test,2024.2.0,60.87016333315027,2026-01-16 13h12.39.333172 +0530,
142,0,143,n,1.1692728999914834,None,143,0,142,492.05239950001123,,,,,,,,,,,,,,,,,,,,,,,,,,,,,,,,,,,,,,,,,,,,,,,,,,492.0363136000087,492.05239950001123,492.53596440001274,492.54601110001386,492.55271880001237,492.55271880001237,492.55271880001237,493.73631650001334,Objects\077b.jpg,post,n,1.1692728999914834,None,492.55271880001237,,,,,,,,00034,001,2026-01-16_13h12.28.236,MST_test,2024.2.0,60.87016333315027,2026-01-16 13h12.39.333172 +0530,
143,0,144,n,1.0445716999965953,None,144,0,143,493.7523734000133,,,,,,,,,,,,,,,,,,,,,,,,,,,,,,,,,,,,,,,,,,,,,,,,,,493.7364111000061,493.7523734000133,494.23584510000364,494.24502650000795,494.2526966000005,494.2526966000005,494.2526966000005,495.3028946000122,Foils\026a.jpg,none,n,1.0445716999965953,None,494.2526966000005,,,,,,,,00034,001,2026-01-16_13h12.28.236,MST_test,2024.2.0,60.87016333315027,2026-01-16 13h12.39.333172 +0530,
144,0,145,s,1.0859350000100676,None,145,0,144,495.3190716000099,,,,,,,,,,,,,,,,,,,,,,,,,,,,,,,,,,,,,,,,,,,,,,,,,,495.3029865000135,495.3190716000099,495.8026334000024,495.805013300007,495.819239000004,495.819239000004,495.819239000004,496.91962940001395,Objects\155a.jpg,pre,s,1.0859350000100676,None,495.819239000004,,,,,,,,00034,001,2026-01-16_13h12.28.236,MST_test,2024.2.0,60.87016333315027,2026-01-16 13h12.39.333172 +0530,
145,0,146,n,1.0378965999989305,None,146,0,145,496.9356652000133,,,,,,,,,,,,,,,,,,,,,,,,,,,,,,,,,,,,,,,,,,,,,,,,,,496.9197181000054,496.9356652000133,497.4193249000091,497.42255830000795,497.43597930000396,497.43597930000396,497.43597930000396,498.4862498000002,Objects\205a.jpg,post,n,1.0378965999989305,None,497.43597930000396,,,,,,,,00034,001,2026-01-16_13h12.28.236,MST_test,2024.2.0,60.87016333315027,2026-01-16 13h12.39.333172 +0530,
146,0,147,s,1.0710919000121066,None,147,0,146,498.50259110001207,,,,,,,,,,,,,,,,,,,,,,,,,,,,,,,,,,,,,,,,,,,,,,,,,,498.4863444000075,498.50259110001207,498.9858202000032,498.989170300003,499.002702400001,499.002702400001,499.002702400001,500.08611820000806,Objects\229a.jpg,post,s,1.0710919000121066,None,499.002702400001,,,,,,,,00034,001,2026-01-16_13h12.28.236,MST_test,2024.2.0,60.87016333315027,2026-01-16 13h12.39.333172 +0530,
147,0,148,n,0.9665080999984639,None,148,0,147,500.1023913000099,,,,,,,,,,,,,,,,,,,,,,,,,,,,,,,,,,,,,,,,,,,,,,,,,,500.0862085000117,500.1023913000099,500.58589900001243,500.59792970000126,500.6027893999999,500.6027893999999,500.6027893999999,501.5697918000078,Foils\057a.jpg,none,n,0.9665080999984639,None,500.6027893999999,,,,,,,,00034,001,2026-01-16_13h12.28.236,MST_test,2024.2.0,60.87016333315027,2026-01-16 13h12.39.333172 +0530,
148,0,149,s,1.1632699000037974,None,149,0,148,501.5857047000027,,,,,,,,,,,,,,,,,,,,,,,,,,,,,,,,,,,,,,,,,,,,,,,,,,501.56989180001256,501.5857047000027,502.06931940000504,502.07878410001285,502.0859022000077,502.0859022000077,502.0859022000077,503.25297520001186,Objects\081b.jpg,post,s,1.1632699000037974,None,502.0859022000077,,,,,,,,00034,001,2026-01-16_13h12.28.236,MST_test,2024.2.0,60.87016333315027,2026-01-16 13h12.39.333172 +0530,
149,0,150,n,1.632575600000564,None,150,0,149,503.26905430000625,,,,,,,,,,,,,,,,,,,,,,,,,,,,,,,,,,,,,,,,,,,,,,,,,,503.2530673000001,503.26905430000625,503.7525674000062,503.7549330000038,503.76920840000093,503.76920840000093,503.76920840000093,505.403040300007,Objects\157a.jpg,post,n,1.632575600000564,None,503.76920840000093,,,,,,,,00034,001,2026-01-16_13h12.28.236,MST_test,2024.2.0,60.87016333315027,2026-01-16 13h12.39.333172 +0530,
,,,,,,,,,,,,,,,,,,,,,,,,,,,,,,,,,,,,,,,,,,,,,,,,,,,,,,,,,,,,,,,,,,,,,,,,,505.403103500008,505.4190282000054,505.4190282000054,507.8028541000094,space,2.3827488999959314,None,00034,001,2026-01-16_13h12.28.236,MST_test,2024.2.0,60.87016333315027,2026-01-16 13h12.39.333172 +0530,
